LabVIEW Measurement	
Writer_Version	2
Reader_Version	2
Separator	Tab
Decimal_Separator	.
Multi_Headings	No
X_Columns	One
Time_Pref	Absolute
Operator	admin
Description	Clolumns are: time, Current, Voltage, Power, Battery Temp, and Chamber Temp
Date	2024/08/16
Time	13:06:06.104549407958984375
***End_of_Header***	
	
Channels	6						
Samples	1	1	1	1	1	1	
Date	2024/09/13	2024/09/13	2024/09/13	2024/09/13	2024/09/13	2024/09/13	
Time	21:40:06.854644775390625	21:40:06.8595952987670898437	21:40:06.8664717674255371094	21:40:06.8382282257080078125	21:40:06.8382282257080078125	21:40:06.8382282257080078125	
X_Dimension	Time	Time	Time	Time	Time	Time	
X0	0.0000000000000000E+0	0.0000000000000000E+0	0.0000000000000000E+0	0.0000000000000000E+0	0.0000000000000000E+0	0.0000000000000000E+0	
Delta_X	1.000000	1.000000	1.000000	1.000000	1.000000	1.000000	
***End_of_Header***							
X_Value	Untitled	Untitled 1	Untitled 2	Untitled 3	Untitled 4	Untitled 5	Comment
0.000000	0.070693	4.094000	0.293240	21.070335	0.000923	20.825704
0.998027	-3.011500	3.913300	-11.784000	21.070034	0.000925	20.833463
2.001128	-2.994800	3.908300	-11.703000	21.054692	0.000924	20.815747
2.998637	-3.007200	3.903000	-11.736000	21.059605	0.000923	20.822557
4.002722	-2.989700	3.897900	-11.653000	21.076695	0.000921	20.824004
4.999753	-2.998800	3.893600	-11.675000	21.084403	0.000922	20.829817
5.998969	-3.001000	3.892300	-11.680000	21.066691	0.000922	20.819688
7.000674	-3.013500	3.889800	-11.721000	21.064173	0.000920	20.828549
8.000602	-3.005200	3.888000	-11.683000	21.065915	0.000918	20.832188
9.000510	-3.008400	3.885700	-11.689000	21.064696	0.000919	20.811055
10.001774	-3.004200	3.882500	-11.662000	21.088768	0.000917	20.809054
11.002320	-2.993000	3.883000	-11.621000	21.087099	0.000916	20.823506
12.001902	-2.997900	3.879800	-11.631000	21.082501	0.000915	20.837398
13.003482	-2.990500	3.878000	-11.596000	21.082600	0.000915	20.805255
14.001567	-2.989600	3.878200	-11.594000	21.097774	0.000917	20.824701
15.001557	-3.035100	3.875200	-11.760000	21.088516	0.000914	20.826345
16.001470	-3.014600	3.876300	-11.685000	21.098470	0.000912	20.807853
17.002209	-3.001500	3.874300	-11.627000	21.107778	0.000912	20.821905
18.005066	-3.005000	3.871900	-11.633000	21.098618	0.000911	20.804682
19.002053	-2.996600	3.871500	-11.600000	21.110266	0.000911	20.824868
20.003637	-2.995200	3.871400	-11.595000	21.115634	0.000911	20.818857
21.001546	-3.003400	3.868900	-11.619000	21.115467	0.000910	20.802095
22.002913	-2.984500	3.870200	-11.549000	21.131929	0.000913	20.809078
23.004919	-3.038000	3.867600	-11.748000	21.131553	0.000910	20.814867
24.006398	-2.979300	3.869700	-11.528000	21.137346	0.000909	20.792212
25.004839	-2.992900	3.865700	-11.568000	21.155802	0.000906	20.808777
26.004586	-2.996100	3.865700	-11.581000	21.167756	0.000910	20.804614
27.004862	-3.003400	3.865500	-11.609000	21.151295	0.000908	20.805691
28.005043	-2.995200	3.866100	-11.579000	21.166384	0.000907	20.826948
29.007062	-3.002700	3.862100	-11.595000	21.177987	0.000907	20.808684
30.009537	-3.008400	3.863500	-11.621000	21.181908	0.000908	20.811658
31.006783	-2.998300	3.864100	-11.585000	21.197931	0.000908	20.812039
32.004430	-3.016800	3.860700	-11.645000	21.200301	0.000905	20.800659
33.006335	-2.989500	3.861600	-11.543000	21.204714	0.000906	20.808394
34.009804	-2.991100	3.862000	-11.551000	21.209553	0.000906	20.805173
35.007266	-2.990000	3.861300	-11.543000	21.198312	0.000907	20.809575
36.007844	-3.013600	3.861500	-11.636000	21.199734	0.000908	20.815739
37.007307	-3.018700	3.860300	-11.652000	21.219764	0.000908	20.808750
38.006879	-2.994000	3.859500	-11.554000	21.211085	0.000905	20.808128
39.007654	-2.995800	3.859500	-11.561000	21.195972	0.000906	20.799174
40.010065	-3.013100	3.858000	-11.623000	21.225784	0.000905	20.796754
41.007368	-3.003800	3.857200	-11.586000	21.232444	0.000905	20.781131
42.017079	-2.997900	3.856900	-11.561000	21.257817	0.000906	20.790393
43.007883	-2.994600	3.856000	-11.546000	21.264680	0.000904	20.798681
44.007669	-3.011600	3.855200	-11.609000	21.273715	0.000906	20.796814
45.010369	-2.987300	3.855800	-11.517000	21.264882	0.000907	20.796039
46.017255	-2.984900	3.856900	-11.511000	21.280572	0.000903	20.784234
47.010515	-3.005000	3.856100	-11.586000	21.272496	0.000904	20.790853
48.009342	-3.000700	3.855700	-11.567000	21.291977	0.000904	20.781420
49.010154	-3.005000	3.853100	-11.577000	21.293577	0.000904	20.807676
50.012383	-2.987200	3.854400	-11.513000	21.303056	0.000906	20.797719
51.012929	-2.999600	3.854100	-11.559000	21.314037	0.000904	20.807282
52.013587	-3.004600	3.851900	-11.572000	21.325085	0.000904	20.797947
53.012052	-3.015200	3.851600	-11.613000	21.320924	0.000904	20.798051
54.013034	-3.002800	3.851500	-11.564000	21.328151	0.000904	20.793427
55.012439	-2.984300	3.852500	-11.497000	21.329904	0.000902	20.787595
56.015319	-2.979800	3.852700	-11.479000	21.335370	0.000903	20.785476
57.013538	-2.961700	3.852200	-11.407000	21.354025	0.000904	20.784226
58.016155	-2.972600	3.851900	-11.450000	21.356696	0.000904	20.773622
59.012739	-2.988500	3.849700	-11.504000	21.377056	0.000902	20.790673
60.013400	-2.997800	3.850500	-11.542000	21.387581	0.000903	20.786504
61.013832	-3.005900	3.849500	-11.571000	21.387008	0.000904	20.775974
62.013344	-3.011400	3.849800	-11.591000	21.391095	0.000902	20.773425
63.012839	-2.992800	3.849900	-11.521000	21.399108	0.000902	20.799460
64.014278	-3.008500	3.848600	-11.577000	21.399735	0.000902	20.774957
65.012846	-3.012600	3.847900	-11.589000	21.422858	0.000904	20.787187
66.013613	-2.991700	3.848800	-11.514000	21.421510	0.000906	20.781571
67.016136	-3.000500	3.848200	-11.546000	21.433388	0.000906	20.772118
68.014851	-2.998800	3.846900	-11.534000	21.445802	0.000904	20.798764
69.014986	-2.996200	3.848000	-11.528000	21.437979	0.000905	20.780979
70.016662	-2.985900	3.848500	-11.490000	21.468751	0.000904	20.796122
71.015459	-3.019400	3.846700	-11.614000	21.451519	0.000907	20.794053
72.018597	-2.999500	3.845900	-11.535000	21.467749	0.000902	20.777575
73.016083	-3.000800	3.844900	-11.537000	21.481669	0.000904	20.781546
74.017058	-3.015900	3.845600	-11.597000	21.459865	0.000907	20.771583
75.019501	-3.004000	3.846000	-11.551000	21.483189	0.000904	20.792551
76.015448	-2.994700	3.845600	-11.515000	21.473115	0.000906	20.787686
77.018839	-2.982800	3.843700	-11.464000	21.484734	0.000905	20.810692
78.017807	-2.979900	3.844600	-11.456000	21.493412	0.000905	20.781442
79.015575	-2.982400	3.844100	-11.463000	21.524237	0.000904	20.764397
80.015367	-2.995600	3.843200	-11.512000	21.510816	0.000905	20.773727
81.017193	-3.003800	3.842400	-11.541000	21.510312	0.000904	20.775593
82.016156	-2.981700	3.846000	-11.466000	21.538313	0.000905	20.776111
83.025243	-2.997600	3.843300	-11.520000	21.537943	0.000904	20.770051
84.015289	-2.983900	3.843800	-11.468000	21.538633	0.000906	20.782595
85.017152	-3.000300	3.841600	-11.523000	21.550350	0.000906	20.784363
86.016034	-2.984200	3.842800	-11.467000	21.564621	0.000906	20.774461
87.016838	-3.009200	3.842000	-11.560000	21.561021	0.000907	20.760902
88.021523	-3.010000	3.842100	-11.564000	21.577230	0.000906	20.773328
89.018837	-3.017900	3.840900	-11.591000	21.586000	0.000906	20.773569
90.019529	-3.002100	3.841800	-11.531000	21.598941	0.000905	20.776562
91.017860	-2.989300	3.841400	-11.482000	21.611611	0.000905	20.766007
92.017606	-2.997100	3.839100	-11.505000	21.620080	0.000907	20.777327
93.018578	-2.995100	3.841000	-11.503000	21.640361	0.000906	20.783398
94.022134	-2.993600	3.840800	-11.497000	21.638909	0.000906	20.762030
95.018785	-2.982800	3.840100	-11.454000	21.649875	0.000908	20.781065
96.018353	-2.987300	3.840600	-11.472000	21.645936	0.000910	20.775701
97.019554	-2.998100	3.839600	-11.511000	21.663664	0.000909	20.769735
98.019063	-2.991900	3.839700	-11.487000	21.669424	0.000910	20.772654
99.021806	-3.005200	3.839600	-11.539000	21.655837	0.000909	20.743409
100.019933	-3.014600	3.838100	-11.569000	21.693957	0.000907	20.782507
101.020485	-2.993900	3.839700	-11.494000	21.677147	0.000909	20.787021
102.018730	-3.006400	3.840800	-11.546000	21.685127	0.000909	20.763239
103.017358	-2.997800	3.837900	-11.505000	21.695772	0.000909	20.768202
104.019371	-2.997700	3.838600	-11.505000	21.719412	0.000910	20.769575
105.019213	-3.010600	3.837100	-11.551000	21.716835	0.000910	20.775531
106.019267	-2.999800	3.836800	-11.507000	21.719825	0.000909	20.749600
107.019490	-3.005900	3.837300	-11.533000	21.714885	0.000911	20.766467
108.020589	-3.006400	3.837500	-11.536000	21.722914	0.000911	20.758856
109.021249	-2.997900	3.837100	-11.502000	21.735356	0.000912	20.749970
110.023789	-2.995600	3.838400	-11.497000	21.750289	0.000910	20.772502
111.029203	-2.990000	3.835200	-11.466000	21.755174	0.000911	20.784030
112.027501	-2.991600	3.836900	-11.478000	21.744875	0.000910	20.758074
113.022510	-3.010800	3.835000	-11.545000	21.748615	0.000913	20.790742
114.022287	-3.004900	3.835200	-11.523000	21.791253	0.000911	20.756128
115.026237	-2.988500	3.835900	-11.462000	21.769110	0.000913	20.763364
116.023688	-3.023400	3.833500	-11.589000	21.799455	0.000911	20.779036
117.023763	-2.982200	3.834700	-11.435000	21.803590	0.000912	20.760889
118.025571	-3.006000	3.834600	-11.526000	21.833041	0.000912	20.747218
119.024836	-3.000800	3.833300	-11.502000	21.839495	0.000913	20.769800
120.025488	-3.026100	3.833100	-11.598000	21.839495	0.000912	20.777386
121.031498	-2.997900	3.834200	-11.493000	21.836351	0.000912	20.761912
122.025893	-3.015400	3.831400	-11.552000	21.836425	0.000914	20.762934
123.026726	-2.995600	3.832300	-11.479000	21.849462	0.000913	20.766500
124.025219	-2.994200	3.833300	-11.476000	21.839366	0.000912	20.776783
125.024402	-2.989000	3.832900	-11.455000	21.852452	0.000915	20.759535
126.029100	-3.016000	3.832200	-11.556000	21.854199	0.000914	20.750378
127.028640	-2.994700	3.831900	-11.474000	21.870927	0.000915	20.756216
128.027306	-2.994400	3.832100	-11.473000	21.886012	0.000913	20.768470
129.028328	-2.980500	3.832400	-11.421000	21.888934	0.000912	20.753376
130.027410	-2.994600	3.831100	-11.471000	21.896212	0.000916	20.782947
131.028402	-2.998200	3.831000	-11.484000	21.888884	0.000913	20.764707
132.028533	-2.980500	3.831200	-11.418000	21.896918	0.000915	20.743350
133.029369	-2.993300	3.830500	-11.464000	21.900732	0.000915	20.751910
134.028261	-2.975700	3.831300	-11.399000	21.896143	0.000917	20.762964
135.030123	-2.998600	3.828800	-11.481000	21.915042	0.000917	20.757225
136.028986	-2.985600	3.830300	-11.435000	21.950292	0.000917	20.768802
137.033176	-3.001700	3.829100	-11.493000	21.925562	0.000918	20.755427
138.030322	-3.006700	3.828900	-11.511000	21.958350	0.000917	20.741306
139.034757	-2.999300	3.829500	-11.485000	21.961991	0.000918	20.747322
140.031034	-3.008500	3.828900	-11.518000	21.953441	0.000917	20.760574
141.031324	-2.999100	3.828800	-11.480000	21.979117	0.000919	20.762569
142.035183	-2.985400	3.828800	-11.430000	21.971188	0.000920	20.752261
143.032598	-3.014600	3.828400	-11.540000	21.971563	0.000920	20.742205
144.031998	-3.008700	3.829200	-11.519000	21.981264	0.000920	20.728681
145.032520	-3.010300	3.826700	-11.518000	21.984604	0.000920	20.732499
146.033291	-2.999000	3.827200	-11.477000	21.990012	0.000921	20.756405
147.033405	-3.013700	3.828300	-11.535000	22.000364	0.000919	20.738318
148.036331	-2.989300	3.826700	-11.439000	22.006275	0.000922	20.741391
149.034079	-3.016800	3.826200	-11.542000	22.047803	0.000922	20.747876
150.035168	-3.000800	3.826100	-11.479000	22.043189	0.000921	20.738990
151.035195	-3.008900	3.826300	-11.512000	22.050220	0.000921	20.736071
152.035150	-2.977900	3.826200	-11.392000	22.034817	0.000922	20.747204
153.038523	-2.971900	3.827000	-11.373000	22.022478	0.000924	20.751447
154.042803	-2.979300	3.826500	-11.398000	22.052569	0.000923	20.760234
155.039122	-2.995000	3.824900	-11.454000	22.057128	0.000923	20.734451
156.038089	-2.975300	3.827400	-11.386000	22.073384	0.000924	20.743140
157.037833	-2.984500	3.825600	-11.417000	22.092951	0.000924	20.743762
158.039714	-3.001200	3.825100	-11.479000	22.081338	0.000927	20.747309
159.037448	-2.997900	3.826100	-11.469000	22.109774	0.000924	20.748750
160.039072	-2.992300	3.825400	-11.446000	22.111625	0.000927	20.747758
161.039713	-3.010800	3.823900	-11.512000	22.119632	0.000926	20.737757
162.041740	-3.002800	3.824500	-11.482000	22.147974	0.000926	20.748115
163.039920	-3.002200	3.823600	-11.477000	22.130224	0.000926	20.733662
164.039341	-2.992700	3.826100	-11.449000	22.156825	0.000926	20.741328
165.039134	-3.007700	3.824200	-11.501000	22.146800	0.000929	20.745516
166.040662	-3.002200	3.822900	-11.475000	22.166691	0.000928	20.717065
167.041069	-3.031100	3.822600	-11.585000	22.176617	0.000928	20.725107
168.040483	-3.002400	3.823000	-11.477000	22.172779	0.000928	20.740706
169.044531	-2.979000	3.821500	-11.383000	22.165404	0.000928	20.736167
170.041797	-2.997900	3.821700	-11.456000	22.169538	0.000930	20.726080
171.047191	-2.998700	3.821500	-11.457000	22.194589	0.000931	20.728402
172.041938	-3.004500	3.821700	-11.481000	22.173455	0.000932	20.728580
173.041914	-3.010800	3.820300	-11.501000	22.190904	0.000932	20.732774
174.042551	-2.978100	3.822500	-11.383000	22.182908	0.000932	20.730458
175.045728	-2.990900	3.821000	-11.426000	22.189292	0.000931	20.749653
176.060255	-3.008800	3.820900	-11.496000	22.186026	0.000932	20.729786
177.043661	-3.001400	3.820000	-11.463000	22.187422	0.000933	20.720278
178.043191	-2.990800	3.820100	-11.424000	22.200135	0.000932	20.744387
179.042957	-2.985800	3.821200	-11.408000	22.206617	0.000933	20.712943
180.046988	-2.998400	3.820500	-11.454000	22.231993	0.000934	20.731713
181.042924	-3.004800	3.819000	-11.474000	22.232319	0.000934	20.723979
182.048272	-3.005900	3.820000	-11.482000	22.235757	0.000936	20.721257
183.049000	-2.990100	3.820300	-11.423000	22.252528	0.000936	20.715764
184.043038	-3.014300	3.818500	-11.509000	22.260160	0.000936	20.729570
185.053652	-3.002900	3.818700	-11.466000	22.267091	0.000938	20.712801
186.046414	-2.974400	3.820600	-11.361000	22.264520	0.000935	20.737730
187.043658	-2.997000	3.818000	-11.442000	22.281420	0.000937	20.720511
188.044528	-2.995200	3.817400	-11.433000	22.271697	0.000936	20.714569
189.044497	-3.014700	3.817600	-11.507000	22.280325	0.000939	20.734115
190.044582	-3.011100	3.817300	-11.494000	22.271728	0.000939	20.732144
191.046618	-2.999100	3.817000	-11.445000	22.272324	0.000939	20.718042
192.046566	-2.997100	3.818100	-11.442000	22.285165	0.000940	20.730425
193.047842	-2.986700	3.816600	-11.398000	22.294783	0.000941	20.733419
194.046773	-2.996600	3.815600	-11.432000	22.315920	0.000941	20.722814
195.046854	-2.994100	3.815900	-11.425000	22.331201	0.000942	20.736694
196.050631	-2.980700	3.815500	-11.371000	22.345333	0.000941	20.709592
197.048195	-2.979200	3.817500	-11.372000	22.343863	0.000942	20.714284
198.050982	-2.988300	3.815300	-11.401000	22.363554	0.000941	20.725467
199.047927	-2.960000	3.817500	-11.299000	22.380156	0.000943	20.707953
200.048267	-2.993000	3.815800	-11.420000	22.366592	0.000942	20.729458
201.048690	-2.996100	3.814900	-11.429000	22.382518	0.000945	20.728811
202.052903	-2.983100	3.815400	-11.381000	22.363929	0.000944	20.733904
203.049819	-2.994800	3.814200	-11.422000	22.379535	0.000944	20.722979
204.049566	-3.021400	3.814000	-11.522000	22.403831	0.000944	20.697995
205.051352	-2.987900	3.813800	-11.394000	22.409291	0.000947	20.712473
206.052986	-2.990100	3.813100	-11.401000	22.386564	0.000947	20.731914
207.055821	-2.990500	3.815200	-11.408000	22.424566	0.000947	20.735831
208.052771	-2.984700	3.814000	-11.382000	22.435339	0.000948	20.724807
209.058310	-2.987300	3.812100	-11.386000	22.430929	0.000947	20.728453
210.051239	-2.982900	3.812900	-11.372000	22.443965	0.000949	20.730127
211.052348	-2.988700	3.812800	-11.394000	22.464442	0.000948	20.713649
212.054301	-2.975000	3.814100	-11.346000	22.467387	0.000948	20.720392
213.052418	-2.979100	3.812800	-11.358000	22.462499	0.000950	20.722609
214.052433	-2.986500	3.813400	-11.388000	22.474839	0.000950	20.716001
215.050842	-2.990700	3.811300	-11.395000	22.468284	0.000950	20.736464
216.052683	-3.011900	3.811100	-11.477000	22.449395	0.000949	20.713279
217.053350	-2.992700	3.810600	-11.403000	22.449050	0.000950	20.726211
218.055313	-3.010500	3.810200	-11.470000	22.428666	0.000951	20.736144
219.052860	-3.002300	3.811900	-11.442000	22.466839	0.000951	20.718421
220.054321	-3.038100	3.809100	-11.571000	22.466046	0.000952	20.719523
221.055078	-2.992600	3.811600	-11.406000	22.471801	0.000952	20.705371
222.055137	-3.012800	3.809600	-11.476000	22.499544	0.000954	20.727466
223.063334	-3.016700	3.809500	-11.491000	22.488482	0.000955	20.730613
224.054397	-2.985700	3.811400	-11.379000	22.505324	0.000954	20.726617
225.056221	-2.993600	3.809500	-11.403000	22.495983	0.000955	20.736703
226.056008	-2.989500	3.810300	-11.390000	22.491667	0.000956	20.728587
227.059243	-2.990200	3.810300	-11.393000	22.503786	0.000957	20.739302
228.056723	-2.992400	3.809000	-11.397000	22.499298	0.000957	20.744290
229.059215	-3.001200	3.809000	-11.431000	22.498104	0.000958	20.739302
230.056499	-3.023500	3.807700	-11.512000	22.513063	0.000957	20.732472
231.056278	-3.001000	3.807900	-11.427000	22.503220	0.000957	20.752960
232.055411	-2.988000	3.807500	-11.376000	22.519538	0.000958	20.724257
233.057158	-2.997000	3.807600	-11.410000	22.530353	0.000961	20.727028
234.060210	-3.013100	3.806700	-11.469000	22.566266	0.000960	20.723166
235.056953	-3.012400	3.806400	-11.465000	22.570896	0.000958	20.723062
236.060115	-2.993000	3.807300	-11.395000	22.568184	0.000960	20.753538
237.057309	-3.007300	3.806600	-11.447000	22.584434	0.000959	20.713861
238.057948	-2.990200	3.805800	-11.379000	22.589567	0.000961	20.732754
239.057480	-2.997800	3.805300	-11.406000	22.609500	0.000964	20.735649
240.057478	-2.990600	3.805000	-11.378000	22.601581	0.000963	20.731036
241.058352	-2.999900	3.805700	-11.414000	22.619318	0.000962	20.732206
242.057691	-3.000600	3.805000	-11.417000	22.639452	0.000964	20.720130
243.057838	-3.000700	3.804600	-11.415000	22.632425	0.000963	20.727316
244.058133	-2.987600	3.805700	-11.369000	22.631227	0.000964	20.724693
245.059446	-3.005300	3.805000	-11.434000	22.615709	0.000962	20.732384
246.058383	-3.011100	3.803200	-11.451000	22.629240	0.000965	20.735032
247.059223	-3.007600	3.803800	-11.439000	22.647653	0.000966	20.723128
248.059913	-2.995300	3.803400	-11.392000	22.673063	0.000966	20.754270
249.058540	-2.981100	3.802900	-11.335000	22.680938	0.000966	20.724225
250.063289	-2.978900	3.803300	-11.328000	22.693221	0.000967	20.728942
251.060899	-3.007800	3.802900	-11.437000	22.701643	0.000967	20.738801
252.063157	-3.017800	3.802900	-11.475000	22.713600	0.000968	20.733708
253.060866	-3.007500	3.802000	-11.434000	22.734373	0.000967	20.739343
254.060994	-3.014300	3.803100	-11.462000	22.742702	0.000969	20.729668
255.063437	-2.986000	3.802400	-11.353000	22.729319	0.000968	20.719581
256.064151	-3.010600	3.801800	-11.445000	22.729024	0.000970	20.751056
257.060532	-3.006300	3.803300	-11.432000	22.761014	0.000969	20.736159
258.061113	-3.017100	3.800600	-11.465000	22.763578	0.000972	20.746788
259.061278	-2.996100	3.800900	-11.387000	22.774194	0.000971	20.713798
260.061213	-2.991000	3.801000	-11.367000	22.796865	0.000971	20.751209
261.064040	-2.983600	3.801300	-11.341000	22.810419	0.000972	20.735863
262.061104	-3.022000	3.799500	-11.480000	22.812263	0.000971	20.729175
263.065066	-2.991000	3.800300	-11.365000	22.828853	0.000973	20.742477
264.062069	-3.002000	3.799100	-11.403000	22.828583	0.000973	20.743628
265.059366	-2.986000	3.799600	-11.345000	22.840065	0.000974	20.748967
266.063377	-3.008700	3.799700	-11.430000	22.819644	0.000974	20.737993
267.061874	-3.021200	3.798800	-11.476000	22.806263	0.000978	20.741657
268.064950	-3.007700	3.798700	-11.424000	22.807418	0.000976	20.738073
269.063383	-3.001600	3.797900	-11.399000	22.800564	0.000976	20.749225
270.062920	-3.003800	3.798400	-11.408000	22.832608	0.000977	20.737229
271.063342	-2.988700	3.798400	-11.350000	22.831532	0.000978	20.754644
272.064101	-2.999100	3.799400	-11.394000	22.803139	0.000977	20.753701
273.064122	-2.987100	3.797500	-11.343000	22.795941	0.000979	20.766880
274.066891	-2.999400	3.797000	-11.387000	22.845644	0.000977	20.746496
275.064054	-3.023800	3.795100	-11.474000	22.810761	0.000980	20.736206
276.067833	-2.995500	3.796000	-11.369000	22.835226	0.000979	20.748861
277.064495	-3.005400	3.796600	-11.408000	22.875191	0.000980	20.761872
278.066832	-2.980900	3.797100	-11.316000	22.873870	0.000982	20.749643
279.064760	-2.981700	3.795600	-11.316000	22.858380	0.000981	20.757832
280.065450	-3.009400	3.795300	-11.420000	22.869241	0.000982	20.741686
281.067294	-2.993000	3.796300	-11.360000	22.867994	0.000984	20.751342
282.069809	-3.016800	3.795200	-11.448000	22.873003	0.000983	20.745455
283.078974	-3.003100	3.795100	-11.396000	22.873968	0.000982	20.761121
284.066487	-3.008200	3.794000	-11.411000	22.864730	0.000984	20.749495
285.068352	-2.993900	3.795400	-11.361000	22.904781	0.000985	20.749791
286.072559	-3.008200	3.794900	-11.415000	22.884805	0.000987	20.759175
287.072650	-3.007300	3.794300	-11.408000	22.889360	0.000986	20.731021
288.068722	-2.997600	3.793500	-11.371000	22.908666	0.000985	20.756528
289.075494	-2.990400	3.793200	-11.342000	22.919619	0.000985	20.752802
290.070122	-3.022500	3.792200	-11.460000	22.889354	0.000987	20.737179
291.069795	-3.002800	3.791500	-11.384000	22.903829	0.000989	20.740301
292.070538	-2.993700	3.792700	-11.353000	22.912490	0.000988	20.744711
293.070167	-3.019700	3.791300	-11.448000	22.929601	0.000987	20.774658
294.070694	-2.990600	3.792100	-11.340000	22.920462	0.000988	20.751750
295.071765	-3.028100	3.791400	-11.479000	22.944015	0.000989	20.766813
296.072523	-3.005900	3.791800	-11.396000	22.954328	0.000990	20.768137
297.071473	-2.990100	3.791400	-11.335000	22.982152	0.000991	20.768513
298.075591	-3.003000	3.791400	-11.385000	22.988022	0.000989	20.784351
299.072230	-2.997700	3.789500	-11.359000	23.002121	0.000991	20.752958
300.071632	-3.000400	3.790300	-11.372000	22.999705	0.000990	20.768082
301.071220	-2.991200	3.790600	-11.338000	22.993351	0.000991	20.758396
302.072829	-2.985200	3.791200	-11.317000	22.997407	0.000993	20.757244
303.074911	-3.001200	3.789400	-11.371000	23.012348	0.000992	20.777431
304.072128	-2.968600	3.790500	-11.251000	23.029759	0.000993	20.771168
305.073926	-2.996600	3.790200	-11.357000	23.039396	0.000992	20.772763
306.074284	-2.996300	3.790100	-11.356000	23.063150	0.000994	20.763373
307.074427	-3.008600	3.789300	-11.400000	23.052739	0.000995	20.753889
308.075316	-3.022100	3.787300	-11.444000	23.067679	0.000994	20.775024
309.074818	-3.010200	3.788000	-11.401000	23.108768	0.000995	20.764038
310.074263	-3.009100	3.788900	-11.400000	23.105155	0.000996	20.765633
311.074053	-3.001200	3.788200	-11.368000	23.086350	0.000996	20.760067
312.074046	-3.005900	3.788400	-11.385000	23.128464	0.000995	20.773343
313.074120	-3.020500	3.784800	-11.431000	23.122313	0.000996	20.781878
314.076911	-2.994800	3.786800	-11.339000	23.137405	0.000994	20.786571
315.075600	-3.000400	3.786100	-11.359000	23.146967	0.000996	20.784298
316.077490	-3.003100	3.786700	-11.371000	23.142285	0.000997	20.770597
317.075710	-3.016600	3.785900	-11.420000	23.135734	0.000998	20.773990
318.077367	-2.979400	3.786800	-11.281000	23.154631	0.000998	20.783917
319.079004	-2.983800	3.786300	-11.297000	23.144995	0.001000	20.799866
320.077174	-3.013000	3.785700	-11.404000	23.155872	0.001000	20.786584
321.079347	-3.016300	3.785000	-11.414000	23.144940	0.001000	20.771361
322.077696	-2.996300	3.785000	-11.340000	23.156874	0.001000	20.790432
323.077829	-3.010200	3.783700	-11.389000	23.148928	0.001000	20.786263
324.079601	-2.967600	3.785300	-11.232000	23.163665	0.001003	20.773529
325.081428	-2.969000	3.784500	-11.234000	23.163197	0.001001	20.771164
326.078364	-2.986300	3.783200	-11.296000	23.177381	0.001001	20.773050
327.079289	-3.012500	3.782500	-11.393000	23.197535	0.001000	20.785186
328.080373	-3.007000	3.781900	-11.371000	23.188841	0.001002	20.779792
329.080367	-3.002000	3.783300	-11.356000	23.181344	0.001001	20.791246
330.082409	-3.003900	3.783000	-11.361000	23.206249	0.001003	20.786332
331.079934	-3.005000	3.782200	-11.364000	23.209230	0.001001	20.778413
332.083572	-2.998300	3.782100	-11.338000	23.221685	0.001003	20.781886
333.081363	-3.046900	3.780200	-11.515000	23.239738	0.001004	20.796659
334.081440	-3.006600	3.781200	-11.367000	23.219669	0.001006	20.806893
335.087074	-3.027900	3.779900	-11.445000	23.233139	0.001005	20.777717
336.082986	-3.029700	3.781100	-11.453000	23.229974	0.001006	20.793038
337.086996	-2.985100	3.780300	-11.282000	23.246160	0.001004	20.784128
338.082238	-2.993900	3.781500	-11.320000	23.238693	0.001005	20.794664
339.083971	-3.000100	3.780400	-11.340000	23.238718	0.001005	20.805594
340.084208	-2.999900	3.779500	-11.337000	23.255149	0.001009	20.803568
341.082025	-2.970000	3.779100	-11.223000	23.256372	0.001006	20.808112
342.083701	-3.004800	3.780600	-11.358000	23.253232	0.001008	20.803543
343.083144	-2.999400	3.779600	-11.335000	23.279382	0.001007	20.804147
344.083447	-3.024000	3.778400	-11.425000	23.266258	0.001009	20.820391
345.082310	-3.022700	3.778100	-11.418000	23.308439	0.001008	20.822361
346.084008	-2.976700	3.778500	-11.247000	23.278012	0.001007	20.822213
347.083701	-2.994200	3.777700	-11.311000	23.309987	0.001009	20.796412
348.083154	-3.001100	3.776800	-11.334000	23.337225	0.001009	20.806641
349.092049	-3.005300	3.776100	-11.346000	23.333962	0.001010	20.808112
350.083086	-2.983500	3.777700	-11.270000	23.343695	0.001011	20.797952
351.085249	-3.006200	3.777400	-11.354000	23.335387	0.001010	20.781091
352.085701	-2.993800	3.778400	-11.309000	23.343049	0.001013	20.804418
353.086065	-3.000100	3.777500	-11.332000	23.342527	0.001011	20.824757
354.083235	-2.991000	3.775400	-11.291000	23.346213	0.001013	20.797632
355.085393	-2.997700	3.775800	-11.318000	23.365112	0.001011	20.808513
356.086870	-2.986800	3.775400	-11.275000	23.370740	0.001013	20.807041
357.087135	-3.007700	3.774700	-11.352000	23.377535	0.001014	20.824283
358.087067	-2.980100	3.776000	-11.251000	23.391230	0.001016	20.829474
359.086404	-2.992300	3.774800	-11.294000	23.425315	0.001013	20.817170
360.084817	-3.002000	3.775100	-11.332000	23.419608	0.001015	20.811450
361.087887	-3.010800	3.773500	-11.360000	23.397700	0.001017	20.816044
362.089069	-3.002000	3.774400	-11.330000	23.367177	0.001015	20.819591
363.086869	-3.004700	3.772900	-11.334000	23.362139	0.001012	20.812171
364.091795	-2.994800	3.774000	-11.301000	23.373346	0.001014	20.831463
365.087745	-2.994900	3.773900	-11.301000	23.396630	0.001014	20.834886
366.086835	-2.997600	3.772400	-11.306000	23.381615	0.001017	20.818889
367.088873	-3.001900	3.772200	-11.323000	23.415824	0.001016	20.830890
368.085472	-2.996700	3.771000	-11.300000	23.390229	0.001014	20.847910
369.088224	-3.010000	3.770800	-11.349000	23.402977	0.001016	20.815644
370.089541	-3.003600	3.771800	-11.327000	23.402228	0.001017	20.826272
371.088683	-3.001000	3.771000	-11.316000	23.423945	0.001018	20.821487
372.088618	-3.000600	3.770400	-11.311000	23.434617	0.001018	20.814641
373.091097	-2.995200	3.770800	-11.294000	23.433726	0.001018	20.830816
374.088353	-2.998400	3.770300	-11.302000	23.442886	0.001019	20.840946
375.088571	-3.010800	3.769200	-11.347000	23.465942	0.001020	20.814271
376.090518	-2.992000	3.769600	-11.278000	23.494920	0.001019	20.849006
377.091388	-2.995400	3.769300	-11.289000	23.514191	0.001017	20.834185
378.093234	-2.993500	3.768800	-11.281000	23.510825	0.001020	20.825595
379.090657	-3.004300	3.769800	-11.324000	23.521489	0.001021	20.839603
380.090341	-2.959800	3.769300	-11.156000	23.488046	0.001017	20.834056
381.089804	-2.981600	3.767800	-11.232000	23.496217	0.001022	20.830392
382.090561	-2.995200	3.767500	-11.284000	23.489097	0.001022	20.836057
383.092031	-3.003900	3.766800	-11.314000	23.491456	0.001022	20.826094
384.092989	-2.999500	3.766400	-11.296000	23.520089	0.001023	20.817337
385.091796	-3.003600	3.767600	-11.315000	23.527977	0.001022	20.844684
386.096216	-3.005800	3.766400	-11.318000	23.549944	0.001022	20.847737
387.100414	-3.019000	3.766100	-11.368000	23.537462	0.001022	20.843286
388.092503	-2.990800	3.767800	-11.266000	23.559600	0.001022	20.836555
389.093694	-2.995100	3.766300	-11.280000	23.562408	0.001024	20.837947
390.092443	-2.999200	3.766700	-11.296000	23.565995	0.001025	20.840121
391.094562	-3.011300	3.765000	-11.335000	23.573735	0.001024	20.828914
392.092207	-3.014400	3.764000	-11.345000	23.581456	0.001023	20.845188
393.093358	-3.001400	3.764400	-11.297000	23.574485	0.001025	20.844838
394.097730	-2.985400	3.764600	-11.238000	23.594602	0.001027	20.858365
395.092110	-2.987000	3.764300	-11.242000	23.599080	0.001025	20.855268
396.093915	-2.981100	3.765000	-11.222000	23.620763	0.001026	20.826272
397.093757	-2.983900	3.763700	-11.230000	23.622281	0.001027	20.861931
398.095005	-3.005400	3.762800	-11.307000	23.640653	0.001026	20.849055
399.097101	-2.982200	3.764100	-11.224000	23.579663	0.001024	20.835804
400.098435	-3.023900	3.762000	-11.375000	23.610210	0.001027	20.849831
401.096046	-3.000100	3.761300	-11.282000	23.600179	0.001028	20.853051
402.095922	-3.006500	3.761800	-11.309000	23.604313	0.001027	20.844394
403.095703	-2.991300	3.762800	-11.254000	23.596991	0.001028	20.853649
404.097157	-3.018100	3.760600	-11.349000	23.613496	0.001028	20.870194
405.101016	-3.013200	3.759600	-11.327000	23.622852	0.001026	20.849228
406.097855	-3.005200	3.759400	-11.297000	23.649811	0.001028	20.855392
407.099017	-3.005500	3.761700	-11.304000	23.677015	0.001029	20.851845
408.098993	-3.004900	3.759800	-11.297000	23.683188	0.001028	20.858982
409.098231	-3.024800	3.758500	-11.366000	23.688421	0.001028	20.858538
410.100770	-2.979000	3.761000	-11.203000	23.705417	0.001029	20.859456
411.099334	-3.015500	3.758200	-11.332000	23.710870	0.001030	20.873932
412.099371	-2.999500	3.758800	-11.275000	23.738221	0.001030	20.851568
413.098182	-3.000900	3.759200	-11.280000	23.735906	0.001030	20.859204
414.099963	-3.008300	3.757600	-11.302000	23.752365	0.001030	20.880446
415.100255	-2.983700	3.758600	-11.214000	23.759650	0.001029	20.863095
416.102098	-3.008100	3.758500	-11.305000	23.738626	0.001028	20.868095
417.099041	-3.005200	3.756700	-11.288000	23.760030	0.001030	20.881493
418.101239	-3.016500	3.756200	-11.330000	23.750971	0.001031	20.847282
419.100839	-3.008800	3.756900	-11.302000	23.770355	0.001031	20.870983
420.104916	-2.989700	3.757400	-11.232000	23.776177	0.001030	20.868286
421.104312	-2.995800	3.755600	-11.250000	23.776803	0.001031	20.840940
422.102820	-3.011700	3.754400	-11.305000	23.801216	0.001031	20.865417
423.105700	-3.006100	3.754900	-11.287000	23.792163	0.001030	20.859659
424.104068	-3.007000	3.754400	-11.288000	23.800970	0.001032	20.880816
425.103159	-2.989700	3.754700	-11.225000	23.802985	0.001032	20.855811
426.106653	-2.995200	3.754400	-11.244000	23.794547	0.001030	20.872953
427.105530	-3.014600	3.753800	-11.314000	23.782172	0.001031	20.868133
428.106086	-2.996700	3.754800	-11.251000	23.791378	0.001033	20.887793
429.105654	-3.004300	3.753100	-11.274000	23.776319	0.001032	20.861317
430.105638	-2.975200	3.753400	-11.165000	23.770319	0.001032	20.873792
431.106127	-3.007300	3.751300	-11.280000	23.771259	0.001034	20.859088
432.110562	-3.003300	3.752500	-11.269000	23.782234	0.001034	20.853971
433.107648	-3.000400	3.752300	-11.257000	23.775466	0.001032	20.859987
434.112258	-3.015300	3.752400	-11.314000	23.774337	0.001036	20.858855
435.108233	-3.018500	3.752200	-11.325000	23.770480	0.001035	20.858781
436.109539	-2.997000	3.751300	-11.242000	23.761095	0.001033	20.863596
437.109540	-2.997100	3.751600	-11.243000	23.761292	0.001035	20.856682
438.109094	-2.996300	3.752500	-11.241000	23.780252	0.001033	20.863837
439.110355	-2.996400	3.749800	-11.235000	23.773202	0.001035	20.856769
440.109965	-2.980200	3.750900	-11.177000	23.791645	0.001034	20.861036
441.110184	-3.015600	3.750000	-11.307000	23.822211	0.001034	20.856597
442.110237	-3.011900	3.749200	-11.290000	23.817471	0.001035	20.852318
443.113409	-2.994700	3.750000	-11.230000	23.836810	0.001034	20.849424
444.111577	-3.023400	3.747300	-11.329000	23.831940	0.001035	20.858290
445.112357	-2.982900	3.749200	-11.182000	23.839943	0.001034	20.869159
446.111489	-2.998000	3.749500	-11.241000	23.807737	0.001034	20.843507
447.110914	-2.975000	3.749400	-11.154000	23.823761	0.001035	20.823064
448.113189	-3.012200	3.747100	-11.286000	23.782318	0.001036	20.836513
449.111265	-3.005300	3.747100	-11.260000	23.797869	0.001037	20.861587
450.113816	-2.997400	3.747500	-11.231000	23.812657	0.001038	20.855552
451.110608	-3.001200	3.747200	-11.245000	23.825652	0.001035	20.849616
452.111644	-3.003900	3.746600	-11.254000	23.840607	0.001037	20.846593
453.112312	-2.995300	3.747000	-11.222000	23.852871	0.001036	20.870269
454.113672	-2.992300	3.746000	-11.208000	23.872787	0.001037	20.858945
455.110507	-2.992400	3.746100	-11.208000	23.874432	0.001034	20.848267
456.110657	-3.011000	3.745200	-11.275000	23.872989	0.001035	20.848243
457.110790	-2.998000	3.746200	-11.230000	23.872516	0.001037	20.837812
458.111538	-3.006100	3.746100	-11.260000	23.868211	0.001037	20.837288
459.113463	-3.004900	3.745400	-11.253000	23.874383	0.001038	20.848218
460.112541	-3.013600	3.744100	-11.281000	23.871294	0.001037	20.841328
461.115630	-2.993500	3.743300	-11.204000	23.861572	0.001036	20.818304
462.110800	-3.012200	3.744000	-11.277000	23.854976	0.001039	20.836346
463.111425	-2.994100	3.743500	-11.207000	23.861124	0.001037	20.829708
464.112729	-3.029300	3.743600	-11.339000	23.857838	0.001037	20.861973
465.111215	-2.998900	3.743500	-11.225000	23.876034	0.001037	20.819529
466.110216	-3.014000	3.741900	-11.277000	23.886448	0.001040	20.829023
467.110607	-2.996500	3.742200	-11.213000	23.901249	0.001039	20.826794
468.112825	-2.993000	3.741900	-11.198000	23.882690	0.001039	20.828099
469.110988	-3.000000	3.741100	-11.223000	23.928177	0.001037	20.801640
470.113744	-2.982200	3.740600	-11.154000	23.933083	0.001039	20.843069
471.112058	-3.008000	3.741000	-11.252000	23.933856	0.001039	20.799275
472.111933	-2.989900	3.741400	-11.185000	23.939580	0.001039	20.823506
473.113414	-3.007100	3.739300	-11.243000	23.943860	0.001040	20.846289
474.115394	-3.007600	3.739200	-11.245000	23.950302	0.001039	20.816714
475.116119	-3.007800	3.738400	-11.243000	23.965757	0.001039	20.826049
476.115098	-2.976200	3.739700	-11.129000	23.983872	0.001038	20.845162
477.116941	-2.954500	3.739700	-11.047000	23.978923	0.001037	20.841147
478.115126	-2.977100	3.738300	-11.128000	23.990910	0.001040	20.808125
479.114418	-2.997200	3.739700	-11.208000	23.997835	0.001039	20.835932
480.118149	-3.008000	3.737400	-11.241000	23.976307	0.001040	20.821456
481.116920	-3.035000	3.736000	-11.337000	23.979199	0.001038	20.832416
482.115625	-2.997400	3.737300	-11.201000	23.967826	0.001041	20.806787
483.116390	-3.011500	3.736600	-11.251000	23.953986	0.001041	20.813771
484.115571	-3.000600	3.736700	-11.212000	23.925419	0.001040	20.802194
485.116770	-2.986400	3.736900	-11.158000	23.922877	0.001038	20.810076
486.119663	-3.010300	3.734900	-11.243000	23.926764	0.001039	20.828198
487.115954	-2.995200	3.736700	-11.191000	23.887063	0.001039	20.803561
488.118120	-3.008700	3.736100	-11.240000	23.896422	0.001039	20.810101
489.116228	-3.003300	3.734200	-11.214000	23.922932	0.001039	20.801122
490.116744	-2.996300	3.735000	-11.190000	23.924498	0.001040	20.822607
491.120723	-3.013900	3.733700	-11.252000	23.982060	0.001038	20.804466
492.115760	-3.005900	3.734400	-11.224000	23.987458	0.001039	20.819836
493.116020	-3.007900	3.733800	-11.229000	23.994034	0.001040	20.811732
494.115590	-2.997000	3.733900	-11.190000	24.015857	0.001039	20.815599
495.115791	-2.998700	3.732400	-11.191000	24.019762	0.001038	20.823783
496.115902	-3.025300	3.733200	-11.293000	24.018073	0.001040	20.808339
497.119446	-3.020200	3.731500	-11.269000	24.032386	0.001039	20.807519
498.115534	-3.002100	3.732800	-11.204000	24.030445	0.001038	20.799883
499.116601	-3.017400	3.731900	-11.260000	24.043733	0.001039	20.819373
500.117374	-2.989200	3.732400	-11.156000	24.038808	0.001040	20.802106
501.117631	-2.996900	3.731900	-11.183000	24.057222	0.001040	20.796866
502.120025	-2.988300	3.731500	-11.149000	24.080045	0.001040	20.799366
503.117673	-3.002600	3.729800	-11.197000	24.080597	0.001040	20.807980
504.117886	-2.985000	3.730900	-11.135000	24.104008	0.001041	20.805856
505.117123	-2.984100	3.730100	-11.130000	24.080971	0.001041	20.796028
506.119486	-2.996700	3.730000	-11.176000	24.042154	0.001039	20.792185
507.119645	-2.990800	3.730000	-11.155000	24.021577	0.001040	20.811379
508.119393	-2.992100	3.729100	-11.156000	24.015087	0.001039	20.778317
509.120463	-3.011500	3.728300	-11.227000	23.979877	0.001039	20.793268
510.119483	-3.017200	3.729100	-11.250000	23.954400	0.001039	20.794745
511.119889	-2.998900	3.727400	-11.177000	23.978716	0.001040	20.808699
512.121451	-3.017300	3.729000	-11.250000	23.956715	0.001040	20.808920
513.121118	-3.001400	3.728000	-11.188000	23.988148	0.001039	20.787337
514.120373	-2.976500	3.729300	-11.098000	23.987828	0.001039	20.790336
515.121313	-3.009500	3.726400	-11.213000	24.017167	0.001041	20.808378
516.122744	-3.010500	3.724600	-11.211000	24.017222	0.001041	20.793260
517.122959	-2.979500	3.727200	-11.103000	24.041211	0.001040	20.784602
518.124475	-3.004500	3.724900	-11.190000	24.038448	0.001039	20.801746
519.122512	-3.008200	3.725600	-11.205000	24.033628	0.001040	20.787902
520.123887	-3.020000	3.724100	-11.246000	24.046374	0.001039	20.810168
521.123728	-2.984300	3.724300	-11.114000	24.028157	0.001040	20.777199
522.123351	-3.012400	3.724900	-11.220000	24.043292	0.001039	20.785740
523.125570	-2.989700	3.724100	-11.131000	24.067428	0.001040	20.791929
524.123051	-3.011900	3.724200	-11.214000	24.065316	0.001041	20.773689
525.126740	-2.987300	3.724100	-11.124000	24.120280	0.001040	20.794201
526.122978	-3.010700	3.723000	-11.208000	24.136157	0.001039	20.779779
527.123312	-2.981900	3.723600	-11.102000	24.147036	0.001040	20.789742
528.126360	-3.016100	3.722200	-11.225000	24.146244	0.001040	20.774722
529.125131	-3.005600	3.723800	-11.191000	24.125191	0.001041	20.773996
530.125217	-3.003000	3.722500	-11.176000	24.130993	0.001038	20.779341
531.125151	-2.993100	3.722200	-11.140000	24.137838	0.001040	20.787629
532.124662	-3.010400	3.722100	-11.202000	24.158295	0.001039	20.795344
533.125493	-2.984300	3.722400	-11.108000	24.148589	0.001038	20.781816
534.126384	-2.992300	3.722000	-11.136000	24.173349	0.001041	20.769192
535.125945	-3.005600	3.719600	-11.179000	24.167302	0.001041	20.782567
536.129050	-3.008600	3.718700	-11.187000	24.179568	0.001041	20.783016
537.125217	-3.004400	3.719800	-11.175000	24.190220	0.001040	20.766199
538.126555	-3.007500	3.719700	-11.185000	24.209399	0.001040	20.789230
539.130192	-2.989200	3.718700	-11.115000	24.195046	0.001041	20.763452
540.126851	-2.998100	3.719300	-11.150000	24.188359	0.001040	20.781402
541.127221	-3.004000	3.718100	-11.169000	24.208711	0.001040	20.769099
542.127335	-2.977100	3.719700	-11.073000	24.183878	0.001041	20.758415
543.128097	-3.002500	3.718500	-11.163000	24.197789	0.001039	20.758143
544.128792	-3.011800	3.718100	-11.197000	24.216348	0.001038	20.764905
545.132169	-2.996100	3.717100	-11.136000	24.207028	0.001039	20.774997
546.130804	-2.995400	3.717700	-11.135000	24.229719	0.001038	20.779739
547.130016	-3.008500	3.716700	-11.181000	24.225243	0.001037	20.784258
548.130531	-2.996400	3.716100	-11.133000	24.197948	0.001040	20.768260
549.130878	-3.015200	3.715600	-11.202000	24.204400	0.001040	20.770464
550.133617	-2.995600	3.715700	-11.130000	24.181856	0.001040	20.762077
551.130528	-2.985200	3.716300	-11.092000	24.180561	0.001038	20.768839
552.133117	-3.004000	3.716200	-11.163000	24.198402	0.001038	20.763974
553.130819	-2.986900	3.715200	-11.096000	24.248718	0.001038	20.778407
554.131586	-2.980600	3.715700	-11.074000	24.252297	0.001038	20.779627
555.134781	-2.990300	3.715400	-11.109000	24.245188	0.001037	20.746890
556.133788	-3.005600	3.712700	-11.158000	24.238171	0.001040	20.769725
557.133786	-3.009900	3.712300	-11.171000	24.255268	0.001039	20.751786
558.134089	-2.999800	3.712700	-11.136000	24.273427	0.001038	20.756725
559.132903	-3.003600	3.712500	-11.150000	24.258281	0.001038	20.765241
560.137862	-2.993400	3.714200	-11.117000	24.254893	0.001038	20.764213
561.136310	-2.997400	3.711800	-11.125000	24.259049	0.001039	20.747992
562.137473	-3.018900	3.710900	-11.201000	24.265752	0.001039	20.771786
563.136972	-2.996800	3.711000	-11.119000	24.264358	0.001039	20.753793
564.136940	-3.007400	3.711400	-11.160000	24.230097	0.001036	20.770635
565.140114	-3.010800	3.710100	-11.170000	24.221637	0.001038	20.773055
566.136817	-3.014200	3.710900	-11.184000	24.226272	0.001038	20.762056
567.140522	-2.997500	3.709700	-11.118000	24.198498	0.001037	20.734198
568.138606	-2.998400	3.710200	-11.123000	24.176187	0.001037	20.758762
569.139668	-2.991800	3.709700	-11.098000	24.170987	0.001036	20.761133
570.142921	-3.008400	3.708900	-11.157000	24.212391	0.001038	20.759513
571.142375	-2.982800	3.710100	-11.065000	24.231895	0.001036	20.789034
572.139963	-2.973500	3.709600	-11.028000	24.261780	0.001038	20.745515
573.139487	-2.983200	3.709300	-11.065000	24.271534	0.001039	20.761939
574.139224	-2.985300	3.707800	-11.067000	24.281307	0.001037	20.761785
575.140299	-2.984400	3.708500	-11.067000	24.284647	0.001037	20.754703
576.142922	-2.999800	3.707200	-11.120000	24.271958	0.001037	20.740552
577.140034	-2.983700	3.708400	-11.062000	24.263676	0.001037	20.748840
578.143516	-2.977400	3.708400	-11.040000	24.244891	0.001036	20.750386
579.140255	-2.980200	3.706900	-11.046000	24.225037	0.001037	20.764137
580.139827	-2.984900	3.706200	-11.062000	24.216006	0.001037	20.747966
581.142777	-3.015500	3.705500	-11.172000	24.218892	0.001037	20.737583
582.140800	-2.988100	3.706100	-11.072000	24.235166	0.001036	20.766237
583.140691	-2.993000	3.705000	-11.088000	24.242779	0.001036	20.738310
584.141489	-2.994400	3.705800	-11.095000	24.264952	0.001036	20.752017
585.140976	-3.010900	3.704400	-11.153000	24.309133	0.001035	20.750343
586.141305	-2.990600	3.704400	-11.077000	24.304161	0.001036	20.754364
587.144316	-2.987300	3.703500	-11.062000	24.276677	0.001037	20.749079
588.141867	-2.986600	3.705900	-11.067000	24.291699	0.001035	20.748501
589.141765	-2.994500	3.704300	-11.092000	24.309446	0.001036	20.747811
590.140650	-2.995400	3.704200	-11.094000	24.320888	0.001036	20.755970
591.143501	-2.996300	3.702900	-11.094000	24.325044	0.001035	20.746388
592.144642	-3.007000	3.701700	-11.131000	24.353502	0.001036	20.735107
593.143428	-3.015900	3.700700	-11.160000	24.385918	0.001037	20.719735
594.144005	-3.020800	3.703400	-11.185000	24.380228	0.001036	20.733468
595.143177	-3.001300	3.702900	-11.113000	24.384678	0.001036	20.769702
596.143553	-3.004000	3.702500	-11.121000	24.403141	0.001035	20.728005
597.147211	-2.993500	3.703100	-11.085000	24.415061	0.001034	20.735222
598.144721	-3.031100	3.700200	-11.214000	24.442725	0.001034	20.753967
599.144598	-3.004500	3.700400	-11.116000	24.458794	0.001034	20.734052
600.145128	-3.005300	3.700500	-11.121000	24.439294	0.001036	20.735826
601.144855	-2.981800	3.699900	-11.031000	24.453595	0.001034	20.738794
602.145351	-3.004100	3.699500	-11.113000	24.442651	0.001034	20.736823
603.145885	-2.974000	3.701500	-11.008000	24.426503	0.001035	20.740537
604.149107	-3.013800	3.699700	-11.148000	24.410464	0.001034	20.731084
605.150713	-2.999600	3.699200	-11.095000	24.361382	0.001034	20.743961
606.145878	-3.021700	3.697000	-11.170000	24.346233	0.001034	20.725443
607.147203	-2.982200	3.699100	-11.031000	24.341205	0.001033	20.730831
608.150716	-3.004400	3.697700	-11.108000	24.331703	0.001035	20.733153
609.151214	-2.997200	3.698700	-11.084000	24.318173	0.001034	20.735228
610.149493	-3.001900	3.697700	-11.099000	24.313348	0.001033	20.725646
611.153049	-2.991600	3.696200	-11.057000	24.325116	0.001035	20.734606
612.153547	-2.992100	3.697700	-11.061000	24.356828	0.001034	20.737495
613.151493	-3.002500	3.696200	-11.096000	24.345656	0.001034	20.733400
614.156453	-3.003400	3.695500	-11.098000	24.370406	0.001032	20.751117
615.153242	-2.993400	3.695500	-11.061000	24.384162	0.001033	20.727457
616.153098	-3.005700	3.694900	-11.105000	24.400975	0.001033	20.741480
617.153145	-2.977900	3.696200	-11.006000	24.411993	0.001033	20.733566
618.155209	-2.970700	3.695600	-10.977000	24.447379	0.001031	20.713116
619.158588	-3.024700	3.692900	-11.168000	24.441118	0.001032	20.720585
620.155625	-2.998700	3.693800	-11.075000	24.417536	0.001034	20.727273
621.156415	-2.997700	3.693300	-11.071000	24.398158	0.001032	20.689812
622.156250	-2.996500	3.693700	-11.067000	24.365632	0.001033	20.719299
623.155475	-3.010500	3.692600	-11.116000	24.359941	0.001031	20.707425
624.156981	-2.992000	3.692500	-11.047000	24.369782	0.001032	20.731523
625.157147	-3.006700	3.692100	-11.098000	24.389559	0.001032	20.736665
626.157117	-2.999600	3.691000	-11.070000	24.410380	0.001032	20.737164
627.158905	-3.008000	3.691100	-11.102000	24.399700	0.001030	20.718863
628.158436	-2.998600	3.692700	-11.072000	24.445644	0.001032	20.716116
629.158161	-3.000100	3.690200	-11.069000	24.458227	0.001031	20.727318
630.160436	-2.992700	3.691400	-11.046000	24.492770	0.001031	20.727836
631.160498	-2.987300	3.691900	-11.028000	24.490481	0.001033	20.742135
632.160873	-2.991800	3.691100	-11.041000	24.475781	0.001030	20.729283
633.159013	-2.973300	3.690700	-10.971000	24.492838	0.001029	20.705618
634.160090	-2.993100	3.690700	-11.046000	24.515971	0.001029	20.744002
635.161926	-2.984000	3.690200	-11.010000	24.536090	0.001030	20.733367
636.159714	-2.981900	3.690500	-11.004000	24.560265	0.001028	20.732967
637.162816	-2.976500	3.690500	-10.983000	24.529050	0.001032	20.730571
638.161201	-2.995100	3.688200	-11.045000	24.501517	0.001030	20.739931
639.160583	-2.994100	3.688300	-11.042000	24.491144	0.001029	20.725731
640.165116	-3.009000	3.688500	-11.098000	24.486437	0.001028	20.741872
641.165307	-3.005600	3.687400	-11.082000	24.476660	0.001031	20.724475
642.162100	-3.018200	3.686400	-11.126000	24.479447	0.001029	20.724426
643.161036	-3.000400	3.686300	-11.059000	24.494214	0.001028	20.732604
644.161877	-3.014800	3.686800	-11.114000	24.491005	0.001028	20.734600
645.164587	-3.001000	3.685200	-11.059000	24.472401	0.001029	20.707873
646.166172	-2.988300	3.685900	-11.013000	24.434223	0.001028	20.744489
647.164815	-2.977200	3.688200	-10.979000	24.440736	0.001028	20.731108
648.167539	-2.983400	3.685100	-10.993000	24.468320	0.001027	20.731755
649.164427	-3.006200	3.685100	-11.077000	24.454712	0.001028	20.731853
650.164525	-3.015200	3.685400	-11.110000	24.484560	0.001028	20.723866
651.165537	-3.019700	3.683400	-11.122000	24.480227	0.001027	20.726632
652.164840	-3.007000	3.683400	-11.074000	24.520526	0.001026	20.731502
653.165732	-2.985900	3.683900	-10.998000	24.520723	0.001025	20.723164
654.164641	-2.999900	3.683000	-11.047000	24.511222	0.001026	20.725012
655.164401	-2.985900	3.684100	-10.999000	24.522540	0.001025	20.718349
656.165749	-2.989700	3.682600	-11.009000	24.526143	0.001027	20.722912
657.168361	-2.992200	3.682800	-11.018000	24.518925	0.001026	20.726102
658.165397	-3.015700	3.681500	-11.101000	24.518532	0.001026	20.735192
659.165242	-3.000800	3.681900	-11.048000	24.515273	0.001025	20.728128
660.166067	-3.000200	3.681900	-11.045000	24.527487	0.001024	20.729951
661.168881	-3.018300	3.680300	-11.107000	24.530322	0.001025	20.732322
662.167799	-3.013100	3.680300	-11.088000	24.540148	0.001024	20.705669
663.166685	-3.031300	3.678900	-11.151000	24.582778	0.001023	20.741331
664.165674	-3.002300	3.680000	-11.048000	24.590535	0.001024	20.732519
665.166964	-2.999900	3.680300	-11.038000	24.621999	0.001025	20.732796
666.166389	-2.978600	3.681200	-10.964000	24.607902	0.001023	20.732876
667.168966	-2.988100	3.680000	-10.994000	24.626553	0.001023	20.741159
668.168300	-2.980600	3.679000	-10.965000	24.629038	0.001025	20.743179
669.166482	-2.984900	3.679400	-10.980000	24.603079	0.001023	20.730880
670.166490	-3.006100	3.677500	-11.054000	24.627823	0.001020	20.735795
671.169584	-3.004800	3.677400	-11.048000	24.590087	0.001023	20.734440
672.168291	-3.022300	3.678100	-11.115000	24.633813	0.001024	20.725209
673.167937	-3.014400	3.677200	-11.084000	24.653113	0.001022	20.731299
674.167494	-2.974300	3.679500	-10.942000	24.630358	0.001025	20.723164
675.167715	-3.002600	3.678000	-11.043000	24.605687	0.001023	20.723540
676.167063	-2.994000	3.679100	-11.013000	24.602803	0.001024	20.740087
677.171597	-3.005000	3.675400	-11.044000	24.629093	0.001021	20.732802
678.166911	-2.994100	3.676900	-11.008000	24.646399	0.001022	20.728830
679.168640	-3.003300	3.676600	-11.041000	24.655678	0.001023	20.722019
680.169860	-2.992200	3.675100	-10.996000	24.667780	0.001020	20.721835
681.169639	-2.997500	3.674800	-11.014000	24.667160	0.001021	20.736861
682.170432	-2.999100	3.674700	-11.020000	24.655770	0.001021	20.742976
683.169604	-2.996500	3.674600	-11.010000	24.666521	0.001019	20.749022
684.171935	-2.984300	3.675900	-10.969000	24.654249	0.001021	20.741923
685.170480	-2.989700	3.673500	-10.982000	24.642067	0.001019	20.734915
686.171224	-2.988800	3.673700	-10.979000	24.636145	0.001019	20.733714
687.171923	-2.990000	3.673300	-10.982000	24.621270	0.001021	20.749608
688.171018	-3.012800	3.673500	-11.067000	24.631076	0.001021	20.729101
689.180431	-3.024000	3.672000	-11.103000	24.639202	0.001020	20.752903
690.172955	-2.993900	3.672800	-10.995000	24.652009	0.001020	20.743943
691.175194	-3.000300	3.672700	-11.017000	24.661233	0.001019	20.732809
692.178103	-3.014100	3.672400	-11.068000	24.676979	0.001019	20.717315
693.174247	-3.022000	3.671700	-11.095000	24.667971	0.001020	20.742890
694.176459	-3.016900	3.671200	-11.074000	24.702495	0.001019	20.746714
695.174069	-2.994700	3.671300	-10.993000	24.706545	0.001017	20.753624
696.175631	-3.005800	3.670500	-11.031000	24.717738	0.001015	20.744466
697.178929	-2.988200	3.671800	-10.971000	24.732060	0.001018	20.730389
698.178265	-3.025800	3.669200	-11.101000	24.746456	0.001019	20.738198
699.175592	-3.010200	3.669400	-11.045000	24.735018	0.001019	20.744263
700.178607	-3.004400	3.669400	-11.024000	24.724771	0.001016	20.736350
701.177791	-2.986900	3.670000	-10.961000	24.673764	0.001015	20.728314
702.176074	-2.967200	3.671500	-10.893000	24.680079	0.001017	20.737022
703.180271	-2.999700	3.668700	-11.004000	24.691886	0.001017	20.744129
704.176567	-2.989900	3.668500	-10.966000	24.697483	0.001016	20.738839
705.177244	-2.979100	3.669900	-10.931000	24.702325	0.001015	20.748440
706.178491	-2.988500	3.668700	-10.963000	24.750525	0.001016	20.723788
707.178138	-3.011600	3.668200	-11.045000	24.748887	0.001014	20.749172
708.178077	-3.019900	3.666000	-11.069000	24.739155	0.001013	20.759795
709.178074	-3.013500	3.667000	-11.049000	24.711658	0.001016	20.752116
710.178293	-3.001000	3.666600	-11.002000	24.746095	0.001014	20.744000
711.178642	-2.987100	3.666900	-10.953000	24.731270	0.001014	20.758047
712.182639	-3.001700	3.666500	-11.004000	24.735952	0.001014	20.733346
713.192457	-2.991300	3.666100	-10.964000	24.755919	0.001014	20.761446
714.180693	-2.994500	3.665200	-10.973000	24.795662	0.001013	20.763397
715.179146	-3.011600	3.664600	-11.035000	24.774297	0.001012	20.759025
716.180657	-2.992400	3.664700	-10.966000	24.780862	0.001014	20.749967
717.182489	-3.004500	3.664200	-11.007000	24.785213	0.001013	20.754807
718.185172	-3.004500	3.662800	-11.004000	24.770252	0.001012	20.764450
719.182733	-3.010400	3.663000	-11.026000	24.768952	0.001012	20.756032
720.190029	-3.007200	3.663200	-11.015000	24.769842	0.001012	20.744123
721.186140	-3.008100	3.661300	-11.013000	24.753661	0.001012	20.766292
722.185532	-3.014100	3.663600	-11.041000	24.726931	0.001012	20.758908
723.183941	-3.014600	3.662900	-11.041000	24.752992	0.001012	20.749973
724.185025	-2.993100	3.663100	-10.963000	24.744192	0.001012	20.757263
725.184306	-3.018000	3.661400	-11.049000	24.771719	0.001011	20.754067
726.187561	-2.979400	3.662700	-10.912000	24.778241	0.001013	20.752078
727.186422	-3.002200	3.663000	-10.996000	24.802927	0.001011	20.773059
728.186655	-2.999800	3.661200	-10.983000	24.810063	0.001012	20.756038
729.190063	-2.975700	3.663400	-10.900000	24.814640	0.001012	20.752097
730.188418	-3.044000	3.659400	-11.138000	24.814806	0.001010	20.749893
731.186172	-3.008900	3.660200	-11.012000	24.826347	0.001009	20.764321
732.186351	-3.010100	3.660300	-11.017000	24.825930	0.001009	20.765798
733.187081	-3.005500	3.659200	-10.997000	24.853069	0.001009	20.768854
734.191215	-2.993800	3.660800	-10.959000	24.864260	0.001011	20.765861
735.188006	-3.008000	3.659600	-11.007000	24.850983	0.001009	20.776717
736.188552	-2.999600	3.659400	-10.975000	24.865058	0.001010	20.773300
737.189746	-2.982300	3.658500	-10.910000	24.847454	0.001009	20.776021
738.189156	-3.001800	3.658400	-10.981000	24.828379	0.001008	20.774895
739.189429	-2.976500	3.659000	-10.889000	24.845559	0.001008	20.762739
740.190202	-2.995700	3.658600	-10.958000	24.834963	0.001007	20.769649
741.188766	-3.010700	3.657100	-11.008000	24.815923	0.001009	20.786102
742.190170	-2.997900	3.658000	-10.965000	24.785778	0.001007	20.769125
743.190794	-2.984500	3.657200	-10.914000	24.804922	0.001007	20.772691
744.191230	-2.971200	3.657800	-10.868000	24.815617	0.001006	20.769673
745.194978	-2.988300	3.656900	-10.927000	24.856100	0.001007	20.756723
746.191230	-2.998300	3.657000	-10.963000	24.872016	0.001005	20.757997
747.196387	-2.997000	3.654500	-10.952000	24.870464	0.001004	20.764501
748.191694	-2.989700	3.656000	-10.930000	24.861272	0.001005	20.778984
749.193395	-3.014100	3.655300	-11.016000	24.864634	0.001005	20.759598
750.198730	-3.011600	3.654000	-11.004000	24.878875	0.001004	20.783849
751.192802	-3.013600	3.653200	-11.008000	24.890864	0.001005	20.765061
752.196086	-3.011900	3.654100	-11.004000	24.886139	0.001004	20.784501
753.194231	-2.997300	3.655400	-10.956000	24.890165	0.001003	20.776213
754.195621	-3.003200	3.653700	-10.971000	24.876795	0.001002	20.768010
755.196815	-3.018600	3.652700	-11.024000	24.896833	0.001005	20.764414
756.199444	-2.991200	3.653800	-10.928000	24.933687	0.001003	20.785757
757.197766	-2.994900	3.654100	-10.942000	24.938810	0.001002	20.769561
758.199016	-2.999100	3.652400	-10.953000	24.943663	0.001002	20.778699
759.199987	-3.000500	3.651500	-10.956000	24.952037	0.001001	20.778570
760.199111	-3.010800	3.651300	-10.992000	24.964920	0.001001	20.775854
761.203614	-2.987300	3.653500	-10.913000	24.957368	0.001002	20.793404
762.199389	-3.004700	3.651300	-10.970000	25.002269	0.001003	20.774937
763.201072	-3.000900	3.651700	-10.957000	24.995159	0.001001	20.776334
764.201455	-3.000500	3.651300	-10.955000	25.028151	0.001001	20.793330
765.201046	-2.996100	3.651600	-10.939000	25.055524	0.001001	20.780029
766.202155	-3.010400	3.650700	-10.989000	25.037481	0.001001	20.765237
767.200184	-3.006500	3.649800	-10.971000	25.043898	0.001002	20.781635
768.200789	-3.008000	3.648500	-10.973000	25.066694	0.001000	20.796458
769.201579	-3.014200	3.650000	-11.001000	25.034696	0.000998	20.815547
770.202407	-2.991000	3.649400	-10.914000	24.990821	0.000999	20.769135
771.201665	-2.993200	3.648700	-10.920000	25.002409	0.000999	20.785034
772.203569	-2.999500	3.649900	-10.946000	25.032739	0.001000	20.784659
773.205346	-2.983700	3.649800	-10.889000	25.033438	0.000996	20.792947
774.202987	-3.000900	3.647900	-10.945000	25.018071	0.001000	20.775151
775.203991	-3.006100	3.646500	-10.961000	25.033162	0.000997	20.796937
776.203639	-2.997400	3.646900	-10.931000	25.010710	0.000998	20.785780
777.207009	-3.013600	3.646400	-10.988000	25.014568	0.000996	20.790127
778.206107	-3.008200	3.645400	-10.966000	25.049173	0.000998	20.786457
779.203627	-2.998600	3.646000	-10.932000	25.045971	0.000998	20.792251
780.203761	-3.005900	3.646800	-10.961000	25.043388	0.000995	20.777330
781.205318	-2.948100	3.647600	-10.753000	25.036395	0.000999	20.816304
782.206556	-3.004500	3.644800	-10.949000	25.025408	0.000995	20.798637
783.203947	-3.000900	3.646200	-10.941000	25.024193	0.000997	20.775606
784.205471	-3.013700	3.644100	-10.982000	25.062528	0.000994	20.785163
785.205464	-3.000800	3.645500	-10.938000	25.004482	0.000995	20.780477
786.206733	-3.023400	3.644400	-11.017000	25.017285	0.000996	20.804708
787.208296	-2.981500	3.645200	-10.867000	25.029493	0.000996	20.800367
788.205079	-3.002300	3.643600	-10.939000	25.021321	0.000995	20.792638
789.210215	-3.008800	3.644200	-10.964000	25.055473	0.000997	20.795151
790.206368	-3.008700	3.642400	-10.959000	25.029045	0.000994	20.811297
791.206355	-3.015300	3.641500	-10.980000	25.005427	0.000994	20.817935
792.210715	-3.003500	3.642700	-10.941000	25.035284	0.000992	20.814714
793.206764	-2.998700	3.641800	-10.920000	25.012089	0.000992	20.799492
794.207757	-2.987200	3.642200	-10.879000	25.027535	0.000991	20.802669
795.207416	-2.977200	3.641100	-10.839000	25.027505	0.000993	20.809751
796.208514	-3.001900	3.639600	-10.924000	25.032210	0.000991	20.803568
797.208730	-2.995500	3.640700	-10.904000	25.058012	0.000992	20.807657
798.211855	-3.009100	3.641200	-10.955000	25.080237	0.000991	20.800569
799.209470	-2.998600	3.640000	-10.914000	25.096106	0.000992	20.816973
800.208027	-2.977900	3.640700	-10.841000	25.090334	0.000992	20.815446
801.208631	-2.997000	3.639500	-10.906000	25.082727	0.000990	20.809707
802.211415	-2.998800	3.640500	-10.914000	25.085010	0.000991	20.810576
803.210804	-2.998400	3.639900	-10.913000	25.053988	0.000990	20.808833
804.209474	-3.000500	3.639500	-10.920000	25.060134	0.000992	20.815477
805.209295	-2.996600	3.638700	-10.903000	25.077206	0.000991	20.822657
806.208858	-3.002100	3.637600	-10.920000	25.087972	0.000989	20.821610
807.211507	-2.986300	3.637800	-10.862000	25.089818	0.000990	20.815403
808.209038	-3.006800	3.637200	-10.936000	25.098167	0.000989	20.814775
809.210758	-3.002300	3.637900	-10.922000	25.125335	0.000991	20.823082
810.217753	-3.008400	3.637400	-10.942000	25.124366	0.000989	20.810255
811.212127	-3.003200	3.636800	-10.921000	25.110049	0.000990	20.826228
812.212780	-2.980700	3.638500	-10.845000	25.111013	0.000989	20.827196
813.221800	-2.986200	3.637800	-10.862000	25.107081	0.000988	20.831783
814.213213	-2.980400	3.637300	-10.840000	25.100523	0.000987	20.816666
815.212878	-2.996300	3.635900	-10.893000	25.115129	0.000988	20.813785
816.213789	-2.982500	3.635900	-10.842000	25.110982	0.000987	20.826691
817.214025	-2.986200	3.637000	-10.860000	25.123705	0.000985	20.815755
818.213942	-3.011300	3.633700	-10.942000	25.130618	0.000986	20.823643
819.213934	-2.980400	3.637600	-10.840000	25.110676	0.000987	20.818798
820.216486	-2.999500	3.635700	-10.904000	25.116762	0.000985	20.818268
821.215026	-3.013600	3.633900	-10.951000	25.128895	0.000986	20.829026
822.214625	-3.003400	3.635000	-10.916000	25.108904	0.000984	20.824131
823.215596	-3.016300	3.633000	-10.957000	25.114394	0.000985	20.827271
824.214688	-3.015500	3.633600	-10.956000	25.125976	0.000984	20.828940
825.219132	-2.996500	3.634200	-10.889000	25.150468	0.000982	20.829346
826.215392	-2.990700	3.632900	-10.863000	25.154738	0.000984	20.818934
827.214694	-2.982400	3.634600	-10.839000	25.152677	0.000982	20.830615
828.216384	-3.018400	3.632600	-10.963000	25.164982	0.000983	20.808355
829.218261	-3.012100	3.632900	-10.941000	25.161394	0.000983	20.815185
830.218441	-2.985400	3.632700	-10.844000	25.173349	0.000984	20.827186
831.218394	-3.007400	3.633000	-10.923000	25.206991	0.000981	20.814494
832.218438	-2.982900	3.630500	-10.827000	25.181029	0.000981	20.833947
833.216981	-2.995700	3.631900	-10.879000	25.200447	0.000982	20.844433
834.219998	-2.989000	3.631900	-10.854000	25.210685	0.000981	20.850443
835.219695	-3.012800	3.629100	-10.932000	25.186297	0.000981	20.856306
836.222436	-2.998100	3.630300	-10.883000	25.210409	0.000982	20.814606
837.220912	-3.018100	3.628700	-10.950000	25.200466	0.000980	20.841608
838.222068	-3.044100	3.627900	-11.043000	25.235464	0.000980	20.837390
839.223406	-3.006000	3.627900	-10.904000	25.211255	0.000979	20.845801
840.226010	-2.991000	3.628700	-10.853000	25.212451	0.000978	20.840838
841.221626	-2.951700	3.631800	-10.719000	25.203674	0.000980	20.845302
842.222241	-2.974700	3.629100	-10.793000	25.218615	0.000979	20.846078
843.223555	-2.989400	3.627900	-10.844000	25.204643	0.000979	20.853861
844.222877	-2.985600	3.628000	-10.830000	25.196014	0.000978	20.858473
845.227317	-3.007900	3.627200	-10.909000	25.188880	0.000976	20.862691
846.224629	-2.991100	3.627200	-10.848000	25.225271	0.000977	20.853233
847.227427	-2.995500	3.628200	-10.868000	25.213813	0.000978	20.848843
848.224041	-2.993200	3.627900	-10.859000	25.233655	0.000978	20.866865
849.226331	-3.025600	3.627200	-10.973000	25.212304	0.000978	20.868189
850.226197	-3.014600	3.625200	-10.927000	25.206502	0.000975	20.840555
851.224831	-3.006900	3.627400	-10.905000	25.177329	0.000976	20.854415
852.224246	-3.004800	3.625400	-10.893000	25.200540	0.000977	20.851164
853.223985	-3.028300	3.624600	-10.974000	25.187818	0.000976	20.858781
854.225990	-2.984400	3.627100	-10.824000	25.236139	0.000975	20.838067
855.223405	-2.997600	3.624500	-10.863000	25.203153	0.000975	20.870381
856.234030	-3.001800	3.624500	-10.879000	25.233881	0.000972	20.856662
857.224838	-3.003800	3.625500	-10.889000	25.205422	0.000972	20.855591
858.225591	-2.998800	3.625000	-10.870000	25.200491	0.000972	20.871028
859.226350	-3.012600	3.623000	-10.913000	25.242382	0.000972	20.863300
860.227773	-3.015000	3.623200	-10.922000	25.220811	0.000974	20.874833
861.231784	-2.991600	3.622400	-10.834000	25.232096	0.000972	20.843965
862.228714	-2.993300	3.624000	-10.846000	25.204286	0.000969	20.869149
863.229781	-3.002300	3.621800	-10.873000	25.227900	0.000972	20.859192
864.229073	-3.006400	3.622000	-10.888000	25.231973	0.000970	20.859962
865.228583	-2.984200	3.620900	-10.805000	25.260296	0.000970	20.881758
866.230505	-3.008600	3.622200	-10.897000	25.240535	0.000970	20.875669
867.233394	-3.001800	3.621300	-10.869000	25.232629	0.000968	20.871525
868.229453	-3.007800	3.619600	-10.886000	25.257935	0.000970	20.885077
869.230398	-2.983700	3.619800	-10.800000	25.254531	0.000967	20.871703
870.230270	-3.002400	3.618400	-10.862000	25.256598	0.000967	20.858132
871.234024	-3.005800	3.619100	-10.878000	25.244490	0.000968	20.899079
872.234956	-3.013000	3.620200	-10.907000	25.232812	0.000968	20.875028
873.232349	-3.012400	3.618000	-10.898000	25.229591	0.000967	20.855674
874.237174	-2.993100	3.619800	-10.833000	25.210596	0.000964	20.881173
875.233792	-3.008900	3.618700	-10.885000	25.234038	0.000964	20.887163
876.233462	-3.007700	3.617100	-10.878000	25.234437	0.000966	20.883297
877.239976	-2.995500	3.618700	-10.839000	25.225414	0.000965	20.876135
878.235581	-3.003800	3.618400	-10.868000	25.207020	0.000965	20.872367
879.234456	-2.996100	3.618300	-10.839000	25.205983	0.000963	20.875593
880.235108	-2.996800	3.617800	-10.840000	25.227217	0.000964	20.887901
881.235049	-3.001600	3.616600	-10.854000	25.227167	0.000964	20.855137
882.235010	-3.014600	3.616300	-10.900000	25.224457	0.000963	20.862373
883.237698	-2.999500	3.616900	-10.848000	25.210987	0.000963	20.870660
884.235499	-3.037400	3.614300	-10.976000	25.216084	0.000961	20.876725
885.237469	-3.020500	3.616500	-10.923000	25.256976	0.000961	20.857089
886.235611	-2.992500	3.615500	-10.818000	25.268567	0.000962	20.870148
887.241693	-3.006300	3.614600	-10.866000	25.277313	0.000961	20.871343
888.238629	-2.978900	3.616500	-10.772000	25.300827	0.000962	20.865081
889.241571	-2.996800	3.614900	-10.833000	25.335705	0.000961	20.867383
890.240568	-3.009300	3.613400	-10.873000	25.363714	0.000961	20.875591
891.239791	-2.974100	3.614700	-10.749000	25.364793	0.000960	20.861028
892.242152	-3.015800	3.614300	-10.898000	25.374832	0.000962	20.870160
893.238327	-3.014000	3.612000	-10.885000	25.364026	0.000960	20.875430
894.238975	-2.991300	3.613400	-10.808000	25.345535	0.000960	20.859710
895.239606	-2.991100	3.614700	-10.811000	25.361965	0.000959	20.872887
896.241230	-2.986500	3.613900	-10.792000	25.357027	0.000957	20.838060
897.241024	-2.986400	3.613000	-10.789000	25.348361	0.000958	20.858755
898.244339	-2.999500	3.610800	-10.830000	25.363742	0.000957	20.835793
899.243369	-3.001800	3.611000	-10.838000	25.347840	0.000957	20.857283
900.243890	-3.006700	3.612800	-10.861000	25.352666	0.000957	20.855017
901.243115	-2.970200	3.612900	-10.730000	25.381398	0.000957	20.859684
902.243033	-2.987600	3.610600	-10.786000	25.375658	0.000955	20.850127
903.247164	-2.993300	3.611200	-10.809000	25.396091	0.000957	20.870170
904.246218	-2.992800	3.611500	-10.807000	25.405339	0.000956	20.869498
905.251251	-3.009800	3.611300	-10.868000	25.382201	0.000957	20.833939
906.249244	-2.998400	3.611000	-10.826000	25.418787	0.000956	20.846968
907.249232	-2.994700	3.610200	-10.810000	25.419584	0.000954	20.856777
908.251275	-2.985200	3.610000	-10.775000	25.405547	0.000953	20.849320
909.250176	-2.992400	3.609400	-10.801000	25.429236	0.000955	20.848925
910.248666	-2.995200	3.607400	-10.805000	25.403044	0.000953	20.848229
911.248783	-2.979900	3.608700	-10.753000	25.427120	0.000953	20.832103
912.247580	-2.990000	3.607500	-10.786000	25.414855	0.000952	20.838752
913.248537	-2.977400	3.607200	-10.739000	25.372608	0.000952	20.855599
914.249545	-2.982700	3.606700	-10.755000	25.306790	0.000954	20.816542
915.249644	-3.002000	3.606700	-10.825000	25.267623	0.000951	20.821314
916.250393	-3.002600	3.606600	-10.828000	25.270929	0.000949	20.848339
917.252365	-3.008100	3.606200	-10.846000	25.259128	0.000948	20.839811
918.251901	-3.015300	3.604900	-10.869000	25.251946	0.000950	20.837816
919.255383	-3.007200	3.605400	-10.841000	25.291671	0.000950	20.833604
920.253649	-2.996500	3.607100	-10.808000	25.311530	0.000947	20.831257
921.253042	-3.011300	3.603600	-10.850000	25.364548	0.000949	20.829490
922.253389	-2.989700	3.605700	-10.778000	25.389679	0.000950	20.823905
923.252653	-2.983300	3.605200	-10.754000	25.420820	0.000949	20.815820
924.256942	-3.000800	3.603500	-10.812000	25.420053	0.000947	20.821214
925.254294	-2.963700	3.605700	-10.685000	25.443620	0.000948	20.840136
926.256814	-3.006800	3.603400	-10.833000	25.445391	0.000947	20.818682
927.254597	-3.006600	3.604000	-10.834000	25.456920	0.000947	20.834526
928.255440	-2.992000	3.604300	-10.783000	25.474685	0.000946	20.825339
929.256026	-3.000300	3.602100	-10.807000	25.483018	0.000945	20.829439
930.256505	-3.003400	3.602200	-10.818000	25.472876	0.000946	20.817358
931.257543	-3.008000	3.603100	-10.836000	25.466762	0.000945	20.830185
932.255005	-3.021100	3.601600	-10.878000	25.437542	0.000944	20.818386
933.254705	-2.971000	3.603000	-10.703000	25.413534	0.000943	20.850227
934.255149	-2.992500	3.600200	-10.772000	25.420868	0.000946	20.834833
935.255728	-2.996100	3.599300	-10.783000	25.425240	0.000946	20.827370
936.255418	-2.995100	3.600700	-10.784000	25.390622	0.000943	20.840498
937.257629	-2.981700	3.600900	-10.735000	25.374218	0.000942	20.840621
938.255897	-2.983700	3.601200	-10.743000	25.361321	0.000943	20.834310
939.255817	-2.984500	3.599800	-10.743000	25.345369	0.000941	20.816871
940.258405	-2.991000	3.599100	-10.764000	25.287130	0.000942	20.797751
941.255894	-2.990400	3.599400	-10.762000	25.307412	0.000942	20.810055
942.257389	-2.972600	3.599800	-10.700000	25.264069	0.000942	20.803995
943.255849	-3.014700	3.598000	-10.846000	25.243117	0.000941	20.810461
944.255666	-2.969900	3.598100	-10.684000	25.247270	0.000941	20.820319
945.256630	-2.985700	3.598400	-10.742000	25.286541	0.000940	20.809962
946.267466	-3.010400	3.596100	-10.825000	25.310577	0.000941	20.803274
947.258098	-3.003500	3.597300	-10.803000	25.324836	0.000940	20.810005
948.257981	-3.002300	3.596800	-10.798000	25.342358	0.000939	20.810055
949.260454	-3.000800	3.597200	-10.793000	25.353004	0.000937	20.813632
950.259218	-2.990900	3.597000	-10.756000	25.382680	0.000937	20.812135
951.263742	-2.981800	3.596000	-10.721000	25.350613	0.000937	20.807911
952.262392	-2.993700	3.595400	-10.762000	25.378578	0.000936	20.804223
953.261163	-3.004500	3.596200	-10.804000	25.389831	0.000936	20.814100
954.262416	-2.994400	3.593600	-10.759000	25.413545	0.000934	20.803773
955.266060	-2.982700	3.594500	-10.720000	25.427932	0.000935	20.820116
956.273652	-3.009500	3.594400	-10.816000	25.440755	0.000933	20.820664
957.263443	-2.989000	3.595100	-10.745000	25.417072	0.000935	20.793564
958.262988	-3.010200	3.591900	-10.811000	25.409020	0.000933	20.802074
959.264282	-3.012600	3.592600	-10.822000	25.403678	0.000934	20.818521
960.264947	-2.980500	3.593900	-10.710000	25.429447	0.000933	20.794611
961.266596	-2.991700	3.592000	-10.745000	25.440828	0.000932	20.805565
962.268007	-3.020800	3.592300	-10.850000	25.412147	0.000931	20.802844
963.266411	-2.997400	3.593400	-10.769000	25.368134	0.000931	20.818392
964.267430	-2.978500	3.591900	-10.697000	25.318029	0.000930	20.799377
965.268121	-2.996400	3.592000	-10.762000	25.310601	0.000930	20.816575
966.268221	-2.999400	3.591000	-10.771000	25.264370	0.000931	20.796236
967.272565	-2.987500	3.592000	-10.730000	25.284456	0.000930	20.807868
968.269371	-2.987700	3.592900	-10.733000	25.317188	0.000929	20.806119
969.269850	-2.998600	3.589000	-10.761000	25.320193	0.000931	20.822413
970.269752	-3.005500	3.590400	-10.790000	25.320120	0.000930	20.810959
971.269634	-2.991000	3.590600	-10.738000	25.301653	0.000931	20.793841
972.272325	-2.985100	3.590600	-10.717000	25.286688	0.000929	20.784031
973.271517	-2.983600	3.589700	-10.709000	25.292435	0.000928	20.809715
974.268282	-2.994300	3.590400	-10.750000	25.287185	0.000927	20.824359
975.270757	-2.975600	3.588500	-10.677000	25.310718	0.000927	20.807210
976.269247	-3.023800	3.587100	-10.846000	25.351281	0.000927	20.815695
977.269743	-2.995800	3.588700	-10.750000	25.397056	0.000927	20.778206
978.273726	-2.999500	3.587200	-10.758000	25.380081	0.000927	20.790085
979.268682	-2.990800	3.587700	-10.727000	25.461342	0.000925	20.820948
980.270638	-3.014700	3.586500	-10.809000	25.436818	0.000925	20.787788
981.270385	-3.002400	3.587500	-10.770000	25.439793	0.000925	20.814957
982.270442	-3.013200	3.585300	-10.802000	25.467946	0.000924	20.807192
983.270840	-3.013100	3.585700	-10.803000	25.492425	0.000924	20.805696
984.272531	-3.012900	3.585800	-10.802000	25.536177	0.000923	20.788941
985.270946	-2.999600	3.585700	-10.754000	25.522509	0.000921	20.807932
986.270979	-3.018300	3.584400	-10.818000	25.534013	0.000921	20.791983
987.271203	-3.011800	3.584800	-10.796000	25.541837	0.000920	20.799366
988.272888	-3.012500	3.584600	-10.797000	25.570189	0.000922	20.805555
989.271709	-3.031500	3.583200	-10.861000	25.585715	0.000920	20.802655
990.273266	-3.015800	3.581800	-10.801000	25.589596	0.000919	20.785690
991.270683	-2.996300	3.583400	-10.736000	25.601840	0.000920	20.797513
992.272553	-3.013800	3.583800	-10.799000	25.599425	0.000919	20.788923
993.275190	-3.019100	3.581100	-10.810000	25.620425	0.000920	20.778720
994.274335	-3.010100	3.581300	-10.777000	25.630989	0.000918	20.791226
995.274668	-3.023800	3.582000	-10.830000	25.630369	0.000918	20.812889
996.274738	-3.001300	3.581100	-10.747000	25.649744	0.000918	20.785881
997.274788	-2.998100	3.582500	-10.739000	25.656053	0.000918	20.794115
998.274343	-2.996600	3.581700	-10.732000	25.588818	0.000917	20.795814
999.279958	-2.999000	3.580600	-10.736000	25.552163	0.000915	20.793616
1000.277143	-2.991200	3.581400	-10.712000	25.544186	0.000916	20.808364
1001.281297	-2.991700	3.582500	-10.716000	25.559938	0.000915	20.789570
1002.277017	-3.003200	3.581300	-10.754000	25.575923	0.000915	20.787605
1003.277061	-2.994000	3.580500	-10.719000	25.558620	0.000912	20.799152
1004.279458	-2.999800	3.580000	-10.738000	25.511253	0.000914	20.800895
1005.277330	-3.000400	3.579500	-10.738000	25.497020	0.000913	20.782335
1006.277831	-2.999500	3.580000	-10.737000	25.430860	0.000913	20.792237
1007.277168	-2.977100	3.579700	-10.657000	25.432173	0.000914	20.785494
1008.276437	-3.008900	3.577700	-10.764000	25.435858	0.000910	20.796307
1009.277473	-2.986400	3.579800	-10.689000	25.449000	0.000911	20.787692
1010.280667	-2.993800	3.577400	-10.709000	25.481378	0.000911	20.785593
1011.278013	-3.007400	3.576100	-10.754000	25.502710	0.000910	20.776669
1012.279169	-2.987100	3.577100	-10.684000	25.501607	0.000911	20.785993
1013.278382	-2.994300	3.577300	-10.710000	25.521984	0.000908	20.788912
1014.279650	-2.974600	3.576400	-10.636000	25.528477	0.000909	20.790691
1015.281832	-2.998400	3.577600	-10.725000	25.529740	0.000909	20.779158
1016.280736	-2.981000	3.575700	-10.658000	25.543702	0.000908	20.783222
1017.284149	-2.983100	3.575000	-10.663000	25.572773	0.000907	20.779226
1018.280207	-2.989700	3.576500	-10.691000	25.601032	0.000906	20.795753
1019.279933	-2.998900	3.574100	-10.717000	25.581020	0.000905	20.796043
1020.281076	-3.011900	3.573500	-10.762000	25.599113	0.000907	20.787188
1021.281562	-2.993100	3.574100	-10.696000	25.620947	0.000905	20.796314
1022.282825	-3.006900	3.572800	-10.743000	25.663240	0.000903	20.792798
1023.280370	-3.015600	3.574000	-10.777000	25.650150	0.000903	20.809996
1024.280839	-2.999200	3.574200	-10.718000	25.659709	0.000902	20.793519
1025.283755	-2.998600	3.573400	-10.713000	25.681572	0.000902	20.784183
1026.280559	-2.999700	3.572700	-10.715000	25.679187	0.000902	20.787952
1027.280325	-2.991300	3.572400	-10.686000	25.691786	0.000903	20.779269
1028.279233	-3.017200	3.571300	-10.775000	25.690645	0.000902	20.782865
1029.279415	-2.995700	3.570500	-10.695000	25.707315	0.000902	20.786806
1030.282825	-2.996000	3.570000	-10.695000	25.707634	0.000902	20.797558
1031.280401	-3.013900	3.570600	-10.760000	25.671879	0.000900	20.801001
1032.279716	-2.999100	3.569400	-10.704000	25.645043	0.000900	20.781160
1033.279799	-3.025000	3.569900	-10.798000	25.662186	0.000899	20.792688
1034.280044	-3.000500	3.570200	-10.710000	25.630053	0.000900	20.774639
1035.283590	-2.984300	3.569600	-10.652000	25.637110	0.000899	20.767502
1036.280898	-2.993400	3.569700	-10.684000	25.650072	0.000895	20.781469
1037.281803	-2.990200	3.568100	-10.668000	25.618545	0.000897	20.782996
1038.281794	-2.942600	3.568900	-10.501000	25.618024	0.000898	20.796697
1039.284562	-2.981700	3.569700	-10.642000	25.654621	0.000895	20.784616
1040.284622	-3.008100	3.568300	-10.732000	25.622936	0.000897	20.786457
1041.282639	-2.995100	3.569300	-10.689000	25.661923	0.000896	20.772983
1042.281301	-3.014000	3.567500	-10.751000	25.600127	0.000894	20.786783
1043.282496	-3.025300	3.565000	-10.783000	25.600648	0.000893	20.786833
1044.281403	-3.013100	3.565600	-10.743000	25.575994	0.000894	20.767288
1045.281996	-3.018200	3.566100	-10.762000	25.578728	0.000892	20.747748
1046.283704	-3.015900	3.565100	-10.750000	25.588073	0.000892	20.762823
1047.282266	-2.981500	3.564800	-10.627000	25.599434	0.000889	20.787036
1048.284247	-2.974000	3.566900	-10.606000	25.641888	0.000890	20.767085
1049.282570	-2.991600	3.564200	-10.660000	25.639557	0.000891	20.789875
1050.282666	-3.002100	3.564200	-10.699000	25.655033	0.000890	20.774123
1051.286447	-2.990500	3.564600	-10.659000	25.632304	0.000890	20.773581
1052.286794	-2.981300	3.565000	-10.627000	25.624578	0.000889	20.762028
1053.286611	-3.013300	3.562500	-10.733000	25.642611	0.000888	20.757380
1054.287494	-3.010000	3.563500	-10.724000	25.659257	0.000887	20.781685
1055.286920	-3.010600	3.561900	-10.722000	25.667889	0.000887	20.758586
1056.287358	-3.004300	3.562600	-10.702000	25.638908	0.000889	20.763618
1057.289813	-2.977100	3.563000	-10.606000	25.620373	0.000886	20.759701
1058.287255	-3.000800	3.562700	-10.690000	25.561855	0.000886	20.759726
1059.287539	-3.021500	3.561900	-10.760000	25.554325	0.000885	20.756905
1060.288595	-2.997100	3.561700	-10.673000	25.539891	0.000885	20.764221
1061.288588	-2.987600	3.560900	-10.638000	25.529075	0.000885	20.760471
1062.293271	-2.989600	3.560300	-10.642000	25.515107	0.000887	20.772997
1063.288576	-3.014900	3.560500	-10.734000	25.514831	0.000884	20.772246
1064.288718	-2.997800	3.561100	-10.674000	25.526880	0.000883	20.754474
1065.287301	-2.999000	3.559700	-10.675000	25.508595	0.000886	20.769302
1066.287406	-3.009000	3.560200	-10.711000	25.500660	0.000885	20.759437
1067.289537	-3.014600	3.557600	-10.724000	25.507019	0.000883	20.770091
1068.287783	-3.027600	3.557400	-10.768000	25.490641	0.000882	20.749850
1069.288972	-2.994500	3.559000	-10.656000	25.475158	0.000881	20.768441
1070.289755	-2.988300	3.558700	-10.633000	25.446429	0.000880	20.753341
1071.290386	-2.981600	3.558400	-10.608000	25.416208	0.000882	20.754290
1072.289265	-3.018100	3.556300	-10.733000	25.411677	0.000882	20.744524
1073.288673	-2.985600	3.557800	-10.620000	25.417687	0.000882	20.766206
1074.290178	-2.978000	3.558100	-10.595000	25.416172	0.000877	20.757099
1075.292673	-2.985900	3.556300	-10.618000	25.432418	0.000879	20.762980
1076.290461	-2.994400	3.557200	-10.650000	25.474191	0.000878	20.755141
1077.291533	-3.001400	3.555000	-10.668000	25.513006	0.000880	20.751921
1078.296670	-3.011200	3.553800	-10.701000	25.534149	0.000878	20.752290
1079.294043	-3.016600	3.554800	-10.722000	25.550343	0.000877	20.734414
1080.296343	-2.992000	3.554100	-10.633000	25.555488	0.000875	20.741951
1081.293768	-3.006300	3.553900	-10.683000	25.540226	0.000874	20.752230
1082.294568	-2.995400	3.554200	-10.645000	25.537339	0.000874	20.753597
1083.299019	-3.018900	3.553200	-10.725000	25.525142	0.000874	20.746090
1084.298205	-3.019300	3.553100	-10.728000	25.499217	0.000872	20.750401
1085.293813	-3.019800	3.551800	-10.724000	25.496979	0.000872	20.742938
1086.294291	-3.006700	3.553600	-10.683000	25.513897	0.000872	20.765144
1087.293423	-2.996700	3.552400	-10.644000	25.492656	0.000871	20.738596
1088.295911	-2.997200	3.552300	-10.646000	25.474187	0.000871	20.739015
1089.296956	-2.975200	3.553000	-10.570000	25.438798	0.000871	20.732401
1090.295729	-3.017900	3.550800	-10.715000	25.424302	0.000871	20.746769
1091.299722	-3.009900	3.549500	-10.683000	25.466768	0.000869	20.746739
1092.295679	-2.996400	3.550100	-10.636000	25.490229	0.000869	20.727624
1093.295037	-2.999500	3.550100	-10.647000	25.540750	0.000869	20.739952
1094.298348	-2.994800	3.550400	-10.632000	25.589949	0.000870	20.739577
1095.296236	-2.989200	3.551300	-10.614000	25.591764	0.000869	20.746615
1096.302847	-2.998400	3.551400	-10.646000	25.622372	0.000868	20.745113
1097.296897	-2.995900	3.550100	-10.634000	25.624291	0.000866	20.760317
1098.298914	-3.001300	3.549900	-10.653000	25.619840	0.000865	20.736880
1099.303588	-3.002600	3.548500	-10.653000	25.643169	0.000865	20.753673
1100.297609	-2.981100	3.549200	-10.579000	25.634770	0.000865	20.738598
1101.301307	-2.987900	3.547900	-10.600000	25.635733	0.000865	20.743359
1102.298890	-2.999600	3.547000	-10.639000	25.672311	0.000862	20.745483
1103.298920	-3.004700	3.546500	-10.655000	25.691016	0.000862	20.750995
1104.302606	-2.992400	3.546700	-10.612000	25.708704	0.000863	20.737940
1105.300452	-2.995800	3.547700	-10.627000	25.716159	0.000864	20.736893
1106.301621	-2.969200	3.547800	-10.533000	25.706718	0.000861	20.720297
1107.301691	-2.986600	3.546200	-10.590000	25.706240	0.000862	20.748742
1108.299944	-3.016200	3.543500	-10.687000	25.659687	0.000860	20.723794
1109.301547	-3.006900	3.544700	-10.658000	25.636347	0.000860	20.761994
1110.301903	-3.026500	3.544100	-10.725000	25.639627	0.000860	20.741580
1111.301126	-2.997000	3.545000	-10.624000	25.617904	0.000859	20.735410
1112.301703	-3.005600	3.543200	-10.649000	25.619321	0.000858	20.727349
1113.301319	-3.020200	3.543400	-10.701000	25.632466	0.000858	20.734862
1114.302171	-3.009000	3.542400	-10.658000	25.624042	0.000856	20.728297
1115.301779	-3.007900	3.542500	-10.655000	25.628910	0.000857	20.747412
1116.301329	-3.019300	3.541700	-10.693000	25.618720	0.000857	20.742868
1117.302504	-2.967800	3.543600	-10.516000	25.637531	0.000857	20.738526
1118.301958	-2.968700	3.543000	-10.516000	25.652485	0.000856	20.717034
1119.306577	-3.003800	3.540400	-10.633000	25.654147	0.000857	20.738145
1120.305524	-2.968500	3.542000	-10.514000	25.625821	0.000855	20.749999
1121.303507	-2.984900	3.541000	-10.569000	25.600376	0.000853	20.724443
1122.303453	-3.015700	3.541500	-10.679000	25.598487	0.000853	20.723020
1123.302913	-3.009100	3.539700	-10.651000	25.620922	0.000853	20.732276
1124.304542	-2.991100	3.541500	-10.592000	25.607722	0.000849	20.735615
1125.309048	-2.973700	3.540600	-10.527000	25.616766	0.000852	20.727153
1126.304573	-2.992500	3.539200	-10.591000	25.621413	0.000850	20.738934
1127.304128	-2.986300	3.538800	-10.567000	25.640941	0.000849	20.746693
1128.307035	-3.007400	3.539300	-10.643000	25.648721	0.000849	20.733644
1129.305934	-3.001200	3.537700	-10.617000	25.671425	0.000847	20.728472
1130.308988	-2.992800	3.538500	-10.589000	25.710577	0.000848	20.724174
1131.307189	-3.003700	3.539000	-10.629000	25.724139	0.000847	20.740167
1132.308708	-3.014200	3.536500	-10.658000	25.734181	0.000847	20.741244
1133.306221	-3.026600	3.535100	-10.698000	25.762798	0.000848	20.746756
1134.307910	-3.012800	3.537400	-10.657000	25.727192	0.000847	20.734225
1135.311173	-2.989500	3.537300	-10.574000	25.699518	0.000846	20.723497
1136.308756	-3.021500	3.534900	-10.679000	25.703166	0.000845	20.740438
1137.310412	-3.000700	3.534300	-10.605000	25.732710	0.000844	20.733128
1138.310838	-2.998000	3.534700	-10.596000	25.730319	0.000845	20.751591
1139.311268	-2.974300	3.536000	-10.516000	25.759347	0.000842	20.756566
1140.307218	-2.997300	3.534400	-10.593000	25.779969	0.000841	20.729390
1141.310607	-2.985900	3.534900	-10.554000	25.775372	0.000841	20.736152
1142.308319	-3.003400	3.535000	-10.615000	25.797453	0.000842	20.730831
1143.308211	-2.987400	3.533800	-10.556000	25.811191	0.000840	20.736097
1144.307849	-3.017300	3.533300	-10.660000	25.818921	0.000840	20.763777
1145.309577	-2.990000	3.533300	-10.564000	25.839960	0.000839	20.729433
1146.312062	-2.993200	3.533200	-10.574000	25.876108	0.000839	20.745358
1147.311727	-3.011600	3.531000	-10.633000	25.846696	0.000840	20.735253
1148.314877	-3.044100	3.532000	-10.751000	25.830672	0.000837	20.752347
1149.310953	-3.020300	3.529700	-10.660000	25.823194	0.000837	20.755266
1150.310069	-3.010900	3.530800	-10.631000	25.819418	0.000837	20.759534
1151.312420	-3.013000	3.530600	-10.636000	25.836607	0.000838	20.762102
1152.313246	-3.002100	3.531500	-10.600000	25.858889	0.000838	20.723793
1153.311613	-2.996600	3.531400	-10.581000	25.868654	0.000837	20.740715
1154.310692	-3.019900	3.527600	-10.652000	25.853452	0.000834	20.728762
1155.310677	-3.001600	3.529600	-10.593000	25.826100	0.000836	20.735899
1156.310717	-2.985400	3.530900	-10.540000	25.827835	0.000834	20.750445
1157.312654	-2.976400	3.528200	-10.500000	25.832058	0.000833	20.758007
1158.316825	-2.985500	3.527600	-10.530000	25.833652	0.000832	20.737322
1159.312834	-2.987400	3.528000	-10.539000	25.818015	0.000832	20.739158
1160.311808	-2.993300	3.527600	-10.558000	25.807494	0.000833	20.749453
1161.312414	-2.988200	3.526500	-10.537000	25.851337	0.000834	20.744656
1162.314914	-2.994700	3.528100	-10.565000	25.858393	0.000832	20.737045
1163.312035	-3.001000	3.526900	-10.582000	25.887454	0.000831	20.757706
1164.313150	-2.994800	3.527500	-10.563000	25.914254	0.000829	20.750963
1165.311860	-2.988400	3.527300	-10.539000	25.911256	0.000829	20.743209
1166.312770	-2.965300	3.527200	-10.456000	25.892052	0.000829	20.731977
1167.314409	-2.976700	3.526500	-10.496000	25.902730	0.000828	20.743653
1168.314824	-3.000200	3.524400	-10.573000	25.919948	0.000828	20.748622
1169.312049	-2.996500	3.524700	-10.561000	25.901786	0.000828	20.736540
1170.312484	-3.005500	3.524300	-10.591000	25.869169	0.000829	20.759726
1171.312413	-2.972300	3.525200	-10.476000	25.840083	0.000827	20.756111
1172.313072	-2.985300	3.524400	-10.520000	25.866883	0.000826	20.743204
1173.316971	-3.014800	3.522700	-10.619000	25.851932	0.000827	20.734822
1174.312163	-2.956000	3.524500	-10.418000	25.828656	0.000825	20.765495
1175.320447	-2.999000	3.522700	-10.563000	25.851503	0.000826	20.738659
1176.314091	-2.986000	3.522700	-10.518000	25.871186	0.000823	20.764596
1177.317101	-3.033500	3.520300	-10.676000	25.872522	0.000822	20.753137
1178.318710	-3.005200	3.520900	-10.579000	25.905095	0.000824	20.771161
1179.317604	-2.987300	3.522000	-10.520000	25.900700	0.000823	20.753468
1180.316792	-3.005800	3.520100	-10.580000	25.928645	0.000823	20.733652
1181.318046	-2.997900	3.522500	-10.558000	25.904795	0.000820	20.754263
1182.318237	-3.012300	3.520400	-10.604000	25.921541	0.000821	20.759232
1183.317856	-3.006200	3.519000	-10.577000	25.909122	0.000821	20.750549
1184.322235	-2.990800	3.519800	-10.526000	25.873802	0.000819	20.743042
1185.318350	-2.996800	3.519900	-10.548000	25.876438	0.000818	20.748535
1186.317349	-2.987300	3.518500	-10.510000	25.891487	0.000818	20.767921
1187.318402	-2.982800	3.517600	-10.491000	25.871344	0.000819	20.756220
1188.322257	-2.998900	3.519000	-10.552000	25.844195	0.000818	20.764983
1189.320831	-2.968600	3.519600	-10.446000	25.866477	0.000819	20.762237
1190.320110	-2.994300	3.517600	-10.532000	25.873661	0.000815	20.758073
1191.322819	-2.971900	3.517000	-10.451000	25.909213	0.000816	20.765340
1192.320761	-3.013700	3.516100	-10.595000	25.913215	0.000812	20.764619
1193.323560	-3.002100	3.515800	-10.554000	25.944243	0.000814	20.761176
1194.323153	-3.008300	3.516100	-10.576000	25.924892	0.000812	20.760702
1195.323585	-3.022300	3.514200	-10.620000	25.927877	0.000813	20.761330
1196.323225	-3.009200	3.515700	-10.578000	25.914091	0.000813	20.766921
1197.329313	-3.009100	3.515100	-10.576000	25.913030	0.000813	20.771545
1198.325434	-2.978900	3.516000	-10.473000	25.943580	0.000812	20.765726
1199.325077	-2.977900	3.515900	-10.469000	25.974238	0.000811	20.768078
1200.325538	-3.014400	3.514000	-10.592000	25.963812	0.000811	20.760448
1201.328013	-3.003400	3.514000	-10.552000	25.997050	0.000811	20.766341
1202.327964	-2.993100	3.514200	-10.517000	25.999440	0.000810	20.754517
1203.326516	-3.017100	3.511900	-10.595000	25.984755	0.000808	20.751617
1204.325514	-2.996600	3.512100	-10.523000	25.994604	0.000808	20.775263
1205.330376	-3.002300	3.512200	-10.543000	25.988720	0.000808	20.770773
1206.325301	-2.992700	3.510900	-10.506000	25.995995	0.000806	20.769548
1207.326456	-2.984300	3.512700	-10.482000	26.006457	0.000807	20.765834
1208.327092	-3.005200	3.510300	-10.547000	25.995559	0.000806	20.771955
1209.326906	-2.997200	3.511700	-10.524000	26.010759	0.000806	20.765889
1210.329385	-2.977600	3.511800	-10.454000	26.043879	0.000804	20.751750
1211.327508	-2.967600	3.510000	-10.416000	26.026118	0.000803	20.773734
1212.328378	-3.009200	3.508900	-10.556000	26.023862	0.000804	20.767674
1213.326179	-2.998800	3.508800	-10.522000	26.059538	0.000802	20.773647
1214.329150	-3.028700	3.507700	-10.623000	26.082563	0.000802	20.775445
1215.326990	-3.021500	3.507700	-10.598000	26.086295	0.000804	20.778246
1216.327744	-3.014100	3.507300	-10.570000	26.095703	0.000803	20.756878
1217.327738	-3.004400	3.507200	-10.536000	26.068608	0.000802	20.784183
1218.328310	-3.033400	3.505200	-10.631000	26.041597	0.000802	20.780752
1219.328339	-3.009000	3.505400	-10.547000	26.032508	0.000802	20.781577
1220.329194	-2.990700	3.506500	-10.484000	26.007122	0.000802	20.772666
1221.326864	-3.003400	3.505900	-10.528000	26.021133	0.000799	20.780105
1222.328594	-2.979400	3.506400	-10.445000	26.007728	0.000799	20.778491
1223.330007	-3.004300	3.504500	-10.528000	26.033114	0.000799	20.779815
1224.329648	-2.988800	3.505700	-10.477000	26.036969	0.000798	20.757609
1225.330575	-2.991600	3.503700	-10.481000	26.045684	0.000798	20.793393
1226.327151	-2.999600	3.503100	-10.507000	26.047774	0.000796	20.758508
1227.330545	-2.991200	3.503700	-10.479000	26.055226	0.000796	20.787807
1228.328459	-2.989500	3.502900	-10.470000	26.056151	0.000795	20.789211
1229.331424	-3.001100	3.502300	-10.509000	26.028332	0.000795	20.778804
1230.331797	-3.003100	3.501400	-10.515000	26.015866	0.000794	20.759640
1231.333918	-3.016900	3.501300	-10.562000	25.982934	0.000795	20.781082
1232.332147	-2.997100	3.502600	-10.496000	25.957492	0.000794	20.760737
1233.330938	-3.007700	3.499900	-10.526000	25.968003	0.000795	20.790738
1234.331049	-2.999100	3.500400	-10.498000	25.967029	0.000792	20.766051
1235.330858	-3.027600	3.498000	-10.589000	25.971533	0.000793	20.775792
1236.330839	-2.978600	3.501500	-10.428000	25.992122	0.000792	20.791735
1237.330222	-3.007300	3.498500	-10.520000	26.005936	0.000791	20.792813
1238.329647	-2.992500	3.499500	-10.471000	26.011526	0.000793	20.797480
1239.331193	-3.001900	3.499100	-10.503000	25.992097	0.000789	20.784598
1240.331895	-3.001900	3.497100	-10.496000	25.995878	0.000791	20.794087
1241.334169	-2.991600	3.498600	-10.465000	26.023441	0.000790	20.773890
1242.330484	-2.995200	3.499100	-10.479000	26.035349	0.000789	20.789173
1243.331926	-3.003500	3.497000	-10.502000	26.071283	0.000788	20.785922
1244.332494	-2.989700	3.498100	-10.458000	26.097587	0.000788	20.809032
1245.330919	-2.958900	3.499500	-10.353000	26.088694	0.000786	20.795830
1246.334881	-3.004500	3.496000	-10.502000	26.115691	0.000786	20.804938
1247.331779	-2.974600	3.496500	-10.399000	26.118639	0.000788	20.794150
1248.334970	-2.990000	3.495000	-10.449000	26.122995	0.000786	20.791415
1249.333887	-3.009800	3.494800	-10.518000	26.088290	0.000786	20.807752
1250.335928	-2.996800	3.494900	-10.472000	26.073612	0.000784	20.791108
1251.338382	-2.979600	3.495500	-10.414000	26.048767	0.000783	20.794119
1252.337873	-3.001900	3.494000	-10.488000	25.982775	0.000784	20.779026
1253.339269	-3.006400	3.492900	-10.500000	25.992135	0.000784	20.803128
1254.337139	-2.997700	3.494500	-10.475000	26.019630	0.000782	20.787130
1255.337594	-3.001600	3.493200	-10.483000	25.989977	0.000781	20.797641
1256.337361	-3.002300	3.491700	-10.482000	25.965032	0.000781	20.798658
1257.340797	-2.997000	3.492400	-10.466000	25.939742	0.000782	20.804071
1258.339757	-3.011300	3.491600	-10.513000	25.926429	0.000780	20.788325
1259.345096	-3.032400	3.490300	-10.582000	25.915947	0.000778	20.806718
1260.338765	-3.019600	3.490100	-10.538000	25.925239	0.000780	20.810838
1261.340349	-2.993700	3.490600	-10.449000	25.929438	0.000780	20.813633
1262.345085	-3.017500	3.488100	-10.524000	25.945834	0.000779	20.810191
1263.339999	-3.025200	3.487700	-10.549000	25.985828	0.000778	20.795369
1264.339467	-2.970000	3.491100	-10.366000	25.974299	0.000776	20.812236
1265.339214	-3.018600	3.487900	-10.528000	25.981078	0.000776	20.819046
1266.339812	-2.976100	3.488200	-10.379000	25.999091	0.000778	20.809643
1267.340518	-3.003700	3.488900	-10.478000	25.982322	0.000776	20.806546
1268.342550	-2.998400	3.487100	-10.455000	25.987617	0.000776	20.812340
1269.340324	-3.024000	3.487700	-10.546000	25.962408	0.000775	20.802660
1270.340443	-2.991100	3.487500	-10.430000	25.930118	0.000775	20.806256
1271.339711	-3.001000	3.488300	-10.468000	25.945221	0.000775	20.793928
1272.340746	-2.990000	3.486300	-10.422000	25.962113	0.000775	20.817537
1273.343749	-2.983500	3.487300	-10.403000	25.940605	0.000772	20.813472
1274.341313	-2.993800	3.486000	-10.435000	25.962291	0.000773	20.806810
1275.342378	-2.994000	3.484700	-10.432000	25.989437	0.000772	20.803737
1276.342071	-3.000100	3.485000	-10.454000	26.028939	0.000770	20.817345
1277.340961	-2.989200	3.484300	-10.412000	26.023368	0.000773	20.820283
1278.343172	-3.003500	3.484200	-10.464000	26.036588	0.000769	20.814599
1279.340786	-2.981200	3.483400	-10.384000	26.038972	0.000770	20.840701
1280.340293	-3.002100	3.482300	-10.454000	26.062671	0.000770	20.809986
1281.342118	-3.001400	3.483000	-10.453000	26.063566	0.000769	20.803299
1282.343706	-3.012400	3.481300	-10.485000	26.095656	0.000769	20.830800
1283.344061	-3.008900	3.481600	-10.474000	26.088583	0.000767	20.832702
1284.344015	-2.973100	3.481900	-10.351000	26.055446	0.000768	20.828330
1285.345333	-3.010300	3.481000	-10.478000	26.045958	0.000766	20.809315
1286.341966	-2.996500	3.481500	-10.432000	26.034387	0.000767	20.811913
1287.343267	-2.999300	3.480400	-10.438000	26.023385	0.000765	20.841636
1288.347502	-3.027700	3.480800	-10.537000	26.011439	0.000765	20.810195
1289.345235	-2.983800	3.479800	-10.382000	26.001357	0.000764	20.826618
1290.346178	-3.008700	3.480100	-10.470000	26.005408	0.000762	20.838748
1291.344673	-2.990600	3.479500	-10.405000	26.010875	0.000763	20.819111
1292.344091	-2.997500	3.480700	-10.432000	26.046000	0.000763	20.833064
1293.348602	-3.004300	3.479200	-10.451000	26.060133	0.000763	20.833988
1294.350669	-3.006200	3.479100	-10.457000	26.058521	0.000764	20.836161
1295.347130	-2.991200	3.478200	-10.403000	26.045951	0.000759	20.845342
1296.345250	-2.994500	3.477400	-10.410000	26.021692	0.000763	20.822867
1297.346415	-3.008700	3.476200	-10.458000	25.983992	0.000758	20.837620
1298.347691	-2.997800	3.475900	-10.419000	25.981755	0.000759	20.836321
1299.350607	-3.005800	3.475700	-10.446000	26.020104	0.000759	20.832651
1300.347539	-3.007500	3.474700	-10.449000	26.035856	0.000757	20.842312
1301.349424	-3.001200	3.475600	-10.430000	25.999639	0.000757	20.827263
1302.346613	-3.008600	3.473600	-10.450000	25.954534	0.000757	20.847854
1303.347936	-3.024900	3.473500	-10.505000	25.947589	0.000756	20.839928
1304.351696	-2.983400	3.474400	-10.365000	25.947185	0.000758	20.846160
1305.347614	-3.011100	3.474100	-10.459000	25.954068	0.000755	20.843592
1306.347190	-3.009200	3.471100	-10.444000	25.942471	0.000758	20.840002
1307.346307	-3.004800	3.472600	-10.433000	25.920632	0.000758	20.823752
1308.347584	-2.980300	3.472200	-10.348000	25.911474	0.000755	20.841578
1309.346437	-2.999500	3.471000	-10.409000	25.950519	0.000755	20.817268
1310.348837	-3.003600	3.472900	-10.431000	25.928844	0.000754	20.837692
1311.346043	-2.983900	3.471900	-10.359000	25.965927	0.000753	20.846972
1312.352386	-3.008500	3.471600	-10.443000	25.998590	0.000754	20.839885
1313.346072	-3.012000	3.470400	-10.452000	26.024798	0.000753	20.832151
1314.347095	-2.996100	3.470000	-10.395000	26.035897	0.000754	20.822914
1315.348894	-3.026300	3.468100	-10.495000	26.016854	0.000753	20.828437
1316.347113	-2.985800	3.469300	-10.357000	26.042412	0.000751	20.834675
1317.346568	-3.005400	3.468600	-10.423000	26.070457	0.000751	20.843911
1318.347162	-2.994600	3.467000	-10.381000	26.075476	0.000749	20.843240
1319.346175	-3.012100	3.468700	-10.446000	26.120730	0.000750	20.833708
1320.347392	-3.018200	3.466400	-10.461000	26.105133	0.000748	20.842218
1321.353775	-2.983000	3.468100	-10.344000	26.163848	0.000749	20.865653
1322.347947	-2.981700	3.468300	-10.340000	26.180412	0.000749	20.841522
1323.347408	-2.980700	3.467600	-10.334000	26.184438	0.000748	20.855998
1324.348475	-3.004300	3.467000	-10.415000	26.152081	0.000749	20.861416
1325.348590	-2.990900	3.466300	-10.366000	26.183972	0.000747	20.844625
1326.350904	-2.996000	3.464400	-10.378000	26.201627	0.000746	20.854779
1327.348416	-2.998300	3.464700	-10.387000	26.221873	0.000746	20.831503
1328.347642	-3.017600	3.464000	-10.451000	26.233773	0.000745	20.871908
1329.347547	-2.999600	3.465100	-10.392000	26.257959	0.000744	20.832679
1330.348481	-3.005600	3.464300	-10.412000	26.248951	0.000745	20.865824
1331.352390	-2.996700	3.463500	-10.378000	26.181330	0.000742	20.854297
1332.349983	-2.997000	3.463300	-10.378000	26.157810	0.000744	20.852475
1333.354405	-2.993500	3.462400	-10.363000	26.152890	0.000741	20.855591
1334.350347	-2.988900	3.462700	-10.349000	26.172788	0.000740	20.866101
1335.350566	-2.992600	3.461900	-10.359000	26.176587	0.000744	20.834833
1336.354151	-2.991700	3.462400	-10.357000	26.176440	0.000740	20.847961
1337.351084	-3.013700	3.459900	-10.427000	26.167125	0.000740	20.865153
1338.351372	-3.024500	3.458600	-10.460000	26.180122	0.000738	20.850239
1339.352266	-2.999700	3.460500	-10.379000	26.179694	0.000741	20.852653
1340.355627	-3.014200	3.457200	-10.419000	26.185062	0.000738	20.864685
1341.355152	-3.026300	3.458700	-10.466000	26.200180	0.000737	20.866600
1342.353736	-2.966800	3.460000	-10.264000	26.195767	0.000739	20.865011
1343.353435	-3.002200	3.456600	-10.376000	26.191472	0.000737	20.854057
1344.352192	-2.982400	3.458400	-10.312000	26.216897	0.000736	20.856846
1345.352942	-2.983500	3.457200	-10.313000	26.230978	0.000738	20.871944
1346.353066	-2.980100	3.458900	-10.306000	26.253755	0.000736	20.880134
1347.353187	-2.998100	3.456200	-10.359000	26.273523	0.000738	20.863490
1348.356059	-3.000100	3.455300	-10.365000	26.277125	0.000736	20.869481
1349.353310	-2.983400	3.455500	-10.308000	26.297561	0.000735	20.857776
1350.353452	-3.022300	3.455000	-10.441000	26.312138	0.000737	20.887596
1351.355062	-3.003700	3.454700	-10.375000	26.314300	0.000736	20.859426
1352.353337	-3.013600	3.454400	-10.409000	26.348147	0.000735	20.893439
1353.353570	-3.020900	3.453900	-10.433000	26.338460	0.000733	20.874222
1354.354242	-2.993000	3.454300	-10.337000	26.308418	0.000732	20.851618
1355.354673	-3.008600	3.453900	-10.390000	26.293001	0.000733	20.895391
1356.354197	-3.026100	3.453400	-10.449000	26.312542	0.000731	20.881365
1357.358802	-2.976800	3.453200	-10.278000	26.304098	0.000731	20.878095
1358.354755	-3.001800	3.452100	-10.361000	26.312523	0.000732	20.878501
1359.355961	-2.982100	3.452000	-10.293000	26.280409	0.000732	20.887005
1360.354788	-2.975300	3.453200	-10.273000	26.246138	0.000731	20.878169
1361.354978	-2.989300	3.452300	-10.318000	26.205982	0.000731	20.872904
1362.359233	-3.003600	3.451000	-10.364000	26.171867	0.000729	20.890779
1363.356882	-2.998600	3.450400	-10.346000	26.212098	0.000730	20.888531
1364.357450	-2.987800	3.451000	-10.310000	26.201864	0.000731	20.879197
1365.355443	-3.001000	3.450600	-10.354000	26.187886	0.000728	20.867522
1366.355797	-2.987300	3.451400	-10.309000	26.203972	0.000730	20.896487
1367.358353	-3.005900	3.449200	-10.367000	26.219892	0.000728	20.870287
1368.358144	-2.971200	3.449400	-10.248000	26.233128	0.000726	20.886906
1369.358656	-3.005800	3.447800	-10.362000	26.247706	0.000726	20.896339
1370.357892	-3.034500	3.446500	-10.457000	26.266230	0.000726	20.877498
1371.359003	-2.978600	3.448300	-10.270000	26.252124	0.000726	20.890822
1372.357764	-2.989500	3.447000	-10.303000	26.277431	0.000725	20.883064
1373.356330	-3.011200	3.447000	-10.379000	26.238521	0.000723	20.875730
1374.361368	-2.998600	3.446500	-10.334000	26.218133	0.000723	20.904079
1375.360181	-2.997500	3.446100	-10.329000	26.185245	0.000723	20.874351
1376.359845	-3.021500	3.445200	-10.409000	26.131053	0.000724	20.870632
1377.366202	-2.996300	3.446400	-10.324000	26.105670	0.000722	20.883058
1378.362758	-2.976300	3.445700	-10.255000	26.128749	0.000723	20.849826
1379.360507	-3.005100	3.445100	-10.352000	26.139847	0.000723	20.902700
1380.360234	-3.007900	3.444200	-10.359000	26.162492	0.000723	20.861920
1381.361445	-2.998000	3.443800	-10.324000	26.188401	0.000721	20.854290
1382.363263	-3.007900	3.442100	-10.352000	26.206841	0.000722	20.860017
1383.364648	-3.009500	3.442600	-10.360000	26.221768	0.000719	20.847992
1384.362165	-3.009400	3.442300	-10.358000	26.198923	0.000719	20.856329
1385.367959	-3.019200	3.440900	-10.387000	26.196564	0.000721	20.853958
1386.363165	-3.004300	3.440800	-10.335000	26.202073	0.000718	20.863761
1387.365287	-2.994100	3.440300	-10.299000	26.207730	0.000718	20.864229
1388.365435	-2.980600	3.440800	-10.255000	26.217920	0.000717	20.854081
1389.365104	-2.972400	3.439400	-10.223000	26.258124	0.000716	20.853706
1390.364127	-2.989500	3.438700	-10.279000	26.249754	0.000715	20.854777
1391.365174	-3.007500	3.438300	-10.340000	26.288768	0.000715	20.848940
1392.364824	-2.993500	3.438400	-10.292000	26.313645	0.000715	20.859716
1393.365669	-2.985500	3.439500	-10.267000	26.311985	0.000714	20.872745
1394.365899	-3.008800	3.437700	-10.342000	26.310514	0.000713	20.854673
1395.364911	-3.000800	3.436900	-10.313000	26.290723	0.000713	20.876507
1396.366044	-2.998000	3.438100	-10.307000	26.313100	0.000713	20.860116
1397.364551	-2.999600	3.436900	-10.308000	26.309993	0.000711	20.845615
1398.363914	-3.014600	3.435600	-10.356000	26.316353	0.000710	20.876187
1399.365904	-3.001300	3.435900	-10.310000	26.318118	0.000710	20.858995
1400.365467	-2.998900	3.436700	-10.306000	26.257628	0.000712	20.838509
1401.368786	-3.012600	3.434200	-10.344000	26.242106	0.000709	20.858472
1402.364704	-3.002700	3.436400	-10.317000	26.181538	0.000710	20.850713
1403.365167	-3.002400	3.434900	-10.311000	26.157503	0.000709	20.859278
1404.367131	-3.006300	3.434000	-10.323000	26.130208	0.000708	20.820947
1405.368870	-2.985000	3.434000	-10.250000	26.127125	0.000708	20.849617
1406.364728	-3.003900	3.432600	-10.309000	26.170740	0.000707	20.830380
1407.364528	-3.016700	3.433000	-10.354000	26.189909	0.000706	20.857702
1408.365127	-3.012300	3.432100	-10.338000	26.223937	0.000705	20.837369
1409.364430	-3.021400	3.431200	-10.366000	26.246462	0.000706	20.848625
1410.368537	-3.007100	3.432300	-10.320000	26.249226	0.000705	20.848083
1411.365425	-2.991100	3.432700	-10.266000	26.218832	0.000705	20.835084
1412.368278	-3.008600	3.431900	-10.323000	26.246921	0.000703	20.844819
1413.366976	-2.986300	3.431600	-10.246000	26.213672	0.000703	20.836063
1414.368697	-2.990200	3.431100	-10.259000	26.174391	0.000702	20.824092
1415.369236	-2.998600	3.430300	-10.285000	26.157870	0.000702	20.813655
1416.367855	-3.004300	3.428500	-10.299000	26.101746	0.000701	20.824591
1417.369396	-2.977800	3.430500	-10.215000	26.119457	0.000701	20.842386
1418.369133	-2.981100	3.431100	-10.227000	26.132425	0.000703	20.832183
1419.369689	-2.997400	3.429900	-10.280000	26.141219	0.000702	20.831062
1420.373872	-3.006700	3.427900	-10.305000	26.183074	0.000701	20.828549
1421.371073	-2.984300	3.427300	-10.227000	26.183368	0.000700	20.836431
1422.373426	-3.013900	3.426600	-10.327000	26.229162	0.000698	20.832663
1423.370991	-2.994200	3.428100	-10.264000	26.229719	0.000699	20.841283
1424.370340	-2.997100	3.428100	-10.273000	26.234781	0.000698	20.830249
1425.371432	-2.998200	3.425500	-10.269000	26.241662	0.000697	20.830052
1426.374851	-3.004200	3.426000	-10.292000	26.283281	0.000696	20.832995
1427.371922	-2.993300	3.426600	-10.254000	26.287882	0.000696	20.821024
1428.372776	-3.016500	3.424200	-10.329000	26.298636	0.000696	20.833253
1429.373401	-2.989800	3.425300	-10.239000	26.276712	0.000695	20.807902
1430.372066	-3.016300	3.424600	-10.328000	26.236116	0.000695	20.814995
1431.377521	-2.991900	3.424000	-10.244000	26.198668	0.000693	20.811030
1432.374365	-2.994300	3.423500	-10.250000	26.207383	0.000692	20.824053
1433.373142	-3.012300	3.422900	-10.310000	26.207536	0.000693	20.823259
1434.373771	-3.000500	3.422300	-10.267000	26.231655	0.000692	20.820469
1435.373241	-3.014200	3.422400	-10.314000	26.254878	0.000693	20.808246
1436.374676	-3.010400	3.421200	-10.297000	26.259002	0.000692	20.805752
1437.373343	-3.031400	3.419600	-10.365000	26.251330	0.000692	20.808474
1438.374440	-3.023700	3.420300	-10.341000	26.232788	0.000693	20.838203
1439.373840	-3.007300	3.420200	-10.284000	26.215556	0.000692	20.811878
1440.373835	-3.024400	3.419200	-10.340000	26.210868	0.000691	20.799107
1441.374320	-3.003000	3.419900	-10.269000	26.178285	0.000691	20.811884
1442.373867	-3.010500	3.420200	-10.296000	26.174388	0.000691	20.811761
1443.375823	-3.020900	3.417600	-10.322000	26.166746	0.000693	20.803134
1444.374567	-2.993200	3.419900	-10.236000	26.166574	0.000691	20.814341
1445.379226	-2.994300	3.418800	-10.235000	26.172089	0.000689	20.809926
1446.378026	-2.980800	3.418900	-10.189000	26.150702	0.000690	20.809772
1447.378199	-2.999000	3.416500	-10.245000	26.094793	0.000690	20.788207
1448.375749	-3.016400	3.418500	-10.310000	26.067747	0.000688	20.818879
1449.376597	-2.991800	3.417500	-10.223000	26.066086	0.000688	20.816262
1450.376765	-2.974600	3.416700	-10.162000	26.097079	0.000689	20.799039
1451.377350	-2.986300	3.416400	-10.201000	26.100529	0.000686	20.816256
1452.377894	-3.004100	3.416300	-10.262000	26.109422	0.000687	20.811441
1453.378017	-2.972400	3.416000	-10.153000	26.161010	0.000687	20.795947
1454.382475	-2.999100	3.415400	-10.243000	26.166519	0.000684	20.819975
1455.376776	-2.991500	3.414300	-10.213000	26.145653	0.000684	20.817500
1456.376865	-3.036600	3.413200	-10.362000	26.187925	0.000684	20.819200
1457.380820	-2.982400	3.415000	-10.183000	26.202773	0.000683	20.777696
1458.379347	-2.990200	3.413900	-10.207000	26.158001	0.000683	20.809994
1459.379295	-2.978000	3.414200	-10.167000	26.106756	0.000683	20.804495
1460.378475	-2.990600	3.411500	-10.201000	26.089528	0.000682	20.821324
1461.378857	-3.003600	3.412600	-10.248000	26.126324	0.000680	20.798553
1462.379337	-2.997300	3.410800	-10.221000	26.115820	0.000681	20.801749
1463.382460	-3.014800	3.409400	-10.277000	26.168370	0.000681	20.792912
1464.378862	-3.009000	3.410000	-10.260000	26.201302	0.000682	20.807987
1465.379337	-3.006700	3.409800	-10.251000	26.199685	0.000680	20.787869
1466.379863	-3.004000	3.409700	-10.241000	26.223081	0.000679	20.784827
1467.380062	-3.002300	3.410700	-10.239000	26.232144	0.000681	20.792986
1468.383528	-2.996200	3.409700	-10.215000	26.209177	0.000676	20.796933
1469.379240	-3.012000	3.408800	-10.267000	26.186227	0.000678	20.795683
1470.382988	-2.978200	3.409200	-10.152000	26.174253	0.000677	20.790289
1471.380634	-2.986200	3.408800	-10.179000	26.137821	0.000677	20.789242
1472.381001	-2.993800	3.407700	-10.201000	26.115992	0.000675	20.790067
1473.383374	-2.982300	3.409400	-10.167000	26.054154	0.000674	20.804747
1474.382355	-3.009400	3.405700	-10.248000	26.023601	0.000676	20.797284
1475.383740	-2.997500	3.406300	-10.209000	26.035326	0.000675	20.780615
1476.384790	-3.007600	3.406600	-10.245000	26.046781	0.000676	20.786434
1477.382585	-2.988400	3.407400	-10.181000	26.049538	0.000675	20.811016
1478.383162	-3.025500	3.405000	-10.300000	26.040400	0.000673	20.801360
1479.383379	-2.992900	3.406200	-10.193000	26.034835	0.000673	20.792924
1480.383556	-2.985300	3.405700	-10.166000	26.009798	0.000673	20.808547
1481.387443	-2.998300	3.404800	-10.208000	25.982530	0.000672	20.775934
1482.383970	-2.985900	3.404300	-10.164000	25.928634	0.000671	20.789118
1483.384131	-2.983700	3.403500	-10.154000	25.914371	0.000671	20.781901
1484.386636	-3.006000	3.404200	-10.232000	25.921432	0.000669	20.781883
1485.384114	-2.990700	3.403400	-10.178000	25.942468	0.000669	20.788318
1486.383983	-2.989900	3.402300	-10.172000	26.004913	0.000669	20.775663
1487.383893	-2.987300	3.402100	-10.162000	26.023006	0.000671	20.796686
1488.385435	-2.988300	3.402800	-10.168000	26.038457	0.000667	20.789450
1489.386597	-2.988600	3.401800	-10.165000	26.037433	0.000667	20.796009
1490.384650	-2.994000	3.401500	-10.183000	26.053209	0.000666	20.793841
1491.384937	-2.993800	3.402500	-10.185000	26.071460	0.000667	20.782782
1492.385828	-3.029800	3.400000	-10.301000	26.115966	0.000665	20.764911
1493.384508	-2.993900	3.399600	-10.176000	26.141577	0.000667	20.788748
1494.388633	-3.014200	3.398100	-10.242000	26.193825	0.000665	20.774395
1495.387162	-2.995000	3.399600	-10.179000	26.226855	0.000665	20.764437
1496.388516	-2.974700	3.398900	-10.110000	26.260177	0.000664	20.786544
1497.387619	-3.009800	3.397700	-10.224000	26.296630	0.000664	20.765804
1498.388401	-3.031900	3.395800	-10.294000	26.333076	0.000662	20.760706
1499.389309	-3.016700	3.397700	-10.249000	26.369507	0.000662	20.786889
1500.388428	-3.007500	3.398100	-10.219000	26.344827	0.000661	20.794328
1501.391920	-3.017100	3.396600	-10.247000	26.384917	0.000660	20.778195
1502.391719	-3.026000	3.396400	-10.277000	26.408536	0.000660	20.794821
1503.389224	-2.988100	3.396100	-10.146000	26.413002	0.000661	20.805474
1504.390337	-2.988900	3.396000	-10.149000	26.359809	0.000661	20.773349
1505.389773	-3.022100	3.393600	-10.255000	26.323015	0.000658	20.773354
1506.392696	-3.048800	3.392600	-10.340000	26.279461	0.000657	20.781267
1507.390690	-3.003500	3.393200	-10.190000	26.295503	0.000657	20.765620
1508.392172	-2.987800	3.393800	-10.139000	26.272782	0.000657	20.771710
1509.395744	-2.994200	3.393900	-10.160000	26.267617	0.000656	20.779796
1510.394899	-2.991600	3.393800	-10.151000	26.254406	0.000657	20.757510
1511.391892	-2.997500	3.393500	-10.171000	26.227107	0.000656	20.755681
1512.392746	-3.000000	3.391300	-10.173000	26.207644	0.000653	20.795868
1513.396450	-3.049200	3.391300	-10.339000	26.236672	0.000656	20.778570
1514.394711	-3.004500	3.392100	-10.189000	26.256661	0.000652	20.772105
1515.396976	-3.019300	3.390400	-10.235000	26.290975	0.000654	20.784778
1516.395791	-2.992700	3.391500	-10.148000	26.305092	0.000653	20.769093
1517.399060	-3.024200	3.390800	-10.254000	26.329050	0.000652	20.772782
1518.396153	-3.013600	3.389400	-10.214000	26.336329	0.000652	20.776304
1519.395234	-3.002300	3.391100	-10.180000	26.381351	0.000650	20.773188
1520.400322	-3.012900	3.388500	-10.208000	26.413798	0.000652	20.761229
1521.396236	-2.981000	3.389100	-10.102000	26.425617	0.000652	20.780220
1522.396989	-2.998300	3.389700	-10.161000	26.430010	0.000651	20.759031
1523.397295	-2.977100	3.388600	-10.088000	26.384800	0.000648	20.767172
1524.396106	-2.981000	3.388500	-10.099000	26.335440	0.000649	20.754073
1525.396418	-3.000500	3.387600	-10.163000	26.311079	0.000649	20.792179
1526.400269	-3.022100	3.387000	-10.234000	26.299933	0.000649	20.761537
1527.397489	-2.974500	3.387700	-10.076000	26.328541	0.000646	20.777012
1528.396147	-2.982800	3.386400	-10.099000	26.344680	0.000646	20.752454
1529.396279	-2.989800	3.387700	-10.127000	26.385602	0.000647	20.751382
1530.396962	-2.988900	3.386900	-10.122000	26.401771	0.000644	20.767633
1531.400342	-3.001700	3.385000	-10.159000	26.444854	0.000644	20.773477
1532.396607	-2.990400	3.384900	-10.122000	26.448009	0.000644	20.763846
1533.397813	-3.022100	3.383800	-10.224000	26.409399	0.000644	20.772929
1534.398420	-2.985700	3.386500	-10.108000	26.363214	0.000643	20.750692
1535.398490	-3.003200	3.384000	-10.162000	26.339183	0.000644	20.772534
1536.400937	-3.006900	3.383700	-10.173000	26.301789	0.000642	20.770989
1537.400719	-3.014900	3.384400	-10.202000	26.300226	0.000642	20.774160
1538.396851	-3.011300	3.381600	-10.183000	26.250164	0.000642	20.750876
1539.397506	-2.983100	3.383800	-10.093000	26.263577	0.000643	20.767675
1540.398613	-2.988800	3.381800	-10.106000	26.254760	0.000642	20.767349
1541.397813	-3.008300	3.381700	-10.173000	26.250544	0.000641	20.770699
1542.401442	-2.976500	3.381700	-10.064000	26.298620	0.000639	20.751683
1543.399010	-2.989100	3.381600	-10.107000	26.305171	0.000640	20.762059
1544.402143	-3.009400	3.381600	-10.174000	26.299447	0.000639	20.764842
1545.400299	-2.980600	3.380100	-10.074000	26.309349	0.000636	20.765785
1546.400031	-2.994200	3.378800	-10.115000	26.335182	0.000639	20.750020
1547.406498	-3.021000	3.378500	-10.205000	26.374934	0.000638	20.742082
1548.399372	-2.986200	3.379300	-10.090000	26.413448	0.000638	20.777946
1549.409177	-3.001100	3.377000	-10.133000	26.440987	0.000638	20.718379
1550.401463	-3.021700	3.377100	-10.203000	26.465640	0.000637	20.762127
1551.411831	-2.979700	3.380200	-10.070000	26.455360	0.000636	20.751793
1552.402730	-3.015300	3.378100	-10.185000	26.460923	0.000634	20.768765
1553.414957	-2.991400	3.377000	-10.101000	26.447261	0.000636	20.741756
1554.402669	-2.999100	3.376500	-10.126000	26.430204	0.000635	20.736940
1555.402126	-3.025700	3.375100	-10.212000	26.442347	0.000634	20.761948
1556.405556	-2.985900	3.375400	-10.078000	26.471895	0.000633	20.739489
1557.403558	-2.986400	3.375000	-10.078000	26.445478	0.000633	20.727635
1558.406559	-2.984600	3.376100	-10.076000	26.462932	0.000632	20.739489
1559.406894	-2.979200	3.375400	-10.054000	26.460770	0.000633	20.742057
1560.406590	-2.993000	3.375600	-10.102000	26.485992	0.000633	20.755556
1561.405836	-2.996000	3.374500	-10.109000	26.508286	0.000631	20.748567
1562.405155	-3.007300	3.374700	-10.147000	26.470725	0.000630	20.717924
1563.406948	-3.001900	3.373500	-10.126000	26.450312	0.000631	20.753832
1564.405092	-3.025100	3.372000	-10.199000	26.478322	0.000630	20.741208
1565.408188	-2.999700	3.372500	-10.115000	26.483958	0.000631	20.736441
1566.406750	-3.008100	3.372300	-10.144000	26.514589	0.000630	20.741152
1567.406415	-3.017400	3.371700	-10.173000	26.482439	0.000628	20.751510
1568.408875	-3.016600	3.371900	-10.171000	26.456916	0.000628	20.737710
1569.406712	-3.017700	3.371800	-10.173000	26.468453	0.000628	20.718959
1570.408451	-2.985200	3.371200	-10.062000	26.497351	0.000626	20.755594
1571.409280	-3.021600	3.370100	-10.183000	26.491200	0.000626	20.720960
1572.408661	-3.017000	3.370300	-10.167000	26.529403	0.000626	20.729489
1573.410432	-2.989100	3.369600	-10.071000	26.542206	0.000624	20.720548
1574.413999	-3.007300	3.369600	-10.133000	26.552088	0.000625	20.739490
1575.411667	-3.009400	3.368400	-10.137000	26.557227	0.000626	20.745131
1576.412699	-3.010400	3.368600	-10.139000	26.529372	0.000624	20.757909
1577.411505	-2.984300	3.367900	-10.050000	26.531817	0.000622	20.742348
1578.413500	-3.011200	3.369300	-10.145000	26.531223	0.000623	20.735112
1579.415469	-3.007100	3.368100	-10.127000	26.496782	0.000623	20.737951
1580.412894	-2.997100	3.367300	-10.092000	26.479499	0.000624	20.736701
1581.413146	-3.001600	3.368100	-10.108000	26.446129	0.000622	20.749153
1582.412731	-3.007300	3.365100	-10.119000	26.403616	0.000621	20.728708
1583.415223	-3.004100	3.365500	-10.109000	26.366940	0.000621	20.735470
1584.415453	-2.983900	3.366400	-10.044000	26.373441	0.000617	20.729675
1585.416299	-3.003800	3.364700	-10.107000	26.364894	0.000619	20.737207
1586.415974	-2.979800	3.365900	-10.029000	26.353909	0.000620	20.745133
1587.415831	-2.990200	3.364100	-10.059000	26.356715	0.000619	20.745583
1588.415701	-2.999700	3.365600	-10.095000	26.354645	0.000617	20.725957
1589.417072	-3.000500	3.363600	-10.091000	26.338996	0.000618	20.733938
1590.418671	-2.983100	3.364900	-10.037000	26.399452	0.000617	20.724997
1591.419671	-2.993500	3.363600	-10.068000	26.412489	0.000614	20.728618
1592.425025	-3.015200	3.362600	-10.138000	26.483245	0.000616	20.739044
1593.421321	-2.980800	3.363500	-10.025000	26.473333	0.000614	20.733348
1594.421585	-3.010300	3.363500	-10.124000	26.468438	0.000615	20.754507
1595.426443	-2.971800	3.362700	-9.991500	26.420712	0.000615	20.738780
1596.421731	-2.986700	3.361700	-10.039000	26.396898	0.000613	20.730491
1597.421041	-2.986600	3.363100	-10.043000	26.446083	0.000611	20.765703
1598.422910	-2.999100	3.361500	-10.081000	26.431655	0.000613	20.743140
1599.422742	-2.997500	3.360500	-10.072000	26.447664	0.000612	20.735523
1600.421859	-2.965100	3.361000	-9.964400	26.458318	0.000611	20.739593
1601.425633	-3.002200	3.359900	-10.087000	26.484031	0.000611	20.755481
1602.424017	-2.986100	3.360800	-10.034000	26.488154	0.000610	20.742556
1603.423458	-3.003000	3.359200	-10.086000	26.491150	0.000610	20.752680
1604.425026	-3.000600	3.359600	-10.079000	26.452989	0.000608	20.730443
1605.424437	-3.005700	3.357100	-10.090000	26.423342	0.000610	20.730991
1606.427470	-2.999300	3.356900	-10.067000	26.407302	0.000609	20.743794
1607.424425	-2.995900	3.358400	-10.061000	26.382550	0.000609	20.746417
1608.426233	-3.011800	3.357200	-10.109000	26.382176	0.000608	20.732290
1609.425534	-3.003700	3.356700	-10.081000	26.377256	0.000606	20.725449
1610.425899	-2.991800	3.357800	-10.045000	26.418802	0.000607	20.752507
1611.429227	-2.998300	3.357400	-10.066000	26.446678	0.000606	20.743542
1612.427351	-2.982800	3.356500	-10.011000	26.478009	0.000605	20.736626
1613.426331	-2.987300	3.355300	-10.022000	26.487027	0.000603	20.746639
1614.426653	-2.977400	3.355600	-9.989900	26.507954	0.000603	20.752976
1615.426090	-2.988500	3.356600	-10.030000	26.517591	0.000604	20.746540
1616.425467	-3.008500	3.353200	-10.087000	26.533402	0.000601	20.738726
1617.429942	-3.032500	3.353200	-10.167000	26.500854	0.000603	20.746787
1618.426794	-2.985800	3.354000	-10.012000	26.497080	0.000603	20.742519
1619.425756	-3.001100	3.353400	-10.062000	26.515570	0.000601	20.737396
1620.426599	-3.001500	3.352600	-10.062000	26.498618	0.000602	20.737901
1621.427346	-3.012300	3.351900	-10.096000	26.525181	0.000601	20.740419
1622.428706	-3.025600	3.351300	-10.139000	26.559444	0.000599	20.744515
1623.428423	-3.008300	3.351900	-10.083000	26.560859	0.000600	20.751627
1624.430063	-3.024800	3.350700	-10.135000	26.540570	0.000599	20.753044
1625.426928	-2.996700	3.351200	-10.041000	26.525476	0.000598	20.740715
1626.428629	-2.995100	3.351900	-10.039000	26.495586	0.000598	20.737698
1627.431820	-3.003100	3.350800	-10.062000	26.456279	0.000598	20.735173
1628.431568	-3.006800	3.350300	-10.073000	26.458515	0.000598	20.736472
1629.428423	-3.012300	3.348400	-10.086000	26.451016	0.000597	20.742212
1630.428798	-2.981300	3.349500	-9.984500	26.407866	0.000596	20.734877
1631.428395	-3.009400	3.348900	-10.077000	26.395870	0.000593	20.739416
1632.428459	-2.996100	3.347900	-10.030000	26.394706	0.000594	20.732556
1633.435315	-3.018300	3.347300	-10.102000	26.427533	0.000595	20.736626
1634.430415	-2.988000	3.348900	-10.006000	26.491267	0.000594	20.757539
1635.430102	-2.996300	3.348300	-10.032000	26.498092	0.000593	20.749226
1636.429121	-3.006200	3.347600	-10.063000	26.467159	0.000591	20.743265
1637.429202	-2.988000	3.347900	-10.002000	26.507758	0.000592	20.759417
1638.431931	-2.980800	3.347800	-9.977600	26.546384	0.000589	20.744662
1639.432955	-2.992000	3.345700	-10.009000	26.558850	0.000592	20.748659
1640.428336	-3.020400	3.344100	-10.099000	26.575836	0.000591	20.762890
1641.430399	-3.010700	3.345400	-10.071000	26.580008	0.000591	20.755703
1642.432644	-2.994600	3.344800	-10.015000	26.581448	0.000588	20.741029
1643.430432	-3.000000	3.343900	-10.030000	26.571995	0.000589	20.762822
1644.432433	-3.001300	3.344000	-10.035000	26.534805	0.000588	20.747722
1645.431910	-2.992500	3.343200	-10.003000	26.495150	0.000588	20.762865
1646.430584	-3.019700	3.344000	-10.097000	26.443137	0.000586	20.740930
1647.431292	-3.009600	3.344600	-10.065000	26.413196	0.000587	20.758253
1648.436374	-3.015400	3.343000	-10.079000	26.410867	0.000586	20.772034
1649.434333	-3.027100	3.341400	-10.113000	26.414292	0.000586	20.761251
1650.431340	-2.973300	3.343100	-9.938100	26.423905	0.000585	20.754791
1651.433390	-3.009600	3.341700	-10.057000	26.512297	0.000585	20.758763
1652.430897	-3.018900	3.341700	-10.088000	26.542339	0.000584	20.778530
1653.429916	-2.990200	3.341600	-9.990600	26.561182	0.000582	20.763332
1654.434137	-2.989100	3.341800	-9.988000	26.584271	0.000584	20.759040
1655.432338	-3.007300	3.339800	-10.043000	26.570298	0.000584	20.748313
1656.431366	-2.998000	3.338800	-10.009000	26.559945	0.000582	20.747863
1657.431735	-3.017100	3.339900	-10.075000	26.526528	0.000581	20.752679
1658.432458	-3.022600	3.338500	-10.090000	26.536335	0.000580	20.748787
1659.431761	-3.009200	3.338200	-10.044000	26.589661	0.000582	20.739802
1660.434001	-3.018900	3.337300	-10.074000	26.609177	0.000582	20.745671
1661.431842	-2.984700	3.337900	-9.962700	26.638843	0.000580	20.766959
1662.439033	-3.004700	3.337200	-10.026000	26.650837	0.000581	20.756256
1663.433758	-3.008000	3.336800	-10.035000	26.690498	0.000581	20.774792
1664.434648	-2.998800	3.337800	-10.008000	26.693236	0.000580	20.762845
1665.437926	-3.018900	3.336800	-10.073000	26.686052	0.000578	20.775063
1666.434593	-3.006900	3.336800	-10.032000	26.670738	0.000579	20.769151
1667.434600	-3.027800	3.335500	-10.098000	26.662249	0.000578	20.769151
1668.433787	-2.993700	3.335500	-9.983800	26.656981	0.000578	20.752950
1669.434353	-2.996500	3.335200	-9.993000	26.667406	0.000578	20.762008
1670.434135	-2.982300	3.335800	-9.946500	26.657122	0.000577	20.760204
1671.435222	-3.021700	3.334100	-10.073000	26.680907	0.000577	20.767994
1672.433972	-2.991900	3.333400	-9.971900	26.688453	0.000577	20.771313
1673.440622	-3.009400	3.332800	-10.028000	26.724095	0.000575	20.774903
1674.433368	-3.015100	3.333000	-10.049000	26.749513	0.000574	20.769164
1675.435255	-2.987800	3.333700	-9.959000	26.762841	0.000573	20.774029
1676.436409	-2.993500	3.332700	-9.974700	26.746408	0.000573	20.758456
1677.434721	-2.993300	3.331400	-9.970800	26.719697	0.000572	20.782336
1678.435074	-2.993300	3.331800	-9.971700	26.640829	0.000571	20.766585
1679.436402	-2.993300	3.331100	-9.970000	26.545274	0.000574	20.769153
1680.435613	-2.989300	3.331700	-9.958900	26.522829	0.000573	20.774091
1681.437527	-2.998500	3.330500	-9.985600	26.492271	0.000570	20.758548
1682.435677	-3.008800	3.328900	-10.014000	26.482781	0.000571	20.749958
1683.437706	-2.991500	3.331200	-9.964600	26.499935	0.000571	20.761985
1684.436110	-2.994800	3.329100	-9.968800	26.532257	0.000569	20.762706
1685.436185	-3.003400	3.327800	-9.993500	26.518498	0.000569	20.757884
1686.444889	-2.982500	3.328700	-9.925900	26.474358	0.000567	20.764725
1687.436895	-3.012200	3.328400	-10.025000	26.464305	0.000567	20.767897
1688.439527	-3.009800	3.328000	-10.015000	26.478298	0.000567	20.789074
1689.436499	-3.013300	3.326600	-10.023000	26.517107	0.000565	20.769289
1690.437418	-2.983300	3.327700	-9.926300	26.548578	0.000565	20.778637
1691.436702	-3.004600	3.326900	-9.993800	26.588224	0.000563	20.784352
1692.437803	-3.024700	3.326600	-10.061000	26.624960	0.000566	20.784771
1693.436079	-3.011600	3.327200	-10.019000	26.646332	0.000564	20.788712
1694.439587	-3.019600	3.324300	-10.036000	26.675397	0.000564	20.796120
1695.437407	-3.006800	3.325200	-9.997500	26.673884	0.000563	20.771365
1696.438078	-2.988900	3.325600	-9.938100	26.676291	0.000564	20.786113
1697.448972	-2.997100	3.325900	-9.967500	26.720796	0.000561	20.790079
1698.440077	-2.995300	3.324100	-9.955400	26.700137	0.000562	20.806293
1699.442443	-2.996500	3.323800	-9.958900	26.688891	0.000561	20.781237
1700.439668	-3.008800	3.322400	-9.995300	26.678736	0.000560	20.785252
1701.440310	-3.016700	3.323700	-10.025000	26.696579	0.000561	20.793233
1702.440217	-3.012300	3.321300	-10.004000	26.743809	0.000559	20.797568
1703.442493	-2.994500	3.323100	-9.948600	26.778310	0.000559	20.791478
1704.439914	-2.999800	3.322200	-9.965700	26.766446	0.000557	20.813690
1705.439487	-2.996400	3.322200	-9.953400	26.768804	0.000557	20.803732
1706.439693	-2.994700	3.320800	-9.943500	26.769889	0.000557	20.785857
1707.439576	-3.001900	3.322400	-9.973300	26.786842	0.000558	20.785358
1708.443098	-3.002600	3.322000	-9.973900	26.797137	0.000556	20.794761
1709.440260	-2.996400	3.320500	-9.949200	26.785096	0.000557	20.780758
1710.441955	-3.008700	3.321200	-9.991600	26.811922	0.000555	20.793980
1711.440909	-3.041700	3.318000	-10.091000	26.794100	0.000555	20.783647
1712.440013	-3.002400	3.319400	-9.963500	26.802185	0.000553	20.808845
1713.442969	-2.973600	3.321000	-9.874200	26.802057	0.000552	20.814406
1714.440143	-3.015600	3.319700	-10.009000	26.793641	0.000554	20.804997
1715.438898	-2.985600	3.319800	-9.910700	26.812548	0.000552	20.803144
1716.440218	-3.007600	3.318400	-9.979000	26.797378	0.000551	20.810650
1717.440775	-3.006700	3.317900	-9.975400	26.783849	0.000550	20.801315
1718.442661	-2.996100	3.317900	-9.938900	26.758781	0.000549	20.800293
1719.443502	-3.010600	3.318200	-9.988700	26.727196	0.000550	20.802677
1720.441724	-3.017800	3.316100	-10.006000	26.718657	0.000551	20.796464
1721.441799	-3.009900	3.317000	-9.982300	26.693631	0.000549	20.809710
1722.442061	-3.001000	3.315400	-9.948800	26.679408	0.000548	20.816274
1723.442290	-3.006200	3.315700	-9.966500	26.739127	0.000548	20.812302
1724.446778	-3.001200	3.314700	-9.946300	26.768612	0.000547	20.824402
1725.441397	-2.986000	3.316000	-9.899500	26.792383	0.000548	20.829335
1726.445252	-3.008200	3.314900	-9.971100	26.816826	0.000547	20.799858
1727.443162	-2.998900	3.315300	-9.941600	26.813831	0.000547	20.816287
1728.443801	-3.007400	3.314500	-9.967600	26.855918	0.000544	20.821146
1729.447643	-2.999400	3.313900	-9.938900	26.851349	0.000543	20.812285
1730.447198	-3.012400	3.313600	-9.981200	26.887261	0.000544	20.826109
1731.445007	-3.016500	3.313000	-9.992300	26.910189	0.000545	20.839207
1732.445363	-3.009100	3.313300	-9.968900	26.920857	0.000540	20.811528
1733.446059	-3.011900	3.311900	-9.973200	26.892938	0.000543	20.835137
1734.447045	-3.017300	3.312600	-9.992800	26.875485	0.000540	20.824700
1735.447637	-2.993200	3.312200	-9.911700	26.838826	0.000538	20.828142
1736.446539	-2.995700	3.311400	-9.919400	26.837038	0.000540	20.813068
1737.454181	-2.989400	3.311300	-9.898200	26.837828	0.000538	20.828561
1738.446374	-3.002400	3.309600	-9.935500	26.812136	0.000540	20.815058
1739.446155	-2.988200	3.310500	-9.890400	26.837822	0.000538	20.836616
1740.450222	-2.992100	3.308800	-9.897900	26.852863	0.000537	20.836092
1741.448308	-3.001700	3.308600	-9.930400	26.853409	0.000536	20.823365
1742.448754	-3.000500	3.308700	-9.926600	26.862142	0.000538	20.823611
1743.448562	-3.019100	3.307100	-9.982800	26.842606	0.000536	20.817244
1744.448561	-3.007200	3.306700	-9.943300	26.838931	0.000535	20.832041
1745.452142	-2.984400	3.310600	-9.878500	26.824656	0.000533	20.843292
1746.449365	-2.976300	3.308700	-9.846800	26.854223	0.000533	20.824184
1747.450192	-3.014300	3.306200	-9.964200	26.860629	0.000531	20.832995
1748.449610	-2.997900	3.307100	-9.913700	26.870679	0.000532	20.843100
1749.450079	-2.989600	3.306700	-9.884900	26.847965	0.000532	20.828322
1750.453810	-2.996100	3.305600	-9.902100	26.819676	0.000532	20.824535
1751.455237	-3.005400	3.305300	-9.932300	26.750070	0.000531	20.837054
1752.451936	-2.997900	3.305800	-9.909400	26.754915	0.000531	20.830071
1753.452230	-3.004000	3.303600	-9.922700	26.767128	0.000530	20.838556
1754.453176	-3.003400	3.304300	-9.922600	26.767648	0.000529	20.833390
1755.452632	-2.988400	3.303900	-9.872600	26.724505	0.000528	20.845016
1756.455940	-2.989800	3.304500	-9.878800	26.714901	0.000527	20.837731
1757.452340	-2.986800	3.302900	-9.864000	26.760800	0.000528	20.837411
1758.455132	-3.019200	3.302000	-9.968100	26.765271	0.000527	20.824836
1759.454013	-2.966500	3.302900	-9.796200	26.762393	0.000527	20.836166
1760.453973	-3.014600	3.300500	-9.947900	26.785924	0.000525	20.840858
1761.454904	-3.020800	3.300800	-9.969900	26.809454	0.000523	20.838438
1762.453707	-3.020100	3.300400	-9.965700	26.825518	0.000521	20.842262
1763.453115	-2.986600	3.302400	-9.861700	26.816503	0.000524	20.856905
1764.453034	-3.005600	3.300200	-9.917900	26.870960	0.000523	20.857133
1765.454976	-3.004600	3.298900	-9.910100	26.917025	0.000522	20.854614
1766.455110	-2.967300	3.301800	-9.796400	26.895958	0.000521	20.837699
1767.457051	-2.995600	3.298600	-9.879800	26.903576	0.000522	20.858161
1768.455101	-3.008400	3.297900	-9.920400	26.917870	0.000520	20.844559
1769.455961	-2.988800	3.299300	-9.859600	26.924820	0.000521	20.870512
1770.455478	-3.007600	3.297400	-9.916400	26.925597	0.000520	20.834786
1771.456359	-3.023100	3.298600	-9.970100	26.899480	0.000519	20.845981
1772.458327	-3.009900	3.298100	-9.925600	26.925744	0.000517	20.833511
1773.457543	-3.015600	3.296000	-9.937700	26.945971	0.000519	20.843419
1774.457838	-3.018400	3.295300	-9.945100	26.965298	0.000517	20.860482
1775.457293	-2.990900	3.297200	-9.860000	27.003441	0.000516	20.851898
1776.456026	-2.993200	3.294800	-9.860300	27.001904	0.000516	20.852249
1777.457944	-2.979400	3.296400	-9.819900	27.005302	0.000516	20.850925
1778.457917	-2.998900	3.294600	-9.879000	27.039648	0.000516	20.849429
1779.458050	-2.997300	3.295300	-9.876900	27.062028	0.000517	20.859133
1780.458155	-3.001600	3.295000	-9.887800	27.022246	0.000515	20.864171
1781.458135	-3.027000	3.292600	-9.966100	27.028700	0.000514	20.851695
1782.458261	-2.982400	3.295300	-9.826800	27.005645	0.000514	20.867865
1783.459853	-3.010600	3.292900	-9.913300	27.018547	0.000511	20.857607
1784.459286	-2.995200	3.294500	-9.866800	27.014004	0.000513	20.869632
1785.465522	-3.020400	3.291900	-9.941500	27.023783	0.000511	20.872354
1786.460746	-2.999900	3.291100	-9.871500	27.009020	0.000508	20.851819
1787.461936	-3.008800	3.290600	-9.899900	26.996461	0.000511	20.880439
1788.464493	-3.007800	3.291400	-9.898900	26.992174	0.000509	20.840094
1789.461924	-3.008300	3.291700	-9.900800	26.991451	0.000512	20.847902
1790.460917	-3.001300	3.290100	-9.873400	27.002173	0.000509	20.858684
1791.462470	-3.004700	3.291500	-9.889400	26.996123	0.000507	20.878677
1792.463643	-3.029900	3.288800	-9.963700	26.964600	0.000508	20.886805
1793.462414	-2.997900	3.291500	-9.867000	26.978874	0.000505	20.850901
1794.466166	-2.997500	3.291200	-9.864400	26.983888	0.000505	20.873960
1795.463694	-3.030000	3.289800	-9.966100	26.953246	0.000504	20.851208
1796.462909	-3.003500	3.289500	-9.878200	27.001070	0.000504	20.860419
1797.461858	-2.983200	3.290400	-9.815300	27.024522	0.000504	20.873572
1798.464066	-3.009600	3.287000	-9.891600	27.049982	0.000503	20.869779
1799.465852	-2.993900	3.287500	-9.841000	27.069362	0.000502	20.875043
1800.464354	-3.003300	3.286900	-9.870000	27.054348	0.000503	20.874169
1801.465182	-2.992100	3.287300	-9.834400	27.043761	0.000502	20.870634
1802.464046	-3.010700	3.286300	-9.891600	27.012098	0.000501	20.862974
1803.469129	-3.002300	3.285100	-9.861700	27.013316	0.000501	20.875578
1804.466471	-3.026700	3.285700	-9.943400	26.986618	0.000499	20.877179
1805.467150	-3.025400	3.285700	-9.938200	27.012703	0.000499	20.866428
1806.466157	-3.030100	3.283500	-9.947800	27.051414	0.000498	20.892554
1807.465398	-2.992600	3.285300	-9.830600	27.069385	0.000499	20.879333
1808.465938	-3.015100	3.284500	-9.901400	27.086505	0.000498	20.873792
1809.467564	-3.008800	3.283300	-9.877500	27.077155	0.000496	20.866760
1810.468531	-3.009700	3.283900	-9.882800	27.117381	0.000496	20.873551
1811.468659	-2.996800	3.281900	-9.834500	27.120333	0.000497	20.872726
1812.472085	-2.987100	3.283500	-9.807400	27.112269	0.000495	20.871254
1813.469458	-2.999000	3.283100	-9.844800	27.063095	0.000494	20.866371
1814.469723	-3.002300	3.282300	-9.853600	27.021550	0.000494	20.885281
1815.475419	-3.009100	3.282000	-9.874500	26.993708	0.000494	20.871033
1816.471942	-2.980400	3.281400	-9.778700	26.953635	0.000494	20.893796
1817.473820	-2.972900	3.282500	-9.757500	26.937603	0.000492	20.892848
1818.472959	-2.999800	3.280400	-9.839100	26.950958	0.000492	20.878778
1819.472942	-2.990800	3.279700	-9.807900	26.967982	0.000490	20.893525
1820.475771	-3.012900	3.279800	-9.879600	26.990222	0.000490	20.881277
1821.475782	-2.982400	3.281500	-9.786500	27.049826	0.000490	20.882897
1822.473845	-3.024700	3.278300	-9.914500	27.060174	0.000489	20.887139
1823.473289	-3.007600	3.278100	-9.859000	27.078714	0.000489	20.892508
1824.473209	-3.004400	3.278900	-9.850700	27.117074	0.000489	20.884147
1825.473567	-3.005300	3.277500	-9.849000	27.119633	0.000488	20.877238
1826.477025	-2.968600	3.279200	-9.734300	27.128890	0.000489	20.888918
1827.473274	-3.017300	3.275700	-9.882600	27.121464	0.000487	20.892829
1828.474296	-3.011400	3.277200	-9.867900	27.079908	0.000487	20.873322
1829.474204	-2.984900	3.278600	-9.785300	27.123882	0.000486	20.877244
1830.475042	-2.993200	3.275600	-9.803600	27.148018	0.000486	20.870225
1831.481870	-3.012400	3.275500	-9.866500	27.155634	0.000484	20.892108
1832.475652	-2.985400	3.275500	-9.778100	27.157740	0.000485	20.881425
1833.478077	-2.979500	3.276600	-9.762500	27.141289	0.000484	20.845915
1834.474574	-3.011400	3.275100	-9.861300	27.172324	0.000485	20.875231
1835.474275	-2.989200	3.275100	-9.788400	27.166398	0.000481	20.868323
1836.479467	-3.032200	3.273000	-9.923300	27.158610	0.000483	20.873766
1837.477871	-3.012900	3.274300	-9.863800	27.161212	0.000482	20.878753
1838.479939	-2.992200	3.273400	-9.793600	27.115752	0.000482	20.861956
1839.478008	-2.987200	3.273000	-9.775500	27.090789	0.000479	20.847757
1840.478368	-3.000800	3.273900	-9.823000	27.061613	0.000482	20.861087
1841.477675	-3.012700	3.271400	-9.854800	27.065845	0.000479	20.873877
1842.481930	-3.002700	3.272000	-9.822700	27.073762	0.000479	20.868563
1843.479340	-3.012700	3.271300	-9.853300	27.077553	0.000477	20.853410
1844.478984	-3.002100	3.272300	-9.822700	27.088751	0.000475	20.845232
1845.479069	-3.016500	3.269700	-9.862500	27.098431	0.000478	20.852122
1846.479538	-3.020200	3.269900	-9.875000	27.092615	0.000475	20.836317
1847.481642	-2.988500	3.271500	-9.775100	27.075918	0.000473	20.871679
1848.479951	-2.998300	3.270200	-9.804500	27.053807	0.000472	20.850393
1849.483062	-2.993000	3.269200	-9.783900	27.064082	0.000474	20.842708
1850.479023	-3.023100	3.267800	-9.877400	27.058841	0.000474	20.871575
1851.480139	-2.998200	3.268600	-9.798800	27.045572	0.000472	20.842585
1852.481687	-2.978700	3.270500	-9.740300	27.039510	0.000472	20.842179
1853.480451	-2.991700	3.268700	-9.777800	27.020479	0.000472	20.853385
1854.480029	-2.999800	3.266900	-9.798900	27.006389	0.000471	20.855337
1855.480677	-3.005500	3.266700	-9.816800	27.005416	0.000470	20.820695
1856.480623	-2.998400	3.267400	-9.795300	27.000033	0.000469	20.828084
1857.479403	-2.987200	3.266300	-9.756100	26.975869	0.000469	20.836975
1858.481786	-2.992200	3.266100	-9.771600	26.954027	0.000468	20.848675
1859.480259	-2.968300	3.266300	-9.694800	26.942912	0.000469	20.847929
1860.480166	-2.994300	3.263600	-9.770900	26.951228	0.000467	20.825472
1861.479974	-2.986500	3.264400	-9.748500	26.959366	0.000464	20.854044
1862.481955	-2.999900	3.264800	-9.793100	26.985373	0.000465	20.824721
1863.482488	-2.980600	3.263800	-9.727200	26.952067	0.000464	20.839592
1864.480729	-3.004000	3.263300	-9.801200	26.979489	0.000464	20.825442
1865.482899	-2.987700	3.263500	-9.749400	27.007038	0.000463	20.837024
1866.484409	-2.962700	3.264700	-9.671900	27.028726	0.000461	20.832757
1867.481909	-3.001500	3.262400	-9.789700	27.043244	0.000461	20.851624
1868.482735	-3.000200	3.260600	-9.781500	27.046275	0.000462	20.830965
1869.482798	-2.980000	3.263500	-9.723500	27.039418	0.000461	20.838293
1870.482543	-2.992600	3.260700	-9.757200	27.053023	0.000461	20.841070
1871.483283	-3.011500	3.260500	-9.818000	27.027342	0.000459	20.833736
1872.483155	-2.991800	3.261100	-9.755400	27.038677	0.000460	20.837548
1873.483262	-2.999700	3.258400	-9.773600	27.100390	0.000455	20.828964
1874.485085	-3.017000	3.259200	-9.832000	27.116940	0.000458	20.817160
1875.482250	-3.000300	3.259100	-9.776400	27.170011	0.000459	20.816008
1876.485398	-2.993400	3.258700	-9.754100	27.180810	0.000458	20.837775
1877.483567	-2.993200	3.257600	-9.748900	27.183186	0.000456	20.822622
1878.483325	-2.995100	3.257300	-9.754000	27.208495	0.000456	20.826741
1879.486331	-2.993400	3.257300	-9.749400	27.242932	0.000457	20.834352
1880.483067	-3.000400	3.255800	-9.767300	27.278733	0.000453	20.817732
1881.482824	-3.009500	3.255700	-9.796500	27.252513	0.000454	20.834506
1882.483824	-2.984200	3.257900	-9.721100	27.219534	0.000453	20.809395
1883.483792	-2.979700	3.256700	-9.703200	27.163435	0.000452	20.830731
1884.483707	-2.985400	3.255700	-9.719000	27.143335	0.000453	20.816680
1885.485947	-2.984400	3.254500	-9.709900	27.104873	0.000451	20.812135
1886.484652	-3.003600	3.254500	-9.774400	27.072244	0.000450	20.819623
1887.485389	-2.987800	3.256000	-9.726700	27.074877	0.000450	20.818478
1888.484755	-3.025300	3.254200	-9.843000	27.089020	0.000448	20.824167
1889.487642	-3.000000	3.255500	-9.765600	27.118722	0.000449	20.799512
1890.487623	-2.972500	3.254000	-9.671200	27.068870	0.000447	20.824291
1891.485928	-2.996400	3.252300	-9.744100	27.040061	0.000446	20.810491
1892.486125	-3.005000	3.253100	-9.774000	27.014252	0.000447	20.822942
1893.484888	-2.999000	3.252800	-9.753900	27.006095	0.000445	20.823274
1894.484496	-2.996400	3.252200	-9.743700	27.026467	0.000444	20.802510
1895.486421	-3.020000	3.251100	-9.817300	27.105503	0.000443	20.802338
1896.486080	-3.012400	3.250600	-9.791100	27.170757	0.000441	20.814389
1897.485034	-3.004700	3.250100	-9.764800	27.179897	0.000443	20.790865
1898.485718	-2.997000	3.251800	-9.743100	27.189369	0.000438	20.813668
1899.486659	-3.036800	3.250100	-9.867500	27.154642	0.000441	20.798180
1900.487341	-3.002200	3.249900	-9.755500	27.185236	0.000439	20.805718
1901.487099	-3.009900	3.247800	-9.775000	27.215981	0.000442	20.795865
1902.488414	-3.012600	3.248700	-9.786300	27.258554	0.000439	20.795539
1903.491007	-2.982200	3.247700	-9.684000	27.283371	0.000438	20.799639
1904.487294	-2.980200	3.250300	-9.684600	27.271121	0.000436	20.811973
1905.487746	-2.998100	3.247300	-9.735200	27.293625	0.000435	20.803789
1906.495709	-3.015900	3.245800	-9.788400	27.291219	0.000435	20.814171
1907.489173	-3.002000	3.246400	-9.744800	27.276312	0.000434	20.795857
1908.488916	-3.013300	3.244800	-9.776700	27.248127	0.000434	20.808284
1909.489330	-3.000700	3.246200	-9.740000	27.228727	0.000433	20.799201
1910.488227	-2.975700	3.246900	-9.661100	27.218484	0.000435	20.781786
1911.489268	-2.985600	3.245300	-9.688300	27.197148	0.000434	20.786879
1912.492225	-3.023400	3.245400	-9.810200	27.167271	0.000433	20.789546
1913.489634	-2.968600	3.244100	-9.629400	27.195807	0.000433	20.796436
1914.490576	-3.017300	3.242600	-9.781700	27.212258	0.000430	20.796387
1915.489786	-2.974700	3.245100	-9.652200	27.232087	0.000431	20.800685
1916.489588	-2.992800	3.244500	-9.709700	27.247814	0.000430	20.798012
1917.492611	-2.984400	3.243100	-9.677900	27.259673	0.000430	20.779120
1918.490746	-3.001400	3.242600	-9.730700	27.274016	0.000429	20.792125
1919.492525	-3.001100	3.240800	-9.724300	27.273569	0.000427	20.789779
1920.496283	-3.011600	3.243000	-9.764900	27.261392	0.000425	20.789859
1921.491220	-2.974500	3.241100	-9.638800	27.227152	0.000426	20.788135
1922.493275	-3.001800	3.240700	-9.726600	27.271041	0.000426	20.791503
1923.493298	-3.031500	3.238700	-9.816400	27.312325	0.000424	20.785142
1924.491834	-2.982700	3.240900	-9.665400	27.335226	0.000425	20.799169
1925.492298	-2.994300	3.239700	-9.699000	27.313347	0.000422	20.793756
1926.492993	-3.001900	3.238700	-9.721100	27.302947	0.000420	20.780450
1927.493191	-2.984900	3.240500	-9.671800	27.350952	0.000421	20.794600
1928.495057	-2.996400	3.237700	-9.700500	27.358322	0.000422	20.771194
1929.493436	-2.983900	3.239200	-9.664400	27.397197	0.000419	20.791336
1930.497589	-3.013900	3.237100	-9.755200	27.442052	0.000418	20.779562
1931.495154	-3.003300	3.238600	-9.724700	27.448380	0.000419	20.777868
1932.495228	-2.983100	3.238200	-9.658900	27.475116	0.000420	20.795757
1933.497151	-2.988700	3.236200	-9.670600	27.388744	0.000418	20.773349
1934.495082	-3.000200	3.236200	-9.708300	27.393763	0.000416	20.776501
1935.496213	-2.997500	3.235900	-9.699000	27.405589	0.000417	20.775122
1936.494970	-3.007000	3.234600	-9.725800	27.405742	0.000414	20.787604
1937.495558	-3.034500	3.232400	-9.807700	27.393144	0.000415	20.763077
1938.495367	-3.027900	3.233400	-9.789900	27.386570	0.000414	20.776378
1939.498772	-3.009400	3.233300	-9.728700	27.383442	0.000414	20.777973
1940.495778	-2.999800	3.232900	-9.697300	27.395899	0.000413	20.789082
1941.497851	-3.025700	3.231800	-9.777900	27.427300	0.000411	20.784162
1942.498364	-3.004100	3.233600	-9.712900	27.442480	0.000409	20.771458
1943.497883	-3.005400	3.231800	-9.711700	27.418296	0.000410	20.783638
1944.503535	-2.983800	3.233900	-9.647300	27.383467	0.000411	20.790326
1945.498362	-3.022600	3.232200	-9.767700	27.356282	0.000409	20.771513
1946.499138	-2.979200	3.230800	-9.623700	27.298501	0.000407	20.769339
1947.500716	-2.995200	3.230800	-9.676300	27.254510	0.000409	20.773927
1948.499634	-3.001900	3.230100	-9.695500	27.253666	0.000406	20.774026
1949.501019	-3.015800	3.229500	-9.738700	27.242028	0.000406	20.763268
1950.499701	-3.002200	3.229900	-9.695900	27.258851	0.000404	20.774974
1951.508438	-3.013800	3.228400	-9.728400	27.265812	0.000404	20.783873
1952.500494	-2.984200	3.228700	-9.634200	27.272717	0.000404	20.768533
1953.500530	-3.010600	3.228400	-9.718100	27.286081	0.000403	20.783873
1954.504807	-2.985800	3.227500	-9.635800	27.257376	0.000402	20.780129
1955.502766	-3.007000	3.227100	-9.702800	27.209741	0.000403	20.762086
1956.506178	-3.027000	3.226300	-9.764400	27.183709	0.000402	20.798018
1957.512890	-3.005200	3.228200	-9.699900	27.191478	0.000399	20.788288
1958.503515	-3.015000	3.225400	-9.724000	27.196437	0.000399	20.787112
1959.505232	-3.025300	3.224100	-9.752500	27.233330	0.000399	20.776330
1960.506121	-3.005300	3.224900	-9.690700	27.255779	0.000397	20.773781
1961.502042	-2.999800	3.225000	-9.673800	27.338274	0.000397	20.769045
1962.502146	-2.968600	3.226100	-9.576200	27.389430	0.000396	20.784470
1963.502134	-2.978500	3.224500	-9.602700	27.426634	0.000395	20.775905
1964.503703	-2.986500	3.224300	-9.628300	27.459753	0.000395	20.763232
1965.505655	-3.005100	3.221900	-9.681200	27.518762	0.000395	20.779452
1966.502789	-2.986700	3.222900	-9.624900	27.552252	0.000392	20.761938
1967.505962	-3.010500	3.222600	-9.700700	27.587143	0.000391	20.771440
1968.502618	-3.004600	3.221200	-9.678200	27.634321	0.000392	20.771970
1969.504257	-3.006000	3.221000	-9.681000	27.648959	0.000391	20.761569
1970.505528	-2.971400	3.222100	-9.573000	27.660121	0.000389	20.780387
1971.507294	-2.985400	3.222000	-9.616500	27.666914	0.000389	20.760195
1972.504568	-2.986100	3.221400	-9.617600	27.673290	0.000387	20.748119
1973.505549	-3.009600	3.218400	-9.685300	27.660916	0.000387	20.761273
1974.506587	-3.036700	3.217100	-9.767600	27.650029	0.000386	20.745102
1975.507561	-2.978700	3.220300	-9.590700	27.681845	0.000387	20.759099
1976.510149	-3.020100	3.216500	-9.712200	27.678308	0.000384	20.759333
1977.507691	-2.974300	3.219700	-9.575300	27.671466	0.000384	20.753870
1978.507372	-2.999800	3.217300	-9.650400	27.705814	0.000384	20.762830
1979.509469	-3.000600	3.217900	-9.654600	27.690338	0.000383	20.778551
1980.511014	-3.004500	3.216900	-9.664700	27.679727	0.000381	20.754123
1981.507099	-3.006500	3.216700	-9.669400	27.681043	0.000381	20.760188
1982.507224	-3.004900	3.215100	-9.660100	27.639699	0.000379	20.747983
1983.507232	-2.985600	3.217000	-9.603000	27.601266	0.000380	20.750563
1984.507698	-2.984300	3.215600	-9.595800	27.543921	0.000379	20.744072
1985.509052	-3.003500	3.213900	-9.651000	27.504408	0.000377	20.751733
1986.511750	-2.997900	3.214400	-9.635700	27.468302	0.000378	20.753340
1987.508484	-3.013200	3.213300	-9.680600	27.416055	0.000376	20.757201
1988.508547	-3.016700	3.213200	-9.691600	27.383839	0.000374	20.771259
1989.509062	-3.008000	3.211500	-9.659800	27.319344	0.000376	20.747631
1990.509000	-3.002100	3.211900	-9.640500	27.278506	0.000374	20.748752
1991.511630	-2.999600	3.213000	-9.637000	27.263502	0.000373	20.756892
1992.508219	-3.000900	3.213100	-9.641300	27.250701	0.000372	20.723626
1993.512424	-3.009800	3.209400	-9.659100	27.221627	0.000370	20.734686
1994.510190	-3.001300	3.209500	-9.632300	27.257483	0.000371	20.737087
1995.509965	-2.991700	3.209800	-9.601900	27.281107	0.000370	20.733823
1996.513543	-3.006300	3.209200	-9.646300	27.253247	0.000369	20.731403
1997.510995	-3.006500	3.209100	-9.647900	27.264284	0.000368	20.744403
1998.510991	-2.989100	3.208800	-9.590600	27.338644	0.000369	20.738595
1999.512554	-3.012200	3.208500	-9.663700	27.324926	0.000368	20.743288
2000.512392	-3.002400	3.207800	-9.630600	27.359211	0.000367	20.741268
2001.514143	-2.995900	3.208500	-9.610000	27.359266	0.000365	20.747013
2002.512087	-3.005500	3.207500	-9.639600	27.325507	0.000362	20.740553
2003.516401	-2.984100	3.208800	-9.574700	27.360190	0.000362	20.751262
2004.514373	-3.005500	3.207100	-9.636900	27.337296	0.000363	20.728230
2005.514694	-3.034100	3.206200	-9.727000	27.351339	0.000363	20.723864
2006.516312	-3.011300	3.206100	-9.653800	27.417080	0.000361	20.738791
2007.517970	-2.998500	3.204300	-9.607300	27.441000	0.000360	20.734407
2008.516418	-2.978700	3.206100	-9.548100	27.463102	0.000360	20.706380
2009.515378	-2.986100	3.204000	-9.566700	27.443014	0.000357	20.753977
2010.516935	-3.022800	3.203900	-9.683300	27.384913	0.000357	20.728242
2011.517723	-3.022300	3.201800	-9.675300	27.387979	0.000358	20.737965
2012.519186	-3.014000	3.204700	-9.658100	27.354037	0.000357	20.726105
2013.518282	-3.009000	3.202300	-9.634500	27.351668	0.000358	20.734627
2014.520582	-2.991300	3.203400	-9.582000	27.339958	0.000355	20.726166
2015.519125	-3.011700	3.201500	-9.640800	27.353804	0.000354	20.727293
2016.520798	-2.988800	3.201300	-9.566300	27.389754	0.000354	20.724577
2017.522176	-2.992100	3.199700	-9.573100	27.361590	0.000352	20.721375
2018.520317	-3.018100	3.200000	-9.656700	27.356265	0.000353	20.729294
2019.519766	-3.012700	3.198900	-9.635400	27.340092	0.000351	20.736733
2020.519248	-3.007100	3.199400	-9.619200	27.379366	0.000352	20.735464
2021.521729	-2.996100	3.197900	-9.580300	27.403698	0.000349	20.710628
2022.523430	-2.987800	3.199800	-9.559700	27.423652	0.000351	20.725962
2023.521549	-2.988300	3.199300	-9.558000	27.442327	0.000348	20.725309
2024.522803	-3.000300	3.198800	-9.596600	27.491096	0.000346	20.707044
2025.521796	-2.998600	3.196300	-9.583200	27.546663	0.000348	20.735926
2026.520786	-2.989700	3.197300	-9.558500	27.622925	0.000346	20.726836
2027.523819	-3.006700	3.195800	-9.607900	27.678871	0.000344	20.723862
2028.524129	-3.000500	3.196300	-9.589300	27.725225	0.000344	20.709341
2029.522637	-2.999600	3.196200	-9.586500	27.766688	0.000346	20.714557
2030.523993	-3.022900	3.193600	-9.653000	27.764956	0.000346	20.707124
2031.535255	-3.003800	3.193000	-9.589900	27.802942	0.000343	20.707419
2032.527048	-3.028200	3.193200	-9.668200	27.813136	0.000342	20.711989
2033.529938	-2.984000	3.192600	-9.525700	27.827716	0.000341	20.709593
2034.527396	-2.991100	3.192300	-9.547100	27.829528	0.000339	20.729909
2035.530718	-3.002300	3.192300	-9.583300	27.772293	0.000339	20.736794
2036.528084	-2.977200	3.191800	-9.500800	27.750069	0.000340	20.716799
2037.528253	-2.997500	3.192100	-9.566400	27.751354	0.000337	20.719515
2038.533982	-3.001600	3.191600	-9.578800	27.755747	0.000337	20.719668
2039.533692	-2.984400	3.192100	-9.524300	27.766529	0.000338	20.709655
2040.533498	-2.977600	3.190900	-9.500600	27.785895	0.000337	20.723456
2041.530866	-2.994100	3.188400	-9.544500	27.807348	0.000334	20.727976
2042.531089	-3.001400	3.189300	-9.572000	27.819665	0.000336	20.729466
2043.532890	-2.988400	3.188200	-9.527300	27.799504	0.000335	20.728143
2044.530723	-3.007300	3.188500	-9.587400	27.772226	0.000333	20.727243
2045.531991	-3.002700	3.187600	-9.570400	27.713250	0.000332	20.717680
2046.531518	-3.000300	3.186400	-9.559500	27.703900	0.000332	20.719651
2047.533373	-3.026600	3.184400	-9.637100	27.717210	0.000330	20.721665
2048.535454	-3.013100	3.188100	-9.603700	27.726168	0.000331	20.714558
2049.535398	-2.990500	3.186800	-9.528200	27.748956	0.000329	20.710463
2050.533870	-2.996300	3.185200	-9.543300	27.792866	0.000328	20.721462
2051.533189	-2.999600	3.186100	-9.555700	27.794249	0.000328	20.716215
2052.533610	-2.999500	3.184800	-9.551100	27.804859	0.000328	20.725471
2053.535515	-2.991000	3.183400	-9.520300	27.788859	0.000327	20.722645
2054.538082	-3.003000	3.185000	-9.563700	27.829058	0.000327	20.709047
2055.535738	-3.010000	3.183400	-9.580500	27.843162	0.000325	20.711387
2056.539799	-3.020000	3.181200	-9.605700	27.811890	0.000324	20.700303
2057.536395	-3.006500	3.183000	-9.567800	27.830564	0.000324	20.700604
2058.536948	-3.002100	3.181200	-9.549400	27.804444	0.000323	20.718415
2059.542727	-2.995600	3.183300	-9.534700	27.776150	0.000324	20.719812
2060.535285	-2.989500	3.180100	-9.505100	27.818572	0.000324	20.698967
2061.536913	-2.984700	3.181700	-9.495500	27.838629	0.000321	20.720577
2062.535772	-2.990900	3.182000	-9.516100	27.844258	0.000319	20.716284
2063.535518	-3.012000	3.179200	-9.574500	27.859359	0.000320	20.703506
2064.537528	-2.983300	3.179600	-9.484100	27.876564	0.000319	20.723194
2065.540047	-2.998500	3.177900	-9.528300	27.856330	0.000316	20.720374
2066.536298	-3.021100	3.177200	-9.597400	27.863636	0.000319	20.710656
2067.537995	-2.997900	3.178300	-9.527400	27.856850	0.000315	20.707146
2068.538091	-2.987800	3.177500	-9.493000	27.865624	0.000316	20.710761
2069.539143	-2.998100	3.177300	-9.524800	27.908715	0.000314	20.707189
2070.541403	-3.024600	3.174400	-9.600200	27.906164	0.000315	20.700353
2071.538855	-3.027300	3.174300	-9.608600	27.924262	0.000312	20.716673
2072.540772	-2.966300	3.175500	-9.417800	27.962046	0.000312	20.709659
2073.539426	-3.010200	3.175000	-9.556300	27.963759	0.000312	20.731299
2074.540378	-2.985800	3.174800	-9.477900	27.871749	0.000311	20.716451
2075.541538	-2.958100	3.176000	-9.394700	27.807430	0.000310	20.723791
2076.539895	-3.002000	3.173000	-9.524700	27.768924	0.000310	20.697840
2077.539689	-2.968400	3.173600	-9.418900	27.819135	0.000308	20.704750
2078.540596	-3.004800	3.171800	-9.530000	27.850750	0.000307	20.714283
2079.540510	-3.025600	3.169600	-9.588800	27.896381	0.000308	20.697618
2080.541234	-3.004500	3.169700	-9.522700	27.925240	0.000306	20.713390
2081.541225	-3.005700	3.169000	-9.523600	27.888813	0.000308	20.722720
2082.543931	-2.996900	3.169500	-9.497800	27.908880	0.000306	20.723003
2083.544066	-3.012100	3.169000	-9.543800	27.921752	0.000305	20.713673
2084.543478	-3.015900	3.169100	-9.557000	27.942553	0.000303	20.722282
2085.543933	-3.028200	3.168900	-9.594500	27.936111	0.000304	20.717694
2086.546989	-3.014200	3.166700	-9.544400	27.874617	0.000303	20.716019
2087.547747	-3.024400	3.166700	-9.576200	27.838696	0.000302	20.694089
2088.544326	-2.994000	3.167700	-9.482300	27.772112	0.000301	20.726654
2089.544827	-3.017600	3.165900	-9.552100	27.752928	0.000299	20.733428
2090.548591	-3.008700	3.164300	-9.519500	27.793968	0.000299	20.741064
2091.549124	-2.999500	3.164100	-9.489500	27.828783	0.000300	20.704502
2092.545444	-2.988300	3.163600	-9.452700	27.893522	0.000297	20.735047
2093.547015	-3.002200	3.163600	-9.496200	27.943170	0.000295	20.721480
2094.544329	-3.002200	3.163900	-9.498100	28.007939	0.000295	20.709859
2095.545820	-2.996600	3.161700	-9.473000	28.021147	0.000297	20.723155
2096.550645	-2.974900	3.163400	-9.409800	28.007664	0.000295	20.720014
2097.548655	-3.000400	3.161900	-9.485600	27.989249	0.000295	20.726610
2098.553240	-3.007500	3.159300	-9.499800	27.967561	0.000293	20.728013
2099.554793	-3.001700	3.159700	-9.483400	28.004873	0.000294	20.735225
2100.547991	-3.002400	3.159700	-9.485400	28.008697	0.000293	20.738125
2101.553018	-3.020400	3.157600	-9.536900	27.980635	0.000292	20.722680
2102.548645	-3.018900	3.158000	-9.532800	27.984104	0.000292	20.707204
2103.548556	-3.006900	3.156800	-9.491200	27.943695	0.000290	20.725328
2104.550082	-3.003200	3.157100	-9.479200	27.897210	0.000289	20.726904
2105.550274	-2.993700	3.157700	-9.452300	27.891116	0.000288	20.746376
2106.549462	-3.008400	3.155800	-9.492700	27.859930	0.000286	20.704555
2107.555244	-2.989100	3.157200	-9.435800	27.834165	0.000287	20.721300
2108.556357	-3.020300	3.153800	-9.524400	27.821053	0.000286	20.725647
2109.549932	-3.001700	3.154200	-9.466300	27.819217	0.000286	20.729490
2110.552730	-2.972900	3.155100	-9.378500	27.794547	0.000283	20.729318
2111.554739	-2.986200	3.153400	-9.416200	27.791102	0.000285	20.714470
2112.555721	-3.011300	3.153300	-9.493900	27.794601	0.000285	20.725579
2113.550581	-3.007400	3.152200	-9.478800	27.754779	0.000283	20.727230
2114.554764	-2.986500	3.152100	-9.412300	27.748311	0.000281	20.733049
2115.552605	-2.979100	3.152300	-9.390200	27.753525	0.000281	20.726441
2116.553245	-2.974600	3.151500	-9.374000	27.758506	0.000281	20.715332
2117.555402	-3.011800	3.150400	-9.486400	27.782516	0.000281	20.748506
2118.555785	-2.999700	3.149900	-9.448300	27.804366	0.000280	20.721656
2119.556360	-2.991300	3.149200	-9.419600	27.791798	0.000278	20.734138
2120.556607	-3.009400	3.149700	-9.477600	27.783941	0.000278	20.727180
2121.557460	-2.993300	3.147800	-9.421500	27.763725	0.000279	20.713946
2122.556987	-3.013400	3.146300	-9.479300	27.757232	0.000276	20.719740
2123.559620	-3.012200	3.145700	-9.474200	27.783868	0.000276	20.715725
2124.558319	-2.987700	3.146100	-9.398900	27.839536	0.000275	20.728602
2125.561704	-3.003400	3.144500	-9.442900	27.889676	0.000274	20.719321
2126.558574	-3.022800	3.145400	-9.505000	27.915935	0.000274	20.719198
2127.558326	-3.006500	3.144900	-9.453100	27.908251	0.000274	20.737543
2128.562693	-3.018800	3.142900	-9.486200	27.904831	0.000273	20.739317
2129.558202	-3.016600	3.142000	-9.477300	27.888220	0.000271	20.722123
2130.560085	-3.013800	3.143100	-9.471200	27.883711	0.000272	20.735603
2131.557885	-3.007800	3.141500	-9.446600	27.939000	0.000271	20.738147
2132.558019	-3.008200	3.140700	-9.446500	27.921270	0.000271	20.744958
2133.565535	-2.997300	3.141000	-9.414000	27.941013	0.000270	20.737328
2134.558853	-3.016000	3.139700	-9.467900	27.982614	0.000269	20.731311
2135.560308	-3.028700	3.138700	-9.504900	28.025162	0.000268	20.748061
2136.558986	-3.006900	3.138300	-9.434900	28.073771	0.000266	20.727764
2137.558969	-2.999700	3.136800	-9.408300	28.139516	0.000266	20.745586
2138.561890	-3.029400	3.136100	-9.499800	28.098882	0.000268	20.742612
2139.560777	-3.002600	3.136800	-9.417600	28.047962	0.000266	20.749675
2140.560277	-2.979900	3.136900	-9.345800	28.011618	0.000264	20.726366
2141.562397	-2.992300	3.134600	-9.378800	27.978987	0.000263	20.755636
2142.568508	-3.003700	3.134900	-9.414600	28.001671	0.000263	20.747175
2143.563637	-3.001100	3.133300	-9.401900	27.995945	0.000263	20.739040
2144.564025	-2.997700	3.134400	-9.394700	27.995223	0.000263	20.725036
2145.563509	-3.009100	3.132500	-9.424100	27.970459	0.000259	20.754638
2146.563825	-3.018200	3.131000	-9.449700	27.975836	0.000261	20.735394
2147.563139	-3.014200	3.131700	-9.439200	28.004546	0.000261	20.767613
2148.562846	-2.994900	3.131200	-9.376800	28.002883	0.000259	20.745549
2149.565331	-2.988400	3.129300	-9.350000	27.961331	0.000260	20.728854
2150.561938	-2.999000	3.129000	-9.383000	27.979672	0.000258	20.746368
2151.565503	-2.988600	3.130100	-9.353200	27.996018	0.000260	20.744330
2152.562619	-2.989100	3.129100	-9.352500	28.028515	0.000258	20.736263
2153.565586	-3.013800	3.127200	-9.422000	28.041092	0.000256	20.756985
2154.565315	-2.994900	3.127500	-9.365700	28.103659	0.000256	20.731773
2155.563590	-2.999800	3.126100	-9.376100	28.106693	0.000256	20.753795
2156.563639	-2.983700	3.127100	-9.329300	28.150466	0.000255	20.750919
2157.564514	-2.994700	3.124700	-9.355300	28.197074	0.000254	20.741891
2158.564159	-2.998900	3.124900	-9.369500	28.164968	0.000254	20.763149
2159.565130	-3.014300	3.123900	-9.414700	28.160240	0.000254	20.740844
2160.564712	-2.993900	3.122100	-9.346000	28.143437	0.000252	20.748585
2161.565835	-2.988900	3.122200	-9.331000	28.186248	0.000252	20.747587
2162.564779	-2.993000	3.123800	-9.347700	28.150851	0.000251	20.757945
2163.565463	-3.030600	3.118800	-9.450200	28.181122	0.000249	20.744323
2164.567732	-3.011600	3.119700	-9.394300	28.209307	0.000251	20.775070
2165.565024	-2.981200	3.120800	-9.303000	28.248744	0.000250	20.763567
2166.564837	-3.013400	3.118100	-9.395200	28.239007	0.000249	20.749970
2167.566444	-3.014100	3.117500	-9.395400	28.216505	0.000249	20.761929
2168.570493	-2.982200	3.117200	-9.294900	28.189391	0.000248	20.755968
2169.564573	-2.980900	3.116400	-9.288400	28.147877	0.000247	20.753529
2170.568053	-2.979500	3.117400	-9.286900	28.169292	0.000247	20.753751
2171.566744	-2.995900	3.115800	-9.333300	28.162802	0.000246	20.760493
2172.573781	-3.005200	3.114800	-9.359500	28.158196	0.000246	20.752063
2173.568763	-3.000100	3.114600	-9.343200	28.135264	0.000246	20.761220
2174.567266	-2.997900	3.113500	-9.331100	28.106141	0.000243	20.781215
2175.568739	-2.987600	3.112900	-9.299300	28.074167	0.000246	20.777477
2176.572519	-3.007200	3.110700	-9.353500	28.046205	0.000245	20.747906
2177.569191	-3.004300	3.111800	-9.347000	28.000666	0.000244	20.761811
2178.568697	-3.015000	3.109700	-9.374600	27.976721	0.000241	20.763787
2179.569189	-3.003400	3.110300	-9.340500	27.994200	0.000242	20.766207
2180.569524	-3.027900	3.108100	-9.409400	28.063278	0.000242	20.754187
2181.573328	-3.025200	3.106500	-9.396500	28.112313	0.000242	20.767039
2182.572733	-2.980500	3.108600	-9.263800	28.157063	0.000241	20.779373
2183.575244	-3.021600	3.105000	-9.380900	28.114906	0.000240	20.772020
2184.571762	-3.012300	3.105000	-9.352000	28.115200	0.000241	20.765677
2185.571344	-2.966000	3.105400	-9.208500	28.074099	0.000241	20.788788
2186.574672	-3.001300	3.104300	-9.314800	28.124228	0.000238	20.767654
2187.573720	-3.015500	3.104200	-9.359200	28.105987	0.000237	20.756877
2188.573910	-2.997200	3.104000	-9.302000	28.077555	0.000240	20.775197
2189.574277	-2.994500	3.103700	-9.292700	28.084846	0.000238	20.775899
2190.574484	-3.024700	3.101700	-9.380000	28.129623	0.000237	20.762179
2191.573959	-3.007600	3.100000	-9.322400	28.161626	0.000236	20.768793
2192.576703	-3.001900	3.100500	-9.306500	28.159473	0.000234	20.776108
2193.574525	-3.014200	3.098200	-9.337100	28.167412	0.000234	20.765135
2194.573621	-3.007200	3.097700	-9.313000	28.187909	0.000234	20.786718
2195.574317	-2.993900	3.098000	-9.274700	28.224210	0.000234	20.773953
2196.574071	-2.996400	3.097000	-9.279200	28.252246	0.000234	20.779421
2197.581800	-2.988200	3.095300	-9.248200	28.307199	0.000232	20.772161
2198.573671	-2.983100	3.095000	-9.231100	28.318678	0.000233	20.784668
2199.577111	-3.019000	3.092400	-9.334300	28.370190	0.000233	20.774895
2200.573384	-2.988800	3.093800	-9.245600	28.368557	0.000230	20.785579
2201.575659	-3.012900	3.093200	-9.317600	28.321987	0.000232	20.773300
2202.576803	-3.015100	3.091600	-9.320200	28.290337	0.000230	20.776046
2203.575855	-2.998500	3.091000	-9.266100	28.264485	0.000232	20.776570
2204.573910	-2.982800	3.090700	-9.217900	28.239115	0.000231	20.776631
2205.574450	-3.025500	3.088500	-9.343100	28.256289	0.000230	20.761205
2206.574422	-2.994600	3.089700	-9.251400	28.290753	0.000230	20.776939
2207.574327	-2.997300	3.088400	-9.255700	28.238325	0.000230	20.774888
2208.577397	-3.016800	3.086000	-9.308900	28.236772	0.000227	20.794187
2209.574066	-2.983700	3.086700	-9.208900	28.228545	0.000229	20.760774
2210.578293	-2.993200	3.085500	-9.234200	28.243151	0.000229	20.793023
2211.574497	-3.008400	3.083500	-9.275500	28.226129	0.000227	20.787740
2212.574195	-2.988100	3.083400	-9.212100	28.266508	0.000227	20.805160
2213.578962	-2.994100	3.084000	-9.232300	28.291468	0.000227	20.775288
2214.575143	-2.986800	3.082000	-9.203900	28.317791	0.000228	20.792309
2215.575047	-3.007300	3.080400	-9.262000	28.275267	0.000226	20.758976
2216.576718	-3.018600	3.079900	-9.294800	28.330640	0.000225	20.778219
2217.576397	-3.006900	3.079300	-9.256400	28.371785	0.000225	20.779346
2218.576483	-2.999600	3.077600	-9.230900	28.395110	0.000225	20.796668
2219.579152	-3.043800	3.076400	-9.362500	28.420243	0.000226	20.799692
2220.577431	-2.987200	3.076200	-9.188100	28.459826	0.000224	20.784550
2221.577065	-2.980100	3.076600	-9.167200	28.471720	0.000224	20.785621
2222.578470	-3.001900	3.075400	-9.231600	28.463923	0.000221	20.778244
2223.578360	-2.986800	3.075100	-9.183400	28.445291	0.000222	20.787930
2224.580035	-2.984900	3.073100	-9.172300	28.421448	0.000223	20.781939
2225.578431	-2.996400	3.073400	-9.208300	28.397072	0.000221	20.788688
2226.581578	-3.005100	3.071300	-9.228800	28.404833	0.000222	20.805985
2227.578686	-3.014600	3.070600	-9.255400	28.401390	0.000222	20.800147
2228.579989	-3.001400	3.070300	-9.214300	28.426077	0.000220	20.797980
2229.587090	-2.993900	3.069900	-9.190100	28.425808	0.000223	20.786329
2230.584994	-3.008700	3.067300	-9.227000	28.427575	0.000222	20.801385
2231.580416	-3.008400	3.066300	-9.223400	28.425514	0.000220	20.785559
2232.580804	-3.001000	3.066100	-9.200100	28.415161	0.000220	20.788885
2233.583198	-3.027700	3.062800	-9.271200	28.384854	0.000221	20.795350
2234.581635	-3.013800	3.063400	-9.232100	28.377399	0.000222	20.791637
2235.590415	-2.997600	3.061900	-9.177200	28.391777	0.000222	20.808011
2236.583343	-3.006300	3.062700	-9.207200	28.404619	0.000220	20.807666
2237.588759	-3.003300	3.061000	-9.192300	28.435372	0.000219	20.798331
2238.582710	-2.985300	3.061000	-9.137300	28.424524	0.000218	20.806847
2239.583263	-3.025900	3.058000	-9.251600	28.415057	0.000219	20.800634
2240.587618	-2.991200	3.059100	-9.149300	28.384726	0.000220	20.795221
2241.584654	-2.995500	3.056500	-9.154800	28.383136	0.000217	20.801206
2242.584241	-2.977600	3.056200	-9.098600	28.420781	0.000217	20.785061
2243.582191	-2.965300	3.055700	-9.059800	28.438680	0.000218	20.802136
2244.583791	-2.982900	3.055900	-9.113900	28.433427	0.000218	20.778355
2245.583107	-2.977800	3.053900	-9.092400	28.371694	0.000217	20.803436
2246.585766	-3.012400	3.051900	-9.190600	28.378537	0.000217	20.787567
2247.587517	-3.003600	3.051100	-9.163400	28.391306	0.000217	20.799950
2248.590948	-3.027400	3.048900	-9.228900	28.405457	0.000217	20.806613
2249.586885	-3.007000	3.049500	-9.168700	28.395794	0.000216	20.789297
2250.587349	-3.004900	3.048600	-9.159900	28.448905	0.000216	20.802001
2251.594428	-3.019200	3.046400	-9.195700	28.439940	0.000215	20.818578
2252.586908	-3.015000	3.045600	-9.181700	28.416592	0.000216	20.801231
2253.587768	-2.999400	3.044900	-9.132000	28.364697	0.000217	20.810142
2254.587791	-2.989100	3.044700	-9.100300	28.384481	0.000216	20.812993
2255.587314	-3.000700	3.042600	-9.129100	28.398479	0.000214	20.807648
2256.589787	-3.004600	3.041600	-9.137900	28.450874	0.000216	20.796397
2257.592854	-3.001800	3.041200	-9.128100	28.500808	0.000214	20.807802
2258.587979	-2.966800	3.039900	-9.017400	28.528220	0.000214	20.805061
2259.588618	-2.994700	3.039400	-9.101600	28.569523	0.000214	20.812518
2260.590184	-3.005900	3.036700	-9.127000	28.584277	0.000214	20.815524
2261.591798	-2.975100	3.036600	-9.032900	28.558034	0.000215	20.823233
2262.593318	-3.008700	3.034600	-9.128800	28.516474	0.000214	20.801767
2263.591038	-3.025800	3.033300	-9.177500	28.428480	0.000215	20.818418
2264.593564	-3.022800	3.033300	-9.168600	28.369468	0.000215	20.826798
2265.592866	-2.989900	3.031000	-9.061900	28.354472	0.000214	20.811225
2266.593036	-3.016100	3.030800	-9.139700	28.401237	0.000213	20.829865
2267.593041	-3.019900	3.028200	-9.144000	28.400742	0.000213	20.816090
2268.593455	-2.999900	3.027600	-9.081100	28.396015	0.000212	20.821287
2269.592450	-3.009800	3.025800	-9.106100	28.428175	0.000212	20.830912
2270.593542	-2.998500	3.025600	-9.069800	28.413731	0.000213	20.803565
2271.591650	-3.005800	3.025000	-9.091300	28.378592	0.000213	20.835037
2272.595154	-3.000100	3.023200	-9.068900	28.352888	0.000213	20.827648
2273.593898	-2.984500	3.022300	-9.018500	28.425405	0.000214	20.829070
2274.592575	-2.990300	3.020300	-9.031100	28.484090	0.000212	20.831743
2275.594304	-3.013800	3.019700	-9.100000	28.568955	0.000211	20.830912
2276.593721	-3.010200	3.018800	-9.086400	28.623028	0.000212	20.832740
2277.597198	-3.003100	3.018000	-9.061000	28.688245	0.000213	20.838683
2278.596505	-3.018700	3.014800	-9.100200	28.732537	0.000211	20.824976
2279.594307	-3.007300	3.016200	-9.069700	28.720971	0.000211	20.820437
2280.597797	-3.015100	3.014500	-9.088000	28.704745	0.000212	20.838707
2281.593968	-2.985800	3.014100	-8.998900	28.717865	0.000211	20.862826
2282.594608	-3.016900	3.011500	-9.083600	28.745895	0.000210	20.827999
2283.597346	-3.005100	3.009600	-9.043500	28.708609	0.000209	20.841650
2284.598736	-3.006800	3.010100	-9.049800	28.727787	0.000211	20.825881
2285.594402	-3.017900	3.006700	-9.073300	28.746372	0.000211	20.822790
2286.594988	-2.997000	3.007300	-9.012100	28.746194	0.000210	20.833042
2287.595318	-3.014200	3.005700	-9.059000	28.755462	0.000210	20.834317
2288.595638	-3.002200	3.004300	-9.018300	28.793413	0.000211	20.837457
2289.596417	-3.004000	3.004500	-9.023800	28.818714	0.000209	20.852512
2290.596449	-2.978100	3.002800	-8.940600	28.813665	0.000212	20.835573
2291.598964	-2.982300	3.000300	-8.946900	28.781180	0.000209	20.859273
2292.595408	-2.998300	2.999900	-8.994000	28.724578	0.000210	20.850148
2293.596666	-2.996800	2.998000	-8.983500	28.662812	0.000209	20.850524
2294.601079	-2.994100	2.998300	-8.975500	28.590764	0.000210	20.840074
2295.597040	-2.990600	2.996500	-8.960600	28.586081	0.000209	20.851004
2296.597134	-3.006600	2.994400	-9.002400	28.647264	0.000210	20.833917
2297.596886	-2.995000	2.993900	-8.964900	28.695257	0.000208	20.838159
2298.596279	-2.990100	2.991200	-8.942800	28.737184	0.000209	20.851940
2299.596702	-2.986900	2.992100	-8.936200	28.774395	0.000209	20.836792
2300.598953	-2.983600	2.990000	-8.919600	28.773093	0.000207	20.848283
2301.596156	-3.015800	2.987900	-9.009900	28.787086	0.000208	20.864274
2302.597487	-2.987400	2.988200	-8.925200	28.792942	0.000209	20.867802
2303.597084	-3.009400	2.985000	-8.982200	28.782422	0.000208	20.864317
2304.596228	-3.030500	2.983100	-9.039400	28.762823	0.000206	20.854533
2305.598471	-3.038100	2.981900	-9.057400	28.744868	0.000208	20.845931
2306.597775	-2.996700	2.982700	-8.937400	28.765660	0.000209	20.865450
2307.598710	-2.997700	2.979600	-8.931200	28.800994	0.000208	20.861688
2308.600006	-3.001300	2.978500	-8.938500	28.886181	0.000208	20.859785
2309.600229	-3.009500	2.977900	-8.961300	28.890918	0.000208	20.867402
2310.603293	-2.985400	2.976700	-8.885200	28.902513	0.000209	20.854428
2311.602729	-2.989700	2.973400	-8.888300	28.896426	0.000209	20.874847
2312.605557	-3.008800	2.972100	-8.941200	28.858852	0.000209	20.892469
2313.602199	-3.010100	2.970500	-8.940600	28.869408	0.000206	20.862803
2314.603216	-3.011300	2.969000	-8.940100	28.837335	0.000207	20.871269
2315.606738	-3.020100	2.967100	-8.960000	28.791549	0.000208	20.864028
2316.603246	-2.998500	2.966000	-8.892800	28.741837	0.000206	20.860894
2317.601651	-2.977900	2.966000	-8.831500	28.772898	0.000206	20.855198
2318.603194	-3.004300	2.964200	-8.904200	28.781353	0.000205	20.866559
2319.603000	-3.003100	2.961900	-8.894200	28.816662	0.000205	20.858505
2320.604013	-2.961200	2.961400	-8.768100	28.828453	0.000209	20.846202
2321.605821	-2.970100	2.959500	-8.788300	28.816142	0.000207	20.877895
2322.603284	-2.999600	2.958200	-8.871300	28.767042	0.000209	20.851196
2323.605451	-2.987900	2.958400	-8.837900	28.716998	0.000207	20.865746
2324.605126	-2.993600	2.954300	-8.843400	28.670321	0.000207	20.866147
2325.605078	-2.998600	2.952700	-8.852500	28.630165	0.000208	20.845144
2326.609491	-3.009400	2.952200	-8.883100	28.615394	0.000208	20.825525
2327.606176	-3.015400	2.949500	-8.893500	28.623715	0.000207	20.856190
2328.609248	-2.986800	2.948500	-8.806600	28.687592	0.000206	20.830913
2329.609448	-2.981000	2.946600	-8.783300	28.725453	0.000207	20.834435
2330.608350	-2.980700	2.946700	-8.781300	28.785015	0.000206	20.845119
2331.609147	-2.984500	2.943100	-8.782100	28.845588	0.000204	20.833592
2332.609442	-2.976800	2.943500	-8.759500	28.860423	0.000208	20.855174
2333.610010	-2.995100	2.942600	-8.812400	28.905363	0.000206	20.834066
2334.610749	-3.001800	2.938600	-8.819300	28.915864	0.000206	20.851283
2335.610508	-3.001800	2.935900	-8.812100	28.887973	0.000205	20.850211
2336.610814	-2.985600	2.937100	-8.767800	28.865552	0.000207	20.832841
2337.611378	-2.986400	2.935400	-8.765300	28.858944	0.000205	20.857003
2338.609331	-2.999900	2.933300	-8.798800	28.847617	0.000206	20.838955
2339.613002	-3.007500	2.931300	-8.814300	28.828032	0.000205	20.831080
2340.610385	-3.008800	2.930500	-8.816100	28.820727	0.000204	20.855014
2341.618855	-3.004400	2.927500	-8.793400	28.824138	0.000204	20.830950
2342.613115	-3.023800	2.924700	-8.842500	28.831926	0.000205	20.838795
2343.611058	-3.021500	2.923800	-8.832500	28.858376	0.000206	20.834620
2344.611901	-2.995900	2.923000	-8.756700	28.893181	0.000207	20.833173
2345.611666	-2.993400	2.921100	-8.742500	28.941016	0.000204	20.829682
2346.611194	-2.998200	2.919200	-8.751200	28.982431	0.000206	20.852441
2347.623664	-3.000800	2.917500	-8.753800	28.969902	0.000204	20.827490
2348.613421	-3.017400	2.916200	-8.798500	28.982908	0.000206	20.831111
2349.616881	-3.014100	2.913700	-8.780800	28.975556	0.000204	20.824177
2350.613418	-3.033100	2.912100	-8.831200	28.939916	0.000206	20.833790
2351.613032	-2.997000	2.910600	-8.720500	28.954677	0.000204	20.824953
2352.616978	-2.970900	2.908400	-8.639500	28.903499	0.000205	20.829818
2353.614723	-3.000700	2.907700	-8.724400	28.894660	0.000204	20.836086
2354.613793	-2.973200	2.906300	-8.639300	28.908132	0.000203	20.832115
2355.614539	-2.995400	2.905000	-8.700000	28.956792	0.000205	20.835144
2356.612245	-3.014700	2.902700	-8.750000	29.001501	0.000204	20.828506
2357.615113	-2.988400	2.900600	-8.667000	29.093841	0.000207	20.824818
2358.616147	-2.996500	2.898300	-8.683300	29.117889	0.000205	20.831979
2359.615139	-2.991100	2.896100	-8.662000	29.121659	0.000205	20.813968
2360.617728	-2.989100	2.895700	-8.654100	29.146660	0.000207	20.823513
2361.616043	-2.985000	2.893500	-8.635900	29.154433	0.000205	20.826604
2362.617883	-3.012300	2.892100	-8.710100	29.181602	0.000206	20.820317
2363.621963	-3.015100	2.889800	-8.711200	29.212639	0.000206	20.823618
2364.619252	-3.003300	2.888100	-8.672900	29.245776	0.000207	20.811493
2365.618556	-3.028000	2.886200	-8.738100	29.281088	0.000206	20.831432
2366.620239	-2.998600	2.884000	-8.646300	29.299223	0.000205	20.809406
2367.618837	-3.005500	2.881800	-8.660300	29.281742	0.000206	20.810281
2368.623815	-2.991600	2.880200	-8.615100	29.260148	0.000205	20.815071
2369.619454	-2.967100	2.879800	-8.544200	29.224646	0.000205	20.816279
2370.620214	-3.017700	2.876200	-8.678200	29.173977	0.000204	20.811685
2371.620414	-3.027600	2.873200	-8.697100	29.140153	0.000207	20.806999
2372.619777	-3.003600	2.873200	-8.628800	29.057058	0.000206	20.799610
2373.624954	-2.981800	2.870100	-8.557000	28.982660	0.000204	20.807627
2374.620491	-2.969100	2.869400	-8.518000	28.948701	0.000207	20.807553
2375.621863	-2.990100	2.866800	-8.571200	28.902009	0.000202	20.802713
2376.620166	-2.995700	2.864100	-8.578900	28.887652	0.000203	20.812431
2377.621035	-3.006700	2.863400	-8.608500	28.862657	0.000203	20.801950
2378.621127	-3.001000	2.859800	-8.581400	28.907401	0.000204	20.787757
2379.621229	-3.025800	2.857600	-8.645700	28.929894	0.000204	20.794296
2380.621947	-3.014200	2.855700	-8.606300	28.972209	0.000203	20.804211
2381.621519	-3.032600	2.853000	-8.649600	29.014668	0.000202	20.803367
2382.620903	-3.050800	2.851800	-8.699100	29.031708	0.000204	20.813423
2383.621449	-3.026200	2.849800	-8.623400	28.973481	0.000204	20.804543
2384.623654	-2.984800	2.850800	-8.507100	28.891687	0.000201	20.799900
2385.621991	-3.021100	2.845300	-8.594500	28.880965	0.000203	20.816600
2386.624607	-3.029400	2.843500	-8.613100	28.827437	0.000203	20.788755
2387.623095	-3.031600	2.841700	-8.613400	28.818445	0.000202	20.814310
2388.623529	-2.997800	2.841400	-8.516300	28.822394	0.000201	20.786520
2389.625906	-2.956800	2.838600	-8.391300	28.834161	0.000202	20.784149
2390.625011	-3.000500	2.835300	-8.505900	28.831466	0.000204	20.798978
2391.626087	-2.981200	2.834600	-8.449400	28.854731	0.000203	20.809138
2392.624180	-3.003000	2.833100	-8.505200	28.853068	0.000202	20.794661
2393.625874	-3.000600	2.829500	-8.489500	28.873607	0.000202	20.789273
2394.625155	-3.000300	2.828500	-8.484400	28.900765	0.000202	20.778700
2395.627049	-3.030700	2.823900	-8.557200	28.944340	0.000202	20.794150
2396.624228	-3.020900	2.822400	-8.523300	28.970970	0.000201	20.805807
2397.624177	-2.994600	2.821000	-8.446500	29.017641	0.000202	20.793085
2398.623614	-2.978900	2.818700	-8.395500	29.030817	0.000201	20.812051
2399.623942	-3.010600	2.815600	-8.475400	29.046580	0.000200	20.782888
2400.625641	-2.994700	2.813200	-8.424400	29.014872	0.000201	20.787451
2401.625563	-2.983400	2.811100	-8.385800	29.013069	0.000203	20.780893
2402.624837	-3.003000	2.808500	-8.432800	29.037773	0.000200	20.783973
2403.625010	-2.985800	2.807200	-8.381100	29.071729	0.000201	20.793055
2404.625330	-2.989900	2.803800	-8.382400	29.083463	0.000201	20.791128
2405.627081	-2.983300	2.802000	-8.358500	29.082455	0.000203	20.815716
2406.625272	-2.980500	2.800000	-8.344200	29.008456	0.000202	20.779564
2407.626421	-2.990000	2.795900	-8.358600	28.950643	0.000204	20.793388
2408.624713	-3.006500	2.792500	-8.395200	28.938235	0.000203	20.771879
2409.625971	-3.001700	2.792400	-8.381300	28.982352	0.000203	20.782661
2410.630326	-3.012700	2.787100	-8.396000	28.992058	0.000203	20.798130
2411.624994	-3.000600	2.785600	-8.358000	28.987627	0.000201	20.788450
2412.629010	-3.010900	2.783200	-8.378300	29.022256	0.000203	20.794891
2413.626210	-2.986300	2.780400	-8.301500	29.044594	0.000202	20.771405
2414.627527	-3.037500	2.775700	-8.430300	29.060448	0.000201	20.789749
2415.630546	-2.995000	2.774800	-8.309700	29.108220	0.000204	20.794737
2416.632053	-3.018900	2.771100	-8.364700	29.137144	0.000201	20.785475
2417.627583	-3.010800	2.769000	-8.336500	29.204284	0.000202	20.791018
2418.628151	-3.009500	2.766700	-8.325100	29.236572	0.000203	20.801270
2419.628187	-3.032600	2.763400	-8.379400	29.236670	0.000201	20.768178
2420.628163	-3.004500	2.760600	-8.292700	29.250088	0.000201	20.782174
2421.629337	-3.022700	2.756600	-8.331700	29.287435	0.000203	20.798949
2422.628579	-2.999500	2.755200	-8.263700	29.322366	0.000201	20.792901
2423.632063	-2.981600	2.752200	-8.204700	29.346463	0.000201	20.797274
2424.628951	-3.003000	2.749400	-8.256100	29.357961	0.000203	20.779464
2425.628638	-3.020700	2.744700	-8.289900	29.307653	0.000202	20.789927
2426.637392	-3.036800	2.742200	-8.325100	29.275604	0.000201	20.784181
2427.629589	-2.984400	2.739600	-8.175000	29.202328	0.000202	20.791417
2428.629582	-2.998000	2.735400	-8.199900	29.154944	0.000202	20.790136
2429.630048	-3.027200	2.732800	-8.271600	29.136122	0.000204	20.798670
2430.630787	-3.033000	2.729400	-8.277500	29.073500	0.000202	20.787727
2431.631019	-2.998900	2.726900	-8.177500	29.010984	0.000200	20.789224
2432.635530	-3.016900	2.721000	-8.207800	29.013166	0.000202	20.781939
2433.632001	-2.999600	2.718800	-8.154200	28.950818	0.000202	20.783133
2434.631796	-2.993900	2.716100	-8.131000	28.980535	0.000200	20.800271
2435.632377	-3.025900	2.711900	-8.205200	29.023158	0.000204	20.776834
2436.634290	-2.993600	2.709000	-8.108600	29.077123	0.000204	20.776205
2437.636621	-3.025000	2.704500	-8.180000	29.133359	0.000204	20.776919
2438.634420	-2.991600	2.702900	-8.084800	29.207850	0.000203	20.770903
2439.636567	-3.004300	2.698400	-8.106000	29.232463	0.000202	20.789069
2440.633644	-3.017600	2.694000	-8.128300	29.259080	0.000203	20.782227
2441.633627	-3.016400	2.691100	-8.116600	29.269822	0.000204	20.778354
2442.635648	-2.972700	2.687600	-7.988600	29.317334	0.000205	20.789727
2443.635591	-2.989300	2.683400	-8.020500	29.342018	0.000205	20.777620
2444.634568	-2.989200	2.679800	-8.009300	29.359541	0.000204	20.775841
2445.635385	-2.980300	2.676500	-7.975700	29.389155	0.000202	20.796679
2446.634997	-2.977000	2.672500	-7.955000	29.440718	0.000203	20.769941
2447.646415	-3.001100	2.667600	-8.004700	29.503031	0.000204	20.775852
2448.635960	-3.004500	2.663400	-8.000800	29.532286	0.000203	20.766461
2449.638235	-2.993900	2.659700	-7.961600	29.552616	0.000201	20.776049
2450.635816	-2.991800	2.655000	-7.942400	29.557069	0.000201	20.785280
2451.635965	-2.982300	2.651900	-7.907900	29.594685	0.000201	20.756343
2452.639788	-3.006700	2.647000	-7.957200	29.622258	0.000202	20.787934
2453.634421	-2.988500	2.643800	-7.899300	29.663182	0.000200	20.762809
2454.637512	-3.009300	2.638700	-7.939600	29.670310	0.000201	20.790859
2455.635298	-2.983000	2.634500	-7.857900	29.692042	0.000202	20.766301
2456.636783	-2.994600	2.630700	-7.877100	29.672460	0.000201	20.782121
2457.639006	-3.004400	2.624800	-7.885000	29.670707	0.000201	20.780353
2458.640343	-3.001200	2.620300	-7.862900	29.640350	0.000203	20.776775
2459.638346	-2.963500	2.616900	-7.753600	29.618000	0.000203	20.769417
2460.638192	-2.994300	2.610000	-7.813500	29.617310	0.000203	20.768247
2461.637552	-2.955400	2.607300	-7.704400	29.551314	0.000201	20.786591
2462.639258	-3.039200	2.599400	-7.898200	29.498106	0.000200	20.768043
2463.643798	-3.004500	2.594400	-7.794000	29.446515	0.000203	20.779577
2464.640000	-2.969900	2.591900	-7.696100	29.473206	0.000202	20.778032
2465.644702	-2.993300	2.584400	-7.734300	29.506628	0.000201	20.766677
2466.638381	-3.021300	2.576200	-7.781600	29.558425	0.000201	20.778112
2467.639900	-2.983600	2.573900	-7.678800	29.558938	0.000201	20.783371
2468.644973	-2.973400	2.569400	-7.638000	29.567704	0.000202	20.786043
2469.641291	-2.982200	2.563100	-7.642300	29.595290	0.000204	20.784455
2470.639977	-2.951900	2.557700	-7.548500	29.611226	0.000203	20.778709
2471.640334	-3.011900	2.551900	-7.684000	29.664997	0.000202	20.776967
2472.640870	-3.004700	2.544700	-7.644600	29.709676	0.000201	20.771751
2473.644152	-3.001600	2.539400	-7.620900	29.738088	0.000201	20.778112
2474.640968	-2.995500	2.532600	-7.585500	29.764253	0.000202	20.759921
2475.642204	-3.011600	2.527600	-7.611000	29.775473	0.000201	20.783562
2476.641767	-2.984200	2.521000	-7.522600	29.737918	0.000201	20.762292
2477.642545	-3.007300	2.514400	-7.560000	29.708271	0.000201	20.760377
2478.644242	-3.006900	2.506800	-7.536500	29.736092	0.000201	20.761400
2479.643862	-3.014500	2.500300	-7.535400	29.762110	0.000201	20.759657
2480.647564	-3.002000	2.495500	-7.490200	29.784707	0.000202	20.753043
