LabVIEW Measurement	
Writer_Version	2
Reader_Version	2
Separator	Tab
Decimal_Separator	.
Multi_Headings	No
X_Columns	One
Time_Pref	Absolute
Operator	admin
Description	Clolumns are: time, Current, Voltage, Power, Battery Temp, and Chamber Temp
Date	2024/08/16
Time	13:06:06.104549407958984375
***End_of_Header***	
	
Channels	6						
Samples	1	1	1	1	1	1	
Date	2024/09/04	2024/09/04	2024/09/04	2024/09/04	2024/09/04	2024/09/04	
Time	05:31:53.9245409965515136719	05:31:53.9324526786804199219	05:31:53.9384493827819824219	05:31:53.9082303047180175782	05:31:53.9082303047180175782	05:31:53.9082303047180175782	
X_Dimension	Time	Time	Time	Time	Time	Time	
X0	0.0000000000000000E+0	0.0000000000000000E+0	0.0000000000000000E+0	0.0000000000000000E+0	0.0000000000000000E+0	0.0000000000000000E+0	
Delta_X	1.000000	1.000000	1.000000	1.000000	1.000000	1.000000	
***End_of_Header***							
X_Value	Untitled	Untitled 1	Untitled 2	Untitled 3	Untitled 4	Untitled 5	Comment
0.000000	0.005639	4.101200	0.023072	21.010748	0.000918	20.768475
0.998100	-2.999600	3.933500	-11.798000	20.988502	0.000917	20.748121
2.000778	-3.036500	3.924600	-11.915000	20.981889	0.000914	20.747197
2.999116	-3.027200	3.919900	-11.864000	21.006150	0.000915	20.749177
4.000008	-2.991600	3.918900	-11.723000	20.981987	0.000915	20.745398
5.002170	-2.996500	3.913900	-11.727000	20.993898	0.000912	20.750199
6.002675	-2.983700	3.910500	-11.666000	21.001385	0.000912	20.743463
7.001832	-3.000900	3.907900	-11.725000	21.010148	0.000912	20.747960
8.001217	-3.011900	3.905500	-11.762000	21.021213	0.000908	20.755233
9.001242	-3.018600	3.903900	-11.784000	21.010891	0.000910	20.737323
10.000868	-2.997200	3.902800	-11.697000	21.001849	0.000910	20.737762
11.003746	-3.005900	3.900300	-11.722000	21.013007	0.000908	20.742758
12.000647	-3.000400	3.899100	-11.698000	21.004034	0.000906	20.721455
13.001844	-3.000700	3.897700	-11.695000	21.008643	0.000907	20.754041
14.004734	-3.000000	3.896900	-11.690000	21.012568	0.000907	20.753225
15.002380	-2.987600	3.895500	-11.637000	21.036818	0.000905	20.743340
16.004762	-2.990800	3.893700	-11.644000	21.022230	0.000904	20.753880
17.005895	-3.013200	3.892900	-11.729000	21.032503	0.000905	20.734756
18.001534	-3.013000	3.891300	-11.724000	21.036173	0.000904	20.739376
19.002362	-3.014500	3.890400	-11.726000	21.038142	0.000905	20.736604
20.004558	-3.003900	3.889600	-11.683000	21.043685	0.000904	20.748786
21.003126	-2.993600	3.889800	-11.643000	21.027190	0.000902	20.721382
22.002210	-3.022400	3.888000	-11.750000	21.053542	0.000901	20.748689
23.005589	-2.992600	3.886900	-11.631000	21.026047	0.000901	20.737783
24.004304	-3.011500	3.885500	-11.700000	21.053859	0.000902	20.741894
25.001673	-3.023200	3.885300	-11.745000	21.053748	0.000899	20.732772
26.004946	-3.004200	3.884800	-11.670000	21.045591	0.000897	20.736468
27.002420	-2.988500	3.884300	-11.607000	21.070946	0.000898	20.734801
28.002346	-2.992100	3.885100	-11.624000	21.059935	0.000898	20.732323
29.003436	-3.016400	3.882000	-11.709000	21.073947	0.000897	20.728794
30.001851	-3.017500	3.882300	-11.714000	21.089810	0.000898	20.730436
31.003860	-3.016300	3.881000	-11.705000	21.100883	0.000899	20.722546
32.004491	-2.986200	3.881800	-11.590000	21.092737	0.000897	20.725778
33.003518	-2.987800	3.881700	-11.597000	21.095484	0.000897	20.747492
34.003878	-3.003400	3.879300	-11.650000	21.097282	0.000897	20.724160
35.004865	-3.008600	3.879100	-11.668000	21.084665	0.000895	20.720548
36.004416	-2.989000	3.880800	-11.599000	21.096115	0.000896	20.731053
37.004932	-3.015500	3.877400	-11.691000	21.099419	0.000895	20.738626
38.005966	-2.991100	3.878500	-11.600000	21.122343	0.000896	20.737848
39.008175	-2.999400	3.879300	-11.634000	21.136769	0.000894	20.727622
40.008410	-3.004200	3.876100	-11.644000	21.126048	0.000896	20.721639
41.009261	-2.985800	3.877400	-11.576000	21.133705	0.000894	20.713651
42.008641	-2.972700	3.878000	-11.528000	21.148145	0.000893	20.743744
43.008940	-3.001800	3.875500	-11.632000	21.166910	0.000893	20.713201
44.009036	-2.998200	3.875700	-11.619000	21.156263	0.000894	20.725310
45.009344	-3.005900	3.874500	-11.646000	21.166143	0.000892	20.720969
46.010289	-2.992400	3.875500	-11.597000	21.182172	0.000893	20.721830
47.011438	-3.013100	3.873400	-11.670000	21.182563	0.000895	20.710366
48.016014	-3.019300	3.873700	-11.695000	21.192189	0.000892	20.734696
49.011981	-3.045600	3.872400	-11.792000	21.195312	0.000892	20.711740
50.012683	-3.006100	3.872700	-11.640000	21.191760	0.000893	20.704868
51.017148	-2.984600	3.872500	-11.557000	21.183291	0.000894	20.719630
52.015443	-3.001900	3.871900	-11.622000	21.185525	0.000891	20.701001
53.014957	-2.996000	3.872500	-11.601000	21.205955	0.000892	20.707688
54.017217	-2.985900	3.872300	-11.561000	21.191432	0.000890	20.722085
55.014704	-3.013300	3.870400	-11.662000	21.202237	0.000892	20.725307
56.012971	-2.991700	3.871600	-11.582000	21.224137	0.000892	20.677985
57.018331	-2.998600	3.871100	-11.606000	21.226835	0.000891	20.709610
58.015074	-3.002900	3.870300	-11.619000	21.240702	0.000891	20.705938
59.017480	-3.021000	3.870700	-11.693000	21.233944	0.000891	20.711032
60.021301	-3.006700	3.870300	-11.636000	21.262891	0.000890	20.712015
61.018362	-2.993600	3.870400	-11.585000	21.239716	0.000889	20.692148
62.015352	-3.002000	3.868900	-11.614000	21.253837	0.000890	20.731408
63.019875	-3.003100	3.868400	-11.615000	21.281243	0.000890	20.734170
64.021127	-3.006500	3.868200	-11.627000	21.282832	0.000892	20.723431
65.017827	-3.006800	3.868200	-11.629000	21.277584	0.000889	20.736199
66.021648	-3.002800	3.868200	-11.615000	21.289043	0.000888	20.688389
67.020236	-2.994400	3.867500	-11.578000	21.294779	0.000889	20.708828
68.019057	-3.009500	3.867200	-11.636000	21.306554	0.000889	20.696900
69.021463	-3.018300	3.866300	-11.668000	21.326083	0.000888	20.700792
70.020861	-3.003700	3.867100	-11.613000	21.323142	0.000888	20.722981
71.020321	-2.997500	3.866300	-11.588000	21.327031	0.000890	20.706956
72.023328	-3.020000	3.865600	-11.674000	21.314914	0.000891	20.710007
73.031185	-3.014100	3.866200	-11.652000	21.335949	0.000888	20.726785
74.031650	-3.001200	3.864400	-11.595000	21.362186	0.000889	20.716049
75.023905	-3.001400	3.864300	-11.596000	21.367022	0.000890	20.713302
76.024991	-2.986600	3.866100	-11.545000	21.380644	0.000889	20.710335
77.023025	-3.009600	3.864500	-11.629000	21.387558	0.000890	20.688326
78.027920	-3.011500	3.864100	-11.636000	21.381264	0.000888	20.715697
79.025494	-3.018100	3.863500	-11.658000	21.396537	0.000890	20.712486
80.021574	-3.006800	3.863100	-11.615000	21.425216	0.000888	20.704195
81.028569	-2.999800	3.863800	-11.589000	21.406538	0.000889	20.679341
82.026332	-3.013600	3.863200	-11.642000	21.420658	0.000889	20.712437
83.025480	-3.002200	3.863300	-11.597000	21.398639	0.000891	20.700837
84.027471	-2.996800	3.862000	-11.573000	21.421835	0.000889	20.687535
85.025958	-2.998900	3.863100	-11.583000	21.429066	0.000890	20.710418
86.028472	-2.978500	3.863800	-11.507000	21.422978	0.000889	20.694369
87.035904	-3.015800	3.862200	-11.647000	21.433683	0.000891	20.697019
88.028897	-2.979100	3.862600	-11.504000	21.434279	0.000890	20.699512
89.026246	-2.979500	3.863700	-11.511000	21.467402	0.000890	20.691402
90.028172	-2.983800	3.862600	-11.524000	21.453454	0.000890	20.718225
91.030604	-2.993200	3.862200	-11.560000	21.467803	0.000888	20.689432
92.031540	-2.967200	3.861800	-11.457000	21.471256	0.000890	20.685774
93.030198	-2.985100	3.862500	-11.528000	21.474378	0.000889	20.696960
94.030377	-3.002000	3.862000	-11.592000	21.478144	0.000890	20.669432
95.028937	-2.980200	3.860700	-11.505000	21.487451	0.000889	20.689177
96.033881	-2.993400	3.861000	-11.557000	21.486880	0.000889	20.675328
97.032039	-3.004400	3.859800	-11.594000	21.512751	0.000890	20.693630
98.030581	-2.990900	3.859500	-11.542000	21.499542	0.000891	20.692741
99.037373	-2.993800	3.859300	-11.553000	21.522834	0.000892	20.671001
100.031083	-2.986700	3.860700	-11.530000	21.525447	0.000889	20.682151
101.034177	-3.006700	3.860000	-11.605000	21.521427	0.000891	20.680499
102.032417	-3.012800	3.858000	-11.622000	21.522751	0.000890	20.671391
103.031474	-2.994600	3.858700	-11.554000	21.505887	0.000893	20.690555
104.030103	-2.986900	3.857900	-11.522000	21.536492	0.000892	20.721182
105.031561	-2.983400	3.860000	-11.515000	21.536454	0.000892	20.688424
106.031829	-3.008700	3.857200	-11.603000	21.540259	0.000892	20.699819
107.030801	-2.995700	3.857100	-11.553000	21.555070	0.000892	20.699941
108.033499	-2.975600	3.859000	-11.482000	21.554220	0.000893	20.687709
109.034720	-2.989900	3.857600	-11.533000	21.574194	0.000892	20.708173
110.032529	-2.991300	3.858200	-11.540000	21.570257	0.000894	20.686688
111.033288	-2.986400	3.857000	-11.518000	21.592987	0.000894	20.680509
112.033359	-2.996200	3.856800	-11.555000	21.603108	0.000894	20.674990
113.032430	-2.998700	3.857200	-11.566000	21.626447	0.000893	20.682225
114.034308	-3.002500	3.855500	-11.575000	21.620991	0.000893	20.712803
115.032878	-3.017000	3.855100	-11.630000	21.625754	0.000894	20.673469
116.031644	-2.965000	3.857400	-11.436000	21.644208	0.000894	20.684352
117.033111	-2.998400	3.854500	-11.555000	21.605829	0.000895	20.682929
118.036915	-2.989900	3.855500	-11.526000	21.654593	0.000893	20.718455
119.032384	-3.000000	3.855500	-11.566000	21.652966	0.000896	20.689324
120.034642	-2.993100	3.856500	-11.542000	21.640100	0.000894	20.668386
121.035820	-2.991700	3.854800	-11.531000	21.657241	0.000894	20.680798
122.033927	-3.000900	3.854200	-11.564000	21.646490	0.000894	20.697542
123.035606	-3.000500	3.854200	-11.564000	21.664519	0.000895	20.677650
124.035730	-2.989400	3.854900	-11.523000	21.670932	0.000894	20.661781
125.034889	-3.008400	3.853000	-11.591000	21.676120	0.000897	20.667922
126.039496	-3.015800	3.854000	-11.622000	21.678781	0.000896	20.681492
127.037884	-2.992800	3.854200	-11.532000	21.679036	0.000896	20.662304
128.036832	-3.013200	3.852300	-11.606000	21.710999	0.000896	20.682915
129.040528	-3.010600	3.852300	-11.597000	21.710950	0.000898	20.666269
130.041245	-3.010100	3.851800	-11.591000	21.714266	0.000898	20.673856
131.038406	-2.998000	3.852100	-11.547000	21.716708	0.000896	20.652116
132.043809	-2.998500	3.853000	-11.553000	21.739815	0.000897	20.666708
133.042553	-3.013600	3.851500	-11.605000	21.760431	0.000898	20.686869
134.039372	-2.990700	3.852500	-11.519000	21.748016	0.000897	20.669700
135.041549	-2.985000	3.851800	-11.496000	21.743351	0.000897	20.660289
136.040677	-2.979600	3.851400	-11.474000	21.744323	0.000898	20.690188
137.040249	-2.983800	3.851900	-11.491000	21.727902	0.000899	20.655732
138.040874	-2.990900	3.851100	-11.516000	21.748347	0.000899	20.670506
139.041420	-2.996400	3.850400	-11.536000	21.737001	0.000901	20.674798
140.040573	-2.980800	3.850600	-11.476000	21.765412	0.000898	20.668619
141.041058	-3.012000	3.849600	-11.594000	21.755868	0.000900	20.666653
142.041524	-2.995400	3.850900	-11.534000	21.781705	0.000901	20.677340
143.041178	-2.988000	3.850400	-11.504000	21.789783	0.000901	20.674993
144.040917	-2.970300	3.851600	-11.439000	21.779897	0.000901	20.666046
145.042325	-3.004000	3.849000	-11.561000	21.806294	0.000902	20.673975
146.050185	-2.982900	3.849200	-11.480000	21.781865	0.000900	20.690304
147.041988	-2.993200	3.848900	-11.519000	21.831597	0.000901	20.681758
148.044760	-2.997400	3.849900	-11.539000	21.818284	0.000903	20.669854
149.043801	-3.003500	3.848600	-11.557000	21.820047	0.000900	20.675886
150.043602	-2.994700	3.849800	-11.528000	21.827832	0.000902	20.658072
151.043658	-2.995300	3.848000	-11.525000	21.820047	0.000901	20.663083
152.043326	-3.000900	3.847100	-11.544000	21.837359	0.000904	20.673299
153.046705	-2.985800	3.848800	-11.491000	21.826244	0.000904	20.661699
154.043302	-3.015800	3.847400	-11.602000	21.839630	0.000903	20.656604
155.043516	-2.981600	3.848900	-11.473000	21.832172	0.000904	20.676169
156.044488	-3.003800	3.846500	-11.553000	21.843713	0.000904	20.661640
157.043137	-2.980500	3.847500	-11.467000	21.850017	0.000906	20.672219
158.044959	-2.988900	3.846300	-11.493000	21.894815	0.000906	20.685291
159.044394	-3.010400	3.845400	-11.574000	21.913240	0.000905	20.666274
160.045459	-2.999200	3.846600	-11.536000	21.919788	0.000904	20.663819
161.047249	-2.992400	3.847300	-11.512000	21.955994	0.000907	20.664499
162.044819	-2.992300	3.845800	-11.506000	21.943887	0.000907	20.662337
163.044766	-2.994900	3.845400	-11.515000	21.951793	0.000906	20.657923
164.045432	-2.993100	3.845400	-11.508000	21.950059	0.000906	20.653341
165.045849	-3.007900	3.844400	-11.562000	21.969480	0.000907	20.667568
166.048458	-2.989900	3.844900	-11.493000	21.959655	0.000906	20.660577
167.045182	-2.990300	3.845500	-11.495000	21.953413	0.000906	20.666658
168.046188	-2.988700	3.845000	-11.490000	21.991175	0.000909	20.648505
169.047075	-2.991500	3.845400	-11.503000	22.007220	0.000908	20.671683
170.046894	-2.967400	3.844600	-11.407000	22.019618	0.000908	20.667024
171.048470	-3.010200	3.842500	-11.566000	21.992878	0.000911	20.652108
172.047971	-3.016400	3.843200	-11.591000	21.988713	0.000909	20.671174
173.045874	-3.005300	3.843700	-11.551000	22.010466	0.000910	20.650748
174.045432	-2.981300	3.844400	-11.460000	21.990802	0.000910	20.662359
175.047445	-3.012600	3.842400	-11.574000	21.985509	0.000912	20.660853
176.046566	-2.986300	3.843700	-11.478000	22.003229	0.000911	20.646348
177.046837	-2.999200	3.842800	-11.524000	22.017028	0.000914	20.668224
178.047189	-3.005500	3.843300	-11.551000	21.991792	0.000912	20.665721
179.047873	-3.003400	3.842400	-11.539000	22.025300	0.000911	20.626239
180.048465	-3.006300	3.841500	-11.546000	21.990239	0.000913	20.615796
181.048704	-2.996300	3.842200	-11.511000	22.011192	0.000915	20.660010
182.047769	-2.993100	3.842700	-11.499000	22.012491	0.000915	20.644713
183.049206	-3.000800	3.840500	-11.523000	22.007939	0.000915	20.653908
184.049809	-2.983600	3.842200	-11.463000	22.037817	0.000915	20.658215
185.048826	-2.994100	3.840800	-11.498000	22.024023	0.000914	20.650568
186.047312	-2.988600	3.840500	-11.476000	22.024521	0.000918	20.661974
187.048553	-3.030800	3.839900	-11.637000	22.057484	0.000918	20.641865
188.049368	-3.009600	3.840900	-11.557000	22.063095	0.000917	20.648431
189.049553	-3.017600	3.839600	-11.585000	22.069545	0.000917	20.632126
190.049285	-3.010300	3.839100	-11.556000	22.053358	0.000916	20.656228
191.048036	-2.993100	3.840500	-11.494000	22.059212	0.000918	20.652605
192.048871	-3.000300	3.840700	-11.521000	22.037766	0.000917	20.651524
193.049314	-3.027300	3.838100	-11.618000	22.053118	0.000920	20.646503
194.049387	-2.983900	3.841200	-11.459000	22.053992	0.000920	20.649750
195.050917	-3.013400	3.839200	-11.568000	22.073352	0.000921	20.670082
196.050685	-3.012100	3.839600	-11.564000	22.076925	0.000920	20.631929
197.050439	-3.001100	3.839100	-11.520000	22.099805	0.000922	20.659106
198.049619	-2.993100	3.838300	-11.487000	22.085743	0.000920	20.645974
199.051593	-2.986000	3.840400	-11.465000	22.117573	0.000921	20.680215
200.051533	-3.006300	3.837700	-11.536000	22.112109	0.000925	20.628271
201.050270	-2.999300	3.837500	-11.508000	22.151672	0.000925	20.655556
202.050256	-3.009800	3.836500	-11.546000	22.147351	0.000924	20.664507
203.051850	-2.989700	3.838000	-11.474000	22.134432	0.000925	20.659158
204.051164	-2.991900	3.837000	-11.480000	22.166904	0.000923	20.646149
205.053124	-2.981700	3.837700	-11.442000	22.167026	0.000925	20.651962
206.054060	-3.007400	3.836000	-11.536000	22.183201	0.000926	20.641128
207.052454	-2.988400	3.836400	-11.463000	22.195006	0.000926	20.640619
208.054557	-3.019200	3.834600	-11.576000	22.195177	0.000928	20.642213
209.054400	-2.983200	3.837000	-11.446000	22.200630	0.000928	20.643406
210.053415	-3.026100	3.835200	-11.605000	22.226374	0.000926	20.654009
211.053333	-3.004100	3.835300	-11.522000	22.228014	0.000927	20.668929
212.053054	-2.993100	3.835900	-11.480000	22.222902	0.000927	20.646265
213.052949	-3.013700	3.834500	-11.554000	22.245087	0.000927	20.667057
214.055048	-3.020400	3.834400	-11.580000	22.230953	0.000928	20.634410
215.054059	-3.008300	3.834100	-11.534000	22.224626	0.000928	20.645146
216.055081	-2.974000	3.835600	-11.406000	22.236660	0.000930	20.644867
217.055500	-3.005900	3.834000	-11.523000	22.261616	0.000931	20.643776
218.055758	-3.005100	3.833900	-11.519000	22.282560	0.000931	20.647203
219.054080	-2.992600	3.835600	-11.476000	22.274558	0.000932	20.654365
220.055898	-3.001600	3.833500	-11.506000	22.275920	0.000931	20.646245
221.054385	-3.028900	3.831400	-11.603000	22.270018	0.000930	20.656932
222.056193	-3.003000	3.832200	-11.507000	22.261265	0.000933	20.649114
223.055140	-3.009900	3.832800	-11.535000	22.273469	0.000933	20.637151
224.055179	-3.012900	3.831600	-11.543000	22.290297	0.000932	20.665858
225.055744	-3.000600	3.832700	-11.499000	22.310541	0.000932	20.629700
226.055140	-2.994800	3.833400	-11.479000	22.313963	0.000934	20.649251
227.054878	-2.992000	3.832200	-11.465000	22.326192	0.000935	20.638735
228.057869	-3.014800	3.831800	-11.551000	22.296544	0.000934	20.660734
229.058870	-3.000100	3.832000	-11.495000	22.338434	0.000935	20.655737
230.057669	-2.998700	3.831100	-11.486000	22.316179	0.000935	20.639614
231.058049	-3.011000	3.830800	-11.534000	22.336906	0.000938	20.674123
232.059402	-3.005300	3.830900	-11.512000	22.333459	0.000936	20.646487
233.057898	-3.000200	3.831100	-11.493000	22.343306	0.000938	20.634534
234.059704	-3.003700	3.831200	-11.507000	22.323613	0.000939	20.634255
235.060507	-2.987300	3.830500	-11.442000	22.316232	0.000938	20.661006
236.060077	-2.989800	3.830200	-11.450000	22.307541	0.000939	20.641397
237.060369	-3.032300	3.828600	-11.609000	22.311246	0.000940	20.662653
238.061231	-3.012000	3.830800	-11.537000	22.278636	0.000940	20.661294
239.061598	-3.018900	3.828100	-11.556000	22.299823	0.000940	20.650739
240.060470	-3.012900	3.828500	-11.533000	22.280398	0.000940	20.642193
241.062397	-3.013700	3.827800	-11.535000	22.288462	0.000942	20.645052
242.061532	-2.999900	3.829200	-11.486000	22.319925	0.000941	20.648107
243.062674	-3.009300	3.828400	-11.520000	22.343928	0.000943	20.656497
244.063836	-2.990900	3.830800	-11.456000	22.352490	0.000941	20.651793
245.064570	-2.980600	3.828100	-11.409000	22.346021	0.000944	20.663335
246.063710	-2.995000	3.827500	-11.462000	22.385869	0.000943	20.650131
247.062809	-3.006400	3.828700	-11.509000	22.408718	0.000944	20.647882
248.063363	-3.010100	3.827500	-11.520000	22.407410	0.000945	20.659375
249.063114	-3.005800	3.826700	-11.502000	22.414087	0.000945	20.658001
250.063574	-2.993600	3.827200	-11.457000	22.439269	0.000946	20.667573
251.066725	-2.982900	3.827100	-11.414000	22.452092	0.000947	20.661921
252.065734	-3.010300	3.827300	-11.520000	22.469697	0.000948	20.659163
253.063556	-2.984900	3.826700	-11.421000	22.475222	0.000944	20.663275
254.065062	-2.967300	3.827200	-11.355000	22.476560	0.000947	20.640429
255.065265	-2.992000	3.825800	-11.446000	22.503937	0.000949	20.655995
256.065330	-2.989100	3.828000	-11.440000	22.490450	0.000947	20.648652
257.065096	-3.014000	3.825100	-11.528000	22.495610	0.000947	20.658087
258.064273	-2.984200	3.827200	-11.420000	22.509852	0.000947	20.655755
259.064984	-2.997900	3.824800	-11.466000	22.509588	0.000949	20.677778
260.065690	-3.019000	3.824200	-11.543000	22.527579	0.000949	20.652645
261.069892	-2.984500	3.825900	-11.418000	22.512111	0.000950	20.657544
262.067735	-2.991900	3.823700	-11.439000	22.546228	0.000949	20.660892
263.066860	-3.011900	3.824200	-11.517000	22.546857	0.000952	20.650142
264.068334	-3.009200	3.824800	-11.508000	22.536710	0.000952	20.653730
265.067572	-3.012200	3.823900	-11.516000	22.534079	0.000950	20.669589
266.068294	-3.001300	3.823800	-11.475000	22.563592	0.000953	20.668327
267.069271	-3.001100	3.822900	-11.471000	22.549463	0.000951	20.648958
268.067505	-3.014200	3.822600	-11.522000	22.534884	0.000953	20.674189
269.067805	-3.004100	3.823300	-11.485000	22.563763	0.000954	20.662808
270.068991	-3.016200	3.822200	-11.528000	22.552962	0.000956	20.661947
271.068112	-2.993600	3.823000	-11.442000	22.566667	0.000955	20.645799
272.069419	-3.015300	3.821500	-11.522000	22.573890	0.000957	20.665838
273.069227	-3.020500	3.821200	-11.542000	22.548994	0.000955	20.662240
274.069165	-2.992700	3.821700	-11.436000	22.549833	0.000954	20.662606
275.068436	-2.998100	3.820600	-11.453000	22.545050	0.000957	20.656867
276.070122	-2.999800	3.821300	-11.462000	22.533350	0.000960	20.658900
277.071231	-3.002800	3.822700	-11.478000	22.572684	0.000957	20.678856
278.070554	-2.984200	3.821500	-11.403000	22.565450	0.000956	20.682043
279.071174	-2.992600	3.822100	-11.436000	22.544815	0.000959	20.660425
280.072043	-3.004200	3.820700	-11.477000	22.565440	0.000957	20.671601
281.072482	-2.998000	3.820500	-11.452000	22.572580	0.000959	20.672588
282.069720	-2.983800	3.820000	-11.397000	22.603025	0.000961	20.657560
283.071187	-2.997000	3.820000	-11.448000	22.611209	0.000959	20.653429
284.071130	-3.023700	3.818800	-11.545000	22.605612	0.000960	20.663945
285.072306	-3.008200	3.819700	-11.489000	22.626954	0.000962	20.670622
286.072854	-3.003600	3.819500	-11.472000	22.634991	0.000962	20.675829
287.073400	-3.013600	3.818700	-11.507000	22.659622	0.000961	20.666833
288.073814	-3.002400	3.816800	-11.457000	22.654185	0.000960	20.689839
289.073993	-2.995000	3.818200	-11.435000	22.670729	0.000963	20.671321
290.075058	-2.996500	3.817200	-11.436000	22.660256	0.000961	20.681694
291.075489	-3.035500	3.815800	-11.582000	22.683949	0.000964	20.676503
292.075110	-3.006500	3.816600	-11.474000	22.672603	0.000965	20.685053
293.075892	-2.991700	3.817800	-11.420000	22.696442	0.000962	20.702295
294.077375	-3.023600	3.816600	-11.538000	22.688639	0.000963	20.665077
295.080257	-3.004400	3.816800	-11.466000	22.707041	0.000964	20.662173
296.083311	-3.017500	3.814700	-11.510000	22.713073	0.000966	20.679123
297.076155	-3.015400	3.815400	-11.504000	22.709130	0.000965	20.690347
298.082379	-3.020200	3.815000	-11.521000	22.712687	0.000967	20.690591
299.083117	-3.017100	3.814900	-11.508000	22.732714	0.000967	20.689789
300.076662	-3.019200	3.814100	-11.515000	22.747266	0.000969	20.649360
301.078212	-3.000200	3.816400	-11.448000	22.749174	0.000969	20.664075
302.076323	-3.000800	3.815800	-11.450000	22.756723	0.000972	20.700564
303.079223	-3.000500	3.814600	-11.445000	22.755596	0.000973	20.677147
304.079717	-3.001600	3.815100	-11.450000	22.731358	0.000970	20.670410
305.078807	-3.008200	3.814000	-11.473000	22.751375	0.000970	20.674815
306.082296	-3.012600	3.814200	-11.490000	22.728107	0.000972	20.688968
307.084940	-2.968900	3.814200	-11.322000	22.757601	0.000973	20.700021
308.089369	-2.982700	3.813500	-11.374000	22.767590	0.000973	20.696276
309.081362	-2.992500	3.812800	-11.409000	22.753380	0.000973	20.684411
310.082053	-2.978000	3.814200	-11.358000	22.766028	0.000974	20.677640
311.086066	-2.982600	3.813000	-11.372000	22.729034	0.000974	20.705544
312.089239	-3.005700	3.812500	-11.458000	22.744889	0.000975	20.678750
313.088168	-2.981100	3.814200	-11.369000	22.749388	0.000974	20.669980
314.081093	-3.018600	3.812400	-11.507000	22.757718	0.000975	20.702983
315.084478	-3.010000	3.811900	-11.473000	22.772767	0.000977	20.680123
316.084848	-2.976900	3.811900	-11.346000	22.778740	0.000978	20.680417
317.083049	-3.001300	3.810300	-11.435000	22.743020	0.000976	20.675455
318.083495	-2.985600	3.813100	-11.382000	22.741760	0.000975	20.683677
319.085491	-2.995700	3.811400	-11.416000	22.723690	0.000977	20.680275
320.084700	-2.965700	3.811800	-11.304000	22.728946	0.000976	20.690282
321.084260	-2.993600	3.810700	-11.407000	22.746640	0.000978	20.695679
322.083747	-2.985100	3.810800	-11.374000	22.740950	0.000978	20.705627
323.086830	-2.962700	3.811900	-11.293000	22.768829	0.000977	20.682817
324.084396	-3.010100	3.808600	-11.463000	22.768721	0.000979	20.690296
325.085246	-3.005900	3.809300	-11.449000	22.829599	0.000978	20.683476
326.086741	-3.006600	3.810400	-11.456000	22.814053	0.000980	20.694456
327.092152	-3.002600	3.809300	-11.437000	22.799224	0.000981	20.684816
328.087596	-3.004600	3.808600	-11.442000	22.793725	0.000980	20.711552
329.087137	-3.033500	3.807400	-11.549000	22.840753	0.000981	20.699868
330.091841	-2.993600	3.808200	-11.399000	22.828413	0.000981	20.694143
331.089440	-2.986500	3.807500	-11.370000	22.862452	0.000982	20.696475
332.091403	-2.999500	3.807200	-11.419000	22.820464	0.000983	20.694715
333.091308	-3.007400	3.806400	-11.445000	22.843910	0.000983	20.707298
334.091260	-3.003900	3.806800	-11.434000	22.833488	0.000984	20.700176
335.094413	-2.989700	3.807400	-11.382000	22.831775	0.000981	20.694192
336.091859	-2.998900	3.806900	-11.415000	22.809895	0.000983	20.699775
337.090290	-2.990500	3.808100	-11.386000	22.855138	0.000982	20.700528
338.092002	-2.989200	3.806100	-11.375000	22.832541	0.000984	20.695908
339.089762	-3.003800	3.805300	-11.428000	22.863696	0.000984	20.713844
340.092637	-3.006100	3.805200	-11.438000	22.849883	0.000986	20.709014
341.093379	-3.009600	3.805400	-11.451000	22.879193	0.000985	20.693332
342.091541	-3.020200	3.804200	-11.488000	22.880759	0.000986	20.716713
343.091572	-3.003000	3.805100	-11.426000	22.873538	0.000984	20.712324
344.091870	-3.024000	3.804100	-11.503000	22.911122	0.000988	20.698768
345.092926	-3.021100	3.803400	-11.490000	22.917333	0.000987	20.698826
346.092762	-2.976700	3.803700	-11.321000	22.921388	0.000988	20.698147
347.093957	-3.007800	3.802900	-11.437000	22.930516	0.000988	20.713458
348.096829	-3.011800	3.803900	-11.456000	22.910166	0.000989	20.674574
349.095118	-3.013200	3.803100	-11.458000	22.971192	0.000987	20.698259
350.094693	-3.005600	3.803200	-11.430000	22.979311	0.000989	20.689323
351.096116	-3.012700	3.801400	-11.452000	22.972578	0.000989	20.710080
352.095935	-3.019800	3.802200	-11.481000	22.981970	0.000990	20.716645
353.096054	-3.014700	3.802700	-11.462000	22.997952	0.000989	20.710847
354.098450	-3.002700	3.801500	-11.414000	22.966391	0.000991	20.704355
355.096605	-3.007800	3.801100	-11.431000	22.972119	0.000993	20.713888
356.097236	-3.004000	3.801200	-11.417000	22.996791	0.000993	20.715374
357.100011	-2.998800	3.801400	-11.398000	22.997313	0.000991	20.713051
358.096052	-2.989400	3.801400	-11.363000	22.995664	0.000991	20.719934
359.096928	-3.018300	3.800700	-11.469000	22.992961	0.000992	20.711536
360.100222	-2.997200	3.800600	-11.390000	22.987912	0.000993	20.720702
361.096925	-2.996700	3.800500	-11.388000	22.984867	0.000993	20.706271
362.101560	-2.997200	3.800400	-11.390000	22.995391	0.000996	20.729618
363.099513	-2.991400	3.799300	-11.364000	22.981447	0.000993	20.712802
364.097156	-3.008700	3.799400	-11.429000	23.003958	0.000995	20.714493
365.098136	-2.991500	3.800400	-11.367000	23.003440	0.000995	20.713975
366.102612	-2.993000	3.799100	-11.370000	22.999689	0.000997	20.703103
367.098782	-3.003700	3.798000	-11.407000	23.036664	0.000997	20.715021
368.098796	-3.019100	3.796700	-11.462000	23.053773	0.000999	20.725526
369.103014	-3.003600	3.798700	-11.409000	23.073140	0.000997	20.719328
370.102368	-3.006400	3.798200	-11.418000	23.075906	0.000998	20.712142
371.102033	-3.019600	3.797400	-11.466000	23.079014	0.000998	20.730904
372.100623	-3.011500	3.795900	-11.430000	23.096708	0.001001	20.724451
373.103222	-2.998700	3.796300	-11.382000	23.094971	0.000998	20.714649
374.101294	-3.008200	3.797000	-11.421000	23.124772	0.001000	20.723649
375.111697	-2.989500	3.796200	-11.348000	23.142680	0.001000	20.739224
376.104496	-2.996600	3.796300	-11.375000	23.145207	0.000998	20.713779
377.103858	-2.981200	3.795800	-11.315000	23.152319	0.000999	20.725648
378.112770	-2.994400	3.795300	-11.364000	23.169524	0.001000	20.722500
379.106107	-3.008000	3.795000	-11.414000	23.146616	0.001002	20.723253
380.103432	-3.011600	3.795400	-11.430000	23.140675	0.001001	20.731524
381.102682	-2.988600	3.796500	-11.345000	23.141124	0.001001	20.727706
382.107323	-3.001800	3.793400	-11.386000	23.145904	0.001000	20.716375
383.102383	-3.014700	3.793700	-11.435000	23.142304	0.001002	20.729838
384.103266	-3.008100	3.793800	-11.411000	23.162324	0.001002	20.729984
385.106475	-3.020600	3.793100	-11.455000	23.148553	0.001001	20.715710
386.102376	-3.028800	3.792700	-11.485000	23.162724	0.001002	20.742714
387.103569	-3.015000	3.792300	-11.433000	23.180962	0.001003	20.736334
388.104729	-3.004600	3.793200	-11.396000	23.189031	0.001002	20.730669
389.101899	-3.012600	3.791600	-11.422000	23.194430	0.001002	20.746986
390.103509	-2.993300	3.793200	-11.353000	23.169899	0.001006	20.737102
391.106889	-3.000900	3.791800	-11.378000	23.169597	0.001003	20.741540
392.102463	-2.991900	3.792100	-11.345000	23.201859	0.001005	20.736412
393.103793	-2.996200	3.791700	-11.360000	23.181309	0.001006	20.750432
394.107738	-2.994900	3.791000	-11.353000	23.211215	0.001005	20.756694
395.106911	-2.989200	3.791700	-11.333000	23.208898	0.001006	20.737776
396.106694	-3.002900	3.790500	-11.380000	23.226517	0.001006	20.750217
397.108733	-3.005500	3.790500	-11.391000	23.221761	0.001007	20.745925
398.106496	-3.008500	3.789900	-11.401000	23.225473	0.001006	20.710762
399.105565	-3.001200	3.790500	-11.374000	23.215307	0.001007	20.732819
400.109533	-2.986100	3.790500	-11.316000	23.241598	0.001007	20.751581
401.106122	-3.015700	3.789100	-11.425000	23.199406	0.001010	20.729212
402.105376	-3.002500	3.788000	-11.373000	23.221146	0.001010	20.760009
403.111598	-2.998300	3.789200	-11.360000	23.248008	0.001010	20.730502
404.107030	-2.994200	3.789400	-11.345000	23.240999	0.001010	20.747661
405.106268	-2.995500	3.788200	-11.347000	23.260275	0.001010	20.757970
406.109544	-3.003500	3.788800	-11.379000	23.275552	0.001009	20.757633
407.106330	-2.998800	3.786700	-11.354000	23.268211	0.001012	20.739844
408.107306	-2.994200	3.787500	-11.339000	23.256870	0.001010	20.754084
409.109057	-3.014500	3.786300	-11.413000	23.220863	0.001011	20.730326
410.107323	-2.993700	3.786500	-11.335000	23.253490	0.001009	20.754964
411.107609	-3.017000	3.785400	-11.419000	23.260173	0.001012	20.743642
412.109749	-3.001600	3.786100	-11.362000	23.260163	0.001012	20.741736
413.108137	-2.997600	3.786100	-11.347000	23.259934	0.001013	20.767585
414.107344	-2.994000	3.785400	-11.333000	23.258856	0.001011	20.733787
415.109170	-2.995300	3.785700	-11.338000	23.274932	0.001012	20.760331
416.110498	-2.983700	3.786800	-11.297000	23.291272	0.001013	20.762008
417.108134	-3.009100	3.784300	-11.386000	23.311655	0.001010	20.754935
418.110814	-2.983200	3.784300	-11.286000	23.327038	0.001013	20.765137
419.110334	-2.988700	3.785200	-11.312000	23.320536	0.001012	20.745818
420.110770	-2.997000	3.783700	-11.339000	23.317361	0.001014	20.752593
421.113278	-3.003100	3.783500	-11.361000	23.336627	0.001013	20.745349
422.110968	-3.017400	3.783300	-11.415000	23.352687	0.001014	20.750066
423.112478	-3.007400	3.783700	-11.378000	23.349815	0.001014	20.760463
424.116466	-2.992500	3.781400	-11.315000	23.371128	0.001013	20.765230
425.111337	-2.985400	3.783000	-11.293000	23.356028	0.001014	20.752940
426.110315	-3.020200	3.782300	-11.421000	23.361052	0.001013	20.756079
427.112876	-2.998800	3.781800	-11.340000	23.366295	0.001015	20.778404
428.114886	-3.017100	3.781500	-11.408000	23.381116	0.001016	20.768128
429.112274	-3.006400	3.781700	-11.368000	23.380390	0.001015	20.782573
430.111827	-3.021000	3.782200	-11.425000	23.398357	0.001016	20.756010
431.112693	-3.005200	3.780100	-11.359000	23.384360	0.001016	20.747197
432.113960	-3.007700	3.781500	-11.372000	23.395591	0.001017	20.782637
433.113593	-2.993900	3.780800	-11.318000	23.406072	0.001017	20.764218
434.112453	-3.026400	3.779700	-11.438000	23.402800	0.001017	20.796026
435.113753	-2.995900	3.780600	-11.325000	23.426901	0.001017	20.748111
436.111699	-3.014600	3.779500	-11.393000	23.427487	0.001017	20.761500
437.113661	-2.994600	3.778600	-11.314000	23.442951	0.001017	20.777001
438.113556	-2.988000	3.779500	-11.292000	23.461922	0.001018	20.787007
439.113805	-3.018100	3.777700	-11.401000	23.478298	0.001018	20.771653
440.113741	-2.997500	3.779300	-11.327000	23.469685	0.001019	20.769659
441.114743	-3.007700	3.778400	-11.363000	23.498955	0.001019	20.767229
442.120510	-3.026900	3.777800	-11.433000	23.475752	0.001019	20.784275
443.115141	-3.010200	3.777300	-11.369000	23.473631	0.001018	20.771717
444.114616	-3.000600	3.777100	-11.333000	23.479332	0.001019	20.779328
445.116902	-2.977000	3.777000	-11.244000	23.486061	0.001018	20.775168
446.116217	-3.012200	3.776500	-11.375000	23.475586	0.001020	20.775574
447.120026	-2.989500	3.776200	-11.288000	23.500013	0.001020	20.776351
448.118145	-2.992400	3.775900	-11.298000	23.532398	0.001020	20.779416
449.117966	-3.001300	3.775800	-11.329000	23.515067	0.001021	20.785751
450.117326	-3.008500	3.775100	-11.356000	23.528000	0.001021	20.756514
451.117225	-3.000200	3.775500	-11.326000	23.516998	0.001021	20.765401
452.118206	-3.002200	3.775800	-11.335000	23.518466	0.001023	20.778727
453.118387	-3.003000	3.774700	-11.335000	23.523294	0.001023	20.787834
454.121890	-3.016700	3.774500	-11.385000	23.518154	0.001022	20.763715
455.119369	-3.012600	3.773900	-11.368000	23.493908	0.001023	20.782085
456.118865	-3.004600	3.773000	-11.335000	23.461015	0.001023	20.796530
457.122782	-3.005500	3.773100	-11.338000	23.512020	0.001024	20.795024
458.119130	-2.991100	3.773300	-11.285000	23.525035	0.001024	20.800485
459.125208	-2.993200	3.773700	-11.294000	23.496717	0.001023	20.781108
460.120850	-3.003200	3.772800	-11.330000	23.486433	0.001022	20.797826
461.122845	-2.986700	3.773700	-11.269000	23.479132	0.001025	20.777706
462.121512	-2.980900	3.772700	-11.245000	23.494840	0.001026	20.785864
463.120915	-2.999200	3.770100	-11.306000	23.491510	0.001026	20.782052
464.120269	-2.997400	3.772200	-11.306000	23.505335	0.001025	20.790694
465.121396	-2.998600	3.771200	-11.307000	23.529761	0.001025	20.773453
466.122455	-3.014900	3.769300	-11.362000	23.519116	0.001025	20.812569
467.121375	-3.000300	3.771000	-11.313000	23.519418	0.001025	20.782052
468.121128	-2.999400	3.769900	-11.305000	23.522875	0.001026	20.800690
469.126729	-2.990700	3.770000	-11.274000	23.528893	0.001025	20.789179
470.121998	-3.007100	3.768400	-11.330000	23.534111	0.001025	20.795358
471.123756	-3.003400	3.770000	-11.322000	23.562574	0.001025	20.791173
472.123753	-3.008700	3.769000	-11.339000	23.553855	0.001025	20.808512
473.124886	-2.977300	3.769500	-11.221000	23.578378	0.001026	20.823137
474.125684	-2.986400	3.768200	-11.253000	23.587828	0.001027	20.790411
475.131097	-3.013000	3.767100	-11.349000	23.593382	0.001025	20.823005
476.129178	-2.994500	3.768100	-11.283000	23.588194	0.001027	20.829658
477.125514	-3.015900	3.765300	-11.354000	23.598136	0.001026	20.790313
478.128461	-3.018200	3.767100	-11.369000	23.583766	0.001025	20.811469
479.131660	-2.991900	3.767500	-11.271000	23.604519	0.001027	20.812833
480.127458	-2.980700	3.767300	-11.228000	23.625730	0.001026	20.791897
481.130212	-2.985400	3.767500	-11.245000	23.653464	0.001028	20.800261
482.135061	-2.986900	3.765700	-11.246000	23.642806	0.001028	20.782463
483.129716	-3.000400	3.765600	-11.298000	23.649247	0.001028	20.825904
484.132012	-2.979800	3.767300	-11.224000	23.657082	0.001028	20.794405
485.133854	-2.952200	3.766400	-11.118000	23.644893	0.001028	20.795935
486.127872	-2.995000	3.764500	-11.274000	23.658706	0.001028	20.799352
487.133528	-2.987300	3.763400	-11.241000	23.676254	0.001031	20.797978
488.132556	-2.977400	3.764400	-11.207000	23.702715	0.001027	20.802695
489.130431	-2.991100	3.763300	-11.254000	23.692798	0.001029	20.797020
490.133091	-3.011300	3.764400	-11.335000	23.677093	0.001029	20.819207
491.139527	-3.011400	3.762600	-11.330000	23.706123	0.001029	20.792362
492.132689	-3.006400	3.763400	-11.313000	23.718239	0.001030	20.785068
493.135593	-2.988100	3.762900	-11.243000	23.731447	0.001030	20.788828
494.138534	-3.011100	3.761900	-11.327000	23.742421	0.001030	20.811211
495.133318	-3.005800	3.761800	-11.306000	23.734821	0.001030	20.784624
496.137351	-3.001800	3.761500	-11.290000	23.721774	0.001029	20.777233
497.136735	-2.995600	3.761800	-11.267000	23.708093	0.001031	20.788647
498.135313	-3.031500	3.759500	-11.395000	23.717011	0.001032	20.798062
499.136466	-3.010600	3.760300	-11.320000	23.768598	0.001030	20.774867
500.136510	-2.990200	3.760500	-11.244000	23.748165	0.001030	20.791365
501.135687	-3.000600	3.760900	-11.283000	23.782468	0.001030	20.806318
502.137420	-3.011300	3.760800	-11.322000	23.785443	0.001031	20.804559
503.136997	-3.032900	3.757900	-11.396000	23.770163	0.001031	20.814843
504.134493	-2.997100	3.760200	-11.269000	23.787993	0.001032	20.774873
505.135638	-2.994400	3.758200	-11.252000	23.814246	0.001029	20.815420
506.139648	-2.999200	3.758900	-11.272000	23.788041	0.001031	20.777767
507.135141	-3.034200	3.756000	-11.395000	23.825829	0.001030	20.781990
508.139325	-2.989200	3.759300	-11.236000	23.807664	0.001031	20.767096
509.142390	-3.001600	3.757400	-11.278000	23.789441	0.001032	20.773006
510.138218	-2.986900	3.757500	-11.222000	23.757347	0.001031	20.775915
511.139919	-3.005800	3.757100	-11.293000	23.758863	0.001028	20.781228
512.140573	-2.994700	3.756800	-11.250000	23.794126	0.001032	20.799989
513.138186	-2.992200	3.757700	-11.243000	23.763500	0.001031	20.790619
514.142552	-3.022900	3.756800	-11.356000	23.774484	0.001030	20.789304
515.143912	-3.015700	3.756600	-11.327000	23.759210	0.001028	20.776360
516.140893	-3.003900	3.756900	-11.284000	23.766581	0.001029	20.774268
517.144660	-3.014000	3.754600	-11.314000	23.781208	0.001030	20.770440
518.148778	-3.005100	3.754700	-11.282000	23.778434	0.001031	20.783781
519.141294	-2.997600	3.753500	-11.250000	23.758742	0.001029	20.758347
520.144278	-3.020100	3.753800	-11.336000	23.793011	0.001031	20.780853
521.146417	-3.007500	3.753700	-11.288000	23.810450	0.001030	20.779846
522.142509	-2.983200	3.754400	-11.199000	23.823233	0.001030	20.778913
523.144474	-3.011900	3.753600	-11.304000	23.838560	0.001029	20.778634
524.144524	-2.996800	3.754000	-11.249000	23.853585	0.001032	20.776630
525.143217	-2.985700	3.753300	-11.205000	23.866401	0.001032	20.759609
526.145723	-3.007700	3.753000	-11.288000	23.843026	0.001031	20.772681
527.146787	-3.006000	3.751200	-11.275000	23.851855	0.001030	20.781059
528.146737	-2.995500	3.751700	-11.237000	23.853328	0.001032	20.769734
529.148033	-2.970800	3.752600	-11.146000	23.855985	0.001032	20.787097
530.145864	-2.987000	3.752000	-11.206000	23.840297	0.001031	20.766625
531.146887	-2.992800	3.751600	-11.227000	23.853260	0.001031	20.769666
532.148426	-2.990100	3.751400	-11.216000	23.820924	0.001033	20.771382
533.146688	-3.011700	3.750700	-11.295000	23.834384	0.001032	20.756428
534.152065	-3.007700	3.750600	-11.279000	23.832371	0.001032	20.755358
535.147868	-3.027000	3.749600	-11.350000	23.793950	0.001030	20.763302
536.150173	-2.982500	3.750600	-11.185000	23.826000	0.001031	20.745650
537.151082	-3.004000	3.749100	-11.261000	23.821246	0.001032	20.770282
538.152901	-2.998400	3.748900	-11.240000	23.819721	0.001031	20.757847
539.151974	-3.020100	3.748700	-11.319000	23.815904	0.001031	20.763503
540.151974	-3.011300	3.747900	-11.285000	23.849112	0.001032	20.764084
541.151252	-3.006600	3.747900	-11.268000	23.847519	0.001032	20.747787
542.153012	-3.011100	3.747600	-11.283000	23.841094	0.001030	20.771691
543.157268	-3.014400	3.747200	-11.294000	23.850566	0.001031	20.769810
544.172149	-3.011300	3.746500	-11.281000	23.843751	0.001032	20.753018
545.153286	-3.015900	3.747000	-11.299000	23.865323	0.001031	20.761847
546.156533	-2.990500	3.746500	-11.202000	23.866055	0.001033	20.751675
547.154706	-2.984500	3.747700	-11.184000	23.835391	0.001031	20.758861
548.154435	-3.002900	3.746800	-11.249000	23.830677	0.001031	20.759824
549.154445	-3.014700	3.746300	-11.292000	23.823160	0.001032	20.770304
550.153780	-2.990100	3.746400	-11.200000	23.847886	0.001031	20.762381
551.154537	-2.999400	3.745500	-11.234000	23.845620	0.001031	20.750625
552.154705	-2.984000	3.745000	-11.173000	23.857164	0.001030	20.766468
553.154552	-2.997500	3.744500	-11.223000	23.862380	0.001032	20.763638
554.157974	-2.998300	3.745600	-11.229000	23.883635	0.001032	20.767881
555.155922	-2.993800	3.743900	-11.208000	23.858213	0.001031	20.766571
556.154480	-2.996100	3.743800	-11.216000	23.869879	0.001033	20.761199
557.159873	-3.007700	3.743500	-11.259000	23.864048	0.001032	20.760095
558.155100	-3.010600	3.743500	-11.270000	23.875217	0.001031	20.753276
559.156608	-3.007600	3.741800	-11.253000	23.886264	0.001031	20.751076
560.156520	-3.010200	3.742800	-11.265000	23.889564	0.001034	20.750592
561.156081	-3.000400	3.741700	-11.224000	23.906187	0.001031	20.742131
562.157206	-2.982400	3.742500	-11.161000	23.921031	0.001032	20.757016
563.156003	-3.005000	3.740500	-11.239000	23.904058	0.001034	20.752798
564.157014	-2.991000	3.741800	-11.190000	23.900265	0.001033	20.755633
565.162997	-2.987300	3.741600	-11.177000	23.902059	0.001033	20.749371
566.158162	-2.992600	3.741200	-11.196000	23.915543	0.001033	20.743926
567.158914	-2.985800	3.740800	-11.169000	23.896815	0.001036	20.746483
568.159954	-2.999800	3.739600	-11.217000	23.923382	0.001033	20.734243
569.159524	-2.989700	3.741800	-11.186000	23.900082	0.001033	20.745491
570.159245	-3.000100	3.739500	-11.217000	23.899355	0.001033	20.748082
571.158891	-2.988200	3.740300	-11.176000	23.929477	0.001034	20.748415
572.160336	-2.978200	3.739500	-11.135000	23.906854	0.001032	20.750385
573.158167	-2.988000	3.739400	-11.172000	23.931832	0.001033	20.727542
574.161277	-3.030600	3.737200	-11.325000	23.970970	0.001032	20.750670
575.160712	-3.001400	3.738400	-11.220000	23.967007	0.001033	20.744325
576.160516	-3.022800	3.737300	-11.296000	23.974807	0.001032	20.735551
577.161349	-3.000600	3.736500	-11.210000	23.975997	0.001033	20.735321
578.160979	-3.022600	3.737900	-11.297000	23.931901	0.001035	20.752743
579.161652	-3.044700	3.735000	-11.369000	23.923625	0.001035	20.758194
580.163914	-2.977800	3.738000	-11.130000	23.926224	0.001033	20.731402
581.160297	-2.991800	3.737100	-11.180000	23.939780	0.001034	20.739781
582.161227	-3.002700	3.735300	-11.215000	23.934618	0.001033	20.739346
583.161243	-3.000800	3.734900	-11.207000	23.935891	0.001032	20.740148
584.161927	-3.012200	3.735600	-11.251000	23.944164	0.001034	20.725209
585.164193	-3.011500	3.734400	-11.244000	23.974864	0.001034	20.733711
586.161130	-3.007400	3.735100	-11.232000	23.959456	0.001032	20.736277
587.165228	-3.007500	3.734700	-11.230000	23.961762	0.001032	20.744280
588.168324	-3.002300	3.733100	-11.207000	23.991223	0.001032	20.741582
589.161550	-2.983200	3.735800	-11.143000	23.975211	0.001033	20.738801
590.162738	-3.012900	3.733400	-11.247000	24.015912	0.001032	20.738366
591.164973	-3.031800	3.731100	-11.311000	24.021610	0.001034	20.774428
592.162116	-3.003600	3.732800	-11.210000	24.001957	0.001031	20.735751
593.164454	-3.017500	3.732100	-11.260000	23.987144	0.001032	20.749820
594.164990	-3.013600	3.731200	-11.244000	23.986320	0.001031	20.754684
595.161617	-3.001600	3.732400	-11.202000	23.992238	0.001031	20.737858
596.167923	-3.004300	3.732900	-11.214000	24.009830	0.001031	20.745069
597.167050	-3.021100	3.731000	-11.271000	24.025325	0.001031	20.725520
598.167974	-3.041900	3.729800	-11.345000	24.001408	0.001032	20.721923
599.168489	-3.014600	3.730500	-11.245000	24.017532	0.001031	20.717704
600.169108	-2.989800	3.731400	-11.155000	23.985820	0.001032	20.752285
601.165500	-3.004300	3.731200	-11.207000	23.969003	0.001030	20.736368
602.167368	-2.972800	3.730900	-11.089000	23.963042	0.001032	20.723752
603.166319	-2.993500	3.729700	-11.164000	23.964811	0.001029	20.720310
604.166313	-3.016400	3.730100	-11.250000	23.984066	0.001030	20.742465
605.165057	-3.004400	3.729400	-11.203000	24.000883	0.001030	20.739415
606.164346	-3.035600	3.728100	-11.316000	24.021988	0.001031	20.723121
607.176743	-2.998500	3.727700	-11.176000	24.037191	0.001030	20.738843
608.167427	-3.000800	3.729500	-11.191000	24.061449	0.001028	20.731403
609.165482	-3.040000	3.725300	-11.323000	24.069755	0.001030	20.704643
610.168077	-3.005300	3.728200	-11.203000	24.030791	0.001030	20.731476
611.170006	-3.004000	3.727500	-11.195000	23.994278	0.001028	20.728050
612.165924	-3.000100	3.726700	-11.179000	23.975454	0.001033	20.736199
613.167189	-2.981100	3.728400	-11.114000	23.955229	0.001029	20.715917
614.168737	-3.010200	3.725600	-11.214000	23.932548	0.001030	20.729209
615.167345	-2.995300	3.725600	-11.158000	23.930959	0.001030	20.723348
616.170392	-3.011000	3.725600	-11.217000	23.946675	0.001029	20.721564
617.171424	-3.005000	3.725600	-11.195000	23.954469	0.001028	20.721793
618.169590	-3.007400	3.724600	-11.199000	23.977497	0.001031	20.732559
619.168208	-3.013600	3.724400	-11.223000	24.001251	0.001030	20.720343
620.173701	-3.021600	3.723600	-11.249000	24.027874	0.001028	20.733767
621.170017	-3.011300	3.724600	-11.215000	24.025184	0.001028	20.750984
622.170359	-3.010400	3.722400	-11.205000	24.044730	0.001029	20.706099
623.175041	-2.984000	3.724700	-11.114000	24.059673	0.001027	20.717293
624.174284	-3.020800	3.723800	-11.248000	24.057920	0.001028	20.722646
625.171808	-3.015200	3.721500	-11.220000	24.070675	0.001029	20.721215
626.172020	-2.986100	3.723600	-11.119000	24.044648	0.001027	20.729725
627.174232	-3.003900	3.722100	-11.180000	24.032078	0.001026	20.701944
628.174138	-3.003200	3.721300	-11.174000	24.069190	0.001026	20.724466
629.176064	-3.001800	3.723100	-11.175000	24.087897	0.001028	20.712881
630.176918	-2.985200	3.722600	-11.112000	24.141996	0.001028	20.723518
631.175009	-2.989300	3.722400	-11.126000	24.149331	0.001026	20.710960
632.175187	-2.999700	3.722200	-11.164000	24.165770	0.001026	20.727449
633.175632	-2.991100	3.720700	-11.127000	24.167490	0.001027	20.706888
634.175552	-2.980800	3.722200	-11.094000	24.193686	0.001025	20.699022
635.175664	-2.962900	3.721800	-11.026000	24.184484	0.001026	20.706389
636.174146	-2.979200	3.720900	-11.085000	24.168719	0.001026	20.715233
637.174822	-2.980800	3.721100	-11.090000	24.124305	0.001025	20.710042
638.174221	-2.976400	3.719900	-11.071000	24.083574	0.001027	20.714236
639.174572	-2.982600	3.719600	-11.093000	24.073149	0.001025	20.701409
640.174596	-3.017700	3.719700	-11.224000	24.066423	0.001025	20.716001
641.178455	-2.981700	3.720200	-11.092000	24.067369	0.001025	20.712208
642.176018	-2.996200	3.719300	-11.141000	24.091008	0.001024	20.722166
643.175480	-2.985600	3.718200	-11.100000	24.075494	0.001024	20.692380
644.176834	-2.988800	3.718100	-11.112000	24.094512	0.001024	20.706239
645.175787	-2.983300	3.716500	-11.085000	24.125739	0.001023	20.681131
646.179013	-3.011700	3.717600	-11.194000	24.139644	0.001024	20.689388
647.177743	-2.985300	3.719000	-11.101000	24.145293	0.001022	20.698848
648.177971	-3.012200	3.717100	-11.196000	24.112117	0.001025	20.696394
649.179100	-3.007800	3.716200	-11.177000	24.108662	0.001023	20.706205
650.177677	-3.001000	3.716400	-11.151000	24.156458	0.001024	20.692029
651.181441	-2.980700	3.716900	-11.078000	24.145235	0.001023	20.690728
652.180166	-2.990100	3.715100	-11.108000	24.175417	0.001022	20.680223
653.179138	-3.004600	3.715500	-11.162000	24.205296	0.001023	20.688856
654.182468	-3.006400	3.714900	-11.167000	24.209395	0.001023	20.692019
655.184138	-3.017300	3.714700	-11.208000	24.202134	0.001022	20.697538
656.179666	-3.005700	3.713900	-11.161000	24.207782	0.001022	20.699885
657.186574	-3.010400	3.713500	-11.178000	24.202411	0.001022	20.696394
658.186247	-2.986500	3.715100	-11.094000	24.182923	0.001023	20.715255
659.182548	-3.013300	3.712700	-11.184000	24.177372	0.001023	20.687400
660.185429	-3.011200	3.713600	-11.181000	24.186378	0.001021	20.685053
661.184120	-2.986700	3.714500	-11.092000	24.176246	0.001021	20.698600
662.183585	-3.003300	3.712600	-11.148000	24.173483	0.001021	20.703889
663.185790	-3.006300	3.712000	-11.159000	24.168112	0.001021	20.688544
664.185004	-3.006500	3.711600	-11.159000	24.161982	0.001022	20.680024
665.184980	-2.986900	3.711900	-11.085000	24.146805	0.001021	20.689459
666.185817	-3.017100	3.710900	-11.195000	24.165404	0.001020	20.693888
667.183550	-3.004700	3.711000	-11.149000	24.188348	0.001022	20.704100
668.184057	-3.005200	3.710100	-11.149000	24.192627	0.001020	20.678044
669.187466	-2.973300	3.710900	-11.032000	24.206531	0.001020	20.685353
670.188900	-2.982300	3.710500	-11.065000	24.213695	0.001021	20.690643
671.187017	-2.992200	3.710400	-11.102000	24.233077	0.001019	20.689694
672.188921	-3.011600	3.709100	-11.169000	24.236483	0.001020	20.683153
673.188856	-2.990300	3.709200	-11.090000	24.253281	0.001020	20.694788
674.187314	-2.989700	3.710000	-11.090000	24.242955	0.001020	20.676368
675.189840	-3.011200	3.708300	-11.165000	24.236825	0.001019	20.684918
676.189985	-3.008500	3.708800	-11.157000	24.246499	0.001021	20.679923
677.188218	-3.009600	3.707500	-11.157000	24.235977	0.001019	20.678378
678.192008	-2.977200	3.707900	-11.038000	24.237551	0.001019	20.659091
679.192166	-3.023100	3.706700	-11.205000	24.255016	0.001018	20.687519
680.190567	-3.016500	3.707000	-11.181000	24.283500	0.001019	20.675786
681.192484	-2.999900	3.707100	-11.120000	24.292432	0.001020	20.689963
682.191165	-3.007200	3.706600	-11.145000	24.291950	0.001018	20.674306
683.190265	-3.010400	3.706000	-11.154000	24.286083	0.001019	20.667945
684.191874	-2.988800	3.707200	-11.078000	24.283890	0.001019	20.683765
685.191074	-2.998600	3.706300	-11.112000	24.300687	0.001019	20.677854
686.191620	-3.027800	3.704700	-11.216000	24.282896	0.001019	20.683242
687.190793	-3.015100	3.705400	-11.172000	24.223336	0.001018	20.666645
688.192722	-2.993200	3.704900	-11.089000	24.209895	0.001017	20.679718
689.191950	-3.009900	3.704700	-11.150000	24.227117	0.001018	20.672335
690.192258	-2.993300	3.704900	-11.089000	24.234086	0.001017	20.683120
691.194563	-3.006500	3.704400	-11.137000	24.256328	0.001018	20.679825
692.192966	-3.019900	3.702300	-11.179000	24.275879	0.001016	20.680470
693.192956	-3.025400	3.702600	-11.202000	24.297126	0.001018	20.666694
694.192131	-2.981900	3.704500	-11.045000	24.303026	0.001017	20.670243
695.191996	-2.996000	3.702700	-11.092000	24.328844	0.001017	20.679072
696.192112	-3.025600	3.701600	-11.199000	24.314526	0.001018	20.677512
697.193379	-3.005100	3.702300	-11.124000	24.366038	0.001017	20.664225
698.192860	-2.994000	3.702200	-11.082000	24.345021	0.001016	20.657840
699.193295	-2.981900	3.703000	-11.040000	24.312456	0.001017	20.679228
700.191922	-3.000700	3.700800	-11.104000	24.320076	0.001016	20.682131
701.192752	-3.004300	3.702000	-11.120000	24.322162	0.001017	20.657669
702.193408	-3.010100	3.701600	-11.141000	24.336449	0.001016	20.655879
703.193194	-2.980800	3.700800	-11.030000	24.342789	0.001015	20.655126
704.195154	-3.007100	3.699200	-11.122000	24.306793	0.001016	20.677815
705.193784	-2.992500	3.700200	-11.072000	24.300126	0.001016	20.682982
706.193445	-2.992000	3.700100	-11.068000	24.283656	0.001014	20.700601
707.192759	-2.994800	3.698900	-11.076000	24.283680	0.001015	20.646566
708.195185	-3.014500	3.699100	-11.149000	24.296760	0.001015	20.678656
709.196019	-3.020100	3.698700	-11.169000	24.315993	0.001014	20.677561
710.196690	-3.010200	3.698800	-11.133000	24.320101	0.001015	20.677888
711.197418	-2.996300	3.698100	-11.079000	24.288968	0.001013	20.684117
712.196904	-3.017800	3.697300	-11.156000	24.305487	0.001012	20.667495
713.196503	-3.022100	3.696700	-11.171000	24.282603	0.001012	20.666351
714.198128	-2.982600	3.698800	-11.031000	24.306677	0.001014	20.683863
715.199220	-3.001700	3.696700	-11.095000	24.296848	0.001013	20.671632
716.197109	-2.996400	3.697500	-11.077000	24.299221	0.001014	20.674012
717.197102	-2.997300	3.696400	-11.077000	24.308397	0.001011	20.684640
718.198293	-3.001000	3.696700	-11.093000	24.327075	0.001010	20.685359
719.196581	-3.001500	3.696100	-11.092000	24.346698	0.001010	20.679439
720.198909	-3.000800	3.695700	-11.089000	24.382513	0.001012	20.690239
721.200726	-3.012600	3.696000	-11.134000	24.359036	0.001009	20.686127
722.198984	-2.993300	3.694800	-11.058000	24.403309	0.001011	20.693084
723.197966	-3.001700	3.694800	-11.089000	24.389710	0.001010	20.682284
724.202217	-3.016700	3.694400	-11.144000	24.367632	0.001010	20.680525
725.199011	-3.025100	3.692800	-11.170000	24.383873	0.001010	20.663151
726.208290	-3.014000	3.693900	-11.133000	24.406209	0.001011	20.678448
727.202426	-2.994800	3.693500	-11.060000	24.405639	0.001010	20.688782
728.202047	-3.005200	3.692500	-11.094000	24.408158	0.001008	20.683248
729.207436	-3.015900	3.693100	-11.136000	24.397824	0.001009	20.696116
730.206262	-2.998600	3.692600	-11.072000	24.364315	0.001009	20.666290
731.202530	-3.007300	3.692200	-11.102000	24.394165	0.001010	20.681064
732.203752	-2.987300	3.692500	-11.030000	24.416656	0.001008	20.674229
733.206670	-3.009100	3.692000	-11.109000	24.397351	0.001006	20.689951
734.208514	-3.015600	3.692600	-11.134000	24.415336	0.001006	20.680966
735.202285	-3.010100	3.690900	-11.108000	24.393643	0.001009	20.686705
736.205572	-2.988500	3.691000	-11.029000	24.369163	0.001006	20.669732
737.203289	-3.009500	3.690900	-11.105000	24.383391	0.001006	20.673574
738.202271	-2.989600	3.690700	-11.032000	24.339639	0.001005	20.702705
739.206748	-3.001100	3.689900	-11.071000	24.351724	0.001007	20.663616
740.203012	-2.989100	3.689800	-11.028000	24.342938	0.001005	20.673296
741.204693	-2.989900	3.690800	-11.033000	24.321049	0.001006	20.685004
742.207322	-3.018800	3.688900	-11.135000	24.312459	0.001006	20.695828
743.204636	-3.024800	3.687300	-11.152000	24.302606	0.001007	20.679779
744.202942	-2.990700	3.689600	-11.033000	24.271539	0.001005	20.691765
745.206052	-3.010500	3.687600	-11.100000	24.299803	0.001006	20.674122
746.204459	-3.026700	3.687000	-11.157000	24.318515	0.001005	20.689575
747.205542	-3.020500	3.688400	-11.140000	24.309583	0.001005	20.681562
748.207566	-3.023100	3.686600	-11.144000	24.308589	0.001006	20.700955
749.206620	-3.013100	3.686300	-11.106000	24.287342	0.001004	20.681538
750.210507	-3.004700	3.687500	-11.078000	24.345799	0.001006	20.678062
751.209450	-2.983300	3.687700	-11.001000	24.354233	0.001006	20.668505
752.207187	-3.021300	3.685800	-11.134000	24.363369	0.001003	20.691897
753.207863	-3.002900	3.687400	-11.072000	24.373758	0.001003	20.676239
754.214021	-3.005500	3.686500	-11.079000	24.374844	0.001003	20.694399
755.207609	-3.009100	3.685500	-11.089000	24.419287	0.001004	20.683982
756.205601	-3.017500	3.684400	-11.115000	24.442144	0.001003	20.687473
757.211856	-3.002500	3.685300	-11.064000	24.442120	0.001003	20.691242
758.208715	-2.983400	3.685000	-10.993000	24.419678	0.001003	20.680106
759.207557	-2.983400	3.685200	-10.993000	24.428658	0.001001	20.670148
760.211195	-2.991700	3.685100	-11.024000	24.439455	0.001002	20.686197
761.208946	-2.983500	3.685300	-10.994000	24.447343	0.001001	20.684628
762.209309	-2.994500	3.684100	-11.032000	24.471388	0.001000	20.688363
763.210212	-2.975700	3.683900	-10.960000	24.463101	0.001002	20.684316
764.208828	-3.010000	3.681400	-11.080000	24.464528	0.001002	20.694283
765.209767	-3.018000	3.682800	-11.114000	24.411780	0.000999	20.684511
766.212733	-2.997500	3.683600	-11.041000	24.397830	0.001001	20.662453
767.210033	-2.994900	3.683100	-11.029000	24.383821	0.000998	20.721425
768.210797	-2.994500	3.683200	-11.027000	24.404584	0.001000	20.681085
769.212438	-3.005500	3.683000	-11.069000	24.395043	0.000998	20.684790
770.210769	-3.001700	3.682400	-11.053000	24.417077	0.000998	20.702629
771.211410	-2.991800	3.683500	-11.019000	24.434067	0.000998	20.684111
772.216197	-3.004500	3.682000	-11.061000	24.405807	0.000999	20.697960
773.213264	-2.992800	3.682300	-11.018000	24.442150	0.000999	20.691273
774.216617	-3.019800	3.679500	-11.110000	24.454716	0.000998	20.713364
775.216102	-3.004400	3.680600	-11.057000	24.472446	0.000998	20.693218
776.213204	-3.012300	3.680100	-11.084000	24.473309	0.000997	20.682229
777.213027	-2.999800	3.678800	-11.035000	24.488018	0.000998	20.712636
778.215145	-2.995100	3.681000	-11.023000	24.521499	0.000997	20.710191
779.213484	-3.013200	3.678800	-11.084000	24.509032	0.000996	20.686775
780.212740	-3.012000	3.679300	-11.081000	24.520243	0.000997	20.697550
781.216313	-3.008400	3.678800	-11.066000	24.524831	0.000997	20.701206
782.213397	-3.030800	3.677500	-11.144000	24.522606	0.000996	20.701818
783.217015	-3.000400	3.679100	-11.038000	24.524773	0.000996	20.704942
784.216692	-3.016200	3.677900	-11.091000	24.524145	0.000994	20.699095
785.212837	-3.024300	3.677100	-11.121000	24.528969	0.000994	20.694451
786.212350	-2.993200	3.677400	-11.006000	24.561576	0.000994	20.702513
787.218895	-2.991700	3.676700	-10.998000	24.597506	0.000994	20.708218
788.215635	-3.016000	3.677700	-11.091000	24.569756	0.000994	20.731111
789.214437	-3.010300	3.675500	-11.063000	24.585391	0.000993	20.696061
790.216955	-3.007300	3.676200	-11.055000	24.613247	0.000995	20.702201
791.214681	-2.991100	3.676700	-10.996000	24.635782	0.000995	20.709641
792.214623	-3.004800	3.674000	-11.038000	24.648702	0.000994	20.690361
793.217385	-2.989900	3.675600	-10.987000	24.655717	0.000994	20.700720
794.215817	-2.993000	3.676600	-11.003000	24.642910	0.000993	20.689764
795.218110	-3.001300	3.675500	-11.030000	24.660409	0.000994	20.727715
796.217328	-3.012600	3.674600	-11.070000	24.685233	0.000993	20.688611
797.216798	-3.000500	3.673900	-11.023000	24.643910	0.000992	20.704520
798.216771	-3.012300	3.674000	-11.066000	24.637270	0.000991	20.703073
799.219256	-3.000400	3.673500	-11.021000	24.632569	0.000991	20.695510
800.216632	-2.997700	3.672700	-11.008000	24.598016	0.000991	20.707781
801.216900	-3.027100	3.673600	-11.120000	24.584010	0.000992	20.701313
802.217829	-2.999400	3.673400	-11.016000	24.599278	0.000991	20.709522
803.216398	-3.001400	3.673600	-11.025000	24.563208	0.000992	20.713159
804.219157	-2.990200	3.672700	-10.981000	24.579991	0.000991	20.711507
805.220760	-2.979900	3.673500	-10.945000	24.579022	0.000992	20.720018
806.218921	-2.987900	3.671600	-10.970000	24.581238	0.000990	20.714655
807.219747	-3.005800	3.670600	-11.032000	24.615677	0.000990	20.711752
808.220378	-2.995600	3.672100	-10.998000	24.650620	0.000991	20.712202
809.222841	-2.984900	3.671100	-10.958000	24.622039	0.000991	20.709601
810.220797	-3.004600	3.670000	-11.026000	24.608964	0.000989	20.721138
811.221401	-2.971700	3.671100	-10.908000	24.612189	0.000992	20.715365
812.220204	-2.983400	3.670800	-10.950000	24.602110	0.000991	20.710467
813.219720	-3.000800	3.669800	-11.011000	24.597482	0.000988	20.708194
814.221813	-2.988100	3.671500	-10.969000	24.596693	0.000988	20.713566
815.222188	-2.974000	3.670900	-10.916000	24.629689	0.000987	20.722019
816.221467	-3.025000	3.668200	-11.094000	24.604122	0.000989	20.715331
817.222284	-3.004100	3.669000	-11.021000	24.564174	0.000988	20.717922
818.221413	-3.008800	3.668400	-11.037000	24.577732	0.000989	20.719198
819.221885	-3.006800	3.669100	-11.031000	24.554348	0.000987	20.728927
820.223661	-2.978200	3.669100	-10.926000	24.581211	0.000987	20.699928
821.222566	-3.010200	3.668400	-11.042000	24.578254	0.000988	20.711660
822.224328	-2.973600	3.668000	-10.906000	24.627497	0.000989	20.718871
823.224060	-2.974500	3.667300	-10.906000	24.610851	0.000986	20.714496
824.223786	-2.999600	3.665900	-10.996000	24.606247	0.000986	20.744018
825.223516	-2.989400	3.667400	-10.962000	24.599363	0.000985	20.735213
826.223827	-2.978500	3.666700	-10.919000	24.614607	0.000986	20.744345
827.223065	-2.979400	3.667400	-10.926000	24.632155	0.000986	20.724020
828.223816	-3.008200	3.665900	-11.026000	24.633923	0.000984	20.739071
829.223097	-2.990000	3.665300	-10.958000	24.659733	0.000985	20.727036
830.223374	-3.006600	3.663900	-11.015000	24.673216	0.000985	20.741041
831.224745	-3.011900	3.666200	-11.041000	24.668384	0.000985	20.738563
832.225844	-3.009400	3.664000	-11.026000	24.659071	0.000983	20.718311
833.223917	-3.009400	3.665200	-11.029000	24.698372	0.000985	20.742577
834.223782	-3.012800	3.664000	-11.038000	24.698446	0.000984	20.730322
835.225606	-2.992100	3.664100	-10.963000	24.675722	0.000983	20.728382
836.226164	-2.992400	3.663300	-10.961000	24.714901	0.000983	20.716962
837.222997	-3.019000	3.662800	-11.057000	24.716008	0.000982	20.739885
838.227411	-3.002700	3.664000	-11.001000	24.709353	0.000982	20.725620
839.225702	-2.989000	3.663400	-10.949000	24.714630	0.000981	20.758892
840.224626	-3.000000	3.663600	-10.990000	24.740959	0.000980	20.719878
841.227191	-3.000000	3.663100	-10.989000	24.766497	0.000982	20.727015
842.230241	-3.001200	3.663400	-10.993000	24.753616	0.000982	20.722622
843.225700	-2.984200	3.663000	-10.930000	24.756655	0.000982	20.717137
844.231314	-3.016000	3.660400	-11.039000	24.759188	0.000980	20.742440
845.230894	-2.984100	3.661400	-10.924000	24.759261	0.000981	20.750100
846.227250	-2.973600	3.661500	-10.886000	24.749598	0.000980	20.733764
847.229849	-2.990900	3.661500	-10.949000	24.699349	0.000980	20.727435
848.230840	-2.966300	3.661900	-10.861000	24.678037	0.000980	20.743034
849.226869	-3.010200	3.659900	-11.016000	24.624861	0.000979	20.753686
850.232196	-2.997700	3.660700	-10.973000	24.618236	0.000980	20.755099
851.231833	-3.015700	3.659900	-11.034000	24.595252	0.000979	20.756693
852.229514	-2.994000	3.660100	-10.957000	24.625943	0.000979	20.743866
853.233822	-3.011500	3.659000	-11.019000	24.666319	0.000978	20.764941
854.233945	-2.993300	3.659800	-10.954000	24.673276	0.000979	20.742049
855.229640	-3.001100	3.659000	-10.980000	24.644403	0.000978	20.755277
856.235468	-2.996000	3.656900	-10.955000	24.664069	0.000976	20.733759
857.236709	-2.995700	3.657900	-10.956000	24.682611	0.000977	20.759003
858.230627	-2.984700	3.658800	-10.919000	24.681787	0.000976	20.743952
859.239421	-2.982600	3.658800	-10.912000	24.688458	0.000974	20.750646
860.237096	-3.019400	3.657700	-11.043000	24.657393	0.000977	20.741285
861.233377	-3.011200	3.655900	-11.006000	24.693003	0.000976	20.741456
862.235731	-3.001400	3.657700	-10.978000	24.700277	0.000975	20.749704
863.237493	-2.992100	3.656700	-10.939000	24.714647	0.000974	20.754168
864.235220	-2.990600	3.656100	-10.933000	24.761196	0.000974	20.774802
865.238576	-2.971900	3.657100	-10.867000	24.746622	0.000974	20.756383
866.241969	-3.026200	3.656000	-11.063000	24.729024	0.000974	20.765276
867.236216	-3.000000	3.655400	-10.964000	24.761260	0.000971	20.760167
868.240980	-2.998500	3.655800	-10.961000	24.746253	0.000973	20.748900
869.241346	-3.013400	3.655100	-11.013000	24.752868	0.000972	20.757435
870.238690	-2.992700	3.654900	-10.937000	24.736298	0.000971	20.764040
871.253263	-2.998000	3.654800	-10.955000	24.702016	0.000974	20.773261
872.246373	-3.027100	3.652700	-11.056000	24.667921	0.000971	20.751376
873.239132	-3.012600	3.655200	-11.011000	24.659840	0.000972	20.741369
874.240473	-2.975200	3.655300	-10.874000	24.681664	0.000969	20.764692
875.241513	-3.014800	3.653400	-11.013000	24.715978	0.000971	20.741277
876.239904	-2.970600	3.655200	-10.857000	24.727513	0.000971	20.752379
877.242792	-2.990800	3.653900	-10.927000	24.768415	0.000970	20.772090
878.242568	-3.019900	3.651800	-11.027000	24.778264	0.000969	20.750204
879.243063	-3.002500	3.652800	-10.967000	24.794319	0.000970	20.779120
880.247011	-3.001500	3.652600	-10.963000	24.779298	0.000969	20.787278
881.244737	-2.994100	3.652600	-10.935000	24.784495	0.000969	20.776373
882.242737	-3.024800	3.650900	-11.040000	24.791149	0.000969	20.760765
883.244381	-2.986100	3.652100	-10.905000	24.794725	0.000967	20.765302
884.245368	-3.014300	3.650100	-11.002000	24.790726	0.000967	20.763659
885.244782	-2.976900	3.651600	-10.868000	24.789601	0.000968	20.757789
886.244770	-3.025000	3.648800	-11.037000	24.770473	0.000967	20.761353
887.247977	-2.996100	3.648900	-10.931000	24.764347	0.000967	20.769903
888.245999	-2.988800	3.649900	-10.907000	24.730760	0.000966	20.759432
889.247662	-2.987900	3.650200	-10.905000	24.734531	0.000966	20.784553
890.248271	-2.974200	3.650000	-10.854000	24.754547	0.000965	20.752481
891.245325	-3.027000	3.649300	-11.044000	24.790952	0.000966	20.788068
892.246809	-3.013700	3.648100	-10.993000	24.780679	0.000965	20.780130
893.249456	-2.999000	3.648300	-10.940000	24.801867	0.000964	20.776737
894.245870	-2.998300	3.648500	-10.938000	24.804995	0.000965	20.770393
895.248349	-3.016100	3.648200	-11.003000	24.792458	0.000965	20.781045
896.246861	-3.015700	3.647700	-10.999000	24.809140	0.000964	20.769338
897.246079	-3.018400	3.647000	-11.007000	24.810762	0.000963	20.769068
898.249686	-2.980000	3.647400	-10.868000	24.835321	0.000962	20.773327
899.248233	-3.006400	3.647000	-10.963000	24.842188	0.000963	20.778322
900.247530	-3.004200	3.646500	-10.953000	24.837406	0.000961	20.779687
901.249756	-2.985500	3.646200	-10.885000	24.831011	0.000962	20.779907
902.251506	-3.018000	3.645300	-11.000000	24.839996	0.000961	20.765217
903.250382	-2.993500	3.646900	-10.916000	24.828298	0.000961	20.774814
904.252700	-3.016400	3.645700	-10.997000	24.819925	0.000959	20.785851
905.251523	-3.011100	3.644400	-10.973000	24.845608	0.000962	20.773694
906.248499	-3.008200	3.644600	-10.963000	24.821138	0.000961	20.795129
907.247049	-2.982300	3.645700	-10.870000	24.839213	0.000959	20.788613
908.248433	-3.001600	3.643500	-10.935000	24.829389	0.000961	20.786341
909.250259	-3.016100	3.643300	-10.987000	24.825741	0.000960	20.800223
910.249136	-2.998600	3.644100	-10.925000	24.825912	0.000959	20.769099
911.250021	-3.004100	3.642400	-10.940000	24.827622	0.000959	20.791679
912.251696	-2.971400	3.645200	-10.831000	24.798850	0.000957	20.782245
913.253321	-2.994700	3.642500	-10.908000	24.775602	0.000958	20.797794
914.252587	-2.986800	3.643700	-10.882000	24.789450	0.000959	20.801734
915.252235	-3.000700	3.642200	-10.929000	24.813049	0.000957	20.796968
916.251328	-2.995700	3.643400	-10.913000	24.805008	0.000958	20.785105
917.252504	-2.991700	3.641800	-10.895000	24.832133	0.000957	20.803793
918.250686	-2.987000	3.641900	-10.878000	24.817536	0.000956	20.801945
919.251140	-2.991500	3.641000	-10.891000	24.818170	0.000957	20.779348
920.251110	-3.004500	3.641700	-10.941000	24.841500	0.000956	20.792805
921.252202	-2.987900	3.640600	-10.876000	24.880085	0.000956	20.793123
922.252129	-2.978000	3.640400	-10.841000	24.891130	0.000957	20.797571
923.252264	-2.987900	3.641100	-10.878000	24.872770	0.000955	20.798584
924.253120	-3.021900	3.639000	-10.995000	24.909814	0.000957	20.799728
925.252792	-3.000600	3.640500	-10.921000	24.870359	0.000956	20.791897
926.254965	-3.002000	3.639300	-10.924000	24.892213	0.000955	20.816675
927.253676	-3.002300	3.638800	-10.924000	24.907419	0.000954	20.792108
928.256296	-3.003200	3.637800	-10.924000	24.930152	0.000955	20.799753
929.257335	-2.984200	3.639300	-10.859000	24.940945	0.000952	20.810585
930.255535	-2.987500	3.639100	-10.871000	24.958667	0.000955	20.791863
931.257256	-2.989900	3.639500	-10.881000	24.966844	0.000955	20.777311
932.259766	-3.011700	3.638200	-10.956000	24.982132	0.000952	20.818734
933.257588	-2.986400	3.638600	-10.865000	25.011191	0.000953	20.784366
934.258531	-3.010300	3.638300	-10.951000	25.024368	0.000955	20.831732
935.260225	-2.993400	3.635100	-10.880000	25.019197	0.000955	20.814687
936.259525	-2.988100	3.637600	-10.869000	25.023146	0.000954	20.812014
937.260176	-2.998700	3.635600	-10.901000	25.030345	0.000955	20.811179
938.261101	-2.994000	3.635200	-10.881000	25.034060	0.000952	20.797364
939.261938	-3.015100	3.635300	-10.960000	25.027682	0.000951	20.826049
940.261159	-2.988800	3.634600	-10.862000	25.035313	0.000951	20.803837
941.263556	-2.991900	3.635500	-10.876000	25.021663	0.000951	20.804835
942.265377	-2.976000	3.635600	-10.819000	25.025881	0.000950	20.822345
943.266967	-2.996000	3.634900	-10.889000	24.996423	0.000949	20.797992
944.261571	-3.014700	3.633700	-10.954000	24.970783	0.000951	20.817775
945.265967	-2.988000	3.634800	-10.859000	24.955773	0.000949	20.816933
946.262912	-2.979900	3.634100	-10.827000	24.957556	0.000948	20.797386
947.263444	-2.997700	3.631900	-10.887000	24.989002	0.000946	20.815673
948.265945	-2.991200	3.633900	-10.869000	24.985589	0.000948	20.819360
949.266909	-3.005500	3.633800	-10.920000	24.988097	0.000948	20.799118
950.264694	-3.005800	3.632800	-10.919000	24.939368	0.000944	20.806631
951.263961	-3.023600	3.632100	-10.981000	24.986836	0.000946	20.815869
952.264458	-3.009900	3.631400	-10.930000	24.980466	0.000946	20.799519
953.267989	-2.994800	3.632000	-10.876000	24.995762	0.000947	20.824355
954.265179	-3.008700	3.630600	-10.922000	24.997944	0.000944	20.828442
955.264955	-3.008800	3.630200	-10.921000	24.990663	0.000945	20.809280
956.269031	-2.983900	3.631500	-10.835000	24.994662	0.000944	20.805707
957.264822	-2.983600	3.631400	-10.834000	25.009126	0.000942	20.830657
958.264706	-2.994300	3.632100	-10.874000	24.973478	0.000941	20.822376
959.267103	-3.006200	3.631400	-10.915000	24.980612	0.000942	20.804407
960.264770	-3.019300	3.629200	-10.957000	24.990076	0.000943	20.822441
961.266105	-3.006200	3.628700	-10.908000	25.034064	0.000942	20.820128
962.270156	-3.005400	3.629600	-10.907000	25.008596	0.000943	20.831073
963.268902	-3.002400	3.628700	-10.893000	25.008547	0.000943	20.776497
964.268351	-2.997900	3.628400	-10.876000	24.984505	0.000942	20.794564
965.271586	-3.001000	3.627900	-10.886000	24.979683	0.000941	20.795414
966.268024	-2.967100	3.628000	-10.765000	24.976660	0.000939	20.801863
967.268371	-3.003900	3.628300	-10.898000	24.998097	0.000939	20.792560
968.271648	-2.988500	3.627700	-10.840000	25.030121	0.000939	20.795781
969.269777	-2.997700	3.628600	-10.877000	25.035969	0.000940	20.792168
970.272293	-3.003300	3.627100	-10.892000	25.033354	0.000938	20.788596
971.272914	-3.017100	3.625800	-10.939000	25.053608	0.000938	20.788064
972.271058	-3.029400	3.626100	-10.984000	25.034820	0.000937	20.813775
973.270646	-2.999800	3.625500	-10.874000	25.039438	0.000939	20.789960
974.274346	-2.994500	3.626200	-10.858000	25.018849	0.000938	20.789208
975.272534	-2.990300	3.626200	-10.843000	25.045008	0.000938	20.786543
976.270720	-2.983700	3.625100	-10.815000	25.019875	0.000937	20.795454
977.273209	-2.984800	3.625400	-10.820000	25.010867	0.000935	20.776455
978.271340	-2.974500	3.625500	-10.782000	25.015444	0.000937	20.783420
979.270799	-2.991100	3.624100	-10.839000	25.026912	0.000936	20.779758
980.275403	-3.009900	3.624000	-10.907000	24.998390	0.000936	20.802337
981.271425	-2.986000	3.624600	-10.822000	25.011690	0.000936	20.770168
982.271579	-2.996900	3.625200	-10.863000	25.035284	0.000933	20.773937
983.275834	-2.980800	3.624400	-10.803000	25.003358	0.000934	20.798789
984.273458	-2.991600	3.624500	-10.843000	25.013433	0.000934	20.777608
985.273920	-2.991700	3.623300	-10.838000	24.994431	0.000933	20.810217
986.275187	-3.014300	3.623400	-10.921000	25.012797	0.000932	20.782185
987.275556	-2.998700	3.622900	-10.863000	24.988991	0.000935	20.784368
988.273860	-2.986900	3.623300	-10.822000	24.983420	0.000933	20.805803
989.275966	-2.988500	3.623600	-10.828000	25.036619	0.000932	20.787605
990.275681	-2.996200	3.621700	-10.850000	25.030015	0.000932	20.780027
991.274265	-2.999300	3.620300	-10.857000	25.041010	0.000932	20.780633
992.276970	-3.003800	3.621200	-10.876000	25.023572	0.000933	20.785889
993.275717	-3.011500	3.620000	-10.900000	25.054041	0.000932	20.771428
994.275471	-2.979600	3.621700	-10.790000	25.052264	0.000932	20.772490
995.276555	-2.999800	3.621800	-10.864000	25.076583	0.000929	20.786944
996.275894	-3.015300	3.618800	-10.911000	25.074221	0.000933	20.753752
997.275606	-2.974600	3.619500	-10.765000	25.093758	0.000929	20.782848
998.277365	-2.994600	3.618300	-10.834000	25.125078	0.000928	20.767822
999.277236	-2.991400	3.619000	-10.824000	25.119867	0.000929	20.778712
1000.273378	-2.987200	3.619600	-10.810000	25.112334	0.000929	20.772572
1001.279659	-3.012100	3.617200	-10.894000	25.109915	0.000929	20.763031
1002.277484	-3.001100	3.618000	-10.856000	25.123018	0.000929	20.772866
1003.276742	-3.010200	3.616500	-10.884000	25.107285	0.000928	20.788840
1004.278141	-2.995500	3.619000	-10.840000	25.092048	0.000926	20.774019
1005.277888	-2.991500	3.618300	-10.823000	25.094645	0.000927	20.787532
1006.276698	-2.991700	3.617300	-10.821000	25.088309	0.000926	20.772163
1007.278781	-3.009200	3.615800	-10.880000	25.076884	0.000928	20.767806
1008.284479	-3.007000	3.616600	-10.874000	25.057485	0.000925	20.759238
1009.278863	-2.991500	3.615800	-10.815000	25.064244	0.000922	20.762230
1010.281604	-3.001300	3.616000	-10.851000	25.087657	0.000924	20.749222
1011.277306	-3.015200	3.615700	-10.901000	25.079871	0.000924	20.748993
1012.277751	-2.993300	3.616000	-10.822000	25.101925	0.000923	20.744104
1013.278994	-3.001600	3.615000	-10.849000	25.079375	0.000923	20.755133
1014.278494	-2.996400	3.615900	-10.834000	25.130533	0.000923	20.775195
1015.278981	-2.988600	3.613900	-10.800000	25.128342	0.000921	20.758296
1016.279349	-2.979500	3.614600	-10.768000	25.143676	0.000922	20.758991
1017.279358	-2.988400	3.616000	-10.806000	25.083763	0.000921	20.764280
1018.281874	-2.987100	3.613000	-10.791000	25.107429	0.000920	20.768596
1019.279774	-2.998000	3.613800	-10.833000	25.096483	0.000920	20.792696
1020.281146	-2.997500	3.611000	-10.823000	25.113024	0.000920	20.766152
1021.282228	-2.988900	3.613500	-10.799000	25.119603	0.000918	20.770860
1022.280545	-2.995200	3.612000	-10.817000	25.105254	0.000920	20.769258
1023.282655	-2.992200	3.612200	-10.807000	25.138503	0.000920	20.743840
1024.281134	-3.009200	3.611600	-10.867000	25.183323	0.000919	20.740471
1025.282724	-3.013700	3.609400	-10.876000	25.195798	0.000918	20.764850
1026.284092	-3.020600	3.610700	-10.904000	25.175636	0.000917	20.759307
1027.281837	-3.006200	3.609400	-10.850000	25.136824	0.000915	20.762544
1028.284779	-3.031900	3.609600	-10.943000	25.131376	0.000918	20.763238
1029.284727	-2.978700	3.610900	-10.755000	25.126571	0.000914	20.782123
1030.285032	-2.996700	3.609500	-10.815000	25.137702	0.000916	20.729285
1031.282756	-2.975500	3.610000	-10.740000	25.133150	0.000913	20.754588
1032.283633	-2.980300	3.609700	-10.757000	25.102921	0.000916	20.729931
1033.283910	-2.979400	3.610100	-10.755000	25.084613	0.000913	20.740002
1034.283534	-2.997000	3.609300	-10.815000	25.106023	0.000914	20.747745
1035.284959	-2.989200	3.608800	-10.785000	25.103751	0.000914	20.746411
1036.284639	-2.986300	3.609900	-10.779000	25.119752	0.000914	20.756311
1037.289359	-2.980000	3.608100	-10.751000	25.140315	0.000913	20.742339
1038.286525	-2.990200	3.607700	-10.786000	25.126088	0.000912	20.746549
1039.289149	-2.976900	3.607200	-10.738000	25.095630	0.000912	20.757700
1040.285820	-2.987600	3.606800	-10.774000	25.028026	0.000912	20.736779
1041.286012	-2.978600	3.607200	-10.743000	25.006501	0.000911	20.764011
1042.287528	-3.008100	3.604200	-10.840000	24.993013	0.000911	20.765171
1043.288249	-3.016800	3.604300	-10.872000	25.010287	0.000914	20.741732
1044.289361	-2.989900	3.605900	-10.780000	25.023538	0.000910	20.771629
1045.289586	-2.998200	3.604900	-10.808000	25.081946	0.000910	20.759611
1046.290817	-3.000500	3.606300	-10.819000	25.100367	0.000911	20.751550
1047.294398	-3.008400	3.604300	-10.842000	25.057433	0.000907	20.751599
1048.291326	-2.998100	3.604500	-10.804000	25.107916	0.000907	20.743954
1049.290733	-2.998800	3.603600	-10.805000	25.107492	0.000909	20.758702
1050.291622	-2.998700	3.603400	-10.804000	25.080740	0.000909	20.764090
1051.291970	-3.012800	3.602600	-10.853000	25.081505	0.000906	20.734037
1052.291397	-3.008100	3.603100	-10.838000	25.033724	0.000907	20.737282
1053.290990	-3.005000	3.602900	-10.826000	24.988946	0.000908	20.745441
1054.291256	-2.998000	3.602700	-10.800000	24.986917	0.000906	20.742930
1055.292964	-2.991200	3.603100	-10.777000	24.954054	0.000905	20.721323
1056.293399	-2.985700	3.600900	-10.750000	24.990647	0.000907	20.731027
1057.292934	-3.007400	3.600900	-10.828000	24.988212	0.000908	20.731428
1058.293561	-3.025700	3.600500	-10.892000	25.011530	0.000903	20.740609
1059.293510	-2.982700	3.601400	-10.741000	25.035913	0.000903	20.758921
1060.293546	-3.005100	3.601300	-10.821000	25.027785	0.000904	20.756452
1061.293118	-3.005800	3.600800	-10.822000	25.037208	0.000903	20.746470
1062.292933	-3.006900	3.599900	-10.824000	25.070371	0.000903	20.739930
1063.297325	-3.005900	3.599100	-10.818000	25.101048	0.000901	20.745595
1064.293421	-3.006000	3.599600	-10.820000	25.098516	0.000903	20.725034
1065.300403	-3.004000	3.600300	-10.815000	25.086699	0.000901	20.745415
1066.293396	-3.008800	3.598600	-10.825000	25.097441	0.000900	20.750983
1067.295299	-3.024900	3.598000	-10.882000	25.133541	0.000903	20.739807
1068.305957	-3.016500	3.597700	-10.851000	25.165479	0.000901	20.726350
1069.296491	-3.021500	3.596100	-10.864000	25.160561	0.000898	20.716196
1070.295782	-3.014800	3.597800	-10.846000	25.199363	0.000900	20.738556
1071.297772	-3.019800	3.597300	-10.861000	25.192165	0.000898	20.733701
1072.296962	-3.001600	3.596200	-10.793000	25.205292	0.000897	20.739767
1073.297464	-3.008200	3.597300	-10.820000	25.202848	0.000899	20.726882
1074.300565	-2.986300	3.597500	-10.741000	25.242788	0.000898	20.735686
1075.300391	-3.007100	3.596100	-10.813000	25.216268	0.000897	20.737036
1076.297232	-3.008500	3.597000	-10.820000	25.216072	0.000898	20.756755
1077.302509	-3.012500	3.594000	-10.826000	25.171171	0.000896	20.710726
1078.297441	-3.025500	3.595400	-10.877000	25.141473	0.000895	20.727855
1079.299405	-3.002000	3.595000	-10.791000	25.127115	0.000896	20.707750
1080.301145	-2.994700	3.595200	-10.766000	25.142327	0.000895	20.738670
1081.300556	-2.988500	3.595800	-10.745000	25.116438	0.000894	20.711256
1082.300809	-2.981800	3.593700	-10.714000	25.165836	0.000894	20.710112
1083.304179	-3.004600	3.593800	-10.797000	25.151667	0.000892	20.725286
1084.301562	-3.005900	3.593700	-10.801000	25.141609	0.000893	20.713766
1085.302571	-3.014100	3.591900	-10.826000	25.127196	0.000892	20.706882
1086.303017	-2.972900	3.593400	-10.682000	25.094450	0.000890	20.723323
1087.302732	-3.006800	3.592200	-10.800000	25.102218	0.000889	20.726854
1088.303637	-3.012000	3.592300	-10.819000	25.102160	0.000891	20.725373
1089.302535	-2.999000	3.591800	-10.771000	25.116681	0.000890	20.701542
1090.304955	-2.972600	3.593800	-10.682000	25.127307	0.000888	20.724539
1091.305047	-2.992400	3.591700	-10.746000	25.158529	0.000890	20.726959
1092.305313	-2.986400	3.593000	-10.728000	25.165988	0.000888	20.715954
1093.304085	-2.954600	3.593300	-10.616000	25.217085	0.000887	20.721260
1094.305113	-3.008400	3.590600	-10.801000	25.229185	0.000889	20.729141
1095.306406	-2.992700	3.590300	-10.743000	25.225203	0.000887	20.727513
1096.303941	-3.013400	3.589200	-10.814000	25.248694	0.000888	20.724072
1097.305957	-3.000900	3.589900	-10.772000	25.254971	0.000885	20.713778
1098.304484	-3.013500	3.589300	-10.815000	25.232799	0.000886	20.708586
1099.305282	-3.000400	3.590000	-10.770000	25.257153	0.000884	20.705062
1100.306164	-3.006400	3.589200	-10.789000	25.233662	0.000883	20.718936
1101.308629	-2.981500	3.589600	-10.701000	25.230006	0.000883	20.717636
1102.308290	-2.969100	3.589500	-10.656000	25.240444	0.000884	20.722901
1103.307470	-3.019000	3.587900	-10.830000	25.276825	0.000882	20.716278
1104.310122	-3.007100	3.586900	-10.785000	25.277175	0.000883	20.706672
1105.306717	-3.025700	3.586500	-10.850000	25.285195	0.000882	20.702396
1106.307779	-2.989000	3.588100	-10.723000	25.292050	0.000882	20.709753
1107.315694	-3.010300	3.587000	-10.797000	25.310712	0.000880	20.719008
1108.308260	-2.984200	3.586700	-10.702000	25.334616	0.000880	20.724044
1109.307153	-2.989900	3.586100	-10.722000	25.323527	0.000879	20.709115
1110.313661	-2.966900	3.586100	-10.637000	25.333379	0.000880	20.733233
1111.310451	-3.012500	3.584300	-10.797000	25.323975	0.000881	20.709565
1112.308301	-2.987600	3.584800	-10.709000	25.324243	0.000879	20.706515
1113.312714	-2.990000	3.584900	-10.718000	25.292904	0.000879	20.716301
1114.311574	-3.000700	3.584700	-10.754000	25.299930	0.000879	20.696802
1115.308533	-3.014700	3.582200	-10.796000	25.267515	0.000878	20.693654
1116.325111	-2.974900	3.583500	-10.659000	25.230882	0.000876	20.707136
1117.310942	-2.957900	3.586100	-10.607000	25.218692	0.000875	20.699638
1118.312331	-3.000900	3.583300	-10.753000	25.217829	0.000874	20.695453
1119.311328	-2.991000	3.584100	-10.719000	25.230597	0.000877	20.713962
1120.310572	-2.999800	3.583100	-10.747000	25.269168	0.000875	20.694839
1121.310773	-2.984200	3.582400	-10.689000	25.277123	0.000874	20.683858
1122.312407	-3.001800	3.582000	-10.751000	25.325308	0.000876	20.693358
1123.312426	-3.006300	3.580800	-10.764000	25.311954	0.000875	20.703185
1124.311874	-3.001100	3.581200	-10.747000	25.313819	0.000873	20.687038
1125.312114	-2.984900	3.581100	-10.688000	25.305904	0.000872	20.714655
1126.311775	-3.007100	3.579600	-10.763000	25.301532	0.000873	20.685607
1127.311681	-3.019400	3.580100	-10.809000	25.313411	0.000871	20.700380
1128.313050	-3.005300	3.578900	-10.754000	25.321431	0.000871	20.691836
1129.314538	-2.987800	3.579100	-10.692000	25.316724	0.000871	20.705604
1130.313487	-3.003800	3.579400	-10.750000	25.323116	0.000871	20.702064
1131.314445	-2.988600	3.578300	-10.692000	25.283968	0.000870	20.704009
1132.315262	-2.983900	3.579700	-10.680000	25.314494	0.000869	20.722805
1133.313425	-2.992000	3.578900	-10.707000	25.277991	0.000867	20.699905
1134.314523	-2.997800	3.578000	-10.724000	25.274816	0.000869	20.708097
1135.315809	-2.984600	3.578900	-10.680000	25.261608	0.000868	20.708113
1136.315616	-3.016300	3.575800	-10.785000	25.252644	0.000866	20.697689
1137.315876	-2.991000	3.578000	-10.700000	25.251243	0.000868	20.698179
1138.319250	-3.031400	3.576200	-10.840000	25.216490	0.000866	20.698375
1139.315253	-3.005800	3.576300	-10.748000	25.168779	0.000866	20.701212
1140.315438	-2.998400	3.576300	-10.722000	25.180864	0.000865	20.692955
1141.319015	-3.005700	3.575800	-10.747000	25.193168	0.000867	20.692031
1142.315820	-3.007000	3.575600	-10.751000	25.267804	0.000865	20.698685
1143.314968	-3.014200	3.574300	-10.773000	25.274041	0.000864	20.697835
1144.317773	-2.994300	3.575500	-10.705000	25.290268	0.000863	20.688048
1145.316329	-3.015300	3.573800	-10.776000	25.307391	0.000864	20.685326
1146.315745	-3.004500	3.574800	-10.739000	25.331003	0.000863	20.694810
1147.317009	-3.009500	3.572400	-10.749000	25.322665	0.000862	20.701611
1148.317838	-3.006400	3.573400	-10.741000	25.302742	0.000862	20.691089
1149.315658	-3.004700	3.574100	-10.737000	25.259660	0.000862	20.692880
1150.318624	-2.991200	3.573200	-10.687000	25.242952	0.000860	20.697441
1151.319976	-3.001000	3.572700	-10.720000	25.225160	0.000858	20.698545
1152.317442	-2.999600	3.572400	-10.715000	25.216260	0.000860	20.704309
1153.319036	-3.003500	3.572500	-10.729000	25.166791	0.000862	20.670764
1154.320191	-2.990600	3.572100	-10.680000	25.202546	0.000859	20.703818
1155.319117	-2.961600	3.573100	-10.581000	25.185781	0.000858	20.695520
1156.319769	-3.005200	3.570700	-10.730000	25.221617	0.000859	20.688350
1157.320784	-2.989400	3.570900	-10.674000	25.222285	0.000858	20.706565
1158.322194	-3.007900	3.570400	-10.738000	25.268445	0.000857	20.713555
1159.322028	-2.992300	3.570600	-10.683000	25.294444	0.000857	20.698406
1160.323200	-2.999700	3.569800	-10.708000	25.309450	0.000856	20.694031
1161.320879	-3.011400	3.569300	-10.748000	25.320059	0.000856	20.698994
1162.322442	-2.997700	3.569000	-10.696000	25.340502	0.000855	20.693442
1163.321692	-3.011500	3.568300	-10.744000	25.338410	0.000853	20.688969
1164.321198	-3.001500	3.568900	-10.710000	25.336326	0.000854	20.705370
1165.324340	-3.004000	3.567800	-10.717000	25.337864	0.000853	20.709760
1166.322852	-2.990600	3.568200	-10.669000	25.349539	0.000852	20.710103
1167.322073	-2.994700	3.568400	-10.684000	25.335543	0.000851	20.693678
1168.326075	-2.987900	3.567800	-10.659000	25.338621	0.000851	20.687759
1169.326618	-3.005000	3.565900	-10.714000	25.325170	0.000851	20.691797
1170.325262	-2.969000	3.566500	-10.587000	25.355523	0.000852	20.696670
1171.328017	-3.003300	3.566200	-10.710000	25.343636	0.000851	20.714133
1172.328204	-3.010300	3.565100	-10.730000	25.318729	0.000850	20.708566
1173.325152	-3.004300	3.564800	-10.708000	25.306801	0.000848	20.696588
1174.328295	-2.986800	3.565600	-10.648000	25.310025	0.000849	20.694609
1175.327171	-3.005600	3.563700	-10.710000	25.284426	0.000849	20.682182
1176.327748	-3.033000	3.564000	-10.808000	25.262181	0.000847	20.701575
1177.329764	-2.999300	3.564000	-10.688000	25.257443	0.000848	20.683540
1178.326368	-3.007900	3.563800	-10.719000	25.281983	0.000847	20.729045
1179.329559	-3.000300	3.562900	-10.688000	25.293342	0.000846	20.701567
1180.330242	-3.002600	3.564500	-10.702000	25.283799	0.000847	20.702891
1181.327700	-2.998600	3.562200	-10.681000	25.318590	0.000845	20.702736
1182.327193	-3.001400	3.563100	-10.693000	25.325226	0.000843	20.702760
1183.329082	-3.018100	3.562000	-10.749000	25.327188	0.000845	20.692876
1184.328439	-3.009200	3.561800	-10.717000	25.338172	0.000844	20.693946
1185.330541	-3.001100	3.561700	-10.687000	25.352729	0.000842	20.702400
1186.332013	-3.022300	3.561100	-10.762000	25.366497	0.000843	20.703422
1187.327789	-3.015100	3.561300	-10.737000	25.387323	0.000844	20.697306
1188.329226	-3.023000	3.561000	-10.763000	25.385678	0.000843	20.699448
1189.331393	-3.007500	3.560900	-10.708000	25.398794	0.000840	20.692703
1190.331238	-3.020200	3.560800	-10.752000	25.354283	0.000840	20.712022
1191.328053	-3.006300	3.560300	-10.702000	25.356490	0.000840	20.695270
1192.331209	-2.999100	3.560500	-10.677000	25.338822	0.000841	20.701712
1193.329421	-3.016100	3.558200	-10.730000	25.352663	0.000838	20.700911
1194.329979	-3.021800	3.558800	-10.753000	25.326316	0.000841	20.687732
1195.333353	-3.041900	3.558700	-10.824000	25.323662	0.000840	20.711621
1196.329772	-3.031700	3.557800	-10.785000	25.316114	0.000840	20.685549
1197.329039	-3.025600	3.556200	-10.759000	25.322513	0.000839	20.701933
1198.331994	-2.964000	3.559500	-10.549000	25.359868	0.000839	20.696766
1199.329628	-2.978900	3.557500	-10.596000	25.359039	0.000839	20.706839
1200.330070	-3.022800	3.555300	-10.745000	25.363744	0.000836	20.721047
1201.334068	-2.988300	3.556600	-10.627000	25.342917	0.000837	20.700134
1202.330531	-2.994300	3.555800	-10.647000	25.308297	0.000837	20.714687
1203.330390	-2.995500	3.556900	-10.654000	25.276437	0.000835	20.702612
1204.333624	-3.008100	3.555800	-10.695000	25.267692	0.000834	20.708531
1205.331225	-2.987800	3.554600	-10.620000	25.246212	0.000835	20.716363
1206.330760	-3.002400	3.555500	-10.674000	25.257424	0.000832	20.697747
1207.333878	-2.990100	3.555600	-10.631000	25.274727	0.000832	20.713224
1208.331614	-2.997600	3.554800	-10.655000	25.309723	0.000832	20.710902
1209.330384	-2.984300	3.554500	-10.605000	25.316081	0.000831	20.708752
1210.334633	-3.009200	3.554600	-10.695000	25.312727	0.000830	20.700641
1211.334068	-3.053000	3.553000	-10.845000	25.362271	0.000831	20.715775
1212.331875	-2.999900	3.554500	-10.662000	25.400707	0.000828	20.696995
1213.332446	-2.986500	3.554000	-10.613000	25.426784	0.000828	20.717966
1214.331171	-2.995100	3.553800	-10.643000	25.438890	0.000829	20.716372
1215.333241	-3.012300	3.552700	-10.701000	25.413318	0.000827	20.681682
1216.336128	-3.036800	3.550900	-10.781000	25.468385	0.000827	20.722283
1217.331659	-3.002500	3.550600	-10.660000	25.444182	0.000828	20.701296
1218.335942	-2.990300	3.551600	-10.618000	25.388731	0.000827	20.710575
1219.336227	-2.991600	3.552900	-10.628000	25.398428	0.000826	20.711303
1220.335573	-3.007500	3.551100	-10.679000	25.431278	0.000827	20.707305
1221.333992	-2.990900	3.550000	-10.616000	25.406032	0.000825	20.703291
1222.334638	-2.977100	3.550800	-10.568000	25.434290	0.000825	20.697053
1223.333984	-3.008500	3.550100	-10.679000	25.430016	0.000825	20.711728
1224.333621	-3.011500	3.549700	-10.689000	25.406976	0.000825	20.712300
1225.337467	-2.982200	3.549500	-10.585000	25.444401	0.000824	20.702465
1226.334364	-2.993400	3.549300	-10.623000	25.442056	0.000820	20.727613
1227.334641	-3.028600	3.547100	-10.742000	25.446713	0.000823	20.710003
1228.336137	-3.000700	3.548900	-10.649000	25.438841	0.000824	20.731497
1229.333595	-3.000900	3.548500	-10.648000	25.442122	0.000822	20.714876
1230.335239	-2.984800	3.549200	-10.592000	25.421313	0.000820	20.697772
1231.334520	-2.999700	3.548300	-10.642000	25.398142	0.000821	20.709593
1232.334243	-3.005300	3.546600	-10.657000	25.396131	0.000822	20.686710
1233.333586	-2.979500	3.547800	-10.569000	25.401993	0.000820	20.705873
1234.336149	-3.007800	3.545400	-10.663000	25.419367	0.000819	20.706250
1235.333641	-3.013200	3.544900	-10.681000	25.412838	0.000820	20.704435
1236.334011	-2.984700	3.546100	-10.582000	25.406340	0.000819	20.705497
1237.340418	-3.006100	3.544800	-10.654000	25.384920	0.000818	20.739941
1238.334177	-2.980900	3.546600	-10.571000	25.381444	0.000819	20.712741
1239.334079	-2.981800	3.545500	-10.571000	25.400193	0.000817	20.718292
1240.338420	-3.018600	3.544100	-10.697000	25.397409	0.000816	20.725454
1241.337437	-3.002200	3.543300	-10.637000	25.388754	0.000815	20.687837
1242.337566	-3.001400	3.544400	-10.636000	25.380083	0.000814	20.727023
1243.347526	-3.004200	3.544200	-10.646000	25.377104	0.000815	20.718341
1244.337381	-3.010700	3.542500	-10.664000	25.390594	0.000816	20.720507
1245.337965	-3.017700	3.543400	-10.692000	25.378944	0.000815	20.723982
1246.338579	-3.016100	3.541700	-10.681000	25.354404	0.000814	20.730162
1247.336799	-2.999000	3.543500	-10.625000	25.357140	0.000813	20.723900
1248.340875	-2.996000	3.543200	-10.615000	25.355072	0.000810	20.726091
1249.340571	-3.024700	3.540400	-10.708000	25.381199	0.000814	20.708701
1250.339886	-2.981300	3.542100	-10.558000	25.367781	0.000812	20.736956
1251.340250	-2.959700	3.542600	-10.484000	25.394266	0.000812	20.717555
1252.341726	-2.968000	3.542600	-10.513000	25.406494	0.000809	20.729835
1253.339184	-3.016900	3.540500	-10.681000	25.427116	0.000810	20.737266
1254.340394	-2.993500	3.539800	-10.595000	25.459574	0.000810	20.712961
1255.342451	-2.998200	3.539900	-10.612000	25.451295	0.000809	20.737839
1256.340362	-2.980700	3.540900	-10.553000	25.460860	0.000807	20.728478
1257.341544	-3.005900	3.538200	-10.634000	25.468668	0.000809	20.721618
1258.345142	-3.003000	3.538500	-10.624000	25.501711	0.000806	20.721136
1259.348576	-2.992000	3.538600	-10.587000	25.525693	0.000807	20.736211
1260.341853	-3.013300	3.537700	-10.658000	25.508940	0.000805	20.742621
1261.346018	-3.007300	3.537400	-10.637000	25.451156	0.000807	20.733906
1262.343205	-3.029000	3.535300	-10.707000	25.458890	0.000805	20.744043
1263.344177	-3.003000	3.537100	-10.620000	25.432936	0.000806	20.746430
1264.348260	-2.973300	3.539300	-10.523000	25.481994	0.000806	20.740217
1265.343648	-2.999500	3.537300	-10.609000	25.510844	0.000803	20.740266
1266.344443	-3.005400	3.535900	-10.626000	25.547395	0.000804	20.722443
1267.353341	-3.004700	3.536300	-10.624000	25.559670	0.000804	20.714382
1268.343331	-3.006100	3.535200	-10.626000	25.583008	0.000802	20.751098
1269.343675	-3.012800	3.534500	-10.648000	25.584962	0.000802	20.754957
1270.347796	-2.988500	3.535800	-10.565000	25.587420	0.000801	20.746520
1271.343728	-2.990300	3.535000	-10.570000	25.594632	0.000802	20.741435
1272.343424	-2.997000	3.534300	-10.591000	25.550822	0.000799	20.753861
1273.349177	-2.983400	3.533400	-10.540000	25.537862	0.000800	20.737052
1274.345145	-2.981800	3.534800	-10.539000	25.479274	0.000800	20.760246
1275.346224	-2.998000	3.534700	-10.596000	25.462910	0.000799	20.750452
1276.349327	-2.990900	3.533600	-10.568000	25.474145	0.000801	20.747034
1277.347724	-2.997300	3.533100	-10.589000	25.486193	0.000798	20.743012
1278.346041	-2.994900	3.532800	-10.579000	25.516802	0.000798	20.742930
1279.348441	-2.998700	3.531400	-10.588000	25.505104	0.000797	20.752994
1280.347819	-3.002800	3.530900	-10.600000	25.491485	0.000795	20.758757
1281.347535	-2.997300	3.531900	-10.585000	25.488220	0.000797	20.742676
1282.348045	-3.017600	3.531200	-10.654000	25.524860	0.000796	20.756238
1283.347129	-3.006300	3.529700	-10.610000	25.559253	0.000794	20.740517
1284.347920	-2.991400	3.531100	-10.562000	25.538992	0.000795	20.742929
1285.349280	-2.981400	3.530000	-10.523000	25.552928	0.000795	20.715197
1286.349954	-3.002500	3.529600	-10.596000	25.561939	0.000793	20.765500
1287.349813	-3.000200	3.529700	-10.589000	25.556021	0.000794	20.736796
1288.351761	-2.998100	3.529100	-10.580000	25.526251	0.000790	20.755265
1289.350559	-2.996800	3.528700	-10.574000	25.552601	0.000791	20.758019
1290.350450	-2.980100	3.529200	-10.515000	25.568776	0.000791	20.732062
1291.352782	-3.009500	3.527300	-10.614000	25.576549	0.000790	20.757414
1292.354100	-2.994400	3.528500	-10.564000	25.595922	0.000790	20.756007
1293.351008	-2.982900	3.529400	-10.527000	25.587156	0.000791	20.763324
1294.352669	-3.008300	3.527200	-10.610000	25.606373	0.000789	20.768401
1295.352127	-3.003500	3.526300	-10.590000	25.554334	0.000790	20.751698
1296.351383	-2.995900	3.527500	-10.567000	25.520453	0.000789	20.745174
1297.353588	-3.023900	3.524700	-10.656000	25.476411	0.000786	20.755000
1298.353461	-2.994900	3.526200	-10.560000	25.449879	0.000786	20.771032
1299.354623	-3.011400	3.525300	-10.615000	25.458729	0.000788	20.768538
1300.355249	-3.013200	3.523800	-10.617000	25.454821	0.000785	20.775520
1301.353113	-2.991600	3.524500	-10.543000	25.484763	0.000787	20.752007
1302.354667	-3.029700	3.523700	-10.675000	25.507662	0.000785	20.751296
1303.354802	-3.005800	3.524800	-10.594000	25.510308	0.000785	20.765807
1304.354796	-3.003600	3.524300	-10.584000	25.490672	0.000783	20.766003
1305.356345	-3.003800	3.523600	-10.583000	25.449267	0.000784	20.763779
1306.355849	-2.978100	3.523200	-10.492000	25.432138	0.000784	20.758906
1307.354441	-3.018300	3.523800	-10.634000	25.451596	0.000782	20.772281
1308.355277	-2.992800	3.521700	-10.538000	25.443079	0.000781	20.780325
1309.357507	-3.017600	3.520000	-10.620000	25.432944	0.000781	20.778207
1310.353891	-2.992500	3.521200	-10.537000	25.438748	0.000781	20.760802
1311.356907	-2.995000	3.521800	-10.546000	25.439220	0.000781	20.772182
1312.359947	-2.995900	3.520500	-10.546000	25.466720	0.000782	20.770874
1313.356567	-2.988400	3.519300	-10.516000	25.469049	0.000783	20.761357
1314.356258	-2.987800	3.521700	-10.521000	25.504583	0.000782	20.777127
1315.361089	-3.005800	3.519300	-10.577000	25.544300	0.000782	20.771494
1316.357711	-2.995900	3.519700	-10.544000	25.546986	0.000779	20.786520
1317.357283	-2.977000	3.519600	-10.477000	25.561093	0.000782	20.773660
1318.357885	-2.975700	3.520300	-10.474000	25.543868	0.000778	20.763948
1319.364709	-3.001300	3.518600	-10.560000	25.541548	0.000778	20.781059
1320.356721	-3.005800	3.518400	-10.575000	25.516044	0.000777	20.778679
1321.363589	-3.009200	3.517200	-10.583000	25.496058	0.000778	20.779946
1322.357713	-3.012900	3.516600	-10.595000	25.485736	0.000777	20.781908
1323.357944	-2.998200	3.517200	-10.544000	25.457022	0.000775	20.795274
1324.363099	-3.030900	3.514500	-10.650000	25.462363	0.000776	20.798740
1325.358746	-2.982000	3.516400	-10.485000	25.434618	0.000774	20.796484
1326.358745	-3.041200	3.515300	-10.690000	25.510458	0.000774	20.793459
1327.359894	-3.007000	3.515000	-10.569000	25.542507	0.000774	20.786289
1328.358729	-2.986400	3.515400	-10.497000	25.549532	0.000775	20.786232
1329.360787	-2.987000	3.515700	-10.500000	25.555564	0.000773	20.814574
1330.361597	-3.017300	3.514400	-10.603000	25.539804	0.000772	20.788316
1331.360291	-3.026400	3.513200	-10.631000	25.522538	0.000772	20.796107
1332.359428	-3.005500	3.513800	-10.560000	25.530556	0.000773	20.792306
1333.362385	-2.976000	3.514400	-10.458000	25.505174	0.000772	20.808541
1334.360289	-3.015700	3.512600	-10.592000	25.525338	0.000769	20.805557
1335.360899	-3.021800	3.511000	-10.608000	25.539991	0.000771	20.811737
1336.363469	-3.016400	3.511100	-10.589000	25.575947	0.000770	20.790474
1337.362174	-3.001000	3.511900	-10.539000	25.571372	0.000769	20.794889
1338.361923	-3.019000	3.511300	-10.599000	25.605739	0.000767	20.792894
1339.363668	-2.996000	3.511300	-10.519000	25.589418	0.000767	20.799737
1340.361719	-2.996300	3.511600	-10.521000	25.564990	0.000768	20.793695
1341.363453	-3.010100	3.510000	-10.565000	25.559096	0.000766	20.803897
1342.363776	-3.018800	3.510700	-10.597000	25.539136	0.000767	20.814198
1343.366136	-3.018400	3.508100	-10.587000	25.536800	0.000767	20.809007
1344.364905	-3.007700	3.509700	-10.555000	25.548677	0.000766	20.804339
1345.365751	-3.012100	3.509000	-10.568000	25.513168	0.000768	20.800447
1346.368915	-2.993800	3.509500	-10.505000	25.483715	0.000764	20.796000
1347.365427	-2.994700	3.509400	-10.508000	25.484545	0.000762	20.808214
1348.367827	-2.994300	3.508000	-10.502000	25.472733	0.000766	20.822904
1349.364287	-3.010000	3.507000	-10.555000	25.486336	0.000763	20.821392
1350.364458	-2.996800	3.507100	-10.509000	25.486760	0.000762	20.800480
1351.367269	-2.991900	3.507200	-10.492000	25.480418	0.000762	20.816397
1352.368658	-2.989300	3.507500	-10.483000	25.487671	0.000762	20.815620
1353.365031	-2.996800	3.507100	-10.509000	25.497864	0.000760	20.828700
1354.364948	-2.978200	3.505700	-10.440000	25.510009	0.000760	20.789215
1355.367854	-2.991700	3.506100	-10.487000	25.543434	0.000758	20.824204
1356.366120	-2.995200	3.505900	-10.500000	25.547716	0.000759	20.810487
1357.368760	-2.987500	3.506500	-10.474000	25.531737	0.000761	20.827629
1358.365860	-3.011300	3.504600	-10.552000	25.530418	0.000759	20.801175
1359.371726	-3.014700	3.503400	-10.560000	25.553708	0.000757	20.819822
1360.365733	-3.005500	3.504100	-10.531000	25.583476	0.000756	20.807045
1361.365877	-2.990400	3.503400	-10.475000	25.549906	0.000758	20.812686
1362.370531	-3.021100	3.503000	-10.582000	25.539071	0.000757	20.804650
1363.370367	-2.993100	3.503600	-10.485000	25.518370	0.000756	20.816577
1364.366749	-3.010100	3.503500	-10.544000	25.531045	0.000755	20.833572
1365.366817	-3.011700	3.501800	-10.545000	25.528537	0.000755	20.804977
1366.368006	-3.019500	3.502400	-10.574000	25.517011	0.000754	20.819479
1367.367105	-3.002600	3.500900	-10.511000	25.566129	0.000756	20.824237
1368.373434	-2.966400	3.502000	-10.387000	25.551901	0.000753	20.817534
1369.368446	-2.987900	3.502400	-10.463000	25.546870	0.000752	20.810585
1370.367679	-2.999500	3.502100	-10.503000	25.545730	0.000753	20.816078
1371.367790	-3.008000	3.500200	-10.527000	25.559919	0.000754	20.833172
1372.373201	-3.015600	3.498400	-10.548000	25.586985	0.000751	20.813413
1373.371242	-2.994100	3.498900	-10.475000	25.575800	0.000751	20.815457
1374.370426	-3.003300	3.500100	-10.511000	25.566260	0.000750	20.823894
1375.370202	-2.980700	3.499400	-10.429000	25.613895	0.000751	20.821000
1376.369685	-3.024100	3.498800	-10.579000	25.610460	0.000748	20.828929
1377.370487	-3.005300	3.498400	-10.512000	25.635881	0.000749	20.834071
1378.373488	-3.008600	3.498100	-10.523000	25.656783	0.000749	20.825193
1379.372595	-2.988500	3.496700	-10.449000	25.676806	0.000747	20.823493
1380.370899	-2.991500	3.497600	-10.462000	25.724062	0.000748	20.835870
1381.373359	-3.012900	3.494700	-10.527000	25.726626	0.000748	20.821850
1382.373076	-3.007900	3.495700	-10.513000	25.769111	0.000746	20.828962
1383.373564	-3.000100	3.496200	-10.488000	25.781384	0.000744	20.815212
1384.374333	-3.015600	3.494600	-10.538000	25.756317	0.000747	20.817059
1385.375653	-2.992500	3.494400	-10.456000	25.770177	0.000746	20.842360
1386.380620	-3.021500	3.493800	-10.556000	25.790206	0.000745	20.834505
1387.373809	-3.018900	3.494000	-10.546000	25.801136	0.000744	20.855914
1388.375265	-3.013500	3.493800	-10.526000	25.780814	0.000745	20.824123
1389.378093	-3.003300	3.493700	-10.492000	25.776167	0.000742	20.833205
1390.377046	-2.993800	3.493500	-10.457000	25.808859	0.000744	20.830008
1391.375066	-3.026500	3.491700	-10.566000	25.799516	0.000743	20.827736
1392.379531	-3.011700	3.491800	-10.515000	25.794967	0.000742	20.826959
1393.376849	-2.975400	3.492600	-10.391000	25.795862	0.000744	20.839238
1394.379884	-2.989300	3.493000	-10.441000	25.774262	0.000740	20.825128
1395.376966	-2.998100	3.491300	-10.465000	25.752654	0.000741	20.837562
1396.379773	-3.003000	3.490700	-10.481000	25.763250	0.000740	20.810748
1397.378332	-2.982000	3.491300	-10.409000	25.780203	0.000737	20.814974
1398.378774	-2.992200	3.490600	-10.444000	25.798881	0.000738	20.805287
1399.380009	-2.993200	3.491600	-10.450000	25.807077	0.000740	20.835804
1400.379487	-2.997300	3.490000	-10.459000	25.764846	0.000738	20.827997
1401.379785	-3.010300	3.489300	-10.503000	25.782979	0.000737	20.823926
1402.377569	-2.998800	3.488100	-10.459000	25.802926	0.000737	20.822152
1403.377734	-3.003100	3.489800	-10.479000	25.816696	0.000738	20.820337
1404.379027	-2.988300	3.487800	-10.422000	25.823841	0.000737	20.799540
1405.381282	-2.993000	3.487100	-10.436000	25.793510	0.000736	20.819806
1406.380843	-2.998100	3.486900	-10.453000	25.799093	0.000736	20.817827
1407.385741	-3.014000	3.485700	-10.505000	25.801282	0.000734	20.816233
1408.382211	-2.981200	3.487100	-10.395000	25.841428	0.000735	20.814361
1409.381042	-2.990500	3.486600	-10.426000	25.846197	0.000735	20.817729
1410.386992	-3.009300	3.486200	-10.489000	25.826177	0.000735	20.799989
1411.383494	-2.994200	3.485500	-10.435000	25.806800	0.000734	20.800439
1412.381524	-2.999200	3.484800	-10.451000	25.771991	0.000734	20.808622
1413.381572	-2.986300	3.485800	-10.408000	25.754102	0.000733	20.817680
1414.381233	-2.982600	3.485300	-10.394000	25.725755	0.000732	20.809121
1415.381595	-2.995200	3.483300	-10.432000	25.714832	0.000731	20.822332
1416.385511	-2.998200	3.484200	-10.445000	25.681632	0.000729	20.811271
1417.382832	-3.002500	3.482800	-10.456000	25.680737	0.000731	20.817958
1418.380950	-2.984500	3.483600	-10.395000	25.668088	0.000729	20.809047
1419.380866	-2.974800	3.484300	-10.364000	25.731094	0.000728	20.799785
1420.382333	-2.959500	3.484200	-10.310000	25.723525	0.000729	20.798821
1421.381501	-2.988600	3.482000	-10.405000	25.767230	0.000730	20.807159
1422.381571	-2.971900	3.482100	-10.347000	25.780033	0.000730	20.792044
1423.381545	-2.990600	3.482200	-10.412000	25.790458	0.000726	20.820533
1424.381931	-2.984600	3.481300	-10.389000	25.813416	0.000727	20.773895
1425.382256	-2.971200	3.481100	-10.342000	25.746932	0.000726	20.813797
1426.383190	-3.021600	3.478000	-10.506000	25.722166	0.000727	20.773748
1427.381892	-2.986600	3.479600	-10.392000	25.695535	0.000725	20.803897
1428.385291	-3.000900	3.478200	-10.437000	25.695885	0.000726	20.781964
1429.383118	-3.003500	3.479300	-10.448000	25.707190	0.000724	20.791422
1430.382733	-3.000000	3.476900	-10.430000	25.727367	0.000725	20.803628
1431.390513	-3.014600	3.477600	-10.483000	25.764008	0.000724	20.784482
1432.383604	-2.982700	3.478900	-10.374000	25.789360	0.000723	20.774860
1433.386310	-2.979600	3.478000	-10.361000	25.790499	0.000725	20.790229
1434.383844	-2.991300	3.477700	-10.402000	25.789026	0.000723	20.791594
1435.383865	-3.001500	3.476800	-10.435000	25.762527	0.000722	20.773511
1436.385126	-3.000000	3.475900	-10.426000	25.756317	0.000724	20.793826
1437.387965	-3.000200	3.475400	-10.426000	25.720815	0.000721	20.797995
1438.386814	-2.979900	3.474900	-10.354000	25.743173	0.000721	20.781097
1439.384881	-3.012600	3.474500	-10.466000	25.764667	0.000722	20.797472
1440.389112	-2.986400	3.475500	-10.378000	25.770421	0.000721	20.800881
1441.387022	-3.006500	3.475500	-10.449000	25.780090	0.000722	20.804429
1442.390933	-3.013100	3.472400	-10.462000	25.786177	0.000721	20.764551
1443.386676	-2.995500	3.474700	-10.407000	25.833372	0.000718	20.762171
1444.388503	-2.998600	3.473700	-10.414000	25.823663	0.000717	20.777075
1445.386391	-3.013900	3.473300	-10.467000	25.850242	0.000719	20.787179
1446.385840	-2.999400	3.472900	-10.415000	25.864524	0.000718	20.771181
1447.389331	-3.010200	3.471900	-10.450000	25.852992	0.000719	20.773347
1448.388232	-3.000900	3.471700	-10.417000	25.830132	0.000717	20.769823
1449.387044	-2.993900	3.470600	-10.389000	25.816785	0.000715	20.784391
1450.387508	-2.990900	3.470600	-10.379000	25.803642	0.000717	20.756489
1451.388410	-3.015400	3.469400	-10.461000	25.732754	0.000717	20.781538
1452.388033	-2.987800	3.471500	-10.371000	25.740209	0.000716	20.780492
1453.390323	-3.003500	3.468200	-10.415000	25.688925	0.000716	20.758852
1454.387089	-2.988400	3.469100	-10.366000	25.664995	0.000716	20.781759
1455.387154	-2.996100	3.468300	-10.391000	25.678604	0.000714	20.765081
1456.387136	-2.997100	3.469800	-10.397000	25.622075	0.000715	20.791283
1457.386190	-2.999900	3.467200	-10.400000	25.580724	0.000712	20.772038
1458.389353	-2.988500	3.468200	-10.364000	25.544614	0.000713	20.766119
1459.388933	-2.999000	3.468300	-10.400000	25.540609	0.000712	20.749768
1460.388452	-2.994400	3.466800	-10.380000	25.551940	0.000711	20.755933
1461.387437	-2.991100	3.466500	-10.367000	25.592095	0.000710	20.783459
1462.387708	-3.003000	3.466600	-10.409000	25.628537	0.000711	20.765056
1463.387598	-3.002700	3.465900	-10.406000	25.633641	0.000711	20.762121
1464.389646	-2.988300	3.466800	-10.359000	25.669862	0.000708	20.783802
1465.387233	-2.987800	3.465000	-10.352000	25.677757	0.000708	20.777981
1466.386175	-3.008900	3.464700	-10.423000	25.662480	0.000709	20.779706
1467.388685	-3.001100	3.466500	-10.403000	25.653827	0.000709	20.785715
1468.387258	-3.007800	3.465100	-10.421000	25.628586	0.000708	20.769373
1469.391221	-2.972100	3.464200	-10.295000	25.643864	0.000708	20.768122
1470.389059	-2.981600	3.465000	-10.329000	25.643799	0.000706	20.750512
1471.397958	-2.993200	3.463100	-10.365000	25.645557	0.000706	20.781202
1472.389930	-2.979600	3.464300	-10.320000	25.663375	0.000704	20.747414
1473.389520	-2.990700	3.462500	-10.355000	25.700889	0.000706	20.757118
1474.389259	-2.989200	3.462600	-10.350000	25.683845	0.000706	20.769871
1475.389559	-2.988300	3.461800	-10.344000	25.680818	0.000704	20.753079
1476.387833	-2.984600	3.462000	-10.331000	25.712870	0.000704	20.751608
1477.388462	-3.003000	3.460500	-10.390000	25.703998	0.000705	20.755973
1478.390756	-2.996400	3.461500	-10.371000	25.707555	0.000703	20.754330
1479.389877	-2.988200	3.462300	-10.345000	25.706814	0.000703	20.743629
1480.391810	-2.977300	3.460300	-10.301000	25.676325	0.000703	20.753308
1481.393504	-3.033200	3.458200	-10.488000	25.686613	0.000703	20.748943
1482.399004	-3.012900	3.459100	-10.421000	25.680598	0.000701	20.750014
1483.391619	-3.006600	3.458000	-10.395000	25.663310	0.000703	20.777221
1484.394112	-3.016300	3.459200	-10.431000	25.691977	0.000701	20.758598
1485.396952	-2.987200	3.457900	-10.328000	25.703534	0.000700	20.761672
1486.392349	-2.995200	3.458400	-10.356000	25.720065	0.000700	20.768793
1487.390480	-3.009600	3.456600	-10.402000	25.708735	0.000700	20.729436
1488.392977	-2.989100	3.458000	-10.336000	25.695420	0.000699	20.752099
1489.392907	-3.017600	3.455400	-10.427000	25.689633	0.000698	20.747709
1490.392801	-3.006100	3.457600	-10.393000	25.684261	0.000698	20.748477
1491.394230	-3.012700	3.455000	-10.407000	25.736693	0.000697	20.753251
1492.399791	-3.007500	3.454900	-10.388000	25.730776	0.000697	20.732134
1493.398448	-2.999300	3.455300	-10.362000	25.772715	0.000697	20.747709
1494.393718	-2.994100	3.454300	-10.342000	25.801233	0.000696	20.754069
1495.394732	-3.018300	3.454400	-10.425000	25.806433	0.000697	20.740326
1496.399620	-2.976400	3.455600	-10.284000	25.787080	0.000696	20.757396
1497.406278	-3.013700	3.453800	-10.408000	25.792427	0.000694	20.750439
1498.394551	-3.002500	3.454500	-10.371000	25.779430	0.000694	20.757773
1499.395737	-2.998300	3.453600	-10.354000	25.804667	0.000693	20.745665
1500.396894	-3.021800	3.451600	-10.429000	25.818169	0.000693	20.747374
1501.397177	-2.981600	3.452300	-10.293000	25.801615	0.000694	20.741651
1502.394671	-2.989800	3.453800	-10.324000	25.770217	0.000692	20.742828
1503.394292	-2.985700	3.452200	-10.306000	25.763999	0.000693	20.739901
1504.395169	-3.001800	3.452300	-10.362000	25.790816	0.000692	20.736966
1505.396419	-2.999200	3.450800	-10.348000	25.799784	0.000690	20.737915
1506.397078	-3.005200	3.450100	-10.367000	25.813823	0.000692	20.745853
1507.397049	-3.036900	3.448800	-10.473000	25.785477	0.000690	20.755786
1508.396701	-2.995100	3.450200	-10.333000	25.770494	0.000689	20.724613
1509.397638	-2.976100	3.449500	-10.265000	25.763209	0.000692	20.746695
1510.397328	-3.015200	3.448300	-10.396000	25.760817	0.000690	20.746663
1511.397490	-3.003200	3.449200	-10.358000	25.800411	0.000688	20.715309
1512.403858	-3.018900	3.446900	-10.406000	25.796431	0.000689	20.737391
1513.398238	-3.006100	3.449000	-10.367000	25.835788	0.000688	20.751322
1514.398918	-2.986500	3.448100	-10.296000	25.826421	0.000686	20.745706
1515.400897	-3.019200	3.447100	-10.406000	25.829522	0.000688	20.749769
1516.399216	-3.014400	3.447700	-10.392000	25.798051	0.000686	20.760356
1517.404720	-3.015400	3.445500	-10.389000	25.827658	0.000686	20.741733
1518.400556	-2.999400	3.446300	-10.336000	25.863108	0.000686	20.725659
1519.403488	-3.012200	3.444900	-10.376000	25.847011	0.000685	20.743155
1520.400814	-3.001600	3.446000	-10.341000	25.871457	0.000685	20.738315
1521.402693	-2.982500	3.445000	-10.274000	25.862904	0.000683	20.737309
1522.402610	-3.024200	3.443300	-10.412000	25.877569	0.000682	20.722643
1523.401308	-3.021300	3.443300	-10.402000	25.893714	0.000682	20.722741
1524.399682	-3.015400	3.443100	-10.381000	25.887277	0.000683	20.756579
1525.402606	-2.989400	3.442600	-10.290000	25.895219	0.000681	20.738004
1526.404119	-2.996800	3.442800	-10.316000	25.882508	0.000684	20.727131
1527.403780	-2.986100	3.441300	-10.275000	25.871546	0.000680	20.727025
1528.405326	-3.022700	3.440200	-10.398000	25.885722	0.000681	20.738895
1529.403938	-2.998700	3.441400	-10.318000	25.909476	0.000679	20.708229
1530.406301	-3.000300	3.441600	-10.323000	25.906172	0.000679	20.729567
1531.406723	-2.984000	3.441800	-10.269000	25.888204	0.000678	20.715309
1532.407049	-3.011800	3.440500	-10.361000	25.858623	0.000678	20.711671
1533.409190	-2.985000	3.440800	-10.270000	25.850070	0.000677	20.733426
1534.407388	-3.013400	3.438200	-10.360000	25.862985	0.000676	20.725062
1535.408413	-3.000100	3.439900	-10.319000	25.849313	0.000677	20.728398
1536.405985	-3.003400	3.437400	-10.323000	25.877934	0.000677	20.731071
1537.404401	-3.001400	3.439600	-10.322000	25.888660	0.000676	20.723353
1538.407416	-2.991500	3.438700	-10.286000	25.881368	0.000674	20.721718
1539.408631	-3.014700	3.437200	-10.361000	25.908003	0.000674	20.735200
1540.405617	-3.012800	3.437200	-10.355000	25.897310	0.000674	20.716396
1541.404798	-3.025100	3.435400	-10.391000	25.896236	0.000673	20.733335
1542.406317	-2.968900	3.436100	-10.200000	25.864563	0.000673	20.720483
1543.406600	-2.981800	3.435800	-10.244000	25.799572	0.000671	20.740072
1544.409817	-2.988100	3.434800	-10.262000	25.735984	0.000673	20.741159
1545.407442	-2.994400	3.436000	-10.288000	25.750064	0.000670	20.734439
1546.409484	-2.989700	3.435600	-10.270000	25.715132	0.000673	20.717842
1547.408944	-2.985900	3.436000	-10.259000	25.729285	0.000672	20.718782
1548.407585	-2.996300	3.435200	-10.292000	25.713699	0.000671	20.707394
1549.413172	-3.002000	3.434300	-10.309000	25.724630	0.000669	20.720270
1550.410676	-2.989500	3.433900	-10.265000	25.739410	0.000671	20.716624
1551.411479	-3.012000	3.433800	-10.341000	25.732280	0.000667	20.734120
1552.413789	-2.981500	3.434300	-10.239000	25.761409	0.000667	20.729239
1553.413980	-3.007000	3.432300	-10.320000	25.772885	0.000669	20.722273
1554.413968	-3.000700	3.431100	-10.294000	25.786867	0.000667	20.720670
1555.417425	-2.984700	3.432700	-10.244000	25.764176	0.000667	20.718267
1556.414979	-2.988300	3.432800	-10.257000	25.777238	0.000668	20.717637
1557.414186	-3.006300	3.431400	-10.315000	25.806529	0.000667	20.733310
1558.414226	-3.015100	3.430900	-10.344000	25.822651	0.000665	20.728641
1559.417751	-3.016100	3.431300	-10.347000	25.803884	0.000664	20.741559
1560.414564	-3.007200	3.431100	-10.317000	25.828999	0.000665	20.711783
1561.414175	-3.009100	3.428600	-10.316000	25.785336	0.000665	20.721030
1562.415339	-3.008200	3.429300	-10.314000	25.748916	0.000665	20.710524
1563.416543	-2.991800	3.428000	-10.254000	25.747345	0.000664	20.706101
1564.415187	-2.984800	3.430100	-10.236000	25.718753	0.000664	20.697770
1565.416547	-3.003600	3.428100	-10.295000	25.732467	0.000662	20.721978
1566.416312	-3.000100	3.428200	-10.284000	25.756436	0.000662	20.697214
1567.415943	-3.011200	3.426300	-10.314000	25.790716	0.000662	20.719321
1568.416891	-3.012500	3.427000	-10.323000	25.808579	0.000659	20.721618
1569.416425	-2.946400	3.428900	-10.101000	25.814577	0.000662	20.726695
1570.416911	-3.000400	3.426900	-10.281000	25.781519	0.000660	20.729998
1571.419261	-3.018000	3.426100	-10.339000	25.781861	0.000661	20.721806
1572.418181	-2.994200	3.425900	-10.257000	25.832888	0.000660	20.721381
1573.421246	-3.004800	3.424100	-10.288000	25.817865	0.000657	20.703444
1574.418806	-2.996000	3.426400	-10.265000	25.820966	0.000659	20.716042
1575.419853	-3.003100	3.425000	-10.284000	25.789185	0.000657	20.711145
1576.423751	-3.016800	3.424400	-10.329000	25.756411	0.000658	20.717579
1577.420228	-2.988400	3.424000	-10.232000	25.752016	0.000656	20.736400
1578.420036	-3.016000	3.423100	-10.323000	25.738839	0.000658	20.723637
1579.419830	-3.010600	3.422400	-10.303000	25.720079	0.000657	20.709060
1580.420381	-2.991600	3.423300	-10.240000	25.773974	0.000654	20.713884
1581.424035	-3.010900	3.422400	-10.303000	25.785800	0.000655	20.696838
1582.425180	-3.008600	3.421700	-10.294000	25.808156	0.000654	20.710287
1583.421153	-3.014800	3.420900	-10.312000	25.811053	0.000653	20.714620
1584.423785	-3.014200	3.420600	-10.309000	25.797641	0.000654	20.716794
1585.421118	-3.010800	3.420400	-10.297000	25.805869	0.000653	20.697557
1586.422077	-2.995600	3.421400	-10.248000	25.791383	0.000654	20.690591
1587.425103	-3.025200	3.419900	-10.344000	25.803973	0.000651	20.704188
1588.424719	-3.007000	3.419200	-10.281000	25.810410	0.000651	20.704964
1589.423690	-2.996600	3.419800	-10.246000	25.829161	0.000652	20.707204
1590.425231	-2.989200	3.420200	-10.223000	25.835411	0.000653	20.723441
1591.422260	-2.978500	3.420200	-10.186000	25.853006	0.000652	20.706975
1592.426049	-3.011100	3.418000	-10.291000	25.846796	0.000649	20.708324
1593.426797	-2.991700	3.420000	-10.230000	25.865497	0.000650	20.712886
1594.423150	-3.020400	3.417800	-10.322000	25.856554	0.000649	20.700108
1595.423709	-2.990800	3.418400	-10.223000	25.843907	0.000648	20.703525
1596.427849	-3.010600	3.417200	-10.287000	25.854186	0.000649	20.687771
1597.428334	-2.998400	3.416000	-10.242000	25.846039	0.000646	20.711832
1598.425922	-3.010600	3.417000	-10.287000	25.850214	0.000649	20.717923
1599.434306	-3.007200	3.415900	-10.270000	25.844029	0.000647	20.705070
1600.425108	-2.993400	3.415900	-10.225000	25.846935	0.000648	20.721266
1601.424438	-3.015400	3.414600	-10.296000	25.872870	0.000646	20.714129
1602.427440	-2.997800	3.414000	-10.233000	25.851874	0.000646	20.717694
1603.426930	-2.990100	3.413600	-10.206000	25.847724	0.000644	20.697876
1604.426548	-3.017300	3.414000	-10.299000	25.828941	0.000644	20.716942
1605.427128	-3.025900	3.412900	-10.326000	25.810190	0.000643	20.705692
1606.429964	-2.988000	3.413600	-10.199000	25.774585	0.000645	20.729197
1607.429760	-3.008200	3.414000	-10.268000	25.769425	0.000642	20.696985
1608.428067	-2.998000	3.413400	-10.232000	25.809564	0.000643	20.700320
1609.426166	-2.978400	3.413000	-10.164000	25.869697	0.000644	20.694344
1610.427117	-2.990600	3.412100	-10.201000	25.870160	0.000642	20.701923
1611.426899	-2.992300	3.411100	-10.206000	25.887543	0.000642	20.708954
1612.427361	-3.003800	3.409200	-10.239000	25.877110	0.000640	20.709853
1613.427167	-2.968200	3.413000	-10.129000	25.870754	0.000640	20.711055
1614.426741	-2.986000	3.409600	-10.180000	25.814658	0.000641	20.698325
1615.428732	-2.993300	3.410300	-10.206000	25.785865	0.000640	20.707335
1616.429846	-3.017700	3.407500	-10.280000	25.800546	0.000638	20.694107
1617.429265	-3.008500	3.408900	-10.254000	25.770637	0.000640	20.714325
1618.433573	-2.981500	3.410700	-10.168000	25.796575	0.000638	20.724733
1619.431178	-3.000500	3.408400	-10.226000	25.797942	0.000640	20.709036
1620.433574	-3.015600	3.406700	-10.272000	25.824424	0.000636	20.723784
1621.429862	-3.025400	3.406800	-10.306000	25.842809	0.000636	20.707163
1622.429698	-2.991000	3.408500	-10.194000	25.852753	0.000636	20.724267
1623.434577	-3.014900	3.407400	-10.272000	25.882188	0.000637	20.713058
1624.429023	-3.013800	3.407400	-10.268000	25.889886	0.000634	20.727431
1625.431282	-2.989200	3.405900	-10.179000	25.878412	0.000635	20.716852
1626.431311	-2.991200	3.405300	-10.185000	25.902541	0.000636	20.727815
1627.433317	-2.999100	3.405500	-10.212000	25.910963	0.000634	20.723000
1628.432597	-2.989900	3.405300	-10.180000	25.917839	0.000633	20.693870
1629.436095	-2.984600	3.405400	-10.162000	25.901222	0.000634	20.731232
1630.434014	-2.984800	3.404800	-10.161000	25.918832	0.000631	20.710990
1631.433186	-2.994600	3.404100	-10.193000	25.925814	0.000632	20.705201
1632.433273	-2.982100	3.404200	-10.150000	25.969609	0.000632	20.704629
1633.433069	-2.998300	3.403400	-10.203000	25.971619	0.000632	20.720874
1634.436782	-2.996000	3.403500	-10.196000	26.010717	0.000632	20.713688
1635.433732	-2.998700	3.403500	-10.205000	26.029920	0.000630	20.710221
1636.433461	-2.989900	3.403200	-10.174000	26.032979	0.000631	20.730840
1637.432508	-3.010500	3.401100	-10.238000	26.056250	0.000630	20.724823
1638.434172	-2.988700	3.401900	-10.166000	26.070757	0.000630	20.695775
1639.434606	-2.997400	3.401400	-10.195000	26.078511	0.000629	20.727750
1640.433661	-2.992600	3.400800	-10.175000	26.065029	0.000629	20.709935
1641.435334	-2.980700	3.402500	-10.140000	26.052613	0.000629	20.707891
1642.434469	-2.982600	3.400700	-10.142000	26.058943	0.000627	20.713778
1643.435602	-2.996900	3.401400	-10.193000	26.070245	0.000628	20.740782
1644.438436	-3.011200	3.399700	-10.236000	26.067145	0.000627	20.721545
1645.435775	-3.023300	3.397600	-10.271000	26.038407	0.000626	20.733922
1646.435402	-3.023700	3.399800	-10.279000	26.025022	0.000627	20.718577
1647.434745	-3.000100	3.399500	-10.198000	26.008138	0.000626	20.721054
1648.436408	-2.995800	3.398700	-10.181000	25.999887	0.000625	20.732206
1649.437088	-3.003300	3.398800	-10.207000	25.982799	0.000624	20.717408
1650.437216	-3.010600	3.397200	-10.226000	26.014151	0.000626	20.739899
1651.436852	-2.999000	3.397200	-10.187000	26.018268	0.000622	20.731707
1652.437826	-2.985800	3.396600	-10.141000	26.042507	0.000622	20.720024
1653.435513	-2.991600	3.397100	-10.162000	26.039529	0.000623	20.737896
1654.435993	-3.007100	3.395500	-10.210000	26.016625	0.000620	20.717727
1655.435303	-2.995400	3.396300	-10.172000	25.977950	0.000621	20.738141
1656.439341	-2.985200	3.396400	-10.139000	25.954661	0.000621	20.716165
1657.437126	-2.991900	3.396000	-10.160000	25.957810	0.000621	20.725493
1658.437822	-2.983200	3.395800	-10.130000	25.978308	0.000620	20.724275
1659.438460	-2.995800	3.395400	-10.170000	25.966558	0.000620	20.724324
1660.438074	-3.005800	3.394100	-10.201000	25.964597	0.000619	20.726622
1661.441870	-2.993400	3.394300	-10.160000	25.976640	0.000619	20.717857
1662.440274	-3.001200	3.394600	-10.187000	25.983369	0.000617	20.744060
1663.444307	-2.990700	3.392000	-10.144000	26.003842	0.000618	20.729540
1664.440225	-3.003500	3.393000	-10.190000	25.985159	0.000619	20.721201
1665.442728	-2.999500	3.392200	-10.174000	25.980814	0.000617	20.729638
1666.449991	-2.992800	3.391200	-10.148000	25.988992	0.000616	20.728371
1667.441740	-3.012300	3.391400	-10.214000	25.995794	0.000616	20.751328
1668.443645	-3.003800	3.393500	-10.191000	25.961814	0.000616	20.734732
1669.442659	-3.019000	3.390900	-10.236000	25.980171	0.000615	20.730415
1670.441907	-2.989800	3.390400	-10.135000	25.978812	0.000614	20.721463
1671.441839	-2.996100	3.391200	-10.159000	25.980700	0.000614	20.716247
1672.446855	-3.008700	3.389600	-10.197000	25.989618	0.000614	20.747494
1673.443315	-3.007300	3.389300	-10.192000	26.017910	0.000611	20.724234
1674.446280	-2.978700	3.389300	-10.095000	25.987259	0.000611	20.739907
1675.445273	-2.983200	3.388900	-10.109000	25.938102	0.000613	20.730350
1676.443790	-3.022300	3.386900	-10.235000	25.969227	0.000611	20.731748
1677.446815	-2.982600	3.388500	-10.106000	25.947891	0.000612	20.730227
1678.444751	-3.004700	3.386800	-10.175000	25.899131	0.000609	20.731977
1679.444952	-3.008500	3.388600	-10.192000	25.916774	0.000611	20.725992
1680.444545	-2.981700	3.388800	-10.104000	25.898513	0.000609	20.725665
1681.444324	-2.997800	3.387100	-10.153000	25.901296	0.000610	20.750748
1682.446724	-3.004000	3.386800	-10.173000	25.902411	0.000609	20.744281
1683.448624	-2.982800	3.385700	-10.098000	25.922389	0.000609	20.737798
1684.446266	-3.012700	3.385600	-10.199000	25.958876	0.000608	20.734626
1685.447784	-2.998500	3.386500	-10.153000	25.917864	0.000606	20.723769
1686.447464	-2.992700	3.384700	-10.128000	25.880008	0.000608	20.755914
1687.448515	-2.994100	3.385200	-10.135000	25.884231	0.000607	20.747829
1688.451374	-2.982800	3.383900	-10.093000	25.880333	0.000606	20.758138
1689.447616	-3.040200	3.381500	-10.279000	25.869396	0.000605	20.753315
1690.452404	-2.993100	3.384700	-10.129000	25.851386	0.000606	20.747077
1691.450684	-2.986600	3.383700	-10.105000	25.824929	0.000606	20.745630
1692.450393	-2.998500	3.383600	-10.144000	25.816986	0.000604	20.731960
1693.454845	-3.023900	3.381300	-10.224000	25.818370	0.000602	20.758481
1694.450754	-2.983300	3.384200	-10.094000	25.809898	0.000603	20.753764
1695.450729	-3.016700	3.381400	-10.199000	25.840058	0.000603	20.727161
1696.451190	-3.003500	3.381100	-10.155000	25.813072	0.000603	20.750314
1697.451245	-3.006200	3.380500	-10.162000	25.846414	0.000602	20.759152
1698.452744	-2.994200	3.382500	-10.127000	25.841743	0.000601	20.731225
1699.452533	-2.994200	3.382800	-10.127000	25.869290	0.000601	20.779287
1700.451801	-3.008500	3.380100	-10.167000	25.870014	0.000599	20.737340
1701.451646	-3.016100	3.380000	-10.193000	25.917937	0.000600	20.758457
1702.450766	-3.004500	3.378500	-10.150000	25.937988	0.000600	20.750625
1703.453402	-3.024200	3.378900	-10.218000	25.956419	0.000598	20.759659
1704.451393	-3.019700	3.377200	-10.197000	26.004029	0.000598	20.761972
1705.451116	-2.989700	3.378900	-10.101000	25.962758	0.000599	20.760337
1706.452619	-2.988400	3.378600	-10.096000	25.945881	0.000597	20.744804
1707.451586	-2.999700	3.378100	-10.132000	25.965484	0.000597	20.748851
1708.455101	-2.994000	3.378800	-10.115000	25.963352	0.000598	20.762831
1709.453419	-2.973700	3.378200	-10.045000	26.010547	0.000596	20.772314
1710.454144	-2.984700	3.378000	-10.081000	26.024379	0.000595	20.787634
1711.452755	-2.983200	3.377800	-10.075000	26.037837	0.000596	20.758007
1712.453814	-2.961600	3.377400	-10.001000	26.070969	0.000593	20.754786
1713.456375	-2.999100	3.377900	-10.130000	26.064021	0.000594	20.785738
1714.453295	-3.014300	3.376000	-10.175000	26.093922	0.000595	20.772633
1715.456298	-3.001700	3.375400	-10.131000	26.121519	0.000592	20.766698
1716.454508	-3.015900	3.374600	-10.176000	26.154396	0.000592	20.756585
1717.454653	-3.001200	3.375500	-10.130000	26.120022	0.000593	20.769461
1718.456126	-3.008000	3.374000	-10.147000	26.145162	0.000591	20.736874
1719.456826	-2.976600	3.375400	-10.046000	26.131770	0.000594	20.745703
1720.453722	-2.968300	3.374000	-10.014000	26.082645	0.000592	20.759879
1721.454127	-3.006100	3.374400	-10.142000	26.060457	0.000592	20.781683
1722.454508	-2.981900	3.374300	-10.060000	26.066217	0.000592	20.773246
1723.456629	-2.998100	3.371800	-10.108000	26.071156	0.000592	20.759242
1724.462822	-2.974200	3.373200	-10.031000	26.060408	0.000589	20.763616
1725.455685	-3.018000	3.370700	-10.172000	26.114636	0.000591	20.771635
1726.457172	-2.990100	3.371900	-10.081000	26.124350	0.000591	20.775707
1727.455721	-3.000700	3.370700	-10.113000	26.138442	0.000588	20.752407
1728.455502	-3.005300	3.371300	-10.131000	26.173271	0.000588	20.771284
1729.458311	-3.013100	3.370500	-10.155000	26.160774	0.000586	20.769158
1730.456801	-2.988800	3.371400	-10.076000	26.152232	0.000587	20.792343
1731.455553	-2.996400	3.370400	-10.098000	26.135635	0.000588	20.774243
1732.457595	-3.004100	3.369300	-10.121000	26.115311	0.000587	20.777055
1733.458230	-3.018500	3.369600	-10.170000	26.104978	0.000585	20.758612
1734.458819	-2.993900	3.369700	-10.087000	26.116499	0.000585	20.775404
1735.461084	-3.012800	3.369400	-10.150000	26.129158	0.000586	20.762520
1736.458194	-2.996300	3.368800	-10.092000	26.174662	0.000585	20.775527
1737.460253	-2.991300	3.368900	-10.077000	26.171855	0.000584	20.768913
1738.456593	-2.994400	3.368700	-10.085000	26.201452	0.000586	20.769256
1739.456953	-3.001400	3.367500	-10.107000	26.174279	0.000583	20.779884
1740.460595	-3.002700	3.366500	-10.108000	26.158781	0.000582	20.780906
1741.458729	-2.998000	3.367100	-10.093000	26.133674	0.000582	20.772747
1742.462013	-2.980800	3.366900	-10.035000	26.078853	0.000583	20.793528
1743.460608	-2.997700	3.366600	-10.091000	26.061002	0.000582	20.777963
1744.460134	-3.023700	3.366100	-10.177000	26.061937	0.000581	20.790757
1745.464147	-3.005600	3.365800	-10.115000	26.086476	0.000580	20.794076
1746.461770	-2.986000	3.365800	-10.049000	26.118541	0.000579	20.794526
1747.461345	-2.989000	3.364800	-10.056000	26.109022	0.000579	20.776900
1748.461491	-2.992900	3.365500	-10.071000	26.134528	0.000579	20.771234
1749.462786	-3.005300	3.363900	-10.109000	26.160750	0.000579	20.785729
1750.465055	-3.019500	3.363400	-10.155000	26.195017	0.000578	20.785549
1751.463645	-2.989500	3.362800	-10.051000	26.179649	0.000577	20.801401
1752.463432	-2.987500	3.363200	-10.047000	26.229169	0.000576	20.790945
1753.462677	-3.009300	3.363000	-10.120000	26.207261	0.000573	20.782680
1754.463634	-2.997900	3.364400	-10.085000	26.177159	0.000577	20.798425
1755.463847	-3.049100	3.361200	-10.248000	26.153468	0.000576	20.793111
1756.463623	-2.991700	3.362300	-10.058000	26.157398	0.000574	20.798956
1757.462479	-2.990000	3.361600	-10.050000	26.148326	0.000574	20.804540
1758.462690	-2.979300	3.361400	-10.014000	26.164102	0.000574	20.799054
1759.463214	-2.999200	3.362300	-10.082000	26.188118	0.000574	20.788100
1760.464732	-2.992900	3.361400	-10.060000	26.187915	0.000574	20.803543
1761.465840	-2.992300	3.360700	-10.055000	26.207017	0.000574	20.807565
1762.464896	-2.978800	3.360300	-10.008000	26.231674	0.000571	20.810058
1763.466622	-3.015200	3.359700	-10.128000	26.231300	0.000571	20.801147
1764.465084	-2.981400	3.359300	-10.014000	26.249385	0.000571	20.813630
1765.464781	-2.997800	3.359200	-10.069000	26.276775	0.000569	20.772878
1766.468344	-3.035000	3.358700	-10.192000	26.280631	0.000571	20.783865
1767.467769	-3.014600	3.357300	-10.120000	26.292865	0.000570	20.794264
1768.469153	-3.010300	3.358300	-10.109000	26.281347	0.000570	20.804973
1769.467397	-2.990800	3.358700	-10.044000	26.306776	0.000568	20.800183
1770.470726	-2.988300	3.358000	-10.034000	26.313804	0.000567	20.813884
1771.471036	-3.013100	3.357100	-10.114000	26.276132	0.000569	20.810164
1772.470758	-3.003500	3.356200	-10.079000	26.243414	0.000567	20.812372
1773.466478	-2.998600	3.356200	-10.061000	26.233773	0.000568	20.796994
1774.468288	-3.002800	3.356000	-10.077000	26.254038	0.000565	20.793177
1775.468524	-2.994400	3.356400	-10.049000	26.286447	0.000568	20.805357
1776.469521	-2.978000	3.356300	-9.994300	26.272642	0.000566	20.808080
1777.473075	-2.994500	3.355500	-10.046000	26.282624	0.000564	20.806257
1778.471041	-3.001800	3.355300	-10.071000	26.302245	0.000565	20.830242
1779.475398	-3.009600	3.354800	-10.095000	26.321263	0.000566	20.788190
1780.471241	-2.991900	3.354800	-10.036000	26.337548	0.000561	20.797918
1781.470998	-2.991900	3.353500	-10.032000	26.357152	0.000563	20.795335
1782.475717	-3.009400	3.353700	-10.092000	26.362545	0.000562	20.792694
1783.471466	-2.984900	3.352500	-10.005000	26.315309	0.000561	20.815396
1784.472157	-2.991900	3.354200	-10.035000	26.337614	0.000561	20.811260
1785.470137	-2.990000	3.352900	-10.024000	26.335206	0.000562	20.786081
1786.472017	-2.993500	3.352800	-10.035000	26.350848	0.000559	20.819819
1787.473522	-3.013100	3.351300	-10.096000	26.389566	0.000560	20.794248
1788.473035	-3.033300	3.349100	-10.157000	26.383157	0.000560	20.828108
1789.473489	-3.023400	3.348700	-10.123000	26.332302	0.000559	20.837215
1790.474606	-2.974500	3.351300	-9.967500	26.336084	0.000559	20.827741
1791.473102	-3.016400	3.350200	-10.104000	26.313739	0.000557	20.810500
1792.472755	-2.988700	3.350200	-10.012000	26.316318	0.000559	20.808824
1793.478002	-2.997900	3.349900	-10.042000	26.292508	0.000558	20.808603
1794.474617	-2.997900	3.350400	-10.043000	26.250402	0.000556	20.805644
1795.479271	-2.991100	3.348800	-10.016000	26.198946	0.000556	20.806093
1796.474707	-2.992700	3.349500	-10.023000	26.179104	0.000556	20.839733
1797.479584	-2.992000	3.348700	-10.018000	26.156609	0.000556	20.824242
1798.476088	-2.987800	3.347600	-10.001000	26.150052	0.000556	20.814334
1799.475803	-2.998700	3.348700	-10.040000	26.139141	0.000555	20.838932
1800.480091	-3.001500	3.346900	-10.044000	26.183733	0.000555	20.811669
1801.476117	-3.016600	3.348200	-10.099000	26.204023	0.000554	20.819255
1802.475092	-2.996000	3.347300	-10.028000	26.224963	0.000553	20.835082
1803.478508	-2.992800	3.347800	-10.018000	26.238020	0.000551	20.853892
1804.476725	-2.996600	3.345500	-10.024000	26.214078	0.000551	20.834101
1805.476036	-3.006500	3.345600	-10.057000	26.194659	0.000554	20.819803
1806.476439	-3.015800	3.346500	-10.090000	26.147521	0.000550	20.825067
1807.476286	-3.010000	3.344800	-10.067000	26.116849	0.000550	20.835973
1808.478020	-3.013600	3.344400	-10.078000	26.094922	0.000550	20.834804
1809.481197	-3.016700	3.344500	-10.088000	26.104987	0.000548	20.817890
1810.477589	-3.000400	3.344800	-10.033000	26.120925	0.000550	20.833904
1811.477345	-3.001300	3.344800	-10.037000	26.155503	0.000549	20.832613
1812.477829	-3.003300	3.343000	-10.039000	26.197962	0.000548	20.829760
1813.478272	-3.004100	3.343900	-10.044000	26.218056	0.000549	20.835727
1814.481234	-2.979800	3.342700	-9.959000	26.210214	0.000548	20.822157
1815.477490	-3.013500	3.342000	-10.070000	26.221685	0.000548	20.822304
1816.476725	-3.002000	3.341700	-10.030000	26.233383	0.000546	20.813198
1817.477334	-2.971300	3.342900	-9.931100	26.227648	0.000548	20.807908
1818.477297	-2.990200	3.342400	-9.992100	26.190421	0.000548	20.826449
1819.479315	-2.999400	3.341200	-10.020000	26.214461	0.000545	20.816468
1820.478185	-3.001300	3.340400	-10.025000	26.228372	0.000544	20.815748
1821.479148	-3.003200	3.340200	-10.031000	26.199614	0.000543	20.821462
1822.478653	-3.022800	3.339500	-10.094000	26.187638	0.000542	20.827921
1823.478036	-3.006200	3.340000	-10.040000	26.211914	0.000542	20.796365
1824.482560	-2.996700	3.338700	-10.003000	26.216869	0.000543	20.829793
1825.478193	-2.991200	3.339800	-9.989300	26.238679	0.000544	20.800502
1826.478579	-3.005200	3.339000	-10.033000	26.263068	0.000541	20.814579
1827.483049	-3.018100	3.339200	-10.075000	26.277150	0.000544	20.807868
1828.477677	-2.997500	3.338100	-10.006000	26.308216	0.000542	20.825337
1829.477932	-3.021500	3.337400	-10.084000	26.326787	0.000540	20.803698
1830.480156	-3.037600	3.337200	-10.137000	26.307939	0.000539	20.800404
1831.479776	-3.002800	3.337800	-10.022000	26.355412	0.000540	20.798801
1832.483586	-2.999700	3.337000	-10.009000	26.352085	0.000539	20.804941
1833.479190	-2.966700	3.338300	-9.903000	26.340046	0.000537	20.808489
1834.481698	-3.012100	3.336300	-10.048000	26.360130	0.000538	20.804491
1835.483845	-2.993900	3.337100	-9.990200	26.361219	0.000536	20.818389
1836.485269	-3.005700	3.336400	-10.027000	26.368524	0.000535	20.794436
1837.485339	-2.991400	3.335600	-9.976000	26.364026	0.000537	20.804614
1838.482816	-2.989600	3.336100	-9.971900	26.377691	0.000534	20.810762
1839.483870	-3.005800	3.334900	-10.023000	26.394423	0.000535	20.791068
1840.485694	-2.992900	3.335300	-9.981700	26.412374	0.000537	20.810058
1841.483664	-3.008500	3.335000	-10.032000	26.418434	0.000534	20.796709
1842.483517	-3.011900	3.335700	-10.047000	26.410170	0.000533	20.829654
1843.484840	-3.009100	3.334400	-10.033000	26.404997	0.000532	20.796480
1844.485736	-2.989000	3.333300	-9.961800	26.408624	0.000533	20.802497
1845.486513	-2.980500	3.332800	-9.932600	26.434921	0.000531	20.811383
1846.487244	-3.010900	3.331000	-10.028000	26.448626	0.000529	20.816623
1847.485183	-2.996700	3.333300	-9.987800	26.444527	0.000531	20.790692
1848.487157	-2.973800	3.333600	-9.911800	26.457833	0.000531	20.772298
1849.485229	-2.984300	3.333400	-9.946700	26.423078	0.000530	20.786678
1850.486554	-2.991400	3.333100	-9.970100	26.386134	0.000530	20.822092
1851.489457	-3.002900	3.330700	-10.001000	26.342804	0.000530	20.789449
1852.488080	-2.991300	3.331700	-9.965600	26.310640	0.000529	20.795057
1853.489867	-3.004800	3.330700	-10.006000	26.261270	0.000528	20.797126
1854.488704	-3.009100	3.329700	-10.018000	26.237191	0.000529	20.810385
1855.488821	-3.004300	3.329800	-10.003000	26.241510	0.000528	20.764466
1856.489593	-2.993900	3.329200	-9.966600	26.241266	0.000527	20.813059
1857.491941	-3.015400	3.328400	-10.035000	26.213444	0.000527	20.795531
1858.489427	-2.995200	3.329000	-9.970100	26.231057	0.000527	20.782885
1859.489357	-2.989400	3.327800	-9.946200	26.198719	0.000523	20.784054
1860.491049	-3.018800	3.326800	-10.042000	26.204430	0.000525	20.788844
1861.489913	-3.001900	3.326900	-9.986600	26.223076	0.000524	20.789089
1862.497887	-3.009100	3.328100	-10.014000	26.262767	0.000522	20.786776
1863.488635	-2.972800	3.327800	-9.890700	26.263182	0.000524	20.790986
1864.491145	-3.010900	3.326200	-10.013000	26.236352	0.000522	20.792948
1865.490240	-2.992400	3.327700	-9.956500	26.245000	0.000521	20.778404
1866.490721	-3.008600	3.324900	-10.002000	26.212028	0.000521	20.773246
1867.494072	-3.000100	3.324700	-9.972500	26.223621	0.000520	20.795801
1868.490694	-2.992200	3.326600	-9.952700	26.261295	0.000520	20.772968
1869.490786	-2.989300	3.324600	-9.936100	26.281184	0.000520	20.782525
1870.491673	-3.006100	3.324300	-9.991700	26.332855	0.000519	20.789882
1871.491145	-2.973700	3.326000	-9.889800	26.372640	0.000516	20.777710
1872.490593	-2.991800	3.324700	-9.946400	26.401263	0.000517	20.760958
1873.494332	-3.012500	3.323500	-10.011000	26.398758	0.000518	20.781200
1874.490906	-3.007000	3.323800	-9.994000	26.409413	0.000517	20.770573
1875.493382	-2.965200	3.324700	-9.857300	26.415847	0.000517	20.765659
1876.492023	-3.008200	3.323500	-9.996500	26.414058	0.000516	20.783776
1877.492616	-2.985900	3.322400	-9.919700	26.390250	0.000516	20.767433
1878.493607	-2.990900	3.322800	-9.936900	26.390478	0.000516	20.778094
1879.493028	-3.003100	3.321200	-9.972300	26.345683	0.000515	20.779541
1880.495373	-2.982200	3.322100	-9.905900	26.319816	0.000515	20.769665
1881.492410	-3.019900	3.319800	-10.025000	26.269560	0.000513	20.773213
1882.493306	-2.988300	3.319700	-9.919400	26.213712	0.000515	20.773990
1883.496085	-2.989600	3.319900	-9.924000	26.176607	0.000515	20.759463
1884.494398	-2.990200	3.320000	-9.925600	26.173963	0.000511	20.759177
1885.494719	-2.979800	3.319500	-9.889300	26.179422	0.000510	20.764188
1886.493751	-2.997600	3.318100	-9.945700	26.199866	0.000511	20.776197
1887.494657	-3.027000	3.317300	-10.040000	26.228275	0.000512	20.770606
1888.496153	-2.993100	3.319500	-9.934800	26.232619	0.000509	20.770704
1889.495731	-3.012400	3.318000	-9.993400	26.250142	0.000509	20.761286
1890.495567	-3.008800	3.316600	-9.977000	26.252273	0.000508	20.753470
1891.497678	-3.001800	3.317900	-9.957700	26.212647	0.000510	20.765807
1892.495666	-2.991500	3.318100	-9.925500	26.202348	0.000508	20.782010
1893.496212	-3.018300	3.316700	-10.010000	26.193179	0.000508	20.775642
1894.496914	-2.983200	3.317600	-9.896100	26.210865	0.000508	20.749317
1895.495358	-2.989600	3.316200	-9.913000	26.224004	0.000506	20.775323
1896.496957	-3.011900	3.314700	-9.982200	26.262629	0.000505	20.759610
1897.495689	-2.995000	3.315300	-9.927900	26.278842	0.000506	20.754092
1898.494161	-3.018100	3.314700	-10.003000	26.320841	0.000504	20.766429
1899.500633	-3.001000	3.314500	-9.945500	26.346269	0.000504	20.747413
1900.498950	-3.015500	3.315300	-9.996600	26.349125	0.000505	20.755024
1901.500963	-2.998100	3.314700	-9.937000	26.384215	0.000504	20.755678
1902.498279	-3.009500	3.314600	-9.973600	26.381629	0.000503	20.765407
1903.499204	-2.996900	3.313500	-9.929300	26.447903	0.000504	20.767058
1904.501471	-2.994900	3.312300	-9.917400	26.456150	0.000503	20.759226
1905.503251	-2.972000	3.312900	-9.844400	26.461510	0.000500	20.753234
1906.503517	-3.004200	3.312900	-9.951900	26.483836	0.000501	20.768088
1907.499909	-2.982800	3.311900	-9.877300	26.481030	0.000500	20.759104
1908.501883	-3.007000	3.312500	-9.959400	26.481656	0.000500	20.734602
1909.500294	-3.024700	3.311700	-10.015000	26.457948	0.000502	20.743963
1910.503531	-2.982000	3.311900	-9.875000	26.399849	0.000499	20.753847
1911.503219	-2.997600	3.311000	-9.924000	26.386046	0.000497	20.749457
1912.504330	-3.004400	3.311100	-9.947100	26.381206	0.000498	20.754550
1913.503138	-2.999800	3.309400	-9.926500	26.412318	0.000498	20.745990
1914.501504	-2.999900	3.308700	-9.924800	26.437297	0.000497	20.761614
1915.507969	-3.028100	3.307800	-10.015000	26.435678	0.000496	20.766151
1916.501924	-3.005900	3.307900	-9.942600	26.450311	0.000497	20.755253
1917.502190	-2.994500	3.309000	-9.907600	26.469595	0.000496	20.762308
1918.502904	-3.002100	3.308200	-9.931300	26.493165	0.000494	20.743325
1919.505730	-3.010900	3.307000	-9.955900	26.479875	0.000494	20.729967
1920.504305	-3.008100	3.307800	-9.949400	26.472702	0.000494	20.731765
1921.505242	-3.001900	3.307700	-9.929000	26.448603	0.000496	20.745476
1922.503234	-2.989400	3.306000	-9.881400	26.444032	0.000492	20.755106
1923.504113	-3.013800	3.306400	-9.963000	26.474491	0.000492	20.744944
1924.504470	-3.009500	3.305600	-9.947500	26.485918	0.000492	20.742680
1925.506686	-2.997500	3.305100	-9.905400	26.482242	0.000492	20.751313
1926.509449	-2.993800	3.305900	-9.896500	26.433710	0.000492	20.730506
1927.504843	-2.988600	3.305700	-9.878100	26.415133	0.000490	20.718472
1928.506282	-3.000800	3.304700	-9.915700	26.406934	0.000489	20.741053
1929.507041	-2.993300	3.304300	-9.889800	26.433059	0.000489	20.748819
1930.507195	-2.973000	3.305400	-9.825600	26.438566	0.000490	20.741551
1931.508237	-3.006100	3.303400	-9.929000	26.472987	0.000489	20.749122
1932.506352	-2.980200	3.304000	-9.845600	26.494377	0.000487	20.735534
1933.505950	-2.990600	3.304500	-9.881400	26.511953	0.000488	20.740873
1934.506683	-2.997900	3.302000	-9.897100	26.550356	0.000485	20.749130
1935.506488	-2.991000	3.303300	-9.879000	26.536823	0.000486	20.748329
1936.507430	-3.004800	3.301600	-9.919900	26.536002	0.000486	20.747029
1937.509661	-3.001100	3.301100	-9.905800	26.585676	0.000486	20.728683
1938.508994	-2.999300	3.302900	-9.905100	26.605706	0.000485	20.750716
1939.508605	-3.008400	3.300800	-9.928800	26.621873	0.000483	20.727612
1940.506646	-3.010800	3.301000	-9.936400	26.626736	0.000485	20.731552
1941.508682	-3.001200	3.301800	-9.909600	26.651872	0.000483	20.735011
1942.509747	-2.995100	3.300500	-9.883600	26.670535	0.000483	20.730538
1943.508196	-3.021700	3.299400	-9.969100	26.681114	0.000483	20.759668
1944.507994	-2.993200	3.301100	-9.879600	26.677455	0.000479	20.726590
1945.507486	-3.003500	3.298900	-9.907700	26.644171	0.000481	20.753348
1946.507012	-2.991400	3.298400	-9.865200	26.655230	0.000480	20.740758
1947.510837	-2.978400	3.298200	-9.822100	26.649798	0.000481	20.730081
1948.512152	-2.988600	3.298200	-9.856100	26.629484	0.000478	20.720564
1949.507955	-2.996900	3.298700	-9.885000	26.638470	0.000479	20.733866
1950.508770	-2.994100	3.297400	-9.871800	26.600907	0.000477	20.747788
1951.508710	-3.007500	3.296000	-9.912300	26.633713	0.000476	20.729557
1952.508204	-3.014100	3.296700	-9.935300	26.648481	0.000477	20.733024
1953.513036	-2.999000	3.295900	-9.883400	26.674950	0.000476	20.746832
1954.511584	-2.976900	3.296000	-9.810600	26.698938	0.000473	20.733964
1955.511409	-3.015500	3.296300	-9.937700	26.683602	0.000474	20.738460
1956.511577	-3.006000	3.294300	-9.901100	26.663492	0.000474	20.744322
1957.511670	-3.013600	3.294600	-9.927500	26.630606	0.000474	20.743979
1958.513010	-3.000100	3.294400	-9.880700	26.623173	0.000473	20.713271
1959.511996	-3.014600	3.294600	-9.930800	26.637210	0.000474	20.707941
1960.514036	-3.000200	3.293000	-9.878700	26.609633	0.000469	20.725265
1961.512316	-3.018000	3.293200	-9.938400	26.586668	0.000471	20.722567
1962.516233	-2.999000	3.294200	-9.878000	26.581284	0.000469	20.730906
1963.512133	-2.985800	3.293100	-9.831300	26.539759	0.000468	20.713819
1964.514590	-2.998900	3.292100	-9.871300	26.496011	0.000470	20.704932
1965.512958	-2.993100	3.292500	-9.853600	26.512887	0.000469	20.711939
1966.513377	-2.995000	3.291900	-9.858400	26.539726	0.000469	20.715683
1967.513142	-3.006400	3.290900	-9.891400	26.566344	0.000466	20.715888
1968.514831	-2.982400	3.292200	-9.816800	26.592434	0.000466	20.729786
1969.518982	-2.981900	3.291900	-9.814900	26.593084	0.000467	20.710525
1970.515009	-3.012700	3.289600	-9.909500	26.569053	0.000468	20.719085
1971.514564	-2.991000	3.291000	-9.842100	26.560814	0.000465	20.707483
1972.514465	-3.012800	3.291300	-9.914900	26.569907	0.000464	20.700976
1973.517257	-3.014200	3.290000	-9.915300	26.574445	0.000466	20.715970
1974.514815	-3.000100	3.288900	-9.865700	26.581650	0.000464	20.734120
1975.514711	-2.992500	3.289000	-9.840600	26.601900	0.000464	20.736458
1976.514509	-2.992300	3.289100	-9.841400	26.604388	0.000462	20.706241
1977.515867	-3.003900	3.288500	-9.877800	26.610520	0.000461	20.721415
1978.515527	-2.998200	3.288500	-9.858000	26.675706	0.000461	20.702545
1979.519928	-2.991400	3.287900	-9.834400	26.680504	0.000459	20.734398
1980.515016	-2.970500	3.288300	-9.766500	26.707607	0.000459	20.709012
1981.518127	-2.991800	3.286600	-9.831800	26.719723	0.000459	20.705072
1982.519175	-3.002000	3.286400	-9.864400	26.753858	0.000458	20.713787
1983.517649	-2.998500	3.287300	-9.856300	26.762323	0.000456	20.713288
1984.523697	-2.985300	3.287200	-9.811900	26.781366	0.000457	20.703036
1985.518366	-3.016700	3.284400	-9.905600	26.818020	0.000455	20.705750
1986.521782	-3.008200	3.284900	-9.880500	26.845371	0.000457	20.709544
1987.517441	-3.002300	3.285000	-9.861500	26.848136	0.000457	20.717066
1988.520272	-2.995900	3.284400	-9.838800	26.835224	0.000455	20.699341
1989.521034	-2.992600	3.283500	-9.825300	26.822516	0.000454	20.714065
1990.521505	-3.013100	3.282300	-9.888700	26.792440	0.000455	20.693781
1991.520550	-2.997600	3.283800	-9.842500	26.771714	0.000453	20.707083
1992.517926	-3.005700	3.282700	-9.864900	26.728318	0.000452	20.703281
1993.517188	-2.987500	3.284200	-9.809700	26.691669	0.000452	20.713853
1994.521330	-2.996800	3.283300	-9.838800	26.678992	0.000449	20.696839
1995.519492	-3.031800	3.279700	-9.943000	26.653816	0.000452	20.708514
1996.519259	-2.987800	3.280900	-9.802100	26.672584	0.000447	20.688974
1997.519523	-2.986600	3.281900	-9.801300	26.698028	0.000448	20.691795
1998.520616	-2.996300	3.280300	-9.827700	26.718479	0.000447	20.717098
1999.521624	-2.999800	3.279600	-9.837400	26.745036	0.000449	20.678836
2000.523559	-3.006200	3.279500	-9.857100	26.760730	0.000447	20.703151
2001.523453	-3.007200	3.278200	-9.856700	26.783692	0.000445	20.698262
2002.525234	-2.988100	3.280800	-9.801600	26.792001	0.000445	20.702349
2003.524526	-2.989400	3.278600	-9.800200	26.828866	0.000444	20.698164
2004.524768	-3.017300	3.277500	-9.887700	26.837257	0.000443	20.689530
2005.526848	-3.016200	3.277400	-9.883900	26.860519	0.000443	20.693479
2006.524711	-2.994600	3.277900	-9.814900	26.852835	0.000443	20.691918
2007.527251	-2.996000	3.276900	-9.816300	26.860226	0.000442	20.688443
2008.524850	-3.018800	3.277000	-9.891600	26.843217	0.000441	20.688410
2009.527955	-3.021700	3.275300	-9.895300	26.840420	0.000442	20.705040
2010.526731	-3.007600	3.277300	-9.855600	26.798872	0.000441	20.691713
2011.526944	-3.003700	3.274900	-9.836200	26.785798	0.000440	20.686154
2012.525368	-2.993100	3.275500	-9.802600	26.787310	0.000439	20.688623
2013.526211	-3.016200	3.274800	-9.875100	26.810516	0.000438	20.687298
2014.524693	-3.002800	3.274800	-9.831600	26.859592	0.000438	20.679744
2015.524508	-2.998800	3.273300	-9.814100	26.847307	0.000439	20.699636
2016.530140	-3.015000	3.273100	-9.866700	26.769934	0.000438	20.673996
2017.528870	-3.020100	3.273200	-9.884200	26.734271	0.000436	20.699309
2018.530745	-2.989200	3.273500	-9.782900	26.722537	0.000436	20.690356
2019.527595	-2.997600	3.273400	-9.811400	26.708120	0.000434	20.690561
2020.529503	-2.990900	3.273000	-9.788000	26.720106	0.000434	20.679376
2021.532005	-3.010900	3.271900	-9.850100	26.718268	0.000434	20.712144
2022.527997	-3.006400	3.271100	-9.832000	26.775358	0.000433	20.706005
2023.527863	-3.015200	3.272300	-9.864800	26.795287	0.000432	20.699963
2024.528825	-3.002700	3.271800	-9.823100	26.800206	0.000434	20.691157
2025.529044	-3.004100	3.271300	-9.826500	26.824379	0.000430	20.691754
2026.529472	-2.994600	3.270200	-9.791900	26.837859	0.000430	20.686342
2027.533402	-3.004300	3.270400	-9.822300	26.853446	0.000432	20.699644
2028.530651	-2.999300	3.268900	-9.803500	26.855137	0.000430	20.671944
2029.530682	-3.006200	3.269700	-9.827500	26.878341	0.000429	20.678207
2030.529934	-3.014500	3.268300	-9.851400	26.887503	0.000427	20.701173
2031.533237	-3.000600	3.268500	-9.806100	26.867243	0.000427	20.686963
2032.535161	-3.000700	3.269300	-9.809900	26.888097	0.000427	20.674266
2033.532213	-3.018600	3.266700	-9.859400	26.892837	0.000426	20.683775
2034.532049	-3.000200	3.267900	-9.803800	26.863796	0.000426	20.701042
2035.534266	-3.033400	3.266200	-9.905200	26.852088	0.000424	20.696382
2036.534622	-3.012900	3.265900	-9.839300	26.843494	0.000423	20.675411
2037.532834	-2.983700	3.267400	-9.747000	26.858739	0.000425	20.692637
2038.533397	-3.007900	3.264900	-9.819500	26.832200	0.000424	20.696300
2039.536781	-3.002800	3.264800	-9.802500	26.823964	0.000422	20.674740
2040.532780	-3.019400	3.265900	-9.859800	26.811785	0.000422	20.704697
2041.534184	-2.996300	3.265500	-9.782600	26.842803	0.000422	20.694632
2042.535311	-3.003200	3.264900	-9.804700	26.847966	0.000421	20.680856
2043.536381	-3.004200	3.265000	-9.807200	26.875642	0.000420	20.693986
2044.533931	-3.014300	3.263000	-9.833200	26.867251	0.000418	20.674642
2045.539196	-3.022500	3.263300	-9.862200	26.849437	0.000420	20.693717
2046.534690	-2.989100	3.263400	-9.752400	26.797190	0.000419	20.680537
2047.532865	-3.000200	3.264000	-9.791600	26.754770	0.000419	20.697159
2048.537097	-2.970300	3.263200	-9.690800	26.747070	0.000417	20.687994
2049.532943	-3.000900	3.262800	-9.789500	26.691784	0.000417	20.671290
2050.536033	-3.011300	3.260400	-9.816500	26.696159	0.000415	20.702244
2051.534248	-2.994300	3.262100	-9.766600	26.740394	0.000415	20.708310
2052.535435	-3.006500	3.259800	-9.800100	26.743695	0.000414	20.687920
2053.536722	-2.995700	3.260000	-9.765100	26.734312	0.000413	20.696505
2054.539158	-3.000000	3.260900	-9.780700	26.758584	0.000414	20.684396
2055.536349	-2.991000	3.259500	-9.748300	26.767861	0.000412	20.697518
2056.537758	-3.003500	3.260400	-9.791200	26.787473	0.000410	20.686415
2057.538745	-2.997100	3.260200	-9.770400	26.805776	0.000411	20.689171
2058.537268	-3.010200	3.259600	-9.811100	26.823590	0.000413	20.691910
2059.540744	-3.019000	3.258100	-9.835400	26.844933	0.000412	20.688239
2060.538099	-3.024100	3.257800	-9.850500	26.885764	0.000410	20.690888
2061.540287	-3.004100	3.258300	-9.787100	26.934934	0.000409	20.680586
2062.539897	-3.001300	3.256000	-9.770800	26.980623	0.000409	20.688599
2063.540764	-2.977800	3.258100	-9.701100	27.008961	0.000409	20.694812
2064.542707	-3.000600	3.256300	-9.770300	27.006011	0.000407	20.689948
2065.542680	-2.999500	3.256700	-9.766400	26.997898	0.000406	20.688427
2066.541446	-3.017600	3.255100	-9.822000	27.044429	0.000406	20.697290
2067.541046	-2.982900	3.255200	-9.708000	27.045299	0.000405	20.683464
2068.541163	-2.993500	3.255600	-9.744200	27.046981	0.000404	20.688476
2069.541784	-2.990900	3.254400	-9.732800	27.023172	0.000402	20.697723
2070.543816	-2.988000	3.254100	-9.721900	27.033512	0.000404	20.700061
2071.542616	-2.990900	3.253700	-9.730100	27.014506	0.000403	20.701337
2072.546925	-3.015200	3.253400	-9.807600	27.018782	0.000400	20.697576
2073.542048	-2.987900	3.253100	-9.718300	27.039275	0.000399	20.685468
2074.543107	-3.020900	3.251700	-9.822700	27.061581	0.000400	20.701263
2075.548690	-3.019500	3.250900	-9.814500	27.047835	0.000398	20.692180
2076.542957	-3.015700	3.252000	-9.807100	27.026472	0.000398	20.695826
2077.546102	-3.007100	3.251500	-9.776600	27.016367	0.000399	20.722651
2078.543546	-3.006700	3.251000	-9.773900	27.010246	0.000395	20.691362
2079.543446	-3.013900	3.250400	-9.795000	26.997166	0.000395	20.707133
2080.545573	-2.997600	3.249400	-9.738900	26.978233	0.000395	20.696628
2081.543573	-2.990600	3.251000	-9.721300	27.012774	0.000395	20.702440
2082.546141	-3.005300	3.249600	-9.764200	26.989427	0.000395	20.726853
2083.545381	-2.995600	3.248100	-9.728700	26.993914	0.000395	20.718563
2084.546352	-3.017000	3.248400	-9.798900	26.985826	0.000394	20.716593
2085.550812	-2.999700	3.247900	-9.741300	26.996077	0.000394	20.708883
2086.551600	-2.989900	3.249900	-9.715600	27.007116	0.000392	20.697699
2087.546886	-3.004300	3.249300	-9.761100	27.027391	0.000392	20.696276
2088.546274	-2.998600	3.246900	-9.733700	26.972965	0.000392	20.714091
2089.547348	-3.000800	3.246400	-9.739600	26.971006	0.000390	20.706430
2090.547552	-3.005600	3.247500	-9.759700	26.972103	0.000389	20.706111
2091.553172	-2.981700	3.247600	-9.682200	27.016392	0.000388	20.701337
2092.549038	-3.005500	3.244800	-9.750500	27.055249	0.000388	20.726191
2093.551454	-2.997700	3.245100	-9.725500	27.096071	0.000388	20.710820
2094.547472	-2.999900	3.244500	-9.731300	27.111215	0.000387	20.727474
2095.548163	-2.976900	3.245200	-9.659600	27.132771	0.000386	20.713592
2096.547753	-3.021000	3.243500	-9.797500	27.170258	0.000385	20.713363
2097.548798	-3.001100	3.242700	-9.731000	27.166495	0.000384	20.711475
2098.552888	-3.000100	3.242600	-9.727000	27.160163	0.000385	20.743040
2099.551531	-2.993300	3.242800	-9.705100	27.142167	0.000384	20.710240
2100.550024	-2.995600	3.242100	-9.710600	27.151604	0.000382	20.717835
2101.549821	-3.011700	3.241700	-9.762400	27.137933	0.000381	20.720206
2102.551379	-3.006700	3.240800	-9.742600	27.150759	0.000381	20.718407
2103.558960	-2.983800	3.241000	-9.669200	27.156099	0.000380	20.707182
2104.549718	-2.996700	3.241000	-9.710800	27.172258	0.000379	20.708262
2105.549642	-2.985600	3.240200	-9.673400	27.202404	0.000380	20.703021
2106.552129	-3.001200	3.241000	-9.726400	27.199844	0.000377	20.706136
2107.552918	-2.993500	3.240100	-9.698100	27.206704	0.000378	20.715407
2108.551830	-3.001500	3.238600	-9.720100	27.243489	0.000376	20.731546
2109.553450	-2.969000	3.240400	-9.619900	27.205631	0.000377	20.716699
2110.553111	-2.989300	3.237800	-9.678200	27.232014	0.000377	20.721899
2111.553744	-2.982400	3.240200	-9.662400	27.217303	0.000373	20.704256
2112.555630	-3.006900	3.239600	-9.739800	27.192635	0.000374	20.709316
2113.553437	-2.988900	3.238500	-9.678900	27.183003	0.000374	20.728079
2114.554495	-2.981200	3.237900	-9.651900	27.162488	0.000374	20.699857
2115.557347	-2.991400	3.237100	-9.681400	27.167080	0.000372	20.710167
2116.555635	-2.990400	3.236500	-9.677600	27.162366	0.000372	20.724867
2117.555124	-3.004000	3.235400	-9.718100	27.162171	0.000371	20.738422
2118.558494	-2.996100	3.235100	-9.691800	27.206785	0.000370	20.726870
2119.556349	-3.004100	3.234200	-9.714900	27.220797	0.000369	20.739542
2120.556972	-2.980600	3.233300	-9.635200	27.228868	0.000370	20.736754
2121.555416	-2.967700	3.234200	-9.596700	27.243457	0.000367	20.731988
2122.554889	-3.000700	3.234000	-9.702600	27.261061	0.000367	20.732151
2123.559854	-2.998900	3.232900	-9.694500	27.266433	0.000366	20.726649
2124.554241	-2.970700	3.232700	-9.602300	27.279420	0.000364	20.735446
2125.555027	-2.979600	3.232700	-9.631400	27.277137	0.000367	20.739313
2126.556793	-3.004600	3.230900	-9.706600	27.238662	0.000366	20.728586
2127.556238	-3.018300	3.232300	-9.755000	27.233777	0.000364	20.723673
2128.558868	-2.995000	3.230700	-9.675400	27.248431	0.000363	20.741733
2129.558977	-3.016900	3.229900	-9.743000	27.270765	0.000361	20.721049
2130.557983	-2.995400	3.229500	-9.673200	27.251341	0.000362	20.742289
2131.558054	-2.990500	3.231600	-9.663600	27.261004	0.000361	20.718816
2132.556944	-3.014300	3.228300	-9.730100	27.280257	0.000361	20.729649
2133.557199	-3.017000	3.227600	-9.736300	27.284898	0.000361	20.719143
2134.558169	-3.004100	3.230200	-9.701900	27.304501	0.000359	20.732699
2135.557674	-3.026600	3.227000	-9.766200	27.309580	0.000359	20.724531
2136.559590	-3.011500	3.225500	-9.712000	27.323590	0.000359	20.746687
2137.558406	-2.964300	3.226900	-9.563800	27.299210	0.000358	20.750137
2138.559938	-3.020200	3.226100	-9.742300	27.245960	0.000357	20.723125
2139.563697	-3.002800	3.226500	-9.687500	27.253015	0.000357	20.752508
2140.559281	-2.990800	3.225400	-9.644900	27.254599	0.000354	20.735609
2141.560015	-2.981800	3.225900	-9.617900	27.267254	0.000355	20.723681
2142.559902	-3.015200	3.222900	-9.716200	27.294658	0.000353	20.729436
2143.562394	-3.004800	3.224600	-9.687600	27.295658	0.000352	20.756047
2144.560328	-2.997000	3.223900	-9.660800	27.330563	0.000352	20.756072
2145.560577	-2.996200	3.222900	-9.655000	27.319877	0.000351	20.730148
2146.559137	-3.006000	3.223600	-9.689100	27.301957	0.000350	20.746261
2147.562390	-3.026900	3.223000	-9.754700	27.295138	0.000350	20.736557
2148.561574	-2.990600	3.222600	-9.635800	27.289506	0.000350	20.736108
2149.562749	-3.023100	3.220200	-9.734100	27.296585	0.000350	20.739435
2150.570558	-3.003100	3.220600	-9.670000	27.344834	0.000348	20.752410
2151.562186	-3.014000	3.221000	-9.707600	27.340397	0.000347	20.746523
2152.563503	-3.003000	3.221200	-9.672000	27.364785	0.000346	20.750668
2153.563912	-2.992400	3.219700	-9.633400	27.344639	0.000346	20.753636
2154.565829	-3.000500	3.219500	-9.658100	27.353001	0.000346	20.739288
2155.564258	-3.000400	3.219100	-9.657200	27.352238	0.000347	20.767444
2156.564355	-2.971400	3.218700	-9.562600	27.323079	0.000345	20.758026
2157.564506	-2.986200	3.218200	-9.609700	27.325346	0.000343	20.763626
2158.563829	-3.001200	3.219300	-9.660900	27.321258	0.000344	20.763308
2159.568181	-2.976000	3.217500	-9.574700	27.314481	0.000341	20.757912
2160.571573	-2.970500	3.217900	-9.557800	27.303688	0.000343	20.740416
2161.566922	-2.996000	3.218100	-9.639700	27.293131	0.000342	20.744022
2162.567730	-2.992600	3.216100	-9.623500	27.330239	0.000340	20.755745
2163.565192	-2.996400	3.215300	-9.633200	27.374846	0.000342	20.762212
2164.566827	-2.993300	3.214600	-9.621200	27.356959	0.000339	20.751805
2165.569232	-2.998000	3.215900	-9.638900	27.340332	0.000339	20.754993
2166.566659	-3.012000	3.214800	-9.681900	27.362965	0.000339	20.758321
2167.569604	-2.999100	3.215000	-9.641200	27.359641	0.000338	20.770625
2168.568176	-2.957200	3.216100	-9.507900	27.342583	0.000337	20.742559
2169.567787	-2.986700	3.214000	-9.598300	27.341511	0.000337	20.766611
2170.572602	-2.997500	3.212500	-9.628700	27.343876	0.000338	20.749549
2171.568717	-2.995900	3.212500	-9.623400	27.367613	0.000336	20.795714
2172.573870	-3.020800	3.210400	-9.697200	27.384354	0.000334	20.751862
2173.571634	-3.004000	3.211000	-9.644800	27.414697	0.000336	20.763897
2174.570773	-3.006700	3.211000	-9.653400	27.451858	0.000334	20.774255
2175.572265	-3.009500	3.209000	-9.656000	27.477202	0.000334	20.749491
2176.570642	-2.984200	3.210900	-9.580700	27.509282	0.000333	20.755214
2177.571585	-2.957400	3.210100	-9.492300	27.506283	0.000331	20.747930
2178.571537	-3.002800	3.209700	-9.637000	27.500921	0.000333	20.776200
2179.572917	-3.031600	3.206300	-9.719600	27.516627	0.000330	20.747432
2180.572332	-2.993300	3.209100	-9.605300	27.554450	0.000330	20.759883
2181.581747	-3.009700	3.207600	-9.651800	27.548600	0.000327	20.773911
2182.571568	-2.990800	3.207900	-9.593300	27.540337	0.000329	20.759907
2183.573411	-2.990000	3.207100	-9.587900	27.543164	0.000329	20.770813
2184.574092	-3.006800	3.205500	-9.637200	27.550331	0.000326	20.768066
2185.576283	-2.994100	3.205800	-9.598000	27.562072	0.000328	20.752852
2186.576709	-2.974600	3.206500	-9.537000	27.578289	0.000324	20.765376
2187.576903	-2.994000	3.209500	-9.609000	27.578264	0.000322	20.778154
2188.582948	-2.972500	3.205200	-9.526600	27.579134	0.000321	20.785193
2189.575359	-3.013700	3.203100	-9.652500	27.600510	0.000320	20.795796
2190.577615	-2.978900	3.204800	-9.545900	27.564298	0.000323	20.758411
2191.576884	-2.998200	3.202600	-9.600600	27.556554	0.000323	20.778596
2192.583768	-2.987100	3.203500	-9.568100	27.456871	0.000319	20.767445
2193.580077	-2.988900	3.202800	-9.572400	27.405442	0.000321	20.769284
2194.578056	-3.001700	3.202600	-9.611900	27.359333	0.000320	20.762728
2195.579194	-2.992200	3.201600	-9.578500	27.340917	0.000318	20.784980
2196.581516	-3.004100	3.201000	-9.614700	27.362998	0.000317	20.783010
2197.581569	-2.970900	3.202200	-9.512000	27.360275	0.000318	20.805402
2198.577770	-2.994400	3.200900	-9.583500	27.379015	0.000315	20.781105
2199.580677	-3.012500	3.198000	-9.632900	27.366768	0.000315	20.764518
2200.579693	-3.014100	3.200600	-9.646000	27.383752	0.000315	20.792035
2201.578957	-3.016400	3.197900	-9.644800	27.365354	0.000315	20.790597
2202.582764	-3.023300	3.197700	-9.666000	27.351344	0.000315	20.781244
2203.579741	-3.008500	3.199600	-9.625400	27.406132	0.000315	20.793213
2204.580466	-3.018900	3.195900	-9.646700	27.445454	0.000313	20.789624
2205.581359	-3.002400	3.198800	-9.602600	27.453393	0.000312	20.794766
2206.580575	-3.024000	3.195500	-9.661500	27.468548	0.000313	20.785356
2207.581081	-2.990500	3.195800	-9.555500	27.426082	0.000309	20.792894
2208.581922	-2.999500	3.194200	-9.580300	27.412812	0.000311	20.780966
2209.581064	-2.999700	3.193400	-9.578900	27.383915	0.000310	20.788880
2210.582996	-2.992400	3.194300	-9.557300	27.413755	0.000310	20.794717
2211.582003	-2.988300	3.196000	-9.549600	27.447616	0.000310	20.776625
2212.584503	-2.980100	3.193500	-9.515400	27.476495	0.000308	20.790981
2213.583366	-2.987400	3.193800	-9.539600	27.512954	0.000306	20.786885
2214.580450	-2.978800	3.193600	-9.511700	27.541653	0.000308	20.793474
2215.583986	-2.983600	3.192200	-9.522000	27.579995	0.000305	20.795543
2216.582438	-2.992600	3.193100	-9.553400	27.570416	0.000306	20.774524
2217.582617	-2.991600	3.191200	-9.545500	27.611194	0.000304	20.775726
2218.583708	-2.979400	3.188800	-9.500000	27.600803	0.000303	20.799884
2219.584774	-2.999400	3.189300	-9.564800	27.602688	0.000303	20.783288
2220.584208	-3.013000	3.188800	-9.606400	27.600201	0.000303	20.790744
2221.585629	-3.003500	3.190800	-9.582700	27.598349	0.000300	20.812113
2222.585001	-2.997500	3.189500	-9.559100	27.593336	0.000299	20.798535
2223.586673	-2.985800	3.189300	-9.521100	27.552589	0.000303	20.822021
2224.587126	-2.997100	3.187900	-9.553400	27.499141	0.000301	20.802385
2225.586132	-3.007100	3.186000	-9.579000	27.475398	0.000300	20.800783
2226.595230	-3.017500	3.184200	-9.607000	27.502717	0.000300	20.801715
2227.586843	-2.997600	3.185700	-9.548300	27.524964	0.000298	20.791382
2228.588157	-3.002800	3.185700	-9.565300	27.543278	0.000298	20.802696
2229.592898	-3.006600	3.184700	-9.574600	27.589875	0.000298	20.809751
2230.589204	-2.999200	3.183200	-9.544600	27.644546	0.000295	20.814501
2231.590270	-2.998100	3.185600	-9.550300	27.678862	0.000296	20.803514
2232.589839	-3.029800	3.183300	-9.644600	27.709539	0.000297	20.797873
2233.589990	-3.027100	3.184200	-9.637800	27.704388	0.000296	20.822087
2234.590121	-3.007000	3.182100	-9.567100	27.693226	0.000295	20.791889
2235.592741	-3.011400	3.180600	-9.577200	27.668358	0.000294	20.804323
2236.590450	-3.003500	3.181600	-9.555000	27.669674	0.000293	20.788578
2237.590812	-2.998000	3.180500	-9.534200	27.673501	0.000292	20.801912
2238.592572	-3.007700	3.179500	-9.561400	27.692398	0.000291	20.796745
2239.590059	-3.015400	3.180500	-9.588900	27.707573	0.000292	20.808697
2240.594378	-2.997400	3.179100	-9.528000	27.727590	0.000291	20.823150
2241.596935	-2.997100	3.179300	-9.527800	27.756665	0.000290	20.806891
2242.590982	-3.010100	3.177600	-9.563700	27.735804	0.000291	20.796802
2243.591202	-2.989400	3.178200	-9.499100	27.747705	0.000290	20.819684
2244.590914	-2.995800	3.177500	-9.518300	27.725024	0.000287	20.824835
2245.592174	-3.013800	3.176300	-9.572100	27.752376	0.000286	20.797359
2246.599056	-2.997300	3.175800	-9.517300	27.776706	0.000286	20.807144
2247.592797	-3.005200	3.176000	-9.543300	27.796892	0.000286	20.807071
2248.594596	-2.998500	3.174900	-9.519600	27.792132	0.000286	20.821720
2249.592477	-3.016400	3.173500	-9.571700	27.781271	0.000286	20.807471
2250.594577	-2.982300	3.175100	-9.467700	27.803545	0.000286	20.820878
2251.596924	-2.994200	3.173700	-9.502200	27.815275	0.000283	20.812769
2252.594210	-3.010000	3.172200	-9.547700	27.814430	0.000285	20.827091
2253.597931	-3.032100	3.171100	-9.614000	27.815819	0.000282	20.835601
2254.593685	-3.006400	3.172900	-9.537700	27.842081	0.000282	20.821254
2255.593723	-3.008300	3.170300	-9.536400	27.816226	0.000280	20.830795
2256.600157	-2.989500	3.172500	-9.483300	27.791247	0.000282	20.819407
2257.594810	-3.001700	3.170400	-9.514500	27.782799	0.000281	20.823707
2258.595424	-2.993400	3.169500	-9.486700	27.766454	0.000281	20.827173
2259.594578	-3.002100	3.169000	-9.512000	27.767852	0.000280	20.823838
2260.594784	-3.007500	3.170000	-9.533000	27.763685	0.000278	20.820592
2261.594193	-3.010100	3.168100	-9.535700	27.692163	0.000280	20.831596
2262.597594	-2.993400	3.168100	-9.482600	27.696883	0.000279	20.811216
2263.598804	-3.001700	3.166500	-9.503400	27.684380	0.000278	20.830877
2264.595794	-2.999200	3.167100	-9.497100	27.702285	0.000278	20.838463
2265.596387	-3.031700	3.165000	-9.594000	27.723863	0.000279	20.823666
2266.596066	-2.999700	3.164700	-9.492500	27.740809	0.000277	20.827443
2267.601501	-3.007000	3.166300	-9.520200	27.745366	0.000275	20.833926
2268.597856	-3.014000	3.166600	-9.543400	27.785123	0.000273	20.826994
2269.609889	-2.992100	3.163300	-9.464400	27.804984	0.000275	20.839869
2270.601639	-2.999200	3.164800	-9.490800	27.829556	0.000273	20.816710
2271.598002	-3.007000	3.162400	-9.509200	27.852991	0.000272	20.830811
2272.600733	-2.985100	3.164800	-9.445700	27.918052	0.000272	20.820429
2273.599659	-2.977400	3.162500	-9.414900	27.904740	0.000272	20.809876
2274.599981	-3.006600	3.159500	-9.498000	27.912456	0.000271	20.813849
2275.600440	-2.988300	3.161200	-9.445600	27.886351	0.000272	20.824084
2276.600455	-2.992200	3.160100	-9.452800	27.852780	0.000269	20.822539
2277.599761	-2.983100	3.159200	-9.423000	27.844072	0.000270	20.800973
2278.602509	-3.015900	3.158500	-9.524900	27.843406	0.000269	20.815476
2279.598228	-2.997000	3.159000	-9.466300	27.847768	0.000269	20.808012
2280.601674	-3.018900	3.156100	-9.526800	27.841050	0.000268	20.830648
2281.600119	-2.990900	3.156300	-9.439700	27.856801	0.000269	20.816154
2282.600398	-2.978900	3.157400	-9.404800	27.858035	0.000268	20.829724
2283.604159	-3.007400	3.155900	-9.488900	27.907079	0.000268	20.821713
2284.603124	-2.990000	3.155400	-9.433100	27.911100	0.000268	20.808216
2285.603516	-2.990700	3.154800	-9.434100	27.894985	0.000266	20.804799
2286.601165	-3.017000	3.153100	-9.511700	27.877936	0.000268	20.815615
2287.601377	-3.017000	3.152500	-9.509600	27.858092	0.000264	20.800385
2288.599952	-3.032400	3.151200	-9.554000	27.846436	0.000266	20.806197
2289.605614	-2.989100	3.152100	-9.420800	27.820808	0.000264	20.794156
2290.601907	-2.990400	3.153100	-9.427800	27.780664	0.000263	20.804489
2291.601569	-2.996600	3.149700	-9.438100	27.804635	0.000262	20.803483
2292.603134	-3.000700	3.152000	-9.457000	27.810590	0.000260	20.805208
2293.603156	-2.988200	3.150000	-9.411800	27.794579	0.000260	20.797630
2294.606462	-2.996100	3.149800	-9.436300	27.797901	0.000263	20.804767
2295.604866	-2.992000	3.149000	-9.420100	27.820598	0.000261	20.797263
2296.606313	-3.004100	3.148100	-9.456300	27.853723	0.000260	20.786504
2297.604869	-3.008100	3.146700	-9.465300	27.856209	0.000258	20.791377
2298.605116	-2.992500	3.147300	-9.416300	27.891907	0.000258	20.787477
2299.605625	-3.015700	3.145800	-9.485600	27.905074	0.000258	20.805944
2300.606072	-3.023100	3.144600	-9.505300	27.902499	0.000258	20.797189
2301.604351	-3.000300	3.143900	-9.431600	27.913213	0.000255	20.795170
2302.605472	-2.989300	3.143800	-9.395100	27.926680	0.000256	20.792603
2303.604951	-2.994400	3.143700	-9.413300	27.923154	0.000257	20.798538
2304.606297	-3.000000	3.142200	-9.425300	27.954295	0.000257	20.793371
2305.615376	-2.995100	3.141700	-9.408600	27.909379	0.000254	20.804114
2306.607850	-3.008300	3.140300	-9.446100	27.898714	0.000255	20.782000
2307.611037	-3.011200	3.138700	-9.450000	27.876865	0.000254	20.795096
2308.607121	-3.026600	3.138700	-9.497700	27.842692	0.000253	20.786308
2309.606509	-3.000300	3.139100	-9.416500	27.825138	0.000253	20.790453
2310.610195	-3.019400	3.137900	-9.473400	27.811126	0.000253	20.773980
2311.608554	-3.011200	3.137300	-9.446000	27.763394	0.000251	20.798963
2312.610148	-3.006100	3.136600	-9.428500	27.789332	0.000252	20.777651
2313.608234	-3.005800	3.136800	-9.427500	27.791712	0.000252	20.764398
2314.607631	-3.002000	3.135300	-9.411100	27.806983	0.000252	20.761275
2315.611855	-3.009100	3.134000	-9.429100	27.833619	0.000252	20.780496
2316.607744	-2.984600	3.135100	-9.355800	27.838257	0.000251	20.781844
2317.610025	-3.013300	3.133200	-9.440000	27.862284	0.000250	20.780422
2318.610244	-3.005900	3.132000	-9.413700	27.830841	0.000247	20.784338
2319.610368	-3.011700	3.132400	-9.432800	27.827592	0.000250	20.766843
2320.611313	-2.997500	3.131300	-9.384900	27.854762	0.000248	20.777119
2321.612561	-3.004000	3.130500	-9.403500	27.832880	0.000247	20.784967
2322.611850	-3.019900	3.127600	-9.444100	27.799615	0.000246	20.778517
2323.612189	-3.007800	3.128600	-9.409400	27.734831	0.000246	20.760262
2324.611828	-2.995000	3.130100	-9.373300	27.748934	0.000247	20.782989
2325.611688	-2.997000	3.127800	-9.373300	27.780428	0.000244	20.767268
2326.614157	-3.013600	3.126400	-9.420800	27.779291	0.000244	20.782719
2327.611930	-2.993500	3.126800	-9.358900	27.805440	0.000244	20.782482
2328.613267	-3.015500	3.126100	-9.425700	27.780103	0.000244	20.783537
2329.611509	-3.000900	3.125100	-9.377200	27.803287	0.000241	20.785057
2330.613105	-3.009400	3.123500	-9.398300	27.832173	0.000245	20.763393
2331.621564	-3.010800	3.122500	-9.400700	27.856151	0.000244	20.760499
2332.612860	-2.993400	3.123200	-9.348300	27.922277	0.000242	20.759248
2333.617288	-3.005100	3.120300	-9.376200	27.945531	0.000243	20.776489
2334.616632	-2.993900	3.120400	-9.340400	27.937132	0.000242	20.780839
2335.613485	-2.997400	3.121000	-9.353100	27.935540	0.000244	20.766908
2336.615038	-3.035800	3.118200	-9.465000	27.955188	0.000242	20.767243
2337.617612	-3.014300	3.118100	-9.397500	27.964699	0.000242	20.764962
2338.612515	-3.014300	3.118200	-9.398800	27.970157	0.000243	20.788474
2339.617532	-2.996000	3.117800	-9.339300	27.952889	0.000241	20.778206
2340.613000	-3.001700	3.116100	-9.352900	27.940527	0.000241	20.776195
2341.617398	-3.008100	3.116900	-9.374600	27.942761	0.000239	20.779866
2342.620457	-3.002000	3.114500	-9.349000	27.964577	0.000242	20.759150
2343.614170	-2.999900	3.113500	-9.339200	27.990835	0.000242	20.750492
2344.632928	-3.006500	3.113100	-9.359000	27.979797	0.000240	20.787747
2345.614845	-2.996700	3.112300	-9.325500	27.997405	0.000240	20.766589
2346.615721	-2.996400	3.113100	-9.327500	28.012519	0.000239	20.760466
2347.616185	-3.008600	3.110900	-9.359500	27.995716	0.000238	20.757302
2348.615118	-2.993700	3.109900	-9.308500	27.971294	0.000237	20.756427
2349.615057	-2.996300	3.109600	-9.316200	27.950339	0.000239	20.751931
2350.617171	-3.003700	3.108900	-9.337400	27.916608	0.000239	20.777250
2351.615722	-3.018300	3.108200	-9.379500	27.919304	0.000236	20.769058
2352.616944	-3.001400	3.107400	-9.324500	27.933811	0.000237	20.759951
2353.620992	-3.008400	3.107000	-9.346400	27.928954	0.000234	20.768813
2354.617031	-2.994400	3.104500	-9.295300	27.903165	0.000236	20.770358
2355.616956	-3.005500	3.105900	-9.333300	27.907088	0.000236	20.765298
2356.617685	-2.977900	3.104900	-9.245600	27.929506	0.000237	20.753247
2357.618158	-2.973700	3.103800	-9.228800	27.950031	0.000234	20.750198
2358.619891	-3.022100	3.101200	-9.369500	27.995359	0.000235	20.762633
2359.617893	-2.986200	3.101500	-9.259100	28.016670	0.000234	20.768911
2360.621047	-3.002700	3.101100	-9.310400	27.967095	0.000237	20.765478
2361.617868	-3.008800	3.099700	-9.325100	27.922196	0.000234	20.746838
2362.618155	-2.984600	3.099300	-9.249200	27.962709	0.000233	20.757744
2363.619458	-3.009600	3.098400	-9.324600	28.016313	0.000234	20.757646
2364.619370	-3.006400	3.098400	-9.314300	28.023947	0.000231	20.767702
2365.615818	-2.978000	3.098000	-9.224500	28.017361	0.000233	20.758701
2366.617383	-2.975400	3.096600	-9.212900	27.995400	0.000231	20.744656
2367.616495	-2.991800	3.094500	-9.256500	28.006836	0.000232	20.747158
2368.619525	-2.998400	3.094100	-9.275300	28.031501	0.000233	20.759183
2369.621044	-2.973100	3.093800	-9.196700	28.052251	0.000230	20.750673
2370.616528	-3.007900	3.091000	-9.296000	28.045039	0.000229	20.751474
2371.622950	-2.983900	3.091300	-9.223900	28.070702	0.000230	20.744591
2372.618557	-2.982500	3.090700	-9.216700	28.070109	0.000229	20.749210
2373.619929	-2.994800	3.089100	-9.250500	28.073748	0.000229	20.744811
2374.624907	-3.000000	3.088700	-9.265400	28.050253	0.000229	20.751033
2375.620160	-2.980900	3.086500	-9.199600	28.065716	0.000230	20.729139
2376.622564	-2.985200	3.086500	-9.212800	28.058975	0.000231	20.725672
2377.622073	-2.988300	3.086100	-9.221000	28.070361	0.000230	20.741402
2378.620590	-2.974300	3.086000	-9.176500	28.072261	0.000230	20.750428
2379.628272	-3.003400	3.083100	-9.258300	28.123635	0.000228	20.738606
2380.620760	-3.006500	3.084000	-9.271400	28.123975	0.000229	20.730888
2381.621321	-3.011700	3.081600	-9.280000	28.148890	0.000228	20.747436
2382.622606	-2.994700	3.081500	-9.226900	28.136514	0.000229	20.749201
2383.621948	-2.998100	3.080300	-9.234100	28.148191	0.000229	20.751474
2384.622899	-2.995500	3.079700	-9.224000	28.168833	0.000228	20.733373
2385.621161	-3.011900	3.077700	-9.268300	28.191489	0.000228	20.738638
2386.623958	-2.986200	3.077100	-9.188400	28.232909	0.000226	20.747623
2387.622185	-3.008500	3.076200	-9.253500	28.265088	0.000225	20.735450
2388.621569	-3.037200	3.074900	-9.338200	28.239900	0.000226	20.731428
2389.626601	-3.000500	3.074600	-9.225000	28.201728	0.000225	20.746577
2390.623463	-2.991300	3.073500	-9.193000	28.166949	0.000226	20.718200
2391.623480	-3.010000	3.072500	-9.247700	28.092661	0.000225	20.735875
2392.623792	-2.989700	3.071200	-9.180800	28.067145	0.000227	20.737216
2393.623823	-3.021800	3.070300	-9.276800	28.066771	0.000225	20.746797
2394.625255	-3.013400	3.068400	-9.245300	28.066528	0.000224	20.727585
2395.630448	-2.983900	3.070000	-9.159700	28.051917	0.000225	20.715248
2396.625486	-2.984400	3.068200	-9.156400	28.079318	0.000224	20.730504
2397.625496	-3.005900	3.067400	-9.218800	28.101156	0.000224	20.749643
2398.626857	-2.979200	3.066000	-9.132800	28.084727	0.000223	20.713662
2399.626184	-2.965700	3.065400	-9.089600	28.035147	0.000224	20.742465
2400.631558	-2.986800	3.064800	-9.152800	28.039679	0.000225	20.725689
2401.627623	-2.981700	3.062400	-9.130100	28.013000	0.000224	20.729179
2402.629657	-3.018600	3.060400	-9.236900	27.991136	0.000223	20.723767
2403.629225	-2.963600	3.061600	-9.072200	27.965780	0.000224	20.742816
2404.636255	-2.998100	3.059100	-9.170200	27.922854	0.000223	20.734698
2405.633286	-2.986600	3.059400	-9.135700	27.923520	0.000222	20.732049
2406.629890	-3.026200	3.057900	-9.252200	27.966389	0.000221	20.723988
2407.631127	-3.048600	3.054800	-9.311700	27.988927	0.000222	20.731501
2408.632220	-2.985800	3.055200	-9.121600	28.051406	0.000222	20.720423
2409.633374	-2.999900	3.054900	-9.162000	28.068964	0.000220	20.734306
2410.635016	-3.014800	3.051600	-9.199500	28.046371	0.000221	20.715355
2411.633932	-2.999900	3.050900	-9.151400	28.061094	0.000220	20.733970
2412.632081	-3.016900	3.050000	-9.199900	28.086197	0.000222	20.715142
2413.635185	-2.998800	3.051400	-9.148700	28.106548	0.000220	20.731837
2414.632090	-3.013200	3.048600	-9.185500	28.106045	0.000222	20.729907
2415.634874	-3.002200	3.048000	-9.149500	28.081609	0.000220	20.721429
2416.640393	-3.011600	3.046900	-9.175100	28.051317	0.000220	20.717489
2417.632434	-3.004400	3.045600	-9.148800	28.013837	0.000220	20.702993
2418.633851	-3.011600	3.044000	-9.166800	27.968371	0.000222	20.730251
2419.632984	-2.988800	3.044600	-9.099000	27.898650	0.000222	20.714603
2420.633602	-3.016100	3.042000	-9.173600	27.875290	0.000220	20.714325
2421.634464	-3.010300	3.040200	-9.151000	27.938848	0.000221	20.724242
2422.637338	-3.010700	3.039900	-9.150100	27.985687	0.000219	20.718757
2423.633418	-3.018700	3.037400	-9.167900	27.992412	0.000220	20.713197
2424.635349	-3.011000	3.036900	-9.143200	27.942260	0.000220	20.721038
2425.634094	-3.017000	3.035500	-9.156100	27.985274	0.000219	20.701743
2426.637694	-3.006500	3.034500	-9.122700	28.002004	0.000221	20.725224
2427.635709	-3.001700	3.033600	-9.104600	28.023657	0.000220	20.690592
2428.636569	-2.989900	3.032300	-9.065600	28.029723	0.000219	20.713770
2429.635912	-2.992800	3.031800	-9.072800	28.059756	0.000219	20.716975
2430.636277	-3.013700	3.031600	-9.134600	28.095432	0.000221	20.714956
2431.636979	-3.029300	3.028500	-9.173400	28.131009	0.000219	20.730857
2432.639155	-3.001600	3.028400	-9.088800	28.158416	0.000220	20.721463
2433.638876	-3.018700	3.027200	-9.136000	28.165441	0.000218	20.712413
2434.640368	-2.994300	3.026500	-9.060600	28.125406	0.000219	20.714310
2435.638954	-3.006500	3.025800	-9.096300	28.094457	0.000217	20.705439
2436.638503	-2.982400	3.025500	-9.022800	28.086255	0.000219	20.710459
2437.640553	-2.992400	3.023700	-9.046500	28.108913	0.000218	20.736588
2438.641265	-2.991400	3.021200	-9.037100	28.099687	0.000219	20.709281
2439.637972	-2.989800	3.020000	-9.028100	28.038478	0.000219	20.724480
2440.638382	-2.995700	3.020000	-9.046300	28.029212	0.000217	20.726532
2441.639504	-2.994000	3.017300	-9.032700	28.027872	0.000218	20.708587
2442.639412	-3.027700	3.015300	-9.128800	28.062176	0.000217	20.710875
2443.643893	-2.985600	3.015500	-9.002400	28.097178	0.000218	20.715290
2444.639641	-3.039100	3.013300	-9.156400	28.099110	0.000218	20.712494
2445.640393	-3.004200	3.012800	-9.050200	28.106931	0.000218	20.706616
2446.643761	-3.025800	3.011600	-9.111600	28.093385	0.000220	20.705782
2447.640718	-2.998100	3.011000	-9.026800	28.078629	0.000216	20.698988
2448.643353	-2.965800	3.010200	-8.926100	28.111690	0.000216	20.688646
2449.639410	-2.997900	3.008000	-9.016700	28.116416	0.000217	20.702888
2450.641795	-3.001200	3.007000	-9.024100	28.110520	0.000219	20.711178
2451.639957	-2.974600	3.006300	-8.941800	28.120078	0.000218	20.710843
2452.641254	-2.991000	3.004100	-8.983700	28.126948	0.000220	20.712069
2453.643628	-3.005600	3.002800	-9.024000	28.095765	0.000217	20.701065
2454.641426	-2.987300	3.002100	-8.967100	28.105209	0.000216	20.696821
2455.644253	-2.993000	3.000200	-8.978700	28.096276	0.000216	20.680715
2456.642783	-3.000200	2.999000	-8.996500	28.132795	0.000217	20.713213
2457.641323	-2.998300	2.998300	-8.987900	28.130140	0.000217	20.702005
2458.643480	-2.986600	2.997700	-8.951900	28.145625	0.000216	20.710008
2459.644163	-2.993900	2.995700	-8.967300	28.196020	0.000217	20.707637
2460.643435	-2.998300	2.993500	-8.973000	28.261508	0.000216	20.698652
2461.646208	-2.985600	2.993800	-8.937500	28.290438	0.000216	20.700754
2462.642907	-3.025800	2.991200	-9.050200	28.339673	0.000218	20.695324
2463.645343	-3.027000	2.989300	-9.046600	28.335102	0.000217	20.704474
2464.646459	-2.993900	2.988600	-8.947100	28.346923	0.000215	20.685555
2465.645458	-3.001000	2.986800	-8.961900	28.344666	0.000215	20.702724
2466.647114	-3.002500	2.986100	-8.965600	28.363615	0.000213	20.719435
2467.645375	-3.035100	2.983100	-9.051800	28.299507	0.000214	20.711308
2468.644625	-3.015200	2.982000	-8.990100	28.240088	0.000215	20.701268
2469.650074	-2.960000	2.982400	-8.826500	28.238789	0.000215	20.698538
2470.649077	-2.977000	2.980900	-8.873100	28.257204	0.000214	20.691948
2471.645071	-2.992500	2.979400	-8.914900	28.267330	0.000216	20.718741
2472.646669	-3.003600	2.977000	-8.940000	28.288067	0.000214	20.681295
2473.649065	-2.991000	2.976600	-8.902400	28.326382	0.000214	20.713712
2474.645366	-3.010900	2.974000	-8.954400	28.345689	0.000215	20.695219
2475.650369	-2.976000	2.976100	-8.855100	28.351291	0.000217	20.686160
2476.654687	-2.984700	2.972200	-8.870200	28.381851	0.000216	20.698440
2477.650611	-3.000100	2.970200	-8.909300	28.406093	0.000214	20.699617
2478.648814	-3.004000	2.969500	-8.919000	28.468694	0.000215	20.695325
2479.649283	-2.985200	2.967600	-8.857500	28.480765	0.000213	20.688989
2480.649102	-2.963600	2.966800	-8.790800	28.486294	0.000216	20.693134
2481.648141	-2.984800	2.964700	-8.848200	28.451029	0.000213	20.705512
2482.648163	-3.010200	2.961800	-8.914700	28.393631	0.000215	20.701768
2483.648971	-3.020800	2.961000	-8.943100	28.335249	0.000215	20.697509
2484.648277	-3.001000	2.960100	-8.881700	28.244327	0.000213	20.708856
2485.657677	-3.003900	2.959300	-8.888000	28.220479	0.000215	20.720882
2486.652080	-2.967100	2.957700	-8.774800	28.207771	0.000213	20.695285
2487.647944	-2.959900	2.955500	-8.746700	28.233276	0.000211	20.711481
2488.648830	-2.984300	2.954400	-8.815700	28.262962	0.000212	20.685890
2489.649265	-3.008400	2.952000	-8.880000	28.260185	0.000214	20.711546
2490.651218	-2.999200	2.951000	-8.849400	28.290543	0.000213	20.709395
2491.650088	-2.964400	2.950200	-8.744100	28.296300	0.000212	20.711399
2492.649468	-2.997100	2.947300	-8.832500	28.273273	0.000212	20.698645
2493.656463	-3.010000	2.946700	-8.868900	28.248882	0.000215	20.702062
2494.651407	-3.010500	2.945000	-8.864700	28.251497	0.000214	20.692840
2495.651562	-2.983300	2.944000	-8.781000	28.293678	0.000212	20.704490
2496.651887	-2.990900	2.942200	-8.799400	28.344837	0.000212	20.688670
2497.655288	-3.026900	2.939300	-8.895100	28.364209	0.000211	20.711971
2498.649767	-3.018000	2.938400	-8.866800	28.409170	0.000211	20.690387
2499.652065	-3.013900	2.936900	-8.851400	28.439209	0.000211	20.708308
2500.652196	-2.980200	2.936500	-8.749900	28.466291	0.000211	20.686741
2501.651036	-2.988000	2.933600	-8.763700	28.469319	0.000212	20.715397
2502.652844	-3.035300	2.930400	-8.892600	28.493113	0.000212	20.710908
2503.651581	-3.015700	2.931900	-8.841200	28.512645	0.000212	20.707818
2504.654810	-2.997300	2.928700	-8.777300	28.494574	0.000211	20.699577
2505.651121	-2.999600	2.925600	-8.774400	28.497010	0.000212	20.702504
2506.651359	-2.997800	2.926600	-8.772300	28.494160	0.000211	20.718128
2507.655982	-3.010500	2.924200	-8.802500	28.530098	0.000213	20.687935
2508.657107	-3.011600	2.921500	-8.797700	28.565449	0.000214	20.691295
2509.650998	-3.007200	2.921000	-8.782600	28.551609	0.000211	20.699643
2510.651913	-2.993900	2.919200	-8.739100	28.547575	0.000212	20.702218
2511.652437	-3.032000	2.916300	-8.840400	28.509658	0.000211	20.715242
2512.652266	-2.978700	2.918000	-8.689500	28.482974	0.000211	20.695007
2513.656435	-3.032300	2.912400	-8.830400	28.430336	0.000213	20.688467
2514.654105	-3.009900	2.912700	-8.764900	28.435979	0.000211	20.697469
2515.651939	-3.013600	2.910700	-8.770400	28.461373	0.000211	20.695539
2516.652311	-3.000500	2.910900	-8.733300	28.456364	0.000212	20.718946
2517.655143	-3.008400	2.908700	-8.749300	28.477885	0.000211	20.713117
2518.655599	-3.018500	2.905500	-8.769100	28.502636	0.000211	20.700584
2519.653386	-2.992700	2.903600	-8.688400	28.496897	0.000211	20.697649
2520.653894	-2.960500	2.903700	-8.595100	28.525569	0.000211	20.709455
2521.653149	-3.017400	2.900800	-8.752200	28.537722	0.000212	20.703675
2522.652909	-3.001200	2.899300	-8.701000	28.534621	0.000213	20.711932
2523.655615	-3.012800	2.897600	-8.729000	28.581118	0.000212	20.710870
2524.657496	-3.008200	2.896100	-8.710800	28.624081	0.000212	20.684912
2525.666078	-2.976400	2.896000	-8.618900	28.630153	0.000211	20.702882
2526.653184	-2.982900	2.892100	-8.625800	28.649487	0.000213	20.720460
2527.654355	-3.017600	2.888900	-8.715800	28.648545	0.000213	20.701018
2528.656898	-3.009100	2.887600	-8.688300	28.675712	0.000211	20.701828
2529.653578	-3.026500	2.884900	-8.729800	28.705118	0.000210	20.709162
2530.652550	-3.020100	2.883100	-8.706000	28.726893	0.000212	20.717819
2531.654730	-2.997600	2.884700	-8.645000	28.768277	0.000212	20.696440
2532.655682	-3.029200	2.879300	-8.719700	28.754577	0.000212	20.704927
2533.656410	-2.997900	2.879100	-8.630000	28.760851	0.000212	20.701289
2534.659692	-3.003700	2.877300	-8.641900	28.782504	0.000212	20.713618
2535.656207	-3.031500	2.873400	-8.709800	28.754343	0.000215	20.704690
2536.660996	-2.993500	2.873000	-8.599800	28.709786	0.000212	20.690154
2537.660312	-3.010400	2.871000	-8.642200	28.715946	0.000212	20.691143
2538.655214	-2.993000	2.869900	-8.587500	28.687636	0.000214	20.686810
2539.659875	-2.992600	2.868500	-8.583400	28.660430	0.000211	20.732905
2540.657452	-2.992900	2.865800	-8.575700	28.624505	0.000211	20.703832
2541.662121	-2.992300	2.862900	-8.565900	28.567199	0.000212	20.703015
2542.659104	-3.015100	2.861700	-8.627500	28.521554	0.000212	20.710153
2543.661629	-2.990000	2.861500	-8.554800	28.501584	0.000210	20.726553
2544.662036	-3.001300	2.856800	-8.571700	28.510847	0.000213	20.717388
2545.661085	-3.013700	2.854300	-8.600700	28.528105	0.000213	20.721018
2546.660518	-2.992900	2.854600	-8.542500	28.479910	0.000213	20.707570
2547.660223	-3.007900	2.851800	-8.577200	28.415199	0.000212	20.737713
2548.661712	-3.006700	2.849900	-8.567100	28.422352	0.000211	20.721681
2549.662021	-2.980100	2.848700	-8.488300	28.435731	0.000211	20.710497
2550.662619	-3.034700	2.846100	-8.635400	28.455142	0.000210	20.733838
2551.661150	-3.030400	2.843300	-8.614800	28.489262	0.000211	20.709875
2552.667159	-3.010400	2.841100	-8.551300	28.542523	0.000210	20.686698
2553.666664	-2.970200	2.839800	-8.433800	28.575455	0.000212	20.728876
2554.663808	-2.996000	2.838000	-8.501400	28.598029	0.000213	20.723635
2555.667513	-3.012000	2.834100	-8.535700	28.643947	0.000212	20.726260
2556.664944	-2.976500	2.833000	-8.432000	28.703839	0.000212	20.708822
2557.667380	-2.986500	2.831400	-8.454200	28.713724	0.000212	20.711193
2558.666190	-3.016700	2.826800	-8.526700	28.693929	0.000211	20.725868
2559.667141	-2.975500	2.827500	-8.411600	28.677696	0.000210	20.705249
2560.669794	-2.989100	2.824800	-8.442600	28.625376	0.000212	20.735057
2561.667348	-3.013500	2.820500	-8.498900	28.563247	0.000211	20.712313
2562.667410	-2.979500	2.820900	-8.404000	28.534496	0.000212	20.722713
2563.669791	-3.043300	2.815400	-8.566700	28.500190	0.000215	20.724674
2564.670908	-3.028000	2.814200	-8.520300	28.551616	0.000214	20.729997
2565.672274	-3.002900	2.812600	-8.444800	28.570967	0.000212	20.724356
2566.673061	-2.990300	2.809900	-8.400000	28.642892	0.000213	20.714291
2567.671157	-3.008100	2.806900	-8.441700	28.717361	0.000211	20.741884
2568.671489	-3.016100	2.803600	-8.454900	28.722847	0.000211	20.728443
2569.670447	-2.982400	2.804900	-8.364600	28.731004	0.000213	20.727176
2570.671034	-3.026500	2.797600	-8.465500	28.750556	0.000212	20.726956
2571.674709	-3.016800	2.796000	-8.433600	28.734900	0.000212	20.730153
2572.671341	-2.995800	2.795500	-8.373100	28.718692	0.000211	20.727577
2573.672313	-2.983900	2.792500	-8.331100	28.740005	0.000211	20.750469
2574.671397	-3.011100	2.790400	-8.401000	28.763590	0.000210	20.712109
2575.673347	-3.005800	2.787100	-8.376700	28.753769	0.000210	20.711226
2576.680007	-2.992700	2.785300	-8.333400	28.715275	0.000211	20.710384
2577.672079	-3.016500	2.782200	-8.391000	28.749784	0.000210	20.720015
2578.680670	-2.982500	2.779400	-8.287000	28.773491	0.000211	20.725876
2579.676770	-2.962400	2.778700	-8.230900	28.754216	0.000210	20.733014
2580.674034	-3.020600	2.774900	-8.380700	28.737886	0.000209	20.750231
2581.677175	-2.989900	2.770600	-8.282700	28.801514	0.000210	20.743200
2582.676105	-3.000700	2.768500	-8.307000	28.796653	0.000211	20.750632
2583.677442	-2.995000	2.767000	-8.285700	28.796076	0.000212	20.745309
2584.673522	-2.986300	2.762200	-8.247700	28.803267	0.000213	20.739276
2585.674028	-3.009700	2.759000	-8.302300	28.835882	0.000212	20.728508
2586.676483	-3.018300	2.755800	-8.317100	28.865689	0.000211	20.739096
2587.677966	-3.008000	2.753200	-8.280900	28.895114	0.000212	20.755463
2588.676856	-3.008600	2.750000	-8.272700	28.852729	0.000210	20.739316
2589.681026	-3.019200	2.747000	-8.293100	28.775560	0.000211	20.763524
2590.676518	-3.009000	2.744500	-8.257600	28.792700	0.000211	20.733847
2591.677040	-3.002100	2.742100	-8.231000	28.759133	0.000213	20.757883
2592.682324	-3.017400	2.736300	-8.255500	28.778254	0.000211	20.754383
2593.678477	-3.005800	2.735800	-8.221800	28.808339	0.000211	20.741066
2594.677283	-3.012400	2.731200	-8.226300	28.864885	0.000213	20.749666
2595.678749	-3.023900	2.727500	-8.246300	28.905013	0.000211	20.761643
2596.680366	-3.019200	2.722700	-8.218900	28.923563	0.000212	20.739079
2597.682781	-3.000700	2.722000	-8.165800	28.976705	0.000212	20.756583
2598.679129	-3.022800	2.718200	-8.216300	28.968541	0.000210	20.745513
2599.680244	-3.050200	2.713200	-8.273900	28.988356	0.000213	20.755519
2600.679875	-2.992300	2.712700	-8.116400	28.979861	0.000212	20.756917
2601.679747	-2.986500	2.709700	-8.091500	28.992080	0.000210	20.744572
2602.683357	-3.000900	2.705400	-8.117400	29.010555	0.000211	20.744694
2603.680882	-2.967400	2.701600	-8.016100	29.007480	0.000211	20.755347
2604.683360	-3.015900	2.696700	-8.131000	28.967745	0.000211	20.759884
2605.681129	-2.997300	2.692600	-8.070100	28.927692	0.000211	20.748455
2606.680575	-3.012100	2.690200	-8.102200	28.926889	0.000211	20.748593
2607.680475	-3.033700	2.684400	-8.141700	28.965035	0.000211	20.753834
2608.685305	-2.996300	2.683000	-8.038300	28.949763	0.000213	20.757414
2609.681509	-3.014200	2.677500	-8.069700	28.949787	0.000213	20.766922
2610.681168	-3.023000	2.674500	-8.083900	28.968117	0.000211	20.752198
2611.683553	-3.018100	2.670200	-8.056700	28.980297	0.000212	20.764469
2612.682841	-3.021300	2.666100	-8.054600	29.007641	0.000212	20.765466
2613.684442	-2.994800	2.662500	-7.972900	29.068518	0.000212	20.756154
2614.682898	-2.999400	2.658600	-7.972900	29.095876	0.000212	20.763806
2615.687170	-3.021200	2.653800	-8.015600	29.107324	0.000210	20.786247
2616.683256	-3.003900	2.649900	-7.958200	29.137934	0.000212	20.762089
2617.683794	-2.986800	2.646100	-7.901700	29.117303	0.000209	20.770698
2618.686435	-3.002000	2.640600	-7.925900	29.116508	0.000210	20.772268
2619.683146	-3.018600	2.635000	-7.953300	29.098505	0.000210	20.788741
2620.685903	-2.979100	2.633000	-7.843400	29.057710	0.000210	20.786991
2621.685101	-2.973800	2.628400	-7.815100	29.003097	0.000212	20.777483
2622.683508	-2.982700	2.624000	-7.825500	29.033913	0.000213	20.756849
2623.684072	-2.999900	2.620100	-7.858900	29.019941	0.000210	20.760315
2624.685725	-2.993400	2.613200	-7.821300	29.002358	0.000211	20.770101
2625.684211	-3.001900	2.608100	-7.827900	29.033361	0.000211	20.776682
2626.684990	-3.019600	2.603500	-7.860300	29.067325	0.000211	20.774867
2627.685256	-3.023500	2.598100	-7.853600	29.133253	0.000212	20.756424
2628.684093	-3.038900	2.592800	-7.878200	29.121538	0.000212	20.788716
2629.691692	-2.974500	2.588800	-7.699700	29.145041	0.000210	20.783950
2630.683199	-3.014400	2.582400	-7.783000	29.151110	0.000210	20.784849
2631.692623	-3.008700	2.576500	-7.751100	29.121343	0.000212	20.779511
2632.684429	-3.020700	2.572600	-7.768900	29.060615	0.000211	20.768581
2633.684149	-3.025200	2.564700	-7.757300	29.058490	0.000209	20.773077
2634.685738	-3.024100	2.559200	-7.738300	29.070303	0.000211	20.784506
2635.686890	-2.985500	2.555500	-7.629000	29.067188	0.000212	20.775203
2636.686024	-2.962200	2.551100	-7.555100	29.104818	0.000211	20.792257
2637.688381	-3.014100	2.543300	-7.665200	29.152043	0.000211	20.793377
2638.688769	-3.000100	2.538100	-7.613700	29.229437	0.000211	20.771794
2639.694381	-3.043300	2.530200	-7.698900	29.289636	0.000212	20.780779
2640.691330	-3.025000	2.524400	-7.635200	29.308504	0.000210	20.772293
2641.691331	-2.964800	2.520000	-7.468800	29.357911	0.000211	20.793639
2642.690584	-2.979900	2.513600	-7.488800	29.336944	0.000212	20.790998
2643.690010	-2.986800	2.507100	-7.486700	29.374094	0.000212	20.811845
2644.690955	-3.006700	2.499600	-7.514800	29.348235	0.000213	20.793369
