LabVIEW Measurement	
Writer_Version	2
Reader_Version	2
Separator	Tab
Decimal_Separator	.
Multi_Headings	No
X_Columns	One
Time_Pref	Absolute
Operator	admin
Description	Clolumns are: time, Current, Voltage, Power, Battery Temp, and Chamber Temp
Date	2024/08/16
Time	13:06:06.104549407958984375
***End_of_Header***	
	
Channels	6						
Samples	1	1	1	1	1	1	
Date	2024/09/03	2024/09/03	2024/09/03	2024/09/03	2024/09/03	2024/09/03	
Time	21:51:08.0996255874633789063	21:51:08.107776641845703125	21:51:08.1147680282592773437	21:51:08.0847082138061523438	21:51:08.0847082138061523438	21:51:08.0847082138061523438	
X_Dimension	Time	Time	Time	Time	Time	Time	
X0	0.0000000000000000E+0	0.0000000000000000E+0	0.0000000000000000E+0	0.0000000000000000E+0	0.0000000000000000E+0	0.0000000000000000E+0	
Delta_X	1.000000	1.000000	1.000000	1.000000	1.000000	1.000000	
***End_of_Header***							
X_Value	Untitled	Untitled 1	Untitled 2	Untitled 3	Untitled 4	Untitled 5	Comment
0.000000	0.024373	4.100600	0.099915	20.979277	0.000932	20.772086
1.001420	-3.003200	3.933100	-11.811000	20.978429	0.000933	20.756064
2.003572	-2.981200	3.926800	-11.707000	20.949911	0.000932	20.763578
3.002448	-2.988800	3.921200	-11.719000	20.969570	0.000932	20.773283
4.002102	-2.978600	3.917900	-11.669000	20.975384	0.000927	20.746854
5.001960	-2.985700	3.914200	-11.685000	20.970818	0.000929	20.760781
6.002507	-2.978100	3.910600	-11.645000	20.976057	0.000928	20.772184
7.004897	-3.001800	3.907800	-11.729000	20.965128	0.000929	20.775004
8.002376	-3.003500	3.906400	-11.732000	20.983493	0.000927	20.762552
9.003214	-2.988300	3.904600	-11.668000	20.965327	0.000926	20.771884
10.004332	-3.012900	3.902000	-11.756000	20.986412	0.000927	20.758359
11.007425	-3.020100	3.900800	-11.779000	20.974735	0.000925	20.780346
12.004670	-2.991700	3.899900	-11.667000	20.998338	0.000924	20.767917
13.004633	-3.005200	3.898000	-11.714000	20.982718	0.000922	20.768890
14.004847	-3.021800	3.895200	-11.770000	20.976756	0.000922	20.751072
15.006063	-3.002000	3.895400	-11.694000	20.979727	0.000922	20.778226
16.007068	-3.011900	3.892700	-11.723000	21.001459	0.000922	20.783367
17.008006	-2.996500	3.892000	-11.661000	20.976781	0.000922	20.753942
18.007964	-3.000800	3.891700	-11.678000	21.019026	0.000920	20.785290
19.007601	-3.015600	3.889000	-11.727000	21.017853	0.000918	20.758985
20.010580	-2.991100	3.890100	-11.635000	21.023318	0.000919	20.770142
21.011627	-2.997800	3.888500	-11.656000	21.043528	0.000919	20.783244
22.009457	-2.999100	3.887400	-11.658000	21.042431	0.000920	20.788785
23.010538	-3.010100	3.886200	-11.697000	21.050165	0.000918	20.774709
24.008603	-3.011100	3.886000	-11.700000	21.062291	0.000916	20.763130
25.007801	-3.025200	3.884800	-11.751000	21.057725	0.000917	20.785116
26.008885	-3.005600	3.885200	-11.676000	21.055681	0.000917	20.781649
27.008763	-3.002200	3.884600	-11.661000	21.066959	0.000917	20.803835
28.010556	-2.995300	3.884000	-11.633000	21.062293	0.000916	20.772141
29.011170	-3.000100	3.882400	-11.647000	21.087094	0.000915	20.785569
30.012762	-3.004200	3.881900	-11.661000	21.085548	0.000914	20.782125
31.014938	-3.003200	3.881700	-11.656000	21.085296	0.000915	20.788985
32.012260	-2.998700	3.881200	-11.638000	21.092834	0.000913	20.787517
33.012298	-3.006200	3.881300	-11.667000	21.101592	0.000914	20.777311
34.017663	-3.010000	3.878700	-11.674000	21.112745	0.000915	20.767604
35.012387	-2.999700	3.881200	-11.642000	21.114641	0.000914	20.788941
36.012445	-3.006500	3.877800	-11.657000	21.117562	0.000913	20.778586
37.016949	-2.967600	3.879100	-11.511000	21.130983	0.000913	20.781580
38.011462	-2.983300	3.877400	-11.566000	21.124324	0.000912	20.789618
39.013006	-2.983700	3.879700	-11.574000	21.142487	0.000912	20.794510
40.014466	-2.997800	3.875300	-11.617000	21.157957	0.000911	20.792915
41.014222	-2.982800	3.876500	-11.562000	21.149076	0.000913	20.773599
42.013134	-2.978000	3.877700	-11.547000	21.176543	0.000910	20.777368
43.018346	-3.000400	3.875600	-11.627000	21.170186	0.000911	20.773853
44.014232	-3.008900	3.874900	-11.657000	21.168315	0.000911	20.771507
45.014832	-2.987500	3.876900	-11.581000	21.191716	0.000909	20.788753
46.017854	-3.018200	3.874300	-11.692000	21.174478	0.000908	20.806122
47.014514	-2.976000	3.874500	-11.528000	21.188899	0.000908	20.778822
48.018785	-3.001700	3.874700	-11.629000	21.172959	0.000909	20.778524
49.021662	-2.986500	3.873700	-11.568000	21.187180	0.000908	20.778051
50.015710	-2.995500	3.873000	-11.601000	21.205043	0.000907	20.792601
51.016623	-3.002500	3.872800	-11.628000	21.203823	0.000909	20.797071
52.018353	-2.993400	3.871600	-11.586000	21.203149	0.000909	20.799241
53.014334	-2.997900	3.870900	-11.604000	21.213154	0.000908	20.784120
54.016341	-3.011500	3.870700	-11.656000	21.245810	0.000908	20.802090
55.018063	-2.994100	3.870800	-11.588000	21.250701	0.000908	20.787068
56.017552	-3.012600	3.870000	-11.658000	21.262701	0.000908	20.785322
57.015839	-2.991000	3.871100	-11.577000	21.266292	0.000908	20.780380
58.018834	-3.028100	3.868400	-11.712000	21.274525	0.000907	20.796677
59.016693	-3.001800	3.869300	-11.614000	21.285352	0.000905	20.796128
60.015936	-3.010000	3.868700	-11.644000	21.291540	0.000907	20.796629
61.022328	-3.006400	3.868400	-11.628000	21.276847	0.000905	20.782878
62.016818	-2.992500	3.868700	-11.577000	21.267966	0.000908	20.785373
63.016819	-2.981400	3.868900	-11.533000	21.300021	0.000907	20.788044
64.020674	-3.006200	3.866800	-11.624000	21.292065	0.000905	20.801896
65.017579	-3.000500	3.868900	-11.608000	21.328634	0.000906	20.801497
66.018704	-3.019900	3.866200	-11.674000	21.341080	0.000908	20.805888
67.020843	-3.002300	3.867600	-11.611000	21.341380	0.000906	20.807137
68.020394	-2.992700	3.867900	-11.573000	21.353702	0.000904	20.807137
69.018909	-3.011700	3.866500	-11.644000	21.362957	0.000907	20.792214
70.020743	-2.998100	3.866300	-11.590000	21.345796	0.000904	20.798753
71.018390	-2.999900	3.865400	-11.595000	21.351111	0.000906	20.790319
72.019713	-2.999800	3.865700	-11.595000	21.351460	0.000906	20.809161
73.020444	-3.018300	3.865300	-11.666000	21.369143	0.000905	20.812153
74.023022	-2.995800	3.865400	-11.579000	21.368422	0.000906	20.818545
75.020541	-3.016900	3.864800	-11.658000	21.382989	0.000906	20.815576
76.028089	-2.987800	3.866700	-11.551000	21.394040	0.000906	20.780639
77.021462	-3.014300	3.864300	-11.647000	21.409354	0.000904	20.800229
78.023382	-2.999100	3.864400	-11.589000	21.409779	0.000906	20.803972
79.026269	-3.006300	3.864600	-11.617000	21.412823	0.000905	20.810337
80.023067	-3.000400	3.864300	-11.593000	21.449139	0.000906	20.796412
81.025753	-3.009100	3.863600	-11.625000	21.444526	0.000905	20.815979
82.028580	-2.997400	3.863700	-11.580000	21.455847	0.000906	20.796013
83.026488	-3.006700	3.862100	-11.611000	21.448068	0.000905	20.811463
84.024161	-3.001100	3.861700	-11.588000	21.480193	0.000905	20.808044
85.027558	-2.991700	3.862000	-11.554000	21.459765	0.000907	20.806570
86.027226	-3.002500	3.863400	-11.598000	21.469294	0.000905	20.829381
87.023894	-2.987800	3.862300	-11.540000	21.479967	0.000908	20.816353
88.026763	-2.997100	3.860700	-11.569000	21.469244	0.000906	20.810365
89.026742	-3.006300	3.861000	-11.606000	21.495555	0.000903	20.813459
90.026428	-3.005800	3.861200	-11.605000	21.503038	0.000907	20.802928
91.027149	-3.000900	3.861100	-11.586000	21.530273	0.000906	20.831128
92.027006	-2.994100	3.861200	-11.560000	21.526332	0.000906	20.804899
93.025001	-2.980100	3.861600	-11.505000	21.521096	0.000909	20.819575
94.026085	-3.000000	3.859900	-11.578000	21.548629	0.000907	20.809193
95.026739	-2.988200	3.860900	-11.536000	21.535163	0.000906	20.819426
96.027839	-3.000500	3.860000	-11.581000	21.550823	0.000907	20.814233
97.029222	-2.981400	3.860100	-11.507000	21.569478	0.000906	20.815357
98.028062	-2.978100	3.859500	-11.493000	21.555338	0.000905	20.828708
99.027903	-2.978600	3.860000	-11.496000	21.563267	0.000908	20.794443
100.033323	-3.013100	3.858900	-11.626000	21.585040	0.000907	20.814334
101.028514	-3.002400	3.858400	-11.581000	21.565065	0.000907	20.812363
102.029143	-3.024400	3.857800	-11.666000	21.600079	0.000907	20.817529
103.029274	-3.023300	3.858500	-11.665000	21.599704	0.000908	20.835646
104.029370	-3.017100	3.857700	-11.638000	21.612820	0.000908	20.817478
105.028749	-3.024800	3.856300	-11.664000	21.634117	0.000907	20.821720
106.029949	-2.982900	3.857000	-11.503000	21.632646	0.000908	20.813610
107.030276	-2.978200	3.858700	-11.491000	21.650475	0.000910	20.850891
108.031034	-2.990500	3.857600	-11.536000	21.645813	0.000907	20.815881
109.031499	-2.980900	3.858200	-11.500000	21.676459	0.000910	20.825213
110.029356	-2.996700	3.857400	-11.558000	21.667881	0.000908	20.803827
111.030901	-3.008100	3.856300	-11.599000	21.686657	0.000909	20.818824
112.047278	-3.001100	3.856700	-11.574000	21.699898	0.000910	20.820221
113.030472	-3.017900	3.855400	-11.634000	21.706505	0.000910	20.824936
114.029391	-3.005800	3.855200	-11.587000	21.705582	0.000909	20.854357
115.031281	-2.998900	3.855500	-11.561000	21.700920	0.000910	20.852537
116.031436	-3.002500	3.855700	-11.576000	21.708274	0.000909	20.827181
117.031115	-3.004100	3.855200	-11.581000	21.725605	0.000912	20.839309
118.031856	-3.000500	3.855000	-11.566000	21.741862	0.000912	20.842777
119.035526	-2.998400	3.855300	-11.559000	21.739069	0.000911	20.837137
120.032561	-3.001400	3.854000	-11.566000	21.738320	0.000911	20.833069
121.032033	-3.019400	3.854600	-11.638000	21.748267	0.000912	20.833067
122.031692	-3.003900	3.854400	-11.577000	21.765722	0.000912	20.844846
123.030074	-2.990600	3.854000	-11.525000	21.777390	0.000912	20.840877
124.036829	-2.984400	3.855700	-11.504000	21.771531	0.000911	20.843548
125.032462	-2.988000	3.854000	-11.515000	21.770857	0.000912	20.866105
126.033300	-3.003800	3.854600	-11.577000	21.789331	0.000911	20.851880
127.033656	-2.991800	3.853700	-11.528000	21.804543	0.000911	20.841026
128.034724	-2.993400	3.852900	-11.533000	21.795740	0.000912	20.833639
129.039082	-3.015000	3.852000	-11.612000	21.808405	0.000914	20.833039
130.033019	-3.020300	3.851700	-11.631000	21.792546	0.000912	20.845615
131.033762	-3.027100	3.851500	-11.658000	21.814887	0.000911	20.845689
132.032862	-3.001500	3.851200	-11.558000	21.807756	0.000913	20.868897
133.032186	-2.996800	3.850900	-11.540000	21.860139	0.000915	20.834085
134.033015	-2.990000	3.852400	-11.518000	21.844905	0.000912	20.863880
135.032503	-3.021400	3.850900	-11.634000	21.836827	0.000913	20.858640
136.032147	-3.020400	3.850400	-11.628000	21.867545	0.000915	20.862833
137.033344	-3.015200	3.851100	-11.610000	21.858044	0.000914	20.864702
138.033721	-3.018500	3.850900	-11.622000	21.871384	0.000916	20.869046
139.032823	-3.000000	3.851000	-11.551000	21.885494	0.000916	20.833859
140.035625	-2.997800	3.850300	-11.541000	21.881481	0.000914	20.865402
141.033095	-2.989900	3.852200	-11.516000	21.883823	0.000916	20.864901
142.033630	-3.017100	3.849000	-11.612000	21.891054	0.000916	20.859338
143.035203	-3.005700	3.849100	-11.569000	21.893920	0.000916	20.888282
144.046700	-3.017000	3.849300	-11.612000	21.912768	0.000917	20.868270
145.035714	-3.010700	3.848400	-11.586000	21.928849	0.000917	20.854495
146.037817	-3.015900	3.849000	-11.607000	21.927405	0.000918	20.863481
147.036686	-3.010400	3.848900	-11.585000	21.927779	0.000917	20.877605
148.035769	-3.010400	3.849400	-11.586000	21.935058	0.000919	20.866400
149.040313	-2.989000	3.850500	-11.507000	21.952111	0.000917	20.870193
150.037643	-2.997800	3.849300	-11.537000	21.972679	0.000918	20.868971
151.036886	-2.980400	3.849800	-11.473000	21.961785	0.000918	20.872764
152.039876	-3.035300	3.847800	-11.678000	21.971084	0.000917	20.865004
153.040266	-2.991000	3.849100	-11.510000	21.987837	0.000917	20.868497
154.040339	-3.010500	3.846900	-11.580000	22.004518	0.000921	20.870497
155.040926	-3.006400	3.846600	-11.564000	21.982030	0.000918	20.876909
156.041120	-2.996800	3.847700	-11.531000	22.013219	0.000918	20.855501
157.041135	-3.014800	3.846800	-11.596000	22.001653	0.000920	20.884223
158.046204	-2.989900	3.845400	-11.496000	22.013895	0.000918	20.862341
159.043390	-2.991400	3.847400	-11.508000	22.008786	0.000921	20.876666
160.043573	-2.999200	3.846200	-11.534000	22.029329	0.000920	20.879212
161.045976	-2.988300	3.846800	-11.494000	22.004401	0.000920	20.877966
162.045310	-3.000000	3.846600	-11.538000	22.023821	0.000921	20.874647
163.049030	-2.990900	3.845300	-11.499000	22.046632	0.000922	20.897007
164.045316	-3.011300	3.846300	-11.581000	22.044940	0.000923	20.877771
165.046605	-3.020500	3.845100	-11.613000	22.054836	0.000923	20.881988
166.044101	-3.003200	3.844100	-11.544000	22.064561	0.000922	20.860431
167.048440	-2.988600	3.844600	-11.488000	22.047862	0.000923	20.883540
168.047156	-2.997800	3.845900	-11.528000	22.056360	0.000924	20.871661
169.048327	-2.988000	3.845900	-11.489000	22.094875	0.000924	20.889828
170.047364	-3.010300	3.844700	-11.573000	22.081067	0.000923	20.866998
171.047763	-2.996800	3.843200	-11.516000	22.074064	0.000925	20.885590
172.048778	-2.981900	3.844700	-11.464000	22.088126	0.000924	20.868374
173.048277	-3.003300	3.844200	-11.542000	22.094384	0.000924	20.868475
174.053296	-3.011900	3.844200	-11.577000	22.093761	0.000924	20.891084
175.047885	-3.005500	3.844600	-11.553000	22.119163	0.000927	20.870523
176.051586	-2.996200	3.843800	-11.516000	22.097478	0.000926	20.884848
177.050221	-2.986600	3.842600	-11.475000	22.109246	0.000925	20.883827
178.053718	-2.993100	3.843200	-11.502000	22.132976	0.000926	20.877713
179.051304	-3.013100	3.842400	-11.577000	22.141453	0.000928	20.883355
180.051455	-3.000600	3.841400	-11.525000	22.164061	0.000927	20.899350
181.051149	-3.009500	3.841000	-11.557000	22.146066	0.000927	20.888448
182.051839	-2.992900	3.841800	-11.497000	22.161645	0.000929	20.873226
183.053783	-2.997300	3.841400	-11.512000	22.174335	0.000929	20.884982
184.052097	-2.995900	3.840500	-11.503000	22.191632	0.000928	20.896135
185.053242	-2.992900	3.840800	-11.494000	22.211026	0.000930	20.870510
186.053401	-2.999000	3.841500	-11.520000	22.204770	0.000929	20.883211
187.052897	-2.965900	3.843000	-11.396000	22.202253	0.000931	20.856511
188.052653	-2.988800	3.841400	-11.480000	22.179947	0.000931	20.882540
189.053663	-3.016800	3.840600	-11.585000	22.187351	0.000931	20.894693
190.054323	-3.030300	3.839700	-11.633000	22.181693	0.000930	20.872909
191.054983	-3.008200	3.840800	-11.553000	22.177604	0.000932	20.867393
192.060896	-2.989700	3.840400	-11.480000	22.226461	0.000932	20.886911
193.055209	-2.990100	3.840400	-11.482000	22.234110	0.000933	20.879872
194.093752	-2.986800	3.840000	-11.468000	22.214198	0.000932	20.883168
195.056058	-2.999900	3.840900	-11.522000	22.236682	0.000932	20.883395
196.056561	-2.981000	3.841100	-11.448000	22.239274	0.000931	20.864654
197.062641	-3.002100	3.839600	-11.526000	22.248223	0.000934	20.861761
198.057299	-2.999800	3.839200	-11.515000	22.235888	0.000934	20.866954
199.057959	-2.997500	3.839900	-11.508000	22.245709	0.000933	20.875838
200.058936	-2.998700	3.837300	-11.506000	22.236163	0.000936	20.846842
201.061516	-3.011800	3.836700	-11.554000	22.224824	0.000936	20.849239
202.057502	-2.989200	3.837900	-11.471000	22.221485	0.000935	20.843999
203.059883	-2.964100	3.837900	-11.374000	22.241676	0.000935	20.863266
204.058480	-3.001600	3.838100	-11.519000	22.231084	0.000935	20.860722
205.058705	-3.001500	3.837800	-11.518000	22.240905	0.000939	20.875769
206.057544	-3.016600	3.836600	-11.573000	22.265331	0.000937	20.853761
207.059299	-2.990800	3.836400	-11.472000	22.267750	0.000937	20.858554
208.058264	-2.994100	3.837200	-11.487000	22.265058	0.000938	20.847798
209.059851	-2.979600	3.837400	-11.433000	22.271714	0.000939	20.856833
210.060046	-2.989100	3.837600	-11.470000	22.281708	0.000937	20.836969
211.058825	-3.001300	3.834200	-11.507000	22.263567	0.000941	20.877597
212.060826	-3.008900	3.835000	-11.538000	22.261722	0.000941	20.841613
213.060862	-2.993100	3.836800	-11.483000	22.281836	0.000941	20.839468
214.059969	-2.995300	3.835200	-11.487000	22.303371	0.000943	20.850599
215.059507	-2.985600	3.835800	-11.452000	22.298038	0.000940	20.866121
216.059471	-2.999100	3.834300	-11.498000	22.320718	0.000940	20.842365
217.059732	-3.019300	3.834600	-11.577000	22.327870	0.000943	20.850475
218.059831	-2.998400	3.834700	-11.496000	22.326875	0.000944	20.860384
219.060338	-3.014300	3.832900	-11.553000	22.339162	0.000942	20.845187
220.065537	-3.013300	3.835200	-11.554000	22.361992	0.000944	20.847659
221.060671	-3.036900	3.832400	-11.636000	22.353117	0.000943	20.835453
222.058951	-3.032300	3.831400	-11.615000	22.359848	0.000944	20.831288
223.061378	-3.012400	3.832800	-11.545000	22.362515	0.000943	20.865725
224.062447	-2.984500	3.833100	-11.439000	22.364409	0.000945	20.829217
225.060544	-2.984300	3.834500	-11.441000	22.390278	0.000945	20.851327
226.068794	-2.992200	3.832600	-11.467000	22.392645	0.000945	20.822405
227.063097	-3.008000	3.832200	-11.526000	22.393419	0.000945	20.848783
228.066922	-2.996900	3.833500	-11.488000	22.382729	0.000947	20.835234
229.074102	-3.024600	3.832300	-11.590000	22.386515	0.000946	20.828594
230.066863	-3.011300	3.831100	-11.535000	22.381259	0.000949	20.826175
231.066258	-3.006200	3.830400	-11.514000	22.341660	0.000945	20.828248
232.063037	-3.003700	3.831000	-11.506000	22.353795	0.000949	20.823331
233.061312	-2.989100	3.830500	-11.448000	22.384898	0.000949	20.847837
234.065605	-2.994600	3.830900	-11.472000	22.398205	0.000949	20.820860
235.068424	-2.981900	3.832700	-11.428000	22.393172	0.000950	20.830045
236.059816	-2.988700	3.831200	-11.448000	22.398505	0.000952	20.820212
237.065848	-2.989600	3.829800	-11.448000	22.394744	0.000952	20.823084
238.066026	-2.983600	3.831200	-11.430000	22.402367	0.000951	20.833563
239.061120	-3.012600	3.830000	-11.538000	22.387366	0.000952	20.824705
240.065188	-3.003200	3.830200	-11.502000	22.405833	0.000954	20.824231
241.066418	-2.986300	3.829500	-11.435000	22.428186	0.000953	20.820063
242.062037	-3.005400	3.829500	-11.507000	22.422603	0.000954	20.806887
243.064197	-2.986300	3.830700	-11.438000	22.429807	0.000953	20.816945
244.065897	-3.012600	3.829300	-11.535000	22.453530	0.000954	20.837383
245.062161	-3.020600	3.828100	-11.561000	22.447722	0.000956	20.821136
246.067744	-2.994100	3.828400	-11.461000	22.456718	0.000954	20.826351
247.065029	-2.967600	3.829900	-11.364000	22.459735	0.000955	20.819889
248.063118	-2.974900	3.827400	-11.384000	22.473740	0.000957	20.825380
249.065751	-3.014600	3.825800	-11.532000	22.485926	0.000955	20.813876
250.064651	-3.001600	3.826100	-11.482000	22.472270	0.000958	20.817744
251.064003	-3.011000	3.826600	-11.521000	22.493251	0.000959	20.826902
252.068315	-3.000400	3.825900	-11.478000	22.490487	0.000959	20.832194
253.070158	-3.008900	3.825800	-11.510000	22.529160	0.000961	20.801226
254.064274	-3.013000	3.826100	-11.527000	22.544035	0.000958	20.813752
255.067653	-2.970600	3.827300	-11.367000	22.527413	0.000961	20.822235
256.069632	-3.000400	3.824800	-11.475000	22.513411	0.000962	20.809634
257.066852	-2.995100	3.825000	-11.455000	22.512687	0.000960	20.825030
258.070739	-3.006900	3.826300	-11.504000	22.520564	0.000962	20.818220
259.070709	-3.000000	3.826200	-11.478000	22.540397	0.000961	20.811531
260.067890	-3.017600	3.826100	-11.545000	22.527688	0.000963	20.795010
261.069479	-3.012900	3.826100	-11.526000	22.539524	0.000961	20.809709
262.073680	-2.982100	3.825000	-11.405000	22.542964	0.000963	20.815050
263.068652	-3.007700	3.823600	-11.499000	22.545555	0.000964	20.785403
264.068643	-2.977500	3.825200	-11.389000	22.582108	0.000965	20.828175
265.070731	-3.013300	3.823500	-11.521000	22.591625	0.000964	20.817320
266.068830	-2.999800	3.825200	-11.473000	22.564018	0.000966	20.813852
267.072576	-3.013800	3.821900	-11.518000	22.563270	0.000965	20.808835
268.070652	-3.010000	3.823400	-11.506000	22.573412	0.000966	20.808561
269.070800	-2.997600	3.823000	-11.458000	22.589533	0.000965	20.819966
270.073798	-3.020400	3.821600	-11.541000	22.582331	0.000968	20.815597
271.074450	-2.994500	3.822300	-11.444000	22.592748	0.000968	20.813228
272.078092	-2.993500	3.822100	-11.441000	22.604285	0.000967	20.806766
273.073093	-3.024000	3.820100	-11.550000	22.621799	0.000967	20.802497
274.074267	-2.997600	3.822500	-11.458000	22.618413	0.000970	20.811433
275.072389	-3.006900	3.820600	-11.487000	22.616645	0.000970	20.808240
276.074133	-3.012400	3.820800	-11.509000	22.624445	0.000969	20.810837
277.072960	-3.002600	3.822900	-11.477000	22.628706	0.000970	20.799457
278.072078	-3.017100	3.819800	-11.524000	22.642035	0.000973	20.804747
279.075260	-3.020100	3.820300	-11.535000	22.669617	0.000972	20.791123
280.079948	-3.022000	3.819000	-11.540000	22.664762	0.000973	20.776776
281.074367	-2.986300	3.821300	-11.411000	22.690971	0.000974	20.795442
282.074857	-2.993100	3.821200	-11.436000	22.695928	0.000973	20.783812
283.074925	-2.994800	3.820300	-11.440000	22.698398	0.000973	20.788657
284.086816	-2.988000	3.819800	-11.413000	22.700765	0.000975	20.800037
285.075956	-2.991200	3.819200	-11.423000	22.716861	0.000974	20.783918
286.078078	-3.010600	3.819700	-11.498000	22.752982	0.000977	20.797341
287.073445	-3.008800	3.818900	-11.489000	22.735595	0.000977	20.782769
288.075536	-3.016900	3.818900	-11.520000	22.728819	0.000978	20.794948
289.078351	-2.995200	3.818800	-11.437000	22.764545	0.000976	20.791854
290.079510	-2.993700	3.819000	-11.431000	22.763572	0.000979	20.785189
291.078562	-3.000300	3.818200	-11.455000	22.771271	0.000979	20.809971
292.079011	-2.983600	3.818300	-11.391000	22.763971	0.000979	20.796020
293.077197	-3.003200	3.817300	-11.463000	22.750316	0.000979	20.793722
294.078758	-2.992900	3.816700	-11.423000	22.753456	0.000981	20.786910
295.080009	-2.992000	3.817100	-11.420000	22.787187	0.000981	20.790827
296.076821	-3.005900	3.817100	-11.473000	22.789328	0.000980	20.793921
297.080578	-3.000600	3.816000	-11.449000	22.787935	0.000981	20.790154
298.078859	-2.984600	3.816300	-11.388000	22.802232	0.000983	20.785984
299.078011	-3.014100	3.814000	-11.494000	22.766259	0.000983	20.785510
300.079041	-3.012200	3.815500	-11.491000	22.770568	0.000984	20.780818
301.080898	-2.989900	3.816900	-11.410000	22.754673	0.000982	20.808044
302.079859	-2.962500	3.816200	-11.304000	22.758309	0.000985	20.794616
303.082744	-2.991300	3.815300	-11.411000	22.761373	0.000985	20.779193
304.081538	-2.983300	3.815300	-11.379000	22.754469	0.000983	20.795037
305.079028	-3.015200	3.813100	-11.497000	22.758084	0.000986	20.769260
306.079105	-3.004600	3.814600	-11.460000	22.763264	0.000987	20.786777
307.080936	-3.005200	3.814000	-11.460000	22.760424	0.000986	20.789148
308.082301	-3.009200	3.812800	-11.473000	22.766924	0.000987	20.776220
309.080818	-3.015600	3.812600	-11.497000	22.786928	0.000987	20.775395
310.080978	-3.032100	3.813900	-11.563000	22.779306	0.000988	20.787200
311.078022	-2.990100	3.812700	-11.399000	22.797939	0.000988	20.773623
312.081941	-3.012900	3.813400	-11.488000	22.807157	0.000989	20.783806
313.087971	-2.983200	3.813700	-11.376000	22.812736	0.000990	20.780386
314.079429	-2.992700	3.814100	-11.413000	22.839291	0.000988	20.790393
315.080439	-2.973100	3.812400	-11.333000	22.851944	0.000990	20.766558
316.080014	-3.003600	3.812300	-11.450000	22.830495	0.000991	20.774942
317.079832	-2.992200	3.812100	-11.405000	22.833735	0.000991	20.778189
318.080894	-3.002300	3.812400	-11.445000	22.848406	0.000991	20.777713
319.080925	-3.002800	3.811600	-11.444000	22.859988	0.000991	20.773195
320.078909	-3.018500	3.809500	-11.498000	22.859465	0.000990	20.799698
321.081473	-3.007900	3.810100	-11.460000	22.872792	0.000991	20.780332
322.085717	-3.004500	3.811000	-11.448000	22.872792	0.000989	20.780332
323.082625	-2.997300	3.810400	-11.419000	22.874061	0.000992	20.781129
324.087362	-2.987800	3.810800	-11.383000	22.891500	0.000992	20.766357
325.082465	-2.966300	3.810300	-11.301000	22.897973	0.000992	20.777110
326.083571	-3.004400	3.810300	-11.447000	22.877448	0.000995	20.769824
327.084766	-2.992800	3.810000	-11.402000	22.924778	0.000993	20.784051
328.082280	-3.016900	3.808400	-11.489000	22.902161	0.000995	20.786521
329.083369	-3.004500	3.808400	-11.441000	22.907342	0.000995	20.778435
330.083617	-2.982400	3.808800	-11.358000	22.918426	0.000996	20.771047
331.084374	-2.987100	3.808600	-11.376000	22.904827	0.000996	20.784924
332.084326	-3.005600	3.808700	-11.447000	22.930408	0.000995	20.758396
333.087600	-3.031900	3.806900	-11.540000	22.899968	0.000998	20.766780
334.086605	-3.005400	3.807900	-11.443000	22.900542	0.000997	20.753605
335.085314	-3.008700	3.807100	-11.454000	22.903132	0.000997	20.774692
336.089951	-2.985600	3.807400	-11.367000	22.900939	0.000999	20.743570
337.085862	-2.980400	3.807300	-11.346000	22.900391	0.001001	20.771472
338.088243	-2.992600	3.807100	-11.392000	22.902334	0.000999	20.770573
339.089257	-3.007800	3.805300	-11.445000	22.916010	0.000999	20.774317
340.087623	-2.992000	3.806100	-11.387000	22.912721	0.000999	20.764384
341.087080	-2.984600	3.807500	-11.363000	22.890825	0.000999	20.756671
342.089517	-2.999900	3.807000	-11.418000	22.909134	0.001001	20.765057
343.088667	-2.982500	3.805400	-11.348000	22.937555	0.000998	20.770298
344.086663	-2.998400	3.805800	-11.410000	22.908958	0.001001	20.784796
345.088605	-2.996700	3.804700	-11.401000	22.902084	0.001001	20.770797
346.089166	-2.985100	3.806100	-11.361000	22.932024	0.001001	20.776611
347.087407	-3.007900	3.803700	-11.439000	22.925746	0.001001	20.748509
348.088822	-3.000100	3.802900	-11.408000	22.937228	0.001003	20.778032
349.093301	-2.987900	3.803300	-11.363000	22.975537	0.001003	20.746712
350.088794	-2.999600	3.804000	-11.410000	22.963756	0.001001	20.764780
351.091782	-3.007700	3.802500	-11.435000	22.999621	0.001003	20.775584
352.089440	-3.010700	3.802300	-11.446000	22.986945	0.001004	20.782798
353.089801	-3.001300	3.802700	-11.412000	22.997852	0.001005	20.764803
354.092476	-3.009500	3.801700	-11.438000	23.013419	0.001003	20.769020
355.090050	-2.996700	3.802400	-11.393000	23.036308	0.001003	20.766349
356.089962	-3.017100	3.800500	-11.465000	23.011876	0.001004	20.790708
357.095241	-2.994700	3.801900	-11.385000	23.054265	0.001004	20.765850
358.090684	-3.019500	3.801400	-11.477000	23.058001	0.001006	20.750153
359.089082	-2.991600	3.800800	-11.370000	23.036806	0.001006	20.741243
360.092746	-3.005300	3.799700	-11.418000	22.999319	0.001006	20.757738
361.091136	-3.022700	3.798600	-11.481000	23.016182	0.001007	20.764676
362.092141	-3.022600	3.798100	-11.479000	23.020915	0.001006	20.764676
363.091722	-2.999600	3.800900	-11.400000	23.027166	0.001007	20.776156
364.093029	-2.988000	3.800800	-11.355000	22.986542	0.001007	20.752522
365.103629	-2.999500	3.798500	-11.392000	23.040391	0.001009	20.756690
366.093250	-2.973900	3.800200	-11.299000	23.027067	0.001007	20.770366
367.094409	-2.982500	3.800200	-11.333000	23.034239	0.001009	20.770441
368.094851	-2.986500	3.800100	-11.348000	23.036804	0.001012	20.741715
369.099613	-3.011600	3.798700	-11.438000	23.027065	0.001010	20.740966
370.096057	-3.021000	3.797600	-11.472000	23.040319	0.001011	20.756143
371.096598	-2.986900	3.797800	-11.341000	23.058921	0.001010	20.755816
372.101142	-3.007600	3.797700	-11.421000	23.059018	0.001011	20.766820
373.097646	-2.987400	3.797800	-11.345000	23.086615	0.001012	20.760807
374.097421	-2.991600	3.797900	-11.361000	23.104121	0.001013	20.738993
375.101630	-3.000700	3.796400	-11.391000	23.118989	0.001012	20.766219
376.098107	-3.002900	3.796300	-11.399000	23.108453	0.001013	20.760403
377.097135	-3.000600	3.798000	-11.395000	23.119811	0.001014	20.740016
378.100189	-2.993500	3.796700	-11.365000	23.120881	0.001015	20.754839
379.098973	-3.022000	3.795100	-11.468000	23.078990	0.001013	20.751744
380.101409	-2.981000	3.795900	-11.315000	23.084917	0.001016	20.759105
381.104393	-3.004100	3.795000	-11.399000	23.102177	0.001015	20.745579
382.097814	-3.004300	3.793900	-11.396000	23.089723	0.001016	20.766766
383.098132	-3.003600	3.794800	-11.396000	23.106634	0.001017	20.750994
384.103392	-2.992400	3.794000	-11.352000	23.092290	0.001017	20.757483
385.099915	-2.992000	3.795600	-11.354000	23.118935	0.001017	20.767114
386.110711	-3.001400	3.794100	-11.386000	23.095325	0.001016	20.761474
387.102501	-3.012800	3.793100	-11.425000	23.067956	0.001016	20.743057
388.101742	-3.015900	3.792600	-11.437000	23.065563	0.001017	20.754885
389.102208	-3.026500	3.792700	-11.477000	23.084615	0.001016	20.757854
390.101405	-3.015200	3.791800	-11.433000	23.065910	0.001016	20.745275
391.102606	-3.009800	3.791900	-11.412000	23.092286	0.001018	20.754634
392.102166	-2.987200	3.792000	-11.326000	23.074827	0.001018	20.742830
393.105833	-2.999600	3.791100	-11.371000	23.070320	0.001018	20.749220
394.101977	-3.014100	3.790400	-11.424000	23.116594	0.001017	20.740585
395.104896	-2.975800	3.793300	-11.287000	23.119107	0.001019	20.746897
396.104616	-2.992500	3.792300	-11.348000	23.154994	0.001019	20.765789
397.105195	-2.974000	3.792100	-11.277000	23.176113	0.001020	20.752812
398.106210	-2.991300	3.790600	-11.338000	23.177830	0.001021	20.760223
399.104968	-2.990100	3.789400	-11.330000	23.188963	0.001021	20.761422
400.106424	-3.018300	3.790400	-11.440000	23.175068	0.001021	20.756032
401.108689	-2.997000	3.789400	-11.356000	23.214139	0.001019	20.738761
402.106301	-3.006000	3.790900	-11.394000	23.198947	0.001022	20.741080
403.106867	-3.012300	3.789400	-11.413000	23.206967	0.001025	20.760024
404.107286	-3.013900	3.787600	-11.413000	23.227288	0.001023	20.749568
405.108503	-3.010700	3.788900	-11.405000	23.260457	0.001021	20.743927
406.108141	-2.989500	3.788400	-11.324000	23.243174	0.001022	20.764066
407.109998	-2.991200	3.788400	-11.331000	23.274277	0.001024	20.745923
408.110018	-2.992000	3.787600	-11.332000	23.264663	0.001024	20.772800
409.111106	-2.971100	3.789400	-11.258000	23.281520	0.001025	20.755080
410.111698	-2.996400	3.787900	-11.349000	23.268399	0.001025	20.758525
411.111903	-2.982200	3.787800	-11.295000	23.284785	0.001024	20.744600
412.112850	-2.981500	3.788400	-11.294000	23.274748	0.001025	20.763940
413.116352	-3.004800	3.788300	-11.382000	23.278260	0.001027	20.748019
414.109089	-2.995500	3.786200	-11.341000	23.301193	0.001026	20.758674
415.112021	-3.006100	3.786100	-11.380000	23.295292	0.001026	20.753709
416.114428	-3.020700	3.785400	-11.434000	23.305176	0.001026	20.759347
417.112766	-3.018700	3.784700	-11.424000	23.324474	0.001025	20.747868
418.118388	-2.999100	3.783800	-11.346000	23.329529	0.001026	20.745822
419.117927	-3.005200	3.784000	-11.371000	23.333537	0.001027	20.774496
420.113268	-2.997300	3.784700	-11.343000	23.344342	0.001026	20.771574
421.114428	-3.006000	3.785500	-11.378000	23.354727	0.001028	20.757801
422.115749	-2.987900	3.784700	-11.307000	23.369370	0.001026	20.759200
423.113285	-2.992100	3.782900	-11.319000	23.358163	0.001029	20.759347
424.114352	-2.984700	3.784700	-11.296000	23.332566	0.001030	20.764039
425.119707	-3.018700	3.783100	-11.419000	23.308463	0.001030	20.743675
426.115128	-2.995900	3.783500	-11.334000	23.269021	0.001030	20.771951
427.115091	-3.012600	3.782700	-11.395000	23.314142	0.001028	20.776394
428.117506	-3.020800	3.781700	-11.422000	23.302488	0.001028	20.768982
429.115783	-2.972900	3.782900	-11.245000	23.327937	0.001029	20.764141
430.118119	-3.004800	3.782200	-11.364000	23.359012	0.001028	20.767311
431.118118	-3.007000	3.781200	-11.369000	23.364788	0.001029	20.751288
432.117387	-2.982600	3.781700	-11.277000	23.371188	0.001030	20.746797
433.121252	-2.985300	3.781600	-11.289000	23.357917	0.001030	20.755307
434.121268	-3.003700	3.780700	-11.356000	23.346290	0.001031	20.764992
435.116099	-2.980500	3.781100	-11.269000	23.334087	0.001031	20.768882
436.123282	-2.984900	3.781400	-11.286000	23.340786	0.001031	20.754734
437.130857	-3.011100	3.778700	-11.376000	23.376716	0.001031	20.747596
438.118783	-3.020100	3.778500	-11.409000	23.356200	0.001030	20.763070
439.119543	-3.008300	3.779800	-11.369000	23.394371	0.001032	20.765292
440.125158	-2.993400	3.779100	-11.311000	23.375646	0.001031	20.778767
441.123626	-2.985800	3.779100	-11.283000	23.389566	0.001033	20.787029
442.120959	-2.984400	3.778800	-11.277000	23.364294	0.001032	20.759328
443.127487	-2.997200	3.777700	-11.322000	23.355279	0.001032	20.789174
444.119694	-3.011700	3.777400	-11.374000	23.358915	0.001031	20.758678
445.123396	-2.967700	3.779200	-11.215000	23.352965	0.001032	20.765043
446.120201	-2.990000	3.777800	-11.295000	23.363499	0.001032	20.767540
447.120318	-3.000700	3.777700	-11.334000	23.384039	0.001031	20.766317
448.122913	-3.000100	3.776200	-11.329000	23.377693	0.001032	20.771810
449.123968	-2.997900	3.775500	-11.318000	23.366862	0.001034	20.775179
450.121491	-3.011100	3.775400	-11.367000	23.383124	0.001033	20.773460
451.126116	-3.008700	3.775800	-11.359000	23.374433	0.001034	20.797466
452.123462	-3.023700	3.774200	-11.411000	23.357005	0.001035	20.775731
453.126293	-3.016400	3.775000	-11.386000	23.404588	0.001034	20.769843
454.126034	-2.987800	3.774900	-11.278000	23.415668	0.001033	20.755344
455.124712	-2.972800	3.776100	-11.224000	23.395079	0.001034	20.780226
456.131738	-2.987100	3.776000	-11.278000	23.392738	0.001034	20.766026
457.127321	-3.002500	3.774000	-11.330000	23.384871	0.001035	20.764780
458.127665	-3.016600	3.773300	-11.381000	23.395256	0.001035	20.757170
459.126223	-3.011900	3.773600	-11.365000	23.447669	0.001036	20.772246
460.132031	-2.977900	3.773600	-11.236000	23.447068	0.001036	20.798197
461.129677	-3.003100	3.772400	-11.327000	23.458823	0.001036	20.771099
462.128992	-2.997800	3.773200	-11.310000	23.462930	0.001035	20.773793
463.131350	-2.997900	3.772800	-11.310000	23.465297	0.001037	20.774269
464.131578	-2.993700	3.772000	-11.290000	23.471023	0.001037	20.782854
465.130889	-2.986800	3.772100	-11.266000	23.467411	0.001037	20.771172
466.130366	-2.993800	3.771800	-11.290000	23.495995	0.001036	20.779435
467.135466	-3.010400	3.771000	-11.351000	23.510710	0.001037	20.779487
468.131553	-3.003300	3.771800	-11.326000	23.515763	0.001037	20.789767
469.137178	-2.989600	3.770300	-11.270000	23.517206	0.001038	20.788844
470.132765	-3.004300	3.769600	-11.324000	23.556243	0.001038	20.770602
471.132401	-2.985000	3.769000	-11.249000	23.554502	0.001038	20.783556
472.133176	-2.996500	3.768800	-11.292000	23.580988	0.001038	20.792563
473.132658	-2.987000	3.770400	-11.261000	23.601873	0.001037	20.785051
474.133331	-3.011600	3.768400	-11.348000	23.614768	0.001038	20.786123
475.132466	-2.992800	3.767600	-11.275000	23.604313	0.001039	20.789867
476.132674	-3.015100	3.766500	-11.355000	23.606380	0.001040	20.788146
477.136467	-3.015900	3.767900	-11.363000	23.612903	0.001040	20.788047
478.139206	-3.009000	3.767400	-11.335000	23.622885	0.001040	20.777665
479.135396	-3.015100	3.767000	-11.357000	23.599387	0.001041	20.772600
480.134795	-3.016500	3.767100	-11.362000	23.583028	0.001039	20.786548
481.136186	-2.994000	3.767800	-11.279000	23.549398	0.001039	20.770853
482.137508	-2.980800	3.767700	-11.229000	23.548526	0.001040	20.787997
483.135678	-2.993800	3.766500	-11.275000	23.558036	0.001041	20.788047
484.143056	-3.001200	3.766300	-11.302000	23.551563	0.001039	20.796256
485.139437	-2.985000	3.766600	-11.242000	23.566153	0.001040	20.773424
486.136619	-2.988700	3.765800	-11.254000	23.561173	0.001042	20.789769
487.135965	-2.998000	3.764700	-11.285000	23.539041	0.001041	20.800774
488.139754	-2.983100	3.766300	-11.235000	23.547781	0.001039	20.791517
489.138103	-3.007200	3.765100	-11.322000	23.551166	0.001041	20.789221
490.140746	-2.989100	3.765500	-11.255000	23.577582	0.001040	20.805743
491.138896	-3.002500	3.764300	-11.300000	23.589033	0.001040	20.815800
492.142357	-2.994600	3.763600	-11.268000	23.629785	0.001040	20.793591
493.139314	-2.984800	3.763500	-11.232000	23.645071	0.001040	20.779992
494.140562	-2.990300	3.764400	-11.256000	23.648681	0.001040	20.794991
495.139066	-3.006000	3.762200	-11.308000	23.651893	0.001040	20.765020
496.143129	-2.995100	3.762200	-11.267000	23.628071	0.001042	20.807520
497.139719	-3.004100	3.763700	-11.306000	23.673376	0.001041	20.782290
498.143574	-2.990900	3.762000	-11.250000	23.679324	0.001042	20.790150
499.140302	-2.975300	3.761800	-11.191000	23.677459	0.001042	20.779746
500.139761	-3.002400	3.761600	-11.293000	23.687715	0.001043	20.784812
501.141920	-3.010800	3.761300	-11.323000	23.673727	0.001042	20.798764
502.148059	-2.990700	3.761400	-11.248000	23.661281	0.001044	20.808572
503.148248	-2.987300	3.761000	-11.234000	23.681197	0.001041	20.806727
504.153471	-3.008500	3.759100	-11.309000	23.716118	0.001042	20.807598
505.145786	-3.009700	3.760400	-11.317000	23.700716	0.001041	20.798795
506.145007	-2.977700	3.759800	-11.193000	23.737854	0.001043	20.804261
507.145340	-3.015200	3.757900	-11.330000	23.733672	0.001043	20.787266
508.145294	-3.018900	3.757700	-11.343000	23.741216	0.001042	20.803364
509.146617	-3.021100	3.757800	-11.351000	23.764090	0.001043	20.798322
510.145174	-2.988400	3.759400	-11.234000	23.780070	0.001044	20.795852
511.146366	-3.003600	3.757400	-11.284000	23.792415	0.001043	20.808230
512.147098	-3.013100	3.756400	-11.318000	23.787636	0.001042	20.796326
513.146513	-2.997700	3.756900	-11.260000	23.792914	0.001044	20.792136
514.146814	-2.990100	3.756200	-11.230000	23.824076	0.001043	20.829070
515.146189	-3.011900	3.755600	-11.310000	23.797619	0.001045	20.800171
516.145793	-2.989700	3.757700	-11.233000	23.834803	0.001043	20.797627
517.145886	-3.019900	3.754900	-11.337000	23.820198	0.001044	20.810957
518.148243	-2.992300	3.756300	-11.239000	23.820592	0.001045	20.800921
519.148195	-3.000700	3.755500	-11.268000	23.828010	0.001044	20.820686
520.149127	-3.011700	3.754700	-11.307000	23.821912	0.001046	20.803667
521.148702	-2.991700	3.755800	-11.236000	23.853621	0.001043	20.818866
522.148084	-3.011400	3.753400	-11.303000	23.809941	0.001044	20.794983
523.148098	-3.015300	3.754000	-11.319000	23.789606	0.001046	20.804466
524.147505	-3.005800	3.752600	-11.278000	23.796078	0.001044	20.808584
525.148554	-3.005400	3.752300	-11.275000	23.801753	0.001046	20.810955
526.148136	-3.016100	3.751700	-11.315000	23.825422	0.001046	20.816669
527.150213	-3.004300	3.752200	-11.270000	23.833907	0.001045	20.831341
528.147169	-3.017300	3.752600	-11.321000	23.825794	0.001043	20.810404
529.150473	-2.987600	3.751900	-11.208000	23.822659	0.001046	20.812477
530.146709	-2.998100	3.751400	-11.245000	23.826465	0.001045	20.834310
531.148242	-3.002900	3.751300	-11.264000	23.807324	0.001044	20.803739
532.147542	-3.013300	3.751000	-11.302000	23.766605	0.001045	20.807008
533.147449	-3.017000	3.750500	-11.314000	23.804311	0.001045	20.816839
534.148155	-3.030900	3.749800	-11.365000	23.795624	0.001044	20.820456
535.149404	-3.025400	3.750300	-11.345000	23.794878	0.001044	20.816864
536.149368	-3.012500	3.750400	-11.298000	23.799880	0.001046	20.828517
537.150823	-2.986900	3.748800	-11.196000	23.804532	0.001044	20.825595
538.150578	-2.998800	3.749200	-11.242000	23.807843	0.001044	20.827966
539.150285	-2.966600	3.750300	-11.124000	23.845351	0.001045	20.830962
540.149912	-3.004200	3.748500	-11.261000	23.824666	0.001044	20.826343
541.150410	-2.975100	3.749600	-11.155000	23.853638	0.001046	20.819357
542.152454	-2.993400	3.749800	-11.223000	23.861551	0.001046	20.827765
543.150428	-2.993200	3.748700	-11.219000	23.860357	0.001045	20.814241
544.151612	-2.990200	3.747600	-11.205000	23.832158	0.001047	20.836225
545.153759	-2.986200	3.748200	-11.192000	23.848659	0.001045	20.821003
546.152661	-3.009700	3.748000	-11.279000	23.849952	0.001048	20.837946
547.153262	-3.003600	3.747300	-11.254000	23.830762	0.001049	20.822024
548.154366	-2.972200	3.748400	-11.139000	23.830391	0.001046	20.827815
549.154522	-3.000300	3.746600	-11.239000	23.848408	0.001045	20.824069
550.154105	-3.005600	3.746900	-11.260000	23.868865	0.001048	20.847426
551.154629	-2.991200	3.746100	-11.204000	23.867570	0.001046	20.831904
552.156338	-2.973900	3.747400	-11.142000	23.859106	0.001047	20.838116
553.154996	-2.985600	3.744800	-11.179000	23.879912	0.001046	20.835745
554.156518	-2.995500	3.744500	-11.215000	23.865478	0.001047	20.832177
555.156046	-3.004300	3.744800	-11.249000	23.878741	0.001048	20.836942
556.155951	-3.011200	3.743900	-11.273000	23.882795	0.001047	20.830101
557.156621	-2.995400	3.743200	-11.212000	23.887996	0.001045	20.839584
558.157413	-2.983100	3.743700	-11.167000	23.905940	0.001047	20.845722
559.156485	-2.996200	3.743200	-11.213000	23.908104	0.001045	20.846470
560.157765	-2.992300	3.742700	-11.198000	23.909097	0.001046	20.833242
561.158390	-2.988200	3.741700	-11.179000	23.920272	0.001047	20.841602
562.160207	-3.002400	3.740500	-11.229000	23.891775	0.001045	20.852381
563.157962	-2.980300	3.741200	-11.149000	23.921763	0.001046	20.838830
564.163303	-3.015900	3.741200	-11.282000	23.921414	0.001046	20.833739
565.157653	-2.993400	3.740400	-11.196000	23.942192	0.001047	20.836557
566.162549	-3.023500	3.740600	-11.309000	23.941521	0.001047	20.842996
567.160128	-2.994100	3.742500	-11.204000	23.947146	0.001046	20.844369
568.160449	-2.999000	3.740800	-11.218000	23.973176	0.001047	20.860514
569.161423	-2.982600	3.742100	-11.159000	23.965660	0.001047	20.857245
570.160161	-2.993300	3.739500	-11.192000	23.965062	0.001045	20.854274
571.161074	-3.014700	3.738800	-11.271000	23.977454	0.001044	20.849632
572.161026	-2.997900	3.738600	-11.207000	23.974818	0.001047	20.860263
573.161717	-3.002000	3.737700	-11.219000	24.000147	0.001045	20.859112
574.162254	-2.992700	3.740000	-11.192000	23.979620	0.001045	20.850381
575.162208	-3.000300	3.739200	-11.218000	24.012143	0.001045	20.858340
576.163482	-3.023000	3.737600	-11.298000	24.031627	0.001046	20.868870
577.162786	-2.995400	3.739200	-11.200000	24.044293	0.001045	20.861185
578.163870	-3.024300	3.737300	-11.302000	24.049519	0.001047	20.865003
579.164568	-3.009400	3.736300	-11.243000	24.032847	0.001044	20.861559
580.162946	-3.007100	3.736900	-11.237000	24.013735	0.001044	20.871315
581.172354	-2.997600	3.736900	-11.200000	24.004875	0.001045	20.851052
582.164478	-3.001200	3.736600	-11.213000	24.000721	0.001044	20.848309
583.168750	-3.001300	3.736000	-11.212000	24.017517	0.001045	20.885065
584.164567	-2.990500	3.737000	-11.173000	24.041655	0.001044	20.866125
585.164723	-2.991700	3.735000	-11.172000	24.047184	0.001044	20.873566
586.181019	-2.995800	3.736000	-11.191000	24.023195	0.001045	20.867052
587.166846	-3.009400	3.735100	-11.239000	23.982634	0.001045	20.872843
588.165834	-3.009800	3.735300	-11.241000	23.955409	0.001045	20.881576
589.165708	-3.023200	3.732000	-11.282000	23.954639	0.001044	20.865632
590.169879	-3.009600	3.732500	-11.232000	23.991023	0.001045	20.858023
591.167422	-3.004700	3.734500	-11.219000	23.990972	0.001044	20.858920
592.166411	-3.019300	3.733300	-11.271000	23.984852	0.001044	20.891661
593.170123	-3.012300	3.733200	-11.244000	23.987142	0.001044	20.868829
594.169785	-3.000700	3.732400	-11.199000	23.976866	0.001044	20.868007
595.166405	-2.987500	3.732500	-11.150000	23.993614	0.001044	20.885750
596.167133	-3.019800	3.731100	-11.266000	24.012279	0.001044	20.867485
597.170216	-2.996200	3.730500	-11.176000	24.044380	0.001044	20.880710
598.167990	-3.010300	3.732700	-11.235000	24.033879	0.001045	20.885352
599.169290	-2.998200	3.730100	-11.183000	24.053340	0.001046	20.876421
600.171506	-2.987800	3.731000	-11.147000	24.072028	0.001044	20.869559
601.168410	-3.010700	3.731300	-11.233000	24.091837	0.001043	20.862400
602.170461	-2.998600	3.730300	-11.184000	24.065089	0.001044	20.882514
603.173006	-3.005500	3.729400	-11.208000	24.072505	0.001042	20.889950
604.171235	-2.991700	3.731800	-11.163000	24.091592	0.001043	20.878748
605.172191	-3.017100	3.729000	-11.249000	24.098483	0.001042	20.883288
606.172187	-2.988500	3.729500	-11.145000	24.094680	0.001042	20.878052
607.170089	-3.002800	3.729300	-11.197000	24.092341	0.001044	20.876180
608.172431	-3.004000	3.728800	-11.200000	24.113469	0.001044	20.896894
609.172243	-2.970600	3.730000	-11.079000	24.111105	0.001041	20.891205
610.172274	-3.013300	3.727900	-11.232000	24.128201	0.001042	20.880851
611.172724	-3.021700	3.725500	-11.256000	24.117080	0.001041	20.901464
612.173942	-2.983100	3.727700	-11.119000	24.117776	0.001042	20.871344
613.173983	-2.986700	3.728800	-11.136000	24.116783	0.001041	20.878882
614.174956	-2.998700	3.728100	-11.179000	24.121632	0.001042	20.869522
615.175034	-3.008100	3.725800	-11.207000	24.125317	0.001043	20.891708
616.174342	-2.978500	3.726800	-11.100000	24.104565	0.001042	20.845768
617.176865	-2.973500	3.726800	-11.081000	24.088765	0.001042	20.888240
618.176801	-3.022700	3.725500	-11.261000	24.090033	0.001043	20.879081
619.175992	-3.011700	3.724800	-11.217000	24.118723	0.001042	20.895526
620.178288	-2.995600	3.726500	-11.162000	24.125166	0.001042	20.874963
621.178562	-3.009400	3.725300	-11.210000	24.139151	0.001042	20.881402
622.177518	-3.004900	3.723700	-11.189000	24.125715	0.001042	20.869350
623.178391	-2.994900	3.724800	-11.154000	24.126463	0.001042	20.891435
624.176772	-3.013800	3.723900	-11.221000	24.123723	0.001041	20.877309
625.176774	-2.988100	3.724700	-11.128000	24.167963	0.001040	20.881851
626.181066	-2.986400	3.725500	-11.124000	24.199089	0.001042	20.876087
627.179050	-3.005000	3.723000	-11.186000	24.166570	0.001041	20.873342
628.177529	-3.000600	3.723000	-11.168000	24.207873	0.001043	20.867354
629.179675	-2.980600	3.722900	-11.095000	24.227527	0.001041	20.863360
630.177711	-3.001300	3.722500	-11.171000	24.236709	0.001042	20.863087
631.177855	-3.018800	3.722600	-11.237000	24.243525	0.001042	20.870872
632.179349	-3.034000	3.720900	-11.287000	24.233127	0.001043	20.872296
633.180286	-2.992000	3.721300	-11.133000	24.250593	0.001043	20.870849
634.180358	-2.985400	3.721800	-11.110000	24.244920	0.001042	20.881280
635.180343	-2.991800	3.720800	-11.131000	24.240416	0.001043	20.873917
636.179837	-3.010700	3.721200	-11.203000	24.258752	0.001043	20.873344
637.180357	-2.998500	3.721200	-11.157000	24.244274	0.001042	20.884425
638.185401	-2.996300	3.718900	-11.142000	24.239596	0.001043	20.883526
639.180348	-2.980000	3.720400	-11.085000	24.260819	0.001042	20.873994
640.180267	-2.985300	3.719500	-11.102000	24.260397	0.001041	20.872623
641.179923	-2.985300	3.718100	-11.099000	24.240864	0.001040	20.866781
642.182705	-2.996300	3.717500	-11.137000	24.247657	0.001040	20.838509
643.179438	-3.014300	3.717800	-11.205000	24.234023	0.001039	20.857549
644.183274	-2.986200	3.718600	-11.103000	24.254671	0.001041	20.864984
645.180224	-3.003100	3.719100	-11.167000	24.235290	0.001041	20.862613
646.179749	-2.998700	3.718400	-11.149000	24.244767	0.001040	20.874015
647.183371	-2.996700	3.718000	-11.140000	24.244544	0.001040	20.883748
648.181068	-3.004200	3.716700	-11.164000	24.264970	0.001041	20.852555
649.181874	-2.987200	3.717600	-11.105000	24.290693	0.001040	20.855598
650.181980	-3.007100	3.716100	-11.174000	24.272904	0.001038	20.852927
651.181555	-2.998200	3.715000	-11.137000	24.239367	0.001039	20.858642
652.180266	-2.986500	3.716300	-11.098000	24.238548	0.001039	20.844544
653.185666	-2.984500	3.717200	-11.093000	24.205456	0.001040	20.863981
654.180542	-2.995200	3.715000	-11.125000	24.151638	0.001038	20.856470
655.182364	-2.997400	3.714700	-11.133000	24.165523	0.001039	20.850956
656.182147	-3.001300	3.714400	-11.148000	24.161615	0.001040	20.852252
657.181876	-2.987800	3.715000	-11.098000	24.178661	0.001039	20.839952
658.181424	-2.987600	3.714600	-11.097000	24.197966	0.001039	20.844143
659.184327	-3.003500	3.713300	-11.152000	24.201624	0.001040	20.847337
660.185325	-3.018000	3.714100	-11.208000	24.198140	0.001038	20.840998
661.185883	-3.010400	3.713500	-11.178000	24.177765	0.001039	20.829096
662.185754	-3.008700	3.713400	-11.171000	24.210257	0.001038	20.836082
663.186095	-3.001300	3.712900	-11.142000	24.209634	0.001040	20.839724
664.184872	-2.987300	3.711500	-11.086000	24.212745	0.001038	20.859439
665.186358	-3.013900	3.711500	-11.185000	24.221803	0.001039	20.855248
666.185705	-3.004400	3.711900	-11.151000	24.236106	0.001038	20.850629
667.185769	-3.006800	3.710400	-11.156000	24.254242	0.001038	20.849381
668.193620	-2.997600	3.711300	-11.124000	24.273001	0.001037	20.846387
669.189058	-3.004100	3.710500	-11.145000	24.287258	0.001038	20.842670
670.186979	-2.998600	3.709700	-11.123000	24.269843	0.001038	20.849383
671.187810	-3.002700	3.709000	-11.135000	24.288850	0.001036	20.859439
672.187305	-2.987000	3.710100	-11.081000	24.299051	0.001035	20.825577
673.185817	-2.982600	3.709000	-11.062000	24.300741	0.001038	20.846238
674.190463	-2.995100	3.708700	-11.107000	24.285093	0.001038	20.853774
675.187658	-2.997400	3.708700	-11.115000	24.278824	0.001036	20.851279
676.187521	-3.001100	3.708800	-11.129000	24.264445	0.001036	20.821684
677.186814	-2.994900	3.707900	-11.104000	24.237179	0.001036	20.842223
678.188985	-3.001600	3.707000	-11.124000	24.227948	0.001037	20.850981
679.189734	-2.987800	3.708700	-11.079000	24.205305	0.001036	20.847236
680.189524	-2.985300	3.707500	-11.065000	24.226129	0.001037	20.839200
681.188539	-2.990800	3.707400	-11.087000	24.250289	0.001035	20.843519
682.189315	-2.998800	3.706800	-11.116000	24.255885	0.001036	20.841546
683.189194	-2.986300	3.708000	-11.072000	24.276162	0.001035	20.827746
684.189416	-2.968200	3.707500	-11.004000	24.288425	0.001036	20.847159
685.194539	-3.009100	3.705800	-11.150000	24.311487	0.001034	20.835681
686.191506	-2.993100	3.706000	-11.091000	24.337882	0.001036	20.836080
687.192840	-3.025100	3.703600	-11.202000	24.335816	0.001036	20.822628
688.191130	-2.963200	3.707200	-10.984000	24.347608	0.001036	20.817862
689.191864	-3.000300	3.705800	-11.117000	24.339870	0.001034	20.816264
690.194031	-3.012100	3.704000	-11.156000	24.358626	0.001035	20.842664
691.192018	-2.991600	3.705200	-11.084000	24.345267	0.001035	20.818359
692.195033	-2.989200	3.705700	-11.076000	24.339494	0.001034	20.845283
693.195290	-3.012600	3.703400	-11.156000	24.365092	0.001034	20.825918
694.191383	-3.015000	3.703400	-11.165000	24.355265	0.001033	20.839768
695.192834	-3.010500	3.702100	-11.143000	24.387777	0.001036	20.841089
696.194157	-2.995200	3.702500	-11.088000	24.377825	0.001034	20.818777
697.194258	-3.028600	3.701900	-11.211000	24.394592	0.001033	20.833701
698.193793	-2.993600	3.702000	-11.081000	24.377876	0.001033	20.819777
699.193269	-3.003500	3.701400	-11.115000	24.368122	0.001031	20.833699
700.192916	-3.009300	3.700900	-11.136000	24.381978	0.001032	20.835745
701.192374	-3.001700	3.700500	-11.106000	24.373866	0.001032	20.832349
702.193635	-2.985300	3.700600	-11.046000	24.360209	0.001030	20.824813
703.193659	-2.997100	3.702200	-11.095000	24.395086	0.001031	20.814756
704.193891	-2.991800	3.701000	-11.072000	24.375183	0.001034	20.815653
705.196126	-3.002900	3.700300	-11.110000	24.353241	0.001032	20.819719
706.195915	-2.992300	3.701200	-11.074000	24.350256	0.001030	20.825260
707.194890	-2.990700	3.700900	-11.067000	24.369138	0.001029	20.833770
708.194148	-3.004600	3.700100	-11.116000	24.367222	0.001032	20.830900
709.195929	-3.009400	3.699600	-11.133000	24.351251	0.001029	20.837163
710.197149	-3.006700	3.700000	-11.123000	24.355728	0.001030	20.844025
711.196887	-3.003000	3.698200	-11.105000	24.370405	0.001030	20.827455
712.196752	-2.974100	3.700500	-11.005000	24.391998	0.001030	20.808340
713.196294	-3.000800	3.697300	-11.093000	24.392545	0.001031	20.821691
714.196842	-2.996200	3.697000	-11.076000	24.361771	0.001028	20.818320
715.202317	-2.996300	3.697500	-11.078000	24.352492	0.001029	20.811382
716.196866	-3.020000	3.696700	-11.163000	24.309904	0.001026	20.830300
717.199481	-2.998300	3.698300	-11.086000	24.301918	0.001028	20.827030
718.198545	-3.022900	3.694700	-11.167000	24.267263	0.001029	20.815028
719.198775	-3.010900	3.697200	-11.132000	24.247234	0.001027	20.826705
720.200382	-3.018000	3.695900	-11.153000	24.281394	0.001026	20.812607
721.198597	-3.012200	3.696000	-11.131000	24.295800	0.001026	20.821842
722.198693	-3.010000	3.694400	-11.119000	24.295478	0.001028	20.829579
723.197613	-2.997400	3.695200	-11.075000	24.312069	0.001027	20.802600
724.199150	-3.011000	3.694500	-11.122000	24.312218	0.001027	20.801327
725.199407	-3.006700	3.693000	-11.102000	24.378120	0.001028	20.811013
726.199255	-3.010300	3.694900	-11.122000	24.371701	0.001027	20.827807
727.213507	-3.004500	3.693200	-11.096000	24.405333	0.001027	20.794691
728.200085	-3.007900	3.693000	-11.108000	24.396776	0.001027	20.818349
729.201777	-2.996800	3.694100	-11.069000	24.422001	0.001027	20.820895
730.200501	-3.006800	3.693800	-11.106000	24.413543	0.001028	20.831376
731.199781	-3.021300	3.692500	-11.155000	24.401329	0.001025	20.794941
732.201712	-2.977900	3.693900	-11.000000	24.396378	0.001028	20.824113
733.200823	-3.022900	3.692400	-11.161000	24.404115	0.001027	20.793943
734.201484	-3.019800	3.691200	-11.145000	24.402698	0.001025	20.810539
735.199484	-3.022700	3.691500	-11.158000	24.411552	0.001026	20.822266
736.200704	-2.993500	3.691100	-11.049000	24.406924	0.001027	20.811460
737.201151	-3.030900	3.690500	-11.184000	24.396799	0.001026	20.818846
738.202395	-2.985200	3.692200	-11.021000	24.378739	0.001025	20.809737
739.202250	-3.013300	3.690700	-11.120000	24.380529	0.001027	20.796834
740.202797	-2.998100	3.692400	-11.069000	24.383864	0.001025	20.808715
741.208016	-3.000300	3.690900	-11.073000	24.407496	0.001025	20.801602
742.204896	-3.032300	3.688500	-11.183000	24.424135	0.001024	20.800751
743.205957	-2.983400	3.691600	-11.011000	24.376323	0.001025	20.805416
744.212521	-2.987500	3.690500	-11.024000	24.359158	0.001024	20.821388
745.206268	-2.988100	3.690100	-11.025000	24.354655	0.001024	20.789370
746.204618	-2.991700	3.689000	-11.035000	24.351866	0.001021	20.804590
747.207260	-2.998300	3.689900	-11.063000	24.367239	0.001022	20.805313
748.206370	-3.016600	3.687800	-11.124000	24.369355	0.001024	20.783728
749.206850	-2.991100	3.689100	-11.033000	24.362936	0.001023	20.833712
750.205768	-2.982400	3.687500	-10.995000	24.353307	0.001022	20.812674
751.206302	-3.002700	3.687700	-11.072000	24.397885	0.001019	20.825625
752.205694	-3.002500	3.687400	-11.070000	24.392609	0.001022	20.799470
753.208795	-2.995000	3.688100	-11.045000	24.427211	0.001021	20.813794
754.208909	-2.999500	3.687900	-11.061000	24.460641	0.001020	20.811297
755.206007	-2.998400	3.686000	-11.051000	24.472530	0.001018	20.803311
756.206367	-3.011300	3.685800	-11.098000	24.502727	0.001017	20.789037
757.209218	-2.997700	3.685900	-11.048000	24.533891	0.001020	20.819355
758.208135	-3.000200	3.686000	-11.058000	24.541554	0.001018	20.779628
759.207152	-2.990600	3.685300	-11.021000	24.557894	0.001020	20.786065
760.207768	-3.004400	3.685300	-11.071000	24.559681	0.001017	20.794023
761.209001	-2.986300	3.684000	-11.000000	24.576095	0.001017	20.805750
762.208283	-3.004400	3.684100	-11.067000	24.572044	0.001018	20.786513
763.210891	-3.003200	3.684400	-11.064000	24.583879	0.001017	20.789853
764.209862	-2.989700	3.684900	-11.015000	24.573905	0.001017	20.807347
765.210844	-3.008000	3.684000	-11.079000	24.579677	0.001017	20.802232
766.208379	-3.007000	3.683200	-11.075000	24.570176	0.001018	20.786061
767.210334	-2.996800	3.683100	-11.035000	24.574403	0.001017	20.807372
768.209646	-2.997400	3.683700	-11.041000	24.557815	0.001016	20.774133
769.211474	-3.005400	3.683400	-11.069000	24.525953	0.001017	20.782941
770.212473	-3.013300	3.683200	-11.097000	24.514287	0.001017	20.785461
771.211518	-2.996400	3.683300	-11.035000	24.498342	0.001017	20.791749
772.211816	-3.015900	3.681200	-11.101000	24.524135	0.001014	20.795342
773.210700	-3.003400	3.680400	-11.052000	24.494760	0.001014	20.791474
774.212360	-3.003600	3.680100	-11.053000	24.504385	0.001015	20.806821
775.211066	-3.002200	3.679700	-11.046000	24.510108	0.001016	20.782217
776.212384	-2.995900	3.680600	-11.024000	24.507596	0.001015	20.792499
777.212208	-3.001500	3.680900	-11.047000	24.527940	0.001014	20.805798
778.214877	-3.001500	3.680700	-11.047000	24.560150	0.001012	20.809192
779.213510	-3.027100	3.680200	-11.140000	24.526471	0.001013	20.805746
780.212925	-3.020400	3.679100	-11.111000	24.517444	0.001015	20.785784
781.213898	-3.011200	3.678900	-11.077000	24.500181	0.001016	20.774628
782.212652	-3.014500	3.678600	-11.087000	24.509660	0.001013	20.780345
783.212976	-3.017700	3.678900	-11.100000	24.541744	0.001012	20.780767
784.213985	-3.010500	3.678900	-11.074000	24.554380	0.001013	20.790126
785.214338	-2.999000	3.677800	-11.028000	24.544130	0.001012	20.762772
786.214809	-3.002500	3.677500	-11.041000	24.563831	0.001011	20.790126
787.213535	-3.004300	3.677300	-11.046000	24.564749	0.001012	20.783461
788.213477	-3.008600	3.676600	-11.061000	24.566914	0.001011	20.781840
789.214921	-3.019200	3.678000	-11.103000	24.592556	0.001012	20.790973
790.215015	-3.017100	3.676400	-11.091000	24.581464	0.001012	20.760877
791.214734	-3.016000	3.676600	-11.086000	24.556167	0.001011	20.771531
792.215767	-3.028800	3.676000	-11.133000	24.566687	0.001011	20.787302
793.214380	-3.016400	3.676000	-11.088000	24.610063	0.001013	20.788151
794.218870	-3.002900	3.676900	-11.040000	24.586683	0.001012	20.778916
795.217089	-3.007100	3.675300	-11.051000	24.582007	0.001009	20.783708
796.215989	-2.970500	3.676200	-10.919000	24.583871	0.001010	20.777043
797.217437	-2.957500	3.674800	-10.867000	24.591184	0.001011	20.755931
798.215627	-2.986000	3.675100	-10.973000	24.573945	0.001010	20.771825
799.218167	-2.997300	3.675300	-11.015000	24.593495	0.001010	20.776742
800.216483	-2.991300	3.672800	-10.985000	24.611700	0.001009	20.775568
801.219263	-2.992100	3.674100	-10.993000	24.612918	0.001008	20.778687
802.217344	-3.010900	3.674300	-11.062000	24.620501	0.001009	20.782503
803.217577	-3.005100	3.673200	-11.036000	24.604484	0.001006	20.771647
804.225151	-3.001300	3.673800	-11.025000	24.597594	0.001007	20.780855
805.218538	-3.004400	3.673200	-11.035000	24.597022	0.001007	20.779333
806.218528	-2.979800	3.673300	-10.945000	24.613436	0.001008	20.777310
807.217543	-3.014200	3.671900	-11.066000	24.601721	0.001008	20.799221
808.218331	-2.992600	3.673200	-10.992000	24.584239	0.001007	20.757971
809.218885	-3.021400	3.671600	-11.092000	24.602718	0.001008	20.774616
810.219667	-2.997800	3.672500	-11.008000	24.610524	0.001007	20.778182
811.219625	-3.010700	3.670500	-11.049000	24.635967	0.001006	20.787116
812.219687	-2.995900	3.671700	-10.999000	24.635594	0.001006	20.771568
813.219395	-2.990100	3.671000	-10.976000	24.640292	0.001005	20.771542
814.218709	-2.996200	3.671600	-11.000000	24.616566	0.001005	20.775236
815.219882	-3.003600	3.670300	-11.024000	24.609825	0.001005	20.764204
816.218791	-3.006200	3.670500	-11.033000	24.609850	0.001006	20.769918
817.218263	-3.002700	3.669600	-11.016000	24.600399	0.001005	20.784143
818.219248	-3.000500	3.669300	-11.008000	24.611414	0.001004	20.793299
819.220419	-3.003500	3.669400	-11.020000	24.614625	0.001005	20.783719
820.222763	-2.974900	3.669600	-10.915000	24.612485	0.001006	20.778727
821.219221	-3.003400	3.669100	-11.018000	24.623304	0.001003	20.779151
822.220374	-2.976500	3.668900	-10.919000	24.642255	0.001001	20.762131
823.225893	-3.000300	3.667000	-11.002000	24.657376	0.001002	20.764976
824.221574	-3.018700	3.667800	-11.071000	24.663818	0.001002	20.756267
825.227451	-2.990200	3.668200	-10.968000	24.698062	0.001003	20.774035
826.226379	-3.000000	3.667800	-11.003000	24.685203	0.001004	20.769666
827.225583	-2.978500	3.667500	-10.922000	24.694951	0.001003	20.777551
828.225914	-2.999500	3.666700	-10.997000	24.690401	0.001003	20.765399
829.225915	-2.983500	3.667900	-10.940000	24.654910	0.001002	20.771985
830.223877	-2.992200	3.667700	-10.974000	24.625739	0.001001	20.766421
831.225035	-2.992400	3.665600	-10.968000	24.594227	0.001000	20.768467
832.230584	-3.018300	3.665300	-11.061000	24.562365	0.001000	20.782491
833.225776	-3.016000	3.664100	-11.050000	24.546422	0.000999	20.765546
834.228073	-3.002700	3.664300	-11.001000	24.524161	0.001000	20.776876
835.226490	-2.998000	3.665300	-10.988000	24.516424	0.001000	20.768165
836.225473	-2.990600	3.663700	-10.956000	24.518513	0.000999	20.771209
837.227440	-3.007200	3.665000	-11.021000	24.522021	0.000997	20.795592
838.228443	-2.977800	3.665100	-10.913000	24.516573	0.000999	20.769263
839.225399	-2.993500	3.663500	-10.965000	24.554154	0.000997	20.761450
840.229137	-3.029800	3.662600	-11.096000	24.578827	0.000997	20.745428
841.225954	-2.994000	3.663800	-10.968000	24.587855	0.000998	20.765867
842.224126	-2.995400	3.661600	-10.968000	24.578030	0.000998	20.767863
843.230906	-2.986300	3.662500	-10.936000	24.589322	0.000999	20.770184
844.226452	-3.021500	3.661800	-11.062000	24.591908	0.000998	20.759976
845.224768	-3.021900	3.663100	-11.068000	24.580121	0.000996	20.768538
846.228761	-3.008100	3.661300	-11.013000	24.591087	0.000997	20.758204
847.229512	-3.005100	3.661800	-11.002000	24.628119	0.000998	20.767861
848.226368	-3.018700	3.661500	-11.052000	24.624089	0.000996	20.767611
849.229423	-2.997800	3.662300	-10.977000	24.628490	0.000996	20.777243
850.228246	-2.999600	3.661400	-10.981000	24.649779	0.000994	20.762569
851.227841	-2.989200	3.660900	-10.941000	24.681038	0.000996	20.778289
852.229808	-2.986300	3.661300	-10.933000	24.686485	0.000995	20.770004
853.230174	-2.992400	3.660200	-10.952000	24.683176	0.000994	20.771899
854.228193	-2.983700	3.661800	-10.925000	24.666541	0.000994	20.771802
855.237173	-3.017000	3.658500	-11.036000	24.688673	0.000994	20.776941
856.228864	-2.997700	3.658300	-10.965000	24.706057	0.000994	20.767358
857.228423	-3.013300	3.659900	-11.026000	24.654129	0.000993	20.789219
858.235434	-2.999000	3.660000	-10.976000	24.646121	0.000992	20.772175
859.228494	-3.032400	3.656900	-11.088000	24.611475	0.000991	20.763963
860.229034	-2.998400	3.658300	-10.968000	24.603043	0.000992	20.783952
861.229073	-3.002800	3.658200	-10.983000	24.624906	0.000991	20.764163
862.227899	-3.015400	3.657700	-11.028000	24.636398	0.000991	20.751038
863.228301	-3.029300	3.655900	-11.073000	24.656193	0.000992	20.777539
864.229036	-3.006300	3.656100	-10.991000	24.666912	0.000990	20.767433
865.230760	-3.003200	3.655700	-10.977000	24.674423	0.000989	20.784453
866.228714	-3.012800	3.655700	-11.012000	24.663755	0.000990	20.764265
867.230006	-2.998000	3.656000	-10.959000	24.698573	0.000988	20.782608
868.231499	-2.981900	3.655800	-10.900000	24.678430	0.000989	20.750541
869.230263	-3.016400	3.655300	-11.024000	24.664428	0.000987	20.780587
870.232763	-3.005900	3.654300	-10.984000	24.635527	0.000988	20.777666
871.231453	-3.025400	3.654300	-11.055000	24.650475	0.000987	20.783656
872.229840	-2.999400	3.655100	-10.962000	24.666691	0.000986	20.749667
873.232486	-3.010500	3.654300	-11.000000	24.678331	0.000986	20.778417
874.236962	-3.018700	3.654000	-11.030000	24.737272	0.000988	20.765966
875.230711	-3.009600	3.652700	-10.991000	24.739634	0.000984	20.777346
876.234494	-2.999700	3.653700	-10.958000	24.756050	0.000986	20.786707
877.230148	-3.014400	3.652800	-11.010000	24.758336	0.000985	20.792321
878.231873	-3.017700	3.653100	-11.022000	24.763385	0.000985	20.778421
879.233697	-2.994600	3.652300	-10.936000	24.740309	0.000985	20.796989
880.233653	-3.002800	3.651400	-10.963000	24.753462	0.000983	20.787430
881.232543	-2.993400	3.652700	-10.932000	24.744115	0.000984	20.768092
882.234304	-2.983000	3.653300	-10.897000	24.746327	0.000983	20.764148
883.234574	-2.999900	3.651000	-10.952000	24.735734	0.000983	20.781493
884.233810	-3.029500	3.650700	-11.059000	24.732974	0.000982	20.771136
885.238455	-3.021800	3.651100	-11.032000	24.712731	0.000983	20.788755
886.240526	-3.005100	3.651900	-10.973000	24.732080	0.000982	20.786361
887.234258	-3.006400	3.650100	-10.973000	24.713378	0.000982	20.794146
888.237853	-3.002200	3.651200	-10.960000	24.734715	0.000982	20.756288
889.241856	-3.006900	3.649300	-10.972000	24.742151	0.000982	20.789829
890.235713	-3.017900	3.649500	-11.012000	24.745706	0.000979	20.795768
891.240281	-3.011000	3.649300	-10.987000	24.737129	0.000980	20.780996
892.240746	-2.996100	3.649700	-10.934000	24.761397	0.000981	20.773582
893.235940	-2.996500	3.650000	-10.936000	24.749835	0.000979	20.789005
894.240472	-2.994300	3.649900	-10.928000	24.726957	0.000980	20.796393
895.237547	-2.990800	3.648400	-10.910000	24.737575	0.000979	20.787134
896.236549	-2.980600	3.648900	-10.874000	24.720466	0.000977	20.787982
897.240825	-3.000400	3.647300	-10.942000	24.740088	0.000980	20.767370
898.237931	-2.972500	3.648200	-10.844000	24.758963	0.000979	20.784889
899.240793	-2.997300	3.647500	-10.931000	24.765130	0.000978	20.790129
900.242259	-2.987700	3.646400	-10.894000	24.781592	0.000980	20.789107
901.240813	-3.017000	3.645100	-10.996000	24.764187	0.000978	20.791080
902.238656	-2.979500	3.647500	-10.867000	24.764110	0.000977	20.786736
903.241947	-2.989200	3.646600	-10.900000	24.741359	0.000978	20.782396
904.240273	-2.967100	3.646200	-10.818000	24.762794	0.000976	20.780199
905.241351	-3.009800	3.646200	-10.972000	24.787437	0.000976	20.804930
906.240132	-2.980600	3.646600	-10.867000	24.802160	0.000977	20.797894
907.240138	-2.995300	3.645200	-10.917000	24.824788	0.000980	20.794999
908.240777	-3.007000	3.645300	-10.960000	24.846424	0.000977	20.788738
909.240623	-3.000900	3.645800	-10.938000	24.864598	0.000976	20.790382
910.241996	-3.007100	3.645300	-10.961000	24.915221	0.000975	20.797095
911.242090	-2.987700	3.644800	-10.888000	24.890385	0.000975	20.779279
912.243341	-3.012200	3.642600	-10.971000	24.882750	0.000975	20.806230
913.241025	-2.994500	3.643700	-10.910000	24.890259	0.000975	20.780101
914.241718	-2.992900	3.643500	-10.904000	24.871436	0.000974	20.800565
915.244037	-2.992600	3.642100	-10.898000	24.850449	0.000973	20.779501
916.243171	-2.997200	3.643900	-10.921000	24.837893	0.000973	20.828539
917.243656	-2.998100	3.643700	-10.923000	24.831153	0.000974	20.798542
918.246524	-2.990600	3.642300	-10.891000	24.865691	0.000973	20.778203
919.242769	-3.002100	3.642000	-10.933000	24.861290	0.000971	20.803658
920.244863	-2.996100	3.642700	-10.913000	24.882600	0.000973	20.799441
921.244304	-3.003600	3.640300	-10.934000	24.882350	0.000972	20.802035
922.247370	-2.990900	3.640800	-10.888000	24.885482	0.000971	20.808497
923.245067	-2.988900	3.640700	-10.881000	24.850868	0.000972	20.824492
924.244954	-3.000000	3.640300	-10.920000	24.868074	0.000970	20.780595
925.244456	-3.009400	3.639400	-10.950000	24.864196	0.000971	20.805625
926.245131	-2.997800	3.641400	-10.914000	24.861210	0.000972	20.801681
927.247152	-3.010000	3.639700	-10.954000	24.849053	0.000970	20.800385
928.246411	-2.991500	3.640800	-10.890000	24.859917	0.000969	20.797064
929.245968	-2.977300	3.639800	-10.836000	24.857305	0.000969	20.799184
930.248824	-2.987100	3.640200	-10.873000	24.863818	0.000969	20.812833
931.252898	-2.975000	3.638400	-10.823000	24.858397	0.000969	20.807866
932.247589	-3.015300	3.637700	-10.968000	24.850862	0.000969	20.816900
933.248430	-2.998200	3.638500	-10.907000	24.844719	0.000967	20.805518
934.249185	-3.001000	3.638700	-10.918000	24.837981	0.000968	20.820567
935.249239	-2.997800	3.637700	-10.904000	24.815602	0.000968	20.813281
936.254339	-3.006800	3.636400	-10.932000	24.833407	0.000968	20.817873
937.250122	-3.005300	3.636500	-10.927000	24.834624	0.000967	20.818621
938.251568	-3.005000	3.636200	-10.925000	24.859612	0.000966	20.837535
939.254863	-2.997500	3.637300	-10.901000	24.863641	0.000965	20.811233
940.250532	-3.006700	3.635600	-10.930000	24.847801	0.000965	20.794387
941.251284	-3.008900	3.634800	-10.934000	24.825645	0.000965	20.824783
942.252848	-2.990900	3.636500	-10.874000	24.857176	0.000966	20.811382
943.254934	-2.971100	3.635200	-10.799000	24.879058	0.000963	20.826232
944.255529	-2.989500	3.635700	-10.869000	24.872939	0.000966	20.810608
945.258781	-3.004300	3.634800	-10.919000	24.905861	0.000964	20.820890
946.256485	-2.977000	3.635300	-10.821000	24.933386	0.000963	20.819120
947.256019	-2.991400	3.635200	-10.872000	24.961209	0.000964	20.841354
948.257315	-3.016500	3.632800	-10.958000	24.997979	0.000963	20.811881
949.258098	-3.011200	3.632800	-10.938000	25.013468	0.000962	20.830273
950.258132	-3.014100	3.631700	-10.944000	25.029605	0.000965	20.825608
951.260919	-3.020500	3.631800	-10.969000	25.016479	0.000960	20.811485
952.259636	-2.981200	3.634100	-10.832000	25.029184	0.000962	20.828031
953.258094	-3.005200	3.631700	-10.912000	24.976354	0.000961	20.802978
954.260496	-3.015900	3.631400	-10.951000	24.990773	0.000960	20.825037
955.258680	-2.976700	3.633800	-10.816000	24.982866	0.000961	20.819471
956.258184	-2.984200	3.631300	-10.835000	24.998803	0.000959	20.843528
957.260924	-3.009500	3.630900	-10.926000	25.017525	0.000959	20.829604
958.259241	-2.999800	3.631600	-10.893000	25.028264	0.000958	20.833745
959.258731	-2.994900	3.630500	-10.872000	25.027494	0.000957	20.828706
960.261285	-2.991100	3.630900	-10.860000	25.015138	0.000959	20.825312
961.257770	-2.995900	3.628400	-10.870000	25.017077	0.000958	20.816827
962.261986	-3.013000	3.630200	-10.935000	25.047482	0.000958	20.825062
963.261108	-2.995200	3.630600	-10.873000	25.069584	0.000957	20.807893
964.257437	-2.997700	3.628700	-10.877000	25.086140	0.000957	20.825461
965.257916	-2.993600	3.628900	-10.861000	25.061157	0.000955	20.810814
966.259081	-2.989600	3.630700	-10.852000	25.087733	0.000956	20.838439
967.256380	-2.988600	3.628500	-10.843000	25.072968	0.000955	20.832153
968.258544	-3.014400	3.627100	-10.932000	25.068517	0.000955	20.835745
969.265346	-2.996900	3.628600	-10.873000	25.041395	0.000954	20.839813
970.258534	-3.014200	3.627100	-10.931000	25.014096	0.000956	20.850818
971.260517	-3.002400	3.627800	-10.891000	24.983218	0.000955	20.830256
972.262051	-3.006900	3.625300	-10.900000	24.942271	0.000953	20.830407
973.260670	-3.010800	3.627300	-10.919000	24.979561	0.000951	20.843654
974.262267	-2.997600	3.626000	-10.868000	24.975336	0.000952	20.816655
975.263001	-3.023600	3.625000	-10.959000	24.979662	0.000952	20.855135
976.260638	-2.988400	3.626800	-10.836000	24.993139	0.000951	20.857756
977.259972	-2.983000	3.626700	-10.818000	24.982497	0.000953	20.839488
978.263208	-3.002500	3.625600	-10.885000	25.000573	0.000953	20.835347
979.260538	-3.012200	3.624900	-10.918000	24.972226	0.000951	20.841507
980.263490	-2.984700	3.625400	-10.820000	24.988561	0.000951	20.860274
981.263938	-3.001800	3.624700	-10.878000	24.984211	0.000951	20.845950
982.262929	-3.008800	3.625000	-10.906000	24.985352	0.000950	20.861320
983.260640	-2.996600	3.624700	-10.860000	24.996439	0.000949	20.849690
984.264944	-2.990700	3.624100	-10.837000	24.975855	0.000949	20.849891
985.261147	-2.988800	3.623700	-10.829000	24.996838	0.000950	20.849141
986.265346	-3.009400	3.624200	-10.906000	25.002108	0.000949	20.844000
987.266498	-2.981600	3.622300	-10.800000	24.976051	0.000947	20.835389
988.263989	-3.021200	3.622200	-10.942000	24.989253	0.000950	20.852433
989.264255	-2.997100	3.623100	-10.857000	25.002727	0.000949	20.846518
990.266894	-3.014400	3.621100	-10.914000	25.004666	0.000948	20.837085
991.265712	-3.009200	3.621000	-10.895000	25.027687	0.000947	20.838382
992.265898	-2.991900	3.620500	-10.831000	25.049813	0.000949	20.845893
993.268694	-3.000200	3.623300	-10.870000	25.038027	0.000948	20.835959
994.265740	-2.995300	3.620700	-10.844000	25.065300	0.000947	20.857645
995.266448	-3.000200	3.619800	-10.859000	25.087327	0.000947	20.867902
996.271104	-2.983400	3.622100	-10.805000	25.083670	0.000946	20.829620
997.268613	-2.981600	3.620300	-10.793000	25.080289	0.000945	20.834286
998.267588	-2.995400	3.620500	-10.845000	25.048690	0.000943	20.836231
999.271162	-2.980400	3.621100	-10.791000	25.037974	0.000946	20.869569
1000.268745	-3.003400	3.618500	-10.866000	24.992304	0.000944	20.864979
1001.270967	-3.021600	3.619000	-10.935000	25.004285	0.000944	20.854246
1002.270092	-3.003300	3.618800	-10.868000	25.009681	0.000943	20.878627
1003.275837	-3.006700	3.617700	-10.876000	24.985516	0.000942	20.876656
1004.270351	-2.978700	3.619500	-10.780000	25.024719	0.000943	20.865747
1005.272211	-2.984700	3.617500	-10.796000	25.037896	0.000942	20.874232
1006.280787	-2.990600	3.617600	-10.818000	25.046497	0.000940	20.860108
1007.272240	-3.005800	3.616200	-10.869000	25.067359	0.000940	20.851652
1008.272556	-3.013000	3.615100	-10.891000	25.072454	0.000939	20.863878
1009.271277	-3.007200	3.616000	-10.873000	25.054554	0.000940	20.871039
1010.273773	-3.021500	3.615800	-10.923000	25.081676	0.000939	20.871712
1011.273222	-3.001200	3.615500	-10.850000	25.097490	0.000940	20.857716
1012.277102	-3.035900	3.614200	-10.970000	25.095448	0.000939	20.887907
1013.273671	-2.982000	3.615600	-10.781000	25.131644	0.000939	20.898163
1014.275001	-3.002900	3.614400	-10.854000	25.091746	0.000938	20.874708
1015.273967	-3.005700	3.613800	-10.861000	25.058407	0.000938	20.882493
1016.275348	-3.002800	3.614000	-10.851000	25.057813	0.000938	20.872414
1017.275029	-3.010500	3.613000	-10.875000	25.049286	0.000936	20.880923
1018.275257	-3.011100	3.612500	-10.876000	25.060026	0.000935	20.896445
1019.276439	-3.011300	3.614000	-10.882000	25.067586	0.000934	20.868948
1020.276659	-2.994800	3.612500	-10.816000	25.098113	0.000934	20.883944
1021.278066	-2.992500	3.613500	-10.812000	25.126776	0.000933	20.882372
1022.276499	-2.993300	3.613900	-10.816000	25.115766	0.000935	20.890285
1023.277289	-2.980900	3.613000	-10.768000	25.120440	0.000934	20.895925
1024.279339	-2.996600	3.612600	-10.825000	25.133244	0.000933	20.885546
1025.276725	-2.989500	3.610800	-10.793000	25.126530	0.000933	20.875014
1026.278178	-3.000400	3.610300	-10.832000	25.132200	0.000933	20.890662
1027.279637	-2.988900	3.611400	-10.792000	25.104358	0.000931	20.874566
1028.276245	-3.004700	3.610600	-10.847000	25.088075	0.000932	20.886670
1029.278506	-3.011800	3.609800	-10.871000	25.104236	0.000931	20.889142
1030.279188	-3.019300	3.609600	-10.898000	25.106773	0.000930	20.875094
1031.279409	-3.018200	3.609200	-10.892000	25.123329	0.000930	20.892187
1032.281883	-3.022800	3.610500	-10.913000	25.135411	0.000931	20.881558
1033.280194	-2.996100	3.608800	-10.812000	25.147071	0.000929	20.860547
1034.279503	-2.984100	3.610000	-10.772000	25.161118	0.000928	20.883657
1035.279861	-3.002500	3.608700	-10.835000	25.194800	0.000927	20.870531
1036.280552	-3.009900	3.608900	-10.862000	25.207379	0.000928	20.912553
1037.279558	-2.992400	3.607500	-10.793000	25.213444	0.000928	20.902996
1038.280802	-3.002700	3.608800	-10.835000	25.196169	0.000926	20.907464
1039.280750	-3.016300	3.606400	-10.877000	25.193808	0.000928	20.893241
1040.283836	-3.017900	3.607000	-10.885000	25.221174	0.000927	20.889421
1041.281916	-3.004200	3.607600	-10.837000	25.238751	0.000926	20.886205
1042.282629	-3.015300	3.606300	-10.872000	25.256772	0.000926	20.886754
1043.282571	-3.005200	3.605500	-10.834000	25.268430	0.000925	20.901776
1044.282711	-2.998300	3.606400	-10.812000	25.311751	0.000925	20.889323
1045.281178	-3.020100	3.604300	-10.884000	25.287666	0.000924	20.898806
1046.280991	-3.003000	3.606200	-10.829000	25.280657	0.000925	20.900303
1047.282958	-2.994500	3.605600	-10.795000	25.271162	0.000925	20.878918
1048.283168	-2.982900	3.605600	-10.753000	25.285753	0.000923	20.913478
1049.284610	-3.004200	3.604900	-10.829000	25.314883	0.000923	20.926130
1050.284909	-2.994600	3.602600	-10.788000	25.325221	0.000923	20.898580
1051.285319	-3.022400	3.602500	-10.887000	25.318509	0.000923	20.895634
1052.284993	-3.025100	3.603300	-10.899000	25.273596	0.000920	20.908385
1053.285454	-2.980400	3.604200	-10.741000	25.231564	0.000922	20.906015
1054.283752	-3.015700	3.602700	-10.864000	25.214983	0.000920	20.885102
1055.286405	-2.985600	3.602400	-10.754000	25.243295	0.000920	20.880810
1056.289202	-2.991300	3.601800	-10.773000	25.243915	0.000923	20.882856
1057.285965	-2.999000	3.602600	-10.803000	25.241478	0.000919	20.903640
1058.292684	-2.983700	3.601200	-10.744000	25.272051	0.000920	20.900197
1059.286762	-3.027700	3.601500	-10.901000	25.263974	0.000919	20.906785
1060.287063	-3.006700	3.601500	-10.827000	25.238073	0.000917	20.906860
1061.288248	-2.980700	3.601500	-10.734000	25.206304	0.000918	20.901044
1062.287083	-3.008900	3.600600	-10.833000	25.205758	0.000918	20.894806
1063.286704	-2.997100	3.599800	-10.787000	25.207399	0.000916	20.888394
1064.287643	-2.997200	3.600800	-10.791000	25.183113	0.000916	20.912373
1065.288064	-3.008500	3.600700	-10.831000	25.148185	0.000918	20.890587
1066.288733	-3.005400	3.600000	-10.819000	25.123577	0.000916	20.891962
1067.288606	-3.003200	3.597300	-10.801000	25.121910	0.000917	20.900245
1068.287688	-3.002000	3.599200	-10.803000	25.096503	0.000914	20.878061
1069.289517	-2.990900	3.599600	-10.765000	25.093197	0.000914	20.896552
1070.289048	-3.012800	3.598500	-10.840000	25.088795	0.000916	20.872221
1071.290085	-3.009400	3.598600	-10.829000	25.131157	0.000914	20.868753
1072.293849	-2.999400	3.597700	-10.790000	25.128372	0.000915	20.884922
1073.298127	-3.012200	3.597100	-10.834000	25.164369	0.000915	20.881705
1074.292905	-3.010600	3.595900	-10.824000	25.216342	0.000915	20.891208
1075.290312	-3.001900	3.596400	-10.795000	25.214950	0.000911	20.877958
1076.292161	-3.006300	3.596800	-10.812000	25.190740	0.000912	20.865506
1077.290613	-3.000300	3.596000	-10.788000	25.196407	0.000913	20.880204
1078.293526	-2.980200	3.597400	-10.718000	25.184276	0.000912	20.895051
1079.295500	-3.000500	3.595000	-10.785000	25.209334	0.000911	20.869001
1080.294077	-2.998900	3.595300	-10.781000	25.222059	0.000911	20.888887
1081.293705	-3.002300	3.594800	-10.792000	25.224819	0.000910	20.871270
1082.293663	-2.997300	3.595600	-10.775000	25.228548	0.000910	20.874540
1083.293655	-3.026100	3.594000	-10.875000	25.278258	0.000908	20.869921
1084.297111	-3.005900	3.592800	-10.799000	25.211121	0.000907	20.858467
1085.295932	-2.974800	3.594400	-10.692000	25.197078	0.000906	20.863335
1086.297046	-2.994400	3.593600	-10.760000	25.160040	0.000907	20.864558
1087.299594	-3.006200	3.594200	-10.804000	25.153974	0.000905	20.857995
1088.296878	-2.995700	3.594500	-10.767000	25.171276	0.000906	20.869200
1089.300533	-3.002600	3.593100	-10.788000	25.183507	0.000905	20.852082
1090.299840	-2.996000	3.591800	-10.760000	25.239884	0.000904	20.863163
1091.300993	-2.985700	3.592100	-10.724000	25.214455	0.000903	20.863237
1092.302268	-3.014700	3.591100	-10.825000	25.211498	0.000904	20.854579
1093.303343	-3.001700	3.592000	-10.780000	25.227978	0.000903	20.855951
1094.303250	-3.010300	3.590800	-10.809000	25.266333	0.000903	20.868380
1095.301785	-2.996000	3.590700	-10.757000	25.268020	0.000905	20.864858
1096.302824	-3.001300	3.590400	-10.775000	25.303167	0.000902	20.851783
1097.302368	-3.003000	3.590300	-10.780000	25.321064	0.000904	20.854580
1098.304491	-2.983100	3.591600	-10.713000	25.308188	0.000901	20.870575
1099.304786	-3.006000	3.591600	-10.796000	25.338684	0.000901	20.855202
1100.303033	-3.006400	3.590000	-10.792000	25.308211	0.000901	20.863960
1101.303487	-2.987200	3.590200	-10.723000	25.263248	0.000901	20.855326
1102.305108	-2.995700	3.587200	-10.744000	25.228349	0.000900	20.867703
1103.306148	-3.005300	3.587300	-10.780000	25.210650	0.000901	20.847564
1104.307538	-3.002500	3.588600	-10.774000	25.202399	0.000900	20.844970
1105.305027	-3.005000	3.587800	-10.779000	25.233644	0.000899	20.852630
1106.304048	-3.000500	3.588200	-10.765000	25.262526	0.000898	20.857446
1107.305799	-2.993200	3.588700	-10.741000	25.271025	0.000896	20.854600
1108.305782	-3.007200	3.586300	-10.784000	25.279078	0.000898	20.844194
1109.305717	-3.029300	3.586700	-10.863000	25.261532	0.000898	20.827526
1110.306291	-3.019500	3.584800	-10.823000	25.231181	0.000897	20.848262
1111.305680	-3.011200	3.585900	-10.797000	25.222257	0.000897	20.866329
1112.304675	-3.022700	3.585500	-10.837000	25.246119	0.000896	20.849983
1113.307186	-3.029100	3.583700	-10.855000	25.258474	0.000895	20.847214
1114.307641	-2.975300	3.585800	-10.667000	25.289418	0.000894	20.854575
1115.306020	-2.976700	3.585200	-10.671000	25.269408	0.000896	20.841123
1116.308279	-2.995100	3.584200	-10.734000	25.265109	0.000894	20.853875
1117.307790	-3.000900	3.584700	-10.755000	25.243757	0.000896	20.850931
1118.312983	-2.992100	3.583200	-10.720000	25.218974	0.000894	20.846438
1119.308559	-3.017700	3.583100	-10.811000	25.212585	0.000894	20.850455
1120.308457	-3.009900	3.583500	-10.785000	25.206124	0.000894	20.839701
1121.308620	-2.979800	3.584500	-10.680000	25.195731	0.000894	20.856768
1122.311106	-3.002100	3.582200	-10.753000	25.198590	0.000892	20.838775
1123.309011	-2.986200	3.582600	-10.698000	25.166719	0.000892	20.844712
1124.312316	-3.000200	3.581900	-10.746000	25.160358	0.000892	20.834059
1125.310483	-3.000500	3.582400	-10.749000	25.172387	0.000893	20.827643
1126.312146	-2.985700	3.581900	-10.693000	25.195878	0.000890	20.821829
1127.310682	-3.013900	3.580600	-10.791000	25.204503	0.000890	20.830488
1128.311684	-2.990800	3.582100	-10.712000	25.222873	0.000891	20.836602
1129.312280	-2.988000	3.581100	-10.699000	25.256379	0.000888	20.838948
1130.312918	-2.990100	3.580600	-10.705000	25.263164	0.000888	20.841018
1131.314145	-3.001500	3.579900	-10.744000	25.298582	0.000887	20.838646
1132.313625	-2.999300	3.579400	-10.734000	25.334546	0.000885	20.839668
1133.312848	-2.994800	3.580800	-10.723000	25.342054	0.000887	20.833931
1134.313660	-3.013500	3.578400	-10.782000	25.295899	0.000885	20.826469
1135.314113	-3.007500	3.578700	-10.762000	25.243203	0.000884	20.846107
1136.317116	-2.999100	3.578500	-10.731000	25.220210	0.000886	20.824920
1137.314704	-2.997500	3.579100	-10.727000	25.219938	0.000884	20.825595
1138.315177	-3.001500	3.577000	-10.735000	25.205945	0.000881	20.830038
1139.314941	-2.975300	3.578100	-10.645000	25.211538	0.000882	20.837550
1140.315266	-3.012800	3.576800	-10.775000	25.258244	0.000883	20.833233
1141.314696	-2.997600	3.576600	-10.720000	25.262890	0.000882	20.827941
1142.315647	-2.989700	3.576600	-10.692000	25.277035	0.000882	20.832185
1143.316824	-3.003700	3.575500	-10.738000	25.300671	0.000880	20.841691
1144.318678	-3.012100	3.575100	-10.768000	25.283098	0.000880	20.830686
1145.317646	-3.021700	3.574700	-10.801000	25.298831	0.000880	20.829887
1146.316741	-2.997500	3.576700	-10.719000	25.282674	0.000880	20.840217
1147.317047	-2.987900	3.574200	-10.678000	25.304822	0.000878	20.827368
1148.317410	-3.016900	3.574800	-10.783000	25.336336	0.000880	20.812543
1149.320045	-2.996400	3.573700	-10.708000	25.349385	0.000881	20.830386
1150.318447	-2.998600	3.573600	-10.714000	25.342028	0.000877	20.820628
1151.320703	-2.994100	3.574900	-10.703000	25.356168	0.000878	20.818705
1152.319359	-2.993300	3.573400	-10.695000	25.325151	0.000879	20.803209
1153.317639	-3.000100	3.573400	-10.718000	25.340710	0.000876	20.807926
1154.318552	-3.013700	3.571400	-10.762000	25.349534	0.000874	20.819630
1155.319682	-3.004400	3.572300	-10.731000	25.353559	0.000876	20.826991
1156.321042	-2.995900	3.571800	-10.699000	25.345779	0.000876	20.812541
1157.320824	-2.993500	3.571300	-10.689000	25.312052	0.000874	20.821825
1158.321137	-3.018700	3.570200	-10.776000	25.321994	0.000873	20.819953
1159.319130	-3.001900	3.570000	-10.714000	25.330593	0.000873	20.790655
1160.320870	-2.992000	3.572100	-10.686000	25.352240	0.000871	20.810968
1161.320777	-3.006100	3.568800	-10.727000	25.329026	0.000870	20.824169
1162.320571	-3.012500	3.569500	-10.751000	25.352165	0.000872	20.825591
1163.320227	-3.008700	3.570600	-10.742000	25.300941	0.000871	20.810669
1164.320797	-2.996500	3.569400	-10.694000	25.313442	0.000870	20.816583
1165.320867	-3.016200	3.569400	-10.765000	25.282201	0.000871	20.801811
1166.321839	-3.022000	3.567600	-10.780000	25.279019	0.000870	20.827065
1167.323807	-2.990000	3.568100	-10.668000	25.312623	0.000868	20.818605
1168.320403	-2.995200	3.567400	-10.683000	25.293459	0.000868	20.811692
1169.323621	-2.991800	3.568100	-10.674000	25.311033	0.000867	20.802785
1170.325407	-2.989100	3.567700	-10.663000	25.336062	0.000867	20.788086
1171.323363	-2.984300	3.568400	-10.648000	25.339318	0.000866	20.785191
1172.327282	-3.004000	3.567000	-10.715000	25.352565	0.000866	20.810346
1173.325008	-2.992000	3.568000	-10.674000	25.392481	0.000868	20.807278
1174.326222	-3.025400	3.565500	-10.786000	25.412612	0.000867	20.816112
1175.326080	-2.981000	3.567700	-10.634000	25.439851	0.000866	20.815489
1176.326194	-2.988500	3.566800	-10.659000	25.454761	0.000865	20.807228
1177.326063	-3.020400	3.565200	-10.767000	25.449295	0.000864	20.792256
1178.325670	-2.996600	3.564200	-10.679000	25.458637	0.000864	20.810172
1179.328105	-2.985700	3.565300	-10.644000	25.477974	0.000863	20.807778
1180.327381	-2.990600	3.565100	-10.661000	25.486126	0.000863	20.787516
1181.328078	-2.994200	3.564700	-10.672000	25.503944	0.000863	20.801616
1182.327421	-2.982400	3.564700	-10.630000	25.527402	0.000861	20.807155
1183.328112	-3.019100	3.563300	-10.757000	25.515598	0.000863	20.812371
1184.329533	-3.010700	3.563300	-10.727000	25.525313	0.000862	20.797946
1185.328099	-3.017100	3.562400	-10.748000	25.551331	0.000860	20.791831
1186.327599	-3.004600	3.562700	-10.702000	25.538882	0.000859	20.806830
1187.328499	-2.993700	3.563200	-10.665000	25.562538	0.000859	20.788862
1188.328560	-3.013000	3.560300	-10.726000	25.541638	0.000857	20.800590
1189.330616	-3.001400	3.561600	-10.689000	25.578937	0.000859	20.797271
1190.329410	-2.980400	3.563100	-10.617000	25.570936	0.000858	20.793976
1191.330111	-3.001300	3.562300	-10.691000	25.539478	0.000857	20.808377
1192.330144	-3.004500	3.560100	-10.696000	25.517658	0.000856	20.798793
1193.330188	-2.991300	3.560400	-10.649000	25.508638	0.000857	20.790208
1194.329922	-2.988000	3.560200	-10.636000	25.494176	0.000855	20.827842
1195.329883	-3.028500	3.558500	-10.776000	25.474792	0.000855	20.805532
1196.330759	-3.023200	3.559700	-10.761000	25.425834	0.000855	20.786241
1197.329366	-2.995000	3.560100	-10.662000	25.386963	0.000855	20.796995
1198.330463	-2.987000	3.560100	-10.633000	25.387981	0.000855	20.797544
1199.331049	-3.005700	3.559000	-10.697000	25.333080	0.000855	20.770393
1200.331987	-2.993900	3.557700	-10.651000	25.355574	0.000853	20.787289
1201.331602	-2.997100	3.556700	-10.658000	25.346946	0.000850	20.789057
1202.332114	-2.999900	3.558100	-10.673000	25.322365	0.000852	20.802309
1203.332379	-3.006200	3.557500	-10.693000	25.303973	0.000852	20.786212
1204.331990	-2.996100	3.556400	-10.654000	25.271237	0.000853	20.784165
1205.335882	-3.013800	3.555700	-10.716000	25.246778	0.000850	20.783316
1206.331119	-2.985100	3.557600	-10.619000	25.306132	0.000848	20.790751
1207.332154	-2.999200	3.555700	-10.664000	25.292462	0.000849	20.774180
1208.331302	-3.010100	3.555800	-10.703000	25.330639	0.000849	20.786434
1209.332257	-3.011800	3.555500	-10.708000	25.331012	0.000847	20.787757
1210.333488	-3.041800	3.554100	-10.809000	25.390461	0.000846	20.782490
1211.332575	-3.003400	3.555700	-10.678000	25.400901	0.000849	20.773532
1212.331089	-3.007200	3.554000	-10.687000	25.399756	0.000846	20.785186
1213.337752	-2.994300	3.554500	-10.641000	25.386611	0.000845	20.790004
1214.333509	-2.979500	3.554800	-10.590000	25.369186	0.000843	20.786258
1215.332469	-2.991000	3.553500	-10.628000	25.359942	0.000846	20.793097
1216.336314	-2.989100	3.553600	-10.621000	25.360365	0.000843	20.783090
1217.339790	-2.994300	3.554200	-10.641000	25.375552	0.000842	20.795020
1218.336120	-2.981400	3.552800	-10.591000	25.376645	0.000844	20.786161
1219.334638	-2.992200	3.552400	-10.628000	25.423317	0.000843	20.769963
1220.335883	-2.969500	3.553000	-10.550000	25.380744	0.000842	20.776052
1221.337151	-3.026300	3.550000	-10.742000	25.408854	0.000840	20.784363
1222.336231	-3.008400	3.551500	-10.683000	25.440043	0.000841	20.765422
1223.337342	-3.027100	3.549700	-10.744000	25.453539	0.000841	20.787034
1224.335002	-2.996700	3.550200	-10.638000	25.470861	0.000840	20.774557
1225.336429	-3.018600	3.549300	-10.713000	25.453761	0.000839	20.768766
1226.351434	-2.990400	3.549800	-10.614000	25.484851	0.000840	20.752095
1227.338884	-2.992000	3.550000	-10.621000	25.459205	0.000839	20.761430
1228.338849	-2.999200	3.549400	-10.645000	25.478065	0.000836	20.789378
1229.340225	-2.991200	3.549900	-10.618000	25.472698	0.000837	20.771186
1230.340167	-3.003200	3.547500	-10.653000	25.503613	0.000836	20.769515
1231.343817	-3.018700	3.547200	-10.706000	25.486317	0.000836	20.772060
1232.339922	-3.008100	3.549100	-10.674000	25.489970	0.000836	20.761504
1233.343093	-3.018000	3.547900	-10.705000	25.467504	0.000838	20.772135
1234.347789	-2.980800	3.548600	-10.577000	25.455675	0.000837	20.752195
1235.340338	-3.006800	3.547200	-10.665000	25.449163	0.000837	20.796391
1236.340408	-3.016200	3.546500	-10.695000	25.471603	0.000834	20.770561
1237.340377	-2.997600	3.546200	-10.628000	25.465018	0.000832	20.771534
1238.341087	-2.999200	3.546900	-10.638000	25.442751	0.000835	20.760080
1239.339377	-3.028900	3.544300	-10.733000	25.420034	0.000831	20.761451
1240.342422	-2.974500	3.547000	-10.549000	25.394436	0.000834	20.755661
1241.341489	-3.011000	3.544700	-10.672000	25.380693	0.000831	20.776949
1242.340705	-2.993500	3.545800	-10.614000	25.382283	0.000830	20.777123
1243.342112	-2.989400	3.544500	-10.595000	25.423860	0.000830	20.754386
1244.341617	-2.982000	3.545600	-10.572000	25.447543	0.000828	20.773427
1245.340608	-3.009600	3.543500	-10.664000	25.461410	0.000829	20.762221
1246.342045	-2.967800	3.544400	-10.518000	25.454278	0.000830	20.742256
1247.340461	-3.012400	3.543500	-10.673000	25.430594	0.000830	20.758778
1248.341082	-2.994700	3.544400	-10.614000	25.395577	0.000827	20.756332
1249.344111	-3.011700	3.543300	-10.669000	25.385162	0.000826	20.753935
1250.341370	-3.009000	3.541200	-10.654000	25.334708	0.000828	20.767760
1251.340582	-3.016500	3.541800	-10.682000	25.312810	0.000825	20.738660
1252.342093	-3.026400	3.540700	-10.713000	25.311967	0.000825	20.773376
1253.343906	-3.000600	3.541200	-10.625000	25.346240	0.000824	20.763692
1254.344513	-2.992100	3.541300	-10.595000	25.375843	0.000825	20.743155
1255.347181	-3.002700	3.540500	-10.630000	25.390430	0.000824	20.766338
1256.343703	-3.007100	3.539800	-10.643000	25.379669	0.000825	20.755531
1257.342766	-3.010300	3.540300	-10.657000	25.348180	0.000823	20.763269
1258.347501	-3.004900	3.538700	-10.633000	25.335580	0.000822	20.758204
1259.342974	-2.997900	3.538800	-10.607000	25.345372	0.000822	20.736266
1260.343713	-3.016000	3.537000	-10.665000	25.360136	0.000820	20.732125
1261.348411	-2.989100	3.537100	-10.572000	25.368960	0.000819	20.761848
1262.347968	-2.962200	3.538400	-10.481000	25.407807	0.000823	20.756285
1263.347353	-3.005500	3.539000	-10.636000	25.404103	0.000819	20.747350
1264.353449	-3.006600	3.537700	-10.635000	25.438326	0.000818	20.753740
1265.351054	-2.998800	3.536800	-10.604000	25.427515	0.000818	20.733874
1266.348803	-2.937000	3.540300	-10.396000	25.449710	0.000819	20.747627
1267.349750	-2.988400	3.537900	-10.571000	25.471727	0.000817	20.754090
1268.349757	-2.998800	3.536500	-10.604000	25.510819	0.000817	20.754466
1269.350637	-3.015400	3.535700	-10.659000	25.530425	0.000815	20.759931
1270.353651	-2.985300	3.535700	-10.554000	25.555698	0.000816	20.759707
1271.349174	-2.999200	3.534400	-10.599000	25.590811	0.000815	20.754193
1272.347592	-3.011400	3.534100	-10.641000	25.574857	0.000815	20.762353
1273.361499	-3.005600	3.534600	-10.623000	25.554259	0.000814	20.756365
1274.353365	-3.000600	3.533900	-10.603000	25.541785	0.000814	20.754743
1275.351571	-2.991900	3.533300	-10.570000	25.517209	0.000814	20.746183
1276.353923	-2.983200	3.535100	-10.545000	25.487215	0.000813	20.761108
1277.358271	-2.999500	3.533300	-10.597000	25.475262	0.000813	20.753372
1278.350373	-2.962100	3.534900	-10.469000	25.465768	0.000813	20.751898
1279.354909	-3.018600	3.531500	-10.659000	25.478147	0.000811	20.780451
1280.355156	-3.015200	3.532000	-10.649000	25.479413	0.000812	20.775559
1281.352122	-3.013400	3.531700	-10.641000	25.449218	0.000811	20.762781
1282.360143	-2.993900	3.532400	-10.575000	25.422802	0.000810	20.746212
1283.356249	-2.991800	3.532400	-10.567000	25.414031	0.000810	20.751154
1284.354569	-2.990200	3.532200	-10.561000	25.441292	0.000808	20.753399
1285.358084	-3.001900	3.531900	-10.600000	25.479316	0.000809	20.757443
1286.357334	-3.009900	3.530800	-10.625000	25.494947	0.000809	20.739000
1287.353866	-3.016700	3.529700	-10.646000	25.434186	0.000810	20.746264
1288.353280	-3.015000	3.529000	-10.638000	25.459138	0.000808	20.751879
1289.354309	-3.007500	3.529200	-10.613000	25.454713	0.000807	20.745539
1290.356109	-2.994200	3.528800	-10.564000	25.486176	0.000807	20.759116
1291.355771	-3.000100	3.530200	-10.589000	25.499619	0.000806	20.772616
1292.354787	-2.980100	3.529400	-10.516000	25.522532	0.000806	20.761013
1293.356509	-2.991900	3.527800	-10.552000	25.532098	0.000805	20.747386
1294.358510	-2.994800	3.527300	-10.563000	25.512716	0.000803	20.762060
1295.357427	-2.994300	3.527100	-10.560000	25.549195	0.000803	20.774987
1296.359082	-3.024000	3.527300	-10.664000	25.515200	0.000804	20.761236
1297.360830	-3.000000	3.527000	-10.580000	25.511522	0.000803	20.758965
1298.359003	-2.985300	3.528300	-10.532000	25.481303	0.000804	20.758965
1299.361761	-2.969000	3.527600	-10.472000	25.486596	0.000800	20.751952
1300.359957	-2.997900	3.525900	-10.570000	25.499396	0.000801	20.768599
1301.358869	-2.995300	3.525700	-10.560000	25.481105	0.000801	20.785793
1302.358960	-2.990800	3.525500	-10.543000	25.492734	0.000802	20.755745
1303.358984	-2.996600	3.525000	-10.561000	25.520194	0.000800	20.769096
1304.360694	-3.008900	3.524600	-10.604000	25.514926	0.000801	20.776134
1305.359271	-2.998800	3.524500	-10.568000	25.545838	0.000799	20.768771
1306.358343	-2.993800	3.524200	-10.549000	25.538509	0.000800	20.759039
1307.359301	-2.988700	3.525100	-10.534000	25.521487	0.000799	20.750480
1308.359744	-3.022700	3.523200	-10.647000	25.537043	0.000797	20.769421
1309.358501	-2.999000	3.522400	-10.563000	25.530631	0.000796	20.787638
1310.359879	-3.017300	3.520400	-10.620000	25.500289	0.000798	20.759064
1311.358322	-3.003100	3.522500	-10.577000	25.500139	0.000797	20.775983
1312.358737	-3.014900	3.521300	-10.614000	25.480852	0.000796	20.764676
1313.360060	-3.004500	3.520900	-10.577000	25.500959	0.000797	20.782497
1314.359096	-2.992100	3.520500	-10.531000	25.521559	0.000795	20.774735
1315.362507	-2.996400	3.520900	-10.548000	25.551279	0.000795	20.765227
1316.360656	-2.974700	3.520100	-10.470000	25.576523	0.000795	20.778251
1317.364390	-3.015000	3.519700	-10.611000	25.606889	0.000793	20.766548
1318.361450	-3.027400	3.519400	-10.653000	25.544024	0.000792	20.766475
1319.366089	-2.987500	3.520200	-10.515000	25.517780	0.000794	20.771888
1320.367052	-2.990700	3.521200	-10.530000	25.475360	0.000793	20.788558
1321.362415	-3.003200	3.519100	-10.567000	25.444495	0.000791	20.762305
1322.368268	-3.014800	3.518500	-10.607000	25.454982	0.000792	20.762879
1323.369102	-3.011100	3.517900	-10.592000	25.417032	0.000789	20.778350
1324.363956	-2.997100	3.517700	-10.543000	25.436913	0.000791	20.765123
1325.367463	-2.982000	3.517600	-10.488000	25.446410	0.000789	20.770393
1326.375570	-3.019300	3.516800	-10.616000	25.455081	0.000788	20.763452
1327.364178	-3.007300	3.516800	-10.575000	25.447353	0.000788	20.777029
1328.366455	-2.999800	3.517300	-10.551000	25.458213	0.000787	20.785090
1329.367137	-3.021600	3.516100	-10.623000	25.485347	0.000789	20.787208
1330.364373	-3.037200	3.514500	-10.672000	25.506920	0.000788	20.777104
1331.368759	-2.990300	3.514900	-10.509000	25.517133	0.000787	20.769815
1332.370147	-2.989000	3.515200	-10.506000	25.559030	0.000785	20.763527
1333.366979	-3.003300	3.515900	-10.559000	25.564571	0.000784	20.760558
1334.372139	-3.009300	3.514200	-10.574000	25.595555	0.000785	20.768915
1335.370327	-3.018700	3.514000	-10.607000	25.609347	0.000784	20.802207
1336.365356	-3.026400	3.512400	-10.629000	25.616703	0.000784	20.783516
1337.369602	-3.007000	3.512300	-10.560000	25.630815	0.000783	20.790103
1338.370009	-2.981000	3.514500	-10.476000	25.653972	0.000781	20.787757
1339.367341	-2.985900	3.512700	-10.488000	25.596649	0.000784	20.791351
1340.371373	-2.999200	3.512600	-10.533000	25.574134	0.000783	20.798611
1341.371714	-3.003100	3.511900	-10.546000	25.589691	0.000781	20.788631
1342.371582	-3.001900	3.512400	-10.543000	25.582113	0.000780	20.785287
1343.374259	-2.992300	3.510400	-10.503000	25.585020	0.000779	20.775878
1344.375120	-3.002800	3.511900	-10.544000	25.587852	0.000779	20.801009
1345.376287	-3.007800	3.509800	-10.556000	25.639861	0.000779	20.796818
1346.373207	-2.988400	3.512000	-10.494000	25.622267	0.000779	20.785312
1347.377260	-2.987800	3.509300	-10.484000	25.656258	0.000779	20.791476
1348.369861	-3.001200	3.508800	-10.529000	25.678620	0.000776	20.785012
1349.373298	-2.972500	3.510500	-10.433000	25.675317	0.000776	20.792126
1350.377834	-2.971700	3.509900	-10.430000	25.714351	0.000778	20.795770
1351.370603	-3.007200	3.509300	-10.551000	25.704810	0.000774	20.803257
1352.372833	-2.969800	3.509400	-10.421000	25.709605	0.000776	20.785314
1353.372766	-2.982600	3.508100	-10.462000	25.699570	0.000775	20.775708
1354.375248	-2.985400	3.508800	-10.474000	25.628010	0.000774	20.796770
1355.371767	-2.986600	3.507800	-10.474000	25.564025	0.000775	20.803632
1356.374103	-3.013300	3.506000	-10.563000	25.524514	0.000772	20.798091
1357.373835	-3.007100	3.507400	-10.545000	25.512089	0.000773	20.772811
1358.377323	-3.021500	3.505200	-10.591000	25.478345	0.000773	20.806255
1359.372828	-3.031000	3.503400	-10.617000	25.483240	0.000773	20.794101
1360.372740	-3.015400	3.505200	-10.568000	25.492984	0.000773	20.785868
1361.375299	-2.985800	3.504200	-10.461000	25.484312	0.000770	20.783797
1362.374778	-3.006100	3.503000	-10.529000	25.518231	0.000771	20.792730
1363.372765	-2.984000	3.504500	-10.456000	25.553493	0.000770	20.784994
1364.375258	-2.992000	3.504100	-10.483000	25.586369	0.000769	20.791458
1365.374062	-2.988200	3.505400	-10.473000	25.606398	0.000767	20.811099
1366.373163	-3.006300	3.503100	-10.530000	25.626701	0.000767	20.788816
1367.375426	-2.993000	3.503300	-10.484000	25.634576	0.000770	20.791036
1368.372572	-3.025200	3.500800	-10.590000	25.659921	0.000767	20.805585
1369.373955	-3.004300	3.502000	-10.520000	25.685116	0.000768	20.795330
1370.374573	-2.995800	3.501900	-10.489000	25.694209	0.000770	20.789290
1371.377015	-2.987500	3.503000	-10.465000	25.711550	0.000767	20.783474
1372.379090	-2.993100	3.502200	-10.481000	25.651872	0.000765	20.799873
1373.375662	-3.009600	3.500100	-10.533000	25.669985	0.000766	20.799098
1374.377023	-3.012700	3.501300	-10.547000	25.646430	0.000763	20.801993
1375.376328	-2.999800	3.499500	-10.496000	25.653113	0.000765	20.778834
1376.376774	-2.998300	3.499100	-10.490000	25.632069	0.000764	20.808432
1377.379019	-2.970100	3.501300	-10.398000	25.634580	0.000763	20.802419
1378.377432	-2.989400	3.497900	-10.454000	25.600437	0.000762	20.808906
1379.377432	-2.999900	3.499000	-10.496000	25.579565	0.000762	20.810704
1380.377587	-3.002300	3.498700	-10.503000	25.587468	0.000759	20.795881
1381.378634	-3.001500	3.498500	-10.499000	25.586599	0.000760	20.789793
1382.378242	-2.970700	3.498600	-10.391000	25.592364	0.000759	20.801746
1383.381614	-3.012400	3.496900	-10.533000	25.586499	0.000759	20.815770
1384.379761	-2.996100	3.496400	-10.472000	25.546293	0.000760	20.813799
1385.379699	-2.997700	3.497500	-10.483000	25.522263	0.000760	20.789193
1386.382086	-2.998300	3.495900	-10.481000	25.537223	0.000758	20.804691
1387.380820	-2.981700	3.496100	-10.423000	25.561801	0.000759	20.790019
1388.382565	-3.000800	3.494500	-10.486000	25.599545	0.000759	20.797104
1389.383459	-3.004600	3.494500	-10.499000	25.606503	0.000758	20.829222
1390.382523	-3.014500	3.493400	-10.529000	25.627525	0.000756	20.801972
1391.387315	-2.986700	3.495400	-10.439000	25.665416	0.000757	20.800200
1392.386031	-3.011900	3.492600	-10.518000	25.676623	0.000757	20.820464
1393.383877	-2.999500	3.493400	-10.478000	25.693768	0.000757	20.800226
1394.385881	-3.014700	3.493200	-10.529000	25.705099	0.000755	20.801177
1395.386572	-3.002300	3.492800	-10.485000	25.690391	0.000755	20.824335
1396.390695	-2.984600	3.492900	-10.424000	25.717944	0.000755	20.817871
1397.388839	-2.984800	3.493600	-10.427000	25.717944	0.000753	20.803173
1398.389309	-3.011400	3.493000	-10.518000	25.703188	0.000752	20.811111
1399.395430	-2.999000	3.492800	-10.474000	25.703015	0.000752	20.818049
1400.391659	-3.007700	3.490400	-10.497000	25.706270	0.000753	20.807094
1401.396470	-2.982200	3.493000	-10.416000	25.694295	0.000751	20.805023
1402.390612	-3.009000	3.489200	-10.498000	25.714272	0.000752	20.819873
1403.393702	-3.004100	3.490200	-10.484000	25.721951	0.000752	20.810516
1404.393029	-3.001500	3.489600	-10.473000	25.703440	0.000751	20.827484
1405.391669	-3.000700	3.490100	-10.472000	25.737677	0.000751	20.848596
1406.394205	-3.026000	3.487800	-10.554000	25.712660	0.000749	20.811615
1407.393609	-2.985700	3.489400	-10.416000	25.722349	0.000750	20.832252
1408.391618	-3.000500	3.488900	-10.467000	25.720636	0.000749	20.830057
1409.393698	-2.998600	3.486600	-10.452000	25.716585	0.000748	20.825515
1410.394381	-2.996600	3.488000	-10.451000	25.755789	0.000749	20.836443
1411.393274	-2.985700	3.486000	-10.407000	25.770572	0.000747	20.828534
1412.393842	-3.029200	3.484500	-10.554000	25.803168	0.000749	20.821920
1413.394735	-3.012400	3.486200	-10.500000	25.768561	0.000746	20.825564
1414.393743	-3.026600	3.484800	-10.546000	25.723145	0.000746	20.832577
1415.399629	-2.976700	3.486400	-10.377000	25.738174	0.000746	20.829656
1416.396263	-2.993400	3.487800	-10.439000	25.756112	0.000747	20.817802
1417.394635	-3.004100	3.485200	-10.469000	25.757726	0.000745	20.830803
1418.397774	-3.012300	3.483800	-10.493000	25.710372	0.000743	20.816904
1419.397999	-2.998700	3.483900	-10.445000	25.675787	0.000745	20.841435
1420.402795	-2.992500	3.483400	-10.423000	25.650764	0.000742	20.845700
1421.396488	-3.018900	3.482800	-10.514000	25.611134	0.000744	20.839563
1422.402746	-2.999100	3.483100	-10.445000	25.629025	0.000742	20.845677
1423.401653	-3.005000	3.481200	-10.460000	25.642839	0.000742	20.837741
1424.398077	-2.988300	3.481800	-10.404000	25.624504	0.000741	20.834499
1425.399467	-3.009600	3.479500	-10.470000	25.660410	0.000740	20.839267
1426.398161	-3.006800	3.481100	-10.465000	25.702151	0.000740	20.857957
1427.397948	-3.006700	3.481500	-10.466000	25.690522	0.000740	20.853389
1428.398432	-2.982800	3.481000	-10.382000	25.760985	0.000739	20.819852
1429.398991	-3.004400	3.479600	-10.453000	25.757283	0.000741	20.833676
1430.407683	-3.014700	3.479200	-10.487000	25.742427	0.000737	20.855737
1431.402223	-3.009000	3.479800	-10.470000	25.756392	0.000738	20.830411
1432.399233	-3.003200	3.479800	-10.450000	25.755547	0.000737	20.841416
1433.398921	-3.018000	3.478700	-10.497000	25.775845	0.000735	20.843312
1434.399541	-3.010100	3.477000	-10.464000	25.773264	0.000735	20.839772
1435.403611	-2.994700	3.479400	-10.417000	25.749437	0.000737	20.830063
1436.400359	-3.008500	3.476900	-10.460000	25.699225	0.000736	20.832260
1437.399797	-2.985500	3.476700	-10.379000	25.686906	0.000735	20.847386
1438.400875	-2.998500	3.476600	-10.423000	25.689788	0.000736	20.835109
1439.400912	-2.997400	3.476800	-10.420000	25.662407	0.000733	20.846014
1440.401561	-3.009900	3.475900	-10.461000	25.659203	0.000735	20.845167
1441.401265	-3.014000	3.476900	-10.477000	25.683978	0.000735	20.853455
1442.403961	-3.000700	3.476000	-10.429000	25.725619	0.000733	20.840752
1443.403661	-3.013100	3.474700	-10.468000	25.717844	0.000733	20.835313
1444.401673	-3.000800	3.473500	-10.422000	25.710393	0.000731	20.847744
1445.406108	-2.972900	3.475200	-10.331000	25.656030	0.000730	20.830601
1446.402408	-2.993100	3.475400	-10.401000	25.680032	0.000731	20.847121
1447.404777	-2.996300	3.474400	-10.409000	25.668479	0.000731	20.853061
1448.405350	-2.984800	3.473600	-10.366000	25.688183	0.000729	20.845825
1449.402962	-2.983200	3.475000	-10.366000	25.705005	0.000728	20.852763
1450.403315	-2.994600	3.472500	-10.397000	25.716013	0.000730	20.838216
1451.407371	-3.009300	3.471800	-10.446000	25.738199	0.000730	20.857181
1452.402926	-2.990500	3.470900	-10.379000	25.752961	0.000728	20.847827
1453.404954	-2.997300	3.472200	-10.406000	25.767446	0.000727	20.854789
1454.405012	-3.000600	3.470700	-10.413000	25.777233	0.000729	20.865094
1455.405314	-3.005700	3.470200	-10.430000	25.715297	0.000726	20.868315
1456.404877	-2.993800	3.472300	-10.393000	25.708414	0.000726	20.849549
1457.406612	-2.995800	3.469700	-10.393000	25.701259	0.000726	20.864647
1458.410304	-2.986600	3.469400	-10.360000	25.707097	0.000727	20.867191
1459.406599	-3.017400	3.468200	-10.464000	25.708639	0.000725	20.866369
1460.407751	-2.990000	3.469000	-10.370000	25.740840	0.000725	20.873583
1461.411433	-2.985800	3.469600	-10.358000	25.706280	0.000724	20.870638
1462.406187	-3.007500	3.468000	-10.429000	25.749485	0.000724	20.860456
1463.406078	-2.982100	3.467700	-10.338000	25.716965	0.000726	20.876628
1464.407528	-2.991400	3.468700	-10.375000	25.689609	0.000722	20.864326
1465.407258	-3.013400	3.467300	-10.448000	25.702603	0.000723	20.859359
1466.410380	-3.007900	3.466900	-10.427000	25.727746	0.000722	20.840992
1467.415358	-2.987100	3.467300	-10.356000	25.755100	0.000722	20.856139
1468.408346	-3.004200	3.466600	-10.414000	25.735299	0.000720	20.844785
1469.408653	-2.989700	3.466200	-10.362000	25.772642	0.000720	20.880396
1470.409695	-3.026300	3.465100	-10.485000	25.761387	0.000719	20.872885
1471.414918	-2.996200	3.464400	-10.379000	25.774332	0.000721	20.862181
1472.412519	-3.018800	3.463900	-10.453000	25.783573	0.000719	20.873833
1473.415125	-3.015200	3.463900	-10.444000	25.795152	0.000719	20.857489
1474.415352	-2.970900	3.465100	-10.294000	25.798532	0.000719	20.852350
1475.412616	-2.977500	3.465800	-10.318000	25.813437	0.000717	20.868270
1476.417630	-2.998400	3.462000	-10.380000	25.858998	0.000717	20.879897
1477.417970	-2.988800	3.462100	-10.347000	25.857808	0.000718	20.879651
1478.415614	-2.993800	3.463400	-10.368000	25.895766	0.000718	20.867522
1479.419417	-2.983400	3.461500	-10.326000	25.923885	0.000718	20.868270
1480.419252	-3.002000	3.461700	-10.390000	25.928557	0.000715	20.845464
1481.414417	-2.984800	3.461900	-10.331000	25.932209	0.000718	20.881373
1482.419621	-2.987300	3.460400	-10.336000	25.915294	0.000716	20.890458
1483.415612	-3.001100	3.460100	-10.382000	25.951759	0.000716	20.871618
1484.417163	-2.983200	3.459900	-10.318000	25.932085	0.000716	20.868922
1485.420641	-3.005100	3.458200	-10.392000	25.957151	0.000713	20.865655
1486.420393	-3.009200	3.459700	-10.409000	25.950818	0.000713	20.885369
1487.415846	-2.988400	3.459400	-10.337000	25.907940	0.000714	20.884493
1488.419048	-2.976400	3.460000	-10.298000	25.856918	0.000714	20.877808
1489.421246	-3.000300	3.457700	-10.373000	25.839725	0.000713	20.884719
1490.417740	-2.993600	3.459000	-10.353000	25.849811	0.000711	20.903383
1491.422148	-2.986100	3.458200	-10.325000	25.847799	0.000710	20.882872
1492.418025	-3.005300	3.455300	-10.384000	25.857464	0.000712	20.873141
1493.419783	-3.017800	3.456500	-10.431000	25.868244	0.000711	20.875435
1494.418835	-3.004300	3.455800	-10.382000	25.885213	0.000709	20.895800
1495.422379	-2.983100	3.454900	-10.305000	25.892070	0.000709	20.869025
1496.419734	-2.993200	3.456000	-10.344000	25.890355	0.000710	20.876785
1497.419322	-3.003000	3.453500	-10.370000	25.924637	0.000708	20.895102
1498.420378	-2.978300	3.455300	-10.289000	25.943565	0.000708	20.888514
1499.419905	-2.985700	3.453200	-10.309000	25.952382	0.000707	20.904009
1500.420048	-3.025300	3.453700	-10.448000	25.942124	0.000706	20.876162
1501.423694	-3.000600	3.452800	-10.359000	25.953402	0.000707	20.891758
1502.420411	-3.008300	3.452700	-10.385000	25.949031	0.000707	20.877885
1503.419805	-3.016100	3.452100	-10.410000	25.924241	0.000708	20.896127
1504.422215	-3.022400	3.451600	-10.431000	25.876175	0.000707	20.881980
1505.421745	-3.015800	3.451800	-10.408000	25.856998	0.000707	20.882630
1506.420746	-3.008500	3.451600	-10.383000	25.783835	0.000704	20.868406
1507.422053	-2.996000	3.451400	-10.338000	25.763139	0.000706	20.849041
1508.420525	-3.013600	3.450300	-10.396000	25.751639	0.000703	20.864990
1509.421303	-3.030700	3.448800	-10.450000	25.763240	0.000703	20.857203
1510.420336	-3.001400	3.450100	-10.355000	25.790571	0.000703	20.865690
1511.421476	-2.983100	3.449800	-10.290000	25.813154	0.000702	20.893114
1512.421505	-2.998600	3.448200	-10.338000	25.865871	0.000703	20.874000
1513.420535	-2.998600	3.448900	-10.341000	25.890765	0.000703	20.856810
1514.421205	-2.973600	3.449600	-10.256000	25.886020	0.000700	20.880965
1515.419944	-2.974600	3.447900	-10.254000	25.908975	0.000701	20.876998
1516.422660	-3.009300	3.448200	-10.375000	25.892655	0.000701	20.868665
1517.428460	-3.003400	3.448700	-10.357000	25.898618	0.000699	20.871336
1518.423319	-3.005600	3.448200	-10.362000	25.871939	0.000699	20.849277
1519.421823	-2.991600	3.446500	-10.310000	25.884683	0.000699	20.872035
1520.425929	-2.983600	3.447000	-10.283000	25.887589	0.000697	20.854567
1521.424264	-2.990600	3.447500	-10.309000	25.900881	0.000699	20.858911
1522.425263	-2.998900	3.445400	-10.332000	25.872685	0.000697	20.867095
1523.423670	-3.003200	3.446000	-10.348000	25.879542	0.000697	20.855967
1524.427382	-3.007600	3.444500	-10.358000	25.857806	0.000698	20.820856
1525.424105	-3.015300	3.443400	-10.382000	25.851198	0.000697	20.861632
1526.424715	-3.017300	3.444800	-10.393000	25.829611	0.000696	20.844689
1527.425725	-2.998200	3.443400	-10.323000	25.805117	0.000695	20.872714
1528.428181	-3.033600	3.441800	-10.438000	25.798754	0.000695	20.860159
1529.425312	-3.008800	3.442000	-10.355000	25.808520	0.000696	20.860961
1530.428772	-3.015800	3.443400	-10.384000	25.856888	0.000695	20.854072
1531.425925	-2.974200	3.443400	-10.239000	25.866627	0.000695	20.851528
1532.425511	-2.989800	3.442500	-10.291000	25.904214	0.000693	20.835707
1533.428301	-3.027100	3.440400	-10.412000	25.912684	0.000693	20.843743
1534.426587	-3.017900	3.440000	-10.381000	25.953647	0.000692	20.850756
1535.440927	-3.013300	3.440900	-10.367000	25.988648	0.000693	20.865530
1536.428548	-3.009900	3.441900	-10.358000	25.999752	0.000694	20.857721
1537.428151	-2.982700	3.441400	-10.263000	26.009912	0.000692	20.850859
1538.425978	-2.992100	3.440000	-10.291000	26.004896	0.000692	20.845820
1539.430365	-3.001500	3.438600	-10.320000	26.057678	0.000689	20.848590
1540.426520	-3.002900	3.437900	-10.323000	26.066743	0.000691	20.845370
1541.425158	-3.003400	3.438200	-10.326000	26.057107	0.000692	20.819568
1542.428366	-3.019500	3.436400	-10.376000	26.044019	0.000690	20.846246
1543.428370	-3.007500	3.437300	-10.337000	25.995212	0.000691	20.828030
1544.426954	-3.033200	3.435400	-10.419000	25.963589	0.000692	20.856002
1545.425896	-3.017200	3.436100	-10.367000	25.941234	0.000689	20.838285
1546.430942	-2.978800	3.439300	-10.243000	25.923425	0.000685	20.856429
1547.425775	-2.996600	3.434600	-10.291000	25.950549	0.000687	20.837213
1548.429517	-2.987100	3.437000	-10.266000	25.930380	0.000687	20.832124
1549.429056	-3.004000	3.435800	-10.321000	25.957604	0.000687	20.826757
1550.430998	-3.006600	3.435100	-10.327000	25.967641	0.000687	20.844900
1551.429340	-3.000100	3.434800	-10.303000	25.972309	0.000686	20.843426
1552.431141	-2.991500	3.435300	-10.275000	25.961951	0.000686	20.837761
1553.429964	-2.994000	3.435200	-10.284000	25.942973	0.000686	20.833869
1554.428275	-2.981200	3.436300	-10.243000	25.947594	0.000686	20.843252
1555.428596	-2.997600	3.433600	-10.291000	25.969850	0.000684	20.832422
1556.427918	-2.994600	3.432900	-10.279000	25.991562	0.000685	20.841432
1557.429783	-2.992100	3.433000	-10.271000	25.967391	0.000684	20.820943
1558.428840	-2.999100	3.432300	-10.292000	25.960114	0.000682	20.836391
1559.428345	-3.028000	3.432300	-10.391000	25.956907	0.000684	20.819419
1560.430350	-2.985200	3.432800	-10.245000	25.950028	0.000681	20.822465
1561.429141	-2.994200	3.431000	-10.272000	25.970545	0.000683	20.835964
1562.430531	-2.993900	3.431000	-10.271000	25.970942	0.000682	20.831148
1563.430657	-3.003500	3.431500	-10.305000	25.995956	0.000680	20.813605
1564.429907	-2.991800	3.431300	-10.265000	26.009193	0.000679	20.813154
1565.430515	-3.011200	3.429800	-10.326000	26.034205	0.000680	20.825956
1566.431956	-2.985400	3.428900	-10.236000	26.027648	0.000679	20.815574
1567.431339	-3.011100	3.428100	-10.320000	26.040365	0.000678	20.847791
1568.436268	-2.986400	3.429500	-10.241000	26.056534	0.000679	20.829898
1569.431511	-2.989100	3.428100	-10.246000	26.059637	0.000676	20.838706
1570.431018	-2.995900	3.428600	-10.271000	26.058174	0.000676	20.836287
1571.432389	-2.993800	3.429100	-10.265000	26.047743	0.000677	20.816798
1572.431307	-3.010900	3.426700	-10.317000	26.021364	0.000675	20.820166
1573.432525	-3.012400	3.426300	-10.320000	26.041010	0.000676	20.820939
1574.434075	-2.983500	3.427500	-10.225000	26.007975	0.000675	20.813827
1575.436007	-2.989400	3.427700	-10.245000	25.971388	0.000675	20.822113
1576.434177	-3.004800	3.424600	-10.288000	25.926848	0.000673	20.827152
1577.438896	-3.011300	3.424300	-10.310000	25.912614	0.000673	20.829923
1578.437147	-2.998200	3.424900	-10.266000	25.914552	0.000673	20.811007
1579.436306	-2.990700	3.425400	-10.243000	25.918400	0.000674	20.809182
1580.446560	-3.025000	3.423000	-10.353000	25.970219	0.000671	20.811456
1581.438453	-3.041900	3.422700	-10.410000	25.971089	0.000672	20.817545
1582.441642	-2.995300	3.423200	-10.253000	25.973570	0.000672	20.795856
1583.443701	-2.976900	3.425400	-10.196000	25.964702	0.000671	20.828198
1584.438867	-2.994500	3.423800	-10.251000	25.946419	0.000670	20.806037
1585.442888	-2.999500	3.423200	-10.267000	25.898576	0.000671	20.821036
1586.441317	-2.992700	3.421900	-10.239000	25.892861	0.000669	20.832364
1587.440163	-3.006200	3.420700	-10.283000	25.910250	0.000669	20.810953
1588.446670	-3.000900	3.421200	-10.265000	25.950640	0.000667	20.834933
1589.441334	-3.002700	3.422000	-10.275000	25.948132	0.000668	20.823879
1590.442059	-3.011400	3.420200	-10.298000	25.946763	0.000668	20.804486
1591.442144	-2.993400	3.420700	-10.239000	25.961718	0.000667	20.810501
1592.445277	-2.997800	3.419800	-10.250000	25.992145	0.000664	20.818785
1593.444287	-3.019500	3.420800	-10.327000	25.981218	0.000665	20.814920
1594.447526	-2.983800	3.420600	-10.206000	26.007820	0.000667	20.800869
1595.446145	-2.981900	3.420200	-10.197000	26.045004	0.000664	20.830167
1596.448351	-3.001700	3.419100	-10.262000	26.047611	0.000666	20.802441
1597.445065	-2.995400	3.418700	-10.239000	26.038968	0.000663	20.819835
1598.445827	-2.974800	3.418500	-10.169000	26.017259	0.000664	20.825525
1599.445001	-2.979900	3.418300	-10.185000	26.016886	0.000663	20.803339
1600.444769	-3.008900	3.416900	-10.280000	26.029579	0.000662	20.805660
1601.444960	-2.993800	3.416400	-10.227000	26.058193	0.000663	20.789839
1602.448360	-2.998100	3.417800	-10.246000	26.055883	0.000662	20.813123
1603.445455	-2.996100	3.417800	-10.239000	26.059732	0.000660	20.823154
1604.446229	-3.009800	3.416100	-10.282000	26.026475	0.000660	20.805861
1605.446386	-2.974600	3.416600	-10.163000	26.006656	0.000661	20.802544
1606.446483	-3.018100	3.414500	-10.303000	25.968278	0.000659	20.818040
1607.446046	-3.003300	3.414500	-10.254000	25.909630	0.000658	20.801321
1608.448686	-3.015100	3.413000	-10.289000	25.868095	0.000660	20.810804
1609.448498	-3.010100	3.414200	-10.276000	25.883772	0.000659	20.807586
1610.448691	-3.016300	3.412300	-10.292000	25.901408	0.000656	20.800648
1611.455276	-2.997800	3.413300	-10.231000	25.903346	0.000656	20.815396
1612.453534	-2.985300	3.413900	-10.191000	25.913233	0.000656	20.809681
1613.455101	-3.003000	3.412600	-10.246000	25.921434	0.000657	20.806540
1614.451849	-2.982000	3.412600	-10.176000	25.912091	0.000655	20.791465
1615.452626	-2.988900	3.411200	-10.195000	25.972305	0.000654	20.802172
1616.450848	-2.989900	3.410800	-10.197000	25.972156	0.000655	20.798229
1617.451784	-3.008100	3.412000	-10.262000	25.950224	0.000654	20.797532
1618.452736	-2.984100	3.411700	-10.179000	25.921087	0.000654	20.792442
1619.450657	-2.992100	3.410900	-10.205000	25.920294	0.000653	20.797335
1620.450648	-3.011400	3.408800	-10.264000	25.900916	0.000653	20.804894
1621.450631	-2.984100	3.411400	-10.180000	25.912171	0.000652	20.792968
1622.449755	-2.976700	3.409600	-10.147000	25.919451	0.000650	20.802178
1623.450691	-2.994900	3.408700	-10.208000	25.956242	0.000652	20.786982
1624.450205	-2.991600	3.408300	-10.195000	25.935846	0.000651	20.794467
1625.450550	-2.995700	3.408300	-10.209000	25.971668	0.000649	20.769763
1626.450091	-3.002500	3.408300	-10.231000	25.966577	0.000650	20.790254
1627.451477	-3.003000	3.406800	-10.230000	25.979545	0.000648	20.797592
1628.453982	-3.006100	3.406900	-10.239000	25.972367	0.000649	20.794173
1629.451631	-3.006200	3.408100	-10.244000	25.968272	0.000649	20.788637
1630.452832	-3.003000	3.408000	-10.232000	25.934911	0.000647	20.805381
1631.453887	-3.000300	3.406100	-10.218000	25.925572	0.000647	20.793629
1632.454742	-3.022200	3.403500	-10.285000	25.912357	0.000647	20.790784
1633.457930	-3.005600	3.405700	-10.235000	25.919239	0.000646	20.766877
1634.455988	-3.014000	3.404400	-10.260000	25.954342	0.000646	20.774168
1635.453883	-2.996000	3.405700	-10.203000	25.972847	0.000644	20.772845
1636.459894	-2.999300	3.405300	-10.212000	25.986560	0.000643	20.783777
1637.454845	-3.012100	3.402700	-10.249000	25.974537	0.000642	20.784500
1638.456770	-3.022600	3.403500	-10.287000	25.963163	0.000644	20.768805
1639.456306	-3.006500	3.403600	-10.232000	25.981470	0.000643	20.791465
1640.459515	-3.003200	3.403300	-10.220000	25.988329	0.000643	20.780338
1641.457932	-3.011000	3.401700	-10.242000	26.001642	0.000645	20.779963
1642.455629	-3.027800	3.401800	-10.299000	25.987983	0.000642	20.787103
1643.457730	-2.959000	3.403300	-10.067000	25.956288	0.000642	20.779442
1644.457608	-3.002200	3.400900	-10.209000	25.963118	0.000642	20.781088
1645.455055	-2.970400	3.401400	-10.103000	25.997968	0.000641	20.788126
1646.460536	-2.982900	3.401600	-10.145000	26.018533	0.000641	20.791244
1647.460157	-2.964500	3.402700	-10.086000	26.031722	0.000640	20.789322
1648.455044	-2.984000	3.401300	-10.149000	26.025342	0.000641	20.765368
1649.456336	-3.010900	3.399700	-10.234000	26.029666	0.000641	20.765445
1650.458030	-2.987000	3.399700	-10.153000	26.057359	0.000640	20.779992
1651.458513	-3.012900	3.399200	-10.239000	26.059718	0.000639	20.783786
1652.458457	-2.985100	3.398900	-10.144000	26.065754	0.000638	20.764720
1653.459482	-2.970700	3.398900	-10.096000	26.063891	0.000638	20.770909
1654.458323	-2.976000	3.399800	-10.115000	26.054853	0.000637	20.778897
1655.458548	-3.004200	3.397900	-10.207000	26.077428	0.000635	20.767915
1656.460144	-3.003200	3.396500	-10.199000	26.079615	0.000636	20.781492
1657.458208	-2.998900	3.396900	-10.186000	26.090570	0.000637	20.784912
1658.459352	-2.988600	3.398000	-10.154000	26.090048	0.000636	20.789604
1659.461226	-3.006000	3.395600	-10.206000	26.064590	0.000634	20.753593
1660.459919	-3.031800	3.394700	-10.291000	26.048868	0.000634	20.744434
1661.459698	-3.029300	3.393400	-10.279000	26.048098	0.000635	20.752195
1662.464670	-3.016900	3.395000	-10.242000	26.085950	0.000636	20.765571
1663.462786	-3.007200	3.394400	-10.206000	26.083909	0.000635	20.751193
1664.461348	-3.012000	3.393700	-10.221000	26.074102	0.000634	20.767892
1665.462247	-3.002200	3.394200	-10.189000	26.094417	0.000633	20.774079
1666.462766	-2.994800	3.394100	-10.163000	26.072064	0.000630	20.771534
1667.460287	-3.018400	3.391700	-10.237000	26.060588	0.000630	20.767116
1668.468339	-2.987400	3.393300	-10.134000	26.028025	0.000630	20.762374
1669.462218	-3.009200	3.392800	-10.209000	26.012575	0.000630	20.776723
1670.462234	-2.994000	3.392000	-10.154000	25.985475	0.000630	20.761823
1671.462225	-3.016800	3.391800	-10.230000	25.968037	0.000629	20.772754
1672.465249	-2.985000	3.392600	-10.126000	25.975964	0.000631	20.750845
1673.465086	-2.991800	3.391700	-10.146000	25.946179	0.000629	20.757905
1674.462133	-2.989200	3.390400	-10.134000	25.919474	0.000628	20.769010
1675.463966	-2.984100	3.391800	-10.120000	25.914058	0.000626	20.749343
1676.461534	-2.984400	3.391700	-10.121000	25.944066	0.000627	20.753412
1677.463253	-3.006900	3.389500	-10.191000	25.946747	0.000627	20.761322
1678.461938	-3.006200	3.390400	-10.191000	25.955739	0.000626	20.743328
1679.464391	-3.008000	3.389400	-10.194000	25.972283	0.000625	20.749043
1680.463961	-3.019400	3.388600	-10.231000	25.971808	0.000626	20.756154
1681.466844	-2.979600	3.389700	-10.099000	25.950620	0.000623	20.748142
1682.465925	-2.994500	3.387800	-10.143000	25.992127	0.000625	20.760920
1683.465934	-3.007800	3.387600	-10.187000	26.000074	0.000624	20.739032
1684.464989	-2.990400	3.388300	-10.131000	26.022875	0.000624	20.753406
1685.466290	-2.991300	3.388600	-10.136000	26.032884	0.000623	20.735012
1686.465418	-2.999900	3.386100	-10.157000	26.022924	0.000621	20.761042
1687.466442	-2.988500	3.387100	-10.122000	26.007944	0.000621	20.754052
1688.466876	-2.996500	3.386600	-10.147000	25.968325	0.000620	20.755025
1689.466981	-2.977000	3.387700	-10.084000	25.944727	0.000621	20.757396
1690.467649	-2.999100	3.384900	-10.150000	25.940778	0.000622	20.750109
1691.468516	-2.983200	3.387200	-10.103000	25.938889	0.000618	20.746788
1692.471554	-3.001700	3.385200	-10.161000	25.959430	0.000621	20.747511
1693.469928	-3.020300	3.382900	-10.216000	25.979079	0.000619	20.755398
1694.466718	-2.982400	3.383900	-10.091000	25.958536	0.000618	20.733809
1695.467930	-3.006700	3.384800	-10.177000	25.926492	0.000618	20.736704
1696.467850	-2.999600	3.384100	-10.150000	25.926539	0.000617	20.754770
1697.469573	-3.016900	3.382400	-10.203000	25.949818	0.000617	20.766303
1698.466232	-2.991800	3.383200	-10.121000	25.993135	0.000616	20.735379
1699.468558	-2.980000	3.382500	-10.079000	26.040353	0.000616	20.748206
1700.469799	-2.966400	3.382800	-10.033000	26.048276	0.000616	20.742891
1701.470566	-2.997900	3.381500	-10.135000	26.055180	0.000615	20.736076
1702.469680	-3.000600	3.380600	-10.143000	26.047207	0.000615	20.740394
1703.468510	-2.994200	3.381800	-10.125000	26.012507	0.000616	20.761955
1704.471549	-3.024800	3.378500	-10.218000	25.976911	0.000615	20.740891
1705.470364	-2.989600	3.380400	-10.105000	25.967944	0.000615	20.744210
1706.473027	-3.001100	3.380700	-10.145000	25.935752	0.000613	20.752171
1707.471239	-2.984400	3.379400	-10.085000	25.939127	0.000614	20.756511
1708.470487	-3.008200	3.379700	-10.165000	25.913515	0.000613	20.760178
1709.471312	-3.006400	3.378600	-10.156000	25.910782	0.000611	20.746527
1710.475804	-3.023100	3.378000	-10.210000	25.924445	0.000610	20.755037
1711.473319	-2.990100	3.378300	-10.100000	25.926730	0.000610	20.739789
1712.472724	-3.012500	3.378500	-10.177000	25.927996	0.000608	20.745802
1713.472624	-2.996900	3.378500	-10.125000	25.923748	0.000610	20.732999
1714.473411	-3.024200	3.377700	-10.212000	25.938031	0.000609	20.748297
1715.473573	-2.984600	3.377100	-10.077000	25.984555	0.000610	20.729604
1716.472699	-2.996500	3.378300	-10.122000	26.011132	0.000609	20.729753
1717.473017	-3.015000	3.377900	-10.183000	26.036540	0.000609	20.748169
1718.472175	-2.997500	3.376600	-10.120000	26.053729	0.000608	20.740783
1719.474215	-3.042000	3.373700	-10.261000	26.063837	0.000609	20.729601
1720.474355	-3.006600	3.375700	-10.148000	26.026158	0.000607	20.741530
1721.474998	-2.994600	3.376300	-10.110000	26.026254	0.000607	20.741628
1722.474392	-3.015400	3.374500	-10.175000	26.041855	0.000609	20.753509
1723.475677	-3.009800	3.375800	-10.160000	26.041978	0.000609	20.740831
1724.475487	-2.990100	3.375700	-10.092000	26.065053	0.000608	20.742203
1725.477368	-3.003600	3.374700	-10.136000	26.049725	0.000607	20.744346
1726.475553	-3.007000	3.373600	-10.143000	26.048262	0.000605	20.737186
1727.474778	-2.986900	3.371900	-10.070000	26.060453	0.000603	20.736159
1728.477663	-2.979800	3.372900	-10.050000	26.074337	0.000606	20.720710
1729.476796	-2.998900	3.371900	-10.112000	26.105729	0.000603	20.730916
1730.475414	-2.995300	3.371600	-10.098000	26.108561	0.000602	20.742297
1731.477126	-2.995800	3.372300	-10.102000	26.072348	0.000603	20.748111
1732.481566	-3.017300	3.370300	-10.168000	26.071004	0.000602	20.737277
1733.482113	-3.019300	3.372100	-10.181000	25.999099	0.000602	20.727620
1734.480306	-2.987600	3.371400	-10.072000	25.953295	0.000600	20.734708
1735.484055	-2.995100	3.371000	-10.095000	25.902668	0.000599	20.738849
1736.479133	-3.006400	3.370100	-10.131000	25.859988	0.000600	20.748606
1737.480190	-2.975400	3.370600	-10.028000	25.818602	0.000598	20.736428
1738.479158	-2.987300	3.368900	-10.063000	25.802403	0.000599	20.726794
1739.483593	-2.981600	3.370600	-10.049000	25.819818	0.000600	20.746659
1740.480418	-2.999500	3.368600	-10.103000	25.801110	0.000598	20.750153
1741.481340	-3.011800	3.367800	-10.142000	25.826672	0.000598	20.733629
1742.482649	-3.020800	3.366500	-10.167000	25.872087	0.000597	20.737052
1743.482454	-3.023100	3.367600	-10.180000	25.882644	0.000595	20.738174
1744.482307	-3.023300	3.366500	-10.176000	25.922266	0.000595	20.738623
1745.484427	-2.985000	3.367600	-10.050000	25.960792	0.000595	20.732283
1746.486287	-2.993300	3.367900	-10.080000	25.986478	0.000596	20.721103
1747.482020	-3.000900	3.367700	-10.105000	26.036181	0.000594	20.735480
1748.482207	-2.985300	3.366400	-10.049000	26.070411	0.000594	20.744268
1749.480877	-3.008800	3.365300	-10.125000	26.103145	0.000592	20.730691
1750.483467	-3.001000	3.365400	-10.098000	26.131659	0.000591	20.748910
1751.480255	-3.010600	3.364100	-10.127000	26.146163	0.000591	20.732190
1752.484182	-3.001400	3.364800	-10.098000	26.145716	0.000591	20.742172
1753.482634	-3.017600	3.364700	-10.152000	26.151455	0.000590	20.746991
1754.483200	-2.972800	3.365700	-10.004000	26.146314	0.000592	20.749411
1755.487021	-2.986200	3.363900	-10.045000	26.121180	0.000592	20.764460
1756.483107	-2.996100	3.363800	-10.077000	26.108639	0.000591	20.751859
1757.484650	-2.987000	3.363900	-10.047000	26.123989	0.000589	20.738358
1758.486872	-3.018100	3.363400	-10.150000	26.125876	0.000588	20.728875
1759.482978	-3.014500	3.363800	-10.139000	26.129654	0.000590	20.727454
1760.485409	-2.986000	3.362100	-10.038000	26.151583	0.000589	20.747593
1761.488727	-2.980100	3.361700	-10.018000	26.140235	0.000588	20.743777
1762.484376	-3.023400	3.361900	-10.163000	26.155510	0.000588	20.747746
1763.486309	-2.987000	3.361800	-10.041000	26.170041	0.000586	20.723466
1764.490160	-3.009500	3.359900	-10.111000	26.146147	0.000587	20.745450
1765.486746	-2.995800	3.361700	-10.070000	26.119575	0.000587	20.742458
1766.487186	-2.978800	3.361200	-10.011000	26.117168	0.000586	20.744307
1767.489390	-2.985000	3.360500	-10.030000	26.139322	0.000585	20.744757
1768.490250	-2.989600	3.360100	-10.043000	26.144416	0.000584	20.749875
1769.486493	-3.002900	3.358900	-10.085000	26.151768	0.000584	20.722648
1770.490107	-3.016300	3.358200	-10.129000	26.084910	0.000583	20.735602
1771.489761	-2.985200	3.359100	-10.026000	26.072666	0.000582	20.748904
1772.487499	-3.005400	3.358100	-10.092000	26.039831	0.000584	20.734405
1773.494431	-2.991700	3.358000	-10.045000	26.028085	0.000582	20.750105
1774.490472	-2.991600	3.357300	-10.043000	26.056054	0.000581	20.738377
1775.491373	-3.019200	3.357500	-10.136000	26.036336	0.000581	20.748913
1776.488752	-3.025000	3.356300	-10.151000	26.026749	0.000580	20.734064
1777.489363	-3.004600	3.355400	-10.079000	26.066964	0.000583	20.753133
1778.488801	-3.010400	3.355400	-10.100000	26.088101	0.000580	20.739756
1779.491475	-3.011800	3.356000	-10.106000	26.112367	0.000579	20.749915
1780.491023	-2.972800	3.357100	-9.978700	26.100473	0.000580	20.725160
1781.491954	-2.986600	3.356100	-10.023000	26.096947	0.000581	20.751017
1782.491096	-2.976300	3.356700	-9.989900	26.096601	0.000579	20.744030
1783.492758	-2.987000	3.356100	-10.024000	26.079664	0.000578	20.747876
1784.493177	-2.990800	3.354000	-10.029000	26.109965	0.000576	20.723318
1785.490582	-2.985500	3.354200	-10.013000	26.083042	0.000577	20.736096
1786.490930	-3.009200	3.352400	-10.087000	26.063595	0.000575	20.749273
1787.490128	-3.012900	3.353500	-10.102000	26.068763	0.000575	20.755889
1788.492300	-2.990200	3.354100	-10.027000	26.085033	0.000575	20.738570
1789.494315	-2.998400	3.353400	-10.054000	26.128296	0.000574	20.734151
1790.491174	-3.003300	3.352300	-10.068000	26.165651	0.000575	20.750350
1791.494105	-2.991900	3.352600	-10.029000	26.179335	0.000574	20.747031
1792.492898	-2.977200	3.352000	-9.978600	26.200793	0.000573	20.751998
1793.494909	-3.000100	3.351200	-10.053000	26.128397	0.000571	20.745633
1794.495035	-3.004000	3.350700	-10.064000	26.105374	0.000573	20.763277
1795.496341	-3.022500	3.350100	-10.125000	26.073062	0.000574	20.741241
1796.502387	-3.010500	3.350200	-10.085000	26.064044	0.000573	20.761105
1797.497122	-2.999000	3.350600	-10.047000	26.080163	0.000573	20.773033
1798.498516	-3.002700	3.349700	-10.057000	26.079372	0.000571	20.744262
1799.500812	-2.982900	3.351200	-9.995300	26.078822	0.000572	20.762202
1800.498489	-2.985200	3.349300	-9.997300	26.119479	0.000570	20.754216
1801.497916	-2.978300	3.350300	-9.976900	26.136566	0.000569	20.744358
1802.498086	-3.000600	3.348000	-10.044000	26.157553	0.000570	20.757860
1803.497835	-3.002400	3.349400	-10.055000	26.204836	0.000570	20.758431
1804.497970	-3.010600	3.347300	-10.076000	26.221523	0.000568	20.727784
1805.498933	-3.001600	3.347600	-10.047000	26.174659	0.000568	20.768412
1806.497875	-2.986200	3.347900	-9.996500	26.174859	0.000566	20.759603
1807.497428	-2.995600	3.346100	-10.022000	26.181142	0.000564	20.768287
1808.498780	-2.988800	3.347100	-10.003000	26.223110	0.000565	20.765890
1809.501702	-3.020500	3.345100	-10.103000	26.241687	0.000567	20.767962
1810.500391	-3.011100	3.346300	-10.074000	26.241759	0.000566	20.755706
1811.501153	-3.015000	3.345700	-10.086000	26.251097	0.000566	20.739011
1812.501384	-2.986200	3.345100	-9.987600	26.240193	0.000564	20.765513
1813.501032	-2.976800	3.345900	-9.959600	26.216028	0.000564	20.754980
1814.502838	-2.999600	3.345200	-10.033000	26.183594	0.000564	20.759371
1815.506022	-2.990400	3.343700	-9.998100	26.157268	0.000563	20.784127
1816.499510	-2.999400	3.344900	-10.031000	26.088051	0.000563	20.767683
1817.499469	-2.979000	3.345200	-9.964000	26.052087	0.000563	20.768532
1818.504093	-2.993900	3.343400	-10.009000	26.080000	0.000562	20.775714
1819.501082	-2.979400	3.345000	-9.965000	26.043092	0.000561	20.770873
1820.498925	-2.994800	3.342600	-10.009000	26.058191	0.000561	20.770871
1821.505462	-2.993500	3.341900	-10.003000	26.095301	0.000559	20.774493
1822.500185	-2.993000	3.341700	-10.000000	26.128306	0.000558	20.776362
1823.500922	-2.986700	3.341700	-9.979900	26.133097	0.000560	20.757942
1824.504337	-2.993400	3.341500	-10.000000	26.134787	0.000559	20.762011
1825.500914	-2.987400	3.341800	-9.982300	26.155671	0.000557	20.771617
1826.499626	-3.008300	3.340600	-10.049000	26.162426	0.000557	20.781723
1827.502924	-2.992000	3.340900	-9.995400	26.134113	0.000557	20.777930
1828.501518	-2.986800	3.340400	-9.975600	26.128648	0.000557	20.800414
1829.502895	-2.982400	3.340500	-9.961600	26.084537	0.000558	20.759410
1830.506716	-3.009100	3.338600	-10.045000	26.078032	0.000557	20.767099
1831.501118	-2.987900	3.338800	-9.974600	26.078627	0.000556	20.774809
1832.504069	-3.032400	3.338000	-10.121000	26.132149	0.000555	20.793026
1833.503509	-2.999000	3.338400	-10.010000	26.150278	0.000553	20.754818
1834.504570	-3.014400	3.337400	-10.059000	26.152885	0.000553	20.780197
1835.507742	-2.995700	3.339000	-10.001000	26.139499	0.000551	20.769591
1836.501867	-2.998100	3.336400	-10.001000	26.127379	0.000552	20.781595
1837.508861	-2.988700	3.337500	-9.973200	26.125640	0.000550	20.799762
1838.503656	-3.009000	3.335600	-10.035000	26.160334	0.000551	20.785311
1839.502455	-2.985000	3.336800	-9.959900	26.141855	0.000549	20.779071
1840.503670	-2.981400	3.337700	-9.950300	26.192520	0.000551	20.797264
1841.504343	-3.007500	3.336200	-10.033000	26.198182	0.000550	20.789678
1842.503261	-3.005400	3.334800	-10.021000	26.192643	0.000549	20.787906
1843.504979	-2.995100	3.336200	-9.991600	26.193663	0.000548	20.773757
1844.504766	-3.018300	3.333400	-10.060000	26.212436	0.000549	20.792622
1845.505553	-3.015500	3.334200	-10.054000	26.192917	0.000550	20.772534
1846.505920	-3.003200	3.334400	-10.013000	26.219912	0.000546	20.790651
1847.504812	-3.009700	3.334700	-10.035000	26.217725	0.000546	20.766169
1848.506677	-3.011000	3.332500	-10.034000	26.225324	0.000547	20.790401
1849.507518	-3.009900	3.332800	-10.031000	26.227286	0.000544	20.810390
1850.508231	-3.027300	3.331500	-10.084000	26.228875	0.000545	20.793968
1851.509008	-2.992600	3.331100	-9.967700	26.272359	0.000545	20.797364
1852.509243	-2.976500	3.332200	-9.916800	26.255571	0.000545	20.796140
1853.512878	-2.997700	3.332800	-9.989400	26.250530	0.000544	20.798186
1854.510658	-2.995900	3.330900	-9.978000	26.267340	0.000542	20.788527
1855.507922	-2.967700	3.332200	-9.887700	26.225176	0.000541	20.782191
1856.511773	-3.005200	3.331000	-10.010000	26.193014	0.000543	20.786856
1857.511499	-3.002900	3.330500	-9.999600	26.186804	0.000543	20.810013
1858.507824	-2.999800	3.330500	-9.989600	26.213773	0.000543	20.788750
1859.515160	-3.004700	3.331100	-10.007000	26.254725	0.000541	20.801453
1860.513373	-2.985200	3.331400	-9.943700	26.249833	0.000541	20.790374
1861.511280	-2.983500	3.330000	-9.934900	26.290086	0.000541	20.800480
1862.509614	-3.001400	3.330400	-9.994200	26.325546	0.000541	20.806718
1863.516173	-3.012600	3.329000	-10.028000	26.338184	0.000538	20.791918
1864.509517	-2.998000	3.327300	-9.973900	26.339898	0.000537	20.805969
1865.509267	-2.995100	3.327200	-9.964400	26.332001	0.000539	20.792817
1866.510829	-3.001900	3.327200	-9.987500	26.352411	0.000538	20.798157
1867.511502	-2.990400	3.326600	-9.946400	26.383250	0.000539	20.785054
1868.513115	-3.006100	3.326300	-9.998200	26.382902	0.000538	20.809835
1869.514181	-2.997500	3.325900	-9.968500	26.353301	0.000536	20.809483
1870.515202	-2.998500	3.327500	-9.976300	26.371081	0.000535	20.805066
1871.512857	-2.986600	3.325600	-9.931500	26.324225	0.000535	20.823883
1872.514417	-3.008700	3.324700	-10.001000	26.322833	0.000535	20.802095
1873.515198	-3.019100	3.324300	-10.036000	26.363056	0.000534	20.804114
1874.515244	-3.015100	3.324500	-10.022000	26.337605	0.000535	20.808880
1875.515007	-3.014600	3.323000	-10.016000	26.328243	0.000534	20.812274
1876.512916	-3.004700	3.323000	-9.983000	26.305372	0.000533	20.812996
1877.519342	-2.962900	3.324600	-9.849700	26.247239	0.000532	20.805785
1878.515924	-3.011100	3.323500	-10.006000	26.229505	0.000533	20.807878
1879.514797	-3.008200	3.322900	-9.994800	26.247188	0.000533	20.810000
1880.522415	-2.988900	3.323700	-9.933900	26.252499	0.000530	20.827192
1881.513485	-2.978500	3.324100	-9.900000	26.256672	0.000531	20.815738
1882.519619	-3.006600	3.321800	-9.985100	26.285947	0.000530	20.820028
1883.514743	-2.983200	3.322100	-9.909700	26.310181	0.000530	20.803604
1884.516475	-3.013700	3.321500	-10.009000	26.347603	0.000529	20.832678
1885.516859	-3.003900	3.321500	-9.976600	26.347179	0.000528	20.840312
1886.517931	-2.983900	3.321800	-9.911100	26.391105	0.000528	20.823769
1887.521135	-2.996800	3.319900	-9.948000	26.390407	0.000527	20.815955
1888.516432	-2.984400	3.321500	-9.911400	26.377597	0.000526	20.834848
1889.517231	-2.991200	3.320000	-9.930400	26.373475	0.000526	20.822171
1890.521106	-3.005000	3.318500	-9.971300	26.363815	0.000526	20.843281
1891.519895	-3.005400	3.318700	-9.973100	26.380626	0.000525	20.835521
1892.519371	-2.992500	3.318700	-9.930800	26.396616	0.000525	20.841635
1893.522193	-2.972300	3.321000	-9.870000	26.384449	0.000524	20.820873
1894.519707	-3.011300	3.316600	-9.986500	26.350631	0.000524	20.815808
1895.521090	-3.003800	3.317700	-9.964200	26.370920	0.000523	20.822448
1896.519582	-3.015600	3.316800	-10.001000	26.389865	0.000523	20.829635
1897.521235	-3.022900	3.315200	-10.021000	26.404513	0.000523	20.828709
1898.521863	-3.011700	3.315300	-9.983500	26.392620	0.000522	20.838093
1899.520226	-3.004700	3.315200	-9.960300	26.396196	0.000520	20.844683
1900.521970	-3.006700	3.316700	-9.970700	26.387531	0.000520	20.830134
1901.524341	-2.964800	3.316300	-9.830800	26.422792	0.000520	20.827167
1902.523615	-2.988700	3.315300	-9.907100	26.441835	0.000519	20.828289
1903.523888	-2.994900	3.314400	-9.924900	26.491143	0.000518	20.838020
1904.523541	-3.006900	3.314800	-9.965400	26.505914	0.000518	20.831057
1905.521878	-2.994100	3.315200	-9.924900	26.517631	0.000517	20.826239
1906.524205	-2.979800	3.315300	-9.877800	26.557928	0.000516	20.833080
1907.523119	-3.010700	3.313000	-9.972900	26.583199	0.000516	20.833353
1908.524056	-3.002500	3.313600	-9.948200	26.621356	0.000516	20.828562
1909.524378	-3.007500	3.312100	-9.960200	26.646102	0.000514	20.841586
1910.522831	-3.029400	3.311900	-10.031000	26.612466	0.000513	20.860402
1911.527352	-2.978500	3.313800	-9.867300	26.587070	0.000515	20.844830
1912.525308	-2.979200	3.313800	-9.871300	26.545460	0.000512	20.824815
1913.525428	-3.024300	3.309500	-10.007000	26.542086	0.000511	20.867414
1914.525330	-2.996600	3.312400	-9.924600	26.544467	0.000511	20.835196
1915.527483	-3.015000	3.310700	-9.980500	26.560282	0.000511	20.842085
1916.527845	-2.996200	3.310100	-9.916900	26.555713	0.000511	20.841760
1917.528818	-2.999400	3.311000	-9.929500	26.584536	0.000511	20.837542
1918.528939	-2.995900	3.309100	-9.911100	26.601838	0.000510	20.837865
1919.532889	-2.999500	3.310800	-9.929600	26.595111	0.000508	20.852913
1920.533906	-3.010600	3.309500	-9.962500	26.616161	0.000508	20.856530
1921.530759	-2.982400	3.309500	-9.868000	26.618594	0.000507	20.840958
1922.532897	-3.014700	3.308600	-9.973400	26.619910	0.000509	20.865514
1923.536141	-2.997000	3.308500	-9.914000	26.648679	0.000507	20.836116
1924.532547	-2.977800	3.309700	-9.854600	26.625020	0.000506	20.832720
1925.535357	-2.994000	3.307500	-9.901000	26.636562	0.000508	20.851435
1926.535629	-3.010800	3.308600	-9.960700	26.656893	0.000505	20.860493
1927.532347	-3.005600	3.306900	-9.938800	26.668783	0.000507	20.850162
1928.533751	-2.971700	3.308700	-9.830900	26.653268	0.000505	20.857323
1929.536488	-3.002200	3.306400	-9.924700	26.665158	0.000505	20.866431
1930.534928	-2.990700	3.305500	-9.885000	26.670196	0.000503	20.847315
1931.533958	-2.998700	3.306400	-9.913600	26.665603	0.000501	20.867827
1932.535047	-2.998700	3.305300	-9.910500	26.659919	0.000504	20.858319
1933.534684	-3.004400	3.303700	-9.924600	26.660190	0.000502	20.863808
1934.534575	-2.969700	3.304500	-9.812000	26.653859	0.000500	20.851754
1935.536840	-2.985600	3.304600	-9.865500	26.603220	0.000501	20.853004
1936.535387	-2.980200	3.304700	-9.847900	26.622732	0.000501	20.873092
1937.535465	-2.985300	3.303700	-9.861000	26.638768	0.000499	20.878781
1938.539195	-3.006400	3.303200	-9.929100	26.609177	0.000498	20.879854
1939.535652	-2.995400	3.304100	-9.895800	26.613000	0.000499	20.882748
1940.535149	-3.010100	3.302600	-9.940400	26.641275	0.000499	20.845267
1941.536051	-2.977200	3.303900	-9.835400	26.644848	0.000496	20.863557
1942.541623	-3.012000	3.300600	-9.940100	26.681987	0.000495	20.866754
1943.539716	-2.990300	3.301500	-9.871000	26.658405	0.000495	20.863909
1944.535759	-3.024100	3.299300	-9.976200	26.652770	0.000496	20.875313
1945.536970	-2.996700	3.301400	-9.892300	26.621613	0.000499	20.881924
1946.541650	-2.989000	3.300100	-9.862600	26.572783	0.000495	20.856547
1947.537010	-2.986800	3.300200	-9.855800	26.554191	0.000494	20.890487
1948.537832	-2.992700	3.299300	-9.872300	26.561415	0.000495	20.874990
1949.536413	-2.987600	3.299600	-9.857000	26.535447	0.000493	20.829449
1950.536366	-3.001700	3.299300	-9.902900	26.558365	0.000492	20.868605
1951.539929	-3.019400	3.298400	-9.958700	26.598231	0.000495	20.886868
1952.539566	-3.003900	3.298600	-9.907800	26.608240	0.000491	20.874170
1953.538942	-3.015100	3.296200	-9.937700	26.628200	0.000492	20.889019
1954.539662	-2.997800	3.295900	-9.879000	26.694752	0.000490	20.874845
1955.542195	-2.984500	3.297900	-9.840500	26.678220	0.000491	20.886673
1956.539989	-3.003700	3.296800	-9.901200	26.652800	0.000488	20.885301
1957.539592	-2.992200	3.296200	-9.862600	26.646175	0.000488	20.897131
1958.540453	-3.004000	3.297600	-9.905200	26.650397	0.000489	20.873402
1959.540383	-2.999500	3.296100	-9.884100	26.633889	0.000490	20.888100
1960.542019	-2.993000	3.297100	-9.867200	26.633689	0.000488	20.880313
1961.549097	-3.017600	3.295100	-9.941500	26.622371	0.000485	20.886479
1962.541658	-3.016300	3.295300	-9.938200	26.647618	0.000486	20.887203
1963.543465	-2.994200	3.294200	-9.862700	26.652088	0.000486	20.884110
1964.541790	-3.003000	3.295200	-9.895000	26.678920	0.000485	20.889748
1965.547207	-2.994100	3.295100	-9.863700	26.704887	0.000486	20.886930
1966.543874	-3.012700	3.292500	-9.918600	26.730132	0.000486	20.886232
1967.542734	-2.994200	3.292800	-9.858400	26.729885	0.000484	20.891673
1968.548766	-3.000000	3.293600	-9.879500	26.728396	0.000482	20.869789
1969.544966	-2.989700	3.292000	-9.840800	26.695382	0.000483	20.899658
1970.547499	-3.000500	3.291800	-9.875700	26.644570	0.000483	20.893621
1971.550378	-3.031900	3.290000	-9.974100	26.663436	0.000483	20.906422
1972.548433	-2.994700	3.291300	-9.855200	26.645412	0.000482	20.893046
1973.549246	-2.972200	3.292500	-9.785300	26.653929	0.000480	20.890702
1974.552338	-2.975900	3.291300	-9.793300	26.680539	0.000480	20.907969
1975.549035	-3.002100	3.289500	-9.874300	26.693100	0.000479	20.888356
1976.547873	-2.969000	3.291000	-9.770400	26.728299	0.000479	20.889605
1977.552677	-3.015000	3.289300	-9.915300	26.776972	0.000478	20.880694
1978.551207	-2.990000	3.290900	-9.838800	26.803280	0.000476	20.897661
1979.552273	-2.996400	3.289900	-9.856800	26.802611	0.000477	20.892721
1980.551938	-3.010300	3.289000	-9.900000	26.821995	0.000476	20.894667
1981.555893	-2.988700	3.289100	-9.828900	26.827481	0.000476	20.890226
1982.553740	-3.006300	3.287400	-9.881900	26.878657	0.000474	20.900431
1983.553461	-3.014900	3.288400	-9.912800	26.881561	0.000474	20.886756
1984.553411	-3.023000	3.287100	-9.934500	26.870540	0.000475	20.898907
1985.552701	-2.999700	3.287500	-9.859800	26.823705	0.000475	20.891170
1986.554856	-3.006700	3.285500	-9.876800	26.819265	0.000475	20.890025
1987.556864	-2.986800	3.286000	-9.814000	26.808315	0.000476	20.896085
1988.556922	-2.991900	3.286400	-9.832300	26.791834	0.000474	20.883309
1989.554408	-3.001300	3.285100	-9.858200	26.814197	0.000474	20.901524
1990.562074	-3.008700	3.285700	-9.884500	26.822685	0.000473	20.887775
1991.554605	-2.988400	3.284600	-9.815000	26.848198	0.000472	20.880236
1992.558158	-2.990900	3.283300	-9.819100	26.857157	0.000469	20.892563
1993.560634	-2.989000	3.283800	-9.814600	26.855916	0.000470	20.887996
1994.553594	-3.031100	3.281800	-9.947100	26.824121	0.000469	20.889218
1995.554591	-3.011200	3.282300	-9.883000	26.820099	0.000470	20.877114
1996.559352	-2.992600	3.283200	-9.824800	26.804833	0.000466	20.881680
1997.554842	-3.020300	3.282800	-9.914200	26.826104	0.000466	20.892634
1998.555683	-2.992700	3.281800	-9.821200	26.829007	0.000467	20.888441
1999.558656	-3.002300	3.282400	-9.852600	26.846503	0.000465	20.882800
2000.559561	-2.994100	3.282700	-9.827800	26.863580	0.000466	20.879582
2001.558946	-2.981700	3.281700	-9.783500	26.862013	0.000465	20.891282
2002.557987	-3.000200	3.281900	-9.844600	26.824362	0.000467	20.909847
2003.560838	-3.008900	3.280100	-9.868300	26.796114	0.000465	20.890930
2004.562915	-3.019800	3.280100	-9.903900	26.785344	0.000463	20.899067
2005.559624	-3.024000	3.279700	-9.916900	26.771939	0.000464	20.885117
2006.560865	-2.999600	3.277900	-9.832100	26.767048	0.000462	20.883044
2007.561450	-2.977600	3.281100	-9.769000	26.774769	0.000462	20.879427
2008.560784	-2.986200	3.279100	-9.791000	26.778739	0.000462	20.872514
2009.560845	-2.996800	3.278700	-9.823300	26.744287	0.000459	20.879127
2010.560909	-2.981900	3.278300	-9.773300	26.741433	0.000460	20.892851
2011.561954	-3.006200	3.278300	-9.853000	26.748087	0.000460	20.865404
2012.562242	-2.984300	3.277800	-9.779900	26.720780	0.000458	20.888684
2013.567813	-2.983400	3.278300	-9.779600	26.718894	0.000457	20.880624
2014.567843	-3.017000	3.278500	-9.890800	26.718622	0.000455	20.891255
2015.567963	-3.014100	3.276000	-9.874000	26.715695	0.000455	20.872667
2016.574605	-2.999200	3.276400	-9.825300	26.765985	0.000454	20.868700
2017.570693	-3.007200	3.274300	-9.845000	26.757768	0.000454	20.888887
2018.568867	-2.996700	3.276600	-9.818300	26.773282	0.000452	20.868924
2019.573866	-3.009900	3.273700	-9.852700	26.810142	0.000453	20.877061
2020.571346	-2.999000	3.274600	-9.819500	26.839926	0.000451	20.862911
2021.568330	-2.996300	3.274800	-9.810400	26.844394	0.000451	20.867404
2022.572557	-3.003100	3.273900	-9.830600	26.876512	0.000451	20.861292
2023.569857	-2.989100	3.274100	-9.785900	26.902050	0.000450	20.877487
2024.571214	-2.993900	3.272800	-9.797000	26.882965	0.000451	20.868729
2025.573302	-3.000300	3.272100	-9.816300	26.878452	0.000450	20.861820
2026.570982	-3.015900	3.272700	-9.868500	26.869146	0.000449	20.858153
2027.572328	-3.011400	3.271800	-9.851400	26.811590	0.000449	20.884205
2028.572078	-3.004900	3.273100	-9.833900	26.773195	0.000448	20.846553
2029.574276	-2.970800	3.272600	-9.720100	26.769597	0.000446	20.854315
2030.569948	-2.986500	3.271700	-9.769900	26.799382	0.000445	20.857234
2031.571899	-3.001400	3.271000	-9.816600	26.810828	0.000446	20.855466
2032.572614	-2.985000	3.270200	-9.760500	26.848257	0.000443	20.858012
2033.578403	-3.016100	3.268800	-9.858500	26.866127	0.000444	20.850377
2034.570458	-3.035700	3.268700	-9.921000	26.914948	0.000444	20.872439
2035.574912	-3.013600	3.268500	-9.848700	26.913434	0.000442	20.859538
2036.571716	-3.012600	3.269000	-9.847500	26.913684	0.000442	20.856944
2037.573619	-2.987100	3.268600	-9.763000	26.923116	0.000441	20.848412
2038.572567	-2.992200	3.268400	-9.778700	26.906862	0.000442	20.846292
2039.572684	-2.979900	3.269700	-9.742300	26.952131	0.000439	20.861940
2040.572736	-2.982900	3.269000	-9.750300	26.933842	0.000440	20.858248
2041.577529	-3.000100	3.267000	-9.799500	26.931285	0.000438	20.851410
2042.575094	-3.001700	3.268300	-9.808300	26.887036	0.000440	20.862391
2043.577056	-2.994900	3.265000	-9.777100	26.834520	0.000436	20.830925
2044.572758	-3.017700	3.266600	-9.856700	26.803124	0.000437	20.836341
2045.574394	-3.022100	3.266600	-9.870100	26.784087	0.000435	20.830478
2046.573802	-3.007500	3.265600	-9.819200	26.778729	0.000437	20.834099
2047.573327	-3.013600	3.265300	-9.838600	26.764158	0.000437	20.835571
2048.577509	-3.013800	3.263300	-9.833000	26.742190	0.000435	20.847623
2049.574146	-2.997700	3.263600	-9.780800	26.737205	0.000435	20.849723
2050.576177	-3.012200	3.264000	-9.829900	26.754605	0.000435	20.832130
2051.575443	-3.025200	3.262800	-9.869500	26.772452	0.000433	20.829210
2052.576402	-3.026900	3.262700	-9.875100	26.769152	0.000433	20.837747
2053.575768	-3.001800	3.263600	-9.794600	26.769997	0.000430	20.834803
2054.574831	-2.990400	3.261700	-9.752900	26.798542	0.000429	20.823200
2055.577454	-2.993000	3.260300	-9.757000	26.775607	0.000431	20.825270
2056.575438	-2.978700	3.263100	-9.718200	26.794322	0.000429	20.822751
2057.577279	-3.013300	3.261100	-9.825000	26.805344	0.000429	20.827194
2058.578391	-2.993300	3.260500	-9.757600	26.824555	0.000428	20.815216
2059.577140	-3.025400	3.260200	-9.862600	26.874344	0.000428	20.842992
2060.578222	-2.989900	3.260200	-9.747000	26.918844	0.000428	20.829892
2061.579731	-2.982100	3.259600	-9.718600	26.920207	0.000428	20.837900
2062.585056	-3.004600	3.260100	-9.794200	26.955399	0.000425	20.825873
2063.577965	-2.994900	3.259700	-9.762300	26.967883	0.000424	20.823728
2064.580321	-3.013000	3.258200	-9.815500	26.986346	0.000425	20.818587
2065.579712	-3.002300	3.259300	-9.784300	26.947484	0.000423	20.829768
2066.577683	-2.997000	3.257900	-9.762900	26.925122	0.000424	20.815342
2067.584692	-2.991600	3.257400	-9.744000	26.886828	0.000424	20.817614
2068.578363	-2.991500	3.258300	-9.746000	26.862703	0.000421	20.839348
2069.579505	-3.008900	3.258300	-9.803100	26.883330	0.000422	20.826424
2070.578448	-3.001200	3.255200	-9.768400	26.903930	0.000421	20.819163
2071.588742	-2.996500	3.256900	-9.757700	26.917182	0.000419	20.831540
2072.579345	-2.979700	3.256000	-9.701100	26.937806	0.000418	20.824304
2073.586178	-3.004200	3.254100	-9.774600	26.895716	0.000419	20.817067
2074.592508	-2.994800	3.254600	-9.745900	26.906885	0.000417	20.811228
2075.579954	-2.975700	3.256400	-9.688200	26.868592	0.000420	20.800700
2076.580217	-3.000200	3.253200	-9.759400	26.871543	0.000417	20.801296
2077.581681	-3.003500	3.253300	-9.770700	26.835680	0.000417	20.831617
2078.583381	-3.008200	3.253200	-9.784200	26.785819	0.000415	20.815150
2079.579975	-3.023500	3.253600	-9.836000	26.772464	0.000414	20.815473
2080.581322	-2.980800	3.252100	-9.692800	26.787656	0.000415	20.821738
2081.583025	-2.990500	3.252800	-9.726600	26.752809	0.000413	20.806618
2082.581189	-3.009500	3.252500	-9.787800	26.717638	0.000410	20.832422
2083.582926	-2.992700	3.252200	-9.731600	26.713789	0.000412	20.834242
2084.584001	-3.006300	3.250900	-9.771900	26.743604	0.000410	20.804475
2085.582919	-3.004500	3.250700	-9.765800	26.769938	0.000412	20.823838
2086.583907	-3.008000	3.249100	-9.771700	26.820252	0.000409	20.807570
2087.583521	-3.010600	3.249600	-9.781800	26.829957	0.000409	20.817328
2088.584628	-2.979600	3.252500	-9.689800	26.847210	0.000409	20.817132
2089.585007	-3.000800	3.248300	-9.746700	26.900074	0.000409	20.814337
2090.584515	-2.993400	3.248600	-9.723300	26.927326	0.000405	20.798593
2091.586121	-3.013900	3.247400	-9.786400	26.949986	0.000407	20.816163
2092.586275	-3.006000	3.248100	-9.762500	26.990191	0.000405	20.809177
2093.584000	-3.000700	3.248000	-9.744800	27.007836	0.000405	20.813171
2094.587809	-2.976600	3.248000	-9.667700	27.045357	0.000404	20.805860
2095.585205	-2.999400	3.246500	-9.736600	27.067445	0.000401	20.816219
2096.586429	-3.008300	3.245600	-9.762400	27.079483	0.000404	20.801773
2097.584992	-2.994500	3.245200	-9.716300	27.096332	0.000403	20.802123
2098.586357	-3.003700	3.245500	-9.748000	27.094123	0.000401	20.804643
2099.590595	-3.029000	3.245400	-9.829300	27.094870	0.000402	20.819145
2100.587955	-3.025800	3.244400	-9.815800	27.097502	0.000401	20.794291
2101.589827	-2.999300	3.245100	-9.732500	27.052043	0.000400	20.791721
2102.586355	-3.019100	3.243900	-9.792400	27.063635	0.000402	20.800534
2103.587419	-3.005200	3.243500	-9.746300	27.090829	0.000397	20.802753
2104.588272	-3.018400	3.242000	-9.784900	27.126536	0.000398	20.791249
2105.588898	-3.013900	3.241700	-9.768600	27.110509	0.000398	20.814959
2106.588470	-2.966500	3.243400	-9.620700	27.123487	0.000397	20.796244
2107.588560	-3.002800	3.241500	-9.732900	27.142992	0.000396	20.800687
2108.588553	-3.012600	3.240100	-9.760300	27.155177	0.000395	20.801563
2109.592482	-3.006300	3.240900	-9.742000	27.190161	0.000394	20.813516
2110.592604	-3.001100	3.241100	-9.724600	27.202243	0.000394	20.817133
2111.590232	-2.992700	3.241900	-9.700700	27.165548	0.000392	20.793028
2112.589814	-3.002400	3.240500	-9.728200	27.172992	0.000391	20.795300
2113.588119	-3.009700	3.240700	-9.752300	27.186567	0.000390	20.778607
2114.589500	-3.009000	3.239200	-9.745900	27.173839	0.000390	20.780504
2115.592204	-3.005100	3.238900	-9.732300	27.200014	0.000391	20.768898
2116.590221	-3.026800	3.239500	-9.803400	27.185676	0.000389	20.797625
2117.593887	-2.992500	3.238800	-9.691100	27.178409	0.000392	20.785101
2118.590266	-2.997200	3.239000	-9.707000	27.159427	0.000387	20.792087
2119.592583	-2.982700	3.237300	-9.654900	27.151661	0.000387	20.801820
2120.593202	-3.020200	3.237200	-9.776500	27.113971	0.000386	20.788095
2121.592937	-2.975700	3.237400	-9.631900	27.088588	0.000386	20.787223
2122.592905	-3.005700	3.236600	-9.727000	27.117720	0.000385	20.782857
2123.590820	-3.006800	3.233600	-9.721900	27.134766	0.000386	20.778189
2124.596998	-2.999300	3.234800	-9.701200	27.178313	0.000385	20.777417
2125.594472	-2.996400	3.233100	-9.686700	27.166850	0.000385	20.789122
2126.592067	-2.992100	3.235500	-9.679300	27.104894	0.000385	20.781337
2127.597019	-2.984400	3.233900	-9.649600	27.100774	0.000383	20.780987
2128.596336	-2.994500	3.234300	-9.684100	27.051841	0.000382	20.784880
2129.590446	-3.007600	3.234100	-9.726400	27.010794	0.000382	20.800974
2130.595459	-3.006400	3.232600	-9.717800	26.960395	0.000380	20.774473
2131.591928	-3.006000	3.231400	-9.712300	26.950468	0.000380	20.782509
2132.593443	-2.991500	3.232200	-9.667300	26.989826	0.000378	20.783206
2133.596489	-2.987300	3.231200	-9.651300	26.978164	0.000378	20.794713
2134.596042	-3.009000	3.231600	-9.722200	26.925776	0.000378	20.791818
2135.594116	-2.991500	3.230500	-9.662600	26.950246	0.000378	20.793665
2136.597823	-3.000700	3.229700	-9.690600	26.987446	0.000375	20.783658
2137.597157	-3.015300	3.227900	-9.731500	27.029234	0.000375	20.784904
2138.594954	-2.994200	3.230600	-9.672000	27.060898	0.000374	20.774547
2139.598979	-3.012000	3.227400	-9.720100	27.072388	0.000373	20.771879
2140.596214	-3.011500	3.228400	-9.721500	27.073405	0.000375	20.780962
2141.601902	-3.009300	3.227200	-9.710500	27.104124	0.000373	20.773924
2142.595643	-3.018800	3.227000	-9.741200	27.104472	0.000374	20.778542
2143.598378	-2.996600	3.226300	-9.667300	27.124024	0.000373	20.791093
2144.597494	-2.983000	3.229100	-9.631300	27.093009	0.000373	20.780763
2145.598734	-2.992700	3.227900	-9.658100	27.100301	0.000370	20.762018
2146.600349	-3.006500	3.226200	-9.698700	27.096430	0.000371	20.770928
2147.600243	-3.011000	3.225500	-9.711300	27.110275	0.000370	20.772050
2148.599659	-3.006700	3.224200	-9.693500	27.156153	0.000370	20.779312
2149.597891	-3.004800	3.224100	-9.686100	27.141092	0.000369	20.782656
2150.600041	-2.981600	3.225500	-9.616300	27.119702	0.000367	20.751185
2151.599582	-3.016100	3.222800	-9.718900	27.104367	0.000366	20.751408
2152.599856	-3.026800	3.224300	-9.758100	27.092533	0.000363	20.768431
2153.600089	-2.995200	3.223100	-9.652000	27.116701	0.000366	20.750062
2154.603500	-3.011700	3.222500	-9.703600	27.156697	0.000363	20.766107
2155.600734	-2.986100	3.222100	-9.620700	27.191979	0.000363	20.759394
2156.602514	-2.969400	3.222100	-9.565700	27.227434	0.000364	20.752381
2157.603475	-3.008700	3.220000	-9.687200	27.252568	0.000363	20.764861
2158.601320	-2.993500	3.219500	-9.637300	27.269313	0.000363	20.765109
2159.607499	-2.994000	3.220300	-9.640900	27.272662	0.000359	20.761840
2160.602199	-3.014900	3.219100	-9.704000	27.224978	0.000359	20.768404
2161.601282	-2.986300	3.218900	-9.611800	27.228971	0.000359	20.754402
2162.602912	-2.998100	3.218500	-9.648500	27.218205	0.000360	20.749737
2163.605399	-2.994900	3.218600	-9.638100	27.230585	0.000359	20.761716
2164.601890	-2.982900	3.220500	-9.605400	27.219620	0.000358	20.765385
2165.603506	-2.997100	3.217900	-9.643600	27.209372	0.000356	20.757922
2166.601447	-3.028700	3.216300	-9.739800	27.211334	0.000356	20.758473
2167.603838	-2.975100	3.218500	-9.574900	27.198581	0.000357	20.764138
2168.605735	-3.000000	3.217800	-9.652100	27.177913	0.000355	20.770851
2169.604483	-3.007000	3.218100	-9.675000	27.232026	0.000354	20.765536
2170.606381	-2.996500	3.217900	-9.641600	27.261228	0.000353	20.752709
2171.604281	-3.013000	3.214000	-9.683000	27.261327	0.000353	20.770352
2172.603410	-3.004500	3.214100	-9.655600	27.286584	0.000352	20.760670
2173.607821	-2.971500	3.215900	-9.553800	27.315562	0.000352	20.763741
2174.606368	-2.996700	3.212700	-9.626500	27.314495	0.000351	20.746072
2175.605573	-2.975900	3.213200	-9.560800	27.308121	0.000350	20.737763
2176.602928	-3.008400	3.211600	-9.660800	27.288496	0.000352	20.764491
2177.605490	-3.000400	3.211200	-9.633600	27.259868	0.000347	20.772678
2178.603869	-2.988600	3.213600	-9.603200	27.209976	0.000347	20.749520
2179.606374	-2.980700	3.213000	-9.575000	27.206402	0.000346	20.746874
2180.603336	-2.974200	3.211000	-9.549200	27.207197	0.000347	20.746725
2181.605028	-3.008100	3.210400	-9.655300	27.198067	0.000345	20.745129
2182.609633	-2.977700	3.208800	-9.554000	27.225833	0.000345	20.738917
2183.603910	-3.011200	3.209700	-9.664600	27.253100	0.000348	20.754490
2184.609774	-3.006700	3.208800	-9.646700	27.258209	0.000343	20.756310
2185.605456	-3.003000	3.208900	-9.634900	27.224044	0.000344	20.765568
2186.608762	-2.972600	3.208300	-9.535600	27.154622	0.000342	20.747425
2187.605332	-3.003800	3.208500	-9.635900	27.175987	0.000341	20.734774
2188.606099	-3.003300	3.207800	-9.633800	27.209455	0.000340	20.760377
2189.609642	-2.993200	3.207800	-9.600800	27.228857	0.000341	20.750494
2190.606496	-3.002500	3.206600	-9.626800	27.228385	0.000339	20.763770
2191.606493	-2.988700	3.206400	-9.581400	27.206005	0.000341	20.746000
2192.607197	-2.992400	3.205200	-9.590400	27.196653	0.000336	20.759354
2193.606899	-3.012300	3.204700	-9.652800	27.154050	0.000339	20.726934
2194.610223	-3.006200	3.203800	-9.630400	27.149583	0.000336	20.753262
2195.608169	-3.018000	3.203100	-9.665300	27.119186	0.000335	20.754459
2196.606120	-3.002000	3.204200	-9.618200	27.154544	0.000336	20.754459
2197.606473	-3.033900	3.200800	-9.709700	27.217736	0.000335	20.749739
2198.605772	-3.016200	3.202800	-9.659500	27.157420	0.000334	20.777266
2199.607786	-3.037300	3.201100	-9.721600	27.122284	0.000335	20.756626
2200.609492	-3.010400	3.200000	-9.632500	27.078239	0.000333	20.771599
2201.606491	-3.003700	3.201100	-9.614000	27.036030	0.000332	20.741952
2202.606793	-3.004600	3.200600	-9.615200	27.049504	0.000333	20.754079
2203.607796	-2.978600	3.200900	-9.532100	27.050444	0.000331	20.737007
2204.606149	-3.014700	3.201200	-9.649100	27.078659	0.000330	20.748787
2205.610304	-2.993100	3.199400	-9.574900	27.120890	0.000330	20.756172
2206.606822	-2.999000	3.199700	-9.594500	27.155204	0.000331	20.750855
2207.612726	-2.975800	3.199500	-9.519600	27.206712	0.000329	20.748608
2208.609507	-2.982400	3.199800	-9.541700	27.193165	0.000327	20.747310
2209.607866	-2.983900	3.198600	-9.543900	27.192992	0.000328	20.754723
2210.610754	-2.976200	3.198800	-9.519500	27.175002	0.000325	20.760336
2211.607493	-2.974700	3.197900	-9.512100	27.145203	0.000327	20.737476
2212.609898	-3.005000	3.196400	-9.604200	27.127634	0.000324	20.741618
2213.609653	-2.983200	3.196900	-9.536200	27.161131	0.000326	20.754919
2214.610077	-2.998100	3.194900	-9.576800	27.213258	0.000325	20.752822
2215.613464	-3.015300	3.195700	-9.635300	27.258041	0.000323	20.777478
2216.610288	-3.023200	3.194000	-9.655100	27.281610	0.000323	20.762779
2217.610477	-2.992100	3.194900	-9.558600	27.319369	0.000322	20.762355
2218.610183	-2.993600	3.194700	-9.562500	27.330654	0.000322	20.759483
2219.609659	-3.011200	3.192500	-9.612700	27.324699	0.000323	20.773882
2220.611561	-2.990800	3.193900	-9.550700	27.356949	0.000319	20.769339
2221.612921	-3.006500	3.193800	-9.601400	27.370070	0.000321	20.755985
2222.614350	-3.005600	3.192200	-9.593900	27.377461	0.000318	20.736393
2223.612104	-2.966500	3.192100	-9.468300	27.402940	0.000319	20.760129
2224.611866	-3.010000	3.190800	-9.603600	27.427917	0.000318	20.767239
2225.615154	-2.996400	3.191600	-9.562000	27.415764	0.000316	20.767815
2226.616203	-3.002800	3.189200	-9.575500	27.409707	0.000315	20.755082
2227.611752	-3.008400	3.189900	-9.595800	27.423649	0.000315	20.762944
2228.613868	-2.984500	3.188800	-9.515600	27.458301	0.000313	20.755132
2229.612087	-3.011200	3.188600	-9.600700	27.466587	0.000314	20.753036
2230.611840	-2.980000	3.189000	-9.502200	27.458474	0.000313	20.750564
2231.614593	-3.011200	3.185700	-9.590200	27.440613	0.000312	20.760571
2232.611403	-2.998200	3.186600	-9.553100	27.441830	0.000314	20.734293
2233.617800	-3.036100	3.185200	-9.669900	27.454032	0.000311	20.750837
2234.613245	-3.023800	3.185300	-9.629700	27.426548	0.000309	20.768232
2235.612969	-2.987600	3.185100	-9.514500	27.433025	0.000311	20.765740
2236.621350	-2.996800	3.183600	-9.539500	27.406259	0.000310	20.754459
2237.613719	-3.006900	3.184900	-9.575500	27.348431	0.000311	20.752709
2238.614819	-2.994100	3.183900	-9.532400	27.314372	0.000310	20.769657
2239.616010	-3.021800	3.182700	-9.616400	27.330226	0.000308	20.760474
2240.615565	-3.019300	3.182700	-9.608000	27.346375	0.000307	20.751115
2241.616693	-3.028200	3.182100	-9.635500	27.387433	0.000308	20.757331
2242.617061	-3.019300	3.180700	-9.602500	27.399737	0.000308	20.741733
2243.616804	-2.985500	3.182200	-9.500100	27.436776	0.000305	20.753391
2244.616253	-3.006400	3.180100	-9.559900	27.473808	0.000305	20.783536
2245.617178	-2.992700	3.179500	-9.514500	27.525526	0.000305	20.766817
2246.614256	-2.990800	3.179700	-9.509000	27.548719	0.000304	20.762176
2247.618069	-2.986000	3.180800	-9.496500	27.572503	0.000306	20.767142
2248.616910	-2.981900	3.178600	-9.476700	27.558146	0.000305	20.754592
2249.618716	-2.996400	3.179800	-9.527100	27.553505	0.000302	20.777424
2250.617058	-3.003400	3.178200	-9.544100	27.549466	0.000301	20.766722
2251.617984	-3.017600	3.178900	-9.591800	27.538256	0.000302	20.769668
2252.618418	-3.002800	3.176200	-9.536800	27.575584	0.000301	20.761233
2253.622650	-3.010600	3.177100	-9.564100	27.595127	0.000300	20.788483
2254.619064	-2.993900	3.174500	-9.503400	27.584513	0.000300	20.776855
2255.619414	-2.989700	3.175700	-9.493200	27.596617	0.000300	20.777654
2256.618560	-3.022900	3.173400	-9.591600	27.638036	0.000297	20.749629
2257.618817	-2.989900	3.174300	-9.489600	27.602696	0.000296	20.769072
2258.619972	-2.997100	3.174600	-9.513700	27.588236	0.000297	20.732710
2259.618933	-2.989900	3.174100	-9.489600	27.565841	0.000296	20.786991
2260.622101	-2.999600	3.172300	-9.513300	27.549968	0.000297	20.771969
2261.624046	-3.000900	3.173000	-9.519200	27.535088	0.000296	20.751781
2262.621699	-2.996300	3.172700	-9.504900	27.543398	0.000294	20.771996
2263.623351	-3.006500	3.169500	-9.527800	27.591665	0.000293	20.791637
2264.620343	-2.988400	3.172500	-9.479600	27.624427	0.000294	20.767704
2265.620442	-2.989300	3.171900	-9.480700	27.643996	0.000292	20.774593
2266.621422	-2.994700	3.168500	-9.488200	27.629812	0.000294	20.761743
2267.621772	-3.031600	3.168300	-9.603900	27.609376	0.000291	20.761569
2268.622643	-2.998600	3.169900	-9.503700	27.605012	0.000291	20.769031
2269.626093	-2.996300	3.168800	-9.494100	27.618083	0.000290	20.758475
2270.622696	-2.980700	3.168300	-9.442800	27.621680	0.000289	20.764466
2271.622146	-3.021700	3.167200	-9.568500	27.628230	0.000289	20.799032
2272.623505	-3.025700	3.166200	-9.578800	27.636265	0.000289	20.770133
2273.624202	-2.998700	3.166400	-9.494300	27.632895	0.000287	20.785234
2274.627129	-3.007300	3.164500	-9.516000	27.623818	0.000286	20.767092
2275.624022	-3.003500	3.166400	-9.509100	27.628434	0.000285	20.760830
2276.627735	-2.999700	3.164400	-9.490800	27.558617	0.000286	20.769765
2277.626486	-2.980300	3.164900	-9.431400	27.529724	0.000286	20.782895
2278.625713	-2.998200	3.162900	-9.481400	27.494951	0.000283	20.770194
2279.632119	-3.008600	3.162900	-9.515000	27.475529	0.000284	20.759189
2280.628519	-3.000800	3.162200	-9.488800	27.435471	0.000284	20.782899
2281.624365	-3.003900	3.160500	-9.492400	27.473945	0.000282	20.765182
2282.625869	-2.980800	3.162000	-9.424900	27.470076	0.000283	20.786420
2283.624532	-2.998700	3.160300	-9.476600	27.444505	0.000281	20.775866
2284.625494	-2.988300	3.159100	-9.439100	27.440712	0.000280	20.795758
2285.626255	-3.001500	3.158600	-9.479100	27.412312	0.000280	20.782360
2286.629611	-3.002800	3.159200	-9.485700	27.455327	0.000280	20.763994
2287.627137	-2.986400	3.157900	-9.429600	27.500474	0.000279	20.775751
2288.625893	-2.988500	3.158800	-9.438800	27.534830	0.000278	20.782342
2289.625339	-2.973700	3.157300	-9.387800	27.550929	0.000280	20.779100
2290.626507	-2.975700	3.157600	-9.396200	27.530245	0.000276	20.775358
2291.625048	-3.006900	3.154400	-9.484200	27.487687	0.000278	20.762886
2292.624177	-2.984300	3.155400	-9.415600	27.480793	0.000278	20.773968
2293.628914	-3.010800	3.152900	-9.489800	27.514927	0.000275	20.766584
2294.627476	-3.005600	3.153600	-9.477200	27.486924	0.000275	20.769231
2295.630785	-2.987000	3.153100	-9.417600	27.458227	0.000272	20.798681
2296.631260	-3.015200	3.153300	-9.507100	27.435484	0.000273	20.786231
2297.628781	-3.003600	3.151800	-9.465800	27.413159	0.000273	20.768513
2298.628396	-2.999500	3.151200	-9.450800	27.435089	0.000272	20.779669
2299.628516	-3.001300	3.150300	-9.454500	27.477535	0.000272	20.788234
2300.629407	-3.025800	3.149100	-9.527500	27.484310	0.000272	20.801215
2301.633287	-3.023200	3.147400	-9.514500	27.497161	0.000271	20.785694
2302.631846	-3.014900	3.147000	-9.485800	27.490913	0.000271	20.768028
2303.632919	-2.998000	3.147700	-9.435400	27.437484	0.000271	20.788243
2304.631973	-2.987700	3.147100	-9.401500	27.396334	0.000269	20.781933
2305.631683	-2.996700	3.146800	-9.428500	27.383512	0.000269	20.768559
2306.633651	-3.014000	3.145600	-9.480300	27.388398	0.000268	20.787225
2307.630394	-2.994300	3.145400	-9.416900	27.447764	0.000268	20.780567
2308.632799	-2.994900	3.143700	-9.414600	27.487626	0.000268	20.784636
2309.632239	-3.005900	3.144000	-9.449100	27.549910	0.000267	20.780920
2310.631701	-2.990400	3.144800	-9.402800	27.604108	0.000265	20.789459
2311.633411	-3.015200	3.142500	-9.474600	27.548901	0.000268	20.800767
2312.633982	-2.989600	3.144900	-9.401200	27.570356	0.000267	20.780155
2313.635057	-3.010200	3.141000	-9.454500	27.563463	0.000264	20.795504
2314.636796	-3.003400	3.140100	-9.430200	27.611260	0.000265	20.790966
2315.635211	-2.995400	3.138700	-9.401600	27.628945	0.000264	20.796907
2316.634029	-3.009500	3.139000	-9.445200	27.634331	0.000265	20.804697
2317.638134	-3.011300	3.138700	-9.450400	27.665482	0.000262	20.795266
2318.636047	-2.990100	3.137600	-9.380700	27.665460	0.000263	20.785286
2319.638046	-3.008200	3.136700	-9.434100	27.625259	0.000263	20.778025
2320.636529	-3.010000	3.135500	-9.436700	27.673399	0.000261	20.785214
2321.638302	-3.012600	3.134000	-9.440700	27.687338	0.000261	20.779800
2322.639099	-2.976900	3.136300	-9.335100	27.706612	0.000262	20.784496
2323.643663	-2.994700	3.134100	-9.384800	27.685310	0.000259	20.791510
2324.638962	-2.964200	3.133900	-9.287900	27.700689	0.000261	20.788493
2325.638798	-2.997900	3.134500	-9.395300	27.730176	0.000261	20.782605
2326.641049	-3.003300	3.132400	-9.405700	27.763856	0.000259	20.787101
2327.640827	-2.987700	3.133100	-9.360100	27.766636	0.000259	20.791321
2328.641621	-3.015600	3.129400	-9.436100	27.755257	0.000258	20.783662
2329.640230	-3.010900	3.132000	-9.428900	27.766765	0.000258	20.788605
2330.642153	-3.005200	3.129900	-9.405100	27.765726	0.000259	20.802733
2331.640419	-3.012500	3.128700	-9.424200	27.764389	0.000260	20.792379
2332.641429	-3.010800	3.128600	-9.417700	27.726252	0.000257	20.799992
2333.644797	-3.019100	3.127200	-9.440600	27.678661	0.000258	20.790509
2334.641342	-3.012600	3.127000	-9.419400	27.716954	0.000256	20.774989
2335.648338	-2.979500	3.127300	-9.316400	27.728415	0.000257	20.795531
2336.642673	-2.995000	3.125300	-9.359800	27.690599	0.000256	20.782134
2337.641657	-2.968200	3.126300	-9.278400	27.645788	0.000256	20.778293
2338.641644	-3.002600	3.123600	-9.378300	27.692139	0.000257	20.784631
2339.643763	-2.989500	3.122700	-9.334000	27.693607	0.000256	20.794169
2340.653346	-2.980500	3.124500	-9.310700	27.660376	0.000254	20.788705
2341.642331	-2.990200	3.122800	-9.335900	27.631408	0.000255	20.817876
2342.645339	-2.982500	3.122200	-9.311100	27.651650	0.000253	20.806951
2343.644989	-3.016200	3.119300	-9.407700	27.690935	0.000255	20.795748
2344.646885	-2.988900	3.120300	-9.325300	27.719530	0.000254	20.783271
2345.644425	-3.034500	3.116600	-9.455700	27.748619	0.000256	20.796423
2346.644656	-2.988500	3.117800	-9.316500	27.806026	0.000254	20.795400
2347.643912	-2.998800	3.116800	-9.345800	27.844312	0.000252	20.807378
2348.642901	-3.015100	3.114700	-9.389200	27.879421	0.000255	20.786290
2349.644937	-3.018300	3.115100	-9.401000	27.911853	0.000251	20.781474
2350.645773	-2.988300	3.115000	-9.307500	27.908778	0.000253	20.812043
2351.644285	-3.022100	3.112600	-9.405400	27.923557	0.000252	20.810797
2352.644533	-3.010100	3.114300	-9.373200	27.926139	0.000251	20.794904
2353.643877	-2.988800	3.113800	-9.304500	27.960427	0.000250	20.796699
2354.648933	-3.029000	3.110400	-9.420600	27.941335	0.000250	20.800715
2355.644591	-2.977400	3.110300	-9.259700	27.913417	0.000251	20.805807
2356.648757	-2.995300	3.108800	-9.310100	27.910566	0.000249	20.824748
2357.645792	-2.981100	3.108800	-9.267100	27.896208	0.000249	20.810298
2358.646595	-3.012400	3.108400	-9.362700	27.896578	0.000253	20.802609
2359.649234	-3.001900	3.106900	-9.325000	27.919018	0.000249	20.808125
2360.647981	-3.007000	3.106000	-9.339400	27.956831	0.000250	20.803037
2361.648042	-3.018800	3.104500	-9.371400	27.948845	0.000248	20.810645
2362.647865	-2.990800	3.105100	-9.284500	27.950011	0.000249	20.800914
2363.646074	-2.993900	3.104300	-9.292900	27.941233	0.000247	20.822898
2364.649907	-2.990000	3.104500	-9.280700	27.925392	0.000247	20.819282
2365.661951	-3.004200	3.102200	-9.317600	27.961887	0.000247	20.819505
2366.648361	-2.992100	3.101000	-9.277700	27.989529	0.000248	20.806552
2367.647106	-2.970400	3.102700	-9.214200	28.029495	0.000246	20.805055
2368.645926	-3.015700	3.098600	-9.343900	28.070051	0.000247	20.799886
2369.647823	-2.994700	3.099600	-9.281300	28.076199	0.000249	20.808920
2370.651735	-3.003000	3.099000	-9.305300	28.106248	0.000246	20.820677
2371.648737	-3.003700	3.096200	-9.298500	28.094591	0.000246	20.823166
2372.654012	-3.010900	3.097000	-9.323100	28.097937	0.000246	20.820845
2373.648861	-3.019900	3.095000	-9.344800	28.112415	0.000244	20.820721
2374.648728	-3.000300	3.094700	-9.283500	28.132791	0.000244	20.819423
2375.651627	-3.008600	3.094500	-9.309400	28.145755	0.000244	20.834369
2376.649598	-3.023200	3.092000	-9.346800	28.122550	0.000245	20.837562
2377.649395	-2.998600	3.091600	-9.270000	28.066127	0.000245	20.818221
2378.650006	-3.020600	3.091000	-9.334900	28.029137	0.000244	20.823660
2379.649813	-2.988800	3.090400	-9.235200	27.958527	0.000245	20.831296
2380.651570	-3.012400	3.088300	-9.302100	27.867480	0.000245	20.824532
2381.652229	-3.013900	3.088700	-9.308000	27.850917	0.000242	20.842000
2382.651850	-3.008900	3.086800	-9.285700	27.859942	0.000245	20.836859
2383.650472	-2.998600	3.086800	-9.254300	27.882432	0.000243	20.850011
2384.652707	-3.020200	3.085900	-9.318400	27.903553	0.000241	20.839026
2385.651472	-2.993400	3.086000	-9.236400	27.919272	0.000244	20.852476
2386.657969	-3.003600	3.084800	-9.265100	27.926957	0.000243	20.846461
2387.652833	-2.996600	3.084700	-9.242500	27.884457	0.000242	20.844463
2388.653792	-2.992500	3.083900	-9.227700	27.836480	0.000241	20.841695
2389.653553	-2.993700	3.081000	-9.223100	27.822940	0.000241	20.841345
2390.655030	-3.009600	3.080800	-9.270700	27.839775	0.000241	20.839796
2391.656893	-3.016900	3.079700	-9.290400	27.878259	0.000241	20.841543
2392.654288	-3.000300	3.079500	-9.238400	27.908160	0.000240	20.857413
2393.654057	-3.001500	3.078700	-9.239200	27.914211	0.000238	20.849752
2394.655576	-2.994200	3.078400	-9.216300	27.904939	0.000240	20.837102
2395.654220	-2.979300	3.076400	-9.163900	27.943369	0.000240	20.839272
2396.655443	-2.997900	3.075300	-9.218600	27.956956	0.000240	20.857689
2397.657184	-2.995700	3.074600	-9.209700	27.984626	0.000238	20.855194
2398.655241	-3.019100	3.073200	-9.276900	27.981104	0.000239	20.854494
2399.657953	-2.999400	3.072200	-9.213100	27.955444	0.000239	20.869442
2400.658102	-3.019900	3.069900	-9.269500	27.963874	0.000237	20.883142
2401.656586	-2.989500	3.070900	-9.179200	28.003444	0.000237	20.845686
2402.662522	-2.989700	3.069200	-9.175000	28.019556	0.000238	20.849102
2403.656631	-3.002400	3.070000	-9.216100	28.054790	0.000238	20.860387
2404.659709	-3.005600	3.067900	-9.219100	28.079032	0.000238	20.867246
2405.657818	-2.986500	3.068500	-9.162800	28.070852	0.000237	20.849529
2406.656999	-3.003800	3.065000	-9.204900	28.091555	0.000237	20.852352
2407.656491	-2.992200	3.066000	-9.171900	28.092546	0.000237	20.862358
2408.660930	-2.984600	3.063400	-9.140800	28.147133	0.000236	20.876532
2409.657459	-3.007600	3.062300	-9.208800	28.147429	0.000237	20.868770
2410.657204	-2.984100	3.062600	-9.138400	28.140391	0.000236	20.860263
2411.657260	-2.975100	3.061300	-9.106200	28.164261	0.000237	20.862482
2412.656729	-2.995300	3.058700	-9.161000	28.169814	0.000236	20.864279
2413.657490	-2.998000	3.057400	-9.164700	28.236174	0.000236	20.890309
2414.656348	-2.996400	3.057200	-9.159200	28.248194	0.000237	20.880601
2415.657659	-2.993300	3.055100	-9.144300	28.252854	0.000237	20.853526
2416.656957	-2.983700	3.055700	-9.116800	28.272363	0.000236	20.860365
2417.658344	-2.974900	3.054900	-9.086200	28.277346	0.000236	20.869174
2418.659914	-2.952400	3.053800	-9.014700	28.283317	0.000236	20.855747
2419.658450	-2.989800	3.052100	-9.124100	28.225761	0.000234	20.875559
2420.662663	-3.000000	3.051100	-9.151600	28.215501	0.000236	20.879928
2421.657138	-3.017800	3.049400	-9.201100	28.187317	0.000234	20.866253
2422.660316	-2.992500	3.048500	-9.121000	28.174428	0.000236	20.885044
2423.663646	-2.991400	3.046400	-9.111900	28.208861	0.000233	20.896001
2424.659655	-2.986000	3.048100	-9.101100	28.219419	0.000235	20.886717
2425.661497	-2.972500	3.046800	-9.055900	28.213223	0.000236	20.879057
2426.664153	-2.964500	3.045000	-9.025600	28.246116	0.000235	20.882301
2427.660226	-2.993300	3.044300	-9.111700	28.258363	0.000234	20.880407
2428.665518	-2.996900	3.042900	-9.118400	28.280845	0.000234	20.881231
2429.663917	-3.005400	3.039900	-9.134700	28.346053	0.000234	20.877187
2430.660513	-3.022500	3.039000	-9.184500	28.352695	0.000233	20.913744
2431.661627	-2.990400	3.040100	-9.090300	28.337949	0.000232	20.891786
2432.665282	-3.025000	3.036700	-9.184500	28.359958	0.000234	20.885972
2433.665287	-3.004800	3.035600	-9.120700	28.360106	0.000233	20.890862
2434.665838	-3.007300	3.035300	-9.127300	28.369798	0.000233	20.904413
2435.663734	-2.996000	3.035700	-9.093400	28.310466	0.000232	20.893037
2436.666579	-3.009800	3.032700	-9.127100	28.269616	0.000233	20.890314
2437.663594	-2.998900	3.031300	-9.089700	28.221804	0.000233	20.897651
2438.663789	-3.021200	3.029900	-9.151200	28.204255	0.000232	20.887571
2439.673410	-2.984600	3.031600	-9.047100	28.180484	0.000235	20.903942
2440.665245	-2.984900	3.028200	-9.038000	28.169104	0.000231	20.888693
2441.670504	-2.985200	3.027500	-9.036900	28.197711	0.000231	20.894258
2442.666675	-2.986100	3.026300	-9.035500	28.235711	0.000232	20.891739
2443.666545	-3.004900	3.025200	-9.088800	28.250234	0.000232	20.904463
2444.666486	-3.004400	3.023400	-9.081200	28.207352	0.000230	20.887370
2445.670153	-2.998800	3.021700	-9.060800	28.248522	0.000232	20.888043
2446.668326	-2.990100	3.021400	-9.033900	28.277400	0.000231	20.898150
2447.668455	-3.014900	3.019600	-9.102900	28.323723	0.000231	20.893109
2448.666755	-2.984700	3.018500	-9.008800	28.348432	0.000231	20.878635
2449.670509	-2.967600	3.016800	-8.951900	28.294921	0.000232	20.903462
2450.671731	-2.987400	3.016200	-9.008800	28.321987	0.000230	20.884250
2451.668514	-3.003100	3.015200	-9.053200	28.300969	0.000230	20.910500
2452.668285	-3.014500	3.013700	-9.084300	28.291153	0.000233	20.884024
2453.668340	-2.994400	3.011900	-9.018200	28.293084	0.000229	20.855149
2454.670865	-3.012000	3.010700	-9.066500	28.297571	0.000230	20.876736
2455.671053	-2.991600	3.011100	-9.007400	28.328950	0.000230	20.875140
2456.669254	-2.997100	3.008400	-9.015600	28.335590	0.000230	20.892729
2457.669911	-3.003300	3.007700	-9.032200	28.370436	0.000228	20.893203
2458.669698	-2.993900	3.006100	-8.999000	28.351748	0.000229	20.884818
2459.673243	-2.996900	3.006500	-9.009300	28.304884	0.000232	20.893580
2460.676103	-2.979500	3.005800	-8.954900	28.265227	0.000230	20.881154
2461.671791	-2.963100	3.006000	-8.905600	28.224871	0.000228	20.871344
2462.671526	-2.996500	3.002100	-8.994900	28.233871	0.000229	20.891783
2463.672109	-2.982400	3.001300	-8.949500	28.172845	0.000230	20.870175
2464.671304	-3.004100	2.997900	-9.004700	28.124533	0.000228	20.868005
2465.672654	-2.980900	2.998800	-8.938800	28.094290	0.000228	20.880707
2466.673250	-2.992400	2.996700	-8.966400	28.107010	0.000230	20.877865
2467.673607	-2.995500	2.993700	-8.966400	28.169526	0.000228	20.877739
2468.671387	-2.974100	2.994500	-8.905000	28.178601	0.000229	20.873124
2469.671018	-2.986400	2.992400	-8.935800	28.202253	0.000229	20.882237
2470.671145	-2.974200	2.991600	-8.896000	28.252221	0.000230	20.876594
2471.674500	-2.966600	2.990200	-8.870000	28.314313	0.000230	20.890746
2472.671883	-2.988600	2.988100	-8.929100	28.320213	0.000229	20.889574
2473.674115	-3.022200	2.985000	-9.019200	28.276244	0.000228	20.877548
2474.670381	-2.998900	2.985200	-8.951100	28.261401	0.000230	20.862130
2475.671843	-2.963900	2.986100	-8.849700	28.244425	0.000231	20.865901
2476.675374	-2.986100	2.983500	-8.907700	28.246681	0.000229	20.861060
2477.678451	-2.998400	2.982600	-8.942000	28.193463	0.000227	20.868172
2478.674896	-3.005900	2.980600	-8.959100	28.181817	0.000230	20.865457
2479.674660	-3.023100	2.978400	-9.003500	28.185311	0.000229	20.859966
2480.676323	-2.996500	2.976700	-8.918600	28.183826	0.000229	20.859894
2481.677878	-3.042200	2.973500	-9.044400	28.231544	0.000230	20.843451
2482.679104	-3.004200	2.975300	-8.938400	28.271624	0.000228	20.865785
2483.678945	-2.972800	2.974500	-8.841500	28.259979	0.000228	20.849793
2484.680955	-2.987700	2.972600	-8.880900	28.246494	0.000228	20.858027
2485.677942	-3.027700	2.969700	-8.990700	28.291660	0.000226	20.846130
2486.677456	-2.991400	2.970200	-8.884400	28.287644	0.000227	20.841138
2487.680917	-2.985900	2.968400	-8.862900	28.298006	0.000226	20.843511
2488.676967	-3.004700	2.965900	-8.910700	28.277236	0.000226	20.838720
2489.680437	-2.967400	2.965300	-8.798600	28.277039	0.000227	20.842314
2490.677409	-2.987700	2.961900	-8.848100	28.257780	0.000226	20.841890
2491.679570	-3.007400	2.962000	-8.907000	28.306861	0.000226	20.850055
2492.678738	-2.995400	2.959200	-8.862700	28.320419	0.000225	20.850430
2493.683741	-3.024300	2.956800	-8.941400	28.314548	0.000226	20.856847
2494.678245	-2.985600	2.956600	-8.826700	28.312095	0.000226	20.854851
2495.677448	-3.011400	2.954500	-8.896100	28.310981	0.000227	20.862263
2496.679566	-2.998400	2.954200	-8.856100	28.339337	0.000226	20.867581
2497.680247	-2.984800	2.953700	-8.815600	28.359438	0.000226	20.866009
2498.680819	-3.004600	2.950700	-8.863600	28.360828	0.000224	20.827582
2499.678969	-2.988200	2.949700	-8.813300	28.388389	0.000224	20.843480
2500.678962	-3.015900	2.947200	-8.887500	28.404301	0.000226	20.823467
2501.679335	-3.002400	2.945000	-8.841300	28.425197	0.000227	20.839766
2502.679500	-2.988000	2.945600	-8.800000	28.399400	0.000226	20.847454
2503.681337	-3.003900	2.943600	-8.841700	28.362074	0.000224	20.816034
2504.681264	-3.017800	2.942300	-8.878200	28.382549	0.000226	20.825746
2505.686535	-2.949500	2.942200	-8.676300	28.422005	0.000225	20.837500
2506.684738	-2.987600	2.939200	-8.779700	28.443544	0.000226	20.844965
2507.683990	-2.999400	2.937000	-8.808700	28.466690	0.000224	20.837453
2508.686079	-3.035500	2.933500	-8.902700	28.462851	0.000225	20.826002
2509.685097	-2.995600	2.934200	-8.788600	28.470585	0.000224	20.832841
2510.687366	-3.008700	2.931700	-8.818300	28.439955	0.000226	20.842773
2511.684842	-2.992100	2.931300	-8.769400	28.451261	0.000222	20.838512
2512.687115	-2.982700	2.930200	-8.739100	28.431734	0.000224	20.835918
2513.690706	-2.995600	2.927100	-8.767800	28.440258	0.000224	20.834545
2514.690286	-2.981600	2.926300	-8.723600	28.450817	0.000223	20.847073
2515.686922	-2.991100	2.924700	-8.746600	28.452208	0.000225	20.866965
2516.687034	-2.979000	2.924600	-8.711200	28.394986	0.000223	20.843484
2517.688402	-2.999700	2.921000	-8.759800	28.412014	0.000225	20.811320
2518.692588	-3.005300	2.919500	-8.773300	28.444756	0.000224	20.819160
2519.688718	-3.008200	2.917700	-8.775600	28.491865	0.000224	20.851900
2520.690822	-3.025200	2.915000	-8.817600	28.485849	0.000224	20.831143
2521.691756	-3.006500	2.913600	-8.758900	28.448008	0.000226	20.834288
2522.690644	-3.004200	2.913800	-8.752600	28.413413	0.000225	20.829797
2523.695251	-2.985100	2.912100	-8.691400	28.381024	0.000223	20.830848
2524.691885	-2.984400	2.911700	-8.687800	28.424347	0.000224	20.832747
2525.692959	-3.014800	2.908900	-8.768300	28.456787	0.000225	20.817525
2526.694147	-2.981100	2.906700	-8.664200	28.491635	0.000224	20.821798
2527.693566	-2.995600	2.903100	-8.695200	28.464699	0.000223	20.809845
2528.694788	-2.993500	2.903000	-8.689100	28.532576	0.000226	20.817508
2529.693663	-2.993200	2.901000	-8.682100	28.573314	0.000225	20.824871
2530.693858	-3.008700	2.899800	-8.723500	28.612938	0.000227	20.824000
2531.697427	-2.994600	2.897900	-8.676400	28.615741	0.000226	20.829668
2532.698614	-3.030100	2.895100	-8.770700	28.626371	0.000227	20.813348
2533.696615	-2.999400	2.893000	-8.676400	28.642230	0.000227	20.820312
2534.700178	-3.010200	2.892700	-8.706900	28.606774	0.000227	20.816844
2535.696696	-3.000700	2.890600	-8.672100	28.562672	0.000227	20.815576
2536.704219	-3.027600	2.887900	-8.742500	28.538538	0.000225	20.804072
2537.698813	-2.986300	2.887100	-8.620800	28.491430	0.000223	20.832496
2538.699518	-3.017000	2.885600	-8.705600	28.490122	0.000224	20.818377
2539.701066	-2.993600	2.884100	-8.632500	28.425787	0.000223	20.832775
2540.703822	-3.020600	2.881100	-8.701600	28.352754	0.000224	20.813288
2541.702036	-3.014400	2.879000	-8.677400	28.316641	0.000226	20.805850
2542.703267	-2.964000	2.877500	-8.526400	28.287792	0.000224	20.794821
2543.702398	-3.006200	2.875100	-8.641800	28.296816	0.000226	20.820502
2544.707587	-2.987500	2.873900	-8.584900	28.350900	0.000225	20.824698
2545.706081	-2.980700	2.873500	-8.563100	28.371173	0.000226	20.775411
2546.704632	-3.020700	2.870200	-8.668700	28.384607	0.000226	20.802689
2547.706873	-2.985200	2.869200	-8.563700	28.404310	0.000227	20.804037
2548.705890	-2.981600	2.866700	-8.547200	28.440543	0.000225	20.809702
2549.706786	-3.017500	2.862700	-8.637500	28.480097	0.000226	20.792161
2550.713336	-2.999700	2.862000	-8.584100	28.503070	0.000225	20.807234
2551.705257	-2.999600	2.859800	-8.577200	28.532310	0.000225	20.793059
2552.705436	-3.019500	2.856900	-8.625500	28.565941	0.000224	20.816497
2553.707956	-2.992800	2.855800	-8.546200	28.525921	0.000225	20.803695
2554.706911	-2.995900	2.853800	-8.548500	28.544806	0.000226	20.779565
2555.709036	-2.982000	2.852200	-8.504000	28.562106	0.000227	20.800307
2556.710636	-2.969200	2.850300	-8.461500	28.587403	0.000225	20.778843
2557.709069	-2.979100	2.848600	-8.483700	28.610179	0.000226	20.806049
2558.706901	-2.999900	2.846600	-8.538400	28.625395	0.000224	20.803830
2559.706716	-3.034200	2.842200	-8.622500	28.640260	0.000224	20.782766
2560.709959	-2.994300	2.841600	-8.507800	28.634537	0.000225	20.797865
2561.709492	-2.977700	2.840000	-8.455400	28.669973	0.000224	20.780451
2562.710531	-3.009400	2.836400	-8.534100	28.701116	0.000225	20.798543
2563.710102	-3.025900	2.835600	-8.579200	28.663336	0.000225	20.792732
2564.709981	-2.999700	2.832800	-8.497000	28.634250	0.000224	20.820809
2565.708918	-2.983700	2.831800	-8.448500	28.592996	0.000225	20.804390
2566.711267	-2.998800	2.829000	-8.481700	28.618763	0.000223	20.797151
2567.712374	-2.985800	2.827100	-8.440400	28.657468	0.000224	20.782554
2568.712741	-2.998000	2.824900	-8.468700	28.706577	0.000223	20.798353
2569.710758	-3.035700	2.822000	-8.564500	28.713392	0.000223	20.769181
2570.709081	-3.000800	2.819100	-8.459000	28.725259	0.000226	20.802472
2571.718929	-3.019400	2.817500	-8.505900	28.767230	0.000224	20.776470
2572.711131	-3.019800	2.814800	-8.497300	28.797580	0.000224	20.800878
2573.711003	-2.991600	2.813600	-8.416500	28.827858	0.000223	20.786808
2574.712738	-3.000500	2.811100	-8.432800	28.851515	0.000222	20.786458
2575.714462	-3.018700	2.807800	-8.475200	28.852432	0.000224	20.794494
2576.711728	-3.034500	2.804600	-8.509100	28.849534	0.000224	20.787781
2577.716029	-2.969100	2.804800	-8.326800	28.867272	0.000224	20.776253
2578.712965	-2.991400	2.803000	-8.384100	28.860113	0.000224	20.809344
2579.713551	-2.991200	2.798300	-8.369100	28.854763	0.000227	20.776454
2580.714465	-2.983100	2.797700	-8.344700	28.842033	0.000227	20.793502
2581.712399	-3.012100	2.793000	-8.412100	28.887713	0.000225	20.778354
2582.716085	-3.007400	2.789700	-8.388700	28.912113	0.000225	20.792504
2583.713287	-2.987600	2.788000	-8.326800	28.922815	0.000224	20.794276
2584.713320	-3.011600	2.786300	-8.390000	28.861627	0.000225	20.785739
2585.713293	-3.016800	2.782800	-8.394300	28.766943	0.000227	20.780449
2586.712616	-2.988900	2.779500	-8.307000	28.709643	0.000226	20.769673
2587.715835	-2.996900	2.778800	-8.326600	28.645294	0.000225	20.769819
2588.714474	-2.978900	2.775000	-8.265800	28.589123	0.000225	20.775360
2589.716103	-2.990800	2.770800	-8.285500	28.617721	0.000226	20.763859
2590.714931	-3.010700	2.769000	-8.336200	28.635660	0.000226	20.783823
2591.722733	-3.003700	2.766400	-8.308100	28.665589	0.000226	20.774139
2592.731107	-2.986800	2.765500	-8.256700	28.712295	0.000225	20.771396
2593.719175	-2.983000	2.761500	-8.236900	28.697031	0.000225	20.772617
2594.719520	-2.982100	2.758300	-8.224900	28.721039	0.000225	20.797747
2595.718090	-2.996100	2.756400	-8.257400	28.766899	0.000225	20.758593
2596.719162	-2.978000	2.753300	-8.198400	28.761525	0.000225	20.783051
2597.718676	-3.026000	2.747100	-8.311100	28.760980	0.000224	20.766855
2598.721100	-2.996300	2.747100	-8.229800	28.706074	0.000225	20.786467
2599.719854	-2.986000	2.744100	-8.193300	28.679518	0.000224	20.781530
2600.719687	-2.989500	2.741100	-8.193000	28.692650	0.000225	20.745443
2601.719551	-2.999800	2.737300	-8.209900	28.719239	0.000223	20.775071
2602.721625	-2.989100	2.734800	-8.173600	28.718023	0.000225	20.780485
2603.728322	-2.991400	2.731200	-8.169400	28.754666	0.000223	20.767134
2604.721367	-2.995800	2.726100	-8.165700	28.777833	0.000224	20.787625
2605.721738	-2.971500	2.723500	-8.091200	28.796689	0.000227	20.767264
2606.724344	-2.998500	2.721000	-8.157800	28.845416	0.000225	20.772253
2607.721900	-3.003900	2.717100	-8.159900	28.890675	0.000223	20.774699
2608.725133	-2.999300	2.712400	-8.134200	28.887752	0.000226	20.769384
2609.723383	-2.994500	2.710600	-8.115900	28.925829	0.000224	20.760328
2610.723746	-2.992100	2.707100	-8.099300	28.940812	0.000223	20.770682
2611.722913	-3.004600	2.702600	-8.119200	28.957558	0.000223	20.766216
2612.721957	-3.029300	2.700000	-8.178200	28.972991	0.000223	20.770385
2613.723681	-3.034900	2.695600	-8.179800	28.983815	0.000224	20.774178
2614.723621	-2.993400	2.693600	-8.059700	28.915425	0.000224	20.766442
2615.724791	-2.990200	2.690200	-8.042700	28.910100	0.000223	20.767716
2616.724279	-2.988900	2.686100	-8.027400	28.933187	0.000224	20.761577
2617.723665	-2.972200	2.681300	-7.967600	28.964495	0.000222	20.743806
2618.722803	-2.973200	2.676600	-7.956300	28.989788	0.000223	20.753643
2619.725747	-2.978300	2.671900	-7.957400	28.997518	0.000226	20.752896
2620.724319	-2.982300	2.669400	-7.959700	28.948450	0.000223	20.770790
2621.726948	-3.019900	2.663400	-8.041200	28.901610	0.000224	20.752998
2622.725831	-2.991600	2.661000	-7.959100	28.855884	0.000221	20.749607
2623.727050	-3.005200	2.657100	-7.983900	28.788501	0.000224	20.753326
2624.729681	-2.998200	2.653500	-7.954900	28.759640	0.000223	20.747013
2625.727403	-2.973500	2.650100	-7.879000	28.757213	0.000222	20.740774
2626.732857	-2.987400	2.644900	-7.899300	28.790313	0.000224	20.743297
2627.729567	-2.955900	2.641900	-7.808200	28.835623	0.000225	20.753853
2628.729365	-2.979200	2.636100	-7.853000	28.865525	0.000222	20.747465
2629.734803	-2.961700	2.631200	-7.792000	28.867958	0.000222	20.751813
2630.731154	-2.989900	2.625500	-7.848200	28.905657	0.000222	20.754231
2631.731441	-3.004400	2.620200	-7.870900	28.895207	0.000222	20.751289
2632.732977	-2.984600	2.616200	-7.806900	28.878067	0.000224	20.737340
2633.730682	-2.996800	2.611600	-7.824700	28.881263	0.000224	20.750992
2634.731786	-3.002800	2.606600	-7.826500	28.898948	0.000223	20.761222
2635.734350	-3.015500	2.601700	-7.844000	28.920678	0.000224	20.746603
2636.732206	-2.982700	2.597300	-7.745900	28.933262	0.000224	20.725141
2637.734395	-3.015600	2.590900	-7.811900	28.966748	0.000223	20.741335
2638.733776	-3.011900	2.584900	-7.785100	29.022929	0.000226	20.757162
2639.733320	-3.003100	2.579800	-7.746700	29.027485	0.000224	20.749898
2640.735156	-2.959900	2.576500	-7.625500	29.050248	0.000223	20.733952
2641.732965	-2.984600	2.569700	-7.668900	29.107487	0.000223	20.734253
2642.735106	-3.007900	2.564100	-7.711800	29.122074	0.000226	20.726666
2643.734436	-2.973800	2.559200	-7.608600	29.116873	0.000225	20.739918
2644.734271	-3.008500	2.552400	-7.678000	29.088612	0.000224	20.741787
2645.737515	-3.042700	2.545600	-7.743700	29.089408	0.000225	20.738322
2646.735034	-2.995700	2.543000	-7.617400	29.098918	0.000225	20.746482
2647.735344	-3.044100	2.535500	-7.717400	29.045146	0.000225	20.748726
2648.733385	-2.995200	2.530200	-7.578100	29.041332	0.000224	20.733503
2649.737465	-3.029900	2.522600	-7.642100	29.058421	0.000224	20.729858
2650.734893	-2.976400	2.518500	-7.493800	29.088366	0.000225	20.736323
2651.735751	-3.002200	2.511500	-7.539300	29.117516	0.000224	20.723495
2652.739503	-2.985000	2.506100	-7.479900	29.174751	0.000221	20.740392
2653.737124	-3.011800	2.498200	-7.523400	29.189113	0.000224	20.727363
