LabVIEW Measurement	
Writer_Version	2
Reader_Version	2
Separator	Tab
Decimal_Separator	.
Multi_Headings	No
X_Columns	One
Time_Pref	Absolute
Operator	admin
Description	Clolumns are: time, Current, Voltage, Power, Battery Temp, and Chamber Temp
Date	2024/08/16
Time	13:06:06.104549407958984375
***End_of_Header***	
	
Channels	6						
Samples	1	1	1	1	1	1	
Date	2024/09/13	2024/09/13	2024/09/13	2024/09/13	2024/09/13	2024/09/13	
Time	02:48:41.5432696342468261719	02:48:41.5486841201782226563	02:48:41.5556960105895996094	02:48:41.5105648040771484375	02:48:41.5105648040771484375	02:48:41.5105648040771484375	
X_Dimension	Time	Time	Time	Time	Time	Time	
X0	0.0000000000000000E+0	0.0000000000000000E+0	0.0000000000000000E+0	0.0000000000000000E+0	0.0000000000000000E+0	0.0000000000000000E+0	
Delta_X	1.000000	1.000000	1.000000	1.000000	1.000000	1.000000	
***End_of_Header***							
X_Value	Untitled	Untitled 1	Untitled 2	Untitled 3	Untitled 4	Untitled 5	Comment
0.000000	-0.005567	4.092900	-0.022749	21.057882	0.000921	20.792860
1.004228	-3.012900	3.913400	-11.790000	21.071678	0.000918	20.790063
1.997057	-3.006300	3.908000	-11.746000	21.056136	0.000919	20.797277
3.006073	-3.012000	3.902800	-11.755000	21.070706	0.000916	20.792885
4.006484	-3.003000	3.901100	-11.713000	21.081260	0.000917	20.789691
4.995253	-2.992800	3.897700	-11.664000	21.082282	0.000919	20.805412
5.992688	-3.000900	3.893700	-11.683000	21.096304	0.000915	20.798574
7.002679	-3.018900	3.890800	-11.746000	21.091439	0.000915	20.808407
8.002695	-2.982400	3.888900	-11.597000	21.088044	0.000914	20.794580
9.007169	-2.993800	3.886300	-11.633000	21.095854	0.000916	20.804288
10.021156	-3.002100	3.885800	-11.664000	21.083080	0.000914	20.801942
10.999778	-3.008300	3.881900	-11.678000	21.104787	0.000912	20.805637
12.000830	-2.999400	3.881900	-11.642000	21.090940	0.000911	20.798424
13.014171	-2.984600	3.879900	-11.579000	21.106883	0.000910	20.791612
14.009265	-3.018100	3.876500	-11.698000	21.100594	0.000909	20.781529
15.001668	-2.992500	3.876300	-11.600000	21.113343	0.000910	20.809928
16.012693	-2.994100	3.877100	-11.607000	21.144254	0.000910	20.812399
17.000571	-3.004000	3.872700	-11.632000	21.128462	0.000908	20.807507
17.997519	-2.983900	3.874000	-11.559000	21.124621	0.000907	20.790389
19.001943	-2.991300	3.873000	-11.584000	21.140361	0.000906	20.814194
20.003383	-3.000600	3.872700	-11.620000	21.147397	0.000908	20.826922
21.001473	-3.015800	3.870500	-11.670000	21.157251	0.000907	20.835830
22.014840	-3.010800	3.869400	-11.649000	21.167030	0.000908	20.782077
22.999976	-2.981100	3.870000	-11.536000	21.178755	0.000906	20.815142
24.003669	-3.010300	3.869500	-11.647000	21.177533	0.000904	20.803489
25.003894	-3.008600	3.867200	-11.633000	21.168775	0.000906	20.809426
26.008224	-3.016200	3.866100	-11.659000	21.171919	0.000905	20.815416
27.011692	-2.985400	3.866500	-11.541000	21.186787	0.000904	20.791408
28.000204	-2.997300	3.865700	-11.585000	21.180475	0.000903	20.811173
29.002163	-2.977300	3.865700	-11.508000	21.201032	0.000901	20.793330
30.008026	-2.987100	3.864500	-11.542000	21.219043	0.000901	20.837426
31.012357	-3.017700	3.863700	-11.659000	21.214528	0.000903	20.825323
32.019238	-2.997800	3.863500	-11.580000	21.222710	0.000904	20.786567
33.020727	-3.024200	3.862700	-11.680000	21.241569	0.000903	20.822976
34.005230	-3.003100	3.861800	-11.596000	21.257833	0.000903	20.809375
35.015222	-3.005300	3.860500	-11.598000	21.254391	0.000902	20.815889
36.007173	-3.015100	3.859700	-11.637000	21.258232	0.000902	20.847705
37.010360	-3.025900	3.858200	-11.674000	21.243612	0.000899	20.824546
38.006261	-3.000900	3.859100	-11.580000	21.254341	0.000902	20.836701
39.009201	-3.028300	3.858600	-11.682000	21.250997	0.000902	20.829563
40.008084	-2.992500	3.858300	-11.545000	21.283176	0.000901	20.816711
41.013273	-2.978600	3.858900	-11.493000	21.296872	0.000904	20.810498
42.013935	-2.999500	3.858000	-11.572000	21.308296	0.000900	20.829513
43.006022	-2.994200	3.856700	-11.547000	21.300589	0.000901	20.835553
44.014529	-2.971500	3.858000	-11.463000	21.318797	0.000900	20.831484
45.005428	-3.007200	3.856100	-11.596000	21.307770	0.000902	20.845108
46.002330	-3.002000	3.855700	-11.575000	21.310665	0.000900	20.832832
47.007159	-3.009100	3.855500	-11.599000	21.350675	0.000899	20.816910
48.006118	-2.981700	3.856100	-11.497000	21.346484	0.000899	20.825519
49.016465	-2.975100	3.857300	-11.475000	21.343192	0.000900	20.858734
50.007606	-3.006200	3.855800	-11.589000	21.350926	0.000899	20.821903
51.008255	-3.002400	3.855800	-11.575000	21.362449	0.000898	20.851922
52.016043	-3.023000	3.853100	-11.646000	21.355664	0.000898	20.854143
53.008150	-3.013200	3.853700	-11.612000	21.389486	0.000898	20.827291
54.017607	-2.998700	3.853400	-11.553000	21.396769	0.000900	20.833154
55.008813	-3.014300	3.852200	-11.610000	21.399487	0.000898	20.824495
56.009063	-2.995500	3.853800	-11.543000	21.409315	0.000898	20.828638
57.009114	-2.994100	3.853400	-11.536000	21.405598	0.000899	20.849574
58.014118	-2.986700	3.853400	-11.508000	21.410537	0.000899	20.836973
59.015639	-3.006600	3.850900	-11.576000	21.423806	0.000900	20.821326
60.015475	-3.007600	3.851200	-11.582000	21.424205	0.000900	20.825992
61.017152	-2.997600	3.851000	-11.542000	21.442062	0.000899	20.850496
62.020660	-2.994600	3.851400	-11.533000	21.473788	0.000901	20.857584
63.015699	-3.016100	3.849400	-11.609000	21.453311	0.000900	20.841364
64.013263	-2.984900	3.849900	-11.490000	21.465632	0.000898	20.836148
65.015163	-3.015200	3.848000	-11.601000	21.478475	0.000899	20.844257
66.013049	-2.992600	3.848900	-11.517000	21.487454	0.000900	20.853241
67.016988	-2.991500	3.849000	-11.513000	21.474136	0.000899	20.845130
68.018579	-3.002600	3.848000	-11.553000	21.510273	0.000899	20.859004
69.016699	-2.991200	3.848400	-11.509000	21.492642	0.000899	20.848474
70.021385	-2.999300	3.847900	-11.539000	21.517059	0.000898	20.872905
71.026007	-3.018600	3.846800	-11.611000	21.527208	0.000899	20.874052
72.011617	-3.020500	3.847000	-11.619000	21.520774	0.000898	20.861925
73.023440	-2.998900	3.847600	-11.538000	21.531522	0.000899	20.869834
74.017705	-2.992800	3.847400	-11.513000	21.553419	0.000900	20.845279
75.025248	-2.993100	3.847000	-11.513000	21.556761	0.000901	20.859054
76.021377	-3.011700	3.846500	-11.583000	21.572523	0.000902	20.859653
77.016042	-3.022800	3.844700	-11.621000	21.561923	0.000899	20.869909
78.022428	-3.019200	3.844100	-11.606000	21.577260	0.000900	20.870083
79.014853	-2.987500	3.847600	-11.494000	21.599803	0.000901	20.864667
80.020341	-3.004200	3.846300	-11.555000	21.599905	0.000904	20.871406
81.014098	-3.025100	3.843400	-11.626000	21.598857	0.000898	20.868936
82.019614	-2.996900	3.844800	-11.521000	21.592422	0.000904	20.863919
83.019497	-2.994000	3.844500	-11.509000	21.620528	0.000901	20.874026
84.021110	-2.989200	3.843800	-11.489000	21.624892	0.000900	20.866066
85.015478	-3.007300	3.843600	-11.558000	21.622472	0.000901	20.847998
86.018337	-3.005600	3.843800	-11.552000	21.623321	0.000901	20.856907
87.011959	-3.000300	3.843000	-11.529000	21.645241	0.000899	20.865567
88.015494	-3.000100	3.843300	-11.528000	21.644691	0.000900	20.865016
89.015585	-2.991800	3.842100	-11.493000	21.656961	0.000901	20.868287
90.023161	-3.005800	3.841500	-11.545000	21.662772	0.000900	20.882635
91.016078	-3.008800	3.841600	-11.557000	21.665689	0.000903	20.869435
92.020507	-3.014900	3.841100	-11.579000	21.678856	0.000899	20.875498
93.041514	-3.016800	3.841800	-11.589000	21.697982	0.000902	20.880889
94.021986	-2.990600	3.841900	-11.489000	21.715138	0.000901	20.879567
95.027485	-3.011000	3.840000	-11.561000	21.713542	0.000902	20.894563
96.011123	-2.985400	3.841100	-11.466000	21.727106	0.000903	20.882061
97.016122	-2.978800	3.840300	-11.438000	21.724089	0.000903	20.869559
98.043578	-3.009200	3.839300	-11.552000	21.749773	0.000903	20.888151
99.018608	-3.005500	3.840500	-11.542000	21.768922	0.000904	20.878867
100.016899	-2.999300	3.840000	-11.517000	21.773959	0.000905	20.869684
101.019887	-2.994600	3.840400	-11.500000	21.756281	0.000903	20.885181
102.016288	-3.000900	3.839600	-11.521000	21.778721	0.000905	20.874450
103.031743	-3.002500	3.840100	-11.529000	21.805625	0.000904	20.886203
104.022691	-3.006100	3.838800	-11.538000	21.819913	0.000905	20.875849
105.020229	-2.993700	3.839100	-11.492000	21.795054	0.000905	20.881787
106.027811	-3.003200	3.837700	-11.524000	21.821708	0.000904	20.906566
107.025970	-2.992300	3.838200	-11.484000	21.808817	0.000904	20.893665
108.023858	-3.007700	3.837200	-11.540000	21.828265	0.000905	20.889897
109.024889	-2.998000	3.837400	-11.504000	21.846042	0.000905	20.900102
110.039485	-3.021200	3.836900	-11.591000	21.854270	0.000906	20.892692
111.024637	-2.963300	3.839000	-11.375000	21.871349	0.000906	20.879916
112.027076	-2.988100	3.838200	-11.468000	21.875238	0.000906	20.897558
113.024730	-2.987900	3.837000	-11.463000	21.859880	0.000906	20.893565
114.029356	-2.991800	3.838200	-11.482000	21.906028	0.000907	20.898505
115.023360	-2.996800	3.836600	-11.496000	21.903436	0.000906	20.901600
116.025923	-3.004000	3.835900	-11.521000	21.896480	0.000906	20.897483
117.032910	-2.996600	3.836100	-11.494000	21.921236	0.000909	20.886228
118.026827	-2.993100	3.836200	-11.479000	21.913881	0.000906	20.919640
119.023101	-3.017900	3.835900	-11.574000	21.923655	0.000910	20.897657
120.034536	-2.999900	3.835400	-11.505000	21.934549	0.000908	20.894338
121.020649	-2.997700	3.834900	-11.495000	21.932556	0.000907	20.892343
122.024113	-2.996900	3.834300	-11.490000	21.943376	0.000908	20.910758
123.033613	-3.003500	3.834400	-11.515000	21.948959	0.000907	20.909708
124.025238	-2.983600	3.834000	-11.438000	21.958657	0.000911	20.895236
125.027406	-2.983600	3.833400	-11.436000	21.987702	0.000910	20.911507
126.024205	-3.016100	3.833100	-11.560000	21.988798	0.000910	20.905493
127.038115	-3.009500	3.834000	-11.537000	21.982168	0.000910	20.896012
128.024631	-2.998400	3.834200	-11.493000	21.963145	0.000909	20.918219
129.025188	-3.007500	3.832100	-11.524000	21.965812	0.000912	20.903820
130.028599	-3.022000	3.831800	-11.579000	21.969453	0.000914	20.895137
131.024297	-3.003900	3.832800	-11.511000	21.957261	0.000912	20.900951
132.031250	-3.008900	3.831600	-11.528000	21.985358	0.000911	20.883084
133.027606	-2.999100	3.832500	-11.493000	21.991465	0.000913	20.888250
134.029141	-3.015700	3.831400	-11.553000	22.006124	0.000912	20.887276
135.035738	-3.018900	3.831200	-11.564000	22.011584	0.000913	20.888949
136.042327	-3.026700	3.829500	-11.590000	22.029632	0.000914	20.883784
137.039222	-3.015500	3.831900	-11.555000	22.048777	0.000914	20.881138
138.028528	-3.008100	3.830400	-11.521000	22.046484	0.000913	20.889273
139.029471	-3.020900	3.831000	-11.571000	22.062064	0.000912	20.891593
140.036172	-3.013600	3.829800	-11.541000	22.069368	0.000914	20.879941
141.034833	-2.981000	3.830500	-11.419000	22.088862	0.000913	20.892817
142.033324	-2.986100	3.830800	-11.438000	22.084225	0.000916	20.885331
143.032103	-2.989900	3.828800	-11.446000	22.069294	0.000917	20.886030
144.028447	-2.997400	3.829900	-11.479000	22.082032	0.000914	20.885506
145.032686	-3.000500	3.829300	-11.488000	22.075650	0.000917	20.867264
146.030592	-3.010800	3.829500	-11.528000	22.112569	0.000917	20.875775
147.035162	-2.969600	3.829400	-11.370000	22.107858	0.000917	20.880541
148.035178	-3.017500	3.827800	-11.549000	22.120045	0.000919	20.862398
149.030422	-3.009000	3.827800	-11.517000	22.126876	0.000916	20.878244
150.032467	-3.022500	3.827100	-11.566000	22.118201	0.000917	20.882835
151.034142	-3.017600	3.827100	-11.546000	22.131912	0.000917	20.886605
152.032017	-2.999800	3.827300	-11.480000	22.140635	0.000916	20.870209
153.036821	-3.024300	3.826200	-11.571000	22.135800	0.000919	20.857309
154.039095	-2.999400	3.827300	-11.478000	22.156165	0.000919	20.869162
155.031881	-3.005900	3.826800	-11.502000	22.155417	0.000918	20.855137
156.041729	-3.008500	3.825500	-11.507000	22.175059	0.000920	20.871009
157.041574	-3.021800	3.826200	-11.561000	22.171669	0.000920	20.860977
158.036854	-2.970500	3.826500	-11.366000	22.181165	0.000921	20.883286
159.039818	-2.983500	3.826500	-11.415000	22.209854	0.000921	20.854164
160.039762	-2.976800	3.826700	-11.390000	22.183956	0.000922	20.868537
161.042787	-2.998800	3.825200	-11.470000	22.214289	0.000924	20.861450
162.044490	-3.005100	3.824400	-11.492000	22.251876	0.000923	20.865892
163.035118	-2.997400	3.824200	-11.461000	22.226526	0.000923	20.865641
164.040946	-2.993900	3.826000	-11.453000	22.235624	0.000924	20.860051
165.039056	-2.997400	3.825500	-11.465000	22.234678	0.000924	20.851992
166.048441	-2.997800	3.824000	-11.462000	22.247512	0.000924	20.848248
167.043751	-2.986900	3.824200	-11.421000	22.249955	0.000923	20.864443
168.036854	-2.981800	3.824000	-11.402000	22.263413	0.000926	20.860849
169.039801	-2.999400	3.824700	-11.470000	22.255362	0.000928	20.853736
170.040057	-2.991600	3.824200	-11.439000	22.246167	0.000925	20.837892
171.046967	-3.001900	3.823800	-11.478000	22.261319	0.000925	20.862546
172.039023	-2.976500	3.823800	-11.381000	22.256734	0.000926	20.854162
173.040612	-2.998900	3.823300	-11.464000	22.269220	0.000929	20.881835
174.045088	-2.986400	3.822800	-11.416000	22.274828	0.000927	20.842882
175.045525	-3.007300	3.822400	-11.493000	22.266428	0.000927	20.870506
176.039373	-3.019400	3.822300	-11.539000	22.279289	0.000927	20.849245
177.049224	-2.978200	3.822800	-11.384000	22.283151	0.000930	20.856905
178.049160	-2.996500	3.821500	-11.449000	22.308075	0.000931	20.842507
179.047922	-2.995100	3.821900	-11.446000	22.310741	0.000932	20.858452
180.043840	-3.021700	3.820800	-11.544000	22.307601	0.000931	20.849145
181.049446	-2.984400	3.821100	-11.403000	22.336236	0.000930	20.863593
182.046867	-2.980800	3.821900	-11.390000	22.322479	0.000932	20.837491
183.045501	-3.011500	3.820000	-11.503000	22.342592	0.000932	20.839612
184.050873	-3.006300	3.819900	-11.482000	22.340821	0.000934	20.839262
185.046587	-2.987600	3.820000	-11.412000	22.360484	0.000931	20.841882
186.047093	-2.992500	3.819800	-11.430000	22.376485	0.000934	20.857429
187.050405	-3.004400	3.820500	-11.477000	22.384933	0.000934	20.828906
188.050188	-2.991900	3.819900	-11.428000	22.381868	0.000936	20.849070
189.050064	-2.984500	3.819900	-11.398000	22.404844	0.000937	20.833198
190.054832	-3.003700	3.819100	-11.470000	22.412220	0.000935	20.833472
191.049088	-3.008400	3.817700	-11.483000	22.429615	0.000936	20.858003
192.046414	-2.992500	3.818100	-11.424000	22.432331	0.000935	20.832749
193.051212	-3.015400	3.817500	-11.511000	22.451195	0.000936	20.854010
194.049668	-3.009700	3.817900	-11.489000	22.445614	0.000937	20.827085
195.057379	-2.972800	3.817400	-11.348000	22.460516	0.000939	20.845801
196.049345	-3.006900	3.817300	-11.478000	22.465226	0.000939	20.848147
197.055850	-3.009700	3.817200	-11.488000	22.475342	0.000937	20.838838
198.050470	-2.992900	3.817600	-11.425000	22.484886	0.000940	20.848870
199.050829	-3.000800	3.818100	-11.456000	22.502280	0.000940	20.842108
200.051358	-3.010500	3.817600	-11.492000	22.464752	0.000941	20.869957
201.053688	-2.997100	3.815300	-11.434000	22.467940	0.000943	20.839486
202.053462	-3.004600	3.815000	-11.462000	22.473001	0.000941	20.840761
203.054270	-3.016200	3.815500	-11.507000	22.484414	0.000939	20.856931
204.061415	-3.004800	3.815100	-11.462000	22.485386	0.000943	20.836094
205.056237	-3.023000	3.814900	-11.531000	22.513816	0.000944	20.862195
206.066981	-2.987800	3.816200	-11.400000	22.507239	0.000943	20.846126
207.059534	-3.003800	3.813600	-11.454000	22.494706	0.000943	20.825040
208.054029	-2.998400	3.816000	-11.442000	22.512446	0.000943	20.842332
209.056064	-2.989900	3.815900	-11.407000	22.506691	0.000944	20.831353
210.061509	-3.010200	3.813900	-11.480000	22.498694	0.000946	20.829034
211.056940	-2.994700	3.814400	-11.422000	22.504948	0.000944	20.836720
212.054800	-2.996700	3.813300	-11.426000	22.489473	0.000946	20.843033
213.055930	-2.986600	3.814100	-11.390000	22.490621	0.000944	20.820949
214.066143	-3.005900	3.811900	-11.457000	22.512923	0.000947	20.827163
215.062533	-3.012800	3.810700	-11.480000	22.506817	0.000949	20.833850
216.055514	-2.993900	3.813500	-11.413000	22.532383	0.000948	20.845703
217.065444	-3.032500	3.811000	-11.556000	22.529119	0.000948	20.829633
218.056915	-3.003600	3.813000	-11.451000	22.552692	0.000948	20.816258
219.064285	-3.007400	3.812400	-11.464000	22.555134	0.000951	20.837669
220.063692	-2.995300	3.811900	-11.417000	22.571206	0.000950	20.825318
221.043321	-2.985600	3.811300	-11.377000	22.567668	0.000949	20.817032
222.041917	-2.980500	3.812400	-11.362000	22.582767	0.000949	20.828362
223.041001	-2.990300	3.811900	-11.396000	22.588000	0.000952	20.836447
224.041519	-2.989000	3.811300	-11.391000	22.576836	0.000952	20.818629
225.063689	-2.998300	3.809200	-11.420000	22.571780	0.000951	20.819728
226.043844	-2.994200	3.810200	-11.406000	22.592037	0.000951	20.850447
227.042774	-2.999400	3.809100	-11.423000	22.577436	0.000954	20.828238
228.045192	-3.002100	3.811500	-11.441000	22.603125	0.000954	20.820303
229.041538	-3.010100	3.808900	-11.463000	22.574470	0.000954	20.828587
230.050558	-2.986500	3.810500	-11.378000	22.581298	0.000954	20.834003
231.045476	-3.005500	3.810000	-11.450000	22.577686	0.000953	20.825643
232.043151	-3.008600	3.807600	-11.454000	22.590567	0.000955	20.811518
233.046092	-2.997200	3.809000	-11.415000	22.586779	0.000955	20.826690
234.042677	-2.981000	3.809300	-11.353000	22.576340	0.000958	20.816710
235.062424	-3.021200	3.807300	-11.501000	22.582469	0.000956	20.820477
236.062526	-2.982200	3.808800	-11.357000	22.570583	0.000958	20.836073
237.062321	-2.982300	3.807800	-11.355000	22.592884	0.000958	20.797243
238.067411	-3.011500	3.805900	-11.459000	22.597643	0.000960	20.836148
239.064975	-2.998000	3.807200	-11.412000	22.603275	0.000961	20.831832
240.066651	-2.997500	3.807500	-11.411000	22.617701	0.000960	20.828263
241.046068	-2.989400	3.806700	-11.379000	22.630282	0.000960	20.818580
242.069921	-3.004000	3.806500	-11.433000	22.621561	0.000960	20.808423
243.067100	-2.989400	3.805800	-11.376000	22.663793	0.000961	20.823221
244.070988	-2.995800	3.806400	-11.402000	22.682679	0.000963	20.858259
245.064445	-3.001700	3.806200	-11.424000	22.691124	0.000960	20.809346
246.067060	-3.026100	3.804500	-11.511000	22.688383	0.000963	20.829360
247.066795	-2.994500	3.804400	-11.391000	22.699396	0.000962	20.813838
248.064159	-2.999300	3.805600	-11.413000	22.702286	0.000960	20.804406
249.069129	-2.978800	3.806000	-11.336000	22.703856	0.000965	20.810245
250.069218	-2.995200	3.805100	-11.396000	22.696157	0.000962	20.809646
251.049513	-2.992000	3.804000	-11.380000	22.698922	0.000964	20.805778
252.049424	-2.992500	3.804600	-11.383000	22.693417	0.000965	20.832505
253.051718	-3.011300	3.804900	-11.457000	22.691747	0.000964	20.824195
254.050801	-2.991900	3.804200	-11.380000	22.692195	0.000968	20.808049
255.055637	-3.007400	3.803300	-11.436000	22.704978	0.000966	20.791929
256.050687	-3.010900	3.802900	-11.450000	22.739034	0.000966	20.804706
257.051185	-3.009600	3.802500	-11.443000	22.725580	0.000967	20.802609
258.072427	-3.017800	3.801800	-11.470000	22.733551	0.000966	20.807274
259.050068	-3.005500	3.801800	-11.425000	22.754130	0.000970	20.830732
260.052578	-3.013100	3.801200	-11.452000	22.786915	0.000968	20.781072
261.078266	-2.998300	3.801700	-11.397000	22.795484	0.000969	20.821898
262.068026	-2.982800	3.801700	-11.339000	22.809608	0.000968	20.817081
263.055636	-2.979100	3.802400	-11.326000	22.831429	0.000969	20.817604
264.055439	-2.983100	3.801500	-11.339000	22.831232	0.000972	20.812665
265.069379	-2.990700	3.800100	-11.364000	22.840722	0.000970	20.802732
266.071895	-2.991100	3.800900	-11.367000	22.871860	0.000972	20.805951
267.071462	-2.985000	3.801000	-11.345000	22.862419	0.000973	20.831579
268.075643	-2.977300	3.800900	-11.316000	22.876392	0.000972	20.801956
269.071549	-2.988000	3.800600	-11.355000	22.890939	0.000973	20.797564
270.076144	-2.980200	3.801000	-11.327000	22.893356	0.000975	20.798089
271.076748	-2.987200	3.799600	-11.349000	22.910492	0.000974	20.811463
272.072162	-3.010200	3.799300	-11.436000	22.882317	0.000975	20.783710
273.074738	-2.999400	3.799400	-11.395000	22.919036	0.000978	20.792048
274.058562	-2.997700	3.799700	-11.389000	22.918512	0.000974	20.814283
275.055022	-3.003000	3.797500	-11.402000	22.911588	0.000976	20.788854
276.073148	-3.002000	3.798400	-11.401000	22.927878	0.000975	20.787156
277.085346	-3.005000	3.798200	-11.413000	22.931463	0.000978	20.784584
278.072465	-3.023500	3.797700	-11.480000	22.953035	0.000977	20.801454
279.082624	-3.010300	3.796300	-11.428000	22.956347	0.000978	20.797187
280.080884	-3.020900	3.795600	-11.464000	22.984094	0.000976	20.789900
281.072669	-3.005900	3.796900	-11.413000	22.972811	0.000979	20.804199
282.086343	-2.987100	3.796600	-11.340000	22.971490	0.000979	20.796237
283.077126	-3.006900	3.796500	-11.415000	22.944191	0.000978	20.792594
284.081099	-2.994700	3.796300	-11.367000	22.944365	0.000980	20.804148
285.061616	-2.980800	3.797100	-11.318000	22.960207	0.000980	20.795364
286.059999	-3.007700	3.794500	-11.411000	22.938437	0.000980	20.801528
287.082021	-2.987800	3.796500	-11.342000	22.949446	0.000979	20.777944
288.063109	-2.984200	3.794700	-11.322000	22.938686	0.000980	20.793717
289.079123	-2.987100	3.796100	-11.339000	22.945087	0.000982	20.793966
290.062544	-2.997400	3.794800	-11.373000	22.956022	0.000982	20.773627
291.062528	-3.012000	3.794500	-11.428000	22.983594	0.000983	20.779441
292.064748	-3.006100	3.794200	-11.405000	22.992985	0.000982	20.791221
293.060736	-2.985500	3.793300	-11.324000	22.956843	0.000983	20.804322
294.062506	-3.000100	3.791900	-11.374000	23.002274	0.000984	20.803372
295.060219	-3.003000	3.792900	-11.389000	22.986458	0.000985	20.781836
296.086667	-3.013900	3.792000	-11.428000	22.996221	0.000985	20.806317
297.078394	-3.009500	3.793700	-11.415000	22.973804	0.000984	20.797607
298.087126	-2.990400	3.791700	-11.337000	23.015749	0.000986	20.774200
299.082387	-2.976300	3.793900	-11.291000	22.998513	0.000986	20.791069
300.081131	-2.978500	3.793300	-11.297000	23.009571	0.000985	20.809735
301.085302	-3.001900	3.791600	-11.380000	23.024938	0.000987	20.767285
302.065313	-3.013400	3.789600	-11.419000	23.024938	0.000989	20.795260
303.083362	-3.004400	3.790400	-11.386000	23.036097	0.000988	20.797432
304.085437	-3.022700	3.790000	-11.455000	23.039284	0.000989	20.779289
305.087411	-2.999600	3.790200	-11.367000	23.078635	0.000989	20.784105
306.066910	-2.990900	3.790300	-11.336000	23.065385	0.000991	20.783156
307.066834	-3.007700	3.789700	-11.397000	23.105083	0.000992	20.774096
308.067136	-3.009400	3.788800	-11.401000	23.111559	0.000992	20.769206
309.082221	-3.006600	3.790200	-11.393000	23.134595	0.000994	20.774745
310.084291	-2.981300	3.790200	-11.299000	23.116739	0.000992	20.779138
311.086085	-3.027600	3.788100	-11.467000	23.115618	0.000991	20.774221
312.092137	-2.992500	3.788400	-11.336000	23.133674	0.000994	20.767658
313.085429	-2.968900	3.790100	-11.252000	23.136686	0.000991	20.778263
314.071356	-2.998800	3.788100	-11.359000	23.132726	0.000992	20.774769
315.090347	-2.987600	3.789200	-11.320000	23.104883	0.000993	20.777215
316.083971	-2.964800	3.790100	-11.236000	23.115691	0.000993	20.782356
317.093317	-3.003700	3.787700	-11.375000	23.123711	0.000994	20.786598
318.086330	-3.000000	3.787800	-11.363000	23.115492	0.000995	20.781207
319.070460	-3.010100	3.785900	-11.395000	23.140969	0.000993	20.780658
320.070797	-2.969500	3.787100	-11.245000	23.113101	0.000996	20.784501
321.072090	-2.985100	3.786800	-11.302000	23.116264	0.000995	20.776766
322.090633	-2.995300	3.786700	-11.342000	23.141268	0.000996	20.767208
323.088593	-3.023300	3.784000	-11.439000	23.169134	0.000998	20.771898
324.092222	-2.998300	3.786500	-11.352000	23.175585	0.000997	20.804915
325.092411	-3.000600	3.784000	-11.354000	23.170081	0.000997	20.780433
326.089437	-3.017000	3.784800	-11.418000	23.172098	0.000996	20.789093
327.095204	-3.000500	3.785200	-11.356000	23.177377	0.000997	20.769252
328.093363	-2.966500	3.785000	-11.227000	23.150332	0.000997	20.781506
329.074813	-2.995000	3.783600	-11.330000	23.149859	0.000999	20.781032
330.078047	-3.012600	3.784600	-11.400000	23.185347	0.000997	20.780558
331.097065	-3.008700	3.782900	-11.381000	23.174812	0.000999	20.766208
332.098563	-3.029700	3.782300	-11.459000	23.206812	0.000999	20.754653
333.075109	-3.010800	3.783500	-11.390000	23.195955	0.000999	20.755152
334.078690	-2.990900	3.783900	-11.316000	23.187138	0.001000	20.765758
335.076152	-3.012600	3.781500	-11.391000	23.191223	0.000999	20.756100
336.076054	-3.000300	3.782300	-11.346000	23.225389	0.001001	20.768053
337.075743	-3.017700	3.781500	-11.411000	23.231864	0.001002	20.751783
338.075794	-2.999700	3.782300	-11.345000	23.262118	0.001004	20.771197
339.094374	-3.029400	3.780500	-11.450000	23.272254	0.001003	20.763811
340.095546	-2.984200	3.781300	-11.282000	23.257984	0.001004	20.779382
341.096965	-3.011200	3.779700	-11.380000	23.274644	0.001003	20.750559
342.096290	-3.000500	3.781000	-11.345000	23.279276	0.001003	20.761839
343.095072	-2.968100	3.780900	-11.221000	23.301612	0.001003	20.760991
344.096239	-2.970600	3.781200	-11.232000	23.288338	0.001005	20.760965
345.096375	-2.988100	3.780400	-11.296000	23.317521	0.001004	20.754650
346.093289	-3.005400	3.778700	-11.356000	23.347750	0.001006	20.747014
347.095329	-2.994100	3.778700	-11.313000	23.334403	0.001004	20.739801
348.093001	-3.018400	3.778500	-11.404000	23.313164	0.001005	20.755973
349.098125	-2.993300	3.779900	-11.313000	23.335149	0.001007	20.760463
350.104855	-2.983600	3.778100	-11.271000	23.277979	0.001006	20.749159
351.098176	-2.971400	3.780100	-11.230000	23.281714	0.001007	20.736781
352.102611	-3.001500	3.778800	-11.341000	23.274044	0.001006	20.750432
353.102231	-3.007000	3.776700	-11.355000	23.276361	0.001007	20.752754
354.094123	-2.980600	3.778100	-11.260000	23.303129	0.001009	20.745915
355.097361	-3.004200	3.776500	-11.344000	23.309330	0.001009	20.753079
356.099954	-3.004000	3.775700	-11.340000	23.325764	0.001009	20.752006
357.084575	-2.993900	3.776800	-11.306000	23.338911	0.001010	20.753328
358.082207	-2.992300	3.777200	-11.302000	23.352207	0.001009	20.744369
359.113454	-2.990200	3.775400	-11.288000	23.343866	0.001013	20.737905
360.100383	-2.991900	3.775800	-11.296000	23.335699	0.001011	20.745841
361.099381	-3.025900	3.774300	-11.419000	23.341925	0.001012	20.757772
362.100011	-2.993800	3.775700	-11.301000	23.369016	0.001013	20.741775
363.101484	-2.985100	3.774200	-11.264000	23.374643	0.001013	20.748838
364.102505	-2.987700	3.774400	-11.276000	23.387689	0.001014	20.752431
365.106214	-2.981500	3.775400	-11.255000	23.367224	0.001012	20.737133
366.103000	-3.003700	3.773400	-11.334000	23.354053	0.001013	20.747167
367.115893	-2.998200	3.773200	-11.312000	23.351738	0.001013	20.747217
368.102500	-2.996600	3.773500	-11.307000	23.352957	0.001014	20.752233
369.106916	-2.995500	3.772800	-11.301000	23.368993	0.001015	20.735588
370.098540	-2.998100	3.772300	-11.309000	23.362046	0.001013	20.726254
371.115832	-2.994100	3.773100	-11.296000	23.348401	0.001017	20.744822
372.107694	-3.007100	3.771600	-11.340000	23.373674	0.001013	20.738383
373.101306	-3.007300	3.771800	-11.341000	23.332940	0.001014	20.737860
374.084725	-3.017000	3.771400	-11.377000	23.367301	0.001014	20.736263
375.086064	-2.998400	3.771200	-11.306000	23.365708	0.001015	20.746995
376.086310	-2.996000	3.770500	-11.296000	23.393968	0.001017	20.735963
377.087498	-3.012300	3.770000	-11.355000	23.377285	0.001016	20.735364
378.086010	-2.996900	3.771000	-11.300000	23.401613	0.001014	20.731772
379.101773	-3.030300	3.769300	-11.421000	23.441151	0.001017	20.751489
380.085638	-2.990700	3.769600	-11.273000	23.442096	0.001016	20.736788
381.085073	-2.996500	3.768900	-11.292000	23.451209	0.001016	20.759673
382.089884	-2.978400	3.769400	-11.225000	23.463484	0.001017	20.738786
383.105755	-2.988400	3.768600	-11.261000	23.477128	0.001017	20.764790
384.103907	-3.016600	3.767700	-11.364000	23.484546	0.001018	20.730500
385.106651	-3.021100	3.767400	-11.380000	23.483974	0.001018	20.753160
386.103673	-2.989600	3.767600	-11.263000	23.478049	0.001017	20.744376
387.104601	-2.995200	3.767300	-11.282000	23.495402	0.001019	20.751340
388.105655	-3.008400	3.767600	-11.332000	23.487061	0.001020	20.759574
389.106759	-2.994500	3.766700	-11.279000	23.468937	0.001020	20.729078
390.089405	-3.008700	3.766400	-11.331000	23.468041	0.001020	20.749992
391.106709	-2.998000	3.765900	-11.289000	23.468240	0.001018	20.738337
392.095486	-2.997100	3.767500	-11.290000	23.481062	0.001019	20.759725
393.091350	-2.998000	3.766800	-11.291000	23.491842	0.001020	20.760099
394.088995	-2.978000	3.766400	-11.215000	23.504713	0.001020	20.744077
395.090033	-3.004500	3.764300	-11.308000	23.523062	0.001018	20.765790
396.117559	-3.001700	3.764100	-11.297000	23.541508	0.001022	20.742080
397.106990	-2.988100	3.766200	-11.252000	23.565060	0.001019	20.755258
398.110240	-2.978500	3.765300	-11.214000	23.577830	0.001018	20.740083
399.103363	-2.981900	3.763600	-11.221000	23.556769	0.001019	20.760698
400.115847	-3.001600	3.764900	-11.299000	23.525103	0.001023	20.750765
401.091712	-3.004000	3.763100	-11.303000	23.520123	0.001021	20.747196
402.112455	-3.005800	3.763500	-11.312000	23.513526	0.001022	20.749592
403.104710	-3.010200	3.763900	-11.329000	23.528636	0.001023	20.753359
404.113230	-2.997200	3.763300	-11.278000	23.559531	0.001024	20.735016
405.104532	-2.978700	3.763900	-11.209000	23.552087	0.001023	20.750314
406.109710	-2.987100	3.763100	-11.239000	23.598368	0.001023	20.757828
407.111894	-3.002300	3.761700	-11.293000	23.616065	0.001023	20.766561
408.106962	-2.975900	3.762300	-11.193000	23.590649	0.001023	20.742977
409.117221	-3.015300	3.760200	-11.337000	23.615915	0.001022	20.728951
410.110486	-3.005600	3.760300	-11.301000	23.624752	0.001023	20.740655
411.109122	-3.000400	3.759500	-11.278000	23.640335	0.001024	20.748217
412.092590	-3.016700	3.759400	-11.339000	23.670331	0.001024	20.750314
413.093373	-2.983200	3.759700	-11.214000	23.684868	0.001023	20.753982
414.092165	-2.981400	3.759800	-11.208000	23.697561	0.001024	20.743474
415.096344	-3.005600	3.759000	-11.298000	23.688202	0.001027	20.749264
416.092655	-2.992100	3.759700	-11.248000	23.686012	0.001026	20.758923
417.113476	-3.024700	3.757900	-11.366000	23.626793	0.001024	20.761668
418.114563	-2.998500	3.758500	-11.268000	23.626345	0.001024	20.757425
419.094455	-3.012000	3.758900	-11.320000	23.619550	0.001024	20.764364
420.097555	-3.010000	3.757700	-11.310000	23.610488	0.001023	20.763815
421.115429	-3.007500	3.757700	-11.299000	23.600854	0.001026	20.765536
422.113093	-3.011700	3.756600	-11.312000	23.571429	0.001027	20.773023
423.120131	-2.995700	3.756600	-11.253000	23.551190	0.001028	20.734241
424.122926	-3.016500	3.755700	-11.328000	23.538667	0.001028	20.748715
425.115438	-2.987200	3.757500	-11.224000	23.562217	0.001027	20.758573
426.094837	-2.996600	3.756600	-11.255000	23.567272	0.001028	20.737560
427.116087	-2.998800	3.755100	-11.259000	23.578101	0.001028	20.749838
428.115495	-2.996200	3.755100	-11.250000	23.608247	0.001029	20.769628
429.096401	-2.985300	3.755500	-11.211000	23.630576	0.001027	20.740330
430.096660	-2.990400	3.754800	-11.228000	23.637073	0.001027	20.758223
431.099750	-2.988000	3.754600	-11.217000	23.674014	0.001026	20.763963
432.097195	-3.002900	3.753500	-11.270000	23.712794	0.001028	20.768704
433.113548	-2.984700	3.754400	-11.205000	23.719141	0.001028	20.761316
434.120977	-3.023800	3.751700	-11.343000	23.722452	0.001029	20.747092
435.118120	-2.988900	3.753600	-11.218000	23.713790	0.001029	20.752158
436.117419	-2.988100	3.752500	-11.211000	23.696166	0.001028	20.757723
437.121850	-2.997300	3.751300	-11.243000	23.649096	0.001027	20.759371
438.100141	-3.000800	3.752400	-11.259000	23.650215	0.001031	20.738207
439.101127	-2.980100	3.752100	-11.180000	23.653775	0.001030	20.746518
440.118664	-3.007200	3.751000	-11.278000	23.655293	0.001031	20.763687
441.104852	-3.011200	3.751100	-11.295000	23.676401	0.001031	20.756399
442.117327	-3.004300	3.749400	-11.263000	23.685089	0.001031	20.769377
443.123772	-3.004200	3.750300	-11.265000	23.699402	0.001031	20.761441
444.130711	-3.026500	3.749100	-11.346000	23.712644	0.001028	20.764286
445.104454	-3.012200	3.748600	-11.290000	23.711997	0.001031	20.767905
446.126794	-3.022200	3.748700	-11.329000	23.730939	0.001032	20.759395
447.130300	-2.997000	3.749000	-11.235000	23.765387	0.001030	20.756474
448.123716	-3.007800	3.748900	-11.275000	23.736241	0.001031	20.759495
449.121753	-2.972700	3.749500	-11.144000	23.756976	0.001034	20.767482
450.122937	-3.008900	3.747000	-11.274000	23.753216	0.001032	20.770350
451.105938	-3.016000	3.745800	-11.296000	23.787091	0.001030	20.767804
452.135376	-2.987400	3.748000	-11.195000	23.788983	0.001031	20.767330
453.129841	-3.003700	3.748400	-11.259000	23.759514	0.001033	20.785200
454.132318	-3.002800	3.745900	-11.247000	23.763594	0.001033	20.764634
455.124539	-2.992300	3.747000	-11.212000	23.748387	0.001033	20.765035
456.122900	-2.992100	3.745900	-11.208000	23.777981	0.001033	20.775740
457.121634	-2.987500	3.746600	-11.191000	23.781914	0.001035	20.784425
458.126183	-2.999200	3.745500	-11.232000	23.766358	0.001032	20.759819
459.123878	-2.970500	3.747400	-11.130000	23.770439	0.001032	20.757273
460.124132	-3.014600	3.745300	-11.290000	23.788707	0.001033	20.779382
461.128577	-2.992800	3.745600	-11.208000	23.778554	0.001034	20.767779
462.123115	-3.000100	3.744400	-11.233000	23.818252	0.001033	20.782453
463.130266	-2.992900	3.744200	-11.205000	23.836272	0.001034	20.774917
464.136271	-3.003500	3.743800	-11.244000	23.837740	0.001034	20.773070
465.107585	-2.961000	3.744300	-11.085000	23.828432	0.001034	20.774643
466.128732	-2.989500	3.743700	-11.191000	23.871364	0.001036	20.784974
467.130442	-2.988700	3.745900	-11.193000	23.884528	0.001035	20.779682
468.126199	-2.998800	3.744500	-11.228000	23.891025	0.001036	20.788093
469.110026	-3.015300	3.741900	-11.281000	23.886944	0.001035	20.796803
470.131261	-3.000800	3.743700	-11.233000	23.900955	0.001035	20.773394
471.128095	-2.994500	3.741900	-11.205000	23.903144	0.001036	20.795031
472.111332	-2.985100	3.742800	-11.172000	23.916086	0.001036	20.772920
473.112300	-2.997500	3.741100	-11.213000	23.918848	0.001035	20.774742
474.111153	-2.995400	3.741200	-11.205000	23.925817	0.001035	20.774618
475.111774	-3.006800	3.740400	-11.246000	23.916783	0.001035	20.775990
476.111038	-2.981200	3.741200	-11.151000	23.924424	0.001035	20.783178
477.111371	-3.002200	3.740800	-11.230000	23.926017	0.001035	20.769602
478.126957	-2.991800	3.739600	-11.187000	23.894609	0.001035	20.807335
479.110765	-2.995600	3.739400	-11.200000	23.880150	0.001035	20.802793
480.117994	-3.003400	3.737800	-11.225000	23.893016	0.001037	20.801470
481.111105	-3.005900	3.739400	-11.240000	23.895678	0.001035	20.781854
482.112084	-3.011500	3.738000	-11.255000	23.892393	0.001036	20.796104
483.112437	-2.986300	3.739800	-11.167000	23.886694	0.001037	20.793234
484.114214	-3.011600	3.738100	-11.256000	23.880422	0.001036	20.801169
485.111935	-3.020000	3.737200	-11.284000	23.917355	0.001035	20.777986
486.131130	-3.008700	3.737000	-11.243000	23.907101	0.001035	20.798524
487.112510	-3.016400	3.737400	-11.272000	23.919942	0.001036	20.782477
488.113257	-2.997000	3.736600	-11.198000	23.926662	0.001036	20.794905
489.116401	-3.004200	3.736300	-11.223000	23.925542	0.001038	20.786196
490.113422	-2.994600	3.737100	-11.190000	23.924596	0.001038	20.807058
491.115429	-3.019100	3.734700	-11.274000	23.959411	0.001037	20.788865
492.113911	-2.979500	3.736500	-11.132000	23.978126	0.001037	20.827547
493.131618	-2.971700	3.735800	-11.100000	23.991413	0.001037	20.793931
494.131479	-2.999600	3.734900	-11.202000	23.975139	0.001037	20.809379
495.130180	-2.989600	3.733100	-11.160000	23.996117	0.001038	20.795803
496.113980	-2.991100	3.734100	-11.168000	24.039739	0.001037	20.792609
497.113393	-2.989700	3.733600	-11.161000	23.999576	0.001037	20.792634
498.114129	-2.997400	3.733400	-11.189000	23.995694	0.001038	20.799172
499.135181	-2.997400	3.733500	-11.189000	23.998729	0.001039	20.800319
500.134535	-3.004400	3.732700	-11.213000	23.994426	0.001040	20.814022
501.132133	-3.003500	3.731500	-11.205000	24.027123	0.001037	20.806509
502.130193	-2.993300	3.731200	-11.167000	24.043297	0.001036	20.795228
503.133404	-3.015500	3.731400	-11.251000	24.055416	0.001037	20.796951
504.133836	-2.997700	3.731100	-11.184000	24.031055	0.001039	20.803814
505.133076	-3.007300	3.729800	-11.216000	24.030383	0.001038	20.799821
506.142997	-3.010000	3.731100	-11.230000	24.049644	0.001038	20.811077
507.118028	-3.001600	3.730900	-11.198000	24.032524	0.001038	20.806235
508.147875	-2.980900	3.730700	-11.120000	24.095903	0.001037	20.815744
509.134336	-3.000500	3.729700	-11.191000	24.082441	0.001036	20.806036
510.136142	-3.015600	3.728700	-11.244000	24.095131	0.001038	20.805487
511.121074	-2.990700	3.730800	-11.156000	24.092592	0.001037	20.793458
512.135298	-2.979500	3.728600	-11.107000	24.128074	0.001039	20.818613
513.119050	-2.997400	3.729400	-11.177000	24.142158	0.001035	20.800496
514.135021	-2.967400	3.728700	-11.064000	24.158282	0.001039	20.814771
515.140633	-2.998800	3.727900	-11.179000	24.138451	0.001038	20.829020
516.136379	-2.998300	3.728100	-11.177000	24.135565	0.001038	20.832763
517.134995	-2.987900	3.728100	-11.138000	24.117427	0.001035	20.814098
518.139493	-2.988900	3.727300	-11.140000	24.108270	0.001039	20.816293
519.143228	-3.018000	3.726900	-11.247000	24.111480	0.001038	20.820936
520.136133	-2.992000	3.726600	-11.149000	24.084359	0.001040	20.814124
521.127231	-3.014300	3.726500	-11.231000	24.091872	0.001038	20.814547
522.120290	-3.000000	3.725300	-11.176000	24.114939	0.001035	20.818241
523.145515	-3.003100	3.726500	-11.191000	24.142161	0.001036	20.814249
524.121146	-3.007100	3.725300	-11.201000	24.138429	0.001039	20.826153
525.139014	-2.987900	3.725800	-11.131000	24.129347	0.001038	20.818941
526.120734	-3.034500	3.724200	-11.299000	24.118074	0.001038	20.805738
527.122246	-3.014900	3.724200	-11.227000	24.107177	0.001039	20.820413
528.135771	-3.009400	3.724500	-11.208000	24.127805	0.001037	20.827351
529.135157	-2.983100	3.724900	-11.111000	24.126535	0.001039	20.832242
530.141122	-2.984300	3.724200	-11.113000	24.165326	0.001039	20.833216
531.135959	-3.027700	3.723200	-11.272000	24.174282	0.001038	20.817543
532.139060	-3.011800	3.722700	-11.210000	24.185380	0.001038	20.838156
533.148945	-3.000200	3.721100	-11.163000	24.227328	0.001041	20.838981
534.123993	-3.002100	3.722200	-11.172000	24.218994	0.001037	20.827302
535.122893	-2.995500	3.722400	-11.149000	24.250964	0.001037	20.829498
536.122781	-2.994800	3.722100	-11.145000	24.226856	0.001038	20.822860
537.134501	-2.987600	3.721200	-11.116000	24.231683	0.001040	20.841926
538.128057	-2.986300	3.721900	-11.114000	24.232130	0.001037	20.838107
539.147438	-3.013700	3.719800	-11.210000	24.262583	0.001038	20.846368
540.123906	-2.993200	3.720200	-11.134000	24.261017	0.001039	20.841952
541.148120	-3.026400	3.718800	-11.254000	24.269773	0.001037	20.825606
542.139570	-3.000300	3.720500	-11.161000	24.279949	0.001037	20.836761
543.126031	-2.980600	3.719600	-11.086000	24.287784	0.001039	20.837508
544.124656	-3.023700	3.717500	-11.240000	24.284999	0.001038	20.829025
545.124272	-2.984000	3.718500	-11.095000	24.290646	0.001037	20.830422
546.148887	-3.032300	3.716900	-11.269000	24.336845	0.001037	20.864436
547.147258	-2.999200	3.717800	-11.149000	24.291243	0.001037	20.839081
548.146749	-3.002900	3.718900	-11.166000	24.292164	0.001037	20.840954
549.145013	-2.996400	3.717400	-11.137000	24.261737	0.001036	20.833192
550.142935	-3.033100	3.716000	-11.269000	24.259623	0.001037	20.835339
551.126785	-2.986500	3.717400	-11.101000	24.263628	0.001037	20.851209
552.126408	-2.994800	3.715600	-11.127000	24.241386	0.001038	20.852607
553.127654	-3.006700	3.717500	-11.175000	24.292015	0.001038	20.839855
554.127783	-3.014300	3.715500	-11.199000	24.297613	0.001038	20.842152
555.126759	-2.995900	3.716300	-11.133000	24.269251	0.001037	20.836461
556.126495	-3.014800	3.715000	-11.199000	24.284526	0.001037	20.861266
557.126930	-3.001600	3.715300	-11.151000	24.271193	0.001035	20.859745
558.128114	-2.996300	3.715100	-11.130000	24.298236	0.001037	20.823811
559.131996	-2.985000	3.715400	-11.090000	24.300673	0.001036	20.856600
560.128348	-2.996000	3.714000	-11.126000	24.304952	0.001036	20.846194
561.133600	-2.997100	3.714600	-11.132000	24.319431	0.001037	20.851236
562.130999	-2.974400	3.715400	-11.049000	24.308658	0.001035	20.845645
563.130845	-3.011200	3.712400	-11.178000	24.288557	0.001036	20.861990
564.141011	-3.004700	3.712500	-11.154000	24.272411	0.001037	20.863812
565.133756	-3.000600	3.712400	-11.138000	24.260942	0.001034	20.858471
566.131378	-3.006300	3.713100	-11.160000	24.274923	0.001035	20.857797
567.131697	-3.008000	3.711700	-11.164000	24.274526	0.001036	20.874468
568.131750	-2.967800	3.712900	-11.018000	24.300473	0.001034	20.867779
569.152493	-2.996700	3.712000	-11.122000	24.322764	0.001036	20.880181
570.149755	-2.992900	3.710300	-11.104000	24.344109	0.001033	20.872670
571.131798	-2.999700	3.709700	-11.127000	24.342043	0.001038	20.866331
572.156357	-3.006700	3.709500	-11.152000	24.343736	0.001035	20.859021
573.149219	-3.009100	3.708600	-11.158000	24.345825	0.001037	20.859219
574.157032	-3.008700	3.708500	-11.157000	24.352417	0.001034	20.868677
575.152061	-3.028200	3.708000	-11.228000	24.349606	0.001035	20.875340
576.150335	-3.007700	3.708700	-11.154000	24.356596	0.001035	20.868602
577.145163	-2.993700	3.708700	-11.102000	24.349257	0.001036	20.884946
578.131222	-3.000900	3.710700	-11.134000	24.361521	0.001036	20.882076
579.150567	-2.996600	3.709600	-11.115000	24.346670	0.001038	20.872869
580.131188	-3.013900	3.707400	-11.173000	24.332216	0.001037	20.866430
581.163640	-2.984200	3.708000	-11.064000	24.374507	0.001036	20.875190
582.146879	-3.010400	3.707600	-11.161000	24.377791	0.001035	20.904086
583.148879	-2.998000	3.707700	-11.115000	24.382966	0.001034	20.883201
584.132328	-3.003000	3.706100	-11.128000	24.372070	0.001035	20.886495
585.151547	-3.037000	3.704200	-11.248000	24.346397	0.001034	20.883026
586.155593	-3.002900	3.707900	-11.133000	24.357268	0.001033	20.873069
587.168941	-2.991700	3.706600	-11.088000	24.371000	0.001035	20.877361
588.155115	-2.994600	3.704800	-11.093000	24.387221	0.001036	20.873246
589.151223	-2.994100	3.705700	-11.093000	24.407493	0.001035	20.883625
590.165145	-2.993400	3.703900	-11.086000	24.409236	0.001036	20.880157
591.152436	-3.013500	3.703500	-11.159000	24.424759	0.001037	20.891936
592.156269	-3.009200	3.703600	-11.144000	24.459011	0.001033	20.881256
593.148378	-3.029900	3.702500	-11.216000	24.469508	0.001033	20.904587
594.166054	-3.016200	3.703500	-11.169000	24.477394	0.001034	20.889267
595.138862	-3.022000	3.702200	-11.187000	24.468265	0.001033	20.903340
596.153486	-3.028800	3.702600	-11.214000	24.468339	0.001032	20.905786
597.168502	-3.014800	3.703100	-11.163000	24.491645	0.001034	20.909253
598.151538	-2.992900	3.703400	-11.083000	24.496745	0.001032	20.906784
599.162497	-3.014400	3.702100	-11.158000	24.504132	0.001035	20.888592
600.155923	-3.013400	3.701400	-11.152000	24.500426	0.001033	20.907632
601.137910	-3.010100	3.701900	-11.142000	24.482021	0.001034	20.908606
602.139356	-2.996200	3.702900	-11.094000	24.456424	0.001034	20.908530
603.137677	-3.005500	3.701400	-11.123000	24.477518	0.001033	20.901245
604.159543	-3.003400	3.701500	-11.117000	24.499980	0.001032	20.918563
605.166048	-2.998400	3.700800	-11.095000	24.520848	0.001034	20.915318
606.139137	-2.990100	3.702100	-11.068000	24.531519	0.001031	20.894258
607.141967	-3.006800	3.700200	-11.124000	24.560694	0.001034	20.911675
608.139720	-3.007200	3.698400	-11.120000	24.572583	0.001032	20.886148
609.139853	-2.995400	3.699100	-11.078000	24.594793	0.001031	20.925025
610.171606	-3.000000	3.699700	-11.098000	24.570245	0.001030	20.916042
611.138644	-3.004200	3.699000	-11.112000	24.572110	0.001033	20.912698
612.162032	-3.015900	3.698200	-11.153000	24.590614	0.001031	20.910876
613.160500	-2.991300	3.699100	-11.065000	24.550348	0.001032	20.894184
614.155461	-3.022500	3.696900	-11.173000	24.542935	0.001030	20.909505
615.155071	-3.016100	3.696800	-11.149000	24.553756	0.001029	20.903292
616.155163	-3.017600	3.697000	-11.155000	24.547463	0.001033	20.913099
617.160394	-3.001700	3.697400	-11.097000	24.563928	0.001030	20.921557
618.141815	-2.992800	3.696400	-11.062000	24.603748	0.001031	20.929268
619.139570	-2.993600	3.697500	-11.068000	24.600091	0.001031	20.909006
620.145484	-3.006200	3.696800	-11.112000	24.618149	0.001029	20.889668
621.144396	-3.010100	3.694800	-11.120000	24.612279	0.001033	20.903691
622.143626	-2.994200	3.695600	-11.064000	24.607032	0.001030	20.908858
623.144246	-3.010500	3.695200	-11.123000	24.584897	0.001031	20.901347
624.142440	-3.015200	3.692700	-11.133000	24.543086	0.001030	20.908708
625.160878	-3.012300	3.692400	-11.122000	24.554951	0.001030	20.897379
626.162078	-3.018100	3.693200	-11.145000	24.507519	0.001031	20.894835
627.160225	-2.984100	3.692900	-11.019000	24.494212	0.001030	20.906138
628.168624	-2.991600	3.694100	-11.049000	24.523511	0.001029	20.899500
629.163114	-3.007900	3.693500	-11.109000	24.518265	0.001028	20.878591
630.144062	-3.003800	3.692200	-11.089000	24.519783	0.001029	20.867786
631.144209	-2.990600	3.692300	-11.041000	24.499111	0.001030	20.899675
632.155159	-3.008000	3.692000	-11.104000	24.524905	0.001030	20.893786
633.145849	-3.009800	3.690600	-11.107000	24.506674	0.001029	20.893512
634.146389	-3.024600	3.691200	-11.164000	24.551942	0.001029	20.864017
635.145676	-2.997500	3.691400	-11.065000	24.585121	0.001029	20.888297
636.165385	-3.003000	3.692100	-11.086000	24.573206	0.001029	20.864016
637.165934	-3.007400	3.690700	-11.098000	24.545525	0.001027	20.889345
638.150261	-3.001200	3.691300	-11.078000	24.572835	0.001030	20.875970
639.150365	-3.006800	3.689900	-11.092000	24.583304	0.001025	20.895483
640.148329	-2.996600	3.690100	-11.057000	24.609196	0.001027	20.871204
641.150949	-2.988800	3.689100	-11.025000	24.636032	0.001026	20.881060
642.148973	-2.975900	3.690100	-10.980000	24.654336	0.001028	20.877616
643.170761	-3.008800	3.689300	-11.099000	24.622378	0.001027	20.879214
644.165497	-2.989100	3.688000	-11.021000	24.605937	0.001026	20.866037
645.168078	-2.998400	3.688500	-11.059000	24.605640	0.001025	20.870007
646.178018	-3.005100	3.687600	-11.080000	24.572783	0.001026	20.874971
647.177246	-2.994700	3.687900	-11.044000	24.579101	0.001025	20.873723
648.179327	-2.980700	3.687900	-10.992000	24.556443	0.001028	20.869007
649.170949	-2.996600	3.687600	-11.050000	24.549704	0.001026	20.864142
650.175124	-3.002600	3.685500	-11.065000	24.513363	0.001025	20.855182
651.155081	-2.993100	3.685700	-11.031000	24.489012	0.001023	20.868208
652.171510	-3.014500	3.686000	-11.110000	24.507268	0.001024	20.865188
653.177452	-2.997600	3.686500	-11.050000	24.513040	0.001025	20.876668
654.171606	-3.014300	3.685500	-11.108000	24.510402	0.001024	20.861220
655.182658	-2.996700	3.685400	-11.044000	24.528610	0.001024	20.870952
656.173623	-3.010300	3.685600	-11.094000	24.546667	0.001025	20.877690
657.176502	-2.975600	3.684100	-10.961000	24.553655	0.001023	20.840133
658.155794	-3.008100	3.684200	-11.081000	24.587008	0.001022	20.866958
659.156115	-2.970200	3.684400	-10.943000	24.599445	0.001024	20.881333
660.156667	-2.991200	3.684200	-11.018000	24.600838	0.001021	20.855705
661.178321	-3.007700	3.683200	-11.077000	24.565717	0.001024	20.870726
662.174019	-3.000400	3.684200	-11.053000	24.585889	0.001022	20.853034
663.174762	-3.000400	3.682900	-11.048000	24.571067	0.001021	20.838637
664.187957	-3.008900	3.681800	-11.076000	24.552163	0.001022	20.860919
665.156529	-3.018900	3.682400	-11.115000	24.521022	0.001022	20.838211
666.159044	-3.008900	3.681500	-11.076000	24.548605	0.001023	20.850238
667.181645	-3.015200	3.682100	-11.101000	24.571290	0.001021	20.872050
668.157090	-2.996500	3.681500	-11.031000	24.587455	0.001021	20.852709
669.157113	-2.996600	3.680300	-11.027000	24.628667	0.001022	20.844275
670.156072	-2.990200	3.682000	-11.009000	24.655874	0.001022	20.857825
671.171438	-2.995600	3.680100	-11.022000	24.666220	0.001020	20.839283
672.172225	-3.004500	3.679400	-11.054000	24.677933	0.001023	20.835864
673.172478	-2.995900	3.680400	-11.025000	24.679326	0.001020	20.863813
674.174814	-2.982200	3.679300	-10.972000	24.713620	0.001021	20.853182
675.156376	-2.993000	3.679500	-11.011000	24.724636	0.001023	20.843374
676.157435	-2.999600	3.679600	-11.036000	24.678431	0.001022	20.839682
677.176420	-2.996100	3.678300	-11.020000	24.679250	0.001020	20.837660
678.157350	-3.013500	3.677400	-11.081000	24.703348	0.001018	20.840979
679.160930	-2.995700	3.678500	-11.019000	24.683652	0.001021	20.840180
680.178289	-3.004800	3.678100	-11.051000	24.663483	0.001022	20.837012
681.176135	-2.995400	3.678000	-11.016000	24.642269	0.001019	20.862191
682.184382	-3.009100	3.676400	-11.061000	24.628267	0.001020	20.825856
683.183076	-2.976800	3.679000	-10.950000	24.614365	0.001022	20.842726
684.180617	-3.012300	3.675000	-11.067000	24.626202	0.001019	20.839905
685.177117	-3.012500	3.676000	-11.072000	24.647516	0.001019	20.835214
686.184170	-3.009700	3.676000	-11.063000	24.707452	0.001020	20.839881
687.181874	-3.010100	3.674200	-11.059000	24.697081	0.001019	20.839905
688.183755	-3.014600	3.675400	-11.079000	24.692306	0.001019	20.828476
689.183941	-2.991300	3.676300	-10.996000	24.714489	0.001020	20.834615
690.187345	-2.997400	3.676000	-11.017000	24.724088	0.001018	20.839506
691.179747	-2.987500	3.675700	-10.980000	24.738313	0.001019	20.837185
692.187679	-3.007600	3.674200	-11.050000	24.735352	0.001016	20.827576
693.182425	-2.986800	3.674500	-10.974000	24.713394	0.001017	20.827352
694.162448	-3.023100	3.671700	-11.099000	24.733487	0.001018	20.820015
695.163477	-2.991600	3.673200	-10.986000	24.752710	0.001016	20.837882
696.163814	-3.010700	3.672000	-11.053000	24.775763	0.001015	20.810283
697.165301	-3.007000	3.672300	-11.041000	24.778323	0.001017	20.828025
698.166076	-2.999200	3.673800	-11.018000	24.800007	0.001015	20.821812
699.167769	-2.992100	3.672100	-10.987000	24.830444	0.001017	20.823908
700.180567	-3.009300	3.672000	-11.049000	24.818556	0.001017	20.814349
701.165617	-2.998500	3.671200	-11.006000	24.780934	0.001016	20.828749
702.186824	-2.978700	3.672300	-10.938000	24.780039	0.001015	20.825480
703.181167	-3.018000	3.670700	-11.077000	24.732268	0.001015	20.855774
704.190223	-2.998300	3.670200	-11.003000	24.715804	0.001015	20.822184
705.197532	-2.985200	3.669700	-10.954000	24.718988	0.001016	20.831069
706.193437	-3.002800	3.669400	-11.018000	24.747885	0.001013	20.816920
707.186501	-3.011900	3.668100	-11.047000	24.742215	0.001014	20.790842
708.188372	-2.992500	3.669200	-10.978000	24.778497	0.001014	20.812553
709.183765	-2.993600	3.669300	-10.983000	24.769594	0.001014	20.808835
710.184975	-2.995000	3.669600	-10.990000	24.792123	0.001014	20.836185
711.183631	-2.983000	3.668800	-10.943000	24.758032	0.001015	20.817619
712.195397	-2.982700	3.669500	-10.944000	24.769817	0.001013	20.820438
713.169679	-3.006200	3.668400	-11.026000	24.759995	0.001012	20.809633
714.169672	-3.009300	3.666400	-11.033000	24.764023	0.001011	20.829322
715.173491	-2.980100	3.668400	-10.932000	24.796649	0.001012	20.786673
716.189570	-3.011500	3.667000	-11.042000	24.829422	0.001012	20.825727
717.171816	-2.999500	3.666500	-10.994000	24.824499	0.001012	20.812252
718.187253	-3.004500	3.667200	-11.016000	24.825843	0.001011	20.784678
719.189374	-3.002600	3.665000	-11.004000	24.827706	0.001013	20.814997
720.196855	-3.015700	3.664800	-11.051000	24.794012	0.001013	20.818166
721.193429	-3.000400	3.665800	-10.998000	24.796251	0.001011	20.810930
722.170895	-3.010000	3.664000	-11.028000	24.809878	0.001011	20.819864
723.173237	-3.019900	3.664500	-11.064000	24.763251	0.001011	20.811952
724.170919	-3.000400	3.664500	-10.993000	24.749003	0.001010	20.802395
725.191898	-2.983200	3.664900	-10.931000	24.736594	0.001010	20.806538
726.196080	-2.999400	3.663400	-10.987000	24.747138	0.001009	20.803843
727.187990	-2.989400	3.664300	-10.953000	24.728711	0.001008	20.800524
728.194294	-2.995000	3.662900	-10.970000	24.731198	0.001007	20.811080
729.191908	-3.001900	3.663400	-10.996000	24.739107	0.001009	20.805741
730.189048	-2.995600	3.663800	-10.974000	24.731472	0.001008	20.806140
731.194416	-3.003200	3.663600	-11.002000	24.748407	0.001006	20.807013
732.196326	-3.010300	3.662200	-11.023000	24.777701	0.001008	20.807013
733.193193	-3.005300	3.662600	-11.005000	24.778050	0.001007	20.806889
734.193583	-2.998700	3.661600	-10.979000	24.802619	0.001007	20.821113
735.190613	-2.978200	3.663000	-10.907000	24.819776	0.001006	20.815573
736.176031	-3.006500	3.660900	-11.006000	24.845214	0.001005	20.814076
737.178311	-3.001500	3.660600	-10.985000	24.829150	0.001006	20.809808
738.178493	-3.004400	3.659700	-10.994000	24.825843	0.001005	20.800799
739.177228	-3.000000	3.659800	-10.978000	24.806746	0.001005	20.801074
740.178309	-2.987300	3.660800	-10.934000	24.813584	0.001006	20.815048
741.177510	-3.017400	3.659400	-11.041000	24.803339	0.001007	20.815673
742.179430	-2.987600	3.659600	-10.931000	24.812614	0.001003	20.803170
743.193738	-3.003700	3.658200	-10.987000	24.827335	0.001001	20.822685
744.206742	-3.016200	3.659300	-11.036000	24.826613	0.001003	20.796356
745.196801	-2.997600	3.660800	-10.973000	24.787449	0.001003	20.815847
746.181756	-3.004700	3.659200	-10.993000	24.804283	0.001005	20.810456
747.186423	-3.013600	3.658500	-11.024000	24.797667	0.001004	20.805239
748.200387	-2.987200	3.658800	-10.929000	24.788094	0.001002	20.804167
749.187290	-2.997400	3.656500	-10.958000	24.780956	0.001001	20.805064
750.181379	-2.999800	3.657200	-10.970000	24.812412	0.001002	20.802019
751.183842	-2.986500	3.657900	-10.923000	24.820296	0.001003	20.800922
752.182188	-3.010700	3.655400	-11.005000	24.828128	0.001004	20.799773
753.185389	-3.024100	3.655800	-11.054000	24.858439	0.001004	20.788943
754.199538	-2.991000	3.657400	-10.938000	24.846778	0.001002	20.802369
755.201512	-3.018900	3.656600	-11.038000	24.864380	0.001000	20.792535
756.206478	-3.014600	3.655000	-11.017000	24.842972	0.001001	20.790015
757.210693	-2.996700	3.653400	-10.947000	24.827654	0.001001	20.804039
758.209663	-2.990700	3.655100	-10.931000	24.839291	0.000999	20.800545
759.184038	-3.009300	3.654200	-10.996000	24.813903	0.001001	20.773169
760.203039	-2.989000	3.655500	-10.926000	24.831135	0.001001	20.798998
761.201878	-3.002500	3.652800	-10.967000	24.850181	0.000999	20.785870
762.189786	-3.011700	3.652200	-10.999000	24.854085	0.000998	20.796427
763.202972	-3.008500	3.653800	-10.991000	24.876489	0.001000	20.789040
764.187382	-2.989900	3.653600	-10.923000	24.875718	0.000997	20.796801
765.187834	-2.990200	3.653000	-10.922000	24.909260	0.000999	20.786369
766.205798	-3.002400	3.652300	-10.964000	24.910825	0.000999	20.781303
767.187179	-3.003700	3.651400	-10.967000	24.959931	0.000999	20.797873
768.185987	-3.009700	3.651300	-10.988000	24.949836	0.000996	20.797698
769.209010	-3.006200	3.650800	-10.973000	24.963785	0.000997	20.799371
770.202035	-3.006100	3.650500	-10.972000	24.980790	0.000997	20.778981
771.203614	-3.019200	3.651000	-11.021000	24.990635	0.000996	20.783173
772.214421	-2.988300	3.651800	-10.912000	25.015771	0.000995	20.790386
773.188691	-3.013900	3.649000	-10.997000	25.010947	0.000998	20.783647
774.189348	-3.016500	3.649800	-11.008000	25.028624	0.000997	20.785270
775.188762	-2.979900	3.649800	-10.875000	25.009630	0.000994	20.767152
776.189373	-3.006800	3.649700	-10.973000	25.031557	0.000996	20.788214
777.188499	-3.004700	3.648600	-10.961000	25.047269	0.000995	20.801141
778.204124	-3.003500	3.648200	-10.955000	25.060024	0.000996	20.802090
779.209040	-3.002300	3.648600	-10.954000	25.034366	0.000995	20.783447
780.223732	-3.012400	3.650100	-10.994000	25.046125	0.000994	20.773440
781.209441	-3.016200	3.648400	-11.003000	25.066412	0.000993	20.793803
782.191495	-3.015900	3.647100	-10.998000	25.034316	0.000995	20.784820
783.190974	-3.007000	3.648300	-10.969000	25.014302	0.000993	20.790808
784.219968	-3.006800	3.646900	-10.964000	25.005876	0.000994	20.777134
785.191095	-2.997500	3.648200	-10.934000	24.971216	0.000994	20.776009
786.213746	-2.978300	3.648000	-10.865000	24.961918	0.000992	20.783272
787.190343	-3.003000	3.647100	-10.950000	24.964727	0.000991	20.769970
788.215074	-2.994000	3.646500	-10.916000	24.991032	0.000991	20.780727
789.207541	-2.992400	3.646600	-10.910000	24.988247	0.000992	20.804010
790.208957	-2.991500	3.645100	-10.903000	24.960998	0.000991	20.768598
791.207545	-3.000900	3.644900	-10.937000	24.988421	0.000993	20.758191
792.207567	-3.000400	3.645700	-10.937000	24.972035	0.000991	20.806703
793.211105	-2.994700	3.644900	-10.913000	24.966218	0.000989	20.783321
794.213169	-2.999000	3.644800	-10.930000	24.984367	0.000990	20.763131
795.214159	-3.001900	3.644200	-10.938000	25.014276	0.000991	20.774661
796.215805	-3.016500	3.642600	-10.986000	24.977630	0.000989	20.743092
797.208847	-2.987000	3.644500	-10.885000	24.975914	0.000989	20.781199
798.194276	-3.012800	3.641300	-10.970000	24.959355	0.000989	20.766475
799.193274	-3.003300	3.643000	-10.941000	24.916017	0.000988	20.766599
800.196305	-3.010600	3.642300	-10.965000	24.917286	0.000988	20.783046
801.219049	-2.992500	3.643200	-10.901000	24.895355	0.000988	20.779526
802.210659	-3.013200	3.641500	-10.972000	24.894983	0.000989	20.785791
803.210767	-2.984700	3.642500	-10.871000	24.905872	0.000989	20.785340
804.195241	-3.003800	3.642500	-10.939000	24.925641	0.000988	20.779578
805.194965	-2.981200	3.642300	-10.857000	24.942249	0.000987	20.779651
806.199579	-2.999700	3.640500	-10.919000	24.942249	0.000986	20.762582
807.197607	-2.994000	3.641000	-10.899000	24.930090	0.000985	20.758912
808.201820	-3.026600	3.640100	-11.016000	24.960696	0.000985	20.754545
809.197571	-3.002800	3.639500	-10.928000	24.932800	0.000987	20.773012
810.220124	-3.005700	3.639600	-10.938000	24.928673	0.000987	20.752748
811.215718	-2.973500	3.640500	-10.824000	24.928075	0.000987	20.759260
812.215325	-2.995400	3.640400	-10.904000	24.934541	0.000982	20.753896
813.197793	-2.980000	3.640000	-10.846000	24.930511	0.000981	20.782095
814.197972	-2.982200	3.639600	-10.854000	24.924794	0.000984	20.768295
815.213166	-3.013400	3.638900	-10.964000	24.914027	0.000985	20.757489
816.214749	-3.013000	3.638300	-10.962000	24.919498	0.000985	20.755393
817.217701	-3.018700	3.638800	-10.984000	24.898611	0.000982	20.759560
818.217268	-3.005300	3.637800	-10.932000	24.923251	0.000983	20.770540
819.221404	-3.004500	3.637000	-10.925000	24.964226	0.000983	20.750975
820.214477	-3.019700	3.635800	-10.978000	24.948215	0.000982	20.746758
821.213774	-3.003700	3.636900	-10.923000	24.971039	0.000981	20.755443
822.217989	-2.991700	3.637200	-10.880000	25.012112	0.000981	20.741667
823.199236	-3.005000	3.635800	-10.925000	25.024892	0.000981	20.757341
824.201847	-3.004700	3.636700	-10.926000	25.062208	0.000980	20.770617
825.199556	-3.002000	3.635100	-10.911000	25.026831	0.000980	20.752649
826.215934	-3.024900	3.634700	-10.993000	25.022056	0.000980	20.763978
827.215856	-2.989000	3.636500	-10.868000	25.020863	0.000981	20.749978
828.214506	-2.998300	3.635600	-10.899000	25.046372	0.000981	20.762782
829.214895	-2.986300	3.634600	-10.853000	25.060468	0.000980	20.747533
830.219046	-2.977200	3.635100	-10.821000	25.111108	0.000979	20.759013
831.215888	-3.005300	3.632500	-10.915000	25.110162	0.000979	20.739571
832.228129	-3.012200	3.633400	-10.943000	25.144991	0.000980	20.755569
833.227400	-2.984000	3.633300	-10.841000	25.103849	0.000980	20.774012
834.219354	-2.996800	3.633600	-10.887000	25.100294	0.000979	20.745312
835.204180	-2.986000	3.633600	-10.848000	25.118765	0.000978	20.744888
836.201674	-3.016700	3.630900	-10.952000	25.095746	0.000977	20.762084
837.216875	-3.023100	3.630900	-10.975000	25.059401	0.000978	20.759739
838.225257	-2.999600	3.631400	-10.891000	25.038418	0.000976	20.745788
839.220434	-3.001600	3.629800	-10.893000	25.080036	0.000975	20.741097
840.211659	-2.985500	3.632900	-10.845000	25.089184	0.000977	20.746961
841.204711	-2.997400	3.631400	-10.883000	25.078793	0.000976	20.756446
842.204453	-2.999400	3.632200	-10.893000	25.052341	0.000975	20.715665
843.203302	-3.005100	3.629200	-10.905000	25.045281	0.000976	20.749833
844.207362	-2.996700	3.630400	-10.877000	25.020818	0.000974	20.742820
845.205369	-2.986300	3.631100	-10.842000	25.043839	0.000975	20.762610
846.204776	-3.007600	3.629000	-10.914000	25.054781	0.000973	20.746092
847.206421	-3.005400	3.629900	-10.908000	25.103382	0.000975	20.776388
848.207063	-3.009600	3.630200	-10.923000	25.086651	0.000971	20.752480
849.209351	-3.017500	3.627900	-10.945000	25.098112	0.000972	20.739328
850.206074	-2.994300	3.629000	-10.865000	25.107633	0.000972	20.755999
851.205300	-2.997100	3.629200	-10.875000	25.100574	0.000969	20.757448
852.205484	-3.007000	3.628300	-10.909000	25.086353	0.000972	20.772570
853.206300	-3.000700	3.628200	-10.885000	25.105695	0.000969	20.746941
854.224691	-2.995400	3.627600	-10.865000	25.111290	0.000969	20.739280
855.223087	-2.981500	3.628000	-10.816000	25.087176	0.000971	20.751584
856.227187	-2.997300	3.626800	-10.869000	25.095031	0.000971	20.756625
857.230156	-3.000700	3.627200	-10.882000	25.075765	0.000969	20.750560
858.224636	-2.987600	3.626400	-10.833000	25.054758	0.000967	20.753181
859.209562	-2.994000	3.625800	-10.855000	25.048643	0.000968	20.746094
860.209396	-2.998000	3.624900	-10.866000	25.049713	0.000968	20.753333
861.231649	-3.020300	3.624200	-10.945000	25.040514	0.000967	20.756901
862.230392	-3.002000	3.624300	-10.879000	25.051403	0.000967	20.738433
863.211232	-3.017800	3.624200	-10.936000	25.030222	0.000966	20.743724
864.208909	-2.993000	3.625000	-10.848000	25.038201	0.000968	20.750786
865.212359	-3.005200	3.623900	-10.889000	25.051602	0.000966	20.754755
866.209228	-2.991500	3.623700	-10.839000	25.065648	0.000966	20.752259
867.210837	-3.008600	3.623400	-10.899000	25.097618	0.000968	20.741203
868.210913	-3.006200	3.622500	-10.889000	25.117334	0.000968	20.744874
869.212142	-3.005300	3.623500	-10.889000	25.103959	0.000965	20.728602
870.217701	-3.030600	3.622500	-10.978000	25.116513	0.000965	20.754481
871.212026	-2.993100	3.622700	-10.843000	25.124991	0.000965	20.742603
872.212805	-3.001300	3.622300	-10.871000	25.132522	0.000965	20.751586
873.213595	-2.994800	3.621500	-10.845000	25.115170	0.000966	20.755505
874.236254	-2.986700	3.622500	-10.818000	25.114276	0.000962	20.749391
875.216756	-3.011000	3.620500	-10.901000	25.100504	0.000963	20.750739
876.216469	-3.014600	3.620700	-10.913000	25.115843	0.000961	20.747645
877.229852	-3.016400	3.619300	-10.917000	25.117955	0.000962	20.745023
878.215117	-2.988200	3.620600	-10.818000	25.129067	0.000962	20.759498
879.230830	-2.998500	3.620700	-10.855000	25.126807	0.000962	20.762445
880.231465	-3.004200	3.618400	-10.868000	25.050436	0.000962	20.759748
881.230257	-2.988900	3.619400	-10.817000	25.051481	0.000964	20.767911
882.237377	-3.010100	3.619200	-10.892000	25.060405	0.000959	20.741306
883.229634	-3.011800	3.618900	-10.898000	25.091383	0.000962	20.750591
884.231648	-2.993900	3.618600	-10.833000	25.125739	0.000959	20.772278
885.214250	-2.994800	3.617500	-10.832000	25.151914	0.000961	20.737388
886.219316	-3.017800	3.615800	-10.909000	25.185697	0.000956	20.746174
887.216170	-2.993100	3.616500	-10.824000	25.149703	0.000958	20.750343
888.218518	-3.005800	3.617400	-10.872000	25.132874	0.000960	20.770433
889.218032	-2.987000	3.618300	-10.807000	25.139983	0.000957	20.763818
890.237780	-3.021600	3.616100	-10.925000	25.147019	0.000960	20.757605
891.215945	-2.999400	3.616000	-10.845000	25.164345	0.000957	20.758878
892.220052	-2.989200	3.616300	-10.808000	25.208866	0.000958	20.758054
893.216951	-2.997400	3.615200	-10.835000	25.189004	0.000961	20.769409
894.217041	-3.021700	3.612900	-10.916000	25.203100	0.000956	20.775974
895.216303	-3.010400	3.614300	-10.878000	25.175234	0.000956	20.751317
896.218141	-2.984300	3.615500	-10.788000	25.200514	0.000955	20.757256
897.236383	-2.986900	3.615000	-10.796000	25.229275	0.000956	20.765742
898.243158	-2.983200	3.614600	-10.781000	25.213514	0.000955	20.753238
899.219662	-2.997000	3.612600	-10.825000	25.214383	0.000953	20.760275
900.218275	-2.989400	3.613500	-10.802000	25.226441	0.000955	20.773329
901.236214	-3.007300	3.614000	-10.868000	25.266360	0.000953	20.775000
902.238092	-3.010500	3.612500	-10.872000	25.254752	0.000952	20.776149
903.219815	-2.996100	3.613900	-10.826000	25.266808	0.000955	20.777347
904.220126	-3.009900	3.612100	-10.870000	25.236657	0.000954	20.786430
905.242334	-3.007200	3.611700	-10.859000	25.252913	0.000950	20.786630
906.240449	-3.029800	3.610900	-10.939000	25.220650	0.000950	20.763722
907.236562	-3.007900	3.611200	-10.861000	25.210882	0.000950	20.758182
908.241207	-2.986000	3.610600	-10.780000	25.255201	0.000950	20.756210
909.237536	-2.995900	3.610400	-10.815000	25.260172	0.000952	20.775426
910.239035	-3.015800	3.609100	-10.883000	25.263080	0.000950	20.747051
911.241666	-2.987800	3.610900	-10.787000	25.272996	0.000952	20.781664
912.244023	-3.015100	3.609800	-10.883000	25.270413	0.000948	20.743508
913.227094	-2.995000	3.609600	-10.808000	25.278987	0.000950	20.782937
914.242293	-2.983100	3.609600	-10.766000	25.293579	0.000947	20.794268
915.243044	-3.007000	3.610500	-10.855000	25.317389	0.000950	20.773130
916.248417	-2.977600	3.608900	-10.745000	25.322955	0.000946	20.779667
917.242102	-2.983800	3.609200	-10.767000	25.308814	0.000946	20.776848
918.248817	-2.983800	3.609400	-10.769000	25.304863	0.000948	20.769088
919.244022	-3.015600	3.609000	-10.883000	25.291093	0.000947	20.797936
920.245702	-2.997000	3.608500	-10.813000	25.291093	0.000945	20.779444
921.226790	-3.014800	3.608300	-10.877000	25.287264	0.000946	20.775600
922.250524	-2.986900	3.608200	-10.777000	25.326162	0.000944	20.798534
923.243819	-2.995300	3.607500	-10.805000	25.332600	0.000944	20.764221
924.242894	-2.989300	3.607600	-10.783000	25.289202	0.000945	20.774227
925.245648	-2.997300	3.606500	-10.809000	25.285971	0.000946	20.783311
926.255877	-3.018900	3.606400	-10.886000	25.281026	0.000942	20.759853
927.244682	-2.999400	3.605100	-10.812000	25.300138	0.000943	20.790897
928.228184	-2.991300	3.605800	-10.784000	25.272449	0.000944	20.786804
929.230870	-2.994200	3.605000	-10.792000	25.227211	0.000942	20.787853
930.230692	-2.987900	3.604300	-10.769000	25.211128	0.000944	20.792095
931.229455	-2.994200	3.604100	-10.790000	25.204666	0.000943	20.780865
932.229650	-2.998300	3.603800	-10.804000	25.205709	0.000943	20.767688
933.257863	-3.003800	3.603500	-10.823000	25.216770	0.000943	20.785905
934.245054	-2.988500	3.603700	-10.768000	25.248685	0.000944	20.787601
935.232138	-2.981300	3.602500	-10.739000	25.282217	0.000938	20.780964
936.232137	-2.998000	3.602200	-10.798000	25.300336	0.000941	20.807691
937.251494	-3.031100	3.599700	-10.908000	25.308512	0.000941	20.771330
938.231545	-3.029800	3.600300	-10.907000	25.277419	0.000940	20.770457
939.253258	-2.998500	3.601800	-10.799000	25.285893	0.000937	20.787974
940.249939	-2.999400	3.602400	-10.804000	25.268893	0.000941	20.809312
941.256107	-2.994300	3.600300	-10.779000	25.246993	0.000937	20.775471
942.248996	-3.006900	3.600700	-10.825000	25.307967	0.000939	20.766988
943.234572	-3.012800	3.599400	-10.844000	25.309184	0.000935	20.802824
944.233260	-2.996900	3.600100	-10.789000	25.332572	0.000937	20.797858
945.236652	-3.008100	3.599500	-10.827000	25.389238	0.000936	20.793590
946.234941	-2.999000	3.599900	-10.795000	25.374202	0.000935	20.797459
947.239459	-2.998100	3.600700	-10.794000	25.399974	0.000936	20.800103
948.234540	-3.001400	3.599300	-10.802000	25.439043	0.000933	20.778168
949.234681	-2.988500	3.598500	-10.753000	25.454078	0.000935	20.809387
950.259773	-2.979300	3.599900	-10.725000	25.452785	0.000932	20.785329
951.235965	-2.984200	3.597800	-10.736000	25.465683	0.000932	20.809661
952.234166	-3.003300	3.597800	-10.804000	25.482683	0.000933	20.783110
953.256872	-3.036700	3.595600	-10.918000	25.489814	0.000932	20.815875
954.236034	-3.003800	3.597200	-10.804000	25.483154	0.000930	20.780264
955.249905	-2.989700	3.596800	-10.751000	25.481912	0.000934	20.799405
956.256322	-3.019600	3.596400	-10.859000	25.485366	0.000931	20.788650
957.234409	-3.003200	3.596200	-10.798000	25.474880	0.000933	20.806095
958.252201	-2.998300	3.597000	-10.784000	25.479104	0.000930	20.792792
959.253210	-3.010600	3.594800	-10.821000	25.473586	0.000930	20.799579
960.235438	-2.993800	3.595500	-10.763000	25.459497	0.000932	20.803923
961.235213	-3.012400	3.594800	-10.828000	25.475773	0.000928	20.815052
962.235303	-2.990600	3.595300	-10.751000	25.463671	0.000928	20.802425
963.239668	-3.000600	3.593700	-10.782000	25.476693	0.000930	20.792268
964.254519	-3.006400	3.592900	-10.801000	25.472568	0.000929	20.826532
965.257145	-3.016000	3.592000	-10.832000	25.496871	0.000929	20.829126
966.234370	-3.000500	3.593800	-10.780000	25.480172	0.000929	20.794340
967.238198	-3.016800	3.592700	-10.837000	25.482309	0.000927	20.803597
968.251103	-2.998300	3.592200	-10.770000	25.503681	0.000925	20.827904
969.250942	-3.017800	3.591900	-10.839000	25.503432	0.000925	20.809636
970.258179	-3.009000	3.591900	-10.807000	25.478233	0.000927	20.805668
971.240189	-3.017700	3.591900	-10.838000	25.491876	0.000925	20.820791
972.239470	-3.000300	3.591600	-10.775000	25.472641	0.000926	20.816174
973.237010	-2.977000	3.592100	-10.692000	25.474529	0.000923	20.836087
974.239528	-3.004500	3.590800	-10.787000	25.443887	0.000923	20.824284
975.237962	-2.992900	3.591600	-10.748000	25.407776	0.000924	20.829748
976.237402	-3.008800	3.588500	-10.796000	25.386677	0.000921	20.838433
977.241014	-3.000100	3.589900	-10.769000	25.352304	0.000924	20.839955
978.253687	-2.999200	3.589500	-10.763000	25.380711	0.000922	20.812529
979.254424	-2.998900	3.589500	-10.762000	25.395549	0.000922	20.821264
980.256696	-2.973900	3.589300	-10.673000	25.404744	0.000920	20.814375
981.254926	-2.971800	3.589800	-10.666000	25.401911	0.000923	20.804892
982.242004	-2.997200	3.588000	-10.752000	25.434566	0.000922	20.838156
983.241391	-3.008500	3.587700	-10.792000	25.417392	0.000923	20.817119
984.240393	-2.982500	3.589500	-10.705000	25.383841	0.000918	20.807611
985.263627	-3.005900	3.587700	-10.783000	25.401511	0.000918	20.830095
986.240676	-3.026600	3.586900	-10.854000	25.414832	0.000916	20.822609
987.245256	-2.981200	3.587600	-10.694000	25.421443	0.000918	20.838729
988.259748	-2.996900	3.585500	-10.745000	25.465504	0.000916	20.813275
989.262971	-3.007200	3.585300	-10.781000	25.488790	0.000918	20.831442
990.264314	-3.014500	3.586700	-10.811000	25.523630	0.000920	20.831342
991.261972	-2.971500	3.586600	-10.657000	25.533941	0.000917	20.833162
992.262149	-3.015100	3.583400	-10.803000	25.559487	0.000916	20.830368
993.262324	-3.008100	3.585200	-10.783000	25.563636	0.000917	20.840224
994.265291	-2.993900	3.584500	-10.731000	25.544402	0.000916	20.818538
995.245081	-3.004200	3.584200	-10.766000	25.587068	0.000913	20.835308
996.246085	-2.985200	3.584600	-10.699000	25.589428	0.000913	20.849057
997.266167	-3.001000	3.583100	-10.751000	25.601952	0.000915	20.820384
998.265271	-2.999400	3.582900	-10.746000	25.607566	0.000914	20.853523
999.270474	-3.019600	3.584500	-10.822000	25.621731	0.000914	20.831714
1000.266999	-2.995200	3.582700	-10.728000	25.594844	0.000912	20.836953
1001.264138	-3.002100	3.582900	-10.755000	25.569374	0.000910	20.847409
1002.267742	-2.972200	3.582500	-10.647000	25.561050	0.000911	20.840472
1003.247622	-3.022900	3.581800	-10.826000	25.520122	0.000912	20.830664
1004.249897	-2.992600	3.581600	-10.717000	25.553023	0.000909	20.830040
1005.250211	-2.991800	3.581800	-10.715000	25.539032	0.000909	20.846809
1006.266327	-3.010300	3.581300	-10.780000	25.568156	0.000908	20.834332
1007.266020	-2.988500	3.580100	-10.698000	25.574393	0.000910	20.833958
1008.265850	-2.997000	3.580600	-10.730000	25.541293	0.000910	20.838648
1009.246266	-3.016500	3.579700	-10.797000	25.542759	0.000905	20.831586
1010.267227	-3.015800	3.578600	-10.791000	25.534111	0.000904	20.837126
1011.261786	-2.997400	3.579400	-10.728000	25.549591	0.000907	20.859309
1012.270004	-3.004900	3.579800	-10.756000	25.555928	0.000906	20.840544
1013.264705	-3.005400	3.579200	-10.756000	25.589026	0.000905	20.842963
1014.273794	-2.991900	3.579100	-10.708000	25.595339	0.000908	20.848829
1015.272061	-2.992300	3.579200	-10.709000	25.545094	0.000906	20.842939
1016.248817	-2.974200	3.578400	-10.642000	25.551852	0.000905	20.844511
1017.253903	-3.006300	3.577200	-10.753000	25.560823	0.000907	20.854468
1018.248571	-2.998900	3.579000	-10.731000	25.574465	0.000908	20.835452
1019.262265	-2.976600	3.576800	-10.646000	25.580453	0.000902	20.840518
1020.277950	-3.007100	3.576000	-10.753000	25.584753	0.000904	20.855741
1021.278345	-3.007500	3.575100	-10.751000	25.587013	0.000903	20.835726
1022.249746	-3.009600	3.575800	-10.761000	25.600555	0.000901	20.820404
1023.272205	-2.989300	3.576900	-10.690000	25.605201	0.000902	20.853992
1024.268432	-3.026800	3.573400	-10.815000	25.632583	0.000903	20.868216
1025.272418	-2.988000	3.573700	-10.677000	25.651914	0.000901	20.855390
1026.275494	-3.012000	3.573600	-10.762000	25.653156	0.000900	20.851421
1027.270422	-3.017100	3.573000	-10.779000	25.680885	0.000902	20.871210
1028.271877	-2.987300	3.574900	-10.678000	25.648384	0.000899	20.873654
1029.271394	-3.005100	3.572300	-10.734000	25.633105	0.000900	20.862102
1030.277346	-2.980000	3.574100	-10.648000	25.607858	0.000901	20.858083
1031.272299	-3.012100	3.573000	-10.760000	25.588278	0.000898	20.852644
1032.272709	-3.010900	3.571400	-10.751000	25.581644	0.000899	20.858782
1033.269830	-3.013000	3.572700	-10.763000	25.564473	0.000896	20.872357
1034.275660	-3.002400	3.571100	-10.721000	25.554234	0.000894	20.871084
1035.271358	-2.999200	3.571200	-10.710000	25.581022	0.000895	20.855788
1036.254820	-3.018900	3.570700	-10.778000	25.568921	0.000897	20.850747
1037.258636	-3.005300	3.570900	-10.730000	25.580700	0.000896	20.844084
1038.274834	-3.004900	3.570100	-10.726000	25.554832	0.000895	20.867417
1039.271508	-3.010000	3.570200	-10.746000	25.558634	0.000896	20.846106
1040.271188	-3.014600	3.568300	-10.756000	25.572824	0.000894	20.879795
1041.254187	-2.994300	3.568900	-10.685000	25.555478	0.000893	20.874230
1042.273923	-3.010200	3.570700	-10.747000	25.604107	0.000893	20.870437
1043.273795	-3.006500	3.569900	-10.732000	25.605748	0.000893	20.874455
1044.271299	-3.005700	3.568600	-10.725000	25.592181	0.000892	20.879321
1045.278074	-3.004100	3.567800	-10.717000	25.588181	0.000891	20.884312
1046.277595	-3.005900	3.568100	-10.724000	25.602170	0.000890	20.865646
1047.256455	-3.003800	3.568100	-10.717000	25.574390	0.000891	20.881368
1048.259359	-2.990700	3.566800	-10.666000	25.576055	0.000889	20.858386
1049.255475	-3.013700	3.567000	-10.749000	25.567556	0.000891	20.878298
1050.280525	-2.986600	3.566500	-10.650000	25.552474	0.000888	20.880220
1051.257021	-2.989000	3.566900	-10.660000	25.526679	0.000887	20.887032
1052.280567	-2.998600	3.566200	-10.692000	25.521287	0.000887	20.879247
1053.260196	-3.014900	3.565000	-10.747000	25.557021	0.000887	20.878149
1054.257165	-3.017200	3.564200	-10.753000	25.548150	0.000887	20.902903
1055.263404	-2.994700	3.564900	-10.675000	25.565842	0.000886	20.883214
1056.276882	-3.004100	3.564900	-10.708000	25.590070	0.000886	20.888105
1057.258491	-3.030000	3.562500	-10.792000	25.605128	0.000885	20.878099
1058.275157	-3.006800	3.564200	-10.716000	25.640684	0.000884	20.869239
1059.277730	-3.012000	3.562600	-10.729000	25.630372	0.000884	20.904399
1060.259843	-2.998400	3.564000	-10.685000	25.612308	0.000884	20.888628
1061.278150	-3.002500	3.563000	-10.697000	25.596206	0.000883	20.898535
1062.275009	-2.994100	3.563600	-10.669000	25.627465	0.000884	20.879670
1063.282811	-3.009800	3.562500	-10.720000	25.635714	0.000882	20.873730
1064.260851	-2.991200	3.561300	-10.651000	25.642347	0.000881	20.883711
1065.260336	-2.990300	3.562700	-10.652000	25.624556	0.000881	20.886231
1066.281354	-2.981000	3.561600	-10.616000	25.594092	0.000880	20.910161
1067.285561	-3.007800	3.561100	-10.710000	25.609027	0.000880	20.893867
1068.262027	-2.997400	3.560700	-10.671000	25.625152	0.000879	20.905794
1069.264955	-3.017000	3.560900	-10.742000	25.638868	0.000878	20.902026
1070.262112	-3.013100	3.560400	-10.727000	25.641104	0.000877	20.876773
1071.288251	-3.035900	3.558800	-10.803000	25.632804	0.000876	20.904471
1072.272392	-2.986600	3.560400	-10.633000	25.607857	0.000877	20.890796
1073.262391	-2.989000	3.561100	-10.643000	25.594340	0.000874	20.899506
1074.268890	-3.014900	3.558500	-10.728000	25.580125	0.000876	20.928849
1075.266093	-3.004600	3.558300	-10.691000	25.609273	0.000874	20.915450
1076.262759	-3.001800	3.559700	-10.684000	25.619412	0.000875	20.886754
1077.262926	-3.029400	3.556700	-10.774000	25.635214	0.000876	20.880341
1078.278040	-3.007200	3.556400	-10.694000	25.646271	0.000875	20.896186
1079.283164	-2.986000	3.558900	-10.625000	25.635188	0.000873	20.901650
1080.278429	-2.986400	3.557700	-10.623000	25.631337	0.000873	20.908686
1081.278242	-2.979200	3.557300	-10.595000	25.616203	0.000872	20.893963
1082.264946	-3.000800	3.556900	-10.671000	25.605941	0.000874	20.891243
1083.261410	-2.988900	3.556600	-10.630000	25.584372	0.000872	20.899452
1084.272933	-2.978400	3.555900	-10.589000	25.600748	0.000869	20.895036
1085.264643	-2.988000	3.555900	-10.625000	25.547770	0.000872	20.886876
1086.267822	-3.007600	3.555600	-10.693000	25.539569	0.000872	20.890020
1087.261899	-3.002700	3.554400	-10.672000	25.553062	0.000871	20.889820
1088.262974	-2.996900	3.554000	-10.650000	25.513129	0.000868	20.871529
1089.262847	-2.986500	3.554700	-10.615000	25.551222	0.000867	20.872800
1090.262152	-2.990500	3.554500	-10.628000	25.589118	0.000867	20.878616
1091.269646	-3.001900	3.553100	-10.665000	25.610759	0.000867	20.861944
1092.266439	-2.997100	3.552000	-10.643000	25.647011	0.000868	20.877016
1093.268010	-3.006000	3.552800	-10.679000	25.673299	0.000867	20.880659
1094.281932	-2.994200	3.552700	-10.637000	25.655384	0.000865	20.882107
1095.288909	-2.985600	3.552500	-10.606000	25.667609	0.000866	20.885849
1096.288061	-2.987400	3.551900	-10.610000	25.665298	0.000864	20.871676
1097.285526	-2.987500	3.551900	-10.609000	25.654589	0.000864	20.880833
1098.289076	-3.006200	3.550600	-10.672000	25.656998	0.000864	20.869029
1099.270833	-2.998900	3.549900	-10.645000	25.632698	0.000862	20.865486
1100.291749	-2.978600	3.551700	-10.576000	25.601388	0.000862	20.884774
1101.294367	-3.003200	3.550400	-10.660000	25.609761	0.000863	20.883701
1102.301207	-3.003700	3.548500	-10.657000	25.566824	0.000862	20.863340
1103.292590	-2.999200	3.549600	-10.645000	25.564835	0.000859	20.871773
1104.295761	-3.003200	3.548800	-10.657000	25.555716	0.000861	20.874468
1105.298386	-3.025100	3.547900	-10.731000	25.546944	0.000859	20.859021
1106.299149	-3.039600	3.546900	-10.780000	25.582651	0.000859	20.868803
1107.298491	-2.993000	3.548700	-10.619000	25.597958	0.000861	20.859993
1108.290233	-3.009800	3.547500	-10.676000	25.624570	0.000858	20.872496
1109.299213	-3.002300	3.547400	-10.649000	25.627825	0.000856	20.856800
1110.297100	-2.983700	3.548300	-10.585000	25.658784	0.000858	20.841427
1111.288303	-2.992400	3.548400	-10.617000	25.675630	0.000860	20.857872
1112.296825	-2.998700	3.545600	-10.631000	25.667380	0.000856	20.862388
1113.294351	-2.996700	3.545900	-10.625000	25.649988	0.000855	20.859144
1114.290094	-2.998300	3.545900	-10.631000	25.615026	0.000856	20.840627
1115.274355	-2.988400	3.544800	-10.591000	25.607449	0.000856	20.857198
1116.288167	-2.993500	3.544800	-10.610000	25.614108	0.000851	20.839231
1117.289042	-3.018900	3.543500	-10.696000	25.610827	0.000852	20.842099
1118.294680	-2.988200	3.545100	-10.593000	25.657939	0.000854	20.849112
1119.292783	-2.997100	3.544300	-10.622000	25.661367	0.000855	20.850185
1120.300913	-2.989400	3.544500	-10.595000	25.692649	0.000852	20.844146
1121.299305	-2.977100	3.544300	-10.551000	25.697493	0.000852	20.859916
1122.291018	-2.995000	3.543900	-10.613000	25.684821	0.000853	20.832966
1123.293249	-3.000900	3.542400	-10.630000	25.723730	0.000852	20.836959
1124.276885	-3.023100	3.541600	-10.704000	25.723457	0.000852	20.829572
1125.279696	-2.972000	3.545100	-10.535000	25.729419	0.000850	20.827974
1126.277643	-2.971000	3.542700	-10.524000	25.766563	0.000847	20.837782
1127.278301	-2.990200	3.542000	-10.589000	25.738538	0.000848	20.846141
1128.281040	-2.975000	3.542900	-10.539000	25.710561	0.000848	20.827999
1129.298871	-2.991800	3.542500	-10.597000	25.672870	0.000849	20.852255
1130.293536	-3.005800	3.541000	-10.642000	25.650557	0.000849	20.851656
1131.297615	-2.993000	3.541200	-10.597000	25.649713	0.000846	20.842273
1132.302646	-2.978800	3.540300	-10.544000	25.654857	0.000847	20.855026
1133.305517	-3.010200	3.539400	-10.653000	25.676572	0.000847	20.829896
1134.298118	-3.005700	3.540000	-10.640000	25.707456	0.000845	20.823932
1135.297626	-3.007000	3.540500	-10.645000	25.715754	0.000845	20.839853
1136.309597	-2.996200	3.539300	-10.604000	25.727085	0.000844	20.835586
1137.306190	-2.999700	3.538900	-10.614000	25.700350	0.000844	20.823907
1138.309489	-2.990400	3.538900	-10.581000	25.744425	0.000843	20.840202
1139.307765	-3.010300	3.537900	-10.649000	25.766314	0.000843	20.819515
1140.310745	-3.000700	3.538100	-10.615000	25.761073	0.000843	20.845543
1141.315400	-3.014100	3.536900	-10.660000	25.759035	0.000842	20.836859
1142.286022	-3.021300	3.535100	-10.679000	25.772500	0.000843	20.856547
1143.308466	-3.009000	3.537200	-10.642000	25.805145	0.000841	20.816321
1144.304248	-2.976000	3.536200	-10.523000	25.816897	0.000838	20.852306
1145.304191	-2.983300	3.536900	-10.551000	25.860545	0.000838	20.829772
1146.287303	-3.015800	3.535700	-10.662000	25.857838	0.000840	20.837483
1147.284672	-2.983500	3.535600	-10.548000	25.885860	0.000840	20.859468
1148.285698	-2.980300	3.534400	-10.531000	25.914874	0.000838	20.816072
1149.285841	-2.995200	3.533400	-10.583000	25.897981	0.000837	20.831817
1150.287492	-2.997200	3.533800	-10.589000	25.913558	0.000837	20.826129
1151.286614	-2.969100	3.534100	-10.491000	25.929877	0.000837	20.833989
1152.305823	-2.983400	3.534600	-10.545000	25.949104	0.000838	20.831967
1153.297978	-2.997500	3.533300	-10.590000	25.952830	0.000836	20.843297
1154.286211	-2.994500	3.532900	-10.579000	25.952781	0.000835	20.829024
1155.287929	-3.024200	3.532500	-10.681000	25.939888	0.000834	20.824132
1156.287868	-3.012700	3.532000	-10.640000	25.927244	0.000833	20.826602
1157.285396	-2.999400	3.531600	-10.592000	25.906899	0.000833	20.830819
1158.286589	-3.004400	3.530700	-10.607000	25.850210	0.000832	20.828872
1159.287678	-3.012300	3.530500	-10.634000	25.799554	0.000830	20.821610
1160.298410	-3.017200	3.530100	-10.650000	25.829764	0.000832	20.837257
1161.287488	-3.016500	3.530600	-10.649000	25.811056	0.000830	20.827000
1162.295593	-3.008500	3.529400	-10.616000	25.782561	0.000831	20.839627
1163.289583	-2.992900	3.530500	-10.566000	25.768946	0.000828	20.823581
1164.288657	-3.018300	3.528600	-10.649000	25.729914	0.000829	20.827049
1165.295367	-3.001300	3.529500	-10.592000	25.714138	0.000830	20.816418
1166.291346	-2.997600	3.528200	-10.574000	25.698957	0.000828	20.834835
1167.288531	-3.011200	3.526800	-10.619000	25.686757	0.000827	20.820686
1168.310876	-2.975500	3.528400	-10.497000	25.667750	0.000827	20.827199
1169.321751	-3.010700	3.527800	-10.620000	25.654704	0.000826	20.838752
1170.314026	-3.008800	3.527100	-10.611000	25.651922	0.000824	20.823155
1171.315410	-3.009300	3.527000	-10.612000	25.647896	0.000825	20.829543
1172.329898	-3.000700	3.526000	-10.579000	25.669736	0.000825	20.814496
1173.312577	-3.019400	3.525900	-10.646000	25.693465	0.000825	20.829793
1174.292187	-2.999000	3.525200	-10.570000	25.689266	0.000822	20.809455
1175.305132	-2.997500	3.524800	-10.565000	25.685166	0.000823	20.806759
1176.297801	-2.979100	3.525800	-10.502000	25.699277	0.000823	20.828519
1177.296423	-2.985000	3.524700	-10.519000	25.726334	0.000822	20.804962
1178.294457	-3.022000	3.524800	-10.652000	25.703328	0.000821	20.817415
1179.296051	-2.981300	3.524100	-10.504000	25.695228	0.000819	20.818288
1180.294154	-3.007800	3.523200	-10.596000	25.678854	0.000821	20.797575
1181.295626	-2.997300	3.522900	-10.557000	25.691674	0.000820	20.789115
1182.296475	-2.995800	3.522500	-10.551000	25.707426	0.000819	20.807306
1183.297870	-3.009000	3.521700	-10.596000	25.729315	0.000817	20.811749
1184.295011	-2.971000	3.522900	-10.466000	25.780420	0.000818	20.808554
1185.295731	-3.003000	3.521000	-10.573000	25.815945	0.000817	20.824325
1186.300404	-2.985100	3.520800	-10.508000	25.837187	0.000817	20.804411
1187.297064	-3.000200	3.520400	-10.559000	25.850553	0.000816	20.818312
1188.307920	-2.961500	3.522800	-10.431000	25.825534	0.000815	20.805982
1189.298514	-2.973400	3.520800	-10.468000	25.813288	0.000815	20.821655
1190.302474	-3.013200	3.520200	-10.605000	25.867841	0.000815	20.795375
1191.303891	-2.997500	3.520400	-10.551000	25.886224	0.000815	20.790609
1192.298929	-2.987100	3.520000	-10.514000	25.908183	0.000815	20.801289
1193.301623	-2.987300	3.518200	-10.509000	25.920405	0.000814	20.808352
1194.315162	-2.998300	3.518000	-10.547000	25.948946	0.000812	20.823748
1195.302620	-2.998100	3.517400	-10.544000	25.965937	0.000812	20.818060
1196.299621	-3.002700	3.517600	-10.560000	25.985138	0.000813	20.810323
1197.300941	-2.998500	3.516400	-10.543000	25.982380	0.000812	20.788112
1198.301499	-2.971900	3.517300	-10.451000	26.001705	0.000813	20.797096
1199.329101	-2.999100	3.517900	-10.548000	26.034617	0.000810	20.813093
1200.317735	-2.995800	3.516200	-10.533000	26.037919	0.000809	20.821152
1201.322790	-3.013800	3.515700	-10.593000	26.041968	0.000810	20.800565
1202.324538	-2.984000	3.516600	-10.492000	26.067848	0.000809	20.791480
1203.319959	-2.995800	3.515000	-10.529000	26.060820	0.000808	20.804333
1204.320863	-2.995500	3.516100	-10.532000	26.051555	0.000809	20.803559
1205.328863	-2.986300	3.514700	-10.495000	26.049941	0.000808	20.796722
1206.325849	-3.013500	3.513400	-10.586000	26.060472	0.000807	20.808250
1207.304670	-2.997600	3.512700	-10.528000	26.049866	0.000807	20.811819
1208.305789	-2.991700	3.511900	-10.506000	26.045594	0.000806	20.819855
1209.304319	-2.987100	3.514400	-10.498000	26.047111	0.000804	20.794826
1210.321550	-2.989600	3.514200	-10.505000	26.019663	0.000807	20.819880
1211.321501	-2.998100	3.513100	-10.531000	26.004214	0.000804	20.792504
1212.306264	-3.002400	3.511600	-10.542000	25.962187	0.000805	20.796748
1213.306971	-2.986500	3.512500	-10.488000	25.956696	0.000802	20.811146
1214.305547	-2.980200	3.513000	-10.468000	25.953093	0.000804	20.789034
1215.324410	-3.010000	3.510800	-10.566000	25.944997	0.000801	20.788487
1216.322186	-3.018000	3.510100	-10.592000	25.933793	0.000801	20.792879
1217.322557	-3.020900	3.509900	-10.601000	25.913847	0.000802	20.801289
1218.328225	-3.001400	3.510800	-10.536000	25.874423	0.000799	20.781599
1219.310237	-2.966400	3.510000	-10.410000	25.900605	0.000800	20.792254
1220.310671	-2.985300	3.509100	-10.473000	25.925397	0.000799	20.812419
1221.307626	-2.979300	3.510200	-10.457000	25.961465	0.000800	20.802661
1222.310389	-2.991600	3.509600	-10.498000	25.987919	0.000798	20.760011
1223.308303	-3.019500	3.507300	-10.589000	25.968072	0.000799	20.791281
1224.311852	-3.017300	3.506500	-10.579000	25.939307	0.000798	20.799367
1225.311933	-2.999600	3.507500	-10.520000	25.940152	0.000796	20.799267
1226.312134	-3.000400	3.507800	-10.524000	25.934041	0.000798	20.781274
1227.310663	-3.016600	3.506200	-10.576000	25.910790	0.000794	20.796322
1228.309206	-2.995400	3.506700	-10.503000	25.916404	0.000793	20.795323
1229.309180	-2.989000	3.505800	-10.478000	25.955279	0.000794	20.795498
1230.310358	-3.008600	3.504700	-10.543000	25.949714	0.000794	20.788485
1231.312925	-3.007400	3.504500	-10.538000	25.948249	0.000793	20.796970
1232.311175	-3.002100	3.504400	-10.519000	25.947876	0.000794	20.792802
1233.316208	-2.996500	3.505200	-10.503000	25.899313	0.000792	20.766774
1234.327063	-2.994200	3.503800	-10.490000	25.894071	0.000790	20.796596
1235.329364	-2.986900	3.504700	-10.466000	25.881004	0.000792	20.757864
1236.315723	-3.017500	3.503300	-10.570000	25.920774	0.000790	20.790231
1237.311697	-3.014500	3.502700	-10.559000	25.946137	0.000790	20.803857
1238.311937	-3.009500	3.502800	-10.540000	25.955626	0.000791	20.778303
1239.311690	-3.027300	3.501800	-10.600000	25.918464	0.000787	20.783642
1240.312443	-3.016500	3.501200	-10.561000	25.901720	0.000788	20.770141
1241.313224	-3.007000	3.502100	-10.529000	25.886516	0.000789	20.790429
1242.315457	-2.968500	3.502300	-10.395000	25.877772	0.000787	20.793024
1243.332023	-2.997100	3.502500	-10.496000	25.892130	0.000788	20.790379
1244.330590	-2.999900	3.500600	-10.501000	25.890541	0.000786	20.766496
1245.313406	-3.003900	3.500200	-10.514000	25.852632	0.000788	20.785787
1246.312787	-2.984300	3.500600	-10.445000	25.844184	0.000784	20.768766
1247.336552	-2.990600	3.500200	-10.467000	25.836706	0.000787	20.772634
1248.330366	-3.026600	3.497500	-10.584000	25.815366	0.000785	20.763050
1249.331774	-3.017800	3.497700	-10.555000	25.812931	0.000782	20.784313
1250.332924	-3.008800	3.498200	-10.524000	25.798943	0.000782	20.761253
1251.329655	-2.997900	3.496200	-10.480000	25.798496	0.000783	20.771709
1252.337610	-2.979000	3.497600	-10.418000	25.830519	0.000781	20.770686
1253.330723	-2.978700	3.497600	-10.417000	25.844331	0.000782	20.773655
1254.331845	-2.998600	3.497300	-10.487000	25.843312	0.000780	20.778321
1255.341688	-2.995400	3.497000	-10.473000	25.818916	0.000782	20.763297
1256.331043	-3.015000	3.495600	-10.538000	25.824206	0.000777	20.756284
1257.338402	-3.001300	3.496100	-10.492000	25.800357	0.000778	20.765044
1258.336342	-2.988100	3.496000	-10.445000	25.843907	0.000781	20.760900
1259.339462	-2.982300	3.494500	-10.420000	25.838168	0.000777	20.765093
1260.332739	-2.991200	3.495200	-10.454000	25.857221	0.000779	20.775699
1261.336155	-2.992300	3.494000	-10.453000	25.856327	0.000778	20.787603
1262.339332	-3.015000	3.492800	-10.530000	25.875728	0.000777	20.778168
1263.345075	-3.001000	3.493000	-10.481000	25.878807	0.000777	20.752812
1264.322561	-3.017800	3.492900	-10.539000	25.915075	0.000775	20.777867
1265.322605	-2.993000	3.493300	-10.455000	25.939246	0.000775	20.763269
1266.334129	-3.001600	3.491700	-10.479000	25.990067	0.000776	20.765015
1267.321934	-2.992600	3.491500	-10.448000	25.986664	0.000775	20.742155
1268.322368	-2.998000	3.492700	-10.470000	25.952087	0.000776	20.768109
1269.324636	-3.006800	3.491200	-10.496000	25.970096	0.000772	20.746372
1270.322707	-3.005100	3.490200	-10.487000	25.974692	0.000772	20.759525
1271.344779	-3.008200	3.491400	-10.501000	25.955216	0.000773	20.757028
1272.321681	-3.000300	3.488900	-10.466000	25.970145	0.000770	20.744525
1273.323123	-2.981100	3.489600	-10.401000	26.012396	0.000772	20.765163
1274.327075	-3.011400	3.488600	-10.504000	26.042549	0.000771	20.737610
1275.351381	-3.016500	3.487400	-10.518000	26.050895	0.000771	20.774920
1276.342279	-3.008700	3.488000	-10.494000	26.043246	0.000772	20.750639
1277.343701	-3.003100	3.486800	-10.470000	26.051541	0.000769	20.748068
1278.340428	-3.009600	3.486200	-10.491000	26.074441	0.000771	20.761120
1279.327281	-2.969700	3.487900	-10.357000	26.085766	0.000767	20.758749
1280.326940	-3.017900	3.486100	-10.520000	26.061276	0.000769	20.766384
1281.325666	-2.994500	3.485500	-10.436000	26.037382	0.000769	20.756128
1282.326246	-2.980700	3.486900	-10.392000	25.952134	0.000767	20.754405
1283.325611	-2.999100	3.484900	-10.450000	25.929479	0.000765	20.753931
1284.326244	-3.013200	3.484100	-10.495000	25.938845	0.000765	20.749115
1285.325681	-2.995900	3.484400	-10.438000	25.912811	0.000765	20.758997
1286.325315	-2.987900	3.484300	-10.409000	25.882306	0.000766	20.743050
1287.340485	-3.006000	3.484500	-10.473000	25.885188	0.000763	20.750687
1288.344722	-3.031600	3.483000	-10.556000	25.929727	0.000763	20.764612
1289.341901	-3.004800	3.484100	-10.468000	25.959114	0.000765	20.770901
1290.355525	-2.986200	3.483400	-10.401000	25.928386	0.000764	20.735288
1291.345097	-3.007200	3.481300	-10.467000	25.888541	0.000763	20.748366
1292.347595	-3.013500	3.481600	-10.491000	25.874009	0.000763	20.758898
1293.345688	-2.988300	3.482000	-10.403000	25.855750	0.000760	20.737235
1294.348964	-3.001900	3.481300	-10.449000	25.835354	0.000760	20.744722
1295.364826	-2.998800	3.480700	-10.437000	25.860867	0.000759	20.743798
1296.346845	-2.993000	3.480400	-10.416000	25.891075	0.000759	20.744747
1297.354815	-3.018500	3.479000	-10.499000	25.906873	0.000760	20.748764
1298.356885	-3.024200	3.479000	-10.520000	25.892813	0.000759	20.748864
1299.346646	-3.027100	3.478800	-10.530000	25.893063	0.000759	20.749589
1300.343276	-2.987600	3.480000	-10.396000	25.945972	0.000756	20.733990
1301.329140	-3.000400	3.477500	-10.433000	25.951488	0.000756	20.752808
1302.330678	-3.027100	3.477500	-10.525000	25.993666	0.000757	20.733067
1303.332422	-2.975200	3.479100	-10.350000	25.989517	0.000757	20.736960
1304.327466	-3.015600	3.476800	-10.484000	26.030849	0.000756	20.747667
1305.350347	-3.015500	3.476400	-10.482000	26.035593	0.000757	20.739157
1306.328882	-2.993000	3.476800	-10.405000	26.069322	0.000756	20.740329
1307.346840	-3.018300	3.474200	-10.485000	26.074911	0.000755	20.743099
1308.344762	-2.987200	3.476500	-10.384000	26.085442	0.000753	20.743723
1309.347358	-3.017300	3.474200	-10.481000	26.076650	0.000755	20.733466
1310.329267	-3.025400	3.473500	-10.508000	26.094756	0.000751	20.748340
1311.330842	-3.017300	3.474900	-10.484000	26.063784	0.000753	20.732393
1312.331957	-2.994300	3.473800	-10.399000	26.041181	0.000750	20.745719
1313.332788	-3.019500	3.473500	-10.487000	26.011474	0.000753	20.744322
1314.328444	-3.011500	3.472500	-10.456000	25.951984	0.000749	20.736710
1315.328797	-3.015200	3.473100	-10.471000	25.930447	0.000752	20.736885
1316.336385	-3.012900	3.472000	-10.460000	25.941799	0.000749	20.739755
1317.349457	-2.999000	3.473500	-10.416000	25.921033	0.000750	20.736910
1318.351762	-2.978700	3.472300	-10.342000	25.896018	0.000747	20.728849
1319.333009	-3.000200	3.471300	-10.413000	25.885858	0.000750	20.757998
1320.363304	-2.995500	3.472000	-10.398000	25.892987	0.000749	20.735287
1321.347967	-2.988800	3.472100	-10.376000	25.901184	0.000748	20.749687
1322.350239	-2.998800	3.471100	-10.408000	25.927168	0.000749	20.733591
1323.360790	-3.008600	3.470400	-10.440000	25.940110	0.000747	20.723358
1324.334137	-2.979200	3.470300	-10.338000	25.939017	0.000746	20.754030
1325.331389	-2.977300	3.470900	-10.332000	25.915990	0.000745	20.729473
1326.331349	-2.986900	3.470000	-10.363000	25.888317	0.000747	20.720638
1327.354507	-3.009400	3.467400	-10.434000	25.865014	0.000744	20.732791
1328.351137	-2.977600	3.470000	-10.331000	25.840570	0.000745	20.729572
1329.331613	-3.001900	3.467100	-10.406000	25.853462	0.000745	20.756275
1330.333171	-2.999300	3.467100	-10.397000	25.804821	0.000744	20.745345
1331.331630	-3.017900	3.465900	-10.458000	25.812322	0.000744	20.747191
1332.340655	-2.995300	3.468100	-10.385000	25.847824	0.000741	20.721686
1333.348825	-2.980300	3.468300	-10.335000	25.858207	0.000742	20.729272
1334.350980	-2.995100	3.465500	-10.379000	25.900837	0.000741	20.748864
1335.366187	-3.008100	3.466200	-10.425000	25.921034	0.000740	20.729324
1336.351903	-3.001200	3.465800	-10.401000	25.971956	0.000741	20.738757
1337.332895	-3.018300	3.463100	-10.451000	25.952978	0.000739	20.733441
1338.343218	-2.994700	3.464800	-10.375000	25.986239	0.000740	20.734141
1339.335050	-3.003900	3.464000	-10.404000	25.988574	0.000741	20.742177
1340.354770	-2.990000	3.462700	-10.352000	26.034799	0.000740	20.750213
1341.353323	-3.011100	3.462100	-10.424000	26.055142	0.000739	20.716597
1342.350883	-2.989800	3.462700	-10.352000	26.055391	0.000737	20.740556
1343.333739	-3.016900	3.461300	-10.441000	26.034576	0.000737	20.740031
1344.353518	-2.994100	3.460200	-10.359000	26.018928	0.000738	20.731896
1345.352774	-2.980000	3.461400	-10.314000	26.022778	0.000736	20.723910
1346.354002	-2.985200	3.462200	-10.335000	26.040240	0.000736	20.734816
1347.358226	-2.994700	3.462100	-10.367000	26.035969	0.000735	20.731947
1348.336702	-2.997500	3.459800	-10.370000	26.014457	0.000735	20.749215
1349.336386	-3.002800	3.459100	-10.386000	25.992550	0.000734	20.729101
1350.339133	-2.994900	3.459300	-10.358000	25.959886	0.000735	20.738011
1351.342079	-3.007100	3.459100	-10.401000	25.983160	0.000735	20.754756
1352.344858	-3.011200	3.458300	-10.413000	25.993917	0.000734	20.740906
1353.335560	-3.003300	3.458500	-10.385000	25.977771	0.000732	20.727529
1354.336588	-3.016900	3.458400	-10.432000	25.979759	0.000730	20.747546
1355.352372	-3.009700	3.458100	-10.406000	25.996252	0.000731	20.741356
1356.341028	-2.984600	3.458400	-10.321000	26.044960	0.000731	20.713004
1357.355398	-3.007900	3.456800	-10.396000	26.047072	0.000730	20.744051
1358.340820	-3.005100	3.455700	-10.383000	26.045110	0.000730	20.768634
1359.351625	-2.991200	3.457100	-10.339000	26.018086	0.000729	20.723937
1360.341048	-2.997100	3.455900	-10.357000	25.997197	0.000731	20.741357
1361.352432	-3.027300	3.453600	-10.453000	25.957553	0.000731	20.743728
1362.340804	-3.016300	3.454300	-10.419000	25.988056	0.000728	20.730750
1363.376858	-2.987800	3.454100	-10.320000	25.949505	0.000726	20.750342
1364.341179	-3.017100	3.453300	-10.418000	25.967986	0.000726	20.741882
1365.342113	-2.983700	3.453400	-10.303000	25.929558	0.000725	20.757803
1366.344323	-2.989500	3.452200	-10.320000	25.881043	0.000726	20.751739
1367.341091	-2.994700	3.451200	-10.334000	25.858686	0.000727	20.752513
1368.343524	-2.983700	3.453400	-10.302000	25.817920	0.000724	20.741908
1369.342310	-3.003500	3.450700	-10.363000	25.796082	0.000726	20.768336
1370.358004	-2.998800	3.451500	-10.349000	25.779486	0.000723	20.750717
1371.363037	-2.996600	3.451400	-10.341000	25.773847	0.000723	20.759751
1372.360547	-2.987500	3.450600	-10.308000	25.768406	0.000724	20.756183
1373.363042	-3.009900	3.449600	-10.382000	25.754990	0.000721	20.743180
1374.342195	-3.007700	3.450100	-10.375000	25.778568	0.000721	20.729405
1375.342798	-3.005600	3.449700	-10.367000	25.788655	0.000723	20.743331
1376.354960	-3.005900	3.449600	-10.368000	25.845447	0.000722	20.750594
1377.344969	-2.987700	3.449600	-10.305000	25.856229	0.000722	20.753364
1378.351629	-2.984800	3.449700	-10.296000	25.866365	0.000721	20.755011
1379.351627	-3.001200	3.448500	-10.349000	25.856726	0.000720	20.763821
1380.375425	-3.004700	3.448700	-10.361000	25.866439	0.000722	20.745603
1381.358990	-3.000200	3.446800	-10.340000	25.880550	0.000718	20.739864
1382.350361	-2.997400	3.446200	-10.329000	25.849126	0.000718	20.750022
1383.349813	-3.004200	3.445100	-10.349000	25.848454	0.000719	20.756934
1384.352677	-2.981700	3.447200	-10.277000	25.835959	0.000718	20.744856
1385.349824	-2.970100	3.445500	-10.233000	25.861497	0.000716	20.750596
1386.352147	-2.991300	3.445700	-10.306000	25.900275	0.000715	20.754464
1387.353852	-3.004100	3.444300	-10.345000	25.945262	0.000717	20.764098
1388.361022	-2.988000	3.445300	-10.293000	25.987491	0.000717	20.761478
1389.365282	-2.998100	3.443900	-10.324000	26.032524	0.000716	20.766419
1390.357269	-3.000700	3.441900	-10.327000	26.057113	0.000715	20.761254
1391.350146	-2.978200	3.442200	-10.250000	26.090991	0.000712	20.785810
1392.354214	-2.986100	3.442900	-10.280000	26.097350	0.000714	20.762801
1393.355121	-3.013300	3.440700	-10.367000	26.133586	0.000713	20.754640
1394.352838	-3.011700	3.441800	-10.364000	26.154175	0.000714	20.772959
1395.352927	-3.006500	3.441500	-10.346000	26.168059	0.000712	20.757511
1396.357041	-2.975200	3.441700	-10.239000	26.182536	0.000713	20.761154
1397.366247	-2.995700	3.441500	-10.309000	26.205882	0.000710	20.783665
1398.354795	-2.993600	3.439300	-10.294000	26.232455	0.000709	20.766746
1399.357852	-2.993300	3.439100	-10.294000	26.187306	0.000710	20.757411
1400.358118	-2.994000	3.438600	-10.295000	26.185667	0.000710	20.778525
1401.367676	-2.997300	3.440200	-10.310000	26.133761	0.000709	20.768567
1402.358346	-2.996600	3.438600	-10.304000	26.117221	0.000709	20.776130
1403.360935	-3.011200	3.438000	-10.352000	26.071173	0.000709	20.775381
1404.357688	-2.997500	3.437600	-10.303000	26.049242	0.000708	20.755242
1405.357783	-2.996000	3.436800	-10.295000	26.052719	0.000706	20.776279
1406.367525	-3.009700	3.437600	-10.345000	26.032351	0.000707	20.789954
1407.356335	-3.000000	3.437500	-10.312000	26.042411	0.000705	20.761655
1408.369910	-3.008300	3.435900	-10.335000	26.013177	0.000707	20.778276
1409.374326	-2.986900	3.437800	-10.268000	26.012605	0.000706	20.772960
1410.358060	-2.989900	3.435500	-10.271000	26.002397	0.000707	20.784040
1411.358701	-3.020900	3.436400	-10.380000	25.974303	0.000704	20.787110
1412.357610	-3.009700	3.436000	-10.341000	25.960194	0.000700	20.797117
1413.359960	-2.991000	3.435300	-10.274000	25.947998	0.000702	20.779648
1414.358163	-3.012700	3.434700	-10.347000	25.916202	0.000701	20.781845
1415.366325	-2.992800	3.435800	-10.281000	25.914935	0.000702	20.785313
1416.359161	-3.007400	3.432500	-10.322000	25.907805	0.000701	20.769616
1417.360476	-2.992600	3.432100	-10.270000	25.906910	0.000700	20.770139
1418.361761	-3.005000	3.431600	-10.311000	25.969111	0.000701	20.778100
1419.363657	-3.003200	3.433100	-10.309000	25.991293	0.000700	20.788058
1420.363479	-3.004900	3.431300	-10.310000	25.994324	0.000702	20.784939
1421.361636	-3.013500	3.430800	-10.338000	26.002743	0.000699	20.771112
1422.365306	-2.990600	3.431700	-10.262000	25.999514	0.000699	20.803430
1423.367853	-3.003800	3.429400	-10.300000	25.976663	0.000700	20.767669
1424.364624	-2.996900	3.430600	-10.280000	25.974625	0.000699	20.796917
1425.367007	-3.008300	3.430000	-10.317000	25.956168	0.000697	20.777899
1426.365065	-2.994600	3.429200	-10.268000	25.953461	0.000698	20.782766
1427.364762	-3.004900	3.430300	-10.306000	25.998719	0.000696	20.807846
1428.364933	-2.991800	3.428300	-10.256000	25.963148	0.000695	20.795817
1429.368223	-3.026900	3.426800	-10.371000	26.027457	0.000694	20.793572
1430.366766	-2.978900	3.427900	-10.211000	26.031555	0.000694	20.773507
1431.366809	-2.978000	3.427700	-10.207000	26.061882	0.000695	20.762252
1432.366725	-2.965000	3.428400	-10.164000	26.093799	0.000694	20.785312
1433.367361	-2.983400	3.426600	-10.222000	26.117741	0.000694	20.800834
1434.370689	-3.012300	3.424300	-10.314000	26.163588	0.000694	20.777201
1435.366284	-2.987800	3.425600	-10.233000	26.174564	0.000692	20.795343
1436.366697	-3.000600	3.424700	-10.275000	26.190708	0.000692	20.786909
1437.366693	-2.989200	3.425200	-10.237000	26.188969	0.000691	20.803654
1438.367363	-2.999900	3.424000	-10.271000	26.219367	0.000693	20.791526
1439.368150	-2.988900	3.424900	-10.236000	26.246038	0.000692	20.810742
1440.371618	-2.997300	3.424000	-10.262000	26.225204	0.000691	20.789331
1441.367775	-2.979100	3.422300	-10.194000	26.197663	0.000691	20.805752
1442.368767	-2.975800	3.425600	-10.191000	26.199948	0.000690	20.790505
1443.369053	-2.991600	3.423300	-10.240000	26.194831	0.000689	20.818079
1444.375127	-2.988300	3.423300	-10.229000	26.176182	0.000687	20.783692
1445.369935	-3.006200	3.421500	-10.284000	26.166298	0.000691	20.798890
1446.373653	-3.015600	3.420300	-10.313000	26.129195	0.000689	20.789109
1447.371139	-3.004200	3.421700	-10.279000	26.132375	0.000686	20.799417
1448.372161	-2.994500	3.420700	-10.241000	26.129294	0.000688	20.803434
1449.370983	-2.989100	3.421300	-10.225000	26.150257	0.000687	20.798894
1450.375260	-3.002900	3.420800	-10.271000	26.161135	0.000687	20.819781
1451.372757	-2.983400	3.420700	-10.205000	26.207155	0.000686	20.812919
1452.375138	-3.012200	3.418100	-10.294000	26.207354	0.000685	20.796524
1453.373279	-3.022100	3.419000	-10.332000	26.238497	0.000685	20.798423
1454.373437	-3.026200	3.418100	-10.343000	26.213887	0.000683	20.802615
1455.375636	-3.013700	3.417000	-10.297000	26.177976	0.000684	20.833384
1456.377316	-3.008500	3.418600	-10.284000	26.146834	0.000680	20.832437
1457.374014	-3.021300	3.416800	-10.322000	26.121551	0.000682	20.823629
1458.375144	-2.987300	3.418100	-10.210000	26.110773	0.000681	20.817066
1459.376336	-3.012300	3.416500	-10.290000	26.121030	0.000681	20.819785
1460.374363	-2.996900	3.416300	-10.238000	26.108538	0.000682	20.791586
1461.378310	-2.995800	3.415300	-10.231000	26.072824	0.000680	20.811178
1462.375215	-2.985500	3.414900	-10.194000	26.062516	0.000678	20.814572
1463.378455	-2.984500	3.414800	-10.190000	26.099722	0.000682	20.811178
1464.375093	-2.984400	3.414100	-10.188000	26.132631	0.000678	20.831442
1465.376349	-2.990900	3.413500	-10.209000	26.138840	0.000678	20.813974
1466.379089	-3.004600	3.413100	-10.254000	26.193155	0.000681	20.821610
1467.378926	-3.015300	3.414300	-10.294000	26.205821	0.000679	20.803993
1468.378618	-2.996500	3.413500	-10.227000	26.253801	0.000677	20.835137
1469.379910	-2.998400	3.412600	-10.231000	26.239795	0.000678	20.836710
1470.378388	-2.976200	3.413600	-10.158000	26.272997	0.000678	20.825031
1471.378532	-3.006900	3.412400	-10.260000	26.267584	0.000678	20.840928
1472.380803	-3.003800	3.410900	-10.243000	26.304783	0.000674	20.834215
1473.379953	-3.009300	3.411500	-10.264000	26.268479	0.000675	20.842776
1474.382896	-2.979300	3.412200	-10.165000	26.264381	0.000674	20.838657
1475.380359	-3.022100	3.409600	-10.303000	26.235053	0.000676	20.830048
1476.383714	-3.005700	3.411200	-10.252000	26.215883	0.000673	20.836862
1477.383789	-3.022600	3.409000	-10.303000	26.226065	0.000674	20.843775
1478.379880	-3.003500	3.408500	-10.236000	26.276725	0.000674	20.829726
1479.381766	-3.012400	3.408000	-10.265000	26.270045	0.000675	20.820642
1480.382082	-2.985600	3.408100	-10.174000	26.278390	0.000672	20.835192
1481.383284	-2.989800	3.409100	-10.192000	26.257754	0.000673	20.842429
1482.384080	-3.020000	3.407600	-10.290000	26.274616	0.000673	20.822865
1483.384781	-2.974800	3.408600	-10.139000	26.298307	0.000670	20.840983
1484.383940	-2.981500	3.407200	-10.157000	26.278714	0.000669	20.829828
1485.383817	-2.984900	3.405500	-10.164000	26.284625	0.000669	20.844777
1486.384598	-3.027200	3.403600	-10.303000	26.335605	0.000670	20.854759
1487.384930	-3.016000	3.403700	-10.264000	26.330615	0.000670	20.837891
1488.385955	-2.995900	3.403700	-10.196000	26.352491	0.000669	20.853237
1489.383893	-2.991700	3.405600	-10.188000	26.371387	0.000668	20.861322
1490.383004	-3.002000	3.403500	-10.216000	26.396491	0.000668	20.842931
1491.391722	-3.019400	3.403600	-10.275000	26.403668	0.000669	20.834498
1492.385416	-3.012900	3.403200	-10.253000	26.374268	0.000666	20.847149
1493.387522	-2.984400	3.403200	-10.156000	26.322348	0.000666	20.868936
1494.386163	-2.993000	3.404200	-10.189000	26.288850	0.000665	20.857083
1495.389108	-3.002600	3.401000	-10.211000	26.225426	0.000665	20.862572
1496.387197	-3.015000	3.401700	-10.255000	26.191926	0.000666	20.857358
1497.387765	-3.010200	3.400600	-10.236000	26.214053	0.000665	20.857782
1498.389441	-3.015800	3.401200	-10.256000	26.182216	0.000662	20.854713
1499.392295	-3.001200	3.401800	-10.208000	26.232529	0.000664	20.864495
1500.390616	-2.989600	3.400300	-10.164000	26.252074	0.000662	20.849523
1501.389577	-2.982200	3.400300	-10.138000	26.267943	0.000664	20.871633
1502.392077	-3.000900	3.399400	-10.201000	26.283612	0.000660	20.855138
1503.391865	-3.008100	3.398500	-10.222000	26.287015	0.000662	20.858083
1504.392650	-3.003500	3.400400	-10.213000	26.241472	0.000661	20.854515
1505.404675	-3.013500	3.398500	-10.239000	26.206381	0.000659	20.853392
1506.392011	-3.022900	3.397500	-10.269000	26.210852	0.000659	20.860255
1507.392787	-3.009800	3.396800	-10.223000	26.192350	0.000659	20.865370
1508.395514	-2.991200	3.397700	-10.161000	26.214354	0.000658	20.857136
1509.391395	-2.992600	3.396700	-10.163000	26.195604	0.000659	20.866744
1510.392545	-2.984400	3.396400	-10.134000	26.203377	0.000657	20.867442
1511.394085	-2.997200	3.397100	-10.180000	26.210107	0.000656	20.860929
1512.392908	-3.002200	3.396200	-10.195000	26.215324	0.000655	20.878972
1513.391311	-2.999400	3.395700	-10.184000	26.234247	0.000657	20.873333
1514.401795	-3.002000	3.396100	-10.194000	26.272193	0.000657	20.868317
1515.393074	-3.003100	3.394900	-10.194000	26.292629	0.000657	20.868466
1516.393450	-3.002500	3.394800	-10.192000	26.302985	0.000654	20.857063
1517.392587	-3.022700	3.393700	-10.256000	26.352424	0.000653	20.873084
1518.393063	-3.001900	3.395100	-10.190000	26.346342	0.000653	20.882143
1519.395925	-2.995600	3.395100	-10.169000	26.367745	0.000656	20.872835
1520.398283	-3.000100	3.393600	-10.180000	26.332859	0.000652	20.890403
1521.394929	-3.015400	3.392400	-10.228000	26.316321	0.000653	20.875680
1522.393338	-3.003800	3.393700	-10.194000	26.285006	0.000651	20.868392
1523.394839	-3.033100	3.391800	-10.285000	26.310535	0.000652	20.865125
1524.394578	-3.006500	3.391400	-10.195000	26.322926	0.000651	20.878999
1525.393445	-3.004800	3.392400	-10.193000	26.331617	0.000652	20.873983
1526.394751	-2.993600	3.391600	-10.152000	26.375121	0.000650	20.893996
1527.394156	-2.993600	3.391800	-10.151000	26.388480	0.000650	20.854794
1528.393698	-2.991800	3.391000	-10.144000	26.433074	0.000648	20.890129
1529.393433	-3.008800	3.389600	-10.197000	26.430890	0.000648	20.890304
1530.396441	-2.986600	3.390700	-10.125000	26.482506	0.000647	20.888131
1531.397440	-2.996200	3.390100	-10.156000	26.489384	0.000648	20.911164
1532.398068	-3.030100	3.387800	-10.264000	26.470912	0.000647	20.909192
1533.397824	-2.999000	3.388400	-10.160000	26.503635	0.000646	20.860533
1534.396079	-2.991200	3.387600	-10.131000	26.504404	0.000645	20.882168
1535.400800	-2.985900	3.389000	-10.118000	26.494350	0.000644	20.884864
1536.398039	-3.015800	3.386900	-10.213000	26.442583	0.000644	20.886410
1537.399986	-3.011700	3.385200	-10.194000	26.391683	0.000644	20.901632
1538.397678	-2.981600	3.387700	-10.099000	26.360295	0.000645	20.891424
1539.401980	-3.001700	3.385900	-10.162000	26.323298	0.000641	20.893122
1540.398767	-2.973500	3.385900	-10.068000	26.345919	0.000644	20.891200
1541.403753	-2.991600	3.384800	-10.125000	26.375368	0.000644	20.890926
1542.399261	-2.991200	3.386000	-10.126000	26.358856	0.000641	20.907046
1543.400185	-3.002200	3.384600	-10.160000	26.416562	0.000641	20.865474
1544.401057	-3.023100	3.383600	-10.227000	26.401539	0.000639	20.888305
1545.400506	-2.993600	3.384800	-10.132000	26.409337	0.000642	20.906099
1546.408643	-3.001300	3.383100	-10.152000	26.444221	0.000639	20.907021
1547.401489	-3.014800	3.382700	-10.197000	26.442036	0.000638	20.902455
1548.404090	-3.030700	3.381200	-10.246000	26.427784	0.000637	20.894295
1549.401077	-3.007200	3.381700	-10.169000	26.442359	0.000638	20.898986
1550.405983	-3.010300	3.381000	-10.177000	26.417381	0.000638	20.918924
1551.401035	-2.995800	3.381700	-10.130000	26.409733	0.000636	20.903178
1552.402021	-2.995700	3.380700	-10.127000	26.417281	0.000637	20.898911
1553.404691	-2.998200	3.380900	-10.136000	26.444493	0.000636	20.904924
1554.402775	-2.970600	3.381600	-10.044000	26.442706	0.000636	20.905024
1555.403650	-2.985000	3.382000	-10.094000	26.440323	0.000634	20.914483
1556.411120	-2.990600	3.379100	-10.105000	26.431557	0.000634	20.914680
1557.410467	-2.991100	3.379400	-10.107000	26.418970	0.000635	20.915780
1558.406024	-2.994300	3.380400	-10.121000	26.434711	0.000633	20.903153
1559.407371	-2.976600	3.380100	-10.060000	26.431856	0.000636	20.909291
1560.407402	-2.996600	3.377500	-10.121000	26.438037	0.000631	20.904125
1561.409254	-3.006700	3.377700	-10.155000	26.438708	0.000635	20.923289
1562.411512	-3.006400	3.378900	-10.157000	26.424084	0.000633	20.899584
1563.407479	-2.992600	3.377900	-10.107000	26.419813	0.000633	20.911886
1564.413241	-2.995100	3.377600	-10.115000	26.395851	0.000630	20.919570
1565.412980	-2.987800	3.377300	-10.090000	26.402110	0.000631	20.912111
1566.407818	-2.999600	3.377000	-10.128000	26.422818	0.000630	20.908742
1567.411654	-3.005600	3.375100	-10.143000	26.454227	0.000631	20.912336
1568.411870	-3.004300	3.375500	-10.140000	26.502392	0.000629	20.898636
1569.408895	-3.023900	3.375100	-10.205000	26.497278	0.000630	20.897289
1570.410284	-2.995700	3.373800	-10.106000	26.494175	0.000628	20.906971
1571.409932	-2.998600	3.373500	-10.115000	26.466268	0.000629	20.897888
1572.410533	-2.984800	3.375500	-10.075000	26.484393	0.000629	20.892398
1573.412539	-3.014400	3.373700	-10.169000	26.504380	0.000628	20.910116
1574.408229	-2.999700	3.372500	-10.116000	26.554256	0.000626	20.890552
1575.415726	-2.985300	3.373500	-10.070000	26.576625	0.000626	20.887907
1576.411513	-3.001700	3.374200	-10.127000	26.553363	0.000628	20.888706
1577.413793	-2.999100	3.372300	-10.113000	26.576625	0.000626	20.909717
1578.414733	-3.000900	3.372000	-10.118000	26.587324	0.000624	20.893447
1579.412737	-2.990500	3.372200	-10.084000	26.587176	0.000623	20.894720
1580.411559	-2.994100	3.372900	-10.098000	26.615204	0.000622	20.889705
1581.411259	-3.007900	3.370900	-10.139000	26.643454	0.000621	20.871638
1582.411870	-2.999000	3.370600	-10.108000	26.652516	0.000622	20.874584
1583.411593	-2.976300	3.370500	-10.031000	26.657407	0.000623	20.898465
1584.415758	-3.011100	3.370100	-10.147000	26.613070	0.000623	20.883767
1585.413960	-2.981000	3.370500	-10.047000	26.565083	0.000621	20.861608
1586.411235	-2.961100	3.369200	-9.973700	26.515182	0.000621	20.889207
1587.411770	-2.985000	3.369300	-10.056000	26.479354	0.000621	20.868370
1588.412509	-2.983700	3.369100	-10.051000	26.485686	0.000619	20.880423
1589.415859	-2.996900	3.368700	-10.094000	26.472876	0.000620	20.867074
1590.412630	-2.980400	3.369300	-10.041000	26.465180	0.000620	20.877355
1591.414771	-2.988900	3.368600	-10.067000	26.449264	0.000619	20.878427
1592.414204	-3.026100	3.367300	-10.188000	26.396577	0.000617	20.870517
1593.414172	-3.026600	3.367300	-10.189000	26.365738	0.000616	20.873188
1594.417466	-2.985200	3.365900	-10.047000	26.345377	0.000616	20.874061
1595.415840	-2.995400	3.366000	-10.082000	26.379644	0.000617	20.861560
1596.414873	-3.013500	3.364600	-10.138000	26.376192	0.000617	20.875160
1597.420235	-3.004900	3.364400	-10.108000	26.378974	0.000616	20.853775
1598.417573	-2.972100	3.365600	-10.002000	26.394667	0.000616	20.851056
1599.414904	-3.014700	3.364500	-10.142000	26.410484	0.000615	20.855099
1600.416789	-3.001000	3.364300	-10.095000	26.404699	0.000614	20.858293
1601.415389	-3.015200	3.362900	-10.139000	26.406165	0.000614	20.846965
1602.422123	-3.017600	3.362200	-10.145000	26.411453	0.000614	20.839477
1603.416309	-3.021600	3.363100	-10.161000	26.407333	0.000613	20.860940
1604.426338	-2.986600	3.361500	-10.039000	26.414484	0.000611	20.879031
1605.422451	-3.010000	3.362300	-10.119000	26.410859	0.000612	20.853579
1606.417945	-2.998600	3.362200	-10.081000	26.427024	0.000612	20.855602
1607.419463	-3.002000	3.361500	-10.090000	26.459301	0.000611	20.852956
1608.418702	-3.001600	3.360700	-10.087000	26.463249	0.000611	20.854079
1609.417925	-3.003400	3.360300	-10.091000	26.462777	0.000611	20.844122
1610.423375	-3.013900	3.361300	-10.130000	26.453493	0.000609	20.844274
1611.422731	-3.006600	3.361500	-10.105000	26.478223	0.000609	20.868654
1612.420047	-3.019000	3.359400	-10.141000	26.485870	0.000609	20.841255
1613.422777	-3.018900	3.358500	-10.138000	26.522142	0.000611	20.863489
1614.421448	-2.980100	3.359800	-10.011000	26.548682	0.000607	20.851287
1615.424206	-2.993500	3.358100	-10.051000	26.564498	0.000608	20.860547
1616.426124	-2.994400	3.358700	-10.056000	26.552756	0.000605	20.876717
1617.422250	-2.995000	3.358700	-10.058000	26.554619	0.000604	20.843030
1618.424619	-3.013400	3.358800	-10.121000	26.520606	0.000605	20.845825
1619.422492	-2.982300	3.359000	-10.015000	26.478128	0.000605	20.836792
1620.423585	-3.043400	3.354900	-10.209000	26.433859	0.000604	20.860574
1621.424222	-2.994900	3.356600	-10.053000	26.410867	0.000601	20.853587
1622.423603	-3.020800	3.355200	-10.135000	26.355645	0.000601	20.833175
1623.425003	-2.977700	3.356900	-9.995300	26.397560	0.000603	20.841635
1624.426310	-3.001400	3.354500	-10.067000	26.432073	0.000600	20.863520
1625.426279	-3.000800	3.356500	-10.071000	26.479446	0.000601	20.843333
1626.427535	-2.999400	3.356500	-10.066000	26.473513	0.000601	20.851119
1627.428771	-3.005200	3.355200	-10.081000	26.430287	0.000600	20.831855
1628.430169	-2.980200	3.355000	-9.997700	26.406798	0.000600	20.823894
1629.429470	-3.025900	3.354100	-10.148000	26.421423	0.000597	20.859454
1630.428457	-3.000300	3.354400	-10.063000	26.381374	0.000597	20.829161
1631.427757	-2.988100	3.353000	-10.017000	26.383782	0.000597	20.834427
1632.430799	-3.011200	3.352700	-10.095000	26.333327	0.000596	20.833978
1633.428319	-2.989200	3.353100	-10.023000	26.312891	0.000594	20.843312
1634.429652	-2.987600	3.352700	-10.016000	26.336903	0.000595	20.842787
1635.429240	-3.005400	3.351100	-10.070000	26.313711	0.000594	20.828964
1636.428573	-2.995400	3.350600	-10.036000	26.266752	0.000595	20.845781
1637.428410	-2.985700	3.351400	-10.005000	26.261811	0.000593	20.832755
1638.432178	-3.016800	3.350100	-10.105000	26.249892	0.000593	20.828838
1639.428165	-3.006500	3.350400	-10.072000	26.247210	0.000591	20.848428
1640.428741	-2.991100	3.351300	-10.023000	26.276910	0.000592	20.825170
1641.430544	-3.003900	3.349700	-10.061000	26.269411	0.000591	20.821427
1642.429835	-3.025600	3.347500	-10.126000	26.284757	0.000592	20.837797
1643.435007	-3.028900	3.348400	-10.140000	26.241349	0.000590	20.812668
1644.430958	-3.006800	3.348200	-10.066000	26.254188	0.000588	20.837423
1645.431444	-2.998500	3.347600	-10.037000	26.295857	0.000590	20.831883
1646.430633	-3.018800	3.346800	-10.102000	26.318479	0.000590	20.820953
1647.435295	-3.012300	3.348200	-10.085000	26.335066	0.000585	20.824820
1648.432552	-2.976600	3.346700	-9.960400	26.368215	0.000587	20.831109
1649.431665	-3.002300	3.345000	-10.042000	26.362826	0.000587	20.822848
1650.432174	-3.003200	3.345700	-10.046000	26.355304	0.000585	20.850375
1651.432754	-2.975700	3.346200	-9.956000	26.330348	0.000587	20.826243
1652.432790	-2.976700	3.346100	-9.959800	26.307429	0.000585	20.836874
1653.434085	-3.005900	3.347300	-10.060000	26.268838	0.000584	20.845033
1654.435957	-2.983300	3.345500	-9.980500	26.258061	0.000586	20.820453
1655.433278	-2.995500	3.343200	-10.013000	26.266952	0.000585	20.822750
1656.434433	-3.001900	3.343900	-10.037000	26.279143	0.000581	20.814613
1657.434388	-2.984600	3.344000	-9.980200	26.290864	0.000580	20.828762
1658.431850	-2.976700	3.342500	-9.947000	26.327889	0.000581	20.819504
1659.436545	-3.008500	3.341900	-10.052000	26.351901	0.000584	20.830834
1660.433102	-2.980000	3.342600	-9.960100	26.373230	0.000583	20.804382
1661.432817	-3.006200	3.342200	-10.047000	26.354532	0.000582	20.809771
1662.433542	-3.015000	3.341100	-10.073000	26.380108	0.000580	20.822673
1663.437288	-3.006300	3.342600	-10.048000	26.416731	0.000580	20.806851
1664.437323	-3.000800	3.340200	-10.022000	26.420803	0.000578	20.828961
1665.435729	-2.972000	3.342200	-9.931400	26.454646	0.000580	20.850173
1666.435369	-2.993800	3.340600	-10.000000	26.430957	0.000579	20.819253
1667.437145	-3.014300	3.340100	-10.065000	26.448662	0.000577	20.824246
1668.436899	-3.003000	3.339900	-10.029000	26.427037	0.000576	20.821002
1669.437573	-3.009800	3.340200	-10.052000	26.442729	0.000576	20.809273
1670.437434	-3.029600	3.337500	-10.109000	26.461225	0.000575	20.818381
1671.440437	-3.029100	3.338900	-10.113000	26.443422	0.000574	20.814712
1672.436419	-2.997600	3.338500	-10.006000	26.471975	0.000574	20.814962
1673.438410	-3.010000	3.339600	-10.050000	26.468401	0.000575	20.818481
1674.441720	-2.996100	3.338800	-10.002000	26.417055	0.000574	20.826617
1675.439308	-2.996900	3.338100	-10.003000	26.445558	0.000572	20.823497
1676.439019	-2.992000	3.336500	-9.981500	26.452237	0.000572	20.813615
1677.438797	-3.005400	3.337100	-10.029000	26.457303	0.000572	20.810646
1678.439455	-3.012900	3.335900	-10.050000	26.497176	0.000572	20.805205
1679.438740	-2.997800	3.336100	-9.999600	26.519471	0.000573	20.832356
1680.442177	-3.038300	3.334400	-10.130000	26.519694	0.000570	20.815037
1681.438097	-3.002300	3.334300	-10.009000	26.505121	0.000569	20.800388
1682.439060	-3.018100	3.333800	-10.060000	26.517510	0.000571	20.799565
1683.439529	-3.019900	3.334600	-10.069000	26.535806	0.000570	20.829335
1684.445023	-2.999000	3.334900	-9.999500	26.572624	0.000568	20.812766
1685.442510	-2.990700	3.332900	-9.966100	26.586303	0.000568	20.823672
1686.442021	-3.005400	3.332500	-10.015000	26.620040	0.000569	20.805429
1687.442919	-2.993300	3.333100	-9.975300	26.632700	0.000567	20.809147
1688.442167	-3.034500	3.330600	-10.106000	26.617979	0.000565	20.805728
1689.442194	-2.987700	3.331700	-9.952500	26.571307	0.000566	20.806701
1690.445342	-2.994100	3.333400	-9.979500	26.571780	0.000564	20.806702
1691.443345	-3.002900	3.332900	-10.007000	26.583149	0.000563	20.822872
1692.444162	-3.003000	3.331000	-10.001000	26.597697	0.000564	20.796719
1693.442426	-2.993300	3.330500	-9.968300	26.568180	0.000563	20.804506
1694.443357	-2.989300	3.331400	-9.957600	26.581809	0.000562	20.779325
1695.444060	-2.995300	3.331000	-9.976200	26.532926	0.000562	20.803681
1696.441864	-3.006100	3.329100	-10.007000	26.500279	0.000561	20.829660
1697.445513	-2.992400	3.329700	-9.962500	26.501420	0.000563	20.804730
1698.444997	-2.981200	3.329900	-9.926000	26.507626	0.000560	20.805278
1699.443010	-3.016700	3.328700	-10.040000	26.531808	0.000558	20.793075
1700.442447	-3.003300	3.327700	-9.993300	26.551545	0.000558	20.817655
1701.447041	-3.007100	3.327400	-10.005000	26.568426	0.000560	20.794322
1702.443110	-2.997400	3.328000	-9.974700	26.607302	0.000559	20.796892
1703.445316	-3.007700	3.325800	-10.002000	26.596230	0.000557	20.817055
1704.443644	-2.987800	3.327000	-9.939800	26.609933	0.000559	20.805226
1705.442417	-2.990700	3.326800	-9.948100	26.616040	0.000555	20.800460
1706.445481	-3.017800	3.324600	-10.032000	26.655287	0.000555	20.805301
1707.446805	-3.006700	3.324800	-9.995800	26.614698	0.000554	20.791999
1708.444386	-2.977700	3.326600	-9.905100	26.647640	0.000555	20.799510
1709.443337	-2.995500	3.326200	-9.962300	26.635128	0.000555	20.788829
1710.444340	-2.999900	3.326000	-9.976100	26.637264	0.000555	20.810416
1711.445251	-2.967500	3.324800	-9.865600	26.675094	0.000554	20.794393
1712.447876	-2.988300	3.325000	-9.934900	26.690012	0.000554	20.782838
1713.445147	-3.017500	3.322800	-10.025000	26.641581	0.000554	20.814281
1714.449441	-2.989400	3.323500	-9.934200	26.634134	0.000553	20.781191
1715.445618	-3.000000	3.323600	-9.968300	26.590194	0.000553	20.805298
1716.448121	-3.008600	3.321700	-9.993000	26.565070	0.000552	20.786206
1717.456822	-2.995100	3.322100	-9.947800	26.567726	0.000551	20.811635
1718.446603	-3.003200	3.322400	-9.977200	26.632470	0.000552	20.780466
1719.446245	-2.993000	3.322700	-9.944500	26.613577	0.000550	20.796087
1720.447542	-2.992700	3.320800	-9.937700	26.615191	0.000550	20.795813
1721.445730	-3.022400	3.320800	-10.036000	26.632221	0.000548	20.782587
1722.450533	-3.009800	3.320500	-9.992600	26.650790	0.000548	20.781340
1723.452521	-3.004700	3.320400	-9.975800	26.637658	0.000547	20.793743
1724.449162	-2.995300	3.319400	-9.941700	26.620057	0.000546	20.792170
1725.450531	-2.975800	3.319800	-9.877600	26.641357	0.000546	20.796513
1726.451100	-2.984100	3.319600	-9.904200	26.672361	0.000543	20.807767
1727.450224	-3.012500	3.318800	-9.996600	26.727419	0.000546	20.789626
1728.455408	-3.000400	3.319400	-9.958700	26.747176	0.000543	20.774401
1729.460317	-2.980900	3.317000	-9.886100	26.774952	0.000544	20.785732
1730.452993	-3.002200	3.318300	-9.961400	26.763335	0.000546	20.791596
1731.451836	-2.979400	3.317600	-9.882600	26.760084	0.000543	20.798284
1732.452025	-2.987500	3.316500	-9.906700	26.758370	0.000542	20.765741
1733.456448	-2.997100	3.315900	-9.936900	26.738438	0.000540	20.785057
1734.453527	-2.989500	3.315300	-9.909700	26.701105	0.000542	20.781662
1735.454577	-3.011900	3.315800	-9.985700	26.667371	0.000540	20.761024
1736.453669	-3.003800	3.315700	-9.958300	26.620801	0.000540	20.782487
1737.454780	-3.000500	3.315300	-9.946600	26.632418	0.000540	20.775672
1738.456780	-2.987500	3.315300	-9.903600	26.626535	0.000539	20.776397
1739.455149	-3.009900	3.312300	-9.968800	26.572714	0.000538	20.773027
1740.455811	-3.003200	3.314600	-9.953500	26.544983	0.000538	20.770757
1741.455773	-2.998400	3.312500	-9.931700	26.512062	0.000534	20.773226
1742.455075	-2.985500	3.314500	-9.895200	26.485771	0.000536	20.785207
1743.454749	-3.017900	3.312400	-9.995800	26.520280	0.000537	20.775323
1744.457692	-2.997600	3.312900	-9.930400	26.554293	0.000538	20.770157
1745.454437	-2.991700	3.311600	-9.906000	26.548558	0.000535	20.753487
1746.455293	-3.016100	3.311100	-9.984400	26.553796	0.000533	20.772029
1747.455825	-3.005900	3.310700	-9.949700	26.541110	0.000535	20.776821
1748.454620	-2.998300	3.310300	-9.923200	26.520355	0.000532	20.766863
1749.464495	-3.008300	3.309600	-9.955600	26.532992	0.000534	20.762022
1750.455805	-3.028500	3.309100	-10.020000	26.510226	0.000534	20.769010
1751.462380	-2.979200	3.310000	-9.861100	26.518717	0.000532	20.773278
1752.456779	-2.985000	3.308600	-9.873900	26.524006	0.000530	20.784758
1753.460714	-3.001700	3.308400	-9.929800	26.530509	0.000531	20.755732
1754.460845	-2.986800	3.308300	-9.880300	26.571993	0.000530	20.759501
1755.461703	-3.019100	3.306900	-9.982500	26.595182	0.000532	20.778069
1756.459549	-3.037700	3.305800	-10.040000	26.637656	0.000531	20.771929
1757.460785	-3.003200	3.306600	-9.929400	26.686063	0.000528	20.765117
1758.463855	-2.983500	3.308200	-9.868100	26.731189	0.000529	20.738886
1759.465806	-2.987000	3.308100	-9.880400	26.760827	0.000527	20.751615
1760.460263	-3.015600	3.305400	-9.966800	26.752313	0.000527	20.755857
1761.461946	-3.020900	3.306600	-9.987400	26.740150	0.000524	20.770183
1762.463476	-2.988400	3.306300	-9.879300	26.709669	0.000526	20.755658
1763.461969	-3.009200	3.304600	-9.942500	26.677822	0.000525	20.772005
1764.464748	-2.994700	3.304600	-9.895000	26.679435	0.000525	20.762721
1765.466209	-2.994200	3.304900	-9.894800	26.702371	0.000522	20.765391
1766.461237	-3.030800	3.304000	-10.013000	26.716196	0.000524	20.753686
1767.464451	-3.025000	3.302800	-9.989000	26.691126	0.000524	20.748870
1768.463722	-2.984400	3.304200	-9.858900	26.664963	0.000523	20.756233
1769.466525	-2.996900	3.303300	-9.898300	26.632170	0.000522	20.751241
1770.464631	-3.005600	3.300700	-9.919300	26.582420	0.000520	20.769508
1771.465684	-3.004300	3.302800	-9.922000	26.551985	0.000521	20.764993
1772.464022	-3.010900	3.301900	-9.939900	26.557098	0.000521	20.754485
1773.466214	-3.021800	3.300200	-9.971600	26.568420	0.000521	20.765392
1774.464413	-2.991600	3.302000	-9.877500	26.605585	0.000520	20.781415
1775.463193	-2.970200	3.301200	-9.804400	26.637781	0.000518	20.755934
1776.465921	-2.995000	3.301400	-9.885900	26.661489	0.000518	20.747998
1777.465006	-3.031800	3.298600	-9.997800	26.654042	0.000518	20.754736
1778.466949	-2.993900	3.299600	-9.878300	26.668837	0.000515	20.756808
1779.467737	-2.993800	3.298400	-9.872700	26.631005	0.000514	20.751966
1780.465709	-3.038900	3.297100	-10.018000	26.632171	0.000514	20.754087
1781.466794	-2.975600	3.299200	-9.815800	26.668115	0.000516	20.774101
1782.468561	-2.997300	3.297600	-9.882900	26.702322	0.000515	20.761549
1783.467872	-3.018200	3.297200	-9.950300	26.723274	0.000513	20.737567
1784.466058	-2.998000	3.296600	-9.882100	26.735113	0.000513	20.764644
1785.465452	-2.994800	3.297700	-9.874800	26.731142	0.000513	20.744056
1786.476025	-2.975300	3.298500	-9.812800	26.718681	0.000513	20.758555
1787.465155	-3.008300	3.295600	-9.913600	26.729553	0.000513	20.771856
1788.466409	-3.013600	3.295000	-9.928900	26.724193	0.000511	20.757932
1789.465903	-3.030500	3.293800	-9.981300	26.755940	0.000509	20.773729
1790.465704	-3.001600	3.296200	-9.892700	26.760334	0.000511	20.760603
1791.466489	-2.998700	3.296500	-9.883000	26.796522	0.000510	20.745304
1792.470748	-3.001900	3.294000	-9.886000	26.817273	0.000509	20.769014
1793.467842	-2.992900	3.295500	-9.862100	26.800147	0.000508	20.749897
1794.466450	-2.994200	3.293200	-9.859100	26.771329	0.000508	20.741785
1795.467675	-2.996200	3.292900	-9.865300	26.733428	0.000508	20.770536
1796.466324	-3.012900	3.292700	-9.919300	26.722184	0.000508	20.744532
1797.470854	-3.024900	3.292300	-9.957900	26.703864	0.000506	20.749348
1798.467905	-2.991800	3.293100	-9.851300	26.732806	0.000504	20.760902
1799.470412	-2.977200	3.293000	-9.802000	26.699745	0.000504	20.758009
1800.471681	-3.008900	3.290300	-9.899200	26.704684	0.000504	20.770087
1801.470410	-3.012500	3.290600	-9.911900	26.693787	0.000505	20.768141
1802.470893	-3.002100	3.291200	-9.878800	26.663055	0.000503	20.758582
1803.470444	-3.015400	3.290800	-9.921600	26.653798	0.000503	20.767294
1804.473090	-2.998800	3.289800	-9.864900	26.640939	0.000502	20.764324
1805.473278	-2.989900	3.289400	-9.834500	26.614846	0.000502	20.736196
1806.472779	-2.997000	3.289200	-9.856400	26.592754	0.000501	20.771361
1807.476198	-2.963900	3.289800	-9.747800	26.655982	0.000501	20.778498
1808.473197	-3.006300	3.287600	-9.881800	26.675891	0.000499	20.758684
1809.475513	-2.977200	3.290500	-9.795200	26.654568	0.000500	20.770439
1810.472806	-2.996000	3.288600	-9.850800	26.622246	0.000499	20.755964
1811.473477	-2.990700	3.288600	-9.834200	26.635727	0.000497	20.760506
1812.472941	-2.990800	3.286700	-9.829000	26.600079	0.000497	20.756913
1813.477385	-2.989900	3.286200	-9.823900	26.577687	0.000496	20.765224
1814.474313	-3.012600	3.286300	-9.899000	26.583695	0.000496	20.750874
1815.475642	-2.989100	3.286700	-9.823500	26.546555	0.000497	20.750051
1816.475831	-2.990500	3.284600	-9.820500	26.567111	0.000496	20.755067
1817.477794	-3.018200	3.284200	-9.911700	26.624979	0.000494	20.767720
1818.483727	-3.003100	3.283500	-9.859100	26.618623	0.000494	20.771288
1819.474238	-3.000600	3.285500	-9.856600	26.639949	0.000495	20.766174
1820.486241	-2.998700	3.284000	-9.846600	26.696074	0.000492	20.750999
1821.479244	-3.008800	3.283400	-9.877800	26.721542	0.000491	20.748628
1822.474576	-2.995800	3.282600	-9.832400	26.701511	0.000490	20.752672
1823.476607	-2.987900	3.282800	-9.807800	26.727997	0.000490	20.765550
1824.480845	-2.988100	3.283600	-9.809200	26.708486	0.000490	20.755417
1825.479090	-2.996200	3.280700	-9.827800	26.684804	0.000489	20.764800
1826.476250	-3.007100	3.281900	-9.868000	26.683291	0.000488	20.767072
1827.477539	-2.985200	3.282800	-9.799100	26.662365	0.000488	20.744611
1828.481779	-2.991100	3.280400	-9.810500	26.712234	0.000485	20.748279
1829.477170	-2.994500	3.280300	-9.821600	26.767190	0.000486	20.773660
1830.481731	-3.030400	3.279500	-9.936200	26.780345	0.000487	20.784990
1831.478827	-3.005200	3.280600	-9.858100	26.772451	0.000483	20.768044
1832.478461	-3.032500	3.278800	-9.940800	26.803676	0.000484	20.746807
1833.481257	-3.006300	3.279800	-9.859300	26.821546	0.000484	20.772362
1834.489818	-2.993500	3.278400	-9.813100	26.810352	0.000485	20.739294
1835.479098	-3.002100	3.277900	-9.839200	26.849668	0.000484	20.766498
1836.480042	-3.007500	3.278300	-9.858000	26.890717	0.000481	20.760358
1837.482790	-2.989900	3.278100	-9.800300	26.892975	0.000483	20.759309
1838.485896	-3.005700	3.276800	-9.848600	26.953431	0.000483	20.758935
1839.484946	-3.022000	3.276000	-9.898700	26.996415	0.000481	20.782245
1840.482082	-2.990400	3.277100	-9.798800	27.021675	0.000479	20.765448
1841.486494	-2.983700	3.276900	-9.775800	27.010731	0.000479	20.774357
1842.484814	-2.980300	3.276600	-9.764600	27.003386	0.000479	20.779773
1843.483191	-3.016700	3.274300	-9.876400	26.963632	0.000480	20.776779
1844.485221	-3.000700	3.274500	-9.825100	26.957477	0.000479	20.761107
1845.484272	-3.012900	3.273300	-9.861200	26.982243	0.000478	20.782693
1846.482253	-2.998600	3.274400	-9.816900	26.953009	0.000476	20.765149
1847.484499	-3.005100	3.272400	-9.832500	26.958221	0.000479	20.755217
1848.483610	-3.015500	3.272500	-9.867400	26.952662	0.000476	20.771438
1849.484049	-2.991000	3.273300	-9.789100	26.917223	0.000476	20.774683
1850.485691	-3.007600	3.271800	-9.839600	26.894961	0.000475	20.799239
1851.485204	-3.005000	3.274000	-9.836500	26.877936	0.000475	20.775482
1852.486560	-2.995900	3.274100	-9.808000	26.890099	0.000474	20.761632
1853.493058	-3.027900	3.271200	-9.903800	26.915288	0.000473	20.756615
1854.486358	-2.987300	3.272600	-9.774600	26.954053	0.000473	20.771889
1855.488334	-2.987200	3.271500	-9.770900	26.967704	0.000472	20.764278
1856.485442	-3.012900	3.270200	-9.851500	27.000460	0.000474	20.785366
1857.485914	-3.008500	3.270000	-9.836300	26.992793	0.000470	20.765327
1858.491397	-2.971100	3.270900	-9.717100	26.963807	0.000467	20.775059
1859.491324	-2.993900	3.271300	-9.793700	26.955965	0.000467	20.769070
1860.489345	-2.978200	3.269900	-9.737700	26.985994	0.000468	20.789784
1861.485444	-2.982300	3.269400	-9.749200	27.006046	0.000469	20.785767
1862.487836	-3.032600	3.265900	-9.903500	27.024607	0.000468	20.790683
1863.486981	-2.998300	3.267800	-9.796800	27.043938	0.000466	20.784993
1864.487265	-3.004400	3.267800	-9.817000	27.099672	0.000465	20.778456
1865.490151	-2.989100	3.269100	-9.770400	27.097737	0.000466	20.783147
1866.488471	-2.970900	3.266500	-9.704200	27.071458	0.000466	20.791806
1867.492652	-2.990900	3.268600	-9.775800	27.035305	0.000463	20.784845
1868.489013	-3.018100	3.265800	-9.855900	27.010588	0.000463	20.787964
1869.488660	-3.021700	3.265600	-9.865400	27.065230	0.000464	20.800242
1870.492651	-2.992400	3.264000	-9.765900	27.090343	0.000463	20.786143
1871.489964	-2.989500	3.265700	-9.761900	27.105429	0.000462	20.788987
1872.492947	-2.989300	3.264500	-9.757700	27.137512	0.000461	20.788538
1873.489668	-3.023000	3.262700	-9.862100	27.144485	0.000462	20.784171
1874.492718	-3.007000	3.263200	-9.811400	27.170710	0.000460	20.791582
1875.495714	-3.007300	3.262000	-9.809500	27.188452	0.000458	20.772442
1876.491966	-3.012900	3.263000	-9.830800	27.187955	0.000459	20.795651
1877.493571	-2.976900	3.263300	-9.712100	27.231449	0.000458	20.792457
1878.489490	-3.012300	3.261700	-9.824300	27.239163	0.000456	20.783620
1879.490361	-2.997600	3.261800	-9.776600	27.243233	0.000458	20.808102
1880.498001	-2.990600	3.260900	-9.751000	27.206589	0.000455	20.782625
1881.492877	-3.003700	3.260600	-9.792500	27.180809	0.000455	20.806955
1882.493202	-2.985700	3.261300	-9.736800	27.173836	0.000452	20.790459
1883.497623	-2.992700	3.262000	-9.760900	27.111905	0.000452	20.785069
1884.493092	-3.014200	3.261100	-9.828000	27.131259	0.000452	20.799319
1885.495839	-3.016800	3.257900	-9.827700	27.159421	0.000452	20.788762
1886.493793	-2.995900	3.260400	-9.766400	27.159396	0.000451	20.811971
1887.492681	-3.007800	3.258800	-9.800700	27.139348	0.000449	20.803187
1888.498696	-2.991000	3.258100	-9.743400	27.109300	0.000449	20.808054
1889.492568	-2.984500	3.257300	-9.719900	27.112526	0.000449	20.790909
1890.497823	-2.992900	3.258900	-9.752700	27.109475	0.000447	20.794478
1891.497723	-3.019400	3.256200	-9.831000	27.079622	0.000449	20.794327
1892.493654	-3.009600	3.257900	-9.803700	27.025156	0.000447	20.807356
1893.494307	-2.994000	3.259300	-9.757200	27.009001	0.000446	20.816239
1894.505194	-2.995700	3.254800	-9.749100	27.020242	0.000444	20.800517
1895.500560	-2.988000	3.256900	-9.730400	27.035379	0.000446	20.801042
1896.493733	-2.981500	3.255100	-9.703500	27.047910	0.000445	20.819333
1897.499835	-3.013500	3.255600	-9.808200	27.100442	0.000445	20.782549
1898.508399	-3.011600	3.254800	-9.800500	27.109499	0.000444	20.808728
1899.493846	-2.991100	3.255300	-9.736100	27.095554	0.000445	20.787116
1900.493817	-3.002200	3.253800	-9.767000	27.055504	0.000441	20.814642
1901.493332	-2.983900	3.254500	-9.710200	27.049350	0.000441	20.815565
1902.500206	-2.994800	3.252400	-9.739500	27.034710	0.000438	20.811274
1903.501815	-2.983600	3.253300	-9.705500	27.010663	0.000439	20.805109
1904.504573	-2.998900	3.252600	-9.752900	27.040911	0.000440	20.815140
1905.498981	-2.999400	3.252300	-9.753800	27.050539	0.000438	20.791157
1906.499822	-2.999600	3.252500	-9.755100	27.049547	0.000437	20.794427
1907.500882	-2.984900	3.251000	-9.703100	27.046694	0.000437	20.823325
1908.496538	-2.994200	3.251700	-9.735200	27.073492	0.000437	20.809499
1909.496736	-2.997600	3.249900	-9.740500	27.112350	0.000437	20.811121
1910.496253	-3.009400	3.250200	-9.779500	27.158924	0.000436	20.798693
1911.495945	-3.000400	3.249000	-9.748100	27.175150	0.000434	20.817384
1912.501128	-3.001700	3.250200	-9.755400	27.184826	0.000433	20.832805
1913.499854	-3.003300	3.249000	-9.757300	27.216063	0.000433	20.818706
1914.499363	-2.978500	3.248400	-9.674800	27.239237	0.000432	20.827316
1915.502642	-2.980600	3.248700	-9.681400	27.284513	0.000434	20.823072
1916.499890	-2.995700	3.247900	-9.728300	27.299796	0.000432	20.819005
1917.499482	-3.000900	3.247500	-9.743700	27.273448	0.000433	20.818580
1918.502819	-3.001400	3.246500	-9.742700	27.217451	0.000430	20.811094
1919.501734	-2.997500	3.246100	-9.729000	27.216186	0.000431	20.809347
1920.503809	-3.002700	3.247000	-9.748900	27.226185	0.000430	20.824620
1921.500961	-2.969100	3.245500	-9.635600	27.260770	0.000426	20.825268
1922.503139	-2.987600	3.245200	-9.694300	27.294485	0.000428	20.832629
1923.503427	-2.997300	3.245500	-9.726500	27.313614	0.000429	20.846180
1924.506402	-2.977200	3.245400	-9.660700	27.349908	0.000425	20.824370
1925.513654	-2.983600	3.245800	-9.682600	27.293370	0.000428	20.815386
1926.502169	-2.996800	3.244000	-9.720400	27.272579	0.000425	20.836198
1927.502353	-2.994900	3.243100	-9.711200	27.257942	0.000424	20.832380
1928.511374	-3.010400	3.243100	-9.761600	27.274788	0.000424	20.825144
1929.506450	-2.980000	3.244000	-9.665700	27.224323	0.000424	20.826066
1930.508658	-3.014700	3.241700	-9.771400	27.242560	0.000423	20.817383
1931.509037	-3.007900	3.242000	-9.750200	27.241122	0.000422	20.823523
1932.504195	-2.998900	3.241900	-9.720100	27.255264	0.000421	20.819730
1933.509647	-3.005100	3.240500	-9.737200	27.305651	0.000422	20.846706
1934.507920	-2.990800	3.240900	-9.692400	27.320982	0.000419	20.837472
1935.505797	-3.021800	3.238100	-9.784200	27.337207	0.000420	20.847155
1936.505951	-2.975700	3.241000	-9.643200	27.344849	0.000417	20.837772
1937.505358	-2.992700	3.238200	-9.689100	27.365389	0.000418	20.856537
1938.519834	-2.995300	3.239200	-9.701800	27.379902	0.000416	20.830361
1939.505201	-3.009300	3.237200	-9.740100	27.394140	0.000416	20.843736
1940.506404	-3.004600	3.237900	-9.727800	27.369011	0.000415	20.835052
1941.517695	-3.014200	3.237000	-9.755800	27.345866	0.000414	20.842114
1942.511816	-3.019300	3.236500	-9.770700	27.358914	0.000414	20.835326
1943.511649	-3.005200	3.236800	-9.725900	27.389056	0.000416	20.837199
1944.507811	-2.991900	3.236500	-9.682300	27.395282	0.000414	20.841565
1945.512812	-2.976200	3.237900	-9.635800	27.423561	0.000410	20.843462
1946.510447	-3.007400	3.234100	-9.724100	27.431946	0.000410	20.846208
1947.512487	-2.986300	3.236300	-9.664100	27.453278	0.000413	20.844909
1948.512647	-3.003700	3.234300	-9.713900	27.419370	0.000408	20.842091
1949.510008	-3.000800	3.234000	-9.703000	27.442191	0.000408	20.850350
1950.518517	-3.010800	3.234200	-9.735900	27.455116	0.000409	20.863353
1951.519823	-2.981100	3.233900	-9.639200	27.433435	0.000407	20.857188
1952.515089	-3.043500	3.231500	-9.834400	27.425323	0.000409	20.858984
1953.512908	-3.002500	3.232900	-9.706200	27.443878	0.000405	20.857263
1954.513100	-3.002700	3.233300	-9.707700	27.444474	0.000404	20.861181
1955.510878	-3.017100	3.230500	-9.746200	27.427804	0.000404	20.855790
1956.513959	-3.015600	3.231400	-9.743800	27.414882	0.000406	20.844688
1957.512919	-3.007100	3.231800	-9.717900	27.373651	0.000403	20.849203
1958.512119	-3.014700	3.229900	-9.736000	27.292999	0.000404	20.862427
1959.512911	-2.979900	3.231500	-9.628100	27.250327	0.000401	20.861704
1960.520552	-3.015400	3.228500	-9.733800	27.238443	0.000402	20.853544
1961.513662	-3.004300	3.230000	-9.701700	27.272359	0.000399	20.855890
1962.513694	-2.989100	3.228700	-9.649100	27.296672	0.000399	20.860432
1963.515478	-2.977100	3.228400	-9.610100	27.353507	0.000398	20.855964
1964.512794	-2.994400	3.229300	-9.668000	27.392653	0.000397	20.836550
1965.518893	-3.012100	3.227400	-9.720000	27.416640	0.000397	20.867318
1966.516898	-3.042100	3.225400	-9.810800	27.461191	0.000397	20.868990
1967.517437	-3.013900	3.226500	-9.723200	27.471833	0.000395	20.860256
1968.514902	-3.002000	3.226400	-9.682700	27.497282	0.000394	20.870213
1969.521182	-2.988900	3.226700	-9.643300	27.478157	0.000393	20.869938
1970.523859	-3.021300	3.225800	-9.744600	27.438641	0.000395	20.858633
1971.518516	-2.988300	3.225400	-9.636800	27.360179	0.000391	20.876425
1972.520079	-2.978100	3.226900	-9.609200	27.374245	0.000393	20.890574
1973.515648	-3.010300	3.223800	-9.703900	27.343160	0.000392	20.864521
1974.517634	-3.011100	3.224900	-9.709500	27.364966	0.000392	20.870810
1975.516433	-3.007400	3.225500	-9.698000	27.402822	0.000390	20.869063
1976.528998	-3.002300	3.224300	-9.679100	27.425420	0.000389	20.852918
1977.522787	-3.011800	3.222200	-9.702800	27.468730	0.000389	20.872781
1978.520556	-2.997200	3.222000	-9.655500	27.444817	0.000387	20.880017
1979.517258	-2.991100	3.221500	-9.635400	27.467687	0.000389	20.888326
1980.517706	-2.993300	3.222800	-9.644100	27.427999	0.000385	20.862150
1981.518359	-2.993200	3.222700	-9.645400	27.387094	0.000390	20.873629
1982.518825	-3.001600	3.221100	-9.667600	27.367024	0.000386	20.852493
1983.519090	-3.001500	3.219200	-9.661600	27.347302	0.000384	20.878645
1984.519582	-3.002300	3.219600	-9.663600	27.333037	0.000384	20.894165
1985.531301	-3.002000	3.219800	-9.664400	27.336312	0.000382	20.889873
1986.521812	-2.996200	3.221800	-9.652200	27.339661	0.000383	20.886605
1987.530927	-3.007600	3.220000	-9.683200	27.327977	0.000381	20.871533
1988.524894	-2.982800	3.218900	-9.600300	27.385009	0.000379	20.889549
1989.522114	-3.009500	3.217200	-9.681500	27.440474	0.000382	20.877071
1990.522885	-3.006500	3.218600	-9.676300	27.471208	0.000378	20.885705
1991.532981	-3.012600	3.220100	-9.699300	27.452034	0.000377	20.876847
1992.522794	-3.017700	3.217600	-9.709000	27.491945	0.000379	20.900877
1993.524865	-2.989400	3.216600	-9.615100	27.516848	0.000377	20.892268
1994.529858	-2.980400	3.217000	-9.587200	27.481104	0.000375	20.869584
1995.522265	-3.007400	3.217000	-9.673000	27.498344	0.000377	20.892617
1996.531213	-3.028300	3.213000	-9.728400	27.482072	0.000374	20.887625
1997.530377	-3.004600	3.214200	-9.656300	27.428467	0.000374	20.898180
1998.522794	-3.004300	3.213000	-9.651300	27.426953	0.000373	20.898554
1999.523778	-2.993900	3.213700	-9.621300	27.427498	0.000373	20.899102
2000.531494	-2.994500	3.212000	-9.617100	27.407950	0.000371	20.881808
2001.523281	-3.004100	3.211800	-9.647200	27.464260	0.000371	20.871129
2002.530430	-2.991500	3.213000	-9.610200	27.498365	0.000368	20.899750
2003.528350	-3.000000	3.211200	-9.632000	27.490825	0.000369	20.879837
2004.525969	-3.021900	3.210800	-9.701200	27.460735	0.000368	20.882755
2005.525723	-3.012100	3.210800	-9.670300	27.472667	0.000367	20.889069
2006.523816	-3.007100	3.211300	-9.655200	27.453591	0.000366	20.904964
2007.523560	-2.996900	3.211200	-9.622400	27.444016	0.000362	20.880634
2008.525731	-3.004700	3.209400	-9.642200	27.413380	0.000364	20.894382
2009.527073	-2.994700	3.210600	-9.613700	27.366023	0.000364	20.893209
2010.524810	-3.036400	3.207800	-9.739100	27.367933	0.000363	20.906035
2011.524222	-3.000100	3.210100	-9.629800	27.385695	0.000364	20.892609
2012.526937	-2.994200	3.207700	-9.604300	27.440218	0.000363	20.885347
2013.527650	-3.005900	3.208300	-9.643200	27.492804	0.000364	20.882303
2014.528664	-2.983000	3.206700	-9.564300	27.548562	0.000362	20.882452
2015.530766	-3.024000	3.205600	-9.692000	27.609253	0.000362	20.880929
2016.528082	-3.001300	3.205600	-9.619900	27.629342	0.000361	20.876013
2017.527699	-2.997100	3.207500	-9.612800	27.657615	0.000359	20.881228
2018.538320	-3.012300	3.206200	-9.655900	27.692210	0.000359	20.878108
2019.533137	-3.001700	3.205100	-9.620100	27.671006	0.000357	20.883798
2020.531400	-2.977900	3.207500	-9.550700	27.670807	0.000357	20.893080
2021.528593	-2.977200	3.204600	-9.539000	27.692705	0.000356	20.872443
2022.531483	-2.998900	3.202200	-9.602000	27.731366	0.000355	20.875785
2023.531918	-2.996500	3.202700	-9.596000	27.776029	0.000355	20.869049
2024.529047	-2.980800	3.202900	-9.545900	27.779375	0.000354	20.865779
2025.531202	-3.007600	3.204200	-9.634200	27.802214	0.000352	20.877857
2026.532311	-2.997400	3.200600	-9.592500	27.770621	0.000352	20.864555
2027.531821	-2.996500	3.200600	-9.588800	27.733251	0.000353	20.869622
2028.529506	-3.005700	3.201800	-9.623000	27.706145	0.000351	20.870794
2029.529475	-3.007600	3.199300	-9.620300	27.682211	0.000350	20.852401
2030.532578	-3.052500	3.197800	-9.759800	27.651287	0.000349	20.861111
2031.529391	-3.014700	3.201300	-9.649500	27.595930	0.000349	20.882222
2032.531936	-2.994600	3.200400	-9.582700	27.586430	0.000346	20.849906
2033.531102	-2.972900	3.200100	-9.512300	27.581197	0.000347	20.859339
2034.533839	-3.017000	3.195900	-9.640800	27.607759	0.000347	20.871366
2035.533647	-3.025100	3.197200	-9.669900	27.623308	0.000346	20.848132
2036.532789	-2.990400	3.197100	-9.560000	27.607162	0.000345	20.851800
2037.539825	-2.977100	3.196600	-9.515400	27.654807	0.000345	20.858489
2038.535439	-2.985100	3.198300	-9.546300	27.702521	0.000345	20.836803
2039.535746	-2.991600	3.195900	-9.559700	27.698726	0.000342	20.850054
2040.537983	-3.010700	3.194600	-9.616500	27.687219	0.000341	20.865500
2041.536007	-2.994600	3.195400	-9.568600	27.669438	0.000343	20.838599
2042.537015	-2.984400	3.194500	-9.532500	27.650168	0.000342	20.851451
2043.538225	-2.995700	3.194000	-9.566400	27.649646	0.000340	20.859934
2044.537589	-2.997900	3.192900	-9.571000	27.662048	0.000341	20.851551
2045.536767	-2.986700	3.192800	-9.534100	27.678836	0.000339	20.826246
2046.537926	-3.007800	3.192300	-9.601200	27.698204	0.000336	20.850477
2047.537404	-2.988300	3.191600	-9.536200	27.714820	0.000336	20.858188
2048.537075	-2.976200	3.192800	-9.501300	27.742149	0.000336	20.849654
2049.540501	-3.006500	3.192000	-9.594900	27.755737	0.000334	20.838198
2050.537923	-3.004400	3.190800	-9.584900	27.757150	0.000334	20.825396
2051.538047	-3.000300	3.190800	-9.572200	27.795412	0.000332	20.850150
2052.539313	-3.011300	3.190400	-9.605900	27.770491	0.000334	20.824597
2053.538334	-3.007100	3.188800	-9.588200	27.739221	0.000333	20.852397
2054.541401	-2.982500	3.189400	-9.511300	27.732598	0.000332	20.852371
2055.543600	-2.996100	3.189700	-9.555600	27.746808	0.000330	20.822575
2056.539599	-3.008800	3.186800	-9.587500	27.773963	0.000331	20.851324
2057.541475	-3.001000	3.188200	-9.565200	27.796849	0.000329	20.861079
2058.550901	-3.004400	3.186300	-9.572600	27.818944	0.000330	20.844910
2059.540111	-3.006300	3.186400	-9.577700	27.819291	0.000328	20.836250
2060.541355	-2.998400	3.186200	-9.552900	27.812969	0.000325	20.838422
2061.542869	-3.000000	3.185100	-9.553600	27.819985	0.000325	20.830785
2062.543493	-3.009500	3.185400	-9.585100	27.756628	0.000326	20.830087
2063.543481	-2.987100	3.185500	-9.513900	27.749337	0.000322	20.819430
2064.546306	-2.975400	3.183600	-9.471600	27.773564	0.000323	20.823422
2065.543107	-3.001400	3.182800	-9.551100	27.821150	0.000323	20.833853
2066.540870	-2.980000	3.183200	-9.485300	27.835334	0.000322	20.813041
2067.544279	-2.981900	3.183900	-9.493200	27.835433	0.000321	20.828788
2068.540715	-2.989900	3.183700	-9.517200	27.862956	0.000320	20.821875
2069.542202	-2.994800	3.182100	-9.527800	27.868286	0.000321	20.819653
2070.547020	-3.004000	3.181300	-9.555900	27.817925	0.000320	20.832505
2071.542255	-3.009000	3.180200	-9.568000	27.810858	0.000319	20.832031
2072.543862	-2.993700	3.180500	-9.519400	27.783258	0.000320	20.825118
2073.545868	-3.008500	3.177800	-9.559000	27.755981	0.000316	20.815211
2074.542797	-2.979300	3.178900	-9.469000	27.727017	0.000319	20.817832
2075.543745	-2.971000	3.178800	-9.443500	27.672309	0.000316	20.817307
2076.547172	-2.992400	3.179100	-9.510800	27.623402	0.000316	20.809347
2077.543793	-2.979800	3.176900	-9.465600	27.620301	0.000313	20.805753
2078.542924	-2.982700	3.176900	-9.475500	27.677120	0.000314	20.815511
2079.548436	-3.001800	3.175700	-9.531900	27.727908	0.000313	20.826315
2080.544450	-3.029200	3.175300	-9.617000	27.788789	0.000313	20.838744
2081.544929	-3.020900	3.174600	-9.589100	27.801905	0.000311	20.810219
2082.546660	-2.996200	3.175600	-9.513800	27.804608	0.000310	20.818629
2083.547712	-2.994000	3.172700	-9.498600	27.778225	0.000310	20.817681
2084.547422	-2.991500	3.174400	-9.495500	27.768107	0.000310	20.816034
2085.551751	-2.988500	3.174200	-9.486100	27.818644	0.000309	20.808573
2086.546882	-3.004400	3.175300	-9.539300	27.848375	0.000308	20.812416
2087.545868	-2.995700	3.172900	-9.504300	27.915619	0.000308	20.808023
2088.550350	-2.996600	3.173400	-9.508200	27.927495	0.000306	20.808122
2089.546112	-3.026700	3.171700	-9.598300	27.902231	0.000306	20.818256
2090.547736	-2.993300	3.169500	-9.486200	27.920032	0.000304	20.819103
2091.551912	-3.016500	3.168900	-9.559000	27.936669	0.000304	20.816408
2092.553683	-2.998400	3.171500	-9.508300	27.936074	0.000303	20.813912
2093.550598	-3.013400	3.169300	-9.549400	27.953280	0.000302	20.830756
2094.551496	-3.006700	3.168900	-9.526300	27.916189	0.000302	20.812390
2095.553982	-2.982300	3.169200	-9.450200	27.922411	0.000301	20.811540
2096.552690	-2.989000	3.169300	-9.471700	27.953478	0.000300	20.818627
2097.557584	-2.997200	3.167900	-9.493400	27.988908	0.000298	20.811615
2098.555418	-3.022300	3.165500	-9.566300	27.979710	0.000300	20.808047
2099.551140	-2.998800	3.166900	-9.495900	27.954891	0.000299	20.812938
2100.554900	-3.014500	3.165900	-9.542400	28.007031	0.000297	20.808996
2101.554459	-3.003600	3.164200	-9.502500	28.030434	0.000299	20.781343
2102.552502	-3.023800	3.164800	-9.568500	28.053961	0.000297	20.800759
2103.553319	-2.996800	3.164900	-9.483600	28.037425	0.000297	20.829632
2104.553823	-2.995400	3.165200	-9.479100	28.059217	0.000294	20.821222
2105.554303	-3.000400	3.164000	-9.492400	28.061696	0.000296	20.809019
2106.557948	-2.986400	3.163700	-9.446700	28.047441	0.000294	20.814584
2107.556578	-2.995000	3.162200	-9.469200	28.011144	0.000293	20.815980
2108.555473	-3.009300	3.161800	-9.514000	27.953227	0.000293	20.819323
2109.554770	-2.988100	3.162300	-9.448200	27.931831	0.000291	20.798736
2110.556019	-3.000200	3.159800	-9.477800	27.922979	0.000290	20.809267
2111.555089	-2.969100	3.161300	-9.385700	27.939517	0.000289	20.832550
2112.557840	-2.985500	3.159600	-9.431900	27.983773	0.000290	20.785111
2113.560408	-2.997500	3.158500	-9.466600	28.007523	0.000289	20.804275
2114.558215	-3.011300	3.157800	-9.507900	28.025424	0.000286	20.809017
2115.559255	-2.991300	3.159000	-9.448200	27.969962	0.000288	20.800606
2116.558373	-3.000900	3.157800	-9.474400	27.931631	0.000285	20.807069
2117.557294	-2.991500	3.156000	-9.440100	27.887371	0.000286	20.813257
2118.556680	-2.999700	3.155600	-9.465100	27.860345	0.000286	20.796962
2119.557534	-3.005500	3.156600	-9.486000	27.883406	0.000285	20.799783
2120.557574	-3.006900	3.153900	-9.483100	27.937010	0.000285	20.798260
2121.561073	-3.008900	3.153600	-9.487800	27.970160	0.000285	20.810288
2122.566321	-3.009100	3.153300	-9.486500	27.967458	0.000282	20.803301
2123.559250	-3.019300	3.152100	-9.515800	27.925209	0.000282	20.803925
2124.562136	-2.988200	3.154300	-9.424100	27.912217	0.000281	20.810763
2125.560746	-3.009300	3.152800	-9.486600	27.932026	0.000281	20.792295
2126.560745	-3.015000	3.150600	-9.497600	27.958086	0.000281	20.791023
2127.562578	-2.998300	3.151200	-9.447600	27.984119	0.000281	20.789726
2128.561591	-3.000400	3.151400	-9.454300	27.972417	0.000279	20.794542
2129.562028	-3.008200	3.149300	-9.472900	28.003506	0.000278	20.789800
2130.567060	-3.005100	3.149600	-9.463800	28.028521	0.000278	20.815454
2131.562053	-2.989200	3.151100	-9.417900	28.032488	0.000277	20.784834
2132.562741	-3.008400	3.149400	-9.473700	28.045281	0.000276	20.803875
2133.563755	-2.994100	3.149100	-9.427600	28.059437	0.000276	20.815754
2134.563507	-2.973100	3.147700	-9.356600	28.006085	0.000272	20.784809
2135.562225	-2.994200	3.146700	-9.420800	28.057155	0.000276	20.788327
2136.564237	-2.988600	3.147200	-9.404700	28.067272	0.000274	20.782390
2137.562299	-3.004200	3.145700	-9.449000	28.098705	0.000272	20.776099
2138.563867	-3.016700	3.144000	-9.484000	28.120471	0.000272	20.789477
2139.561422	-2.994700	3.143200	-9.411300	28.124810	0.000274	20.790525
2140.563474	-3.004500	3.143200	-9.442800	28.132693	0.000271	20.794193
2141.563562	-3.019900	3.143400	-9.491700	28.124487	0.000269	20.779294
2142.564637	-3.003100	3.141600	-9.432000	28.136683	0.000271	20.787305
2143.563467	-3.001600	3.142200	-9.429900	28.198333	0.000268	20.802429
2144.562002	-2.996100	3.142200	-9.413100	28.174065	0.000269	20.800282
2145.564649	-3.001700	3.139900	-9.425000	28.143204	0.000269	20.784860
2146.564293	-2.997300	3.138700	-9.406500	28.089584	0.000268	20.801057
2147.563868	-2.986800	3.139300	-9.374300	28.066603	0.000266	20.790725
2148.565905	-3.015900	3.135700	-9.456500	28.044265	0.000265	20.801905
2149.562265	-2.996500	3.138300	-9.403400	28.050192	0.000264	20.793646
2150.563923	-3.015800	3.136600	-9.458000	28.056018	0.000263	20.786708
2151.566746	-2.977300	3.137200	-9.338800	28.058596	0.000263	20.788830
2152.567691	-2.994100	3.136200	-9.388700	28.009064	0.000262	20.773583
2153.565190	-2.996100	3.135100	-9.391500	27.931460	0.000262	20.797415
2154.568953	-3.016100	3.134600	-9.452900	27.899427	0.000262	20.750474
2155.578351	-2.995600	3.134700	-9.389400	27.893675	0.000260	20.799688
2156.574903	-3.004300	3.133800	-9.414700	27.935602	0.000259	20.778824
2157.571247	-3.003000	3.131500	-9.402900	28.007205	0.000259	20.787834
2158.567342	-2.995300	3.130900	-9.376400	28.034550	0.000260	20.780271
2159.571468	-2.989300	3.132400	-9.362900	28.042063	0.000259	20.791153
2160.570925	-2.984700	3.130000	-9.340900	28.016553	0.000259	20.785863
2161.566807	-2.984600	3.129800	-9.340100	28.027288	0.000259	20.775806
2162.565594	-3.009300	3.128100	-9.412300	28.033932	0.000259	20.773959
2163.568119	-3.011500	3.127500	-9.417600	28.069631	0.000258	20.796619
2164.576422	-2.982200	3.129000	-9.330500	28.106445	0.000257	20.791004
2165.565891	-3.000900	3.126700	-9.381700	28.091125	0.000258	20.788858
2166.568896	-2.992000	3.126700	-9.353100	28.063930	0.000252	20.772862
2167.568908	-2.997400	3.127200	-9.372700	28.053171	0.000256	20.769144
2168.572344	-2.990700	3.125100	-9.344800	28.043180	0.000257	20.783268
2169.571718	-3.009000	3.124100	-9.399200	28.043329	0.000254	20.767771
2170.571198	-3.023800	3.123400	-9.443100	28.036933	0.000253	20.785515
2171.570821	-2.979800	3.124500	-9.309300	28.037082	0.000252	20.771441
2172.572791	-2.990500	3.122900	-9.337800	28.020349	0.000253	20.761708
2173.570312	-2.987400	3.121600	-9.323200	28.038991	0.000253	20.777630
2174.572537	-3.012300	3.121900	-9.403400	28.063411	0.000250	20.782296
2175.576494	-3.008000	3.120800	-9.386400	28.083691	0.000249	20.784693
2176.572419	-3.002300	3.119200	-9.363200	28.103052	0.000251	20.780476
2177.574035	-2.995200	3.120700	-9.346000	28.152408	0.000248	20.773263
2178.573872	-2.989600	3.118200	-9.321500	28.134336	0.000249	20.776882
2179.572443	-3.000800	3.118600	-9.357200	28.057661	0.000248	20.775086
2180.571795	-2.994600	3.117000	-9.331900	28.035720	0.000248	20.793303
2181.575088	-3.022600	3.115500	-9.415300	28.047893	0.000247	20.789435
2182.572271	-3.006000	3.115100	-9.362600	28.084064	0.000244	20.773215
2183.571397	-3.008200	3.115200	-9.370600	28.136767	0.000245	20.778380
2184.574800	-2.989200	3.114900	-9.310600	28.172563	0.000245	20.757992
2185.573108	-3.011000	3.113400	-9.373500	28.185800	0.000245	20.767526
2186.576924	-2.997800	3.112900	-9.330600	28.147675	0.000245	20.793155
2187.576395	-2.985700	3.112600	-9.292200	28.135801	0.000241	20.761761
2188.576806	-3.007200	3.110400	-9.352800	28.142990	0.000241	20.749557
2189.577691	-2.994200	3.110800	-9.313300	28.181512	0.000243	20.768424
2190.577050	-2.975300	3.111400	-9.256300	28.178835	0.000244	20.750082
2191.575082	-2.994200	3.109000	-9.307900	28.161012	0.000243	20.770072
2192.584126	-3.027700	3.107400	-9.406700	28.131686	0.000244	20.765205
2193.578185	-3.000900	3.107400	-9.323800	28.092867	0.000241	20.761688
2194.577593	-2.996600	3.107000	-9.309100	28.106005	0.000240	20.772543
2195.576539	-3.004200	3.107000	-9.333700	28.147627	0.000240	20.751854
2196.583498	-3.028500	3.104100	-9.399300	28.135753	0.000239	20.747961
2197.582286	-3.001500	3.104600	-9.317600	28.108088	0.000238	20.777010
2198.576068	-3.015700	3.102600	-9.355700	28.053177	0.000237	20.756347
2199.580544	-3.007700	3.103300	-9.332600	28.057168	0.000236	20.738078
2200.578770	-2.991900	3.102400	-9.280000	28.024047	0.000235	20.753103
2201.579008	-2.980100	3.102700	-9.245500	28.048739	0.000234	20.764208
2202.579919	-2.995500	3.101000	-9.288100	28.059103	0.000236	20.765631
2203.580147	-2.991000	3.098800	-9.267000	28.097008	0.000236	20.763960
2204.582585	-2.971800	3.100800	-9.213800	28.160519	0.000234	20.760566
2205.580572	-3.004800	3.097600	-9.306400	28.189918	0.000233	20.755550
2206.581319	-2.979300	3.099500	-9.233300	28.150034	0.000233	20.734362
2207.579644	-2.995900	3.096400	-9.275500	28.103182	0.000236	20.764011
2208.583600	-2.986800	3.095700	-9.245200	28.074946	0.000233	20.757872
2209.579067	-2.973700	3.094700	-9.201100	28.054196	0.000234	20.779184
2210.581894	-3.014500	3.094500	-9.327300	28.056899	0.000232	20.756775
2211.582201	-2.986900	3.093800	-9.239700	28.066988	0.000232	20.758396
2212.582273	-3.001400	3.092900	-9.282300	28.036023	0.000231	20.746666
2213.580527	-3.000300	3.092100	-9.276600	28.021322	0.000229	20.751309
2214.584785	-3.005300	3.092500	-9.291700	28.062676	0.000231	20.752632
2215.581539	-3.008200	3.089600	-9.293100	28.106381	0.000230	20.742100
2216.581378	-2.986600	3.090800	-9.229300	28.182285	0.000230	20.740279
2217.584104	-2.989400	3.087800	-9.230000	28.212998	0.000229	20.750811
2218.581804	-2.993700	3.088200	-9.243500	28.255929	0.000228	20.756576
2219.581642	-2.980600	3.087400	-9.200400	28.275635	0.000229	20.765037
2220.583948	-2.995400	3.085200	-9.239900	28.302478	0.000229	20.757924
2221.582392	-2.995600	3.085300	-9.241400	28.274024	0.000227	20.738283
2222.582585	-3.006900	3.085000	-9.273800	28.245545	0.000226	20.754181
2223.590705	-3.024500	3.083700	-9.324800	28.246214	0.000226	20.759123
2224.582793	-3.024900	3.082100	-9.321600	28.249287	0.000225	20.737560
2225.583556	-3.018200	3.081900	-9.301100	28.231366	0.000225	20.739906
2226.583968	-2.992100	3.080800	-9.217000	28.236200	0.000226	20.744299
2227.585434	-2.968600	3.081000	-9.145400	28.201672	0.000224	20.767858
2228.583989	-2.997000	3.078100	-9.222600	28.234441	0.000225	20.738259
2229.585169	-2.967400	3.079000	-9.135500	28.269291	0.000224	20.754381
2230.587051	-3.002500	3.076600	-9.235800	28.304834	0.000223	20.759348
2231.585855	-3.010600	3.076200	-9.259800	28.316954	0.000223	20.736463
2232.586664	-2.993000	3.075900	-9.205600	28.354603	0.000222	20.735016
2233.586689	-3.026700	3.074000	-9.302800	28.407788	0.000223	20.759648
2234.587556	-3.012600	3.074100	-9.259900	28.390861	0.000223	20.739758
2235.586714	-3.007000	3.072600	-9.238200	28.377950	0.000222	20.752836
2236.587346	-3.005800	3.072100	-9.232700	28.378991	0.000221	20.745349
2237.586299	-3.030800	3.069700	-9.302800	28.375917	0.000224	20.752212
2238.585376	-3.018100	3.070900	-9.267600	28.382708	0.000220	20.733445
2239.589751	-3.006500	3.068000	-9.223600	28.350885	0.000221	20.733644
2240.587465	-3.013400	3.067700	-9.243300	28.328999	0.000221	20.748117
2241.590409	-2.964100	3.067700	-9.092200	28.293755	0.000219	20.741081
2242.590811	-2.978600	3.066800	-9.132900	28.243241	0.000220	20.741430
2243.589205	-2.995000	3.065700	-9.180300	28.210669	0.000220	20.724757
2244.588037	-2.993600	3.063800	-9.171100	28.183973	0.000220	20.735339
2245.590881	-2.971400	3.064500	-9.104600	28.153185	0.000221	20.711929
2246.594752	-2.984500	3.063200	-9.140700	28.136477	0.000220	20.742052
2247.594734	-2.970400	3.062900	-9.096600	28.155367	0.000220	20.757276
2248.592185	-2.971900	3.062900	-9.101800	28.169272	0.000220	20.729074
2249.591081	-2.976800	3.060300	-9.109300	28.147755	0.000217	20.728274
2250.595645	-3.004100	3.058100	-9.185200	28.155093	0.000218	20.739930
2251.594815	-2.977400	3.057400	-9.102400	28.202340	0.000217	20.737709
2252.592669	-2.982600	3.058200	-9.119700	28.227944	0.000219	20.731244
2253.594025	-2.987200	3.056700	-9.130600	28.237561	0.000217	20.734763
2254.595106	-3.003500	3.055400	-9.175200	28.254689	0.000218	20.725454
2255.592173	-3.001400	3.055100	-9.168800	28.257737	0.000215	20.730894
2256.596765	-3.012200	3.052900	-9.194800	28.277243	0.000217	20.732516
2257.594898	-2.996800	3.052200	-9.145700	28.316876	0.000217	20.724530
2258.595543	-2.997400	3.052800	-9.149400	28.357100	0.000215	20.720935
2259.594101	-2.990900	3.050500	-9.122700	28.390707	0.000216	20.739603
2260.596629	-3.012700	3.049700	-9.186400	28.437497	0.000215	20.724603
2261.595882	-2.997100	3.048000	-9.133600	28.505471	0.000217	20.730468
2262.597418	-3.002600	3.046200	-9.145800	28.506166	0.000216	20.730219
2263.597291	-3.001400	3.046200	-9.142200	28.521974	0.000216	20.729543
2264.596724	-2.990100	3.044100	-9.101000	28.481805	0.000216	20.742197
2265.603913	-2.991800	3.045100	-9.109600	28.448126	0.000217	20.742895
2266.597914	-2.978400	3.042900	-9.062300	28.456355	0.000216	20.718937
2267.597570	-3.012100	3.041700	-9.160500	28.394769	0.000214	20.730416
2268.603192	-2.996700	3.040500	-9.110200	28.376503	0.000216	20.734309
2269.600262	-3.025200	3.037600	-9.188100	28.337219	0.000214	20.735531
2270.600267	-3.002500	3.038200	-9.120900	28.297490	0.000213	20.731564
2271.602153	-2.965300	3.037100	-9.005200	28.321284	0.000214	20.731340
2272.600923	-3.008400	3.036200	-9.132600	28.321904	0.000214	20.720584
2273.603239	-3.015500	3.034000	-9.148100	28.320367	0.000215	20.720933
2274.605310	-3.027800	3.032900	-9.181600	28.275777	0.000214	20.742420
2275.602695	-3.023400	3.031000	-9.163000	28.284155	0.000212	20.742794
2276.603535	-3.008000	3.031500	-9.117300	28.286461	0.000211	20.726623
2277.606619	-2.975700	3.031100	-9.018700	28.349265	0.000212	20.718736
2278.603726	-3.006100	3.027700	-9.100100	28.398411	0.000214	20.747360
2279.603554	-2.971800	3.029000	-9.000600	28.447208	0.000212	20.734858
2280.606903	-3.008500	3.026400	-9.104100	28.456353	0.000213	20.716091
2281.603741	-2.994100	3.027700	-9.063800	28.439798	0.000210	20.724076
2282.609066	-2.997400	3.024800	-9.065800	28.427556	0.000213	20.726448
2283.606982	-3.034600	3.023000	-9.172600	28.408151	0.000213	20.744366
2284.605012	-2.976600	3.022900	-8.996700	28.418635	0.000211	20.741646
2285.605987	-3.013500	3.022300	-9.107100	28.404781	0.000212	20.736705
2286.606791	-3.011700	3.019200	-9.091100	28.387433	0.000212	20.727296
2287.606002	-3.004800	3.018700	-9.069400	28.434966	0.000212	20.736280
2288.604738	-3.000100	3.018400	-9.054700	28.445400	0.000208	20.742994
2289.606314	-3.013300	3.017000	-9.090500	28.403046	0.000211	20.742071
2290.607688	-2.978400	3.016100	-8.981300	28.447704	0.000211	20.727296
2291.607031	-2.981400	3.014100	-8.985300	28.473031	0.000210	20.740947
2292.607915	-2.996600	3.013400	-9.029400	28.468768	0.000209	20.739025
2293.606741	-3.003500	3.010900	-9.042100	28.415611	0.000210	20.730540
2294.607717	-2.989000	3.011300	-8.999500	28.456303	0.000210	20.759190
2295.610621	-2.997300	3.010400	-9.022000	28.478136	0.000209	20.756046
2296.608908	-3.001600	3.007600	-9.026800	28.459796	0.000209	20.747534
2297.608092	-3.016300	3.006600	-9.068200	28.410703	0.000209	20.733659
2298.609876	-3.003600	3.004900	-9.024100	28.379178	0.000208	20.730364
2299.607482	-3.009600	3.004300	-9.041100	28.389736	0.000210	20.724874
2300.614774	-2.997200	3.003100	-9.000000	28.449882	0.000210	20.736602
2301.609461	-3.016900	3.001000	-9.053000	28.444405	0.000209	20.755269
2302.607180	-3.001100	3.000200	-9.003500	28.401357	0.000209	20.753172
2303.609694	-3.011600	2.999000	-9.030200	28.407305	0.000208	20.760111
2304.610447	-3.023500	2.997200	-9.060600	28.462075	0.000209	20.743665
2305.609347	-3.017300	2.995900	-9.038500	28.456920	0.000210	20.752699
2306.612218	-3.026500	2.994700	-9.061800	28.484500	0.000209	20.761981
2307.613372	-3.032900	2.991200	-9.070500	28.481006	0.000210	20.737598
2308.616390	-3.012500	2.991700	-9.011900	28.500881	0.000206	20.777530
2309.611796	-2.975700	2.992300	-8.903100	28.534856	0.000206	20.748681
2310.611047	-3.032600	2.989700	-9.065500	28.553092	0.000208	20.746658
2311.611691	-3.063400	2.986000	-9.146500	28.578887	0.000208	20.745135
2312.613909	-2.989400	2.987200	-8.929300	28.562904	0.000207	20.748479
2313.612577	-2.984300	2.985400	-8.908300	28.504671	0.000207	20.745309
2314.615907	-2.985400	2.984800	-8.908900	28.445988	0.000208	20.763501
2315.612866	-2.973500	2.984100	-8.872500	28.377636	0.000208	20.710318
2316.612488	-2.997400	2.983100	-8.940400	28.368986	0.000205	20.749500
2317.614361	-2.999000	2.979400	-8.933800	28.393993	0.000207	20.753344
2318.613664	-2.978300	2.979000	-8.871700	28.419098	0.000207	20.755389
2319.613084	-3.005500	2.978100	-8.949700	28.428094	0.000206	20.731731
2320.616012	-2.991900	2.975900	-8.903100	28.446011	0.000208	20.775854
2321.618447	-2.981900	2.975500	-8.871200	28.511582	0.000208	20.746105
2322.615148	-3.018100	2.973400	-8.973200	28.531480	0.000207	20.751919
2323.616914	-2.978600	2.973700	-8.856000	28.582600	0.000208	20.764523
2324.616439	-2.990400	2.971800	-8.885700	28.606659	0.000207	20.745130
2325.616969	-2.990800	2.969000	-8.878100	28.627448	0.000207	20.754689
2326.617784	-3.011600	2.967700	-8.936200	28.606782	0.000206	20.736719
2327.615571	-2.994200	2.967200	-8.884300	28.612606	0.000207	20.760129
2328.615466	-2.997400	2.966200	-8.889700	28.628214	0.000208	20.741709
2329.616838	-3.016600	2.962700	-8.936400	28.613224	0.000206	20.756010
2330.617231	-2.991800	2.961300	-8.858900	28.549095	0.000207	20.747374
2331.614689	-2.994200	2.959400	-8.860800	28.525902	0.000204	20.759104
2332.616559	-3.025100	2.959000	-8.950700	28.503871	0.000206	20.755884
2333.618263	-3.024300	2.957900	-8.945000	28.524365	0.000205	20.761350
2334.619164	-2.995600	2.955600	-8.852000	28.570480	0.000206	20.756583
2335.618000	-3.008900	2.953800	-8.887200	28.642808	0.000206	20.758779
2336.616350	-2.986700	2.953900	-8.822300	28.662530	0.000204	20.773902
2337.622672	-3.012800	2.952300	-8.892400	28.674720	0.000204	20.765792
2338.616796	-2.993100	2.950600	-8.830100	28.630542	0.000205	20.772504
2339.615252	-2.984500	2.948800	-8.800000	28.657177	0.000205	20.765665
2340.619177	-3.000100	2.947800	-8.842200	28.648060	0.000205	20.778768
2341.622121	-2.989300	2.945300	-8.803400	28.697043	0.000207	20.762197
2342.619086	-3.009000	2.941900	-8.851400	28.717235	0.000204	20.777320
2343.621314	-2.984200	2.941300	-8.775800	28.727072	0.000205	20.754512
2344.623201	-3.017600	2.938300	-8.865800	28.752219	0.000205	20.774626
2345.623153	-2.982300	2.939100	-8.763900	28.797481	0.000207	20.759527
2346.619339	-2.984800	2.937200	-8.765600	28.841108	0.000206	20.771707
2347.623668	-2.965900	2.935800	-8.705800	28.859440	0.000206	20.776897
2348.621628	-3.012300	2.933000	-8.834500	28.834641	0.000206	20.753812
2349.620647	-3.008800	2.931700	-8.819400	28.809399	0.000205	20.762049
2350.622778	-2.960500	2.932800	-8.681200	28.772734	0.000207	20.762099
2351.623689	-3.000400	2.928900	-8.786100	28.747835	0.000205	20.773055
2352.622814	-2.972900	2.929000	-8.706300	28.748826	0.000205	20.756509
2353.625970	-3.004500	2.924500	-8.785000	28.786559	0.000202	20.773656
2354.627900	-2.995700	2.924400	-8.759200	28.766789	0.000206	20.790251
2355.622530	-3.001300	2.923600	-8.773600	28.730048	0.000205	20.768889
2356.626994	-2.989500	2.920900	-8.730400	28.689763	0.000205	20.761977
2357.628883	-3.031000	2.918900	-8.846500	28.608096	0.000202	20.772657
2358.624774	-3.001500	2.918200	-8.757700	28.577173	0.000205	20.782291
2359.626327	-2.988600	2.915800	-8.713700	28.542359	0.000205	20.784688
2360.626525	-2.992800	2.915100	-8.723100	28.538245	0.000204	20.773432
2361.624452	-3.008000	2.913600	-8.762900	28.506031	0.000205	20.795044
2362.625189	-3.021800	2.909900	-8.792500	28.459071	0.000204	20.761978
2363.624700	-2.985200	2.910900	-8.688300	28.446234	0.000203	20.768965
2364.623221	-2.990000	2.908100	-8.694300	28.403881	0.000204	20.793646
2365.626915	-3.000800	2.907100	-8.722200	28.388912	0.000202	20.791850
2366.623163	-2.999600	2.902800	-8.706600	28.423014	0.000203	20.769765
2367.624302	-3.003900	2.902200	-8.716000	28.439444	0.000201	20.780146
2368.625224	-2.999000	2.899700	-8.695600	28.489999	0.000204	20.767993
2369.624954	-3.015700	2.898300	-8.739400	28.548876	0.000206	20.810691
2370.622543	-3.022400	2.896200	-8.752600	28.608223	0.000203	20.788906
2371.626962	-2.976500	2.896300	-8.619300	28.668779	0.000204	20.803430
2372.629899	-2.963800	2.894400	-8.577400	28.700443	0.000206	20.786959
2373.625696	-2.995600	2.892400	-8.662900	28.753486	0.000204	20.799136
2374.627254	-2.985500	2.889200	-8.624600	28.799047	0.000203	20.767269
2375.629030	-2.989600	2.887200	-8.630500	28.835118	0.000204	20.789380
2376.625964	-3.036300	2.885800	-8.760000	28.806255	0.000203	20.794919
2377.630609	-3.000000	2.884600	-8.653000	28.738722	0.000203	20.799912
2378.629644	-2.983600	2.883500	-8.601300	28.717441	0.000203	20.793175
2379.625833	-2.983900	2.879800	-8.592000	28.674578	0.000202	20.800262
2380.632794	-3.000200	2.877600	-8.632000	28.647892	0.000205	20.802782
2381.629890	-2.997200	2.877400	-8.622900	28.691103	0.000204	20.795569
2382.629126	-3.008600	2.875000	-8.648500	28.735229	0.000203	20.798764
2383.637993	-3.001200	2.873800	-8.622900	28.783664	0.000202	20.783541
2384.630835	-3.014700	2.869800	-8.650900	28.830684	0.000203	20.801509
2385.636042	-3.003500	2.868400	-8.614300	28.873615	0.000203	20.803980
2386.635215	-2.997100	2.865300	-8.586800	28.891228	0.000204	20.798016
2387.634232	-3.008700	2.864200	-8.615500	28.905572	0.000204	20.811043
2388.631718	-3.002200	2.863000	-8.594400	28.931607	0.000204	20.806453
2389.635625	-3.026300	2.859300	-8.651800	28.938221	0.000205	20.811220
2390.632341	-2.989800	2.859200	-8.547600	28.983079	0.000202	20.792403
2391.633471	-2.980300	2.857300	-8.514200	29.021869	0.000202	20.799716
2392.637919	-2.998600	2.854500	-8.558400	29.035269	0.000202	20.816062
2393.633919	-3.004000	2.851700	-8.565700	29.031307	0.000203	20.799268
2394.637090	-3.023000	2.849300	-8.612300	29.026427	0.000202	20.788188
2395.636789	-3.019900	2.847800	-8.598500	29.048843	0.000202	20.816463
2396.639684	-3.024900	2.845700	-8.606400	29.089140	0.000204	20.823401
2397.635524	-3.019500	2.842600	-8.582700	29.076138	0.000201	20.820257
2398.638506	-3.008600	2.841700	-8.548600	29.081166	0.000202	20.818686
2399.636799	-3.002700	2.839900	-8.525900	29.126516	0.000201	20.818388
2400.635262	-2.996800	2.836600	-8.499700	29.116087	0.000203	20.821629
2401.637470	-2.991000	2.835100	-8.478000	29.157547	0.000202	20.838751
2402.640306	-2.964300	2.833900	-8.399200	29.180158	0.000204	20.815543
2403.638054	-2.973200	2.832300	-8.420100	29.150886	0.000203	20.817815
2404.642253	-2.991200	2.828100	-8.458300	29.141030	0.000204	20.824004
2405.644421	-3.008800	2.826300	-8.502100	29.120572	0.000203	20.829942
2406.637904	-2.993800	2.825300	-8.456700	29.086940	0.000202	20.843468
2407.639516	-3.004300	2.821200	-8.474600	29.106804	0.000202	20.822707
2408.640362	-2.996800	2.820200	-8.450700	29.134617	0.000201	20.832240
2409.638564	-2.987500	2.819200	-8.421300	29.181820	0.000204	20.819114
2410.637105	-3.002500	2.815300	-8.451300	29.176643	0.000201	20.833338
2411.645113	-3.011000	2.812600	-8.467800	29.197099	0.000200	20.804640
2412.636847	-3.012600	2.810400	-8.465900	29.214656	0.000202	20.833712
2413.639937	-2.975500	2.807700	-8.353100	29.255096	0.000203	20.830369
2414.638865	-2.969100	2.807400	-8.334000	29.265298	0.000202	20.821210
2415.640904	-3.027400	2.802400	-8.483200	29.310267	0.000202	20.821959
2416.642568	-2.992100	2.800200	-8.375800	29.310194	0.000202	20.819989
2417.644038	-3.006500	2.798100	-8.410900	29.288254	0.000203	20.823008
2418.647470	-3.008400	2.794900	-8.407000	29.292142	0.000201	20.823133
2419.639034	-2.975100	2.793200	-8.309100	29.269287	0.000204	20.835661
2420.640377	-3.018300	2.790200	-8.420300	29.222955	0.000202	20.823109
2421.640547	-2.998600	2.787800	-8.358100	29.141355	0.000204	20.843297
2422.640193	-2.984300	2.785700	-8.312800	29.094325	0.000202	20.842849
2423.643541	-2.973400	2.782300	-8.271000	29.085903	0.000203	20.846691
2424.641778	-3.015000	2.778500	-8.376200	29.098189	0.000199	20.829673
2425.644430	-3.002400	2.777200	-8.337800	29.073744	0.000201	20.846293
2426.648014	-3.021700	2.774200	-8.381200	29.081248	0.000201	20.851009
2427.639814	-3.012100	2.770800	-8.345100	29.076592	0.000202	20.847266
2428.642865	-2.988000	2.769200	-8.272900	29.043180	0.000200	20.824033
2429.645994	-2.997800	2.767000	-8.294100	29.027180	0.000202	20.844895
2430.639855	-2.983900	2.762800	-8.242400	29.051924	0.000201	20.845171
2431.647842	-3.001000	2.759900	-8.280900	29.045756	0.000202	20.848438
2432.644391	-3.000400	2.758200	-8.274600	29.018215	0.000202	20.844872
2433.641592	-2.994500	2.754300	-8.247100	28.984381	0.000201	20.846818
2434.644475	-3.021100	2.750500	-8.308000	28.969147	0.000203	20.849962
2435.645580	-3.010500	2.747800	-8.271700	28.924039	0.000203	20.846243
2436.645096	-3.035300	2.744500	-8.329100	28.947077	0.000203	20.861391
2437.645718	-3.011000	2.741500	-8.253600	28.979724	0.000202	20.835015
2438.646649	-3.003300	2.740600	-8.230000	29.017844	0.000201	20.851610
2439.645400	-2.978600	2.737400	-8.151400	29.051800	0.000202	20.821339
2440.650777	-2.998400	2.732600	-8.192800	29.048161	0.000200	20.859870
2441.647412	-3.016200	2.728700	-8.229400	29.101633	0.000201	20.849738
2442.645262	-3.024400	2.725500	-8.241800	29.071343	0.000203	20.847194
2443.650902	-3.000000	2.722700	-8.166800	29.119787	0.000201	20.872771
2444.651570	-3.012300	2.720100	-8.192500	29.218203	0.000202	20.855303
2445.648112	-2.991000	2.717400	-8.127500	29.252428	0.000202	20.842852
2446.651353	-2.981800	2.713800	-8.090900	29.323495	0.000201	20.847618
2447.650869	-3.015500	2.709800	-8.170000	29.363781	0.000201	20.849813
2448.649005	-3.014500	2.705400	-8.154800	29.320498	0.000201	20.883476
2449.651781	-3.005800	2.701700	-8.118500	29.316166	0.000202	20.867731
2450.653994	-3.016600	2.698100	-8.138400	29.256290	0.000199	20.847219
2451.650164	-2.985600	2.696000	-8.048400	29.237321	0.000200	20.859870
2452.657310	-2.991100	2.692400	-8.052100	29.217956	0.000201	20.869277
2453.657228	-3.007000	2.688000	-8.081700	29.161542	0.000202	20.870750
2454.651209	-2.991600	2.684300	-8.029700	29.197475	0.000202	20.872820
2455.655580	-2.993300	2.681900	-8.027100	29.160725	0.000202	20.867082
2456.658123	-2.986200	2.676500	-7.991700	29.178407	0.000201	20.851710
2457.650970	-3.033500	2.671200	-8.100700	29.185266	0.000202	20.858621
2458.653830	-2.996700	2.668900	-7.996300	29.178357	0.000202	20.877262
2459.652788	-2.983000	2.665200	-7.949400	29.188782	0.000203	20.866906
2460.651113	-3.010500	2.659200	-8.004600	29.216297	0.000201	20.853382
2461.654588	-2.995200	2.656500	-7.955700	29.241679	0.000203	20.878959
2462.654705	-2.979500	2.652800	-7.903400	29.298782	0.000203	20.869177
2463.652171	-2.996000	2.648100	-7.932300	29.283182	0.000201	20.872421
2464.654417	-2.996200	2.644400	-7.922600	29.309900	0.000201	20.867106
2465.654457	-2.985200	2.639100	-7.877000	29.386831	0.000202	20.872096
2466.654171	-3.007700	2.634600	-7.923300	29.409686	0.000201	20.872372
2467.656594	-3.025700	2.629200	-7.954300	29.447244	0.000203	20.873718
2468.656979	-2.997100	2.624900	-7.865900	29.458213	0.000202	20.882403
2469.653510	-3.035200	2.619900	-7.950500	29.464997	0.000203	20.884973
2470.656310	-2.992600	2.616800	-7.830500	29.455117	0.000201	20.872645
2471.654145	-3.000100	2.611400	-7.833500	29.403026	0.000202	20.876090
2472.653318	-2.982500	2.606500	-7.772400	29.414563	0.000200	20.864960
2473.658514	-3.004500	2.601300	-7.814800	29.459401	0.000201	20.875540
2474.656651	-2.985200	2.596000	-7.748200	29.504014	0.000202	20.860767
2475.654794	-3.011500	2.589000	-7.796200	29.570487	0.000204	20.874194
2476.658020	-3.053000	2.584400	-7.889400	29.588606	0.000203	20.879657
2477.656799	-3.014000	2.579700	-7.774300	29.564223	0.000200	20.895379
2478.656505	-3.018300	2.572700	-7.764500	29.519190	0.000203	20.895503
2479.658493	-3.015600	2.568500	-7.743800	29.532832	0.000203	20.905934
2480.656921	-3.008600	2.562200	-7.707700	29.575983	0.000203	20.876415
2481.656215	-3.006000	2.557600	-7.686800	29.641285	0.000202	20.883925
2482.660586	-3.011400	2.551000	-7.680600	29.643093	0.000202	20.889541
2483.659433	-2.992500	2.545700	-7.617300	29.629972	0.000202	20.900494
2484.658593	-2.987500	2.540600	-7.588100	29.610664	0.000203	20.904736
2485.658184	-2.985100	2.534900	-7.565700	29.578334	0.000202	20.894905
2486.659469	-3.000000	2.527700	-7.581300	29.601404	0.000203	20.906307
2487.657817	-3.008200	2.521600	-7.583800	29.578804	0.000203	20.884474
2488.657783	-2.982200	2.514900	-7.498000	29.590563	0.000202	20.899646
2489.656427	-2.986500	2.508800	-7.491600	29.674776	0.000202	20.885920
2490.657641	-3.026200	2.501300	-7.568500	29.713020	0.000201	20.914044
2491.663953	-2.993300	2.497400	-7.474100	29.766358	0.000204	20.888640
