LabVIEW Measurement	
Writer_Version	2
Reader_Version	2
Separator	Tab
Decimal_Separator	.
Multi_Headings	No
X_Columns	One
Time_Pref	Absolute
Operator	admin
Description	Clolumns are: time, Current, Voltage, Power, Battery Temp, and Chamber Temp
Date	2024/08/16
Time	13:06:06.104549407958984375
***End_of_Header***	
	
Channels	6						
Samples	1	1	1	1	1	1	
Date	2024/08/25	2024/08/25	2024/08/25	2024/08/25	2024/08/25	2024/08/25	
Time	12:48:44.9469661712646484375	12:48:44.9518761634826660157	12:48:44.9568758010864257813	12:48:44.9309105873107910156	12:48:44.9309105873107910156	12:48:44.9309105873107910156	
X_Dimension	Time	Time	Time	Time	Time	Time	
X0	0.0000000000000000E+0	0.0000000000000000E+0	0.0000000000000000E+0	0.0000000000000000E+0	0.0000000000000000E+0	0.0000000000000000E+0	
Delta_X	1.000000	1.000000	1.000000	1.000000	1.000000	1.000000	
***End_of_Header***							
X_Value	Untitled	Untitled 1	Untitled 2	Untitled 3	Untitled 4	Untitled 5	Comment
0.000000	0.013271	4.110400	0.054456	21.042851	0.000967	20.780196
1.010424	-2.997600	3.953500	-11.850000	21.040483	0.000968	20.786363
2.011604	-3.006400	3.945400	-11.860000	21.023993	0.000969	20.783145
3.009448	-2.987400	3.938200	-11.764000	21.033499	0.000968	20.767049
4.021327	-3.025200	3.935100	-11.903000	21.024495	0.000967	20.781276
5.023560	-3.011600	3.931200	-11.836000	21.024696	0.000965	20.783374
6.006714	-3.006600	3.929700	-11.814000	21.030960	0.000965	20.776363
7.004366	-3.006200	3.927100	-11.804000	21.019856	0.000963	20.787068
8.006531	-3.015700	3.923300	-11.830000	21.035403	0.000965	20.764212
9.010091	-3.015300	3.921300	-11.823000	21.026424	0.000961	20.791740
10.007263	-3.008400	3.920700	-11.793000	21.034681	0.000961	20.799051
11.005212	-3.008600	3.918200	-11.787000	21.043840	0.000962	20.768857
12.007969	-3.015300	3.916400	-11.807000	21.042393	0.000958	20.779737
13.008184	-2.998200	3.915500	-11.737000	21.038730	0.000959	20.759478
14.007454	-2.994100	3.914600	-11.720000	21.039080	0.000958	20.770260
15.009444	-2.983800	3.912800	-11.673000	21.066048	0.000957	20.756931
16.006754	-2.996000	3.912000	-11.720000	21.065453	0.000958	20.764396
17.008072	-2.979700	3.911100	-11.653000	21.053728	0.000957	20.757884
18.012240	-2.991400	3.910100	-11.696000	21.056947	0.000955	20.781493
19.011171	-3.002900	3.909100	-11.738000	21.062686	0.000954	20.747403
20.009421	-3.010600	3.905300	-11.755000	21.075413	0.000955	20.755392
21.013519	-3.001700	3.906300	-11.725000	21.079605	0.000953	20.770965
22.016693	-3.005700	3.906800	-11.741000	21.076341	0.000954	20.756321
23.013866	-3.001200	3.905700	-11.721000	21.093980	0.000956	20.757368
24.021356	-2.986700	3.905600	-11.664000	21.084477	0.000955	20.764933
25.015770	-3.007100	3.903100	-11.736000	21.077438	0.000950	20.770220
26.012278	-3.002900	3.903400	-11.720000	21.110425	0.000950	20.788517
27.013692	-2.992200	3.902900	-11.677000	21.106533	0.000949	20.752855
28.017641	-2.999600	3.901600	-11.702000	21.095184	0.000951	20.746244
29.012191	-2.987300	3.902000	-11.655000	21.118933	0.000949	20.765258
30.023128	-2.983200	3.899600	-11.633000	21.117789	0.000949	20.770752
31.023003	-3.022900	3.898800	-11.785000	21.125175	0.000951	20.761070
32.010529	-2.990400	3.899700	-11.661000	21.121906	0.000950	20.755430
33.017602	-2.985100	3.898200	-11.636000	21.147156	0.000947	20.747022
34.017084	-2.988700	3.897800	-11.648000	21.165143	0.000947	20.756006
35.015672	-2.999200	3.898000	-11.689000	21.159306	0.000947	20.743055
36.015010	-3.014800	3.895900	-11.744000	21.153519	0.000947	20.768086
37.014817	-3.004000	3.895200	-11.701000	21.177720	0.000945	20.756734
38.017078	-3.008800	3.895900	-11.721000	21.159008	0.000947	20.757456
39.023949	-3.008900	3.895800	-11.720000	21.167270	0.000944	20.724468
40.015897	-3.003100	3.894100	-11.693000	21.180242	0.000945	20.752144
41.016229	-3.000500	3.894300	-11.684000	21.167819	0.000945	20.757260
42.019321	-3.020600	3.892600	-11.756000	21.196735	0.000943	20.756315
43.016979	-2.989400	3.894300	-11.640000	21.196710	0.000941	20.750600
44.017980	-3.005800	3.892700	-11.700000	21.193993	0.000942	20.742666
45.016568	-3.000000	3.891900	-11.674000	21.180796	0.000942	20.742266
46.025367	-2.988900	3.891100	-11.629000	21.194145	0.000940	20.760836
47.022584	-2.981600	3.891200	-11.601000	21.209836	0.000943	20.731487
48.020378	-3.000800	3.890000	-11.673000	21.229495	0.000942	20.748783
49.019387	-2.998300	3.889200	-11.661000	21.229322	0.000941	20.728694
50.019362	-3.001600	3.890200	-11.675000	21.208094	0.000939	20.754401
51.023787	-3.009400	3.889700	-11.705000	21.221840	0.000938	20.733063
52.025318	-2.998100	3.890000	-11.662000	21.251204	0.000938	20.749638
53.025095	-2.985500	3.888100	-11.607000	21.246316	0.000937	20.748540
54.022246	-3.004400	3.888800	-11.682000	21.257244	0.000938	20.762319
55.022500	-2.981300	3.889600	-11.595000	21.266674	0.000938	20.751363
56.020356	-2.987800	3.888000	-11.616000	21.261190	0.000938	20.737816
57.024607	-2.979800	3.887900	-11.584000	21.268972	0.000936	20.748447
58.023600	-2.994100	3.887500	-11.637000	21.291325	0.000937	20.731453
59.021571	-3.001000	3.887600	-11.666000	21.278556	0.000936	20.743810
60.026886	-2.980100	3.888900	-11.588000	21.302901	0.000937	20.747777
61.030744	-3.024200	3.885900	-11.752000	21.291455	0.000937	20.744860
62.026856	-3.002700	3.886700	-11.670000	21.294450	0.000937	20.730312
63.025826	-3.008800	3.886200	-11.692000	21.321663	0.000933	20.730036
64.026152	-3.009800	3.885300	-11.693000	21.317803	0.000938	20.727122
65.024096	-2.984300	3.885400	-11.594000	21.312986	0.000934	20.729416
66.027676	-2.992900	3.885700	-11.628000	21.300914	0.000936	20.745315
67.026319	-3.010200	3.883900	-11.691000	21.317081	0.000936	20.713597
68.027700	-2.987600	3.884000	-11.602000	21.316712	0.000934	20.744524
69.029603	-3.026100	3.885100	-11.755000	21.324667	0.000936	20.730196
70.026668	-2.987300	3.883700	-11.601000	21.336490	0.000935	20.714523
71.026058	-3.001800	3.883100	-11.654000	21.331277	0.000935	20.707410
72.029825	-3.023200	3.883900	-11.741000	21.364929	0.000936	20.732545
73.029025	-3.008800	3.882000	-11.679000	21.342458	0.000935	20.729030
74.023879	-3.016200	3.882700	-11.710000	21.362587	0.000934	20.712657
75.034970	-3.009600	3.880600	-11.676000	21.380750	0.000934	20.727985
76.033524	-2.985300	3.881500	-11.587000	21.387484	0.000935	20.716704
77.030516	-2.998300	3.881900	-11.636000	21.394942	0.000935	20.714683
78.029145	-2.990900	3.881300	-11.608000	21.385315	0.000934	20.722596
79.036350	-2.974000	3.882300	-11.545000	21.414023	0.000933	20.709591
80.031571	-2.985700	3.881200	-11.587000	21.416546	0.000934	20.723023
81.035050	-3.009100	3.880800	-11.676000	21.426848	0.000933	20.719580
82.035067	-3.012700	3.880500	-11.689000	21.437051	0.000934	20.726469
83.033242	-3.026200	3.878900	-11.738000	21.414728	0.000935	20.734006
84.029957	-2.994800	3.879900	-11.618000	21.419842	0.000933	20.722052
85.031190	-2.994100	3.880300	-11.617000	21.429592	0.000933	20.712842
86.032576	-3.024200	3.879000	-11.729000	21.436480	0.000933	20.730166
87.034954	-3.020100	3.878600	-11.712000	21.421668	0.000935	20.725777
88.036195	-3.009900	3.880300	-11.678000	21.433962	0.000933	20.708205
89.031910	-2.992100	3.878900	-11.605000	21.449477	0.000930	20.703339
90.036109	-3.017200	3.878100	-11.700000	21.446385	0.000933	20.721110
91.035522	-3.026000	3.877500	-11.731000	21.467437	0.000931	20.701869
92.032871	-2.999500	3.877800	-11.630000	21.476615	0.000935	20.701095
93.033818	-2.985400	3.879000	-11.579000	21.472306	0.000932	20.701525
94.035259	-2.998800	3.878100	-11.629000	21.484174	0.000933	20.713876
95.035640	-2.988000	3.878200	-11.587000	21.503978	0.000935	20.694335
96.037717	-2.993800	3.878100	-11.609000	21.498716	0.000934	20.704717
97.038980	-3.004600	3.877500	-11.648000	21.521560	0.000934	20.716197
98.040759	-3.009600	3.876100	-11.664000	21.490558	0.000936	20.703667
99.038603	-2.994100	3.877200	-11.608000	21.540713	0.000935	20.714025
100.041358	-3.010600	3.876300	-11.669000	21.510810	0.000934	20.708285
101.038248	-2.980000	3.876600	-11.549000	21.525552	0.000933	20.700276
102.040164	-3.010000	3.875100	-11.663000	21.543853	0.000934	20.682077
103.036897	-3.009000	3.875200	-11.659000	21.545749	0.000935	20.702468
104.036969	-2.996100	3.874000	-11.606000	21.537418	0.000934	20.732066
105.040508	-3.001400	3.874900	-11.629000	21.559562	0.000935	20.712023
106.043617	-3.014200	3.872900	-11.673000	21.569664	0.000935	20.700794
107.036879	-3.021400	3.873700	-11.702000	21.582702	0.000934	20.698194
108.044031	-3.010200	3.875300	-11.665000	21.563427	0.000934	20.690285
109.037336	-3.011800	3.873600	-11.666000	21.572226	0.000937	20.696245
110.036952	-3.025400	3.873200	-11.717000	21.582477	0.000934	20.711245
111.047688	-3.009800	3.874800	-11.662000	21.591876	0.000934	20.693623
112.040000	-3.013700	3.874200	-11.675000	21.594419	0.000935	20.702332
113.043379	-3.025600	3.873100	-11.717000	21.588708	0.000933	20.710843
114.046913	-2.983700	3.874500	-11.559000	21.616115	0.000934	20.733055
115.045275	-3.024700	3.872500	-11.712000	21.597760	0.000933	20.719428
116.044170	-3.021000	3.873300	-11.700000	21.621749	0.000933	20.717829
117.044111	-2.995300	3.874000	-11.602000	21.618482	0.000935	20.709343
118.043227	-3.011400	3.873200	-11.662000	21.609380	0.000935	20.709244
119.045781	-3.005900	3.872600	-11.640000	21.622917	0.000933	20.715204
120.049308	-2.992700	3.872100	-11.588000	21.636065	0.000935	20.705602
121.043972	-2.997500	3.872800	-11.607000	21.643194	0.000934	20.721272
122.047251	-2.997600	3.871400	-11.603000	21.628933	0.000935	20.728338
123.048900	-2.988300	3.871900	-11.569000	21.648084	0.000935	20.698663
124.049555	-3.009300	3.870400	-11.647000	21.652673	0.000934	20.716533
125.044911	-3.004000	3.871700	-11.630000	21.647808	0.000934	20.703129
126.043974	-2.986000	3.872500	-11.561000	21.670504	0.000937	20.715411
127.041840	-3.011500	3.869400	-11.652000	21.656739	0.000934	20.721077
128.045447	-3.003700	3.870000	-11.624000	21.671179	0.000936	20.731260
129.046850	-2.996000	3.870100	-11.593000	21.693670	0.000936	20.712516
130.048090	-2.994200	3.869800	-11.586000	21.698559	0.000936	20.712194
131.050300	-3.016200	3.869400	-11.670000	21.708930	0.000934	20.728264
132.046729	-2.987300	3.870600	-11.561000	21.746959	0.000935	20.726968
133.049522	-3.014100	3.869200	-11.660000	21.724865	0.000935	20.709123
134.044129	-3.008000	3.869900	-11.639000	21.765110	0.000937	20.718582
135.046631	-3.028300	3.868300	-11.713000	21.746760	0.000936	20.724399
136.053426	-3.017600	3.868600	-11.672000	21.749529	0.000937	20.719582
137.043606	-2.997400	3.868300	-11.593000	21.754591	0.000939	20.715166
138.044210	-2.992900	3.869000	-11.579000	21.754715	0.000939	20.699642
139.047874	-2.981700	3.869400	-11.537000	21.780623	0.000939	20.717986
140.048075	-2.978800	3.869200	-11.524000	21.775087	0.000939	20.712919
141.044591	-2.982700	3.869000	-11.539000	21.792216	0.000939	20.701139
142.052747	-2.976500	3.869100	-11.515000	21.779626	0.000939	20.728843
143.044160	-2.989300	3.868100	-11.562000	21.777004	0.000940	20.713889
144.046650	-2.981300	3.868000	-11.530000	21.760599	0.000940	20.730662
145.045680	-2.995400	3.867500	-11.582000	21.797471	0.000942	20.712089
146.047257	-2.981100	3.868800	-11.533000	21.797146	0.000940	20.710815
147.048482	-3.038100	3.864900	-11.740000	21.806943	0.000943	20.719673
148.049925	-2.984000	3.866900	-11.537000	21.817963	0.000943	20.727384
149.048829	-3.005200	3.867800	-11.622000	21.804544	0.000943	20.721540
150.044537	-3.007600	3.867200	-11.631000	21.825311	0.000943	20.725256
151.052820	-3.019300	3.865900	-11.670000	21.854702	0.000943	20.724327
152.044212	-3.009600	3.865200	-11.631000	21.830065	0.000944	20.730014
153.045382	-2.984300	3.866900	-11.539000	21.854547	0.000943	20.716585
154.046382	-3.005500	3.865500	-11.617000	21.838686	0.000943	20.706873
155.044331	-3.015000	3.866100	-11.655000	21.842696	0.000944	20.721319
156.045863	-3.030300	3.862200	-11.702000	21.855057	0.000942	20.727528
157.050547	-3.003000	3.864500	-11.604000	21.852862	0.000942	20.729124
158.049641	-2.998500	3.864500	-11.587000	21.861560	0.000945	20.725976
159.045058	-2.991500	3.864400	-11.560000	21.878385	0.000943	20.738076
160.057441	-2.982000	3.865100	-11.525000	21.870131	0.000942	20.725546
161.058666	-3.016200	3.862300	-11.648000	21.888580	0.000944	20.743065
162.047950	-3.013800	3.863400	-11.643000	21.908674	0.000943	20.740893
163.051831	-2.989300	3.863000	-11.547000	21.900170	0.000945	20.733328
164.052757	-2.990900	3.863400	-11.554000	21.896898	0.000945	20.725311
165.048736	-2.965200	3.864400	-11.457000	21.907818	0.000946	20.724862
166.051917	-3.000600	3.863300	-11.591000	21.928958	0.000945	20.740334
167.053224	-3.004200	3.863800	-11.607000	21.907614	0.000945	20.726555
168.054521	-2.995300	3.864200	-11.573000	21.962135	0.000946	20.725179
169.051632	-3.002200	3.863800	-11.599000	21.938602	0.000943	20.733866
170.053440	-2.999600	3.863400	-11.586000	21.943736	0.000945	20.736634
171.061917	-2.985400	3.863000	-11.531000	21.920374	0.000944	20.743595
172.059904	-2.997700	3.862000	-11.575000	21.922167	0.000945	20.754399
173.052858	-3.018700	3.862300	-11.658000	21.939096	0.000946	20.737205
174.064275	-3.007200	3.861100	-11.610000	21.949167	0.000948	20.757718
175.058990	-3.010800	3.861200	-11.623000	21.948916	0.000947	20.755571
176.055037	-2.992600	3.862600	-11.556000	21.963975	0.000946	20.754523
177.063726	-3.001400	3.860400	-11.585000	21.963873	0.000946	20.741619
178.055214	-3.010200	3.861100	-11.621000	21.996853	0.000949	20.749503
179.058744	-2.990500	3.859900	-11.541000	21.985587	0.000946	20.749131
180.058491	-3.002100	3.860400	-11.588000	22.001915	0.000948	20.752199
181.075341	-3.005100	3.860600	-11.599000	22.009694	0.000947	20.755246
182.061362	-2.994400	3.859600	-11.555000	22.033922	0.000948	20.752472
183.065216	-3.002800	3.860500	-11.592000	22.014627	0.000949	20.740742
184.058250	-3.018300	3.859100	-11.647000	22.006079	0.000949	20.753049
185.062210	-2.978600	3.860500	-11.497000	22.031331	0.000952	20.731860
186.060784	-3.004100	3.860100	-11.595000	22.000290	0.000953	20.745357
187.074301	-3.008500	3.859300	-11.610000	22.014401	0.000951	20.759009
188.062322	-2.992600	3.859600	-11.549000	22.024221	0.000953	20.767891
189.060765	-3.012700	3.858900	-11.625000	22.035288	0.000953	20.751469
190.064609	-3.007000	3.859500	-11.604000	22.042817	0.000951	20.752842
191.065968	-2.986400	3.859700	-11.526000	22.034291	0.000953	20.740988
192.069430	-3.001800	3.858000	-11.580000	22.036954	0.000952	20.759776
193.065221	-2.997900	3.856900	-11.561000	22.051563	0.000952	20.749744
194.062953	-3.008500	3.856500	-11.602000	22.053683	0.000952	20.746176
195.061275	-2.998200	3.858300	-11.568000	22.062280	0.000955	20.763318
196.071008	-2.972700	3.858800	-11.469000	22.074344	0.000952	20.753110
197.068466	-2.982000	3.858100	-11.503000	22.091945	0.000954	20.756980
198.072163	-2.993900	3.857100	-11.547000	22.101415	0.000954	20.756029
199.074216	-2.987600	3.855800	-11.517000	22.106473	0.000953	20.774844
200.074373	-2.993500	3.856400	-11.543000	22.111510	0.000956	20.749066
201.071065	-2.998300	3.857000	-11.563000	22.111958	0.000956	20.758524
202.073368	-2.995700	3.856400	-11.551000	22.135116	0.000955	20.760371
203.071982	-2.999400	3.855500	-11.563000	22.102211	0.000957	20.765835
204.066392	-3.010400	3.855500	-11.605000	22.136660	0.000956	20.779936
205.072571	-2.997100	3.855600	-11.555000	22.112159	0.000955	20.743078
206.071695	-3.022000	3.854300	-11.647000	22.108018	0.000956	20.758847
207.075850	-2.971900	3.856300	-11.459000	22.143740	0.000959	20.750039
208.071383	-2.998700	3.855300	-11.559000	22.157573	0.000959	20.767208
209.071854	-3.005800	3.855400	-11.588000	22.185165	0.000958	20.761642
210.075898	-2.985100	3.854400	-11.505000	22.189152	0.000959	20.768479
211.074351	-2.998700	3.855800	-11.562000	22.195534	0.000962	20.748790
212.075315	-3.023800	3.853800	-11.652000	22.190771	0.000962	20.756823
213.066494	-2.992100	3.854300	-11.531000	22.199865	0.000962	20.765455
214.076587	-2.980800	3.854400	-11.488000	22.232941	0.000962	20.774390
215.066584	-3.010600	3.853600	-11.600000	22.244777	0.000964	20.770120
216.069155	-2.998300	3.854800	-11.558000	22.240116	0.000962	20.767349
217.075034	-3.003300	3.853200	-11.571000	22.244075	0.000964	20.766098
218.072472	-2.988500	3.853400	-11.513000	22.256963	0.000965	20.758139
219.071761	-2.983500	3.854000	-11.497000	22.262866	0.000961	20.764524
220.072034	-2.993400	3.852800	-11.532000	22.277918	0.000963	20.770586
221.071040	-2.991800	3.852000	-11.524000	22.279911	0.000964	20.774479
222.072630	-2.999000	3.851800	-11.551000	22.265504	0.000965	20.771432
223.076520	-2.980400	3.853300	-11.484000	22.284842	0.000965	20.763769
224.071608	-2.997900	3.853200	-11.551000	22.291097	0.000965	20.774300
225.076099	-3.012000	3.851100	-11.598000	22.317813	0.000964	20.786352
226.076327	-3.004700	3.852300	-11.574000	22.294580	0.000965	20.774942
227.072611	-2.993100	3.851700	-11.528000	22.300863	0.000967	20.794510
228.075141	-2.999200	3.850900	-11.547000	22.320077	0.000965	20.790989
229.073121	-2.990600	3.850900	-11.516000	22.303129	0.000966	20.789192
230.079808	-2.995500	3.850700	-11.534000	22.306443	0.000966	20.774493
231.087355	-3.019400	3.849300	-11.622000	22.331565	0.000967	20.797277
232.076792	-3.002800	3.850100	-11.561000	22.332834	0.000968	20.789539
233.075704	-3.013000	3.849900	-11.599000	22.304125	0.000969	20.784974
234.079707	-2.998100	3.849800	-11.541000	22.341110	0.000970	20.792136
235.078377	-2.983100	3.850600	-11.485000	22.332014	0.000969	20.781605
236.072937	-2.974100	3.850900	-11.451000	22.331863	0.000970	20.770548
237.072894	-2.996000	3.850800	-11.536000	22.347890	0.000969	20.762415
238.077018	-2.983600	3.850200	-11.486000	22.341635	0.000971	20.786498
239.079302	-3.005700	3.847600	-11.564000	22.342778	0.000972	20.791436
240.076823	-2.992000	3.848900	-11.515000	22.358231	0.000975	20.777038
241.073285	-2.997400	3.846900	-11.529000	22.364884	0.000975	20.781330
242.086755	-3.006000	3.848000	-11.566000	22.361193	0.000975	20.790436
243.078275	-3.018600	3.848200	-11.615000	22.375770	0.000976	20.787015
244.082626	-3.002000	3.847700	-11.549000	22.390148	0.000977	20.800939
245.083179	-2.994500	3.848300	-11.523000	22.393411	0.000976	20.800887
246.075812	-3.001800	3.849100	-11.553000	22.373648	0.000978	20.787734
247.084891	-3.022200	3.846700	-11.624000	22.371501	0.000977	20.794593
248.084076	-2.980200	3.847700	-11.465000	22.392883	0.000977	20.812211
249.077792	-3.020000	3.846000	-11.614000	22.414886	0.000978	20.790624
250.080382	-3.026100	3.846300	-11.639000	22.407382	0.000979	20.809188
251.080609	-3.010100	3.845800	-11.576000	22.407603	0.000978	20.809408
252.079732	-2.976900	3.847500	-11.453000	22.430203	0.000980	20.800747
253.077598	-2.987700	3.845900	-11.489000	22.422702	0.000977	20.784700
254.083884	-2.981500	3.846400	-11.467000	22.418537	0.000980	20.804712
255.085847	-3.012400	3.846100	-11.584000	22.437824	0.000979	20.821180
256.082896	-3.002600	3.846100	-11.548000	22.425263	0.000978	20.792480
257.084351	-3.000700	3.845700	-11.539000	22.449008	0.000980	20.808199
258.080577	-3.011800	3.845600	-11.581000	22.448931	0.000981	20.797691
259.088181	-3.003100	3.844800	-11.545000	22.455285	0.000982	20.787458
260.086498	-3.007200	3.844500	-11.560000	22.459645	0.000984	20.790877
261.083844	-2.985300	3.847000	-11.484000	22.468738	0.000982	20.810414
262.082733	-3.007900	3.843900	-11.560000	22.489419	0.000983	20.814529
263.087277	-2.987100	3.844600	-11.483000	22.486677	0.000982	20.819370
264.085342	-2.989600	3.843800	-11.491000	22.503793	0.000986	20.797157
265.089540	-2.969300	3.844100	-11.413000	22.482587	0.000986	20.820016
266.094215	-3.006800	3.844300	-11.558000	22.493300	0.000984	20.813201
267.087658	-3.009700	3.843600	-11.568000	22.493323	0.000986	20.803267
268.087144	-3.000600	3.842900	-11.529000	22.491154	0.000988	20.819112
269.094567	-3.011900	3.841700	-11.570000	22.473462	0.000987	20.826050
270.085942	-2.988300	3.842300	-11.481000	22.479860	0.000987	20.803535
271.091112	-2.984900	3.844600	-11.474000	22.475800	0.000988	20.837874
272.091606	-2.999800	3.841900	-11.523000	22.489029	0.000985	20.823623
273.088399	-3.003100	3.841300	-11.535000	22.525705	0.000990	20.826688
274.093909	-3.006900	3.842200	-11.552000	22.511926	0.000989	20.808621
275.091653	-2.999600	3.841200	-11.521000	22.530564	0.000990	20.839614
276.087590	-3.012300	3.840600	-11.569000	22.539356	0.000990	20.825661
277.088974	-2.990200	3.842600	-11.489000	22.539879	0.000992	20.821917
278.091912	-3.018600	3.839700	-11.589000	22.539579	0.000989	20.817824
279.088006	-2.997000	3.840200	-11.507000	22.534145	0.000990	20.810960
280.087572	-3.015800	3.839300	-11.577000	22.531801	0.000991	20.829948
281.090817	-3.006900	3.839800	-11.544000	22.520014	0.000990	20.832368
282.089050	-2.986800	3.839700	-11.467000	22.544383	0.000993	20.825480
283.090773	-2.997500	3.840600	-11.511000	22.544903	0.000992	20.835010
284.095219	-2.996900	3.839500	-11.503000	22.551256	0.000991	20.841372
285.090686	-3.014600	3.838300	-11.568000	22.560848	0.000993	20.830591
286.092982	-2.989200	3.839600	-11.476000	22.574377	0.000994	20.828967
287.094900	-2.982200	3.840500	-11.452000	22.605969	0.000992	20.840220
288.091021	-2.982000	3.841100	-11.453000	22.608534	0.000994	20.838048
289.115721	-2.995200	3.838900	-11.496000	22.624281	0.000993	20.840543
290.110326	-3.012800	3.837800	-11.561000	22.637260	0.000995	20.857810
291.092141	-3.015600	3.838300	-11.573000	22.648974	0.000994	20.845361
292.093692	-2.999800	3.838800	-11.515000	22.638158	0.000995	20.845433
293.096981	-2.997100	3.838200	-11.502000	22.644064	0.000999	20.839969
294.096002	-3.004900	3.837700	-11.529000	22.645432	0.000998	20.851297
295.092316	-2.990900	3.837100	-11.476000	22.641221	0.000998	20.828588
296.099388	-2.993200	3.837200	-11.485000	22.664068	0.001000	20.845307
297.092385	-3.002200	3.836500	-11.516000	22.635114	0.001002	20.856609
298.093687	-3.018300	3.836700	-11.579000	22.654947	0.001001	20.836646
299.098201	-3.012100	3.836900	-11.555000	22.695484	0.001003	20.844532
300.096568	-3.010900	3.835400	-11.546000	22.686264	0.001002	20.838143
301.095216	-2.986600	3.836600	-11.458000	22.672960	0.001003	20.873653
302.097510	-3.008500	3.835600	-11.538000	22.652476	0.001002	20.844128
303.097317	-3.015000	3.835800	-11.565000	22.678014	0.001002	20.846474
304.095056	-2.998500	3.835900	-11.500000	22.712069	0.001005	20.861618
305.098691	-3.023800	3.834400	-11.593000	22.690317	0.001007	20.837934
306.094949	-3.004600	3.836000	-11.523000	22.723925	0.001004	20.849788
307.094522	-2.989100	3.835700	-11.463000	22.711291	0.001006	20.868425
308.105011	-3.002700	3.835500	-11.516000	22.747236	0.001006	20.859861
309.095252	-3.011400	3.834500	-11.545000	22.748882	0.001006	20.851079
310.095334	-3.018600	3.832400	-11.567000	22.747960	0.001008	20.872439
311.099765	-3.014500	3.834600	-11.558000	22.747283	0.001007	20.878399
312.099762	-3.004200	3.832500	-11.512000	22.749075	0.001009	20.860281
313.098786	-3.010600	3.833900	-11.541000	22.767459	0.001010	20.878221
314.101509	-2.993600	3.834200	-11.476000	22.779513	0.001012	20.859951
315.100334	-3.009900	3.832200	-11.533000	22.787582	0.001009	20.866137
316.098302	-3.019100	3.832800	-11.570000	22.790296	0.001010	20.861270
317.101753	-3.008200	3.832900	-11.528000	22.781050	0.001010	20.862913
318.098571	-2.996300	3.832700	-11.483000	22.791634	0.001011	20.869722
319.103748	-3.003200	3.832700	-11.508000	22.806530	0.001011	20.861886
320.103813	-3.004100	3.832500	-11.512000	22.808994	0.001013	20.870517
321.101957	-3.007600	3.831500	-11.523000	22.795637	0.001011	20.874680
322.103968	-3.006800	3.832700	-11.522000	22.824135	0.001013	20.868142
323.101535	-3.006700	3.830600	-11.517000	22.831656	0.001012	20.867615
324.103573	-2.994300	3.832200	-11.474000	22.812697	0.001013	20.860002
325.101011	-3.018700	3.831500	-11.565000	22.831652	0.001013	20.871404
326.107502	-3.015600	3.830700	-11.551000	22.830232	0.001012	20.876145
327.103692	-2.971000	3.832300	-11.385000	22.826116	0.001013	20.886246
328.107681	-2.993500	3.830100	-11.464000	22.821532	0.001014	20.879283
329.109042	-3.003300	3.829800	-11.501000	22.834361	0.001013	20.876488
330.103719	-2.977800	3.831500	-11.408000	22.847735	0.001013	20.862386
331.105834	-3.014600	3.828800	-11.540000	22.885646	0.001014	20.898467
332.108845	-2.991000	3.830700	-11.456000	22.878521	0.001013	20.885167
333.108684	-2.988300	3.829000	-11.440000	22.869202	0.001016	20.891003
334.105212	-3.003500	3.830100	-11.501000	22.856374	0.001015	20.898539
335.107788	-2.984800	3.829800	-11.430000	22.862175	0.001016	20.880644
336.107154	-2.999800	3.828500	-11.484000	22.856396	0.001015	20.882916
337.105238	-2.992000	3.829000	-11.455000	22.841474	0.001018	20.876976
338.113186	-2.974400	3.829200	-11.389000	22.872860	0.001017	20.899882
339.108287	-2.990200	3.828100	-11.446000	22.876745	0.001017	20.880069
340.108593	-2.992100	3.827300	-11.451000	22.871988	0.001020	20.886207
341.109036	-3.007700	3.827500	-11.511000	22.875073	0.001017	20.887876
342.109919	-2.987500	3.828100	-11.435000	22.888672	0.001019	20.897232
343.109266	-2.999200	3.827200	-11.478000	22.865706	0.001020	20.897931
344.114422	-3.014600	3.827900	-11.539000	22.867349	0.001020	20.895784
345.111425	-2.981600	3.828400	-11.414000	22.890912	0.001021	20.899950
346.110909	-2.991200	3.827400	-11.447000	22.897016	0.001022	20.868608
347.110678	-3.021200	3.825600	-11.557000	22.926679	0.001020	20.890739
348.110326	-3.016700	3.825300	-11.539000	22.917040	0.001022	20.886772
349.116032	-3.009300	3.825000	-11.510000	22.944710	0.001024	20.875614
350.118846	-2.999000	3.825100	-11.470000	22.973876	0.001024	20.899144
351.114646	-3.000500	3.826000	-11.479000	22.980725	0.001025	20.871869
352.114605	-2.978200	3.826200	-11.395000	22.959277	0.001024	20.890682
353.114019	-3.000900	3.825100	-11.477000	22.960896	0.001027	20.877605
354.112578	-2.980500	3.826400	-11.403000	22.997135	0.001025	20.868396
355.115550	-3.018500	3.823000	-11.537000	22.966174	0.001025	20.893798
356.115402	-2.997200	3.823400	-11.458000	22.938747	0.001026	20.866796
357.115358	-3.010200	3.823800	-11.509000	22.941213	0.001026	20.863576
358.116444	-3.005900	3.823000	-11.490000	22.930627	0.001028	20.868143
359.117104	-2.997600	3.823000	-11.458000	22.917522	0.001027	20.870187
360.113569	-2.995900	3.822700	-11.449000	22.900135	0.001028	20.864147
361.123563	-2.986600	3.823700	-11.419000	22.902650	0.001029	20.868563
362.120576	-2.980900	3.822600	-11.393000	22.897047	0.001029	20.888553
363.116745	-2.981400	3.822000	-11.394000	22.901478	0.001028	20.854114
364.119455	-2.991800	3.823400	-11.437000	22.931094	0.001031	20.879042
365.121314	-3.015000	3.821400	-11.520000	22.947809	0.001029	20.860228
366.118409	-3.002200	3.821200	-11.470000	22.927008	0.001030	20.881112
367.117799	-3.011900	3.820800	-11.507000	22.968506	0.001030	20.871480
368.119492	-2.994500	3.822200	-11.443000	22.948855	0.001030	20.877870
369.121477	-3.012900	3.820800	-11.510000	22.978395	0.001031	20.868586
370.117957	-2.980900	3.820900	-11.389000	22.980313	0.001031	20.866240
371.123595	-3.007000	3.821900	-11.490000	22.987934	0.001035	20.846851
372.123113	-3.000100	3.821200	-11.464000	22.998397	0.001034	20.853540
373.118309	-2.978000	3.820600	-11.376000	22.988682	0.001035	20.852342
374.121934	-3.007300	3.819000	-11.485000	22.970473	0.001034	20.864917
375.119892	-2.985400	3.820100	-11.402000	22.986812	0.001034	20.857105
376.118013	-2.995600	3.819000	-11.439000	22.987882	0.001035	20.862445
377.120199	-3.006400	3.818700	-11.480000	22.992565	0.001037	20.863818
378.124934	-3.001300	3.818400	-11.458000	23.005041	0.001037	20.851188
379.118534	-2.997200	3.817400	-11.440000	23.039762	0.001038	20.863691
380.125147	-3.002700	3.818200	-11.464000	23.056920	0.001036	20.832995
381.120788	-2.998200	3.817700	-11.445000	23.048749	0.001039	20.864635
382.124216	-2.993800	3.818500	-11.430000	23.051886	0.001038	20.855925
383.127243	-3.009200	3.816700	-11.484000	23.051586	0.001039	20.869848
384.121131	-3.007200	3.817400	-11.479000	23.041173	0.001040	20.843769
385.121200	-3.000800	3.817200	-11.454000	23.040001	0.001040	20.850655
386.118667	-2.983300	3.817800	-11.389000	23.050212	0.001041	20.839549
387.119487	-2.999500	3.816200	-11.445000	23.059649	0.001042	20.838574
388.121102	-3.005500	3.816100	-11.468000	23.073944	0.001043	20.841044
389.122276	-3.009800	3.814700	-11.481000	23.057031	0.001045	20.835477
390.120140	-3.002800	3.815600	-11.456000	23.064724	0.001044	20.860728
391.118746	-2.980600	3.816300	-11.374000	23.063302	0.001043	20.840812
392.120603	-2.983200	3.815800	-11.382000	23.057970	0.001046	20.844479
393.118639	-3.003600	3.815400	-11.459000	23.031741	0.001046	20.832422
394.125577	-2.970700	3.816400	-11.336000	23.036520	0.001047	20.848116
395.121895	-3.003800	3.814000	-11.455000	23.023814	0.001046	20.853876
396.125708	-2.981200	3.815700	-11.375000	23.040922	0.001047	20.854897
397.124258	-2.989200	3.813400	-11.398000	23.081416	0.001049	20.849952
398.119568	-3.000600	3.812900	-11.440000	23.079047	0.001050	20.844735
399.122607	-2.993000	3.814500	-11.416000	23.082155	0.001049	20.844056
400.124842	-2.992800	3.813500	-11.412000	23.132287	0.001048	20.827908
401.121346	-2.990400	3.813400	-11.403000	23.111710	0.001048	20.840954
402.122849	-2.986200	3.814100	-11.389000	23.118978	0.001051	20.844443
403.120852	-3.012900	3.812100	-11.484000	23.149358	0.001051	20.848333
404.119976	-2.999200	3.811300	-11.431000	23.151274	0.001051	20.830339
405.122262	-3.013700	3.810500	-11.483000	23.147085	0.001053	20.853168
406.121403	-3.015200	3.810100	-11.487000	23.141079	0.001050	20.840985
407.120766	-3.015000	3.811800	-11.492000	23.102897	0.001054	20.844925
408.124563	-3.013000	3.811000	-11.480000	23.121596	0.001052	20.830946
409.123197	-3.000000	3.811700	-11.434000	23.135539	0.001053	20.858193
410.121585	-3.011600	3.809600	-11.472000	23.135211	0.001055	20.860234
411.123702	-3.014900	3.809100	-11.483000	23.136604	0.001056	20.836501
412.123352	-3.017800	3.808800	-11.494000	23.117546	0.001054	20.866241
413.122443	-2.999400	3.808700	-11.423000	23.111191	0.001056	20.859873
414.125191	-3.005700	3.808700	-11.447000	23.124237	0.001054	20.855877
415.123934	-3.029900	3.807500	-11.536000	23.120299	0.001057	20.850508
416.125162	-2.993900	3.809100	-11.403000	23.128588	0.001058	20.852650
417.127934	-2.975000	3.809700	-11.332000	23.134086	0.001058	20.823073
418.129355	-2.994800	3.809000	-11.407000	23.141110	0.001056	20.836275
419.129184	-3.011800	3.807400	-11.466000	23.160105	0.001058	20.844878
420.126003	-3.002100	3.809200	-11.434000	23.186150	0.001056	20.843477
421.124478	-2.988100	3.809000	-11.380000	23.177553	0.001058	20.846241
422.125166	-3.000200	3.808000	-11.423000	23.191197	0.001058	20.849482
423.130238	-2.998100	3.807300	-11.413000	23.199860	0.001059	20.838250
424.131342	-2.999200	3.807100	-11.417000	23.224609	0.001057	20.851197
425.131323	-3.005600	3.807600	-11.442000	23.244376	0.001058	20.853462
426.133398	-3.006900	3.806600	-11.444000	23.231997	0.001057	20.831100
427.130741	-3.001500	3.805900	-11.422000	23.210079	0.001059	20.851335
428.130175	-2.991300	3.805800	-11.383000	23.243518	0.001059	20.841223
429.130867	-2.996000	3.805500	-11.400000	23.262839	0.001061	20.833559
430.132432	-2.990900	3.805300	-11.378000	23.245077	0.001062	20.851320
431.136910	-2.986700	3.805100	-11.363000	23.234342	0.001061	20.845778
432.133509	-3.003700	3.804200	-11.426000	23.234287	0.001063	20.850464
433.129374	-3.007800	3.805000	-11.443000	23.274227	0.001063	20.866308
434.130830	-3.015700	3.804700	-11.473000	23.286450	0.001061	20.842997
435.131570	-2.984100	3.805200	-11.353000	23.271305	0.001061	20.859586
436.132158	-3.012300	3.803300	-11.455000	23.266395	0.001064	20.855614
437.130804	-3.022500	3.801000	-11.487000	23.275406	0.001063	20.844731
438.133955	-3.012900	3.801800	-11.453000	23.271491	0.001064	20.847920
439.134080	-2.998100	3.803500	-11.402000	23.243524	0.001066	20.840281
440.131983	-3.008200	3.803100	-11.439000	23.248401	0.001064	20.835685
441.131884	-2.994100	3.801900	-11.382000	23.230342	0.001064	20.836080
442.131778	-2.995700	3.802200	-11.389000	23.202125	0.001065	20.854743
443.132774	-3.019200	3.801500	-11.476000	23.210387	0.001066	20.862074
444.134011	-2.999000	3.803000	-11.405000	23.190090	0.001063	20.845527
445.133450	-3.002300	3.801400	-11.413000	23.222757	0.001066	20.866883
446.131965	-2.985000	3.801100	-11.345000	23.194166	0.001066	20.833018
447.135551	-2.987800	3.802400	-11.360000	23.169185	0.001066	20.842122
448.133808	-3.003300	3.801100	-11.415000	23.202827	0.001064	20.855446
449.133445	-3.014700	3.799900	-11.454000	23.192586	0.001065	20.827167
450.139111	-3.024700	3.800200	-11.493000	23.193081	0.001066	20.830034
451.134492	-2.997700	3.800600	-11.392000	23.179408	0.001068	20.846677
452.136878	-3.004900	3.801300	-11.420000	23.191531	0.001067	20.846972
453.138317	-2.983000	3.801000	-11.338000	23.190981	0.001069	20.835989
454.136705	-2.971900	3.800400	-11.293000	23.184552	0.001068	20.853254
455.133955	-2.999600	3.799200	-11.394000	23.201956	0.001068	20.852677
456.134296	-2.996400	3.798000	-11.379000	23.196052	0.001069	20.859562
457.135992	-3.014900	3.797500	-11.447000	23.193607	0.001066	20.816811
458.138106	-2.988800	3.798300	-11.352000	23.192484	0.001070	20.844134
459.140402	-2.990700	3.797700	-11.357000	23.196440	0.001070	20.844305
460.135155	-3.016200	3.796700	-11.450000	23.195167	0.001070	20.854882
461.143266	-3.009400	3.796100	-11.423000	23.192874	0.001067	20.850688
462.142588	-2.999700	3.795600	-11.383000	23.175837	0.001068	20.840728
463.135331	-2.997000	3.796300	-11.376000	23.202280	0.001069	20.829295
464.145553	-2.978400	3.796600	-11.306000	23.225711	0.001069	20.851353
465.136836	-2.992300	3.795500	-11.356000	23.242268	0.001067	20.850875
466.136882	-2.978000	3.797300	-11.307000	23.275234	0.001070	20.857834
467.139497	-3.000900	3.794800	-11.386000	23.266466	0.001069	20.847625
468.142638	-2.999900	3.795900	-11.387000	23.268855	0.001069	20.844330
469.145168	-3.000700	3.794400	-11.383000	23.303714	0.001070	20.866936
470.136087	-3.010900	3.795100	-11.426000	23.302666	0.001069	20.840283
471.141596	-3.018200	3.792900	-11.447000	23.316158	0.001069	20.855227
472.140600	-3.013200	3.794000	-11.432000	23.312871	0.001069	20.841502
473.140180	-3.030900	3.792100	-11.492000	23.328031	0.001070	20.857643
474.142402	-2.994800	3.793400	-11.358000	23.335800	0.001069	20.852627
475.140043	-2.995900	3.792700	-11.362000	23.359551	0.001069	20.839922
476.137517	-3.004800	3.793700	-11.399000	23.354021	0.001071	20.842440
477.141064	-2.991400	3.792500	-11.343000	23.324861	0.001073	20.845931
478.137178	-2.998000	3.791700	-11.367000	23.344007	0.001071	20.848998
479.138009	-3.013700	3.792100	-11.427000	23.322417	0.001072	20.822145
480.138019	-2.987200	3.792600	-11.328000	23.353415	0.001072	20.836143
481.136910	-2.986500	3.791700	-11.322000	23.310436	0.001070	20.825785
482.136043	-3.020900	3.791400	-11.451000	23.335733	0.001073	20.849240
483.141125	-2.993100	3.792100	-11.349000	23.341284	0.001070	20.823037
484.140594	-2.980100	3.790700	-11.296000	23.358612	0.001071	20.831869
485.139435	-3.006700	3.789400	-11.393000	23.354080	0.001072	20.835387
486.150390	-2.974700	3.789700	-11.271000	23.334682	0.001071	20.815946
487.144788	-3.008900	3.789400	-11.401000	23.322654	0.001070	20.846565
488.139012	-2.999200	3.789900	-11.365000	23.345311	0.001071	20.815693
489.144697	-2.975500	3.790000	-11.276000	23.361943	0.001071	20.843268
490.142173	-2.991000	3.789200	-11.332000	23.352356	0.001071	20.831763
491.143777	-3.011800	3.788300	-11.408000	23.334128	0.001073	20.812546
492.155142	-2.990200	3.789200	-11.329000	23.345608	0.001072	20.818836
493.144022	-2.989800	3.789100	-11.328000	23.347049	0.001071	20.843039
494.142555	-2.998400	3.788800	-11.359000	23.356736	0.001069	20.857488
495.140180	-3.008800	3.786600	-11.391000	23.356784	0.001072	20.838571
496.143550	-2.999700	3.786800	-11.359000	23.357781	0.001072	20.845260
497.143085	-2.998000	3.786700	-11.351000	23.380064	0.001071	20.845309
498.145354	-3.005100	3.785300	-11.374000	23.405610	0.001071	20.828714
499.153628	-2.986000	3.786000	-11.304000	23.410415	0.001071	20.847754
500.140919	-3.012500	3.786600	-11.406000	23.432251	0.001071	20.832657
501.144295	-2.994700	3.785800	-11.337000	23.445073	0.001070	20.813741
502.143712	-3.014100	3.785500	-11.409000	23.436980	0.001071	20.839767
503.144794	-3.008700	3.784600	-11.386000	23.451895	0.001071	20.841441
504.143960	-2.972800	3.785800	-11.253000	23.444800	0.001070	20.810148
505.146159	-3.005900	3.785000	-11.376000	23.478261	0.001072	20.816187
506.148504	-2.997100	3.783300	-11.338000	23.510328	0.001072	20.829838
507.143908	-3.002900	3.783900	-11.362000	23.474725	0.001072	20.829712
508.146097	-2.999500	3.782800	-11.345000	23.483414	0.001072	20.820878
509.147836	-3.000600	3.782700	-11.349000	23.514312	0.001069	20.837624
510.152531	-3.010800	3.784100	-11.392000	23.519988	0.001071	20.808702
511.150585	-3.038600	3.780200	-11.484000	23.538360	0.001071	20.806255
512.152294	-2.982900	3.782600	-11.281000	23.529174	0.001074	20.814591
513.153750	-2.984600	3.781800	-11.285000	23.534453	0.001070	20.813718
514.151026	-2.988700	3.781500	-11.301000	23.540726	0.001073	20.807679
515.149883	-3.011800	3.781100	-11.386000	23.534752	0.001073	20.817337
516.153767	-2.998800	3.782400	-11.342000	23.556585	0.001074	20.791334
517.150424	-2.981900	3.781500	-11.275000	23.567391	0.001073	20.823028
518.154656	-3.000100	3.780600	-11.341000	23.545484	0.001073	20.804861
519.156084	-3.006300	3.779300	-11.360000	23.575135	0.001072	20.817515
520.154076	-2.994500	3.779800	-11.317000	23.529378	0.001072	20.818114
521.154378	-2.980100	3.780100	-11.263000	23.530274	0.001072	20.791986
522.154302	-3.002400	3.779000	-11.345000	23.534807	0.001073	20.818814
523.157653	-3.000800	3.780400	-11.343000	23.529477	0.001074	20.822006
524.152555	-3.005600	3.780000	-11.359000	23.564332	0.001071	20.812376
525.157261	-3.014700	3.778400	-11.390000	23.549196	0.001072	20.804315
526.152699	-2.996300	3.779100	-11.323000	23.559254	0.001074	20.807760
527.153328	-2.987400	3.779700	-11.290000	23.587559	0.001073	20.811952
528.150249	-2.991300	3.779000	-11.303000	23.583952	0.001074	20.800750
529.157446	-3.003500	3.776900	-11.343000	23.598639	0.001075	20.830172
530.151129	-2.998000	3.776600	-11.321000	23.590001	0.001074	20.793538
531.151222	-2.997200	3.776800	-11.319000	23.595081	0.001074	20.812855
532.152343	-2.999200	3.776300	-11.326000	23.594286	0.001075	20.799729
533.155278	-2.975500	3.776400	-11.236000	23.606160	0.001074	20.789822
534.152355	-2.989900	3.775300	-11.288000	23.624359	0.001075	20.790048
535.160431	-2.995900	3.775200	-11.309000	23.609895	0.001074	20.790722
536.153808	-3.002600	3.776000	-11.336000	23.616841	0.001074	20.804323
537.155493	-3.005300	3.774600	-11.342000	23.638624	0.001076	20.801504
538.155167	-3.019700	3.773300	-11.393000	23.650150	0.001075	20.805947
539.152479	-3.024300	3.773500	-11.411000	23.654357	0.001074	20.809690
540.158247	-3.000100	3.774700	-11.324000	23.660059	0.001074	20.800708
541.155215	-2.981200	3.775100	-11.253000	23.648185	0.001075	20.780269
542.151861	-2.996800	3.774600	-11.311000	23.623766	0.001076	20.786609
543.159807	-2.968500	3.774700	-11.203000	23.611320	0.001078	20.785037
544.161860	-3.015700	3.772600	-11.375000	23.606168	0.001076	20.773708
545.161570	-2.985000	3.773700	-11.263000	23.612690	0.001076	20.773135
546.159060	-2.991100	3.772800	-11.283000	23.628871	0.001077	20.792675
547.165118	-3.006500	3.770800	-11.336000	23.629195	0.001076	20.785413
548.157911	-2.989600	3.771000	-11.273000	23.640572	0.001076	20.774059
549.160235	-3.020300	3.772000	-11.391000	23.661981	0.001077	20.770866
550.164655	-3.005800	3.771400	-11.336000	23.656231	0.001076	20.760834
551.156275	-2.986000	3.771000	-11.258000	23.651726	0.001077	20.779077
552.160239	-3.009700	3.770000	-11.345000	23.658074	0.001077	20.776907
553.169169	-3.003100	3.770300	-11.322000	23.672536	0.001079	20.771491
554.158946	-2.992700	3.769200	-11.279000	23.649412	0.001078	20.767274
555.158069	-3.002500	3.770300	-11.319000	23.673807	0.001078	20.774662
556.162654	-3.010400	3.768900	-11.345000	23.673708	0.001079	20.785942
557.157454	-2.999000	3.769900	-11.305000	23.676597	0.001079	20.779829
558.158451	-3.018800	3.768200	-11.374000	23.689590	0.001079	20.781002
559.165653	-2.960500	3.768300	-11.155000	23.691929	0.001082	20.772442
560.163525	-2.988700	3.769600	-11.265000	23.699000	0.001079	20.786643
561.161692	-3.006500	3.767600	-11.327000	23.719161	0.001080	20.747586
562.164925	-2.980100	3.768800	-11.230000	23.711097	0.001079	20.787391
563.168179	-2.981800	3.767800	-11.233000	23.697257	0.001082	20.780154
564.165754	-3.024200	3.767100	-11.391000	23.719360	0.001080	20.771019
565.167704	-3.008400	3.767200	-11.331000	23.705395	0.001081	20.762708
566.167419	-2.984700	3.767000	-11.241000	23.719933	0.001080	20.754524
567.160720	-3.041200	3.766000	-11.452000	23.733498	0.001078	20.769547
568.164834	-2.995200	3.766500	-11.281000	23.715105	0.001080	20.762012
569.162484	-2.966700	3.767200	-11.173000	23.713163	0.001081	20.750582
570.173176	-2.973400	3.766700	-11.200000	23.734493	0.001076	20.754898
571.166031	-2.980900	3.764600	-11.221000	23.743155	0.001077	20.784919
572.169944	-3.008100	3.764100	-11.322000	23.766005	0.001079	20.784122
573.165504	-2.994200	3.763800	-11.268000	23.754806	0.001079	20.784746
574.167084	-3.018200	3.763600	-11.358000	23.769143	0.001077	20.775888
575.165937	-3.001500	3.764000	-11.297000	23.750076	0.001077	20.787591
576.168424	-3.004500	3.762700	-11.304000	23.770835	0.001079	20.786593
577.165474	-2.992600	3.763200	-11.261000	23.781836	0.001076	20.784347
578.171475	-3.012300	3.762900	-11.333000	23.763518	0.001079	20.790163
579.167880	-2.982100	3.763400	-11.222000	23.783704	0.001078	20.786220
580.165347	-3.011000	3.762600	-11.329000	23.770290	0.001079	20.777987
581.165518	-2.984800	3.762000	-11.228000	23.769693	0.001080	20.776914
582.164204	-3.015000	3.761600	-11.339000	23.777658	0.001079	20.791064
583.165904	-2.990500	3.760800	-11.246000	23.778505	0.001078	20.763463
584.174341	-3.028500	3.760300	-11.387000	23.787814	0.001078	20.761417
585.164757	-2.998700	3.760000	-11.274000	23.761804	0.001076	20.765210
586.167279	-2.981200	3.760600	-11.210000	23.737039	0.001079	20.774520
587.164104	-3.001200	3.761100	-11.287000	23.739006	0.001079	20.789294
588.180576	-3.008200	3.759400	-11.307000	23.745154	0.001081	20.782182
589.168630	-3.019600	3.759800	-11.351000	23.732362	0.001078	20.774098
590.168864	-2.988000	3.759300	-11.233000	23.750260	0.001079	20.779715
591.174236	-3.002700	3.758400	-11.284000	23.740502	0.001078	20.778940
592.167513	-2.996800	3.758700	-11.263000	23.739930	0.001079	20.759400
593.168083	-2.978100	3.759900	-11.196000	23.733185	0.001077	20.787725
594.170047	-2.981000	3.758400	-11.202000	23.722084	0.001078	20.778493
595.170610	-3.000000	3.757700	-11.273000	23.737368	0.001079	20.751616
596.170263	-2.992100	3.758100	-11.243000	23.707949	0.001077	20.776648
597.172042	-3.001200	3.757700	-11.276000	23.701030	0.001079	20.783462
598.166661	-2.984900	3.757700	-11.216000	23.701503	0.001079	20.778247
599.172342	-3.003700	3.757100	-11.285000	23.704739	0.001078	20.779594
600.176092	-2.990100	3.756600	-11.232000	23.694011	0.001078	20.787332
601.172875	-2.981600	3.756400	-11.198000	23.705960	0.001077	20.784138
602.173366	-2.995300	3.755000	-11.245000	23.702724	0.001076	20.784687
603.174407	-3.008200	3.755000	-11.294000	23.744494	0.001077	20.764450
604.173370	-2.996500	3.754500	-11.250000	23.765603	0.001077	20.753846
605.180299	-2.994500	3.754800	-11.243000	23.764110	0.001077	20.794075
606.172122	-2.983900	3.755200	-11.203000	23.782206	0.001078	20.784244
607.169167	-3.008800	3.754100	-11.294000	23.795896	0.001078	20.772366
608.175117	-2.999200	3.754200	-11.259000	23.816555	0.001078	20.765104
609.180143	-3.011700	3.752700	-11.301000	23.818122	0.001077	20.784694
610.187059	-3.006600	3.753900	-11.284000	23.783804	0.001079	20.798174
611.175883	-2.994000	3.751900	-11.231000	23.777259	0.001077	20.771697
612.178830	-3.001600	3.752200	-11.262000	23.790252	0.001076	20.770500
613.173337	-3.014700	3.752600	-11.312000	23.819947	0.001077	20.764712
614.176479	-2.974300	3.751900	-11.158000	23.838490	0.001076	20.788521
615.173143	-2.988600	3.751800	-11.211000	23.842425	0.001076	20.801475
616.175096	-2.991100	3.751900	-11.221000	23.860817	0.001075	20.772976
617.181245	-3.026100	3.750500	-11.349000	23.881625	0.001078	20.779142
618.173057	-2.992600	3.751300	-11.225000	23.856740	0.001076	20.766991
619.174370	-2.992900	3.751500	-11.227000	23.873915	0.001077	20.760979
620.175975	-3.004700	3.749500	-11.265000	23.872423	0.001075	20.790778
621.178522	-2.997800	3.750000	-11.240000	23.871553	0.001075	20.771888
622.179736	-2.998900	3.749300	-11.243000	23.912295	0.001075	20.792827
623.176602	-3.017700	3.748100	-11.310000	23.909684	0.001077	20.787364
624.183451	-3.000800	3.748400	-11.247000	23.906202	0.001077	20.787665
625.182702	-2.968100	3.749200	-11.127000	23.926934	0.001074	20.783799
626.181200	-3.001800	3.747300	-11.247000	23.905160	0.001074	20.781879
627.176002	-3.007600	3.748400	-11.272000	23.904342	0.001074	20.758772
628.177767	-3.007800	3.747700	-11.270000	23.881296	0.001075	20.779760
629.176508	-3.004200	3.747900	-11.258000	23.886279	0.001076	20.771006
630.177248	-3.005900	3.746900	-11.262000	23.886305	0.001075	20.773877
631.177502	-2.994400	3.746500	-11.218000	23.823762	0.001076	20.794142
632.186999	-3.001100	3.747300	-11.245000	23.819980	0.001076	20.800307
633.177407	-2.987600	3.746500	-11.192000	23.837680	0.001077	20.790080
634.182282	-2.999300	3.745500	-11.232000	23.850623	0.001076	20.777453
635.181464	-3.009500	3.745800	-11.272000	23.867124	0.001076	20.769343
636.182022	-3.003100	3.744700	-11.246000	23.858194	0.001076	20.786941
637.191866	-2.988300	3.745200	-11.190000	23.880544	0.001076	20.798921
638.180553	-2.995000	3.744800	-11.215000	23.899111	0.001073	20.778658
639.182108	-3.011500	3.743600	-11.273000	23.911083	0.001076	20.805362
640.193175	-2.985800	3.745400	-11.180000	23.915241	0.001079	20.797677
641.185370	-2.986000	3.744200	-11.178000	23.949213	0.001076	20.794759
642.187370	-3.010300	3.744100	-11.270000	23.929803	0.001075	20.784779
643.182876	-3.005700	3.743000	-11.249000	23.928958	0.001076	20.773974
644.186074	-3.030300	3.742500	-11.340000	23.927865	0.001077	20.786629
645.183732	-3.015600	3.741400	-11.282000	23.930058	0.001077	20.769387
646.183504	-2.996800	3.742900	-11.215000	23.941407	0.001076	20.768914
647.183190	-3.007100	3.742300	-11.252000	23.968261	0.001076	20.784464
648.186042	-3.007900	3.741300	-11.251000	23.963658	0.001075	20.784590
649.183995	-3.007000	3.741500	-11.250000	23.971799	0.001074	20.787537
650.183906	-3.004700	3.741400	-11.241000	23.938926	0.001076	20.776383
651.188262	-2.988100	3.740900	-11.176000	23.952688	0.001075	20.804882
652.185506	-3.026700	3.740000	-11.318000	23.961775	0.001077	20.794555
653.189151	-2.985200	3.741900	-11.169000	23.963667	0.001078	20.771796
654.192444	-2.998500	3.741300	-11.218000	23.979744	0.001076	20.781281
655.186042	-3.010400	3.739000	-11.255000	23.942866	0.001076	20.752358
656.188391	-2.995600	3.739000	-11.199000	23.924749	0.001077	20.777814
657.195620	-2.987500	3.739500	-11.170000	23.906706	0.001078	20.788171
658.190187	-3.003200	3.739500	-11.229000	23.944608	0.001078	20.774495
659.192212	-2.996200	3.740000	-11.204000	23.940331	0.001077	20.793440
660.193495	-3.008700	3.738600	-11.248000	23.943466	0.001075	20.796583
661.190211	-3.037800	3.736500	-11.349000	23.971837	0.001076	20.777144
662.189091	-3.005000	3.738700	-11.233000	23.974947	0.001077	20.786901
663.193144	-2.992400	3.738200	-11.185000	23.973578	0.001077	20.780313
664.191527	-2.993300	3.738200	-11.189000	24.024516	0.001079	20.779712
665.189748	-2.970300	3.737900	-11.102000	24.050371	0.001077	20.790469
666.195429	-2.977800	3.737400	-11.128000	24.041562	0.001080	20.799178
667.192694	-2.990400	3.736900	-11.174000	24.038027	0.001077	20.803220
668.193157	-2.984200	3.735700	-11.148000	24.041236	0.001079	20.795532
669.209744	-3.015200	3.735700	-11.262000	24.061665	0.001077	20.790890
670.194788	-3.002100	3.735000	-11.212000	24.054720	0.001077	20.791986
671.194034	-2.993600	3.734700	-11.179000	24.076791	0.001077	20.797999
672.197141	-2.996100	3.734500	-11.188000	24.056286	0.001077	20.794504
673.203988	-3.015500	3.733600	-11.257000	24.096148	0.001078	20.817412
674.194319	-2.982100	3.735400	-11.137000	24.073752	0.001077	20.815340
675.193644	-3.017700	3.733200	-11.265000	24.110627	0.001079	20.831459
676.199505	-3.001600	3.733000	-11.204000	24.122518	0.001076	20.806402
677.203778	-2.995700	3.733000	-11.181000	24.127544	0.001077	20.805753
678.198526	-3.011500	3.732200	-11.238000	24.122614	0.001078	20.794645
679.199991	-3.004700	3.732500	-11.214000	24.117313	0.001078	20.795018
680.195090	-2.993200	3.732000	-11.169000	24.107359	0.001080	20.812535
681.198050	-2.996800	3.732200	-11.184000	24.141124	0.001078	20.805623
682.199835	-3.000600	3.730600	-11.192000	24.113526	0.001077	20.804022
683.199998	-3.021400	3.731300	-11.273000	24.108846	0.001078	20.821139
684.203246	-2.997000	3.732200	-11.184000	24.098295	0.001079	20.816721
685.199443	-3.017500	3.731500	-11.259000	24.068110	0.001075	20.795932
686.201015	-2.982900	3.733400	-11.134000	24.051112	0.001077	20.814445
687.206796	-3.008800	3.731100	-11.225000	24.024958	0.001077	20.833260
688.208308	-2.985600	3.730900	-11.139000	24.057603	0.001075	20.824749
689.198517	-3.006600	3.729500	-11.212000	24.078902	0.001077	20.809599
690.202610	-2.999200	3.729700	-11.185000	24.102488	0.001077	20.818555
691.205948	-2.996600	3.729100	-11.174000	24.105222	0.001076	20.825565
692.204435	-2.988400	3.729900	-11.146000	24.111218	0.001075	20.833474
693.201351	-3.005800	3.728400	-11.205000	24.100690	0.001077	20.828605
694.206604	-3.001700	3.728900	-11.192000	24.127412	0.001075	20.819845
695.201431	-2.984800	3.729200	-11.129000	24.153908	0.001078	20.826031
696.205264	-2.991600	3.728100	-11.152000	24.162988	0.001075	20.821862
697.209175	-3.018500	3.726800	-11.248000	24.158408	0.001073	20.826751
698.201655	-2.999000	3.727800	-11.178000	24.156737	0.001074	20.845463
699.212507	-3.006400	3.727300	-11.204000	24.155219	0.001073	20.830665
700.208818	-2.986600	3.727400	-11.131000	24.139068	0.001076	20.857139
701.206550	-2.976800	3.727500	-11.094000	24.138445	0.001072	20.823799
702.207267	-2.991300	3.727400	-11.149000	24.141203	0.001074	20.847426
703.209453	-3.003400	3.725200	-11.187000	24.160933	0.001070	20.843982
704.204075	-3.025400	3.724200	-11.266000	24.161702	0.001073	20.844279
705.208231	-3.018400	3.724800	-11.240000	24.171327	0.001072	20.861519
706.210962	-2.993900	3.725800	-11.153000	24.147042	0.001074	20.840481
707.204030	-3.006100	3.725900	-11.199000	24.160949	0.001072	20.840205
708.208574	-3.011600	3.724400	-11.214000	24.186799	0.001070	20.859493
709.207769	-2.997500	3.725200	-11.165000	24.166743	0.001071	20.827998
710.205984	-2.998900	3.724700	-11.169000	24.198165	0.001071	20.830117
711.210032	-2.992200	3.725000	-11.145000	24.209583	0.001069	20.855320
712.211647	-2.999200	3.724600	-11.170000	24.185197	0.001071	20.847456
713.207537	-2.998000	3.723500	-11.161000	24.181587	0.001071	20.839568
714.214798	-3.004700	3.724200	-11.189000	24.181260	0.001071	20.850620
715.215626	-3.023600	3.722300	-11.254000	24.186335	0.001069	20.853339
716.210752	-3.023000	3.721800	-11.250000	24.204919	0.001070	20.868184
717.213260	-2.992100	3.723500	-11.140000	24.206508	0.001070	20.858873
718.213938	-3.010600	3.722200	-11.204000	24.203645	0.001072	20.855054
719.214641	-3.020600	3.721000	-11.239000	24.217549	0.001070	20.850507
720.215983	-2.998300	3.722600	-11.161000	24.178137	0.001069	20.852228
721.218726	-2.992700	3.720500	-11.134000	24.140738	0.001070	20.855969
722.214294	-3.001200	3.721900	-11.169000	24.147331	0.001069	20.851676
723.219483	-3.014900	3.720800	-11.216000	24.140460	0.001069	20.869914
724.211394	-3.008300	3.721000	-11.192000	24.125776	0.001071	20.874152
725.217550	-3.023300	3.719100	-11.243000	24.131747	0.001070	20.870657
726.211529	-3.002900	3.719800	-11.169000	24.115920	0.001069	20.881810
727.213726	-3.010300	3.719800	-11.197000	24.063962	0.001070	20.885176
728.211941	-3.012300	3.718600	-11.201000	24.082895	0.001071	20.877138
729.218256	-3.000700	3.719200	-11.159000	24.080007	0.001071	20.890836
730.222274	-3.020400	3.717900	-11.227000	24.075651	0.001070	20.877459
731.216242	-3.001900	3.718100	-11.160000	24.082143	0.001068	20.874013
732.215104	-3.003900	3.717300	-11.165000	24.124738	0.001067	20.875007
733.216579	-3.010900	3.717500	-11.191000	24.125657	0.001068	20.860283
734.217659	-3.001000	3.718800	-11.159000	24.150188	0.001068	20.883937
735.215189	-3.002900	3.717400	-11.162000	24.157527	0.001066	20.891772
736.225296	-2.993500	3.717200	-11.127000	24.170935	0.001064	20.884358
737.222446	-2.996800	3.717900	-11.140000	24.199918	0.001064	20.891142
738.221491	-2.991100	3.717100	-11.115000	24.183595	0.001065	20.901321
739.217566	-2.988900	3.716500	-11.107000	24.176850	0.001065	20.908780
740.218341	-3.016500	3.715800	-11.207000	24.196180	0.001063	20.898772
741.220639	-3.013100	3.715000	-11.193000	24.195433	0.001064	20.894230
742.215971	-3.001700	3.715100	-11.151000	24.236184	0.001061	20.897172
743.216737	-3.006000	3.716200	-11.169000	24.254691	0.001062	20.889658
744.219937	-3.003400	3.713000	-11.151000	24.255910	0.001062	20.888984
745.216419	-3.012300	3.713800	-11.186000	24.239164	0.001058	20.915332
746.224237	-3.021900	3.713800	-11.222000	24.254043	0.001061	20.895171
747.224964	-3.006800	3.714500	-11.168000	24.264466	0.001060	20.902780
748.224033	-3.006000	3.713300	-11.161000	24.285413	0.001057	20.883491
749.225677	-3.004000	3.712800	-11.152000	24.311558	0.001058	20.916353
750.222924	-3.010700	3.711900	-11.174000	24.306905	0.001058	20.894143
751.221934	-3.007700	3.711900	-11.164000	24.319517	0.001058	20.909638
752.222707	-2.999000	3.712700	-11.133000	24.296654	0.001059	20.893343
753.224224	-3.022800	3.711500	-11.218000	24.302699	0.001057	20.915053
754.226590	-2.988700	3.712700	-11.094000	24.318670	0.001057	20.897884
755.223047	-3.004300	3.712100	-11.152000	24.298918	0.001059	20.906045
756.222376	-2.990000	3.711500	-11.096000	24.329592	0.001058	20.909314
757.225710	-2.988500	3.711600	-11.090000	24.307872	0.001057	20.897958
758.226566	-2.992200	3.710300	-11.101000	24.304166	0.001058	20.917472
759.227424	-3.013500	3.711100	-11.183000	24.307674	0.001057	20.920991
760.226992	-2.996100	3.710700	-11.117000	24.298494	0.001057	20.909412
761.222479	-3.004900	3.709600	-11.145000	24.306380	0.001055	20.932968
762.230227	-3.021500	3.708400	-11.204000	24.291305	0.001057	20.904098
763.225287	-2.985500	3.709000	-11.073000	24.305586	0.001059	20.916052
764.225060	-3.013500	3.708900	-11.176000	24.320960	0.001056	20.916301
765.224272	-2.996100	3.709200	-11.112000	24.306556	0.001055	20.918921
766.228642	-3.015400	3.708200	-11.181000	24.280834	0.001058	20.909241
767.226582	-3.017900	3.708800	-11.192000	24.271006	0.001053	20.913607
768.230290	-2.982400	3.709500	-11.062000	24.271405	0.001054	20.912585
769.230556	-3.021200	3.707700	-11.200000	24.303250	0.001055	20.913234
770.225277	-3.009100	3.707400	-11.155000	24.309320	0.001053	20.923590
771.228278	-3.005700	3.706800	-11.142000	24.323752	0.001054	20.912464
772.231716	-2.997700	3.707300	-11.112000	24.345843	0.001054	20.924666
773.232387	-2.977000	3.708200	-11.037000	24.337361	0.001054	20.927537
774.228714	-3.007200	3.705300	-11.142000	24.358681	0.001054	20.892029
775.229255	-2.986900	3.707900	-11.073000	24.355274	0.001054	20.923221
776.230315	-2.981500	3.706300	-11.049000	24.342489	0.001053	20.914664
777.233606	-3.003100	3.706200	-11.129000	24.320672	0.001054	20.910796
778.234025	-2.992200	3.705400	-11.086000	24.312637	0.001053	20.908427
779.228742	-2.959200	3.707500	-10.970000	24.327863	0.001052	20.924173
780.229599	-2.984400	3.707200	-11.062000	24.314331	0.001053	20.883575
781.233224	-2.994600	3.704000	-11.091000	24.332219	0.001051	20.899622
782.231383	-2.993900	3.705500	-11.092000	24.332295	0.001051	20.908706
783.230995	-2.989900	3.705400	-11.078000	24.323514	0.001053	20.920758
784.235610	-3.014200	3.703900	-11.163000	24.339785	0.001052	20.909582
785.230924	-3.014300	3.703600	-11.163000	24.361106	0.001051	20.916270
786.232874	-2.991200	3.702300	-11.072000	24.339712	0.001052	20.890544
787.236711	-2.982200	3.704300	-11.046000	24.331926	0.001050	20.895061
788.240850	-2.982500	3.703700	-11.046000	24.343246	0.001052	20.904045
789.234148	-3.015100	3.702800	-11.162000	24.348273	0.001051	20.913354
790.236616	-3.002200	3.701400	-11.111000	24.366682	0.001049	20.896736
791.234257	-3.005100	3.701400	-11.120000	24.366632	0.001051	20.900005
792.234747	-3.006500	3.702300	-11.130000	24.386113	0.001050	20.906744
793.236809	-3.016300	3.701500	-11.164000	24.326931	0.001051	20.872508
794.235822	-2.991100	3.702300	-11.073000	24.316633	0.001051	20.891574
795.236829	-2.996400	3.701800	-11.091000	24.326661	0.001050	20.917278
796.241605	-3.000600	3.701500	-11.106000	24.342059	0.001048	20.880571
797.239353	-2.993200	3.700000	-11.073000	24.341512	0.001049	20.884763
798.238477	-3.016600	3.700100	-11.160000	24.370620	0.001049	20.876031
799.242861	-3.012700	3.700800	-11.149000	24.343753	0.001049	20.867572
800.249675	-3.016100	3.699700	-11.157000	24.389949	0.001047	20.887835
801.247112	-3.002500	3.699000	-11.105000	24.413780	0.001047	20.890406
802.242217	-3.008400	3.700000	-11.130000	24.410598	0.001047	20.884369
803.238244	-2.996000	3.699300	-11.081000	24.421867	0.001046	20.886191
804.236525	-3.005800	3.698700	-11.116000	24.432240	0.001046	20.864830
805.241542	-2.994900	3.698900	-11.077000	24.431047	0.001048	20.858418
806.239714	-2.976400	3.697900	-11.005000	24.422962	0.001047	20.884445
807.239417	-3.006200	3.698300	-11.117000	24.427492	0.001047	20.873817
808.243398	-3.003900	3.698700	-11.109000	24.415378	0.001047	20.878733
809.241923	-2.997800	3.696800	-11.081000	24.387468	0.001047	20.881553
810.243340	-3.002900	3.696700	-11.100000	24.356646	0.001047	20.865807
811.242995	-3.022200	3.696700	-11.171000	24.378910	0.001047	20.869650
812.243035	-3.003200	3.696300	-11.099000	24.382468	0.001046	20.874168
813.240504	-3.015900	3.695800	-11.145000	24.400702	0.001046	20.858321
814.243275	-2.992300	3.697400	-11.063000	24.397146	0.001044	20.879409
815.246800	-3.011200	3.696000	-11.128000	24.416125	0.001044	20.858621
816.238419	-3.010600	3.694800	-11.122000	24.423190	0.001044	20.853381
817.250204	-2.991000	3.696400	-11.054000	24.398887	0.001046	20.884948
818.243492	-2.996300	3.695900	-11.072000	24.377990	0.001045	20.866830
819.241004	-2.995400	3.695900	-11.070000	24.348411	0.001044	20.887417
820.247208	-2.994900	3.695200	-11.065000	24.320721	0.001043	20.861064
821.245889	-2.986400	3.694500	-11.032000	24.337539	0.001044	20.865132
822.242406	-2.981900	3.694500	-11.015000	24.337464	0.001044	20.856049
823.251191	-2.997600	3.694800	-11.074000	24.355001	0.001044	20.861312
824.245048	-3.013500	3.693400	-11.129000	24.375897	0.001043	20.860938
825.246014	-3.004800	3.693600	-11.097000	24.387090	0.001042	20.860313
826.246496	-3.008000	3.693300	-11.109000	24.398208	0.001043	20.881896
827.248840	-2.989800	3.693700	-11.043000	24.416117	0.001043	20.878052
828.246885	-2.993100	3.693600	-11.054000	24.452310	0.001042	20.870740
829.251143	-3.009500	3.692600	-11.112000	24.427882	0.001044	20.871838
830.248819	-3.010600	3.692900	-11.117000	24.457207	0.001042	20.873282
831.248736	-3.004500	3.692000	-11.092000	24.445017	0.001043	20.857735
832.252299	-2.991100	3.691800	-11.041000	24.435339	0.001044	20.858930
833.251833	-3.002000	3.690500	-11.077000	24.457600	0.001043	20.875099
834.247550	-2.975500	3.692300	-10.985000	24.457052	0.001042	20.855110
835.257323	-2.974100	3.691400	-10.977000	24.429090	0.001042	20.850292
836.250311	-3.010200	3.690000	-11.105000	24.452697	0.001042	20.868284
837.250815	-3.003500	3.690500	-11.083000	24.460081	0.001042	20.858149
838.252394	-3.004000	3.690000	-11.083000	24.464135	0.001041	20.854156
839.253071	-3.007000	3.689100	-11.090000	24.460003	0.001041	20.865657
840.253504	-3.029100	3.687700	-11.170000	24.457092	0.001042	20.852305
841.253303	-3.007300	3.688700	-11.091000	24.459180	0.001042	20.869572
842.255508	-3.004200	3.688300	-11.080000	24.442735	0.001042	20.838377
843.252424	-2.990900	3.689500	-11.033000	24.457411	0.001041	20.850729
844.255394	-2.998500	3.688400	-11.058000	24.465418	0.001041	20.861133
845.251676	-3.026100	3.688400	-11.160000	24.471660	0.001040	20.854593
846.256074	-3.011600	3.687300	-11.104000	24.452380	0.001043	20.870811
847.254935	-3.018400	3.685200	-11.122000	24.457726	0.001041	20.839666
848.252670	-3.009700	3.685500	-11.091000	24.467027	0.001040	20.848049
849.261461	-3.016500	3.686500	-11.119000	24.467996	0.001039	20.854237
850.255056	-2.993900	3.687000	-11.036000	24.434812	0.001040	20.853187
851.254099	-2.999700	3.687100	-11.059000	24.412771	0.001037	20.858101
852.257454	-3.011100	3.686200	-11.098000	24.394212	0.001038	20.852285
853.255349	-2.999000	3.687400	-11.056000	24.354333	0.001039	20.871073
854.257617	-3.000000	3.685900	-11.057000	24.340798	0.001037	20.853229
855.254894	-3.022100	3.684200	-11.132000	24.326070	0.001038	20.838456
856.255099	-3.013500	3.684600	-11.103000	24.332985	0.001038	20.865779
857.257834	-3.004100	3.685100	-11.069000	24.364677	0.001037	20.861536
858.257480	-3.021400	3.684900	-11.132000	24.391715	0.001037	20.849306
859.259398	-3.005100	3.684700	-11.072000	24.419848	0.001036	20.853348
860.257271	-3.011300	3.684800	-11.094000	24.438478	0.001035	20.873459
861.256418	-2.990800	3.685000	-11.020000	24.434671	0.001036	20.853994
862.257211	-3.003700	3.684300	-11.065000	24.417506	0.001034	20.841041
863.258403	-3.003600	3.682700	-11.059000	24.397927	0.001034	20.856486
864.258395	-2.993100	3.682800	-11.022000	24.395837	0.001035	20.849174
865.257927	-3.001200	3.682900	-11.052000	24.398297	0.001032	20.850220
866.262846	-3.007300	3.683400	-11.076000	24.404192	0.001032	20.854237
867.261075	-2.991300	3.683200	-11.016000	24.415882	0.001032	20.845576
868.260387	-2.999200	3.682700	-11.043000	24.403967	0.001030	20.858278
869.258011	-3.016200	3.682500	-11.105000	24.435036	0.001032	20.841558
870.262049	-3.034300	3.680100	-11.165000	24.456701	0.001031	20.844327
871.260957	-3.010200	3.681000	-11.079000	24.428690	0.001030	20.863640
872.265128	-2.960700	3.682100	-10.900000	24.448564	0.001030	20.850388
873.259880	-2.995100	3.681900	-11.027000	24.452967	0.001030	20.860021
874.267308	-3.009700	3.681400	-11.079000	24.445852	0.001029	20.866633
875.265171	-2.997700	3.681100	-11.034000	24.474656	0.001029	20.843849
876.264630	-2.987500	3.681200	-10.997000	24.478112	0.001027	20.858695
877.263200	-3.020200	3.679300	-11.111000	24.483163	0.001028	20.853805
878.262975	-3.014300	3.678800	-11.088000	24.514403	0.001029	20.851009
879.263178	-3.012500	3.680000	-11.085000	24.533929	0.001027	20.851160
880.265271	-3.018800	3.679300	-11.106000	24.541688	0.001026	20.841402
881.267071	-3.011100	3.678700	-11.076000	24.542981	0.001026	20.855975
882.268444	-3.020300	3.677100	-11.105000	24.563277	0.001024	20.838881
883.265263	-2.985300	3.679000	-10.981000	24.551041	0.001025	20.828975
884.268608	-2.994200	3.677300	-11.010000	24.506990	0.001026	20.831719
885.261945	-2.997900	3.676500	-11.020000	24.506369	0.001024	20.832518
886.264995	-3.012800	3.677200	-11.077000	24.519652	0.001023	20.858172
887.265967	-2.993600	3.677500	-11.008000	24.534501	0.001022	20.855528
888.264356	-3.009800	3.677000	-11.066000	24.497937	0.001021	20.845396
889.265157	-3.009000	3.675700	-11.058000	24.484258	0.001022	20.845421
890.269094	-2.984400	3.677300	-10.974000	24.508758	0.001022	20.858622
891.267630	-2.993200	3.676800	-11.004000	24.498362	0.001020	20.826382
892.272052	-3.010200	3.675500	-11.062000	24.528932	0.001022	20.843302
893.270946	-3.002700	3.675900	-11.036000	24.530847	0.001022	20.825309
894.266987	-3.012800	3.674000	-11.068000	24.556192	0.001019	20.846471
895.269673	-3.004500	3.674300	-11.038000	24.566788	0.001018	20.827706
896.272495	-2.996700	3.674000	-11.009000	24.607107	0.001020	20.825961
897.271401	-3.006400	3.674000	-11.044000	24.585519	0.001020	20.832275
898.270055	-3.029100	3.672600	-11.123000	24.562414	0.001018	20.836593
899.272312	-3.000100	3.674200	-11.022000	24.559478	0.001018	20.839812
900.269317	-2.988200	3.675100	-10.981000	24.572488	0.001017	20.832951
901.271863	-3.011400	3.673700	-11.062000	24.547641	0.001020	20.843582
902.274372	-2.983100	3.673500	-10.957000	24.581991	0.001019	20.825890
903.271576	-3.008100	3.671900	-11.045000	24.574405	0.001018	20.821124
904.274547	-3.027400	3.670700	-11.111000	24.597463	0.001016	20.821026
905.274742	-2.981000	3.673400	-10.949000	24.611765	0.001017	20.819255
906.273398	-3.012300	3.671900	-11.060000	24.624772	0.001017	20.828987
907.274104	-2.979800	3.672800	-10.943000	24.599131	0.001015	20.824597
908.282086	-2.982200	3.672000	-10.950000	24.615349	0.001016	20.813369
909.281612	-3.005400	3.671500	-11.032000	24.651088	0.001015	20.805134
910.272923	-2.995300	3.670500	-10.994000	24.632934	0.001017	20.810625
911.276996	-3.007100	3.669800	-11.035000	24.621842	0.001015	20.812772
912.276395	-3.015900	3.671100	-11.069000	24.637562	0.001015	20.834235
913.276761	-3.001500	3.670500	-11.014000	24.629405	0.001017	20.819886
914.277850	-2.992200	3.669400	-10.979000	24.635100	0.001016	20.801894
915.275548	-2.986300	3.669400	-10.957000	24.625055	0.001014	20.816470
916.276177	-3.005900	3.668900	-11.027000	24.668554	0.001015	20.794211
917.281790	-3.002000	3.669500	-11.015000	24.666117	0.001013	20.823533
918.277046	-3.001700	3.669400	-11.013000	24.679946	0.001014	20.807539
919.280044	-2.980700	3.670400	-10.939000	24.657390	0.001013	20.800078
920.279234	-2.968200	3.671000	-10.896000	24.674751	0.001012	20.810386
921.279652	-3.013000	3.668100	-11.050000	24.685023	0.001012	20.817849
922.277327	-3.007100	3.668400	-11.029000	24.702805	0.001011	20.822890
923.278812	-2.989800	3.669300	-10.970000	24.675996	0.001011	20.814006
924.278886	-2.992800	3.668900	-10.979000	24.665005	0.001009	20.789227
925.279429	-2.996300	3.667800	-10.988000	24.683459	0.001011	20.815331
926.278358	-2.979000	3.668200	-10.926000	24.689105	0.001009	20.813411
927.277416	-2.988600	3.667500	-10.960000	24.710071	0.001011	20.793672
928.279734	-3.003300	3.666200	-11.009000	24.739068	0.001009	20.788632
929.280562	-3.007400	3.665700	-11.022000	24.728575	0.001009	20.802284
930.281065	-3.007300	3.665400	-11.021000	24.729993	0.001008	20.791853
931.278018	-2.994600	3.666700	-10.978000	24.752973	0.001010	20.790258
932.282288	-3.009300	3.666300	-11.032000	24.756778	0.001007	20.784119
933.279970	-3.024400	3.665300	-11.083000	24.722585	0.001008	20.807652
934.278754	-3.009300	3.664300	-11.025000	24.730719	0.001010	20.794004
935.284241	-2.991900	3.665600	-10.965000	24.727088	0.001006	20.783247
936.280964	-2.987100	3.663500	-10.942000	24.740493	0.001005	20.781053
937.280468	-2.997300	3.664200	-10.982000	24.747680	0.001007	20.780679
938.284213	-2.990800	3.665000	-10.960000	24.779611	0.001005	20.772894
939.283803	-2.987000	3.664700	-10.944000	24.760911	0.001005	20.801069
940.286117	-2.994200	3.664200	-10.971000	24.750641	0.001005	20.781280
941.286154	-3.008000	3.661900	-11.013000	24.723811	0.001005	20.802244
942.284951	-2.985000	3.664100	-10.936000	24.698370	0.001004	20.770076
943.280213	-3.002000	3.661900	-10.992000	24.687826	0.001003	20.772772
944.282004	-3.004400	3.661500	-10.999000	24.724459	0.001003	20.778239
945.287662	-2.994100	3.663100	-10.966000	24.685018	0.001003	20.787498
946.280243	-3.005600	3.661000	-11.003000	24.675295	0.001004	20.791966
947.284084	-3.012500	3.661300	-11.029000	24.657092	0.001004	20.796460
948.283228	-2.974100	3.662700	-10.892000	24.656520	0.001004	20.790670
949.282966	-3.001000	3.661000	-10.985000	24.657143	0.001004	20.787976
950.288903	-3.015200	3.659900	-11.035000	24.675250	0.001004	20.784334
951.287568	-2.993000	3.659500	-10.950000	24.690122	0.001003	20.766067
952.283243	-2.999900	3.660600	-10.980000	24.675101	0.001001	20.780392
953.286247	-2.996300	3.660100	-10.964000	24.688258	0.001004	20.778422
954.292450	-3.007400	3.660900	-11.008000	24.674283	0.001001	20.789528
955.286232	-2.993700	3.659000	-10.953000	24.688283	0.001001	20.786982
956.286344	-2.985700	3.659800	-10.926000	24.696840	0.001000	20.767119
957.289020	-3.037000	3.659100	-11.111000	24.681720	0.000999	20.770912
958.285322	-3.010100	3.657300	-11.007000	24.661279	0.001000	20.756090
959.286691	-2.998300	3.659000	-10.969000	24.627729	0.001000	20.754193
960.289320	-3.002000	3.657800	-10.979000	24.621263	0.000998	20.779949
961.286053	-3.016900	3.657600	-11.033000	24.612510	0.000998	20.774010
962.290960	-2.987300	3.658300	-10.927000	24.594752	0.000999	20.747657
963.289648	-2.986300	3.658000	-10.923000	24.570007	0.000998	20.779253
964.288171	-3.005700	3.657600	-10.993000	24.578192	0.000997	20.750007
965.293150	-3.007200	3.656900	-10.996000	24.583240	0.000996	20.778306
966.288794	-3.003200	3.656200	-10.980000	24.625025	0.000997	20.764283
967.286283	-3.001400	3.656200	-10.972000	24.618783	0.000995	20.767977
968.287975	-3.014100	3.654500	-11.013000	24.616769	0.000995	20.775439
969.288804	-3.001300	3.656800	-10.975000	24.572997	0.000996	20.781305
970.290414	-3.000600	3.655400	-10.968000	24.588967	0.000995	20.779785
971.290876	-3.004900	3.656900	-10.988000	24.614114	0.000994	20.763291
972.290772	-3.007600	3.654300	-10.990000	24.600185	0.000993	20.769704
973.293044	-3.034600	3.653100	-11.085000	24.604689	0.000994	20.760472
974.288951	-2.996700	3.654300	-10.949000	24.607601	0.000993	20.746799
975.288143	-3.017800	3.653600	-11.025000	24.635035	0.000992	20.775275
976.287598	-3.008700	3.654200	-10.993000	24.652520	0.000991	20.763422
977.289228	-3.011800	3.652700	-11.000000	24.677864	0.000991	20.776052
978.290723	-3.023400	3.653600	-11.045000	24.674583	0.000992	20.767544
979.287779	-3.030400	3.652100	-11.066000	24.685203	0.000989	20.747854
980.290165	-2.996900	3.653000	-10.947000	24.703732	0.000991	20.743688
981.291476	-3.002700	3.651900	-10.965000	24.726638	0.000989	20.740121
982.287560	-2.999100	3.652700	-10.954000	24.720424	0.000991	20.727720
983.292713	-2.995400	3.651900	-10.939000	24.671681	0.000989	20.737603
984.288117	-3.001600	3.651300	-10.958000	24.667382	0.000992	20.740877
985.291562	-3.002300	3.650700	-10.958000	24.652785	0.000989	20.737135
986.296392	-3.013700	3.650700	-11.002000	24.648932	0.000989	20.737536
987.296078	-2.998100	3.650900	-10.945000	24.615707	0.000988	20.749242
988.288095	-3.007700	3.650300	-10.979000	24.608944	0.000989	20.743878
989.292070	-3.016800	3.650000	-11.009000	24.643716	0.000986	20.737518
990.296158	-2.994900	3.650500	-10.932000	24.661674	0.000986	20.751744
991.294030	-3.000800	3.649900	-10.951000	24.678861	0.000986	20.747180
992.295446	-3.011100	3.648900	-10.986000	24.675257	0.000985	20.738347
993.312318	-3.005000	3.649700	-10.966000	24.699902	0.000985	20.754544
994.287965	-2.989300	3.649200	-10.908000	24.686801	0.000983	20.726698
995.297696	-2.989500	3.648900	-10.907000	24.677751	0.000985	20.736582
996.293835	-2.984600	3.649700	-10.892000	24.681483	0.000984	20.731318
997.292645	-2.992100	3.649200	-10.918000	24.699416	0.000984	20.719916
998.298898	-2.978800	3.648900	-10.869000	24.705985	0.000983	20.713704
999.293611	-2.986500	3.647800	-10.892000	24.708722	0.000982	20.744428
1000.293925	-2.990500	3.648400	-10.910000	24.703676	0.000983	20.737942
1001.293055	-2.994100	3.647900	-10.922000	24.663316	0.000983	20.735373
1002.297187	-3.000100	3.647400	-10.941000	24.681124	0.000982	20.732855
1003.295817	-3.005500	3.646400	-10.958000	24.682594	0.000980	20.743339
1004.298669	-2.994300	3.647200	-10.920000	24.711942	0.000982	20.723477
1005.296852	-3.006800	3.647400	-10.965000	24.682377	0.000980	20.717516
1006.293621	-2.993900	3.646400	-10.916000	24.673674	0.000980	20.718265
1007.293153	-3.005500	3.644900	-10.953000	24.630675	0.000979	20.726328
1008.298998	-3.013400	3.645400	-10.984000	24.629734	0.000980	20.741506
1009.300253	-2.995300	3.644100	-10.913000	24.628368	0.000979	20.700778
1010.295256	-2.992000	3.644100	-10.901000	24.677387	0.000979	20.703973
1011.294523	-3.003600	3.644300	-10.944000	24.694130	0.000978	20.716507
1012.294855	-2.982100	3.645400	-10.870000	24.666575	0.000978	20.736747
1013.296025	-3.011900	3.643900	-10.974000	24.664538	0.000979	20.720003
1014.301787	-2.990500	3.645300	-10.900000	24.673045	0.000979	20.729963
1015.298494	-2.989800	3.644400	-10.896000	24.693516	0.000976	20.725849
1016.296756	-3.008600	3.643400	-10.961000	24.688894	0.000977	20.725478
1017.302207	-3.009900	3.644100	-10.967000	24.736692	0.000977	20.710854
1018.297810	-3.015600	3.642100	-10.982000	24.765790	0.000976	20.730099
1019.298096	-2.987600	3.644000	-10.885000	24.760075	0.000977	20.715828
1020.300514	-2.976000	3.643400	-10.842000	24.769651	0.000975	20.713109
1021.300570	-3.010600	3.640800	-10.959000	24.749360	0.000973	20.742061
1022.300677	-3.021900	3.639600	-10.997000	24.738148	0.000977	20.725118
1023.303022	-2.998200	3.641900	-10.918000	24.731984	0.000975	20.734580
1024.299490	-3.025100	3.641400	-11.014000	24.723556	0.000974	20.708104
1025.300973	-2.991000	3.641900	-10.891000	24.738655	0.000974	20.733214
1026.301812	-3.013000	3.640000	-10.965000	24.736667	0.000974	20.726952
1027.301012	-3.000500	3.640700	-10.923000	24.731546	0.000972	20.730347
1028.300260	-2.982100	3.640500	-10.855000	24.724338	0.000972	20.749193
1029.302962	-2.996700	3.639700	-10.905000	24.695071	0.000972	20.721245
1030.301059	-3.007300	3.638800	-10.943000	24.693832	0.000972	20.717157
1031.302425	-2.985600	3.639100	-10.864000	24.713780	0.000973	20.698766
1032.303344	-2.993500	3.639100	-10.893000	24.702119	0.000972	20.713619
1033.306920	-3.007600	3.637500	-10.938000	24.716470	0.000969	20.732288
1034.304837	-3.020100	3.638400	-10.987000	24.728411	0.000972	20.726727
1035.302866	-2.975800	3.638600	-10.827000	24.756640	0.000969	20.719968
1036.306180	-2.996800	3.638300	-10.903000	24.763682	0.000970	20.710912
1037.304020	-3.012700	3.636700	-10.956000	24.743690	0.000969	20.716929
1038.305760	-3.007000	3.636000	-10.933000	24.763117	0.000969	20.704655
1039.303682	-2.997900	3.638100	-10.905000	24.801614	0.000968	20.718160
1040.304933	-3.010000	3.636900	-10.946000	24.797663	0.000970	20.713246
1041.308545	-2.990200	3.636900	-10.875000	24.829719	0.000967	20.718391
1042.307595	-2.989200	3.635600	-10.867000	24.814479	0.000968	20.729175
1043.308419	-2.976400	3.636300	-10.822000	24.828062	0.000965	20.704398
1044.310323	-3.002500	3.635500	-10.915000	24.815383	0.000966	20.687405
1045.311598	-3.018900	3.634500	-10.971000	24.797753	0.000965	20.706698
1046.309362	-3.009000	3.635600	-10.938000	24.796043	0.000969	20.717784
1047.311109	-3.000200	3.635200	-10.905000	24.815269	0.000966	20.713371
1048.312455	-2.989500	3.634400	-10.864000	24.819300	0.000966	20.709830
1049.309414	-3.006300	3.632900	-10.921000	24.833950	0.000964	20.694660
1050.313136	-2.986000	3.635700	-10.855000	24.845814	0.000964	20.715578
1051.313474	-2.992300	3.633600	-10.872000	24.860214	0.000966	20.714382
1052.313515	-3.006000	3.633500	-10.920000	24.878719	0.000965	20.708773
1053.317397	-2.992800	3.634000	-10.875000	24.908486	0.000965	20.709251
1054.312698	-3.006600	3.632800	-10.921000	24.942922	0.000964	20.709675
1055.312796	-3.004100	3.631500	-10.909000	24.943351	0.000964	20.688293
1056.311441	-3.016800	3.632500	-10.958000	24.961180	0.000961	20.712354
1057.313290	-3.013700	3.630400	-10.940000	24.963820	0.000962	20.711685
1058.315092	-3.011400	3.631100	-10.934000	24.965464	0.000961	20.721870
1059.313212	-3.013600	3.631700	-10.942000	24.960196	0.000964	20.730333
1060.312100	-3.002800	3.630100	-10.900000	24.945182	0.000963	20.710047
1061.311932	-3.000100	3.631200	-10.892000	24.935488	0.000960	20.731613
1062.314086	-2.993400	3.630700	-10.867000	24.927063	0.000959	20.700869
1063.314451	-2.989800	3.629500	-10.849000	24.930050	0.000962	20.719041
1064.313821	-3.000800	3.630800	-10.893000	24.945668	0.000960	20.701999
1065.318979	-2.976700	3.630800	-10.806000	24.937021	0.000958	20.720348
1066.316735	-3.002400	3.630000	-10.898000	24.967951	0.000958	20.701132
1067.314600	-2.996000	3.629200	-10.871000	24.959054	0.000960	20.707849
1068.322132	-2.996200	3.628400	-10.870000	24.995133	0.000956	20.700914
1069.317807	-3.001400	3.629100	-10.891000	24.975994	0.000957	20.721060
1070.318331	-2.998600	3.628100	-10.877000	24.962920	0.000957	20.731645
1071.319162	-2.988700	3.628500	-10.843000	24.962551	0.000958	20.718472
1072.317631	-2.995400	3.629600	-10.870000	24.942788	0.000957	20.710015
1073.317106	-3.009200	3.627800	-10.915000	24.875437	0.000958	20.715910
1074.318640	-2.983000	3.626600	-10.816000	24.830755	0.000955	20.714214
1075.318162	-3.003300	3.625500	-10.887000	24.845059	0.000956	20.720984
1076.320071	-2.996800	3.626400	-10.867000	24.814279	0.000954	20.709059
1077.321407	-3.015700	3.626200	-10.934000	24.852152	0.000953	20.715774
1078.319263	-3.015600	3.626600	-10.935000	24.837958	0.000954	20.712908
1079.319469	-3.029600	3.624600	-10.979000	24.843134	0.000952	20.726165
1080.320523	-3.011500	3.625800	-10.918000	24.828668	0.000952	20.729190
1081.320301	-3.022600	3.624800	-10.955000	24.831480	0.000952	20.705458
1082.321454	-3.008100	3.625300	-10.904000	24.864481	0.000951	20.719140
1083.323905	-2.984400	3.624500	-10.816000	24.892881	0.000952	20.714452
1084.323372	-2.996500	3.624000	-10.858000	24.914045	0.000951	20.724315
1085.319992	-3.013900	3.623100	-10.918000	24.896347	0.000950	20.706077
1086.320508	-3.023000	3.624100	-10.954000	24.911843	0.000950	20.720681
1087.322812	-3.005300	3.623700	-10.889000	24.949316	0.000948	20.703764
1088.320615	-3.006300	3.622900	-10.890000	24.929452	0.000949	20.708009
1089.326580	-2.991000	3.623900	-10.838000	24.905836	0.000947	20.707540
1090.324134	-3.018100	3.621400	-10.927000	24.887837	0.000949	20.725511
1091.320882	-3.012400	3.622700	-10.911000	24.892568	0.000947	20.719354
1092.322213	-3.001800	3.622700	-10.874000	24.884615	0.000947	20.705681
1093.323918	-3.023200	3.620500	-10.944000	24.878627	0.000945	20.721957
1094.323328	-3.008800	3.620100	-10.892000	24.923289	0.000947	20.725532
1095.327079	-2.999800	3.621600	-10.862000	24.892084	0.000944	20.725981
1096.325062	-3.014400	3.621100	-10.915000	24.930181	0.000946	20.742408
1097.322531	-3.014300	3.621300	-10.915000	24.965594	0.000946	20.726268
1098.325906	-2.990900	3.621200	-10.828000	24.975269	0.000947	20.710848
1099.329263	-3.012000	3.619400	-10.900000	24.998121	0.000943	20.731891
1100.322711	-2.994600	3.620800	-10.842000	24.989796	0.000945	20.706463
1101.327809	-3.037500	3.619300	-10.992000	24.991267	0.000945	20.714579
1102.329107	-3.024800	3.618600	-10.943000	25.010862	0.000943	20.722394
1103.327838	-3.027600	3.618900	-10.955000	25.026233	0.000943	20.715062
1104.326123	-3.003000	3.618700	-10.866000	24.998043	0.000943	20.719484
1105.329916	-2.997400	3.619000	-10.846000	25.004340	0.000941	20.711579
1106.325691	-3.047300	3.616400	-11.018000	25.037482	0.000940	20.729201
1107.329359	-2.993800	3.618100	-10.831000	25.027642	0.000940	20.720270
1108.327829	-3.026900	3.615300	-10.942000	25.038810	0.000941	20.734801
1109.325753	-2.995900	3.619000	-10.840000	25.030587	0.000941	20.706156
1110.330594	-3.013500	3.617500	-10.900000	25.022759	0.000941	20.713473
1111.330260	-3.027900	3.615900	-10.947000	25.021048	0.000939	20.723609
1112.329651	-3.002900	3.617700	-10.862000	25.023217	0.000937	20.730054
1113.332968	-2.996200	3.616800	-10.834000	25.059893	0.000939	20.707124
1114.328536	-3.011300	3.615700	-10.886000	25.050000	0.000938	20.727067
1115.330977	-3.010900	3.615100	-10.884000	25.032429	0.000935	20.717015
1116.329101	-2.974600	3.616700	-10.755000	25.073329	0.000937	20.719664
1117.330616	-3.010400	3.615200	-10.881000	25.049394	0.000937	20.727407
1118.328818	-3.017700	3.615000	-10.907000	25.052357	0.000936	20.720424
1119.332014	-3.026900	3.614400	-10.938000	25.060763	0.000936	20.714163
1120.335886	-3.016200	3.612300	-10.894000	25.075136	0.000935	20.733808
1121.331460	-2.998500	3.613700	-10.834000	25.084885	0.000936	20.710402
1122.333971	-2.983500	3.615200	-10.784000	25.090212	0.000934	20.721440
1123.335898	-3.000700	3.613800	-10.843000	25.081166	0.000933	20.735119
1124.332149	-2.972600	3.613800	-10.741000	25.111499	0.000932	20.712937
1125.332407	-2.981600	3.614100	-10.773000	25.098205	0.000933	20.717609
1126.331704	-2.971200	3.613100	-10.734000	25.113248	0.000933	20.736505
1127.334061	-3.027000	3.612100	-10.933000	25.123721	0.000932	20.736587
1128.333942	-3.005600	3.612000	-10.855000	25.116589	0.000931	20.735117
1129.332207	-2.990200	3.612100	-10.801000	25.134365	0.000933	20.729253
1130.333611	-2.972900	3.613700	-10.742000	25.111649	0.000933	20.743434
1131.336464	-2.992500	3.611500	-10.807000	25.129701	0.000931	20.731210
1132.334674	-2.970700	3.613000	-10.732000	25.138730	0.000930	20.742645
1133.333495	-2.977500	3.612700	-10.755000	25.100647	0.000931	20.748037
1134.333771	-2.971500	3.610800	-10.728000	25.119447	0.000929	20.737512
1135.334203	-3.000400	3.609200	-10.828000	25.133548	0.000930	20.736494
1136.334679	-3.001600	3.608700	-10.831000	25.101534	0.000930	20.717157
1137.338835	-3.002700	3.609500	-10.837000	25.086792	0.000929	20.729387
1138.335198	-3.009200	3.609100	-10.859000	25.076156	0.000929	20.734831
1139.335482	-2.993700	3.609600	-10.805000	25.069571	0.000928	20.726798
1140.335241	-2.979700	3.608400	-10.750000	25.080390	0.000928	20.745721
1141.335190	-2.996700	3.608500	-10.813000	25.055856	0.000928	20.728678
1142.334544	-2.993000	3.608700	-10.800000	25.078009	0.000926	20.735269
1143.337124	-2.989000	3.608000	-10.783000	25.053227	0.000927	20.744532
1144.334053	-2.993900	3.607800	-10.798000	25.061337	0.000925	20.734180
1145.341914	-3.010100	3.607800	-10.858000	25.052538	0.000926	20.709225
1146.338215	-3.004500	3.607000	-10.836000	25.016465	0.000925	20.738450
1147.339334	-2.995300	3.606600	-10.800000	25.008339	0.000924	20.753527
1148.342309	-3.005600	3.606700	-10.839000	25.011003	0.000924	20.757624
1149.337755	-2.987500	3.607500	-10.776000	25.013911	0.000924	20.740628
1150.340079	-2.981900	3.607600	-10.756000	25.049168	0.000923	20.730500
1151.338508	-2.974700	3.606500	-10.727000	25.085514	0.000921	20.754183
1152.341643	-3.003900	3.605600	-10.830000	25.100039	0.000921	20.727985
1153.339781	-2.992400	3.607000	-10.793000	25.108442	0.000921	20.723144
1154.339192	-3.001700	3.605900	-10.822000	25.090496	0.000922	20.768668
1155.339150	-3.002000	3.604700	-10.820000	25.057434	0.000921	20.747807
1156.338392	-3.012800	3.602900	-10.854000	25.039012	0.000920	20.753497
1157.337435	-3.009000	3.603400	-10.842000	25.030639	0.000921	20.756472
1158.338531	-2.987100	3.603900	-10.764000	25.014630	0.000921	20.756524
1159.338531	-2.993600	3.604300	-10.789000	25.020447	0.000919	20.738180
1160.339531	-2.997300	3.602300	-10.796000	25.015751	0.000918	20.745320
1161.342531	-2.980600	3.602700	-10.737000	25.031441	0.000919	20.768657
1162.341531	-2.995800	3.601600	-10.789000	25.054617	0.000917	20.766790
1163.341806	-3.011000	3.601000	-10.842000	25.069163	0.000918	20.750098
1164.345125	-2.988600	3.601300	-10.762000	25.102626	0.000918	20.770887
1165.342340	-3.023200	3.599400	-10.880000	25.105490	0.000916	20.770917
1166.343871	-3.000100	3.601000	-10.802000	25.127244	0.000914	20.738227
1167.347219	-2.994000	3.600300	-10.778000	25.155784	0.000915	20.742696
1168.345221	-2.985700	3.600600	-10.749000	25.174382	0.000914	20.738608
1169.345653	-3.021900	3.598700	-10.874000	25.176425	0.000913	20.739236
1170.348607	-3.001800	3.600900	-10.808000	25.155021	0.000914	20.754258
1171.346257	-2.980800	3.599700	-10.728000	25.167806	0.000914	20.773732
1172.346877	-3.000400	3.598600	-10.796000	25.166694	0.000912	20.772616
1173.348612	-2.995500	3.597900	-10.776000	25.161672	0.000914	20.770893
1174.346611	-2.987700	3.599100	-10.752000	25.194414	0.000911	20.768202
1175.347073	-2.970400	3.599200	-10.689000	25.193201	0.000912	20.745646
1176.349456	-2.971300	3.597800	-10.689000	25.210382	0.000912	20.770008
1177.347592	-3.012500	3.596900	-10.835000	25.230668	0.000910	20.770935
1178.347168	-2.989600	3.597600	-10.754000	25.245762	0.000910	20.762855
1179.347950	-2.994600	3.597300	-10.771000	25.240842	0.000911	20.776881
1180.346683	-2.983500	3.597300	-10.732000	25.242712	0.000910	20.774966
1181.346179	-2.993900	3.597100	-10.768000	25.225092	0.000911	20.760595
1182.348444	-2.991300	3.595000	-10.752000	25.169120	0.000908	20.756085
1183.347445	-3.005300	3.595500	-10.804000	25.136657	0.000908	20.772334
1184.349258	-3.005300	3.595400	-10.803000	25.130995	0.000906	20.779926
1185.350861	-3.010300	3.594500	-10.820000	25.147384	0.000908	20.787370
1186.349200	-3.009600	3.595100	-10.818000	25.125210	0.000908	20.759419
1187.348799	-3.004400	3.593900	-10.796000	25.129417	0.000908	20.781187
1188.350285	-3.034900	3.592600	-10.901000	25.147170	0.000907	20.780517
1189.350730	-3.028200	3.592100	-10.875000	25.151995	0.000906	20.780145
1190.348675	-3.015600	3.592200	-10.831000	25.130126	0.000906	20.799443
1191.351625	-3.004800	3.592600	-10.794000	25.176789	0.000904	20.757620
1192.355010	-2.981600	3.591700	-10.708000	25.207813	0.000906	20.772645
1193.359107	-2.982200	3.592600	-10.713000	25.196484	0.000905	20.763167
1194.354745	-2.977900	3.592400	-10.696000	25.226318	0.000904	20.786482
1195.352137	-2.999000	3.592000	-10.771000	25.224431	0.000902	20.783166
1196.352067	-2.991200	3.593200	-10.747000	25.245712	0.000903	20.776555
1197.351900	-2.989900	3.591500	-10.738000	25.183447	0.000903	20.779952
1198.357504	-2.991000	3.591500	-10.741000	25.214847	0.000902	20.787293
1199.351740	-3.006400	3.590500	-10.794000	25.207416	0.000901	20.757548
1200.354969	-2.992300	3.591500	-10.746000	25.195961	0.000901	20.765962
1201.352745	-2.996300	3.590600	-10.757000	25.182517	0.000901	20.772380
1202.352562	-2.980000	3.590100	-10.697000	25.179613	0.000899	20.788430
1203.354658	-2.986800	3.590100	-10.721000	25.174445	0.000899	20.787510
1204.353908	-2.990600	3.589400	-10.733000	25.182455	0.000899	20.762360
1205.353796	-3.001300	3.588900	-10.770000	25.200427	0.000900	20.777558
1206.353739	-2.995900	3.588000	-10.749000	25.228919	0.000897	20.777239
1207.355935	-3.002100	3.588300	-10.771000	25.230064	0.000897	20.784553
1208.352764	-3.007200	3.586500	-10.784000	25.215849	0.000898	20.790670
1209.352522	-3.009500	3.588000	-10.796000	25.212324	0.000898	20.795666
1210.355524	-2.998800	3.587900	-10.759000	25.194679	0.000897	20.788857
1211.354147	-3.008600	3.585400	-10.785000	25.167240	0.000897	20.789285
1212.353114	-3.003900	3.586200	-10.771000	25.167913	0.000895	20.811772
1213.355026	-2.994100	3.586700	-10.739000	25.158642	0.000896	20.785870
1214.353477	-3.013800	3.586600	-10.808000	25.134684	0.000894	20.791690
1215.352902	-2.991300	3.586100	-10.726000	25.115346	0.000895	20.795037
1216.357219	-3.008900	3.585000	-10.784000	25.132325	0.000898	20.817771
1217.353395	-2.992000	3.585100	-10.726000	25.144630	0.000894	20.807365
1218.353289	-3.017600	3.583700	-10.813000	25.197680	0.000894	20.799930
1219.354079	-3.013800	3.584400	-10.802000	25.232308	0.000896	20.820945
1220.357662	-3.010400	3.584500	-10.789000	25.251054	0.000895	20.793772
1221.355516	-3.000000	3.583400	-10.749000	25.242405	0.000895	20.803581
1222.355257	-3.017000	3.583600	-10.811000	25.234771	0.000894	20.804452
1223.355832	-2.986700	3.583900	-10.703000	25.242877	0.000893	20.791727
1224.353681	-3.019400	3.581400	-10.812000	25.256696	0.000895	20.790429
1225.355560	-2.988200	3.582700	-10.705000	25.261542	0.000893	20.789604
1226.354234	-3.004400	3.581900	-10.761000	25.277377	0.000894	20.823520
1227.366483	-3.019300	3.581000	-10.810000	25.277204	0.000891	20.795372
1228.356967	-3.016800	3.580400	-10.801000	25.279115	0.000892	20.794445
1229.357558	-3.020000	3.581400	-10.815000	25.265468	0.000891	20.814409
1230.359408	-2.999100	3.580000	-10.735000	25.227190	0.000891	20.819125
1231.359641	-2.979300	3.581700	-10.670000	25.188360	0.000889	20.820446
1232.361036	-2.993100	3.580500	-10.714000	25.173565	0.000890	20.827877
1233.359766	-2.984400	3.580800	-10.686000	25.184199	0.000890	20.812001
1234.359347	-2.974100	3.581300	-10.650000	25.198044	0.000888	20.799822
1235.361269	-2.992200	3.579300	-10.709000	25.206246	0.000890	20.817065
1236.361243	-3.017300	3.578200	-10.795000	25.216809	0.000891	20.817712
1237.361845	-3.008300	3.578900	-10.765000	25.214889	0.000889	20.828113
1238.362289	-3.000200	3.579300	-10.737000	25.174222	0.000889	20.848451
1239.359624	-2.999400	3.577600	-10.729000	25.180853	0.000888	20.828556
1240.362098	-2.995600	3.577800	-10.717000	25.172697	0.000889	20.827955
1241.362630	-2.979400	3.579900	-10.664000	25.168490	0.000890	20.823731
1242.362875	-3.002600	3.577700	-10.740000	25.151632	0.000888	20.845687
1243.362349	-2.996400	3.576600	-10.716000	25.171466	0.000886	20.816761
1244.365016	-3.013000	3.577100	-10.777000	25.210238	0.000886	20.822020
1245.364653	-2.997900	3.578300	-10.726000	25.229326	0.000886	20.821270
1246.366451	-3.011900	3.576100	-10.770000	25.230910	0.000885	20.822386
1247.368144	-2.998600	3.576800	-10.724000	25.229666	0.000884	20.810706
1248.367885	-2.969600	3.576200	-10.619000	25.250764	0.000883	20.837103
1249.370489	-3.000100	3.575800	-10.727000	25.260278	0.000882	20.829586
1250.370936	-2.987300	3.575300	-10.679000	25.252864	0.000883	20.829728
1251.367939	-2.995000	3.574500	-10.705000	25.240137	0.000882	20.840658
1252.372458	-3.009400	3.574000	-10.755000	25.251642	0.000880	20.818544
1253.375487	-3.004800	3.575200	-10.741000	25.205155	0.000882	20.817392
1254.369478	-3.007200	3.572700	-10.743000	25.220712	0.000880	20.828743
1255.372642	-3.006400	3.573000	-10.740000	25.247206	0.000882	20.821204
1256.374899	-2.984000	3.573700	-10.663000	25.249167	0.000878	20.811318
1257.368782	-2.996900	3.574100	-10.710000	25.257217	0.000879	20.818926
1258.371842	-3.007100	3.572700	-10.742000	25.280207	0.000877	20.805973
1259.373632	-3.007600	3.572300	-10.742000	25.258705	0.000877	20.804299
1260.369253	-2.990900	3.572300	-10.684000	25.262801	0.000878	20.825481
1261.371787	-2.997000	3.572200	-10.704000	25.265459	0.000877	20.825779
1262.372905	-2.989400	3.572500	-10.678000	25.256384	0.000876	20.812401
1263.371861	-3.018200	3.570100	-10.773000	25.270676	0.000874	20.825326
1264.372543	-2.992100	3.572500	-10.688000	25.283948	0.000874	20.810203
1265.374218	-3.013400	3.569600	-10.756000	25.282899	0.000875	20.804883
1266.374388	-2.992400	3.570800	-10.684000	25.265725	0.000875	20.813718
1267.374427	-2.992300	3.570400	-10.682000	25.274544	0.000874	20.821150
1268.374928	-2.994700	3.571100	-10.693000	25.260598	0.000873	20.809993
1269.373681	-3.000100	3.569300	-10.708000	25.262163	0.000874	20.804927
1270.375826	-3.011500	3.569200	-10.747000	25.270466	0.000871	20.802831
1271.377287	-3.006100	3.568800	-10.728000	25.231864	0.000872	20.825240
1272.373147	-3.006100	3.569600	-10.728000	25.226691	0.000873	20.811512
1273.376347	-2.975900	3.568500	-10.619000	25.200687	0.000872	20.812433
1274.377248	-3.000700	3.567800	-10.706000	25.214831	0.000870	20.827580
1275.375101	-2.963800	3.568900	-10.577000	25.214186	0.000869	20.816976
1276.378999	-3.003000	3.566600	-10.710000	25.220076	0.000867	20.810087
1277.378104	-3.013800	3.565400	-10.744000	25.238593	0.000870	20.809238
1278.376100	-3.002000	3.566600	-10.705000	25.235285	0.000868	20.827726
1279.376859	-3.004200	3.566200	-10.712000	25.215347	0.000868	20.805339
1280.375933	-3.009200	3.565400	-10.728000	25.197425	0.000865	20.828597
1281.376243	-3.002500	3.565600	-10.703000	25.152529	0.000864	20.820035
1282.375643	-3.012700	3.565500	-10.740000	25.147089	0.000867	20.822161
1283.375863	-3.016700	3.565200	-10.754000	25.193320	0.000867	20.816890
1284.376621	-3.019100	3.564300	-10.759000	25.162694	0.000865	20.791834
1285.376554	-2.984500	3.565200	-10.640000	25.163812	0.000863	20.821405
1286.377832	-3.002800	3.563900	-10.701000	25.169331	0.000866	20.811773
1287.377056	-2.996200	3.564300	-10.679000	25.165451	0.000862	20.807404
1288.377405	-3.023900	3.563200	-10.774000	25.146287	0.000861	20.802864
1289.379021	-2.984900	3.562900	-10.634000	25.174919	0.000863	20.789408
1290.380016	-3.005500	3.563100	-10.707000	25.206165	0.000862	20.801810
1291.378816	-3.016000	3.561500	-10.740000	25.213471	0.000861	20.789706
1292.377773	-2.991400	3.562700	-10.655000	25.193289	0.000862	20.805005
1293.379458	-3.009000	3.561300	-10.715000	25.195870	0.000861	20.811864
1294.380014	-3.002000	3.563000	-10.695000	25.202779	0.000861	20.790351
1295.378908	-2.999300	3.562000	-10.682000	25.199525	0.000859	20.802257
1296.379406	-3.000300	3.560300	-10.680000	25.230369	0.000858	20.790549
1297.381445	-2.995100	3.561000	-10.664000	25.258505	0.000857	20.793667
1298.381227	-2.984000	3.560800	-10.625000	25.282417	0.000857	20.811985
1299.382242	-3.018600	3.558700	-10.740000	25.312174	0.000856	20.802508
1300.382183	-2.992400	3.559400	-10.651000	25.315227	0.000854	20.817901
1301.381891	-2.987500	3.559700	-10.634000	25.334888	0.000856	20.807296
1302.382100	-3.002200	3.559000	-10.683000	25.356487	0.000853	20.801482
1303.383135	-3.002600	3.558400	-10.684000	25.364540	0.000856	20.793921
1304.385391	-3.004300	3.559200	-10.691000	25.361956	0.000854	20.781843
1305.382676	-3.004700	3.557700	-10.689000	25.350697	0.000853	20.805626
1306.385631	-3.003100	3.557900	-10.684000	25.346422	0.000854	20.796592
1307.386431	-3.011000	3.557800	-10.711000	25.374036	0.000852	20.785438
1308.386267	-2.981700	3.557800	-10.606000	25.353511	0.000853	20.795175
1309.387171	-3.006700	3.557200	-10.693000	25.344712	0.000850	20.806728
1310.387556	-2.982800	3.557400	-10.610000	25.342129	0.000852	20.789910
1311.384927	-3.000500	3.555600	-10.667000	25.345314	0.000850	20.798324
1312.383996	-3.006400	3.556000	-10.690000	25.317103	0.000849	20.799396
1313.387840	-3.021200	3.555000	-10.739000	25.323618	0.000851	20.772747
1314.385618	-2.987200	3.555800	-10.621000	25.305303	0.000848	20.787074
1315.385762	-2.992400	3.555600	-10.639000	25.344199	0.000846	20.776342
1316.388216	-3.000000	3.555700	-10.666000	25.312985	0.000847	20.776295
1317.385939	-3.005200	3.556500	-10.686000	25.275307	0.000848	20.800105
1318.385067	-3.002800	3.555100	-10.674000	25.254181	0.000848	20.798809
1319.386471	-2.978100	3.554400	-10.584000	25.253758	0.000847	20.785582
1320.385223	-2.985000	3.554100	-10.607000	25.269374	0.000844	20.771388
1321.385149	-2.977400	3.554700	-10.583000	25.307055	0.000848	20.790255
1322.387844	-3.026300	3.551700	-10.748000	25.308870	0.000844	20.774534
1323.386974	-2.976400	3.553500	-10.576000	25.324704	0.000843	20.784742
1324.385051	-2.980400	3.552400	-10.587000	25.368973	0.000846	20.774189
1325.386679	-2.991000	3.553600	-10.627000	25.378963	0.000843	20.760987
1326.383644	-2.991400	3.552000	-10.625000	25.359926	0.000844	20.787866
1327.388645	-2.954700	3.553900	-10.500000	25.361392	0.000841	20.774165
1328.390582	-2.992200	3.550800	-10.624000	25.330599	0.000842	20.773591
1329.393556	-3.051200	3.548600	-10.826000	25.278031	0.000842	20.764908
1330.385017	-3.005900	3.548700	-10.666000	25.255116	0.000843	20.776514
1331.393893	-2.964500	3.551500	-10.526000	25.206845	0.000840	20.785898
1332.388790	-2.999600	3.549600	-10.647000	25.194293	0.000841	20.774245
1333.389431	-2.973400	3.549100	-10.552000	25.222309	0.000837	20.771078
1334.390887	-3.012500	3.547800	-10.687000	25.235382	0.000840	20.776142
1335.389452	-2.990000	3.549500	-10.612000	25.232601	0.000838	20.774297
1336.388624	-3.008500	3.548800	-10.676000	25.222211	0.000837	20.765288
1337.390728	-2.994300	3.547700	-10.622000	25.247812	0.000836	20.769655
1338.388715	-3.016100	3.547600	-10.699000	25.237972	0.000835	20.769732
1339.388648	-3.011400	3.546600	-10.679000	25.250201	0.000836	20.763993
1340.390502	-3.021600	3.546400	-10.715000	25.269737	0.000834	20.752786
1341.389322	-2.995600	3.547000	-10.624000	25.254029	0.000834	20.761197
1342.389242	-3.003300	3.547100	-10.652000	25.272573	0.000833	20.784084
1343.392816	-3.016200	3.546700	-10.697000	25.293282	0.000834	20.772159
1344.387827	-2.987900	3.546200	-10.595000	25.309912	0.000832	20.763726
1345.389987	-3.029300	3.543900	-10.733000	25.287941	0.000832	20.790505
1346.393443	-3.011100	3.546500	-10.678000	25.339635	0.000833	20.770811
1347.389440	-2.949500	3.546000	-10.458000	25.334990	0.000829	20.759508
1348.390002	-2.991900	3.543900	-10.601000	25.340586	0.000831	20.763230
1349.396147	-2.999600	3.546200	-10.635000	25.335243	0.000831	20.752175
1350.390794	-3.015900	3.544000	-10.687000	25.374712	0.000830	20.763357
1351.392447	-2.990000	3.544400	-10.596000	25.414427	0.000831	20.763406
1352.393913	-3.000400	3.542400	-10.627000	25.397183	0.000828	20.750833
1353.389918	-3.019700	3.543100	-10.697000	25.419056	0.000830	20.752407
1354.389867	-2.996000	3.542700	-10.613000	25.438018	0.000829	20.772397
1355.392814	-2.985200	3.542300	-10.573000	25.393659	0.000827	20.778589
1356.389102	-3.008500	3.542700	-10.655000	25.408945	0.000827	20.765963
1357.392448	-3.009600	3.542200	-10.660000	25.406436	0.000829	20.769607
1358.393017	-2.983000	3.543700	-10.569000	25.429796	0.000827	20.726207
1359.392600	-3.003300	3.540300	-10.631000	25.428135	0.000827	20.773853
1360.391445	-3.009600	3.540300	-10.653000	25.467225	0.000828	20.759052
1361.395160	-3.001300	3.540900	-10.626000	25.478804	0.000827	20.730849
1362.393652	-3.010400	3.539100	-10.653000	25.490957	0.000827	20.758227
1363.392334	-3.011100	3.540400	-10.660000	25.494604	0.000828	20.777064
1364.393950	-2.998800	3.540000	-10.615000	25.469981	0.000826	20.754233
1365.393476	-3.000800	3.539600	-10.621000	25.447514	0.000825	20.736886
1366.392540	-3.016000	3.538600	-10.672000	25.430836	0.000826	20.741002
1367.395799	-3.011100	3.537800	-10.652000	25.393779	0.000824	20.761640
1368.403526	-3.014000	3.538800	-10.665000	25.377570	0.000823	20.753898
1369.395691	-3.015400	3.537600	-10.666000	25.359400	0.000826	20.758414
1370.397627	-3.019700	3.536000	-10.676000	25.357530	0.000823	20.758433
1371.395676	-3.000100	3.537900	-10.613000	25.397520	0.000823	20.760181
1372.394838	-3.013200	3.536900	-10.656000	25.399055	0.000825	20.767885
1373.397974	-3.003100	3.537100	-10.621000	25.418044	0.000822	20.752814
1374.396861	-3.025300	3.535200	-10.695000	25.399052	0.000822	20.752709
1375.395748	-3.005400	3.536200	-10.627000	25.381799	0.000822	20.746765
1376.399496	-3.007600	3.535000	-10.631000	25.379636	0.000822	20.736057
1377.398019	-2.988400	3.536500	-10.567000	25.394790	0.000822	20.753646
1378.395912	-2.990700	3.534500	-10.570000	25.370254	0.000823	20.748923
1379.400606	-3.011900	3.535500	-10.647000	25.325859	0.000821	20.742279
1380.400543	-3.004500	3.533500	-10.616000	25.308534	0.000822	20.759972
1381.396050	-2.985800	3.535600	-10.554000	25.301621	0.000822	20.753030
1382.398832	-3.000200	3.534300	-10.603000	25.323588	0.000818	20.737627
1383.399501	-3.006900	3.534300	-10.625000	25.333716	0.000819	20.756806
1384.397569	-2.983500	3.533400	-10.541000	25.333911	0.000818	20.738509
1385.398107	-2.962800	3.534100	-10.470000	25.361744	0.000819	20.750810
1386.397858	-2.981800	3.532800	-10.533000	25.348939	0.000818	20.746961
1387.397974	-2.999300	3.531900	-10.593000	25.330465	0.000816	20.759706
1388.397983	-3.023900	3.531000	-10.676000	25.327875	0.000814	20.755683
1389.402812	-3.008900	3.531400	-10.625000	25.368827	0.000813	20.758396
1390.405095	-2.998500	3.531300	-10.588000	25.373074	0.000816	20.756022
1391.398375	-3.016300	3.530600	-10.648000	25.384797	0.000815	20.762104
1392.399386	-2.997000	3.531700	-10.584000	25.365631	0.000815	20.749497
1393.399858	-3.002500	3.529100	-10.595000	25.363212	0.000815	20.744223
1394.400716	-3.006400	3.529100	-10.609000	25.368226	0.000814	20.762534
1395.400236	-3.011300	3.530900	-10.632000	25.336804	0.000810	20.757062
1396.402512	-2.998100	3.529700	-10.580000	25.333792	0.000812	20.767314
1397.399909	-3.002600	3.529900	-10.598000	25.334083	0.000811	20.758123
1398.402488	-3.016500	3.528700	-10.643000	25.394769	0.000811	20.741770
1399.400696	-3.009800	3.527700	-10.616000	25.383331	0.000809	20.772960
1400.403816	-2.990700	3.529100	-10.552000	25.377662	0.000811	20.751146
1401.401513	-3.001000	3.528600	-10.588000	25.422637	0.000808	20.757900
1402.405018	-2.991100	3.528500	-10.553000	25.420496	0.000807	20.758595
1403.405805	-3.009500	3.528500	-10.617000	25.391961	0.000805	20.767874
1404.405221	-3.002300	3.527500	-10.590000	25.446681	0.000807	20.766397
1405.404293	-3.006100	3.526000	-10.599000	25.468445	0.000806	20.749371
1406.405775	-2.992600	3.525400	-10.548000	25.468245	0.000804	20.750593
1407.406378	-3.009600	3.525500	-10.609000	25.462971	0.000803	20.744823
1408.406883	-2.996000	3.526300	-10.564000	25.481082	0.000803	20.772967
1409.403435	-3.006700	3.524200	-10.595000	25.496809	0.000802	20.788761
1410.408894	-2.996000	3.524600	-10.559000	25.431050	0.000802	20.758288
1411.405108	-3.015500	3.524500	-10.626000	25.399282	0.000800	20.763372
1412.404695	-2.985900	3.524500	-10.523000	25.373829	0.000801	20.741133
1413.408792	-3.003300	3.522800	-10.578000	25.353993	0.000801	20.764839
1414.406127	-2.989700	3.524100	-10.535000	25.339475	0.000800	20.762589
1415.409068	-3.009300	3.521600	-10.597000	25.326722	0.000801	20.762112
1416.412084	-2.995600	3.523000	-10.553000	25.297191	0.000798	20.750479
1417.407920	-3.016600	3.522600	-10.626000	25.257744	0.000797	20.761608
1418.408902	-2.989400	3.522700	-10.530000	25.276160	0.000797	20.753071
1419.411642	-2.999300	3.521400	-10.561000	25.302254	0.000796	20.751770
1420.408521	-2.997800	3.522600	-10.559000	25.310134	0.000797	20.779597
1421.409994	-2.995300	3.521500	-10.546000	25.307845	0.000797	20.751219
1422.412839	-2.983800	3.522900	-10.511000	25.312317	0.000795	20.749545
1423.412755	-3.012400	3.520300	-10.603000	25.279856	0.000795	20.768162
1424.409049	-2.983900	3.520600	-10.504000	25.265463	0.000794	20.760824
1425.410752	-2.988800	3.520000	-10.520000	25.247143	0.000793	20.768035
1426.409434	-2.991900	3.520600	-10.532000	25.275724	0.000794	20.755004
1427.413058	-2.995100	3.519500	-10.540000	25.318251	0.000795	20.761193
1428.412221	-2.999100	3.518000	-10.550000	25.368752	0.000795	20.763537
1429.411620	-3.014200	3.518900	-10.604000	25.396487	0.000795	20.752504
1430.412850	-2.980900	3.519300	-10.489000	25.384978	0.000794	20.765605
1431.415496	-2.998500	3.518300	-10.549000	25.406022	0.000793	20.756863
1432.412843	-2.996800	3.518800	-10.544000	25.432861	0.000793	20.762477
1433.411771	-3.008300	3.516400	-10.577000	25.444238	0.000791	20.762047
1434.418633	-2.998700	3.516300	-10.544000	25.453432	0.000793	20.749942
1435.413096	-3.003900	3.517000	-10.563000	25.462252	0.000791	20.759748
1436.414119	-2.992900	3.517600	-10.526000	25.454195	0.000790	20.757822
1437.417932	-3.028600	3.516700	-10.650000	25.475962	0.000789	20.754550
1438.417150	-3.032500	3.514000	-10.655000	25.491317	0.000790	20.747209
1439.415097	-3.012400	3.515300	-10.588000	25.428937	0.000788	20.749053
1440.417101	-3.016600	3.516100	-10.606000	25.428586	0.000788	20.748227
1441.416924	-3.024200	3.513000	-10.624000	25.406190	0.000786	20.764619
1442.416300	-2.998900	3.514500	-10.537000	25.376911	0.000785	20.762246
1443.419143	-3.014300	3.513300	-10.588000	25.339304	0.000785	20.757201
1444.416869	-2.999700	3.513800	-10.540000	25.358289	0.000786	20.742599
1445.416140	-2.988100	3.515300	-10.502000	25.362784	0.000785	20.759441
1446.423423	-2.983300	3.515700	-10.486000	25.387859	0.000783	20.744788
1447.424078	-2.984800	3.514300	-10.488000	25.401649	0.000784	20.744885
1448.416664	-3.005200	3.511000	-10.549000	25.417452	0.000784	20.761702
1449.416554	-3.008700	3.511500	-10.563000	25.441380	0.000782	20.780515
1450.421241	-2.997100	3.511700	-10.522000	25.421867	0.000784	20.759498
1451.416003	-3.004300	3.511900	-10.550000	25.394351	0.000783	20.782603
1452.426104	-2.996200	3.511900	-10.521000	25.397877	0.000784	20.759590
1453.420515	-3.003300	3.509400	-10.539000	25.420216	0.000783	20.775384
1454.416769	-3.015600	3.509900	-10.583000	25.392577	0.000782	20.765174
1455.420829	-2.976100	3.510600	-10.447000	25.356162	0.000783	20.771284
1456.424204	-3.001800	3.508900	-10.532000	25.350169	0.000782	20.765740
1457.421542	-3.000900	3.509400	-10.531000	25.333686	0.000782	20.767682
1458.426055	-3.014800	3.507400	-10.574000	25.307436	0.000781	20.761714
1459.423688	-2.988100	3.508700	-10.484000	25.311434	0.000781	20.762883
1460.427602	-2.997100	3.509000	-10.515000	25.306260	0.000780	20.730186
1461.422301	-3.005400	3.508100	-10.542000	25.343339	0.000780	20.746554
1462.423851	-3.023500	3.507100	-10.603000	25.361104	0.000779	20.782410
1463.422328	-2.981300	3.509100	-10.460000	25.364157	0.000779	20.774096
1464.424600	-2.987100	3.507500	-10.477000	25.388436	0.000778	20.761490
1465.422238	-2.991300	3.507800	-10.491000	25.407245	0.000778	20.766627
1466.421987	-2.988900	3.506700	-10.480000	25.409154	0.000777	20.769018
1467.422008	-2.995600	3.506200	-10.502000	25.417130	0.000777	20.753318
1468.422942	-2.987100	3.506500	-10.473000	25.424231	0.000776	20.762820
1469.427484	-2.996400	3.505100	-10.501000	25.425643	0.000776	20.774195
1470.426481	-3.014500	3.505800	-10.566000	25.435136	0.000775	20.751959
1471.429788	-2.987700	3.504900	-10.471000	25.449718	0.000773	20.768973
1472.423308	-2.965300	3.506200	-10.395000	25.455058	0.000775	20.769119
1473.427208	-2.972800	3.505600	-10.420000	25.472600	0.000772	20.771563
1474.427310	-2.985100	3.505000	-10.462000	25.433679	0.000774	20.770885
1475.426113	-2.979400	3.503600	-10.437000	25.434921	0.000772	20.758855
1476.426055	-3.034400	3.501100	-10.623000	25.467225	0.000773	20.766638
1477.424916	-3.001900	3.502700	-10.514000	25.450993	0.000772	20.779737
1478.424989	-2.999000	3.502200	-10.503000	25.446618	0.000768	20.763014
1479.427588	-2.975100	3.502200	-10.419000	25.420892	0.000769	20.770373
1480.425139	-3.009800	3.501100	-10.537000	25.412991	0.000767	20.774293
1481.424345	-3.010300	3.499900	-10.535000	25.452826	0.000770	20.774939
1482.431345	-2.998500	3.502100	-10.499000	25.457222	0.000769	20.768447
1483.424487	-3.020200	3.500000	-10.570000	25.457570	0.000766	20.773065
1484.426707	-2.988000	3.500200	-10.458000	25.462787	0.000767	20.766449
1485.426724	-2.986400	3.499600	-10.450000	25.461467	0.000765	20.777452
1486.428478	-3.001500	3.499500	-10.503000	25.480579	0.000764	20.811817
1487.427595	-3.005600	3.499200	-10.517000	25.488678	0.000763	20.769215
1488.430702	-3.005300	3.499500	-10.516000	25.488702	0.000763	20.792474
1489.428480	-3.022800	3.497000	-10.569000	25.479978	0.000762	20.778023
1490.424749	-2.995000	3.497200	-10.473000	25.508556	0.000763	20.785858
1491.429476	-2.998600	3.498700	-10.489000	25.478960	0.000760	20.788855
1492.428280	-2.988500	3.498500	-10.454000	25.461564	0.000762	20.771385
1493.428192	-3.000900	3.497900	-10.495000	25.421554	0.000760	20.789530
1494.426598	-2.981700	3.497300	-10.426000	25.443225	0.000759	20.782842
1495.439164	-3.021300	3.495400	-10.559000	25.444594	0.000757	20.769044
1496.426747	-2.985000	3.496400	-10.436000	25.452048	0.000758	20.786960
1497.431103	-2.991900	3.495600	-10.457000	25.470115	0.000758	20.779498
1498.429738	-3.005300	3.494700	-10.502000	25.520166	0.000757	20.791828
1499.428232	-2.994100	3.495900	-10.465000	25.530603	0.000757	20.750625
1500.431952	-3.000300	3.494900	-10.485000	25.532941	0.000757	20.779527
1501.430401	-3.027700	3.493900	-10.576000	25.564030	0.000755	20.769971
1502.431394	-2.996500	3.493700	-10.468000	25.574864	0.000756	20.787965
1503.431619	-2.998500	3.493300	-10.473000	25.582247	0.000754	20.777836
1504.433774	-3.000200	3.494200	-10.482000	25.570768	0.000755	20.770100
1505.428864	-2.998300	3.493900	-10.473000	25.593380	0.000754	20.778585
1506.430370	-2.986900	3.493900	-10.435000	25.640517	0.000755	20.782778
1507.430273	-2.996400	3.492600	-10.465000	25.620889	0.000754	20.800523
1508.435943	-3.006600	3.491600	-10.497000	25.624742	0.000753	20.779737
1509.437153	-3.005400	3.490900	-10.491000	25.639901	0.000752	20.784056
1510.430768	-3.023200	3.490200	-10.550000	25.615502	0.000752	20.780414
1511.432439	-2.981100	3.490600	-10.405000	25.615677	0.000753	20.773003
1512.434896	-2.998800	3.489400	-10.463000	25.628204	0.000750	20.785584
1513.431148	-3.006000	3.490100	-10.490000	25.638192	0.000752	20.776176
1514.432047	-2.993700	3.490000	-10.447000	25.618292	0.000752	20.788431
1515.436631	-3.020500	3.489400	-10.539000	25.633649	0.000748	20.787260
1516.443713	-3.001400	3.489000	-10.471000	25.657851	0.000749	20.775532
1517.441178	-2.987200	3.489100	-10.421000	25.606024	0.000749	20.785119
1518.438229	-3.014000	3.488500	-10.514000	25.576406	0.000748	20.782875
1519.435195	-3.012300	3.488200	-10.506000	25.540699	0.000746	20.774516
1520.434121	-3.007100	3.486400	-10.482000	25.536004	0.000746	20.780233
1521.436579	-3.024000	3.486800	-10.543000	25.535660	0.000747	20.765662
1522.441649	-3.005200	3.486400	-10.477000	25.502587	0.000745	20.786029
1523.437931	-3.042300	3.485100	-10.602000	25.486435	0.000746	20.777395
1524.437108	-3.001600	3.486400	-10.463000	25.473738	0.000745	20.768437
1525.437907	-3.000700	3.486500	-10.461000	25.437110	0.000745	20.744458
1526.437726	-2.983500	3.486500	-10.401000	25.403016	0.000745	20.788932
1527.436820	-3.007900	3.483100	-10.474000	25.358281	0.000742	20.761558
1528.439230	-3.027100	3.483500	-10.543000	25.357762	0.000745	20.789486
1529.435612	-2.993000	3.483400	-10.425000	25.360373	0.000743	20.773615
1530.443180	-2.999400	3.482500	-10.445000	25.364850	0.000743	20.791861
1531.438939	-3.005100	3.483700	-10.467000	25.353395	0.000742	20.777989
1532.439416	-2.987000	3.483400	-10.404000	25.368481	0.000744	20.792663
1533.438674	-2.986800	3.482100	-10.399000	25.330730	0.000742	20.774198
1534.439454	-2.975600	3.483400	-10.364000	25.337692	0.000741	20.771231
1535.447327	-3.002500	3.482800	-10.455000	25.341025	0.000741	20.779319
1536.442579	-2.983900	3.481800	-10.388000	25.398215	0.000740	20.780793
1537.444763	-2.984500	3.482200	-10.390000	25.401147	0.000742	20.769513
1538.442174	-2.991000	3.480600	-10.410000	25.426300	0.000740	20.771536
1539.441717	-2.997600	3.479700	-10.430000	25.454784	0.000738	20.775008
1540.443591	-2.986000	3.479700	-10.389000	25.454586	0.000736	20.780026
1541.442285	-3.019700	3.479300	-10.505000	25.453966	0.000737	20.790782
1542.442167	-2.989000	3.480800	-10.403000	25.428443	0.000738	20.772739
1543.444038	-3.005100	3.478800	-10.453000	25.408316	0.000738	20.778134
1544.442152	-2.987500	3.479900	-10.394000	25.374864	0.000737	20.772518
1545.445117	-3.014400	3.478100	-10.484000	25.385353	0.000735	20.778310
1546.442554	-3.003200	3.478400	-10.445000	25.389356	0.000736	20.785174
1547.445768	-2.996100	3.479400	-10.423000	25.395047	0.000736	20.779983
1548.442709	-2.999300	3.478000	-10.430000	25.413863	0.000735	20.779911
1549.442944	-2.993800	3.477900	-10.411000	25.377382	0.000735	20.776470
1550.440847	-3.005800	3.475600	-10.446000	25.368932	0.000734	20.790744
1551.445679	-2.988000	3.477200	-10.389000	25.344851	0.000735	20.784583
1552.445550	-2.990200	3.477200	-10.395000	25.345175	0.000733	20.786804
1553.442778	-3.010100	3.476600	-10.464000	25.375669	0.000732	20.791345
1554.443808	-2.988500	3.476100	-10.388000	25.412904	0.000734	20.783214
1555.445028	-3.016700	3.475000	-10.481000	25.405971	0.000733	20.800435
1556.445349	-3.013900	3.474600	-10.470000	25.447972	0.000732	20.781444
1557.445470	-3.031600	3.474600	-10.532000	25.432516	0.000733	20.780623
1558.447154	-2.998500	3.475300	-10.420000	25.440246	0.000732	20.780325
1559.447952	-2.988700	3.475000	-10.384000	25.451851	0.000731	20.772537
1560.446746	-3.001800	3.474400	-10.428000	25.421161	0.000730	20.776807
1561.452397	-2.987200	3.472700	-10.372000	25.415049	0.000731	20.788688
1562.448037	-2.997600	3.473500	-10.411000	25.436669	0.000728	20.781474
1563.450041	-3.008400	3.470700	-10.440000	25.414453	0.000728	20.793780
1564.452642	-3.013100	3.470400	-10.455000	25.413437	0.000728	20.794656
1565.450716	-3.006100	3.473400	-10.441000	25.409237	0.000730	20.799921
1566.451652	-2.999000	3.470900	-10.408000	25.428201	0.000728	20.796679
1567.452971	-3.000300	3.471900	-10.415000	25.421094	0.000727	20.822732
1568.451356	-3.009900	3.469900	-10.443000	25.402307	0.000726	20.789643
1569.450633	-3.010100	3.469900	-10.444000	25.372929	0.000724	20.775317
1570.451816	-3.003400	3.469100	-10.418000	25.368634	0.000726	20.787600
1571.451623	-2.987800	3.470900	-10.370000	25.340078	0.000726	20.808714
1572.451531	-2.990500	3.469300	-10.374000	25.333492	0.000727	20.786927
1573.454170	-3.004500	3.469500	-10.422000	25.331578	0.000723	20.791170
1574.452806	-3.000700	3.468200	-10.405000	25.343334	0.000722	20.791120
1575.452483	-2.968100	3.468400	-10.293000	25.373309	0.000724	20.793243
1576.455526	-2.995400	3.468000	-10.386000	25.403679	0.000722	20.788650
1577.452719	-3.024700	3.466200	-10.484000	25.391453	0.000724	20.812410
1578.452129	-3.008400	3.466400	-10.426000	25.400252	0.000721	20.807969
1579.457294	-3.006600	3.466600	-10.422000	25.390558	0.000720	20.797761
1580.454691	-3.010700	3.465700	-10.432000	25.429529	0.000722	20.798486
1581.457408	-3.001000	3.464600	-10.396000	25.455773	0.000722	20.795916
1582.457856	-3.020400	3.464300	-10.463000	25.447101	0.000721	20.798113
1583.454872	-2.991300	3.464600	-10.362000	25.444292	0.000719	20.815682
1584.455714	-3.018500	3.463500	-10.453000	25.470336	0.000720	20.814334
1585.460307	-2.984700	3.465100	-10.341000	25.477075	0.000720	20.809247
1586.460259	-3.006300	3.464100	-10.413000	25.492484	0.000717	20.812867
1587.456626	-3.008600	3.463400	-10.419000	25.496758	0.000719	20.806727
1588.458483	-3.004200	3.463300	-10.404000	25.539254	0.000717	20.805782
1589.460225	-3.011100	3.463500	-10.427000	25.567755	0.000718	20.783670
1590.456676	-2.980000	3.462500	-10.317000	25.569399	0.000718	20.814244
1591.463509	-2.998700	3.461400	-10.378000	25.565474	0.000715	20.815518
1592.459783	-2.985400	3.461500	-10.333000	25.600809	0.000717	20.808331
1593.458235	-3.004000	3.460100	-10.393000	25.587864	0.000716	20.806710
1594.462755	-2.971400	3.461100	-10.284000	25.628493	0.000716	20.814798
1595.459566	-3.009100	3.461400	-10.415000	25.639153	0.000715	20.807013
1596.456082	-3.005400	3.459700	-10.397000	25.657815	0.000715	20.802048
1597.464176	-2.966800	3.459600	-10.263000	25.672128	0.000713	20.804570
1598.465199	-2.999100	3.460500	-10.377000	25.678141	0.000714	20.808713
1599.468098	-3.036500	3.457800	-10.498000	25.664154	0.000713	20.800355
1600.464510	-3.009900	3.458300	-10.406000	25.672528	0.000714	20.820619
1601.463467	-2.994000	3.459500	-10.357000	25.680880	0.000711	20.817628
1602.460776	-2.990000	3.459900	-10.344000	25.705356	0.000712	20.803805
1603.463793	-3.004500	3.458400	-10.390000	25.726399	0.000711	20.800285
1604.463602	-3.011500	3.456700	-10.408000	25.728317	0.000710	20.818333
1605.462078	-3.004500	3.457100	-10.386000	25.730279	0.000712	20.820304
1606.466908	-2.999500	3.457600	-10.370000	25.751994	0.000709	20.817459
1607.464421	-3.012200	3.455800	-10.409000	25.767000	0.000710	20.800290
1608.462245	-3.002300	3.455400	-10.372000	25.779600	0.000708	20.820532
1609.466146	-3.008100	3.456300	-10.396000	25.756571	0.000708	20.826323
1610.467482	-3.011700	3.454200	-10.402000	25.741866	0.000708	20.828622
1611.464760	-3.007400	3.454200	-10.387000	25.704597	0.000708	20.813000
1612.467648	-2.988200	3.455400	-10.324000	25.656972	0.000708	20.800727
1613.465445	-2.990900	3.453900	-10.329000	25.644223	0.000706	20.834389
1614.463934	-3.001600	3.453600	-10.366000	25.629491	0.000707	20.826706
1615.469740	-3.017100	3.453400	-10.418000	25.640948	0.000706	20.826358
1616.464666	-2.971700	3.454500	-10.265000	25.642015	0.000705	20.807991
1617.466194	-3.004600	3.453000	-10.374000	25.664004	0.000705	20.828178
1618.469307	-3.018900	3.452600	-10.423000	25.682741	0.000705	20.827557
1619.471737	-3.024300	3.452700	-10.441000	25.689775	0.000704	20.836993
1620.466190	-3.001100	3.452400	-10.360000	25.680756	0.000702	20.825564
1621.470299	-2.992000	3.452200	-10.328000	25.645377	0.000703	20.821798
1622.469042	-3.019900	3.451100	-10.421000	25.588628	0.000703	20.805580
1623.465679	-3.028000	3.448800	-10.442000	25.584551	0.000700	20.805280
1624.473156	-2.993800	3.450200	-10.328000	25.535252	0.000701	20.815513
1625.471686	-3.003400	3.449800	-10.359000	25.544821	0.000699	20.818958
1626.469995	-3.018200	3.449400	-10.410000	25.577623	0.000700	20.819658
1627.469651	-3.011000	3.448700	-10.381000	25.557003	0.000700	20.824080
1628.474471	-3.001600	3.450200	-10.355000	25.535778	0.000700	20.826947
1629.467257	-2.992400	3.448400	-10.318000	25.486976	0.000699	20.815396
1630.472182	-2.995100	3.448500	-10.328000	25.485611	0.000699	20.831095
1631.471632	-3.019000	3.446600	-10.404000	25.515061	0.000700	20.835539
1632.467210	-2.990200	3.448500	-10.311000	25.516378	0.000699	20.820741
1633.472516	-2.990100	3.447200	-10.307000	25.516008	0.000700	20.852610
1634.472703	-2.992700	3.446100	-10.312000	25.539566	0.000697	20.848293
1635.468307	-2.983600	3.446500	-10.282000	25.570430	0.000698	20.843254
1636.474182	-2.974000	3.446200	-10.248000	25.572121	0.000700	20.840211
1637.471831	-2.977400	3.446100	-10.258000	25.562656	0.000697	20.824068
1638.472188	-2.997600	3.446200	-10.329000	25.568744	0.000696	20.834449
1639.471982	-3.009700	3.445100	-10.367000	25.592551	0.000697	20.847926
1640.472119	-3.016000	3.443800	-10.385000	25.568796	0.000696	20.810794
1641.470339	-3.015100	3.444400	-10.383000	25.585148	0.000696	20.850922
1642.475363	-3.000000	3.443500	-10.329000	25.570438	0.000693	20.846581
1643.475154	-2.992500	3.444900	-10.308000	25.598694	0.000694	20.842716
1644.477412	-2.991100	3.443700	-10.299000	25.583759	0.000694	20.843838
1645.474215	-2.990600	3.442800	-10.295000	25.595641	0.000694	20.844391
1646.473293	-3.028300	3.441200	-10.421000	25.597752	0.000696	20.829442
1647.477814	-3.009300	3.441300	-10.355000	25.608064	0.000694	20.834583
1648.474431	-3.003500	3.441400	-10.335000	25.596958	0.000693	20.851878
1649.472459	-2.997000	3.442100	-10.315000	25.573009	0.000693	20.852956
1650.470665	-3.003800	3.440600	-10.334000	25.573731	0.000693	20.838982
1651.477138	-3.004300	3.441100	-10.337000	25.596294	0.000690	20.840306
1652.474078	-3.008200	3.440200	-10.348000	25.617119	0.000690	20.851263
1653.475793	-3.014200	3.440200	-10.368000	25.616523	0.000688	20.842604
1654.476506	-3.002200	3.440100	-10.327000	25.611607	0.000691	20.843357
1655.472003	-2.985900	3.439200	-10.268000	25.640007	0.000690	20.844379
1656.477914	-2.986300	3.439400	-10.269000	25.658619	0.000689	20.855960
1657.474618	-3.005400	3.437200	-10.329000	25.677407	0.000689	20.852544
1658.474075	-3.016100	3.437800	-10.368000	25.695820	0.000689	20.856340
1659.473710	-2.996600	3.438600	-10.303000	25.730830	0.000687	20.861632
1660.475362	-2.999100	3.437800	-10.308000	25.727674	0.000689	20.863204
1661.479322	-3.020400	3.436200	-10.377000	25.726982	0.000687	20.870095
1662.474120	-3.017200	3.436000	-10.366000	25.749095	0.000687	20.842995
1663.475731	-3.005500	3.436100	-10.326000	25.745274	0.000686	20.861442
1664.476954	-3.033400	3.436500	-10.422000	25.720551	0.000685	20.866007
1665.474846	-3.017500	3.436900	-10.370000	25.719610	0.000686	20.859372
1666.475245	-2.997300	3.435200	-10.295000	25.706419	0.000684	20.837115
1667.483972	-3.009200	3.435400	-10.337000	25.700310	0.000684	20.858952
1668.474206	-3.011500	3.434900	-10.343000	25.690048	0.000684	20.867611
1669.476964	-3.023500	3.433700	-10.379000	25.671389	0.000684	20.842708
1670.475522	-3.015500	3.433200	-10.352000	25.663342	0.000683	20.869711
1671.476837	-3.036300	3.432100	-10.420000	25.686748	0.000682	20.858133
1672.478184	-2.994200	3.433600	-10.280000	25.675767	0.000681	20.877448
1673.477189	-2.990700	3.433900	-10.268000	25.724736	0.000679	20.855986
1674.475279	-2.987700	3.434300	-10.260000	25.708538	0.000679	20.865320
1675.478064	-2.982600	3.432700	-10.238000	25.683965	0.000681	20.853916
1676.479986	-3.000800	3.432500	-10.299000	25.686205	0.000682	20.866596
1677.475745	-2.994900	3.432000	-10.277000	25.702601	0.000682	20.873107
1678.481876	-3.007400	3.431200	-10.318000	25.681311	0.000683	20.855991
1679.480134	-3.011300	3.431100	-10.330000	25.682576	0.000679	20.863900
1680.479249	-3.015600	3.429400	-10.340000	25.696091	0.000680	20.864672
1681.483387	-3.004500	3.431100	-10.308000	25.687569	0.000679	20.858958
1682.479639	-2.998500	3.430000	-10.284000	25.705952	0.000680	20.873154
1683.481424	-3.004800	3.431400	-10.309000	25.695122	0.000678	20.862277
1684.487408	-3.001600	3.430200	-10.295000	25.703219	0.000679	20.862348
1685.488302	-2.998100	3.428900	-10.279000	25.727714	0.000679	20.874149
1686.482736	-3.015600	3.428100	-10.337000	25.713404	0.000679	20.860725
1687.488716	-3.004900	3.428400	-10.301000	25.675361	0.000677	20.845748
1688.487181	-2.995100	3.429100	-10.269000	25.645567	0.000678	20.876514
1689.481230	-3.000700	3.428100	-10.286000	25.595618	0.000676	20.861911
1690.490494	-3.018900	3.426100	-10.342000	25.578028	0.000676	20.888814
1691.484764	-3.005900	3.426900	-10.299000	25.607843	0.000674	20.860913
1692.484490	-2.989200	3.425900	-10.240000	25.621285	0.000674	20.867774
1693.489375	-3.005200	3.426600	-10.297000	25.624411	0.000670	20.905524
1694.491416	-3.014000	3.424400	-10.320000	25.646303	0.000673	20.855444
1695.485393	-2.996200	3.425400	-10.262000	25.632113	0.000675	20.865373
1696.488570	-2.998500	3.425800	-10.271000	25.647020	0.000671	20.865172
1697.489247	-3.011100	3.424600	-10.311000	25.651244	0.000669	20.852820
1698.490715	-3.002200	3.425500	-10.283000	25.648859	0.000670	20.875079
1699.491811	-3.025200	3.423300	-10.355000	25.653429	0.000670	20.871609
1700.488270	-3.001900	3.424900	-10.279000	25.677404	0.000668	20.864395
1701.488866	-2.989400	3.424400	-10.236000	25.687639	0.000669	20.867088
1702.496458	-3.000200	3.423800	-10.271000	25.682300	0.000670	20.860304
1703.498194	-3.006400	3.422800	-10.289000	25.676682	0.000667	20.853239
1704.489738	-3.003100	3.421800	-10.275000	25.709977	0.000669	20.859179
1705.492369	-3.002100	3.422900	-10.274000	25.728959	0.000667	20.862598
1706.491651	-3.035800	3.420600	-10.383000	25.737826	0.000667	20.877194
1707.495468	-3.002000	3.421500	-10.270000	25.731544	0.000666	20.865668
1708.494388	-2.990700	3.421700	-10.232000	25.710101	0.000668	20.846028
1709.489958	-3.000000	3.420800	-10.262000	25.689382	0.000665	20.846080
1710.491853	-3.014600	3.419600	-10.308000	25.675367	0.000666	20.841014
1711.492840	-2.976100	3.422000	-10.183000	25.685380	0.000667	20.849173
1712.491043	-2.994200	3.419400	-10.238000	25.723596	0.000664	20.859108
1713.490020	-2.986300	3.419500	-10.210000	25.719696	0.000664	20.861828
1714.492506	-3.000300	3.419000	-10.257000	25.724666	0.000664	20.837424
1715.492052	-2.984800	3.420000	-10.207000	25.756741	0.000664	20.847356
1716.491295	-3.008500	3.418700	-10.284000	25.756716	0.000664	20.853969
1717.492816	-2.995900	3.417700	-10.239000	25.746408	0.000665	20.841245
1718.493047	-3.001400	3.417400	-10.256000	25.753167	0.000661	20.854198
1719.492687	-3.003300	3.417200	-10.262000	25.757243	0.000662	20.850705
1720.493745	-2.992400	3.417300	-10.224000	25.754040	0.000663	20.847488
1721.495570	-2.986200	3.416900	-10.202000	25.778735	0.000659	20.840999
1722.493649	-3.004100	3.416400	-10.262000	25.773767	0.000662	20.843122
1723.495862	-3.014200	3.416400	-10.297000	25.760975	0.000664	20.845445
1724.496530	-2.992500	3.416000	-10.222000	25.760105	0.000660	20.833192
1725.495522	-3.031000	3.415000	-10.350000	25.764653	0.000661	20.841079
1726.497222	-2.994100	3.413700	-10.220000	25.775833	0.000660	20.834766
1727.497962	-2.999900	3.415200	-10.245000	25.758494	0.000659	20.845798
1728.503243	-3.008500	3.414700	-10.272000	25.772285	0.000656	20.837366
1729.499124	-2.990100	3.414000	-10.207000	25.747242	0.000660	20.833073
1730.496510	-2.969900	3.414100	-10.139000	25.762545	0.000659	20.822841
1731.498615	-2.994200	3.414500	-10.222000	25.779964	0.000656	20.829432
1732.499151	-3.004900	3.412800	-10.254000	25.787966	0.000659	20.842211
1733.497962	-3.009200	3.412900	-10.269000	25.755939	0.000657	20.813835
1734.498024	-3.017300	3.412100	-10.294000	25.741906	0.000656	20.833878
1735.500271	-3.024900	3.411500	-10.319000	25.752390	0.000654	20.848202
1736.503694	-2.999500	3.411200	-10.231000	25.734501	0.000654	20.843036
1737.497391	-3.038300	3.410700	-10.361000	25.746876	0.000655	20.816112
1738.500366	-2.980400	3.411900	-10.168000	25.752272	0.000653	20.826747
1739.499034	-2.991700	3.410400	-10.200000	25.773613	0.000653	20.816415
1740.498814	-2.974800	3.410900	-10.145000	25.798183	0.000653	20.841569
1741.499509	-3.012200	3.409000	-10.268000	25.826085	0.000651	20.820759
1742.501120	-2.968000	3.411100	-10.123000	25.833091	0.000653	20.826374
1743.498712	-2.996600	3.409800	-10.217000	25.838483	0.000652	20.800023
1744.505112	-3.005400	3.408100	-10.241000	25.865711	0.000650	20.807935
1745.500879	-2.989100	3.408200	-10.186000	25.858609	0.000650	20.841577
1746.501724	-3.010300	3.406400	-10.253000	25.805521	0.000650	20.832819
1747.503555	-2.991800	3.408400	-10.196000	25.777320	0.000650	20.828199
1748.504327	-3.019500	3.406500	-10.284000	25.773050	0.000648	20.828651
1749.501852	-3.002600	3.407400	-10.231000	25.784752	0.000649	20.833293
1750.505170	-3.015000	3.406000	-10.268000	25.788133	0.000647	20.803025
1751.505114	-3.017300	3.405000	-10.272000	25.774493	0.000649	20.812558
1752.500343	-3.022400	3.405000	-10.290000	25.812305	0.000647	20.812133
1753.504980	-2.987700	3.406700	-10.177000	25.808952	0.000648	20.813506
1754.503137	-3.002400	3.405500	-10.223000	25.793273	0.000647	20.835215
1755.501100	-3.020900	3.404600	-10.284000	25.785995	0.000647	20.828378
1756.503522	-2.992400	3.406100	-10.191000	25.801273	0.000648	20.810534
1757.503514	-2.973900	3.406300	-10.129000	25.814885	0.000646	20.814251
1758.501997	-2.970700	3.405300	-10.115000	25.802313	0.000647	20.818692
1759.506831	-3.010600	3.403900	-10.247000	25.840072	0.000648	20.820111
1760.502662	-2.976900	3.405300	-10.135000	25.853338	0.000646	20.818738
1761.501260	-2.988900	3.403000	-10.170000	25.826581	0.000647	20.821258
1762.504596	-2.998100	3.402100	-10.199000	25.839372	0.000647	20.817986
1763.503848	-2.999700	3.402000	-10.203000	25.848066	0.000645	20.807753
1764.502998	-3.012100	3.401300	-10.244000	25.882915	0.000647	20.832329
1765.506590	-2.976200	3.402600	-10.125000	25.882863	0.000644	20.828958
1766.505835	-2.992800	3.401100	-10.177000	25.915427	0.000643	20.793868
1767.505104	-2.986600	3.400900	-10.155000	25.889240	0.000644	20.817347
1768.508753	-3.012000	3.400400	-10.240000	25.875053	0.000644	20.824906
1769.505140	-2.996900	3.401100	-10.192000	25.853064	0.000644	20.837429
1770.504067	-2.987500	3.401200	-10.160000	25.850178	0.000642	20.815564
1771.508939	-2.995800	3.399900	-10.184000	25.825430	0.000642	20.806826
1772.507723	-2.968900	3.400500	-10.094000	25.805155	0.000645	20.792623
1773.509645	-2.997200	3.399500	-10.189000	25.767810	0.000642	20.824336
1774.510794	-3.011100	3.398700	-10.233000	25.777992	0.000642	20.820340
1775.507847	-3.005000	3.397200	-10.207000	25.801366	0.000639	20.828171
1776.507358	-3.011400	3.398600	-10.234000	25.795178	0.000642	20.840447
1777.510657	-2.996700	3.398500	-10.183000	25.832739	0.000641	20.828866
1778.507986	-3.000100	3.397200	-10.191000	25.846074	0.000642	20.816183
1779.506412	-3.007400	3.396600	-10.214000	25.875610	0.000640	20.823569
1780.509756	-3.019400	3.397300	-10.257000	25.898063	0.000639	20.832374
1781.511682	-2.993600	3.395800	-10.164000	25.902558	0.000637	20.819346
1782.511631	-2.990700	3.396700	-10.158000	25.876198	0.000636	20.800452
1783.512342	-2.991700	3.396200	-10.160000	25.861237	0.000638	20.818613
1784.511306	-2.995200	3.395300	-10.169000	25.841534	0.000638	20.808304
1785.510495	-3.004600	3.395000	-10.200000	25.888660	0.000635	20.828143
1786.513046	-2.977200	3.395400	-10.107000	25.865307	0.000634	20.802313
1787.510679	-3.001900	3.393600	-10.185000	25.863194	0.000636	20.815364
1788.510336	-3.017700	3.393100	-10.238000	25.869726	0.000632	20.814338
1789.513125	-2.984300	3.394400	-10.128000	25.808166	0.000634	20.805605
1790.510820	-2.989400	3.393800	-10.145000	25.838148	0.000630	20.794471
1791.510836	-2.997300	3.392300	-10.168000	25.846395	0.000631	20.826937
1792.509653	-3.008900	3.394100	-10.212000	25.869449	0.000631	20.816431
1793.508967	-2.997000	3.392200	-10.165000	25.906837	0.000630	20.814162
1794.509049	-3.009500	3.392000	-10.207000	25.900153	0.000629	20.822146
1795.508706	-3.002500	3.391700	-10.183000	25.903531	0.000630	20.802780
1796.510639	-2.978000	3.391900	-10.100000	25.920300	0.000628	20.808721
1797.510726	-2.982700	3.391600	-10.115000	25.918212	0.000629	20.814209
1798.513142	-2.994000	3.392200	-10.155000	25.888699	0.000629	20.820122
1799.510136	-2.982100	3.391100	-10.112000	25.859586	0.000628	20.815058
1800.511620	-3.011300	3.389700	-10.207000	25.846321	0.000628	20.808371
1801.516124	-3.003500	3.390700	-10.182000	25.866172	0.000628	20.829734
1802.514469	-2.982700	3.389400	-10.109000	25.821529	0.000628	20.801484
1803.514890	-3.004700	3.389900	-10.185000	25.864059	0.000625	20.808172
1804.515132	-2.997800	3.388700	-10.157000	25.884083	0.000624	20.809321
1805.511400	-2.971800	3.389900	-10.073000	25.886715	0.000624	20.813388
1806.511915	-2.988100	3.389900	-10.128000	25.916003	0.000623	20.807723
1807.514926	-3.005200	3.387700	-10.180000	25.904774	0.000622	20.808296
1808.513439	-2.959100	3.389800	-10.030000	25.915778	0.000622	20.802755
1809.513625	-2.985100	3.387600	-10.111000	25.897670	0.000625	20.803530
1810.517317	-3.006600	3.387100	-10.183000	25.878118	0.000621	20.811389
1811.514573	-3.008400	3.386400	-10.187000	25.869748	0.000622	20.809145
1812.513965	-2.992700	3.387000	-10.135000	25.908624	0.000620	20.787982
1813.517591	-3.006300	3.386400	-10.180000	25.900501	0.000620	20.807797
1814.514787	-2.972500	3.386800	-10.066000	25.899061	0.000621	20.801134
1815.515794	-2.977900	3.386700	-10.084000	25.876630	0.000618	20.791877
1816.517214	-3.000200	3.384200	-10.153000	25.838299	0.000619	20.795571
1817.518132	-2.998000	3.385100	-10.147000	25.844485	0.000618	20.784241
1818.515688	-2.981000	3.385500	-10.091000	25.822873	0.000619	20.797619
1819.518945	-3.007800	3.383100	-10.175000	25.865900	0.000617	20.799590
1820.516997	-3.026000	3.383300	-10.236000	25.883935	0.000616	20.800164
1821.516496	-3.001800	3.384200	-10.157000	25.860936	0.000616	20.785120
1822.518138	-3.053500	3.382700	-10.328000	25.850327	0.000617	20.788687
1823.516776	-3.013300	3.381100	-10.186000	25.830801	0.000617	20.810324
1824.522409	-2.988900	3.383800	-10.113000	25.846079	0.000614	20.812869
1825.519101	-3.015900	3.382700	-10.201000	25.821462	0.000615	20.803314
1826.517456	-2.997000	3.382400	-10.136000	25.857310	0.000615	20.795703
1827.519671	-3.012100	3.382400	-10.187000	25.859871	0.000614	20.772196
1828.519368	-3.019000	3.381200	-10.207000	25.876440	0.000613	20.790264
1829.517574	-3.003700	3.381700	-10.156000	25.903618	0.000612	20.798600
1830.517632	-3.008300	3.380200	-10.167000	25.916685	0.000611	20.791813
1831.523847	-3.011300	3.380100	-10.178000	25.932809	0.000613	20.801847
1832.519841	-2.999200	3.379800	-10.136000	25.964551	0.000610	20.812874
1833.521976	-2.996400	3.381900	-10.132000	25.940607	0.000610	20.801147
1834.520796	-2.990600	3.380200	-10.108000	25.897484	0.000609	20.798602
1835.521980	-2.975000	3.380600	-10.056000	25.825197	0.000609	20.772926
1836.524591	-3.015300	3.378900	-10.187000	25.813146	0.000610	20.777417
1837.526868	-3.000000	3.379800	-10.138000	25.798988	0.000608	20.776945
1838.528178	-2.981200	3.380400	-10.076000	25.788057	0.000608	20.773077
1839.526978	-3.005700	3.379000	-10.155000	25.819683	0.000607	20.771655
1840.524282	-2.997000	3.378200	-10.123000	25.832677	0.000607	20.794191
1841.524162	-2.993000	3.379000	-10.112000	25.842268	0.000606	20.767790
1842.526473	-3.017300	3.376900	-10.188000	25.830992	0.000606	20.781118
1843.524332	-2.995300	3.376600	-10.113000	25.826395	0.000604	20.800683
1844.525671	-2.993100	3.376900	-10.106000	25.848214	0.000603	20.788936
1845.523473	-2.996400	3.375800	-10.113000	25.833431	0.000605	20.786414
1846.526854	-2.987200	3.376600	-10.086000	25.824787	0.000603	20.777256
1847.525461	-3.004400	3.375400	-10.139000	25.865258	0.000605	20.779505
1848.528442	-2.984600	3.375500	-10.074000	25.895617	0.000603	20.787243
1849.528437	-2.991300	3.375700	-10.097000	25.907592	0.000602	20.772720
1850.534579	-3.003700	3.375600	-10.139000	25.923170	0.000603	20.789793
1851.528331	-3.018600	3.373400	-10.182000	25.928735	0.000601	20.773572
1852.529783	-3.006600	3.374900	-10.146000	25.905435	0.000601	20.767708
1853.527829	-3.003000	3.374200	-10.132000	25.871652	0.000600	20.770280
1854.528485	-3.013400	3.373300	-10.164000	25.856995	0.000599	20.757453
1855.530195	-3.005700	3.372800	-10.136000	25.864772	0.000599	20.770007
1856.528415	-3.002300	3.374000	-10.129000	25.838740	0.000598	20.761400
1857.532011	-2.984500	3.372500	-10.064000	25.855238	0.000601	20.749524
1858.531124	-2.985700	3.373000	-10.070000	25.819467	0.000599	20.781395
1859.531734	-3.006900	3.371000	-10.134000	25.786225	0.000600	20.772659
1860.527568	-3.012600	3.371200	-10.154000	25.772985	0.000598	20.778801
1861.531467	-3.013000	3.370300	-10.153000	25.798648	0.000596	20.778500
1862.529986	-2.997000	3.372500	-10.107000	25.821530	0.000596	20.750276
1863.530181	-3.008900	3.370400	-10.141000	25.814502	0.000596	20.756967
1864.535219	-3.015100	3.369900	-10.159000	25.819969	0.000595	20.768623
1865.533679	-2.999600	3.370700	-10.110000	25.829804	0.000595	20.763330
1866.535711	-3.000200	3.370800	-10.111000	25.854848	0.000595	20.761461
1867.536171	-2.996100	3.369500	-10.094000	25.876242	0.000595	20.747864
1868.533541	-3.008900	3.369000	-10.136000	25.892336	0.000594	20.742221
1869.534852	-3.013900	3.368900	-10.153000	25.915142	0.000592	20.767503
1870.538074	-3.016600	3.369200	-10.162000	25.907121	0.000595	20.760393
1871.534637	-3.011600	3.368000	-10.142000	25.941526	0.000594	20.758447
1872.533019	-2.997500	3.368800	-10.098000	25.961820	0.000592	20.729522
1873.537724	-2.983900	3.369500	-10.053000	25.948334	0.000592	20.763390
1874.533866	-2.993500	3.367800	-10.081000	25.942250	0.000593	20.762968
1875.535589	-3.014300	3.367700	-10.151000	25.931966	0.000591	20.748368
1876.536019	-2.991600	3.367600	-10.073000	25.960185	0.000590	20.754433
1877.546714	-2.991300	3.367700	-10.073000	25.942050	0.000589	20.744748
1878.534221	-2.994100	3.367000	-10.080000	25.922304	0.000589	20.757628
1879.537924	-3.005800	3.366600	-10.119000	25.920243	0.000589	20.756980
1880.535499	-3.027200	3.365400	-10.187000	25.938675	0.000588	20.757953
1881.537226	-3.005800	3.364700	-10.112000	25.928964	0.000589	20.742981
1882.537370	-2.986100	3.366300	-10.051000	25.932317	0.000587	20.761998
1883.536066	-3.016400	3.364800	-10.149000	25.960813	0.000589	20.750322
1884.537262	-3.010000	3.366200	-10.130000	25.968238	0.000587	20.756834
1885.538052	-3.007000	3.365000	-10.117000	25.946950	0.000587	20.757733
1886.541741	-3.019700	3.363400	-10.155000	25.978522	0.000588	20.748200
1887.536963	-2.990300	3.363300	-10.056000	25.972165	0.000589	20.756037
1888.538095	-2.991800	3.365600	-10.068000	25.984833	0.000586	20.745057
1889.538347	-2.980400	3.364000	-10.025000	26.007684	0.000586	20.744307
1890.538554	-3.013300	3.361200	-10.127000	25.961183	0.000585	20.733150
1891.538531	-2.997300	3.361500	-10.074000	25.924543	0.000586	20.755136
1892.538677	-3.000800	3.362900	-10.090000	25.930805	0.000585	20.730131
1893.538140	-2.990400	3.362900	-10.056000	25.958725	0.000586	20.743957
1894.543304	-2.982600	3.362800	-10.028000	25.987736	0.000582	20.741335
1895.537840	-2.990800	3.362000	-10.054000	25.966820	0.000583	20.745925
1896.540800	-2.999400	3.362000	-10.083000	25.972335	0.000584	20.733448
1897.541835	-3.023300	3.359400	-10.155000	25.985569	0.000579	20.725406
1898.540253	-3.003500	3.359000	-10.088000	26.009712	0.000582	20.751560
1899.540373	-2.995200	3.359800	-10.062000	26.013265	0.000580	20.715300
1900.544336	-3.002600	3.358700	-10.083000	26.042549	0.000579	20.752784
1901.540162	-3.005400	3.358800	-10.093000	26.080199	0.000576	20.753628
1902.542421	-3.004600	3.358200	-10.089000	26.065471	0.000577	20.747365
1903.541445	-2.979300	3.360200	-10.010000	26.029007	0.000577	20.747238
1904.544557	-2.993200	3.359300	-10.053000	26.008340	0.000578	20.755872
1905.541908	-2.962000	3.359500	-9.950200	25.972994	0.000578	20.738378
1906.541344	-2.994700	3.357800	-10.055000	25.936151	0.000578	20.727441
1907.544831	-2.991800	3.357200	-10.042000	25.922316	0.000577	20.751476
1908.540001	-2.989000	3.358400	-10.037000	25.931130	0.000578	20.743735
1909.542333	-2.969200	3.358700	-9.971300	25.922088	0.000579	20.737496
1910.544685	-2.995700	3.356700	-10.054000	25.941636	0.000576	20.736272
1911.543416	-2.981700	3.357500	-10.010000	25.960759	0.000577	20.737940
1912.545343	-2.999300	3.356500	-10.066000	25.933630	0.000578	20.766636
1913.546059	-2.992400	3.355800	-10.041000	25.936314	0.000575	20.749891
1914.544084	-2.994900	3.355600	-10.049000	25.919814	0.000574	20.757497
1915.547887	-2.991100	3.354800	-10.034000	25.926693	0.000573	20.761564
1916.547473	-3.002000	3.354500	-10.069000	25.943188	0.000573	20.742572
1917.546492	-3.004200	3.354100	-10.075000	25.934514	0.000571	20.744290
1918.555544	-2.987700	3.355100	-10.023000	25.980788	0.000573	20.747631
1919.547629	-3.005600	3.353100	-10.077000	26.006592	0.000572	20.733726
1920.546655	-3.015600	3.353400	-10.112000	26.008378	0.000572	20.752117
1921.547200	-2.995000	3.353500	-10.043000	26.044396	0.000570	20.755588
1922.547110	-2.989900	3.352600	-10.023000	26.039249	0.000570	20.764168
1923.548530	-2.986000	3.352700	-10.011000	26.047370	0.000571	20.744352
1924.550240	-2.983400	3.352800	-10.002000	26.064135	0.000568	20.758825
1925.551282	-2.987100	3.352000	-10.012000	26.040363	0.000571	20.733043
1926.547580	-2.992600	3.350800	-10.026000	26.061822	0.000569	20.743699
1927.552177	-2.999800	3.350800	-10.051000	26.019648	0.000568	20.757276
1928.549588	-3.008000	3.349400	-10.074000	25.974062	0.000567	20.731864
1929.551969	-2.992500	3.350500	-10.025000	25.973694	0.000565	20.746194
1930.550820	-2.976700	3.350500	-9.972500	25.952725	0.000566	20.758318
1931.550783	-2.998000	3.351200	-10.046000	25.971480	0.000565	20.753453
1932.551907	-2.992200	3.349600	-10.021000	26.004961	0.000565	20.758167
1933.551382	-2.989200	3.349800	-10.011000	26.011892	0.000566	20.758492
1934.553167	-3.008900	3.347800	-10.072000	26.032459	0.000563	20.757819
1935.554595	-2.996800	3.350900	-10.041000	26.057095	0.000563	20.766451
1936.552319	-3.012800	3.348800	-10.089000	26.024930	0.000562	20.754997
1937.555277	-2.985000	3.350000	-9.998600	25.984371	0.000561	20.755972
1938.550467	-3.003000	3.347800	-10.053000	25.947383	0.000561	20.751054
1939.551651	-3.006300	3.348200	-10.065000	25.897304	0.000561	20.761436
1940.555008	-2.995500	3.347800	-10.027000	25.889705	0.000562	20.762812
1941.555218	-3.005600	3.346600	-10.057000	25.891195	0.000560	20.754825
1942.553416	-3.025500	3.346400	-10.124000	25.926819	0.000562	20.750784
1943.559807	-2.971500	3.348100	-9.947500	25.951438	0.000558	20.775518
1944.552651	-2.988200	3.346400	-9.998600	25.940583	0.000560	20.757973
1945.553188	-3.005800	3.345500	-10.054000	25.920985	0.000558	20.763889
1946.560795	-2.997300	3.346200	-10.028000	25.899049	0.000559	20.766983
1947.550615	-2.989100	3.345000	-9.997300	25.907371	0.000558	20.778189
1948.553503	-2.994800	3.344500	-10.015000	25.897018	0.000557	20.763520
1949.555759	-2.999000	3.343200	-10.025000	25.875753	0.000556	20.766814
1950.560296	-3.002800	3.343500	-10.039000	25.916569	0.000554	20.734796
1951.559019	-3.002900	3.343000	-10.037000	25.925490	0.000557	20.769838
1952.557622	-3.001600	3.344200	-10.037000	25.904374	0.000556	20.752892
1953.553403	-2.991700	3.342900	-10.000000	25.895137	0.000554	20.763527
1954.559126	-3.013400	3.343000	-10.073000	25.903307	0.000552	20.786908
1955.558394	-2.997800	3.341600	-10.016000	25.903658	0.000553	20.765449
1956.555438	-3.011700	3.342000	-10.064000	25.926639	0.000554	20.757716
1957.561390	-3.001700	3.341200	-10.028000	25.897028	0.000553	20.765426
1958.560337	-2.983400	3.341900	-9.969200	25.918964	0.000551	20.764704
1959.557030	-3.003100	3.341300	-10.033000	25.917820	0.000550	20.771615
1960.559804	-3.002200	3.341000	-10.029000	25.968819	0.000551	20.757418
1961.558966	-3.026100	3.339900	-10.103000	25.969318	0.000550	20.754600
1962.560230	-3.014800	3.339300	-10.066000	25.981886	0.000551	20.766278
1963.561614	-2.982000	3.340900	-9.961300	25.932755	0.000548	20.746316
1964.565472	-3.004100	3.338500	-10.028000	25.938345	0.000550	20.754302
1965.556980	-2.976000	3.339900	-9.938600	25.940633	0.000549	20.761817
1966.559652	-3.012600	3.339200	-10.059000	25.966247	0.000550	20.754360
1967.560824	-2.991000	3.340200	-9.988200	25.949430	0.000548	20.756430
1968.558499	-2.989800	3.339900	-9.984000	25.942424	0.000547	20.758876
1969.561852	-2.993000	3.338000	-9.989000	25.953109	0.000548	20.760127
1970.561091	-2.993600	3.336900	-9.987900	25.974496	0.000547	20.770233
1971.557544	-2.997900	3.337700	-10.004000	25.962304	0.000546	20.763200
1972.564320	-2.980300	3.338000	-9.947300	25.986920	0.000546	20.765646
1973.562513	-3.013900	3.336700	-10.056000	25.970154	0.000545	20.763975
1974.560810	-3.016200	3.335100	-10.058000	26.001404	0.000544	20.772138
1975.561100	-2.997200	3.335600	-9.996700	25.968343	0.000544	20.767371
1976.561664	-3.034900	3.334700	-10.120000	25.995170	0.000543	20.762555
1977.562469	-2.996300	3.335300	-9.991700	26.023810	0.000543	20.738698
1978.564253	-2.975200	3.336200	-9.924300	26.050090	0.000543	20.756567
1979.566127	-2.975400	3.335400	-9.921800	26.097777	0.000544	20.785042
1980.560458	-2.978000	3.334900	-9.930500	26.094776	0.000542	20.773965
1981.562178	-3.002800	3.334000	-10.010000	26.066313	0.000540	20.765755
1982.567532	-2.983300	3.334500	-9.946200	26.082531	0.000541	20.763084
1983.563057	-2.998300	3.333100	-9.992500	26.052079	0.000541	20.769946
1984.567762	-2.990800	3.333900	-9.970300	26.082953	0.000540	20.765880
1985.564077	-3.001300	3.332300	-10.000000	26.077068	0.000536	20.776562
1986.563243	-2.997300	3.332200	-9.986700	26.098828	0.000537	20.760493
1987.563751	-3.010000	3.331900	-10.029000	26.100243	0.000537	20.761441
1988.563524	-2.995100	3.331800	-9.978400	26.099151	0.000536	20.754180
1989.565330	-2.983300	3.332900	-9.942500	26.131588	0.000536	20.780135
1990.564629	-2.964200	3.332900	-9.878200	26.129229	0.000536	20.776341
1991.564860	-2.985300	3.330800	-9.942900	26.143062	0.000536	20.771749
1992.566668	-2.984800	3.332400	-9.945300	26.125950	0.000536	20.787746
1993.565427	-3.016200	3.328500	-10.038000	26.156101	0.000533	20.791015
1994.565303	-2.975300	3.331300	-9.911300	26.179673	0.000535	20.784355
1995.566612	-2.993800	3.330600	-9.969200	26.206692	0.000535	20.788272
1996.569636	-2.988600	3.330200	-9.952000	26.228350	0.000533	20.782061
1997.568387	-2.998300	3.330000	-9.983200	26.207240	0.000531	20.767012
1998.571664	-2.992100	3.329300	-9.961200	26.217599	0.000534	20.761300
1999.570718	-2.974600	3.328600	-9.900300	26.223832	0.000531	20.776573
2000.569773	-2.981100	3.328700	-9.922300	26.219536	0.000532	20.783635
2001.569833	-2.991000	3.328800	-9.955400	26.263416	0.000532	20.782687
2002.574870	-3.003800	3.327700	-9.994600	26.244370	0.000530	20.779194
2003.569640	-3.021100	3.328200	-10.053000	26.247799	0.000528	20.767941
2004.572916	-2.963600	3.328600	-9.863700	26.242859	0.000528	20.764398
2005.570347	-2.979600	3.327200	-9.912900	26.239583	0.000528	20.783867
2006.570506	-2.986400	3.326500	-9.932700	26.243185	0.000529	20.773261
2007.570014	-2.980300	3.326500	-9.912900	26.265512	0.000528	20.766300
2008.575803	-2.997400	3.326600	-9.969900	26.212318	0.000527	20.783020
2009.568831	-2.997700	3.325000	-9.966100	26.193348	0.000525	20.795726
2010.570517	-2.979200	3.326700	-9.910200	26.172292	0.000525	20.779309
2011.570330	-2.985200	3.324400	-9.921000	26.167796	0.000527	20.772420
2012.571370	-2.979700	3.325300	-9.907200	26.161069	0.000524	20.786524
2013.571530	-2.985400	3.325000	-9.925800	26.133900	0.000528	20.790992
2014.568838	-3.002800	3.324600	-9.982300	26.152654	0.000524	20.790397
2015.570805	-3.004400	3.322300	-9.981100	26.147889	0.000524	20.780867
2016.572294	-2.990800	3.323400	-9.938500	26.157329	0.000523	20.778973
2017.572022	-2.994000	3.324000	-9.950600	26.194680	0.000523	20.785211
2018.573411	-2.992800	3.323300	-9.944500	26.231191	0.000521	20.793925
2019.570980	-2.966100	3.322800	-9.854800	26.220687	0.000520	20.780050
2020.575778	-3.006600	3.322400	-9.988000	26.217315	0.000520	20.784723
2021.577035	-2.997400	3.321400	-9.954100	26.221189	0.000520	20.796676
2022.575509	-3.011200	3.321600	-10.001000	26.195591	0.000519	20.780436
2023.577862	-3.001500	3.321100	-9.967200	26.227183	0.000518	20.795113
2024.576574	-3.033300	3.320700	-10.072000	26.244866	0.000518	20.810986
2025.575584	-2.992700	3.321100	-9.937400	26.259270	0.000517	20.782788
2026.581566	-2.977600	3.319700	-9.883600	26.257092	0.000518	20.774909
2027.576704	-3.001900	3.320500	-9.966200	26.263006	0.000517	20.785594
2028.579055	-2.979100	3.319700	-9.888200	26.231868	0.000515	20.784174
2029.579948	-3.008000	3.318100	-9.979700	26.195613	0.000514	20.782355
2030.579591	-2.979400	3.319700	-9.889800	26.178107	0.000513	20.786575
2031.576056	-3.004500	3.318400	-9.968200	26.191399	0.000515	20.793768
2032.576436	-3.004400	3.317600	-9.966900	26.151990	0.000513	20.804428
2033.579415	-3.005800	3.318700	-9.973600	26.146380	0.000513	20.780298
2034.577435	-2.982300	3.318600	-9.896200	26.130314	0.000514	20.788811
2035.582020	-2.986100	3.318600	-9.908800	26.152399	0.000514	20.791088
2036.579315	-2.977400	3.317100	-9.875500	26.145299	0.000513	20.789170
2037.579276	-2.994500	3.315900	-9.928500	26.197701	0.000513	20.779711
2038.579412	-3.011500	3.314700	-9.982000	26.180146	0.000510	20.786253
2039.581750	-3.013000	3.315500	-9.988300	26.194628	0.000512	20.784685
2040.579988	-3.003500	3.316000	-9.958700	26.202826	0.000512	20.787232
2041.582054	-3.013100	3.314500	-9.985200	26.221532	0.000512	20.786590
2042.582428	-3.003800	3.315900	-9.959100	26.226303	0.000510	20.788065
2043.583688	-3.006200	3.313400	-9.959000	26.254739	0.000511	20.787243
2044.583271	-3.001500	3.313200	-9.943500	26.254517	0.000509	20.801245
2045.585545	-3.007000	3.313000	-9.961100	26.269865	0.000511	20.792013
2046.586296	-2.994700	3.314500	-9.925100	26.290307	0.000509	20.821564
2047.584116	-2.993300	3.312400	-9.913600	26.287405	0.000510	20.794940
2048.589288	-3.015900	3.311500	-9.985800	26.324508	0.000509	20.800460
2049.586276	-3.008000	3.312100	-9.961700	26.338961	0.000508	20.800760
2050.588798	-3.045200	3.311800	-10.084000	26.303403	0.000507	20.789207
2051.585896	-3.010300	3.312300	-9.969300	26.326648	0.000504	20.804032
2052.589722	-2.993700	3.312600	-9.915800	26.337804	0.000506	20.807658
2053.589169	-2.995400	3.311800	-9.918300	26.317171	0.000505	20.813000
2054.589915	-2.997400	3.310700	-9.922400	26.324023	0.000503	20.790489
2055.589112	-2.990200	3.311100	-9.899700	26.323354	0.000504	20.812102
2056.588225	-3.000600	3.309000	-9.928700	26.332916	0.000503	20.803220
2057.592096	-3.006300	3.310600	-9.950600	26.351840	0.000504	20.803272
2058.591529	-2.966500	3.311000	-9.820800	26.306325	0.000503	20.801626
2059.590741	-3.019700	3.308100	-9.988200	26.310127	0.000501	20.792171
2060.591588	-3.000000	3.308300	-9.924400	26.284378	0.000502	20.806597
2061.591945	-3.012900	3.308000	-9.966400	26.270772	0.000502	20.805252
2062.593750	-3.016900	3.308300	-9.979500	26.257462	0.000500	20.807523
2063.592782	-3.012800	3.307800	-9.964500	26.227789	0.000499	20.821800
2064.602414	-3.039400	3.305900	-10.046000	26.239785	0.000498	20.809674
2065.597714	-2.987500	3.308000	-9.880800	26.238820	0.000499	20.787367
2066.595148	-3.036800	3.306900	-10.041000	26.290548	0.000498	20.815168
2067.594859	-3.018400	3.305600	-9.976600	26.319849	0.000496	20.819959
2068.599384	-2.970400	3.306400	-9.819700	26.348928	0.000496	20.807932
2069.599283	-2.999600	3.306700	-9.917500	26.359186	0.000496	20.813975
2070.596300	-3.017600	3.305300	-9.972300	26.359538	0.000496	20.811483
2071.599469	-3.005300	3.305400	-9.933000	26.365773	0.000495	20.817275
2072.600451	-2.992900	3.304700	-9.889700	26.408161	0.000494	20.797289
2073.597630	-2.978000	3.304600	-9.840400	26.412777	0.000493	20.823739
2074.601652	-3.006100	3.305200	-9.934800	26.405777	0.000493	20.797264
2075.599032	-2.996600	3.303500	-9.897500	26.372060	0.000494	20.826438
2076.596480	-3.019800	3.304800	-9.978000	26.420778	0.000492	20.793849
2077.604628	-3.008500	3.302600	-9.934500	26.418200	0.000491	20.819233
2078.604249	-3.001800	3.302200	-9.911100	26.431483	0.000491	20.821678
2079.602199	-2.979700	3.302800	-9.840300	26.431535	0.000491	20.807506
2080.599710	-2.983300	3.303900	-9.855600	26.429426	0.000491	20.810128
2081.603927	-2.991500	3.304100	-9.883400	26.450109	0.000489	20.820010
2082.600646	-2.996600	3.301700	-9.892800	26.447408	0.000490	20.813028
2083.602634	-3.011300	3.301200	-9.938900	26.462926	0.000488	20.821039
2084.604648	-2.985500	3.301200	-9.854200	26.470579	0.000489	20.837265
2085.604086	-3.009800	3.299600	-9.929600	26.462759	0.000486	20.814233
2086.601449	-3.000500	3.300200	-9.899100	26.468248	0.000486	20.829232
2087.604908	-2.986800	3.300400	-9.856100	26.473689	0.000487	20.837547
2088.603205	-3.002900	3.299400	-9.906700	26.501941	0.000485	20.830856
2089.601707	-3.020100	3.298000	-9.959200	26.506759	0.000484	20.826217
2090.605535	-2.983300	3.299600	-9.843100	26.511927	0.000486	20.833781
2091.604086	-3.013900	3.297600	-9.937500	26.503735	0.000482	20.842142
2092.606851	-2.986900	3.298800	-9.851800	26.446433	0.000483	20.834333
2093.603168	-2.988500	3.298800	-9.857200	26.408847	0.000483	20.822160
2094.603000	-3.002600	3.298200	-9.901600	26.363535	0.000483	20.834940
2095.605623	-3.012400	3.298000	-9.934300	26.380741	0.000482	20.828999
2096.603284	-3.006100	3.296200	-9.907600	26.388740	0.000483	20.828978
2097.602632	-3.013200	3.297100	-9.933700	26.401160	0.000481	20.817753
2098.601841	-3.023900	3.295400	-9.963400	26.409454	0.000480	20.838417
2099.606892	-2.989000	3.297000	-9.853600	26.442726	0.000481	20.825866
2100.605134	-2.991800	3.296400	-9.860600	26.461180	0.000478	20.842991
2101.605727	-2.994700	3.296900	-9.872600	26.462348	0.000479	20.831364
2102.605500	-3.001500	3.295900	-9.891700	26.498776	0.000479	20.823408
2103.607989	-2.990400	3.294500	-9.851100	26.516455	0.000479	20.834540
2104.608996	-2.983400	3.294100	-9.827000	26.558486	0.000477	20.848339
2105.613183	-2.993800	3.295900	-9.865900	26.575794	0.000476	20.851513
2106.611320	-3.004000	3.293100	-9.891700	26.600155	0.000475	20.848500
2107.608840	-3.016600	3.292300	-9.931000	26.605691	0.000475	20.830833
2108.611449	-3.006400	3.292400	-9.896400	26.604751	0.000472	20.837949
2109.606771	-3.007300	3.293000	-9.902100	26.645194	0.000474	20.855371
2110.614316	-3.017200	3.290800	-9.927600	26.632265	0.000474	20.844270
2111.614192	-2.999900	3.292300	-9.875800	26.650163	0.000473	20.849461
2112.611486	-3.008700	3.292100	-9.903600	26.609156	0.000471	20.841903
2113.610511	-3.007800	3.291200	-9.898000	26.614299	0.000471	20.844701
2114.610497	-3.022500	3.290300	-9.943400	26.559836	0.000473	20.855386
2115.610348	-3.010300	3.291800	-9.908800	26.572325	0.000469	20.849923
2116.610917	-3.004900	3.289700	-9.884200	26.570096	0.000470	20.851475
2117.613350	-2.991900	3.289200	-9.839800	26.588868	0.000469	20.858965
2118.609530	-3.006600	3.289500	-9.889500	26.582144	0.000468	20.845095
2119.611308	-2.998100	3.288800	-9.859400	26.597861	0.000468	20.827704
2120.614537	-2.991000	3.289300	-9.837200	26.572862	0.000467	20.852359
2121.617509	-2.971800	3.291000	-9.779100	26.529194	0.000467	20.834069
2122.612224	-2.994400	3.288400	-9.845500	26.509361	0.000465	20.842107
2123.614702	-3.016300	3.287600	-9.915200	26.455738	0.000466	20.859805
2124.616075	-3.008900	3.287000	-9.888200	26.416311	0.000463	20.852895
2125.615107	-2.992900	3.287300	-9.836900	26.375070	0.000464	20.848429
2126.618502	-3.004200	3.285900	-9.870800	26.390438	0.000464	20.826892
2127.616784	-2.974800	3.286800	-9.776600	26.354364	0.000465	20.872189
2128.615789	-2.981900	3.287100	-9.800000	26.351540	0.000462	20.875514
2129.616154	-2.990800	3.286600	-9.828300	26.365373	0.000463	20.848640
2130.621821	-3.023700	3.284800	-9.931400	26.420869	0.000462	20.854631
2131.617492	-2.987300	3.286100	-9.814800	26.454194	0.000461	20.858253
2132.615760	-2.986100	3.286100	-9.811400	26.445181	0.000459	20.857255
2133.620675	-2.999800	3.284400	-9.851600	26.456854	0.000459	20.855238
2134.615178	-2.974200	3.285600	-9.770700	26.431504	0.000459	20.849673
2135.615868	-3.016200	3.284500	-9.905300	26.418051	0.000460	20.844212
2136.618309	-2.988800	3.283600	-9.813100	26.420684	0.000460	20.862505
2137.615032	-3.007100	3.282800	-9.871500	26.429651	0.000458	20.841172
2138.616581	-2.991300	3.283400	-9.820500	26.471910	0.000458	20.850931
2139.622487	-2.985600	3.284000	-9.803500	26.505255	0.000457	20.857420
2140.620644	-3.028800	3.281600	-9.937700	26.503596	0.000454	20.858598
2141.616886	-2.996100	3.282300	-9.833300	26.531329	0.000457	20.841904
2142.620483	-3.032600	3.281300	-9.949900	26.532772	0.000454	20.845725
2143.621023	-3.001800	3.280700	-9.846100	26.568248	0.000453	20.837764
2144.615132	-3.014100	3.279800	-9.885200	26.545937	0.000453	20.839992
2145.630032	-2.971400	3.282100	-9.751000	26.565177	0.000453	20.847479
2146.620302	-2.993800	3.279900	-9.818200	26.573298	0.000451	20.833358
2147.619155	-3.012200	3.278800	-9.875400	26.570021	0.000453	20.824848
2148.621304	-3.009100	3.280600	-9.870700	26.561087	0.000450	20.831514
2149.621048	-3.003800	3.279700	-9.850300	26.542123	0.000449	20.845168
2150.623138	-2.993300	3.279900	-9.816400	26.481324	0.000450	20.834316
2151.621747	-2.997800	3.278000	-9.825900	26.481254	0.000449	20.834719
2152.621868	-3.018300	3.277700	-9.891900	26.488928	0.000447	20.813035
2153.623752	-2.996900	3.277200	-9.820900	26.521162	0.000447	20.818409
2154.620728	-2.985000	3.276600	-9.779300	26.556762	0.000447	20.816262
2155.623444	-2.993200	3.277000	-9.807100	26.589808	0.000446	20.841893
2156.625121	-2.993700	3.276300	-9.807000	26.625465	0.000445	20.810882
2157.621779	-2.981000	3.276400	-9.766800	26.596865	0.000444	20.822910
2158.624035	-3.001600	3.276200	-9.832900	26.569909	0.000445	20.823787
2159.625200	-2.992300	3.275800	-9.801400	26.571426	0.000445	20.835743
2160.620522	-3.020600	3.273700	-9.886200	26.575202	0.000443	20.823893
2161.623905	-3.014600	3.272700	-9.864700	26.532408	0.000443	20.815963
2162.625229	-2.998300	3.275300	-9.818800	26.529010	0.000444	20.801642
2163.623213	-2.993800	3.274300	-9.801900	26.524149	0.000442	20.806713
2164.624508	-2.987000	3.273800	-9.777800	26.507765	0.000443	20.829599
2165.625893	-2.982500	3.273200	-9.760500	26.514221	0.000442	20.815700
2166.626298	-2.975600	3.273500	-9.739400	26.515742	0.000439	20.822918
2167.627956	-2.997400	3.272400	-9.807000	26.520585	0.000441	20.806924
2168.628639	-2.973900	3.273400	-9.734100	26.550978	0.000439	20.805232
2169.627512	-3.007200	3.271600	-9.836200	26.553689	0.000438	20.815543
2170.627676	-2.990200	3.272000	-9.782900	26.547982	0.000438	20.806488
2171.628322	-2.944100	3.272600	-9.632900	26.573112	0.000435	20.809938
2172.626936	-3.002500	3.270200	-9.817600	26.609284	0.000437	20.825910
2173.634708	-2.968500	3.271700	-9.710900	26.654320	0.000438	20.832304
2174.628186	-2.973400	3.271100	-9.725900	26.671007	0.000438	20.792181
2175.629942	-2.991800	3.269700	-9.781200	26.699626	0.000435	20.809099
2176.632586	-2.982500	3.270100	-9.751700	26.730535	0.000433	20.821207
2177.627214	-3.008500	3.269500	-9.835600	26.772188	0.000432	20.806186
2178.630300	-3.033400	3.268100	-9.912400	26.788303	0.000433	20.811483
2179.629913	-3.016900	3.266900	-9.853600	26.800466	0.000432	20.785305
2180.629261	-2.997200	3.267000	-9.790500	26.756286	0.000431	20.796837
2181.626659	-2.990700	3.267500	-9.771200	26.720521	0.000432	20.791225
2182.629661	-3.013000	3.265900	-9.838900	26.696277	0.000430	20.787715
2183.630410	-2.997400	3.266600	-9.790300	26.721249	0.000430	20.776310
2184.632064	-2.971600	3.267100	-9.707700	26.715097	0.000430	20.815169
2185.630516	-2.992700	3.267100	-9.775500	26.714280	0.000430	20.808658
2186.632996	-3.005700	3.265600	-9.815100	26.645945	0.000427	20.804444
2187.636187	-3.015700	3.264400	-9.843500	26.642076	0.000428	20.757407
2188.631829	-3.006300	3.264300	-9.812200	26.658662	0.000429	20.781667
2189.630435	-3.011000	3.264400	-9.828000	26.672044	0.000427	20.773309
2190.633178	-3.023300	3.265000	-9.870100	26.704911	0.000426	20.782169
2191.633239	-3.011500	3.263400	-9.827000	26.695882	0.000426	20.797275
2192.641344	-2.993600	3.264000	-9.770600	26.657683	0.000424	20.786373
2193.638042	-2.976100	3.262500	-9.708400	26.620943	0.000426	20.777887
2194.636675	-3.011500	3.262900	-9.825200	26.575489	0.000424	20.791464
2195.633837	-2.994400	3.263200	-9.770400	26.551482	0.000423	20.773496
2196.638228	-3.004700	3.262300	-9.800900	26.550616	0.000423	20.789695
2197.634487	-2.989900	3.262500	-9.753700	26.611639	0.000423	20.793191
2198.634119	-3.000100	3.260600	-9.780800	26.624103	0.000423	20.780116
2199.632715	-2.987100	3.260600	-9.738800	26.647243	0.000422	20.784886
2200.635099	-2.990700	3.261100	-9.752700	26.664620	0.000422	20.767742
2201.634304	-2.996300	3.258700	-9.762600	26.707068	0.000420	20.760155
2202.636599	-2.984700	3.260400	-9.730200	26.728044	0.000420	20.790254
2203.637408	-2.989200	3.259600	-9.742700	26.770197	0.000420	20.779054
2204.635682	-2.973000	3.260100	-9.690900	26.784144	0.000420	20.777905
2205.639298	-3.000800	3.259400	-9.779100	26.811106	0.000418	20.787943
2206.636923	-2.990900	3.259200	-9.747100	26.813140	0.000418	20.789514
2207.637751	-3.004500	3.259100	-9.791200	26.843099	0.000417	20.773170
2208.637341	-3.001100	3.257500	-9.775500	26.879856	0.000417	20.778361
2209.643443	-3.006100	3.256200	-9.787500	26.904131	0.000414	20.772897
2210.637896	-3.010200	3.256000	-9.800900	26.883432	0.000415	20.783853
2211.636151	-3.015900	3.257000	-9.820600	26.887503	0.000418	20.771825
2212.638391	-3.010800	3.256100	-9.802200	26.889889	0.000414	20.759525
2213.637394	-3.047200	3.254400	-9.914900	26.913987	0.000414	20.774748
2214.638487	-2.998900	3.256600	-9.765400	26.922777	0.000412	20.767466
2215.641286	-2.993400	3.255700	-9.743300	26.939900	0.000411	20.780417
2216.639799	-3.004800	3.254600	-9.777700	26.937268	0.000412	20.764967
2217.640237	-3.007800	3.254700	-9.788600	26.902181	0.000409	20.758609
2218.644487	-3.019100	3.253100	-9.820400	26.877738	0.000410	20.780498
2219.641798	-3.004100	3.252900	-9.770800	26.850584	0.000410	20.773584
2220.640578	-2.982400	3.254300	-9.704900	26.858801	0.000409	20.778527
2221.640872	-3.011400	3.251700	-9.790700	26.847037	0.000406	20.774758
2222.640231	-3.015200	3.251700	-9.802900	26.882777	0.000409	20.772289
2223.644778	-2.989600	3.252700	-9.722700	26.900970	0.000407	20.767349
2224.641480	-3.019800	3.251600	-9.818100	26.914050	0.000404	20.763906
2225.641050	-2.993500	3.251000	-9.730600	26.955717	0.000406	20.764079
2226.639105	-2.997400	3.249400	-9.738700	26.959095	0.000405	20.779330
2227.641487	-3.002600	3.250000	-9.757700	26.991679	0.000405	20.784595
2228.648963	-3.013300	3.249000	-9.786900	27.006447	0.000403	20.777161
2229.640888	-3.009100	3.247600	-9.771700	27.037270	0.000401	20.769277
2230.640863	-3.016400	3.247000	-9.793300	27.041889	0.000402	20.781984
2231.644591	-3.007400	3.248600	-9.769000	26.987372	0.000401	20.773152
2232.642713	-2.990900	3.249400	-9.718400	26.979603	0.000401	20.747320
2233.646640	-2.996400	3.247800	-9.730400	26.978265	0.000400	20.767787
2234.646854	-2.979300	3.247300	-9.673600	26.989483	0.000400	20.777172
2235.642828	-3.004700	3.246600	-9.753600	27.021598	0.000401	20.765845
2236.643075	-2.993200	3.246900	-9.718000	27.010138	0.000399	20.763803
2237.647083	-2.995300	3.246100	-9.721800	27.018128	0.000398	20.775632
2238.646643	-3.004100	3.245100	-9.746900	27.027977	0.000398	20.766096
2239.649690	-2.997800	3.245700	-9.728800	27.001084	0.000397	20.769397
2240.648703	-2.989700	3.244700	-9.700100	26.969272	0.000398	20.756846
2241.650533	-3.007800	3.244700	-9.759000	26.951009	0.000395	20.749387
2242.652124	-2.990000	3.244500	-9.700200	26.917956	0.000394	20.760721
2243.650516	-2.999100	3.244100	-9.728600	26.938778	0.000396	20.757002
2244.652426	-3.011900	3.243800	-9.768800	26.928510	0.000392	20.755211
2245.650554	-3.015600	3.242600	-9.776900	26.938834	0.000393	20.759904
2246.647632	-3.010200	3.242900	-9.760600	26.934865	0.000391	20.763973
2247.648632	-2.992300	3.241200	-9.696800	26.964968	0.000390	20.760105
2248.645581	-3.006300	3.242200	-9.745800	26.971302	0.000391	20.760311
2249.647574	-3.005100	3.241200	-9.737800	26.954451	0.000390	20.743838
2250.649618	-2.993500	3.240800	-9.699800	26.924079	0.000390	20.773991
2251.648790	-3.002600	3.239900	-9.727500	26.908494	0.000389	20.745042
2252.651195	-2.992100	3.241200	-9.697100	26.912094	0.000388	20.740601
2253.654222	-3.002400	3.238300	-9.721800	26.935150	0.000389	20.750509
2254.649617	-2.979600	3.239100	-9.649500	26.936220	0.000386	20.755852
2255.651258	-3.018100	3.237300	-9.769500	26.952899	0.000386	20.755555
2256.654292	-2.997800	3.239200	-9.709100	26.913811	0.000385	20.750389
2257.651512	-3.007600	3.236600	-9.733100	26.915553	0.000384	20.759253
2258.648005	-3.007500	3.238300	-9.738100	26.921359	0.000384	20.734744
2259.653439	-2.988700	3.237200	-9.674100	26.959331	0.000382	20.745427
2260.650647	-2.997000	3.236400	-9.698700	27.000873	0.000384	20.724139
2261.651246	-3.005800	3.236100	-9.726100	27.001123	0.000383	20.754263
2262.652328	-2.991300	3.235000	-9.675500	26.976855	0.000382	20.736970
2263.651859	-2.990300	3.236300	-9.675600	27.024279	0.000381	20.748626
2264.651524	-2.996200	3.234600	-9.690200	27.026735	0.000380	20.741139
2265.654039	-3.000400	3.234100	-9.702400	26.991693	0.000381	20.748573
2266.652055	-2.996800	3.232600	-9.685700	26.962115	0.000379	20.756288
2267.652843	-2.995400	3.233700	-9.684900	26.927222	0.000378	20.752020
2268.656789	-3.020000	3.232200	-9.759900	26.932163	0.000379	20.748927
2269.653522	-2.985900	3.234400	-9.656000	26.954894	0.000377	20.752820
2270.651962	-3.005400	3.232800	-9.714300	26.996641	0.000378	20.740746
2271.657078	-3.021200	3.231100	-9.760000	27.036295	0.000375	20.749805
2272.654076	-3.003800	3.231800	-9.706600	27.023738	0.000375	20.731485
2273.655492	-3.028600	3.230300	-9.782400	27.056147	0.000375	20.738474
2274.655155	-3.011800	3.231000	-9.730300	27.063666	0.000373	20.738924
2275.655034	-2.986600	3.230700	-9.648100	27.095082	0.000371	20.740647
2276.654658	-2.983900	3.231100	-9.640000	27.090022	0.000373	20.735084
2277.656232	-2.980500	3.228600	-9.622300	27.099747	0.000370	20.749607
2278.659364	-2.985400	3.228200	-9.634900	27.132703	0.000369	20.745293
2279.658975	-2.991300	3.227700	-9.654300	27.114095	0.000368	20.757399
2280.658619	-2.993000	3.228500	-9.661500	27.035433	0.000367	20.729971
2281.664676	-3.024300	3.227000	-9.757500	26.979797	0.000368	20.743248
2282.654760	-2.980100	3.228400	-9.620400	26.946967	0.000369	20.734890
2283.665623	-3.005100	3.226000	-9.693600	26.924706	0.000367	20.740481
2284.659807	-3.010500	3.227200	-9.714300	26.896491	0.000366	20.719695
2285.657733	-3.005300	3.226500	-9.695100	26.883292	0.000365	20.743882
2286.660153	-2.992400	3.225500	-9.651300	26.918235	0.000364	20.748199
2287.656527	-2.998100	3.225000	-9.667200	26.948937	0.000364	20.726914
2288.658751	-3.020900	3.224600	-9.739900	26.936206	0.000363	20.728336
2289.664051	-2.992100	3.224700	-9.648000	26.940548	0.000363	20.717529
2290.661712	-2.997000	3.224000	-9.661900	26.958818	0.000363	20.723574
2291.661082	-2.996300	3.222900	-9.655000	26.990385	0.000362	20.736352
2292.664846	-2.984000	3.223200	-9.617100	27.033221	0.000360	20.724901
2293.664562	-3.002800	3.222300	-9.674200	27.018781	0.000362	20.724129
2294.661320	-3.000300	3.222800	-9.668400	26.992229	0.000362	20.721136
2295.664648	-3.022500	3.221400	-9.734900	26.969998	0.000360	20.754732
2296.662585	-2.991700	3.222500	-9.639800	26.991093	0.000358	20.731847
2297.662882	-2.985600	3.222500	-9.619600	27.016279	0.000360	20.736313
2298.664792	-2.981900	3.221000	-9.603000	27.037725	0.000359	20.736069
2299.666074	-3.003000	3.220100	-9.668800	27.064571	0.000360	20.716125
2300.666827	-2.980000	3.218700	-9.590900	27.085914	0.000357	20.720046
2301.663551	-2.979500	3.218600	-9.589000	27.069117	0.000357	20.725439
2302.666462	-3.006600	3.217400	-9.671800	27.062738	0.000356	20.722817
2303.664126	-3.010300	3.216600	-9.682100	27.058945	0.000355	20.722321
2304.670250	-3.011500	3.218500	-9.690800	27.080629	0.000356	20.720421
2305.665786	-3.012800	3.217800	-9.693400	27.095171	0.000354	20.727934
2306.665688	-2.996600	3.216300	-9.636400	27.143631	0.000354	20.716928
2307.667272	-3.007500	3.215800	-9.670500	27.147382	0.000354	20.735400
2308.667483	-3.009600	3.215800	-9.676900	27.169859	0.000352	20.732877
2309.664739	-3.028300	3.214800	-9.733900	27.155941	0.000354	20.711766
2310.668312	-2.969500	3.216100	-9.549300	27.114504	0.000351	20.718454
2311.666169	-2.999300	3.213700	-9.637900	27.110212	0.000351	20.718404
2312.665728	-3.026700	3.214300	-9.727300	27.102763	0.000350	20.722293
2313.670581	-3.028100	3.211700	-9.724700	27.125027	0.000352	20.716709
2314.670329	-2.979500	3.212900	-9.571500	27.129196	0.000352	20.712841
2315.672845	-3.019000	3.212900	-9.699100	27.152719	0.000351	20.723698
2316.669129	-3.002900	3.211800	-9.643900	27.112101	0.000350	20.712718
2317.676551	-3.002400	3.211400	-9.641300	27.061676	0.000349	20.719852
2318.673606	-2.986800	3.211000	-9.589000	27.020386	0.000348	20.705353
2319.670928	-2.997400	3.213200	-9.630400	26.989415	0.000348	20.723995
2320.673656	-3.014200	3.210200	-9.675300	26.926108	0.000348	20.719130
2321.669269	-3.005900	3.209400	-9.645400	26.869790	0.000349	20.718450
2322.672667	-2.983100	3.210100	-9.575300	26.876617	0.000347	20.720099
2323.671433	-3.007600	3.210500	-9.654300	26.808334	0.000348	20.706917
2324.671738	-2.990100	3.208700	-9.593400	26.818135	0.000345	20.701598
2325.671249	-3.000000	3.207700	-9.622000	26.792177	0.000344	20.700155
2326.672998	-3.015300	3.206800	-9.669300	26.784328	0.000345	20.728776
2327.673397	-3.006500	3.206000	-9.637500	26.786757	0.000344	20.714147
2328.672366	-3.011100	3.207400	-9.657000	26.805494	0.000345	20.721606
2329.673544	-3.000700	3.205000	-9.615200	26.826334	0.000345	20.724543
2330.673368	-2.997400	3.205500	-9.607100	26.837156	0.000343	20.717880
2331.672739	-2.998000	3.204400	-9.605700	26.812307	0.000345	20.706644
2332.672009	-2.993100	3.204300	-9.589700	26.806070	0.000343	20.727876
2333.673801	-3.002100	3.204800	-9.620000	26.783525	0.000346	20.715165
2334.674668	-3.015400	3.203200	-9.657500	26.819514	0.000344	20.710572
2335.675885	-3.011100	3.201700	-9.640100	26.870390	0.000343	20.701509
2336.675341	-3.019900	3.204700	-9.677600	26.919244	0.000343	20.725979
2337.674767	-2.995500	3.202600	-9.592700	26.948550	0.000345	20.718937
2338.675701	-2.983500	3.202400	-9.553700	26.974750	0.000341	20.716835
2339.676207	-2.993500	3.201000	-9.580700	27.054697	0.000341	20.712833
2340.678781	-3.001000	3.202800	-9.610400	27.079308	0.000340	20.709609
2341.674797	-2.994000	3.201400	-9.583900	27.090321	0.000341	20.729220
2342.675357	-3.007000	3.200000	-9.620600	27.062648	0.000340	20.712769
2343.676930	-2.976500	3.200900	-9.526600	27.063285	0.000337	20.717203
2344.679408	-2.996500	3.198900	-9.585200	27.028466	0.000338	20.741931
2345.677968	-3.014100	3.198200	-9.639200	27.006594	0.000338	20.718038
2346.681350	-3.003800	3.197200	-9.601800	26.994156	0.000338	20.731135
2347.674960	-3.017900	3.196900	-9.646300	26.990004	0.000336	20.738814
2348.681320	-3.009200	3.197000	-9.619200	27.030648	0.000335	20.719468
2349.678770	-2.982500	3.198400	-9.537900	27.066621	0.000334	20.718661
2350.676016	-2.995100	3.195900	-9.570600	27.072177	0.000334	20.731836
2351.677357	-2.995600	3.195500	-9.571700	27.126736	0.000331	20.699460
2352.676584	-3.009900	3.194000	-9.612500	27.119583	0.000333	20.728778
2353.682581	-2.998600	3.195600	-9.581700	27.093178	0.000331	20.737310
2354.679055	-2.991100	3.193500	-9.550500	27.072107	0.000331	20.734136
2355.678651	-3.003500	3.193400	-9.590300	27.024955	0.000330	20.725123
2356.683387	-3.008700	3.192000	-9.602900	26.995146	0.000327	20.732130
2357.682960	-2.983300	3.194400	-9.528700	26.958491	0.000330	20.718028
2358.685039	-2.998400	3.192200	-9.571200	26.961067	0.000327	20.743380
2359.680988	-2.998700	3.192800	-9.573200	26.962031	0.000327	20.744823
2360.680101	-3.001300	3.191700	-9.577300	27.009179	0.000326	20.744820
2361.681942	-3.014900	3.190800	-9.618700	27.067544	0.000327	20.738082
2362.681803	-3.030300	3.189700	-9.665200	27.076745	0.000322	20.739749
2363.681778	-3.027700	3.189300	-9.655500	27.072080	0.000324	20.729367
2364.679773	-2.994000	3.190600	-9.550600	27.108949	0.000324	20.738946
2365.684979	-2.965600	3.189000	-9.455600	27.148550	0.000324	20.740843
2366.682953	-3.006600	3.187200	-9.582000	27.189712	0.000323	20.731508
2367.681556	-2.982600	3.187500	-9.506300	27.187478	0.000323	20.743486
2368.680920	-3.007600	3.188200	-9.586900	27.138474	0.000322	20.749201
2369.682587	-2.998400	3.185500	-9.550300	27.098098	0.000320	20.738939
2370.682720	-2.994400	3.186200	-9.539400	27.102113	0.000321	20.740606
2371.683214	-3.016500	3.185100	-9.607200	27.125541	0.000321	20.730029
2372.681436	-2.990300	3.186100	-9.526100	27.119634	0.000320	20.750168
2373.683163	-2.998100	3.185300	-9.548400	27.147076	0.000320	20.737464
2374.682822	-3.009400	3.183300	-9.579200	27.165110	0.000318	20.754181
2375.682525	-3.002100	3.183000	-9.555200	27.166475	0.000319	20.740380
2376.683514	-3.038100	3.182200	-9.666400	27.183176	0.000318	20.745323
2377.686337	-3.008000	3.181700	-9.569200	27.124419	0.000317	20.736962
2378.685955	-2.988300	3.183200	-9.511200	27.076334	0.000316	20.748345
2379.684492	-3.001300	3.182300	-9.548900	27.072981	0.000315	20.759672
2380.690680	-3.021700	3.179600	-9.606600	27.086087	0.000315	20.742506
2381.688218	-3.011400	3.180500	-9.577600	27.062088	0.000315	20.735440
2382.685144	-3.006800	3.178700	-9.556500	27.041118	0.000314	20.745645
2383.687212	-3.020600	3.178200	-9.598600	27.048739	0.000313	20.773699
2384.687668	-3.001900	3.179400	-9.542200	27.085911	0.000314	20.743752
2385.684756	-2.998300	3.178900	-9.530500	27.098116	0.000314	20.766934
2386.687544	-2.993600	3.177900	-9.512100	27.130228	0.000314	20.747071
2387.689414	-3.022000	3.175500	-9.595600	27.140248	0.000314	20.754304
2388.684755	-2.982700	3.178000	-9.478100	27.121664	0.000313	20.749365
2389.687405	-2.998700	3.176500	-9.524300	27.036822	0.000312	20.738480
2390.690450	-3.010200	3.175100	-9.555100	27.012603	0.000311	20.739255
2391.685702	-2.999200	3.176300	-9.525200	26.965850	0.000311	20.766682
2392.686141	-3.013600	3.173500	-9.561600	26.964161	0.000313	20.745069
2393.688922	-3.026200	3.173200	-9.601600	26.962029	0.000313	20.740553
2394.696563	-3.001800	3.172700	-9.522500	26.976467	0.000310	20.761237
2395.688643	-3.036900	3.171000	-9.627700	27.006766	0.000310	20.760887
2396.688993	-3.020400	3.172800	-9.582200	27.031681	0.000309	20.743268
2397.689528	-3.019500	3.170900	-9.573400	27.057711	0.000310	20.761860
2398.689824	-2.980600	3.172800	-9.455600	27.108974	0.000307	20.736601
2399.692348	-2.977900	3.170600	-9.440900	27.145377	0.000310	20.746661
2400.689712	-3.031500	3.167300	-9.601800	27.182494	0.000308	20.747957
2401.691152	-3.018300	3.168100	-9.561100	27.243727	0.000307	20.745062
2402.691398	-3.019300	3.168700	-9.565900	27.274118	0.000307	20.767571
2403.689826	-3.007800	3.168500	-9.530000	27.312668	0.000307	20.766046
2404.689517	-2.986500	3.167300	-9.457200	27.324600	0.000307	20.757660
2405.690976	-2.989500	3.166600	-9.465600	27.352705	0.000306	20.761276
2406.692951	-3.011100	3.166200	-9.532700	27.351886	0.000306	20.750020
2407.690977	-3.007900	3.165400	-9.519800	27.400707	0.000304	20.782539
2408.690052	-3.001700	3.165400	-9.500400	27.403461	0.000304	20.762550
2409.692815	-2.995600	3.164600	-9.478800	27.382987	0.000303	20.755229
2410.692839	-3.003400	3.164800	-9.503900	27.355059	0.000302	20.754635
2411.689312	-3.015300	3.162500	-9.534100	27.311543	0.000302	20.772501
2412.691004	-2.981700	3.162400	-9.427300	27.298067	0.000301	20.777437
2413.697854	-3.002600	3.163300	-9.496700	27.287897	0.000300	20.747292
2414.691864	-2.999400	3.162000	-9.482900	27.319377	0.000301	20.759992
2415.697633	-3.018000	3.159000	-9.531500	27.313570	0.000299	20.757470
2416.692001	-2.988600	3.161600	-9.446100	27.315976	0.000299	20.772218
2417.694309	-2.985500	3.161200	-9.436900	27.343314	0.000300	20.768899
2418.696519	-3.024200	3.158500	-9.550600	27.329937	0.000300	20.772986
2419.695063	-2.981700	3.159500	-9.419300	27.302078	0.000299	20.775308
2420.694337	-2.985800	3.158000	-9.427700	27.309176	0.000299	20.762533
2421.694383	-2.994900	3.159100	-9.460100	27.302081	0.000296	20.759189
2422.697050	-3.001200	3.156500	-9.472700	27.322097	0.000297	20.770315
2423.695364	-3.006200	3.155400	-9.483700	27.339537	0.000298	20.771737
2424.694945	-2.996300	3.156700	-9.456700	27.355144	0.000295	20.769894
2425.705527	-2.994300	3.154800	-9.445700	27.403913	0.000297	20.799989
2426.694653	-3.015700	3.155000	-9.513300	27.418921	0.000297	20.761033
2427.697571	-2.998700	3.154700	-9.459100	27.402298	0.000295	20.778924
2428.694819	-2.984600	3.153600	-9.410900	27.399917	0.000295	20.792176
2429.700399	-3.012000	3.150800	-9.488600	27.362063	0.000296	20.748878
2430.699516	-3.009100	3.152400	-9.485100	27.354349	0.000292	20.790431
2431.698355	-3.034500	3.149200	-9.555000	27.355193	0.000295	20.789384
2432.698712	-3.026900	3.148800	-9.530000	27.391859	0.000293	20.780750
2433.699667	-2.993300	3.150200	-9.428300	27.412449	0.000293	20.788188
2434.700447	-2.982400	3.148500	-9.388700	27.459531	0.000293	20.787664
2435.698959	-2.995300	3.147300	-9.426200	27.460677	0.000291	20.786446
2436.702615	-3.008600	3.147600	-9.468600	27.438825	0.000290	20.777738
2437.705757	-2.987200	3.147100	-9.400800	27.379238	0.000291	20.786546
2438.699770	-2.997700	3.145700	-9.428500	27.314516	0.000293	20.791613
2439.703279	-3.012200	3.144500	-9.469900	27.253933	0.000293	20.770028
2440.701219	-3.014800	3.143600	-9.476300	27.254883	0.000291	20.797061
2441.699718	-2.994300	3.145400	-9.416200	27.289564	0.000290	20.789747
2442.702995	-2.999400	3.144000	-9.429300	27.344393	0.000287	20.777097
2443.702274	-3.011200	3.142100	-9.460500	27.370345	0.000288	20.785186
2444.700322	-3.009100	3.141700	-9.452600	27.356979	0.000290	20.773636
2445.702452	-2.972900	3.143000	-9.342200	27.370872	0.000287	20.777182
2446.703439	-2.979100	3.141200	-9.355900	27.364126	0.000289	20.788887
2447.704231	-2.993900	3.141500	-9.403000	27.368544	0.000287	20.789064
2448.701708	-3.010800	3.138800	-9.449400	27.366834	0.000289	20.790663
2449.703662	-3.013800	3.137200	-9.453600	27.397348	0.000287	20.786746
2450.702750	-3.005000	3.137700	-9.427900	27.393929	0.000288	20.782832
2451.703893	-2.996600	3.136400	-9.397500	27.414990	0.000287	20.785528
2452.707715	-2.981500	3.137400	-9.352900	27.456592	0.000287	20.786130
2453.706331	-2.989300	3.136100	-9.373700	27.479861	0.000287	20.812385
2454.708700	-2.995000	3.135200	-9.389400	27.469718	0.000286	20.787956
2455.707355	-3.010400	3.134900	-9.435700	27.493183	0.000286	20.794969
2456.707991	-3.004000	3.132900	-9.409700	27.520320	0.000286	20.800935
2457.704873	-2.978000	3.133300	-9.329900	27.541805	0.000284	20.803585
2458.707294	-3.012700	3.132000	-9.434300	27.566637	0.000285	20.806284
2459.705246	-2.995600	3.131800	-9.380600	27.602005	0.000285	20.793033
2460.704693	-3.012600	3.131700	-9.433000	27.616272	0.000284	20.795534
2461.703124	-2.996200	3.129700	-9.375900	27.648019	0.000283	20.774848
2462.704312	-2.993700	3.128200	-9.363200	27.646356	0.000284	20.789770
2463.704133	-2.977900	3.128200	-9.314500	27.645392	0.000283	20.791645
2464.704863	-3.023900	3.127500	-9.455300	27.629494	0.000283	20.816899
2465.705455	-3.004300	3.126400	-9.391700	27.624982	0.000286	20.791497
2466.706302	-3.031400	3.125700	-9.473700	27.594103	0.000289	20.799780
2467.705516	-3.029100	3.124300	-9.463000	27.598048	0.000284	20.792845
2468.703935	-3.030300	3.124100	-9.465700	27.603105	0.000284	20.779915
2469.706232	-3.018900	3.122300	-9.425200	27.583988	0.000281	20.794819
2470.709763	-3.004800	3.122000	-9.379800	27.595196	0.000283	20.801829
2471.707105	-2.994100	3.122700	-9.348900	27.627141	0.000282	20.798411
2472.710169	-3.014300	3.121100	-9.406000	27.616673	0.000283	20.793567
2473.709435	-2.996000	3.118200	-9.341300	27.604319	0.000281	20.798206
2474.710183	-2.979300	3.120200	-9.294600	27.575130	0.000280	20.796812
2475.710605	-2.977100	3.120000	-9.287600	27.575946	0.000284	20.811857
2476.708573	-3.007900	3.116200	-9.371700	27.579494	0.000281	20.808315
2477.707348	-2.975900	3.117300	-9.275400	27.610346	0.000281	20.799055
2478.712386	-2.990700	3.116400	-9.318300	27.613395	0.000280	20.794062
2479.708267	-2.968800	3.115900	-9.249100	27.589239	0.000278	20.801525
2480.708734	-3.014400	3.114200	-9.386300	27.594869	0.000279	20.793914
2481.709883	-3.007100	3.112000	-9.357500	27.602905	0.000278	20.813853
2482.713557	-3.001100	3.112800	-9.340500	27.613944	0.000280	20.797459
2483.711230	-2.994100	3.112400	-9.316700	27.623365	0.000278	20.837758
2484.709752	-2.989700	3.111000	-9.300200	27.661512	0.000279	20.817349
2485.714210	-3.001400	3.110100	-9.334100	27.695259	0.000278	20.821910
2486.711395	-3.007200	3.108900	-9.347400	27.682066	0.000276	20.827599
2487.709799	-3.001100	3.108200	-9.326400	27.671601	0.000279	20.837931
2488.720072	-2.994800	3.107100	-9.303700	27.699627	0.000276	20.817296
2489.710247	-2.995800	3.106600	-9.305600	27.690280	0.000275	20.814054
2490.712789	-3.038200	3.105900	-9.434100	27.696529	0.000275	20.808488
2491.713420	-2.999400	3.106400	-9.316500	27.711459	0.000275	20.822564
2492.712917	-2.991000	3.105100	-9.286600	27.717633	0.000275	20.790846
2493.710986	-2.992300	3.103100	-9.284500	27.739557	0.000276	20.830925
2494.713928	-2.998900	3.102700	-9.303500	27.692239	0.000277	20.837836
2495.715021	-2.996100	3.101200	-9.290200	27.654148	0.000276	20.827008
2496.717286	-2.995800	3.101800	-9.290500	27.612431	0.000274	20.813955
2497.724996	-3.009400	3.098400	-9.323400	27.603629	0.000276	20.833547
2498.714016	-2.973300	3.099700	-9.215400	27.647653	0.000276	20.801507
2499.712024	-2.997500	3.097100	-9.282700	27.647780	0.000275	20.825342
2500.713787	-2.994200	3.097300	-9.273100	27.627813	0.000274	20.827061
2501.712511	-2.981900	3.096500	-9.232900	27.616433	0.000275	20.829361
2502.713934	-2.991500	3.095400	-9.259100	27.641629	0.000273	20.825791
2503.714909	-3.010700	3.093800	-9.313600	27.610954	0.000272	20.825271
2504.715397	-3.018800	3.092300	-9.333600	27.590617	0.000275	20.826145
2505.714871	-3.031500	3.091600	-9.370900	27.560778	0.000272	20.821725
2506.716830	-3.000300	3.092400	-9.277700	27.518392	0.000270	20.821279
2507.717484	-2.982700	3.090200	-9.215400	27.531067	0.000271	20.834506
2508.716939	-3.004100	3.089800	-9.280100	27.589010	0.000274	20.830691
2509.717746	-2.997500	3.089600	-9.259700	27.572045	0.000270	20.856295
2510.718962	-2.976500	3.089500	-9.195200	27.566320	0.000272	20.834414
2511.719839	-2.982500	3.088800	-9.211700	27.619077	0.000271	20.832022
2512.721775	-3.003500	3.086300	-9.269300	27.651489	0.000273	20.826703
2513.717288	-2.993900	3.084600	-9.234000	27.667092	0.000273	20.825808
2514.726392	-3.010200	3.084000	-9.281900	27.637652	0.000272	20.820840
2515.719428	-2.994600	3.083300	-9.231600	27.613370	0.000272	20.831969
2516.721862	-3.005800	3.082400	-9.264300	27.639959	0.000273	20.834067
2517.721103	-2.991700	3.081000	-9.216300	27.679094	0.000273	20.824609
2518.719104	-3.004500	3.079900	-9.253000	27.711036	0.000272	20.854380
2519.721901	-2.991300	3.078800	-9.208900	27.736726	0.000274	20.853206
2520.720915	-3.014900	3.077300	-9.277000	27.723312	0.000272	20.835440
2521.722295	-3.005100	3.075900	-9.242700	27.721227	0.000272	20.822910
2522.719780	-2.997200	3.076900	-9.220600	27.711827	0.000271	20.854702
2523.718504	-2.998900	3.074800	-9.220100	27.692062	0.000271	20.825331
2524.721811	-2.983000	3.075400	-9.173100	27.651961	0.000273	20.852307
2525.721795	-2.982900	3.073600	-9.167500	27.645086	0.000273	20.844915
2526.724871	-2.987100	3.072300	-9.176900	27.622967	0.000273	20.852056
2527.722863	-2.978300	3.071700	-9.147800	27.599229	0.000272	20.837655
2528.724348	-2.993000	3.070500	-9.187900	27.581787	0.000271	20.823424
2529.720273	-2.966700	3.070400	-9.107800	27.590121	0.000273	20.845085
2530.728811	-2.998000	3.068200	-9.197300	27.577050	0.000272	20.848528
2531.722804	-2.984400	3.067800	-9.154600	27.624363	0.000272	20.844926
2532.725781	-2.993900	3.064800	-9.175400	27.664269	0.000271	20.848097
2533.724291	-3.034000	3.063000	-9.292000	27.722370	0.000273	20.849664
2534.730107	-2.972900	3.064800	-9.109900	27.705502	0.000272	20.849760
2535.725532	-2.990400	3.062400	-9.157200	27.685487	0.000272	20.856171
2536.727329	-3.000800	3.062500	-9.189000	27.634738	0.000272	20.871485
2537.725881	-3.009800	3.060400	-9.210200	27.642225	0.000272	20.847726
2538.726068	-3.005900	3.059900	-9.196200	27.677885	0.000273	20.845203
2539.728143	-3.011000	3.059500	-9.211400	27.733602	0.000273	20.867130
2540.738655	-3.000700	3.056900	-9.171700	27.734442	0.000275	20.873666
2541.730045	-2.999100	3.056100	-9.164000	27.745125	0.000275	20.877777
2542.727578	-3.003800	3.055300	-9.176600	27.779362	0.000274	20.878093
2543.737534	-3.000400	3.054800	-9.164900	27.795800	0.000276	20.851489
2544.734339	-3.002600	3.053100	-9.166500	27.783589	0.000275	20.873338
2545.736637	-3.003400	3.052500	-9.167200	27.775056	0.000275	20.877078
2546.730754	-2.988900	3.051900	-9.120100	27.740457	0.000275	20.875451
2547.729499	-2.998100	3.050800	-9.144600	27.717637	0.000276	20.870979
2548.731527	-3.006100	3.049000	-9.165200	27.743222	0.000275	20.874440
2549.734243	-3.008000	3.048700	-9.169800	27.755564	0.000276	20.888282
2550.734456	-3.020000	3.046800	-9.199500	27.791464	0.000277	20.886952
2551.732013	-2.994100	3.046300	-9.119700	27.812659	0.000276	20.878411
2552.732497	-2.992000	3.043800	-9.105600	27.785871	0.000277	20.873738
2553.734816	-3.026800	3.042000	-9.204600	27.783730	0.000277	20.875851
2554.732450	-2.996500	3.041700	-9.113600	27.809616	0.000277	20.883883
2555.733975	-2.982500	3.041900	-9.069900	27.867678	0.000276	20.916710
2556.730532	-2.993600	3.039400	-9.098600	27.894521	0.000275	20.880668
2557.732669	-2.982300	3.040000	-9.064900	27.935623	0.000275	20.896906
2558.730914	-2.997500	3.037800	-9.104300	27.954408	0.000276	20.878356
2559.732144	-2.958100	3.038600	-8.986600	27.959436	0.000276	20.897165
2560.732734	-3.009600	3.034900	-9.132000	28.002121	0.000275	20.906939
2561.735985	-2.983800	3.035200	-9.055100	27.952800	0.000275	20.901866
2562.734474	-3.000100	3.034400	-9.102300	27.928421	0.000274	20.884915
2563.734344	-3.031000	3.030400	-9.184000	27.939422	0.000275	20.898832
2564.740765	-3.001600	3.031100	-9.097000	27.958406	0.000273	20.909879
2565.734014	-3.013700	3.029000	-9.127500	27.949126	0.000273	20.900539
2566.738573	-2.998000	3.029700	-9.082600	27.917828	0.000273	20.909814
2567.738860	-3.002000	3.027900	-9.088400	27.870884	0.000271	20.895284
2568.743915	-2.988100	3.025800	-9.040600	27.845829	0.000270	20.893774
2569.741476	-3.002700	3.025900	-9.085100	27.827227	0.000271	20.900183
2570.735293	-2.984500	3.023000	-9.020400	27.846685	0.000271	20.888947
2571.737704	-2.986800	3.022900	-9.026400	27.850620	0.000270	20.903337
2572.740665	-3.011500	3.021500	-9.098100	27.825075	0.000269	20.904180
2573.736275	-2.984500	3.020900	-9.014500	27.756231	0.000268	20.883738
2574.737735	-3.019700	3.018600	-9.114900	27.730339	0.000269	20.897983
2575.739950	-3.008000	3.017200	-9.074400	27.703173	0.000269	20.884398
2576.737282	-2.996000	3.017100	-9.038200	27.764944	0.000269	20.909573
2577.743608	-3.022000	3.014300	-9.107500	27.775032	0.000270	20.903605
2578.743486	-2.999200	3.014800	-9.041000	27.754594	0.000270	20.892995
2579.742494	-2.971700	3.015300	-8.959200	27.776360	0.000271	20.898777
2580.742939	-2.999600	3.012100	-9.034000	27.839068	0.000268	20.886971
2581.740785	-2.993800	3.011200	-9.014200	27.853270	0.000268	20.887039
2582.739483	-3.010800	3.009200	-9.059400	27.907047	0.000270	20.873361
2583.739535	-2.989200	3.007500	-8.989200	27.908058	0.000269	20.880068
2584.742484	-2.997300	3.006300	-9.009400	27.915691	0.000270	20.898180
2585.740056	-3.011000	3.005300	-9.047700	27.927511	0.000267	20.884000
2586.740756	-2.997200	3.003800	-9.002500	27.874792	0.000269	20.892578
2587.742435	-2.995600	3.002600	-8.994200	27.830479	0.000270	20.888284
2588.741452	-2.990600	3.002000	-8.977200	27.825759	0.000268	20.878792
2589.741051	-2.996400	3.000500	-8.989600	27.802494	0.000270	20.890940
2590.739202	-2.975400	2.998800	-8.920800	27.851040	0.000269	20.865831
2591.741125	-3.013700	2.997400	-9.031100	27.902684	0.000270	20.864703
2592.742563	-2.977000	2.996400	-8.918700	27.923108	0.000271	20.873405
2593.745273	-3.003200	2.995500	-8.995400	27.891933	0.000272	20.879486
2594.755805	-2.978300	2.994600	-8.918200	27.927857	0.000269	20.863487
2595.743733	-2.985800	2.992900	-8.935000	27.974784	0.000270	20.882269
2596.745975	-2.990800	2.991800	-8.947300	27.991986	0.000271	20.860231
2597.743478	-3.006100	2.989500	-8.985400	28.031795	0.000271	20.871852
2598.742610	-2.985400	2.990300	-8.925400	28.058340	0.000272	20.884821
2599.747784	-3.013500	2.986900	-8.999900	28.099190	0.000270	20.865727
2600.745427	-2.981600	2.988000	-8.907900	28.048686	0.000270	20.877949
2601.743485	-3.019200	2.985100	-9.012100	28.079818	0.000270	20.874675
2602.746407	-3.006000	2.982700	-8.964800	28.069573	0.000270	20.887120
2603.747967	-2.983600	2.982400	-8.897500	28.105663	0.000268	20.874140
2604.745480	-2.977500	2.982100	-8.878400	28.102684	0.000270	20.887735
2605.749938	-2.970700	2.979700	-8.849800	28.105031	0.000269	20.865443
2606.745985	-2.983300	2.977800	-8.881800	28.066380	0.000270	20.902871
2607.747087	-3.003400	2.976800	-8.939600	28.063225	0.000269	20.866033
2608.750881	-2.990000	2.974400	-8.892600	28.004986	0.000269	20.880902
2609.752138	-2.992400	2.973800	-8.897900	27.985344	0.000269	20.884364
2610.746772	-3.018100	2.971100	-8.965400	28.009365	0.000269	20.899533
2611.750899	-2.983700	2.971200	-8.863900	28.057606	0.000268	20.876497
2612.755943	-3.008800	2.970100	-8.935800	28.107803	0.000269	20.880086
2613.752358	-2.991000	2.969300	-8.880800	28.125622	0.000269	20.888540
2614.751800	-2.963800	2.968300	-8.795500	28.138831	0.000270	20.889036
2615.754992	-3.019000	2.965800	-8.952400	28.129825	0.000269	20.886134
2616.756364	-2.982600	2.965300	-8.843100	28.119885	0.000268	20.876602
2617.750263	-3.015400	2.962200	-8.930700	28.144892	0.000268	20.893241
2618.750248	-2.982200	2.961300	-8.830200	28.136381	0.000267	20.873295
2619.751607	-2.973700	2.960800	-8.802900	28.135316	0.000271	20.865585
2620.751064	-3.000800	2.958400	-8.876900	28.143217	0.000271	20.873538
2621.750983	-3.008400	2.955700	-8.891300	28.141724	0.000270	20.874880
2622.750870	-3.014300	2.954900	-8.906600	28.208924	0.000268	20.869039
2623.750851	-2.988000	2.955700	-8.830500	28.181728	0.000270	20.880540
2624.756844	-2.993000	2.953700	-8.839200	28.194264	0.000269	20.875143
2625.754129	-2.981500	2.953800	-8.805500	28.176387	0.000268	20.867103
2626.754951	-2.999300	2.950300	-8.847500	28.128688	0.000269	20.879300
2627.754371	-2.981700	2.947000	-8.786100	28.062988	0.000269	20.862949
2628.755419	-2.995500	2.947300	-8.827800	28.063878	0.000269	20.865268
2629.754930	-3.016700	2.944000	-8.880500	28.041362	0.000266	20.875318
2630.756618	-3.007000	2.941500	-8.844100	28.061165	0.000269	20.880079
2631.755146	-3.010600	2.940100	-8.849800	28.053944	0.000268	20.858587
2632.759885	-3.004800	2.939600	-8.832200	28.057762	0.000267	20.888032
2633.764623	-2.989100	2.939300	-8.784200	28.089860	0.000267	20.865818
2634.758790	-2.993200	2.936700	-8.789400	28.101877	0.000265	20.868432
2635.760325	-3.004100	2.934600	-8.814800	28.098896	0.000267	20.889611
2636.757737	-3.022500	2.934300	-8.867400	28.081244	0.000263	20.871368
2637.758744	-3.039300	2.930200	-8.904500	28.052977	0.000265	20.868519
2638.755579	-2.987600	2.930700	-8.754300	28.042609	0.000265	20.859980
2639.761618	-3.014500	2.930100	-8.831300	28.117102	0.000266	20.856733
2640.754514	-3.032400	2.927000	-8.873800	28.124658	0.000267	20.874295
2641.759534	-2.993400	2.927200	-8.761500	28.117914	0.000267	20.858024
2642.756499	-2.970300	2.924900	-8.686800	28.151500	0.000263	20.873816
2643.757893	-3.029300	2.921800	-8.849900	28.187243	0.000264	20.857644
2644.764746	-2.999600	2.922200	-8.764100	28.174749	0.000264	20.886315
2645.759654	-3.033600	2.919800	-8.855200	28.119416	0.000263	20.861432
2646.760368	-2.986900	2.919500	-8.719600	28.065717	0.000263	20.870912
2647.762941	-3.010400	2.915600	-8.776300	28.033014	0.000262	20.864071
2648.763903	-2.983300	2.914900	-8.694700	28.048213	0.000263	20.857560
2649.762778	-3.010000	2.913900	-8.770400	28.048055	0.000263	20.858823
2650.763658	-2.981600	2.912400	-8.683100	28.056810	0.000263	20.872377
2651.761049	-3.005800	2.909900	-8.745400	28.105323	0.000261	20.867159
2652.758717	-2.961100	2.911800	-8.620400	28.154011	0.000264	20.845051
2653.758479	-3.002200	2.906700	-8.725400	28.179392	0.000263	20.850689
2654.765913	-2.982400	2.905700	-8.664500	28.184299	0.000262	20.860370
2655.766016	-3.015600	2.902200	-8.751100	28.176490	0.000262	20.861991
2656.765004	-2.982100	2.902100	-8.653600	28.195080	0.000262	20.855577
2657.761714	-2.996800	2.899400	-8.687900	28.192902	0.000265	20.849591
2658.760110	-2.998400	2.898400	-8.689300	28.204874	0.000262	20.840782
2659.764956	-3.008700	2.895700	-8.711200	28.193026	0.000262	20.844026
2660.763328	-3.024400	2.894600	-8.753100	28.134523	0.000263	20.853407
2661.760564	-3.009600	2.893500	-8.706600	28.070147	0.000262	20.854509
2662.760838	-2.990100	2.891300	-8.644500	28.064223	0.000263	20.838115
2663.765294	-2.992700	2.888200	-8.642600	28.080041	0.000262	20.855934
2664.766783	-3.006600	2.887700	-8.681300	28.088344	0.000264	20.862395
2665.765240	-2.978800	2.886500	-8.597600	28.080462	0.000262	20.860625
2666.763396	-3.004200	2.885100	-8.665800	28.084233	0.000262	20.858731
2667.765479	-3.009600	2.881400	-8.670400	28.081681	0.000264	20.835774
2668.765280	-3.037500	2.879900	-8.746700	28.078955	0.000265	20.843462
2669.763904	-3.003700	2.878700	-8.645600	28.089145	0.000263	20.857987
2670.769534	-2.997700	2.877200	-8.623700	28.067086	0.000263	20.827721
2671.764050	-3.013300	2.873600	-8.657900	28.028686	0.000264	20.821309
2672.765108	-2.976000	2.872700	-8.547200	28.046832	0.000263	20.839575
2673.769550	-3.012400	2.870700	-8.646700	28.023257	0.000262	20.833389
2674.763760	-3.026600	2.868000	-8.678900	28.018251	0.000264	20.838780
2675.764075	-3.004700	2.865600	-8.609600	28.029780	0.000264	20.852756
2676.766856	-2.998400	2.864400	-8.586900	28.054575	0.000263	20.828404
2677.766733	-2.994800	2.861400	-8.568500	28.106291	0.000263	20.827833
2678.765320	-3.019100	2.859900	-8.632800	28.150689	0.000262	20.836491
2679.767490	-2.996500	2.858700	-8.564400	28.218189	0.000261	20.839014
2680.766985	-2.985400	2.857900	-8.530600	28.239803	0.000262	20.813834
2681.770041	-3.023100	2.853100	-8.623000	28.235493	0.000261	20.840788
2682.769261	-3.004900	2.851800	-8.567200	28.215124	0.000261	20.823126
2683.765875	-2.998300	2.851000	-8.547300	28.239340	0.000261	20.827592
2684.768171	-3.022100	2.847400	-8.604100	28.267870	0.000262	20.825497
2685.769154	-3.012200	2.846500	-8.573600	28.310083	0.000261	20.828644
2686.767995	-2.990900	2.844600	-8.506300	28.250524	0.000262	20.832688
2687.767387	-2.993400	2.842600	-8.507500	28.216371	0.000262	20.827227
2688.767816	-2.991000	2.839900	-8.493400	28.251397	0.000261	20.816972
2689.770633	-2.989300	2.838800	-8.485500	28.254622	0.000261	20.824012
2690.769123	-3.007600	2.835900	-8.528200	28.279459	0.000261	20.815354
2691.768630	-2.984300	2.835500	-8.459900	28.285485	0.000263	20.800558
2692.767487	-3.010700	2.830300	-8.520700	28.284619	0.000260	20.809170
2693.778742	-3.001300	2.830400	-8.494600	28.325589	0.000261	20.808222
2694.767732	-3.014300	2.827500	-8.521400	28.336921	0.000262	20.794501
2695.771056	-2.980700	2.825700	-8.421000	28.334788	0.000261	20.817484
2696.772502	-2.981200	2.821800	-8.410800	28.291020	0.000260	20.789062
2697.770447	-3.034100	2.820500	-8.556600	28.234164	0.000261	20.812899
2698.770503	-3.013100	2.818400	-8.489800	28.248887	0.000260	20.785048
2699.777266	-3.008200	2.816600	-8.472100	28.289092	0.000261	20.796604
2700.773412	-3.022300	2.813400	-8.502000	28.287260	0.000262	20.799027
2701.774802	-3.029500	2.811500	-8.516600	28.266369	0.000262	20.811184
2702.780388	-2.975000	2.809800	-8.358400	28.238709	0.000262	20.790922
2703.774176	-2.997400	2.806900	-8.412900	28.255688	0.000261	20.805645
2704.771746	-2.962600	2.805100	-8.308300	28.310814	0.000262	20.795241
2705.773836	-3.024000	2.800300	-8.467200	28.353770	0.000261	20.790130
2706.781074	-3.019800	2.798900	-8.451200	28.409236	0.000262	20.785289
2707.774631	-3.015800	2.797200	-8.435300	28.432509	0.000262	20.796396
2708.773558	-2.983500	2.794700	-8.337000	28.433330	0.000262	20.789636
2709.773696	-2.989700	2.790900	-8.342700	28.450481	0.000261	20.801691
2710.775440	-2.997900	2.790400	-8.363300	28.438687	0.000263	20.788393
2711.775811	-2.994100	2.786900	-8.343400	28.427063	0.000263	20.792809
2712.772578	-3.001000	2.784000	-8.353600	28.376633	0.000261	20.795607
2713.774518	-3.005500	2.781400	-8.358400	28.345854	0.000261	20.766986
2714.774167	-3.014200	2.777900	-8.372200	28.371529	0.000262	20.798055
2715.775200	-3.024900	2.773600	-8.388900	28.383526	0.000262	20.784530
2716.773615	-3.006600	2.771900	-8.332900	28.376145	0.000261	20.775201
2717.775236	-2.998400	2.769000	-8.300600	28.391709	0.000261	20.800356
2718.775167	-2.997300	2.766500	-8.290900	28.456910	0.000262	20.761224
2719.774831	-3.014500	2.764700	-8.333200	28.499664	0.000262	20.790054
2720.778016	-3.013000	2.760400	-8.316000	28.510000	0.000261	20.779600
2721.773328	-3.015900	2.757700	-8.316800	28.524371	0.000260	20.787909
2722.777942	-2.996200	2.754500	-8.252300	28.510446	0.000263	20.772463
2723.780292	-3.000900	2.753200	-8.260300	28.528192	0.000261	20.776584
2724.774977	-2.986000	2.748700	-8.206400	28.563454	0.000262	20.795501
2725.780385	-2.988200	2.744900	-8.201300	28.588182	0.000260	20.781050
2726.782734	-3.006400	2.742000	-8.242400	28.626491	0.000263	20.783123
2727.776432	-2.995800	2.739500	-8.205600	28.659248	0.000263	20.770122
2728.781764	-2.980900	2.737900	-8.160800	28.687866	0.000260	20.771920
2729.779160	-3.011300	2.733500	-8.230100	28.740988	0.000261	20.774693
2730.779976	-2.974100	2.730500	-8.120200	28.749237	0.000261	20.777786
2731.781352	-3.002200	2.726800	-8.184700	28.747704	0.000261	20.784777
2732.781550	-3.013200	2.722300	-8.201900	28.755460	0.000262	20.763666
2733.783012	-2.979900	2.720300	-8.103900	28.680043	0.000262	20.763566
2734.798960	-3.022500	2.716100	-8.208200	28.640400	0.000262	20.771054
2735.782913	-2.984900	2.712600	-8.094700	28.625114	0.000263	20.777469
2736.786180	-2.987300	2.708900	-8.090800	28.643674	0.000262	20.770083
2737.781687	-2.990500	2.706100	-8.091800	28.613596	0.000262	20.761126
2738.780500	-3.013300	2.701500	-8.138000	28.594567	0.000260	20.768989
2739.783513	-3.009300	2.698300	-8.119100	28.594023	0.000261	20.751844
2740.784883	-3.012800	2.694600	-8.117500	28.633352	0.000261	20.746884
2741.782851	-3.016500	2.691500	-8.115900	28.647026	0.000260	20.739794
2742.784075	-3.016400	2.685300	-8.099000	28.596012	0.000260	20.749106
2743.787912	-2.987600	2.682800	-8.013800	28.592421	0.000261	20.756395
2744.784964	-3.010200	2.678800	-8.062100	28.612347	0.000259	20.734737
2745.785602	-2.988700	2.675600	-7.995600	28.645923	0.000260	20.769029
2746.789688	-2.991100	2.672700	-7.993500	28.693374	0.000258	20.741905
2747.783827	-2.977300	2.667300	-7.941000	28.691244	0.000258	20.756356
2748.784876	-2.993800	2.663100	-7.971800	28.691518	0.000260	20.740984
2749.785021	-3.023600	2.659100	-8.039100	28.607004	0.000260	20.759229
2750.787595	-3.011500	2.655500	-7.996300	28.527342	0.000260	20.747278
2751.788845	-3.070900	2.648300	-8.131300	28.458408	0.000261	20.740921
2752.785292	-2.984600	2.647400	-7.900200	28.410530	0.000260	20.733011
2753.785276	-3.017400	2.642400	-7.972000	28.380271	0.000259	20.751854
2754.786776	-2.985100	2.639300	-7.877300	28.380646	0.000261	20.745593
2755.787890	-2.986200	2.633300	-7.862600	28.433784	0.000261	20.733193
2756.789076	-2.982400	2.629300	-7.840900	28.496141	0.000262	20.749047
2757.786845	-3.002200	2.624200	-7.876900	28.565650	0.000260	20.747925
2758.786686	-3.002400	2.619400	-7.863400	28.630151	0.000260	20.742238
2759.788491	-2.989700	2.615300	-7.817900	28.677778	0.000259	20.732834
2760.788557	-2.983900	2.610700	-7.789300	28.665393	0.000259	20.728421
2761.786846	-3.027100	2.604900	-7.884300	28.653329	0.000260	20.733813
2762.791199	-2.997400	2.599100	-7.789200	28.631974	0.000260	20.754032
2763.789613	-3.014300	2.595500	-7.821800	28.640404	0.000259	20.712260
2764.792077	-3.000000	2.589500	-7.767500	28.662112	0.000261	20.740289
2765.790776	-2.987000	2.584100	-7.718100	28.746378	0.000260	20.723696
2766.792078	-2.986300	2.580000	-7.703600	28.776085	0.000261	20.745560
2767.792610	-2.998300	2.572800	-7.713300	28.774134	0.000262	20.739801
2768.791432	-2.989800	2.568600	-7.678800	28.811150	0.000262	20.720663
2769.790715	-2.984300	2.563000	-7.647500	28.829833	0.000260	20.724785
2770.793195	-3.037500	2.556100	-7.762400	28.841849	0.000261	20.736890
2771.790700	-3.012000	2.551100	-7.683200	28.827660	0.000259	20.730183
2772.792052	-3.003000	2.545400	-7.643000	28.816366	0.000261	20.737773
2773.789492	-3.080400	2.537400	-7.815300	28.778568	0.000260	20.717714
2774.793608	-2.997300	2.532600	-7.590300	28.732240	0.000259	20.733638
2775.794809	-2.992800	2.526600	-7.559800	28.712226	0.000259	20.698303
2776.791456	-2.993200	2.521500	-7.546700	28.689983	0.000260	20.713832
2777.797842	-2.999100	2.515800	-7.544700	28.678365	0.000260	20.719200
2778.794453	-3.012000	2.508100	-7.553200	28.702696	0.000262	20.721422
2779.796264	-2.983800	2.502200	-7.464900	28.689844	0.000259	20.715115
2780.796270	-3.000800	2.496600	-7.491000	28.658457	0.000261	20.714795
