LabVIEW Measurement	
Writer_Version	2
Reader_Version	2
Separator	Tab
Decimal_Separator	.
Multi_Headings	No
X_Columns	One
Time_Pref	Absolute
Operator	admin
Description	Clolumns are: time, Current, Voltage, Power, Battery Temp, and Chamber Temp
Date	2024/08/16
Time	13:06:06.104549407958984375
***End_of_Header***	
	
Channels	6						
Samples	1	1	1	1	1	1	
Date	2024/09/15	2024/09/15	2024/09/15	2024/09/15	2024/09/15	2024/09/15	
Time	14:56:17.238636016845703125	14:56:17.2436094284057617188	14:56:17.2476072311401367188	14:56:17.2236447334289550781	14:56:17.2236447334289550781	14:56:17.2236447334289550781	
X_Dimension	Time	Time	Time	Time	Time	Time	
X0	0.0000000000000000E+0	0.0000000000000000E+0	0.0000000000000000E+0	0.0000000000000000E+0	0.0000000000000000E+0	0.0000000000000000E+0	
Delta_X	1.000000	1.000000	1.000000	1.000000	1.000000	1.000000	
***End_of_Header***							
X_Value	Untitled	Untitled 1	Untitled 2	Untitled 3	Untitled 4	Untitled 5	Comment
0.000000	0.000943	4.092000	0.003799	20.985605	0.000941	20.745224
1.011733	-3.004500	3.912000	-11.752000	21.002726	0.000940	20.747649
2.001344	-2.997400	3.904700	-11.704000	21.000056	0.000938	20.732175
3.000101	-3.003200	3.900600	-11.712000	21.009363	0.000938	20.736743
4.005912	-3.008800	3.895100	-11.718000	21.003302	0.000936	20.745854
5.004996	-2.999700	3.893600	-11.678000	20.989904	0.000935	20.732453
6.002378	-3.010300	3.889600	-11.709000	20.984991	0.000934	20.713788
7.005145	-3.017000	3.885900	-11.723000	21.000065	0.000934	20.738823
8.006114	-3.020500	3.883700	-11.729000	21.022122	0.000933	20.759463
9.003600	-3.012800	3.881600	-11.692000	21.024170	0.000932	20.739225
10.012825	-3.001900	3.881200	-11.649000	21.000618	0.000930	20.747437
11.010295	-3.022600	3.876700	-11.715000	21.018836	0.000932	20.756649
12.006221	-2.988200	3.876700	-11.583000	20.987547	0.000930	20.747166
13.011144	-3.003800	3.876200	-11.640000	21.016019	0.000931	20.751461
14.008893	-3.015100	3.872700	-11.675000	21.000253	0.000929	20.740433
15.007902	-2.989100	3.872800	-11.575000	21.012082	0.000930	20.742781
16.011099	-3.001100	3.871700	-11.617000	21.024633	0.000928	20.747275
17.010753	-2.988000	3.870800	-11.565000	21.050386	0.000927	20.751222
18.007490	-3.002800	3.869100	-11.617000	21.036815	0.000927	20.753295
19.013483	-2.999800	3.869200	-11.606000	21.042980	0.000927	20.763729
20.009600	-2.992800	3.867600	-11.572000	21.034672	0.000925	20.744514
21.009268	-2.989700	3.868200	-11.563000	21.052763	0.000927	20.741271
22.009118	-3.001400	3.866400	-11.603000	21.076217	0.000929	20.747187
23.009141	-3.004200	3.864000	-11.607000	21.062599	0.000925	20.752058
24.011386	-2.995300	3.864300	-11.574000	21.089197	0.000926	20.742152
25.009608	-2.987400	3.863800	-11.540000	21.099278	0.000927	20.735640
26.008559	-2.977900	3.864700	-11.507000	21.089475	0.000925	20.737689
27.009470	-2.987700	3.861200	-11.535000	21.080771	0.000924	20.746052
28.012214	-2.996100	3.861300	-11.568000	21.103128	0.000925	20.742336
29.009277	-2.969000	3.861600	-11.464000	21.096990	0.000924	20.765595
30.010603	-2.981800	3.860600	-11.510000	21.125784	0.000923	20.737971
31.010216	-3.002500	3.859500	-11.586000	21.108870	0.000923	20.743339
32.010005	-2.973800	3.859800	-11.477000	21.123466	0.000923	20.775957
33.010121	-2.997300	3.857800	-11.561000	21.123841	0.000923	20.752623
34.009887	-2.995300	3.858100	-11.556000	21.152609	0.000922	20.756744
35.010601	-2.999100	3.857700	-11.569000	21.142605	0.000923	20.762385
36.010690	-2.980200	3.857700	-11.496000	21.171172	0.000923	20.762986
37.010134	-2.977100	3.856700	-11.481000	21.169077	0.000921	20.761364
38.010749	-2.983300	3.856100	-11.502000	21.179806	0.000920	20.770200
39.011357	-2.980100	3.856300	-11.491000	21.189913	0.000923	20.771776
40.011948	-2.999100	3.855200	-11.562000	21.202039	0.000921	20.756404
41.011162	-2.988000	3.854800	-11.517000	21.198175	0.000921	20.757281
42.011203	-3.013500	3.853100	-11.610000	21.204064	0.000923	20.774077
43.028811	-3.011300	3.854200	-11.605000	21.208156	0.000922	20.748299
44.010995	-2.987700	3.852900	-11.510000	21.212322	0.000921	20.752467
45.011788	-3.008800	3.853300	-11.593000	21.237148	0.000922	20.754068
46.013019	-2.993300	3.852000	-11.529000	21.240069	0.000921	20.754619
47.012852	-3.005900	3.851800	-11.577000	21.250347	0.000922	20.746409
48.012269	-3.014300	3.850700	-11.606000	21.254990	0.000921	20.757693
49.012086	-3.005500	3.850200	-11.569000	21.269809	0.000922	20.781053
50.012947	-2.996600	3.851200	-11.539000	21.280911	0.000920	20.752330
51.012781	-3.013100	3.850300	-11.601000	21.298123	0.000923	20.763385
52.012639	-3.000600	3.850200	-11.552000	21.287125	0.000923	20.780358
53.015192	-2.996700	3.849500	-11.535000	21.307582	0.000923	20.773797
54.014431	-2.996200	3.848400	-11.528000	21.324792	0.000922	20.757350
55.013870	-2.994200	3.847900	-11.520000	21.297877	0.000923	20.771200
56.014437	-3.003100	3.848700	-11.557000	21.307959	0.000922	20.759475
57.015258	-2.998000	3.848800	-11.538000	21.318085	0.000924	20.749691
58.015258	-2.985500	3.847500	-11.486000	21.349164	0.000921	20.762767
59.015513	-3.013400	3.847300	-11.593000	21.337616	0.000922	20.776818
60.015466	-3.002300	3.848200	-11.550000	21.344425	0.000924	20.760870
61.014555	-3.024500	3.845400	-11.629000	21.354804	0.000923	20.773151
62.017121	-3.007800	3.845700	-11.566000	21.361960	0.000920	20.773673
63.017454	-2.996900	3.846500	-11.527000	21.363156	0.000923	20.778188
64.017175	-2.988600	3.845900	-11.492000	21.367024	0.000921	20.770205
65.019411	-2.996400	3.845900	-11.523000	21.396382	0.000922	20.770654
66.018627	-2.994300	3.845000	-11.513000	21.396782	0.000920	20.765364
67.019997	-3.012800	3.844500	-11.581000	21.411021	0.000922	20.778188
68.021074	-2.994500	3.845000	-11.513000	21.417405	0.000923	20.777464
69.018970	-3.004500	3.843300	-11.545000	21.423816	0.000922	20.786723
70.020467	-2.991300	3.844900	-11.500000	21.409597	0.000922	20.767280
71.019065	-2.992000	3.844600	-11.502000	21.427905	0.000922	20.771374
72.019286	-2.999700	3.842400	-11.525000	21.424089	0.000921	20.772297
73.019140	-3.022100	3.841900	-11.609000	21.454669	0.000923	20.783454
74.019877	-2.988900	3.843300	-11.485000	21.454393	0.000921	20.785549
75.020081	-3.000900	3.840700	-11.524000	21.467461	0.000923	20.774916
76.019835	-3.006900	3.841200	-11.549000	21.459455	0.000922	20.775914
77.022398	-3.016100	3.839900	-11.580000	21.462772	0.000920	20.764534
78.019411	-2.987600	3.841800	-11.476000	21.491676	0.000923	20.767851
79.023019	-3.012800	3.840100	-11.568000	21.493001	0.000921	20.779608
80.021085	-2.992800	3.840300	-11.491000	21.485518	0.000924	20.791087
81.020492	-3.002400	3.840800	-11.530000	21.500632	0.000923	20.773494
82.022846	-3.030100	3.838600	-11.631000	21.491802	0.000924	20.770823
83.021230	-2.994500	3.840400	-11.498000	21.518614	0.000925	20.788642
84.023460	-3.015200	3.839000	-11.575000	21.516493	0.000925	20.792684
85.021453	-3.024800	3.838500	-11.610000	21.510132	0.000923	20.788215
86.022755	-3.029700	3.838000	-11.627000	21.564376	0.000925	20.794131
87.021957	-2.986000	3.838500	-11.461000	21.552778	0.000925	20.797698
88.024978	-2.971700	3.839900	-11.409000	21.570035	0.000926	20.768973
89.028337	-2.999000	3.837600	-11.508000	21.585622	0.000926	20.785045
90.021650	-2.988200	3.838600	-11.470000	21.607118	0.000926	20.802763
91.024202	-2.987900	3.836800	-11.463000	21.615220	0.000926	20.776731
92.025936	-2.994400	3.837800	-11.491000	21.591179	0.000928	20.790606
93.024803	-2.999000	3.836900	-11.506000	21.642150	0.000926	20.795146
94.024452	-2.985300	3.838600	-11.458000	21.635115	0.000925	20.783839
95.027635	-3.010300	3.837500	-11.551000	21.640275	0.000927	20.776200
96.025434	-3.004400	3.836500	-11.525000	21.639228	0.000928	20.804550
97.023696	-3.004800	3.837000	-11.528000	21.649823	0.000927	20.780065
98.025428	-3.010200	3.835200	-11.543000	21.668825	0.000928	20.823263
99.025634	-3.042300	3.835000	-11.665000	21.653512	0.000928	20.800352
100.023506	-2.997100	3.834600	-11.492000	21.632486	0.000928	20.808234
101.026838	-3.001500	3.836500	-11.514000	21.674778	0.000926	20.824953
102.023469	-3.002300	3.835400	-11.514000	21.659840	0.000929	20.809056
103.027505	-3.019600	3.835900	-11.581000	21.663603	0.000929	20.800968
104.027174	-3.000100	3.833700	-11.500000	21.687789	0.000932	20.800516
105.024589	-2.987900	3.834400	-11.455000	21.697662	0.000930	20.815612
106.024941	-2.994500	3.834400	-11.481000	21.694745	0.000931	20.800365
107.029353	-3.003500	3.833900	-11.514000	21.697858	0.000931	20.803480
108.029562	-2.997900	3.833700	-11.493000	21.709477	0.000931	20.798039
109.029198	-3.007200	3.831400	-11.521000	21.715412	0.000930	20.844282
110.029521	-3.013800	3.831800	-11.547000	21.747825	0.000932	20.827883
111.027198	-3.013800	3.832100	-11.548000	21.758870	0.000931	20.819497
112.027632	-2.994900	3.832100	-11.475000	21.758146	0.000931	20.819247
113.029255	-2.998600	3.832000	-11.489000	21.763030	0.000933	20.812281
114.025371	-2.968500	3.833200	-11.377000	21.777215	0.000933	20.832642
115.026720	-2.996300	3.832600	-11.481000	21.768512	0.000934	20.811129
116.026939	-3.028500	3.829700	-11.596000	21.810894	0.000934	20.830788
117.027324	-2.998700	3.832500	-11.492000	21.818848	0.000934	20.819309
118.030176	-3.006200	3.830800	-11.515000	21.822635	0.000937	20.832583
119.029107	-3.018500	3.829200	-11.558000	21.829092	0.000937	20.827665
120.031110	-2.987200	3.831800	-11.444000	21.828888	0.000936	20.834574
121.026778	-3.013100	3.829500	-11.537000	21.843872	0.000938	20.829656
122.025540	-3.004500	3.829600	-11.503000	21.839157	0.000935	20.831575
123.026663	-2.980500	3.829800	-11.413000	21.839130	0.000936	20.816376
124.026936	-3.012700	3.829800	-11.537000	21.857501	0.000936	20.822910
125.029795	-2.982400	3.828700	-11.416000	21.856925	0.000937	20.843670
126.030706	-2.982600	3.830000	-11.422000	21.870140	0.000936	20.832241
127.032362	-2.986000	3.828200	-11.430000	21.879510	0.000936	20.834982
128.031769	-2.991400	3.829500	-11.455000	21.895765	0.000937	20.840820
129.030782	-3.002200	3.828000	-11.491000	21.899952	0.000937	20.822726
130.029590	-2.987000	3.827600	-11.432000	21.884890	0.000937	20.847479
131.031691	-2.983600	3.828600	-11.421000	21.919644	0.000939	20.846230
132.028282	-2.990200	3.829500	-11.448000	21.926548	0.000936	20.832279
133.037002	-3.007300	3.828100	-11.511000	21.936293	0.000937	20.830653
134.034642	-2.994100	3.827800	-11.459000	21.933326	0.000937	20.846650
135.031453	-3.011900	3.826700	-11.525000	21.945092	0.000939	20.827607
136.031785	-3.019400	3.827000	-11.554000	21.929733	0.000939	20.851113
137.031699	-3.011100	3.824600	-11.516000	21.978271	0.000939	20.837587
138.030293	-2.996300	3.827300	-11.467000	21.991507	0.000940	20.848465
139.030460	-3.010200	3.825400	-11.514000	21.979916	0.000941	20.852034
140.031903	-3.004500	3.825000	-11.491000	21.985900	0.000939	20.839059
141.030751	-2.988200	3.826700	-11.434000	21.993575	0.000939	20.851484
142.032194	-3.002900	3.824700	-11.484000	22.009008	0.000941	20.848440
143.032538	-2.995500	3.825000	-11.457000	22.011125	0.000941	20.843922
144.032650	-2.989100	3.825100	-11.433000	22.007386	0.000940	20.866730
145.032910	-2.983400	3.826600	-11.414000	22.024065	0.000942	20.868728
146.033823	-2.987200	3.824300	-11.422000	22.024487	0.000943	20.851134
147.036526	-3.008700	3.823000	-11.501000	22.048467	0.000942	20.844794
148.034309	-3.013500	3.824100	-11.523000	22.052556	0.000941	20.862637
149.034734	-2.997700	3.823900	-11.461000	22.047693	0.000944	20.852554
150.035475	-3.013200	3.823800	-11.521000	22.084614	0.000940	20.854902
151.036900	-2.991500	3.824100	-11.439000	22.101337	0.000943	20.862635
152.035618	-3.012900	3.822800	-11.515000	22.116993	0.000943	20.851283
153.038328	-2.995900	3.822200	-11.450000	22.119709	0.000943	20.857320
154.035859	-3.000700	3.822700	-11.469000	22.131799	0.000944	20.868475
155.036969	-3.012500	3.821500	-11.510000	22.125841	0.000943	20.853028
156.038567	-2.998900	3.821900	-11.461000	22.130926	0.000945	20.870920
157.037113	-2.992200	3.820700	-11.432000	22.157646	0.000947	20.863533
158.038329	-3.002900	3.822500	-11.478000	22.142766	0.000945	20.862860
159.039791	-3.012100	3.820300	-11.505000	22.130029	0.000947	20.868125
160.044286	-2.956300	3.822000	-11.298000	22.157076	0.000947	20.860117
161.038968	-3.005800	3.820500	-11.483000	22.151564	0.000950	20.871668
162.038898	-3.012800	3.818900	-11.505000	22.152362	0.000949	20.880053
163.039148	-3.007400	3.820900	-11.491000	22.160738	0.000951	20.871370
164.039983	-3.002600	3.819600	-11.467000	22.164500	0.000950	20.857593
165.042348	-2.997300	3.819600	-11.448000	22.180825	0.000953	20.872988
166.041254	-2.992600	3.819600	-11.430000	22.204105	0.000952	20.877804
167.039538	-2.997400	3.820300	-11.449000	22.205895	0.000953	20.888605
168.043332	-3.020300	3.818600	-11.531000	22.207341	0.000952	20.858760
169.042620	-3.001300	3.818600	-11.459000	22.231815	0.000955	20.867617
170.046344	-2.998200	3.819300	-11.450000	22.229943	0.000954	20.894191
171.046236	-2.999400	3.818200	-11.451000	22.231538	0.000954	20.886779
172.046248	-3.003500	3.818900	-11.469000	22.238716	0.000954	20.874526
173.043604	-3.007700	3.817900	-11.482000	22.230462	0.000958	20.870530
174.048588	-2.990900	3.817400	-11.415000	22.243320	0.000957	20.869654
175.046177	-2.999700	3.818900	-11.454000	22.253412	0.000957	20.861266
176.046736	-2.988800	3.816800	-11.406000	22.259841	0.000957	20.876237
177.047421	-3.006300	3.815800	-11.471000	22.274144	0.000958	20.889136
178.047697	-2.991500	3.815800	-11.414000	22.278156	0.000957	20.882247
179.044620	-2.974900	3.817000	-11.355000	22.255996	0.000958	20.885189
180.047636	-2.982800	3.816300	-11.382000	22.280219	0.000958	20.876253
181.048897	-2.991600	3.815800	-11.413000	22.276404	0.000958	20.891398
182.045519	-2.975400	3.817100	-11.356000	22.279168	0.000960	20.873305
183.059028	-3.006900	3.814400	-11.467000	22.261471	0.000959	20.900627
184.049314	-2.983800	3.815300	-11.382000	22.281157	0.000962	20.889046
185.048891	-3.026200	3.814000	-11.540000	22.269918	0.000962	20.890594
186.050288	-2.984100	3.815700	-11.385000	22.300870	0.000962	20.889344
187.051417	-2.987100	3.814400	-11.392000	22.298049	0.000963	20.906906
188.048369	-3.008700	3.813300	-11.471000	22.324889	0.000964	20.896325
189.048261	-3.001100	3.813300	-11.443000	22.331219	0.000964	20.872792
190.049254	-3.014200	3.813400	-11.493000	22.360425	0.000963	20.901088
191.047876	-3.015900	3.812700	-11.497000	22.371312	0.000964	20.907721
192.051305	-3.011100	3.814000	-11.483000	22.360421	0.000964	20.902032
193.049148	-2.987100	3.813900	-11.391000	22.351373	0.000967	20.898187
194.049633	-2.986500	3.813400	-11.388000	22.355779	0.000968	20.902125
195.055297	-2.988900	3.813000	-11.396000	22.363828	0.000965	20.914926
196.049270	-2.991300	3.812500	-11.403000	22.375116	0.000966	20.916272
197.049251	-2.992700	3.812700	-11.409000	22.379598	0.000966	20.902270
198.049392	-2.999600	3.813300	-11.437000	22.389091	0.000966	20.902292
199.050750	-2.987100	3.812400	-11.387000	22.396018	0.000966	20.916814
200.050561	-3.005900	3.810800	-11.454000	22.382160	0.000966	20.895353
201.051333	-3.011600	3.810200	-11.474000	22.377921	0.000968	20.905332
202.052866	-3.013800	3.809600	-11.480000	22.393148	0.000967	20.897820
203.052644	-2.993500	3.811400	-11.408000	22.394539	0.000969	20.923393
204.052392	-3.000100	3.810700	-11.430000	22.421729	0.000968	20.907000
205.054262	-3.004900	3.809200	-11.445000	22.409939	0.000968	20.894721
206.052718	-3.000800	3.810500	-11.433000	22.414024	0.000966	20.893597
207.052996	-3.027900	3.809500	-11.533000	22.425361	0.000967	20.899733
208.053219	-3.002100	3.809200	-11.434000	22.440961	0.000968	20.880744
209.052225	-2.999700	3.808600	-11.423000	22.454617	0.000971	20.894418
210.057247	-3.007800	3.808900	-11.455000	22.442929	0.000971	20.876551
211.055607	-3.019600	3.807900	-11.498000	22.468693	0.000971	20.912306
212.054772	-3.031200	3.807000	-11.537000	22.490821	0.000973	20.884209
213.057257	-2.999600	3.809100	-11.425000	22.525358	0.000974	20.864746
214.055216	-3.014900	3.807000	-11.476000	22.500340	0.000973	20.897534
215.053010	-2.994900	3.808400	-11.405000	22.500687	0.000973	20.882710
216.058276	-3.009000	3.808000	-11.457000	22.512350	0.000973	20.855511
217.071664	-2.986700	3.806900	-11.368000	22.522590	0.000975	20.899903
218.054502	-2.984800	3.808200	-11.365000	22.546435	0.000975	20.881112
219.065156	-2.988300	3.808500	-11.380000	22.536843	0.000975	20.897582
220.056357	-2.994600	3.806400	-11.398000	22.535197	0.000974	20.892141
221.054203	-3.006100	3.805700	-11.439000	22.543570	0.000975	20.880613
222.056518	-2.994100	3.807100	-11.398000	22.536067	0.000976	20.895383
223.055069	-3.008300	3.807200	-11.453000	22.541178	0.000976	20.873002
224.055526	-2.983000	3.807500	-11.356000	22.552813	0.000979	20.887025
225.059009	-3.027400	3.805100	-11.518000	22.542549	0.000979	20.903296
226.056937	-2.996400	3.805400	-11.401000	22.540033	0.000975	20.866640
227.056399	-3.015100	3.804700	-11.471000	22.537839	0.000981	20.873926
228.060866	-3.005500	3.804700	-11.433000	22.540283	0.000981	20.868313
229.058497	-3.012800	3.804000	-11.459000	22.547184	0.000980	20.876646
230.057798	-2.987500	3.806000	-11.370000	22.594550	0.000982	20.895162
231.059110	-3.017800	3.803900	-11.478000	22.602127	0.000981	20.865768
232.059149	-2.992100	3.804100	-11.381000	22.620067	0.000983	20.871882
233.057541	-3.008000	3.802100	-11.436000	22.633049	0.000981	20.880617
234.064050	-2.992900	3.804800	-11.386000	22.611845	0.000982	20.884036
235.061541	-2.993900	3.803400	-11.387000	22.632675	0.000984	20.857010
236.061413	-3.001400	3.802700	-11.412000	22.630533	0.000985	20.862452
237.064697	-3.000300	3.802600	-11.406000	22.635916	0.000985	20.871162
238.063072	-3.000000	3.801900	-11.405000	22.616232	0.000986	20.868516
239.061914	-2.991600	3.801900	-11.373000	22.616207	0.000984	20.853319
240.061546	-2.997700	3.801900	-11.396000	22.615709	0.000984	20.877000
241.062538	-2.993500	3.801700	-11.378000	22.622636	0.000986	20.882042
242.060473	-2.991100	3.802000	-11.371000	22.651218	0.000987	20.869419
243.066331	-3.004000	3.801400	-11.418000	22.669578	0.000985	20.870265
244.060213	-2.986600	3.800900	-11.350000	22.677526	0.000986	20.854046
245.059339	-3.011100	3.801800	-11.447000	22.713752	0.000986	20.874210
246.073964	-3.017000	3.799200	-11.461000	22.723745	0.000989	20.838228
247.061836	-3.008300	3.800700	-11.432000	22.747662	0.000990	20.855073
248.063737	-3.009400	3.799800	-11.434000	22.747389	0.000990	20.852903
249.066258	-2.980400	3.800500	-11.326000	22.731819	0.000992	20.850582
250.063970	-3.000500	3.799300	-11.397000	22.755087	0.000989	20.852079
251.062065	-3.005000	3.799300	-11.416000	22.737052	0.000991	20.847764
252.066025	-2.985600	3.798900	-11.341000	22.700381	0.000991	20.875040
253.063321	-3.001800	3.799000	-11.403000	22.743981	0.000992	20.857549
254.061491	-2.995900	3.798300	-11.379000	22.752551	0.000993	20.870874
255.064182	-3.001200	3.798500	-11.398000	22.750610	0.000994	20.857551
256.061759	-2.992600	3.799000	-11.367000	22.760924	0.000995	20.844176
257.064423	-3.004600	3.797400	-11.408000	22.786985	0.000994	20.852738
258.064365	-3.016900	3.796100	-11.452000	22.779686	0.000994	20.857280
259.064930	-3.007100	3.796600	-11.415000	22.785842	0.000994	20.843058
260.063224	-2.960000	3.798300	-11.241000	22.784075	0.000993	20.850297
261.066557	-3.012500	3.795700	-11.433000	22.786142	0.000996	20.840988
262.065033	-2.998700	3.796500	-11.384000	22.800395	0.000997	20.849102
263.062881	-2.991400	3.796100	-11.354000	22.821571	0.000997	20.847556
264.069926	-2.998400	3.795600	-11.379000	22.835673	0.000995	20.839872
265.063512	-3.001800	3.794900	-11.389000	22.834478	0.000998	20.850529
266.063464	-3.000400	3.794900	-11.385000	22.822001	0.000999	20.830918
267.071844	-2.988200	3.794800	-11.338000	22.831093	0.000999	20.836707
268.069168	-2.993700	3.795400	-11.361000	22.824394	0.001001	20.821936
269.065718	-2.976800	3.796100	-11.298000	22.827633	0.001000	20.841301
270.069440	-3.013300	3.794100	-11.431000	22.845143	0.001003	20.848885
271.070675	-3.006700	3.794300	-11.407000	22.866270	0.001001	20.843972
272.066172	-2.990700	3.794600	-11.347000	22.875164	0.001005	20.826804
273.071901	-3.004900	3.795300	-11.403000	22.884677	0.001005	20.849610
274.073462	-3.003500	3.792800	-11.391000	22.885301	0.001004	20.839804
275.068893	-2.999100	3.793100	-11.375000	22.892398	0.001003	20.835061
276.073614	-2.986700	3.792300	-11.324000	22.896784	0.001005	20.827601
277.070540	-2.994700	3.792400	-11.356000	22.871997	0.001005	20.829796
278.067241	-2.997300	3.792100	-11.365000	22.876581	0.001005	20.814474
279.070818	-2.985800	3.794200	-11.328000	22.853911	0.001005	20.846289
280.074877	-3.011400	3.791700	-11.417000	22.879342	0.001008	20.828619
281.076755	-3.001900	3.792700	-11.384000	22.877499	0.001005	20.829143
282.074633	-3.015900	3.790700	-11.431000	22.897152	0.001006	20.840297
283.071507	-3.005000	3.791500	-11.393000	22.928187	0.001006	20.832510
284.067785	-2.995400	3.790300	-11.352000	22.953099	0.001008	20.829019
285.073311	-3.020100	3.790400	-11.445000	22.911922	0.001006	20.825224
286.075004	-2.984600	3.789900	-11.309000	22.897478	0.001008	20.825926
287.068826	-2.996500	3.791200	-11.359000	22.883005	0.001008	20.838452
288.072776	-2.997500	3.788500	-11.354000	22.881161	0.001009	20.836605
289.072443	-3.001300	3.788300	-11.369000	22.875806	0.001010	20.825551
290.068258	-2.994000	3.788000	-11.340000	22.887938	0.001011	20.824903
291.077202	-3.004800	3.789000	-11.384000	22.908388	0.001010	20.834485
292.072871	-3.021800	3.787300	-11.444000	22.900196	0.001013	20.817269
293.071717	-3.003900	3.788100	-11.378000	22.929663	0.001013	20.834937
294.073301	-3.013900	3.788700	-11.417000	22.936586	0.001011	20.818166
295.073715	-3.007900	3.787800	-11.393000	22.969068	0.001011	20.832690
296.072295	-3.003400	3.786500	-11.372000	22.977559	0.001015	20.837404
297.074238	-2.996700	3.787200	-11.349000	22.964932	0.001014	20.824280
298.073669	-2.992600	3.787100	-11.332000	23.007671	0.001014	20.819211
299.070799	-2.984300	3.786800	-11.300000	23.031033	0.001014	20.831713
300.076015	-2.991400	3.787400	-11.328000	23.024507	0.001017	20.817588
301.077175	-2.978300	3.785800	-11.275000	23.035364	0.001012	20.806181
302.073699	-3.014900	3.787800	-11.419000	23.025500	0.001015	20.829489
303.074632	-3.017100	3.785600	-11.421000	23.025872	0.001017	20.822275
304.078331	-3.015400	3.785100	-11.412000	23.040716	0.001016	20.811070
305.073125	-2.995700	3.784900	-11.337000	23.052893	0.001018	20.834650
306.077070	-2.998300	3.785000	-11.347000	23.069503	0.001017	20.831853
307.076668	-2.989700	3.786800	-11.319000	23.083476	0.001019	20.829259
308.074348	-3.012400	3.783000	-11.394000	23.064868	0.001019	20.839536
309.080218	-3.009100	3.783900	-11.385000	23.088254	0.001020	20.819821
310.074555	-2.981600	3.784200	-11.282000	23.064841	0.001020	20.819596
311.076091	-3.009100	3.783100	-11.383000	23.060008	0.001019	20.805270
312.081250	-2.995300	3.783000	-11.330000	23.057615	0.001020	20.839855
313.078795	-3.023600	3.782100	-11.435000	23.040455	0.001019	20.813653
314.080252	-2.989700	3.782300	-11.305000	23.018011	0.001023	20.812028
315.081081	-2.994800	3.782100	-11.326000	23.053350	0.001022	20.837004
316.083351	-3.023300	3.781000	-11.431000	23.063087	0.001022	20.807406
317.077610	-3.021100	3.780100	-11.419000	23.080043	0.001024	20.791206
318.097876	-2.987600	3.781600	-11.297000	23.067416	0.001023	20.803683
319.080071	-2.998400	3.781700	-11.338000	23.078498	0.001024	20.817632
320.078106	-3.013800	3.781100	-11.395000	23.090472	0.001025	20.830579
321.081542	-2.999000	3.780200	-11.335000	23.121602	0.001024	20.819098
322.080495	-3.012600	3.780000	-11.386000	23.128671	0.001025	20.824759
323.078989	-2.989300	3.780600	-11.301000	23.151232	0.001026	20.842625
324.084804	-3.002600	3.780100	-11.348000	23.153844	0.001025	20.803043
325.085208	-2.977100	3.779500	-11.251000	23.164799	0.001025	20.838202
326.081597	-2.984700	3.779200	-11.278000	23.161312	0.001024	20.814793
327.086127	-2.998200	3.779500	-11.329000	23.178591	0.001023	20.806505
328.092398	-2.994800	3.778000	-11.313000	23.163002	0.001025	20.813168
329.079136	-3.001600	3.778800	-11.341000	23.178238	0.001025	20.834126
330.086191	-2.995600	3.777500	-11.313000	23.180976	0.001025	20.809843
331.081968	-2.993900	3.778300	-11.311000	23.173728	0.001025	20.804950
332.083584	-3.007400	3.776500	-11.355000	23.194693	0.001025	20.803201
333.085360	-2.985400	3.778200	-11.278000	23.218398	0.001027	20.843551
334.087006	-3.017700	3.775800	-11.393000	23.218595	0.001026	20.815299
335.082063	-3.000300	3.777300	-11.332000	23.259332	0.001025	20.820088
336.085765	-3.014500	3.777300	-11.384000	23.259954	0.001026	20.802220
337.083770	-3.034500	3.774700	-11.453000	23.262716	0.001028	20.812574
338.083419	-2.996300	3.775500	-11.312000	23.255467	0.001027	20.805309
339.085999	-3.022900	3.774300	-11.408000	23.275214	0.001028	20.814194
340.082206	-2.988200	3.775400	-11.281000	23.295482	0.001027	20.821229
341.092774	-2.955400	3.776100	-11.158000	23.290077	0.001028	20.815813
342.083782	-3.003400	3.774400	-11.335000	23.313034	0.001026	20.820803
343.082268	-2.997600	3.773300	-11.311000	23.316518	0.001029	20.800112
344.080809	-3.010300	3.774100	-11.360000	23.303419	0.001025	20.806899
345.084463	-3.007600	3.774000	-11.349000	23.302050	0.001030	20.810742
346.081702	-3.011100	3.772700	-11.359000	23.295178	0.001028	20.804330
347.083966	-2.998000	3.774400	-11.314000	23.283549	0.001028	20.813063
348.085707	-2.999600	3.771500	-11.311000	23.270002	0.001031	20.808022
349.084313	-2.987300	3.772400	-11.269000	23.285290	0.001032	20.811490
350.087605	-2.987600	3.772600	-11.270000	23.283819	0.001031	20.806697
351.085250	-2.993800	3.773400	-11.296000	23.299982	0.001033	20.812463
352.084015	-2.997400	3.771300	-11.302000	23.287307	0.001034	20.798338
353.081346	-2.998900	3.772800	-11.312000	23.323360	0.001033	20.808867
354.082983	-2.985000	3.772200	-11.257000	23.361931	0.001033	20.800582
355.083090	-2.969200	3.772600	-11.200000	23.325901	0.001032	20.819474
356.083395	-3.002100	3.771800	-11.321000	23.322116	0.001032	20.791499
357.085536	-2.994900	3.771300	-11.291000	23.324331	0.001035	20.805572
358.083196	-2.999800	3.771000	-11.311000	23.294825	0.001035	20.793070
359.082507	-2.966300	3.770800	-11.184000	23.289497	0.001034	20.820447
360.084623	-2.987500	3.769200	-11.259000	23.268603	0.001033	20.789551
361.083328	-2.991900	3.769000	-11.275000	23.294901	0.001036	20.818277
362.080974	-2.996200	3.768800	-11.291000	23.304736	0.001036	20.799684
363.083430	-3.003200	3.766100	-11.309000	23.333622	0.001034	20.803030
364.082182	-3.004900	3.768500	-11.322000	23.344976	0.001033	20.808245
365.082437	-2.992300	3.768800	-11.276000	23.354438	0.001036	20.804926
366.082114	-3.005000	3.768200	-11.322000	23.357948	0.001035	20.808444
367.084436	-3.005100	3.767300	-11.320000	23.373658	0.001037	20.800483
368.081960	-3.011700	3.767200	-11.344000	23.375503	0.001034	20.816082
369.083188	-3.003300	3.766100	-11.309000	23.420967	0.001038	20.795743
370.083848	-3.021100	3.765500	-11.375000	23.431825	0.001036	20.790505
371.082049	-2.995400	3.766700	-11.282000	23.432447	0.001038	20.805353
372.084718	-2.987900	3.766200	-11.252000	23.434039	0.001038	20.776129
373.083340	-2.996400	3.766800	-11.286000	23.431750	0.001038	20.779050
374.083588	-3.010800	3.765200	-11.335000	23.471389	0.001039	20.782746
375.088885	-2.996100	3.765000	-11.279000	23.480350	0.001038	20.777504
376.087421	-3.011300	3.763600	-11.332000	23.486128	0.001040	20.796571
377.084132	-2.991600	3.764200	-11.258000	23.512667	0.001040	20.808475
378.086117	-2.999400	3.763300	-11.287000	23.504700	0.001039	20.791954
379.087298	-2.997200	3.764400	-11.282000	23.495241	0.001042	20.766826
380.085560	-2.981700	3.764200	-11.222000	23.518345	0.001041	20.791407
381.087745	-3.010700	3.763500	-11.330000	23.505920	0.001041	20.786540
382.086090	-3.015600	3.763100	-11.347000	23.516056	0.001042	20.789587
383.084967	-3.013400	3.762400	-11.337000	23.511177	0.001042	20.772843
384.090169	-2.983800	3.763600	-11.229000	23.496861	0.001044	20.772242
385.093361	-3.012300	3.760500	-11.327000	23.507242	0.001045	20.781701
386.086407	-3.000800	3.761600	-11.286000	23.531564	0.001044	20.775261
387.090839	-3.001900	3.759800	-11.286000	23.512171	0.001046	20.796124
388.090966	-3.012800	3.760300	-11.328000	23.523722	0.001045	20.776408
389.088936	-3.010400	3.759200	-11.315000	23.535596	0.001046	20.771242
390.092810	-2.998400	3.759500	-11.272000	23.545629	0.001046	20.784618
391.092369	-2.995800	3.760000	-11.263000	23.561236	0.001046	20.785090
392.090035	-3.001500	3.759700	-11.284000	23.572586	0.001046	20.783192
393.091071	-3.002300	3.757900	-11.281000	23.561308	0.001047	20.787534
394.093341	-2.999100	3.759400	-11.274000	23.571466	0.001048	20.779224
395.091912	-3.013200	3.758700	-11.323000	23.580575	0.001047	20.777450
396.092774	-2.996000	3.757500	-11.256000	23.568775	0.001045	20.777949
397.090498	-3.006900	3.756300	-11.294000	23.561329	0.001049	20.774278
398.091430	-3.000700	3.757100	-11.273000	23.578754	0.001049	20.766615
399.089644	-2.994700	3.757400	-11.252000	23.607827	0.001049	20.781536
400.092555	-2.970700	3.757300	-11.161000	23.578105	0.001049	20.785405
401.091331	-3.009400	3.757100	-11.305000	23.578002	0.001048	20.764913
402.091350	-3.004500	3.756900	-11.287000	23.585097	0.001048	20.775819
403.089418	-3.014500	3.755800	-11.321000	23.591392	0.001050	20.770750
404.091785	-2.991200	3.756000	-11.234000	23.603639	0.001051	20.763586
405.092848	-2.975700	3.757000	-11.178000	23.580786	0.001052	20.749212
406.092852	-2.990400	3.755000	-11.228000	23.588852	0.001051	20.769626
407.094965	-2.978900	3.755600	-11.187000	23.604085	0.001051	20.771620
408.093354	-2.989100	3.754000	-11.220000	23.603385	0.001052	20.751478
409.093365	-3.014500	3.752800	-11.312000	23.582001	0.001052	20.777931
410.091902	-3.000400	3.754000	-11.262000	23.577916	0.001051	20.757240
411.092858	-3.019600	3.752300	-11.330000	23.566413	0.001051	20.769417
412.092454	-3.004600	3.753200	-11.276000	23.576369	0.001052	20.763750
413.089797	-2.980400	3.753500	-11.186000	23.570045	0.001052	20.777325
414.095469	-3.000300	3.753300	-11.260000	23.560209	0.001053	20.755137
415.092754	-3.008300	3.752800	-11.289000	23.580172	0.001051	20.772305
416.094666	-3.005500	3.752900	-11.278000	23.566156	0.001054	20.750667
417.098002	-3.001900	3.751200	-11.259000	23.564760	0.001052	20.771079
418.095159	-3.017400	3.751100	-11.318000	23.577777	0.001053	20.739556
419.095195	-2.988900	3.752100	-11.214000	23.594379	0.001057	20.758571
420.101697	-2.989700	3.751300	-11.214000	23.616211	0.001055	20.775715
421.100347	-2.995900	3.751000	-11.237000	23.628828	0.001055	20.773192
422.102631	-3.015000	3.749000	-11.301000	23.613243	0.001053	20.776060
423.102953	-3.019200	3.749400	-11.319000	23.634451	0.001057	20.750378
424.102550	-3.021400	3.750000	-11.329000	23.628872	0.001055	20.792676
425.100430	-2.997200	3.749500	-11.237000	23.614681	0.001056	20.760432
426.100578	-3.007900	3.749300	-11.276000	23.600191	0.001056	20.761078
427.099466	-2.999200	3.749400	-11.245000	23.580821	0.001056	20.762049
428.097209	-2.999800	3.748600	-11.244000	23.543227	0.001057	20.767986
429.101305	-3.011300	3.746000	-11.279000	23.544669	0.001056	20.777018
430.098754	-3.008800	3.747800	-11.275000	23.567644	0.001056	20.779660
431.096476	-2.991100	3.748400	-11.210000	23.577602	0.001056	20.771625
432.101461	-3.012500	3.747200	-11.285000	23.612824	0.001054	20.749086
433.107909	-2.983000	3.746600	-11.175000	23.619368	0.001056	20.778407
434.098633	-2.998300	3.744900	-11.227000	23.647147	0.001054	20.766426
435.100132	-3.007900	3.745500	-11.265000	23.636990	0.001055	20.751976
436.104659	-3.014000	3.743800	-11.281000	23.639727	0.001055	20.767996
437.099617	-3.010700	3.745200	-11.275000	23.633327	0.001054	20.766796
438.103635	-2.970000	3.745400	-11.123000	23.625309	0.001054	20.771560
439.100587	-2.979600	3.747400	-11.164000	23.654208	0.001055	20.784411
440.100183	-2.986300	3.745300	-11.184000	23.680842	0.001056	20.795940
441.102022	-3.036100	3.742300	-11.361000	23.691842	0.001057	20.786579
442.104371	-3.001900	3.743300	-11.235000	23.710485	0.001056	20.775872
443.102302	-3.003300	3.744000	-11.243000	23.690919	0.001055	20.797034
444.103462	-2.995900	3.744000	-11.216000	23.700750	0.001055	20.778914
445.104822	-3.009900	3.743500	-11.266000	23.734875	0.001054	20.783256
446.102058	-3.001000	3.742900	-11.232000	23.737313	0.001055	20.758673
447.104971	-2.993200	3.742000	-11.200000	23.747690	0.001056	20.764810
448.103211	-3.025800	3.740800	-11.318000	23.729519	0.001054	20.776938
449.102181	-2.998400	3.742000	-11.219000	23.721729	0.001055	20.779559
450.106127	-3.003200	3.740300	-11.232000	23.693103	0.001055	20.790214
451.102890	-3.011100	3.741000	-11.263000	23.689766	0.001056	20.770747
452.102668	-2.971700	3.741000	-11.116000	23.721827	0.001056	20.772070
453.104934	-3.017200	3.739100	-11.281000	23.722250	0.001055	20.765382
454.108796	-2.964600	3.741800	-11.092000	23.729990	0.001059	20.784048
455.103446	-2.990900	3.740000	-11.185000	23.742037	0.001058	20.778108
456.107191	-2.986400	3.740200	-11.169000	23.757195	0.001056	20.780504
457.108130	-2.980800	3.739100	-11.145000	23.769241	0.001059	20.797323
458.103651	-2.981800	3.739100	-11.148000	23.773272	0.001059	20.781925
459.105814	-2.987600	3.739600	-11.171000	23.792263	0.001056	20.776309
460.106568	-3.012700	3.738100	-11.261000	23.773644	0.001058	20.778504
461.102893	-2.986700	3.738700	-11.165000	23.766028	0.001059	20.765652
462.105114	-2.989500	3.738500	-11.175000	23.762094	0.001056	20.785416
463.103998	-2.978600	3.738000	-11.133000	23.767344	0.001058	20.781197
464.105579	-3.015000	3.736700	-11.265000	23.780486	0.001060	20.771140
465.108977	-3.024700	3.737400	-11.303000	23.764678	0.001059	20.787533
466.109363	-3.013500	3.735300	-11.254000	23.777348	0.001058	20.775105
467.104634	-3.004800	3.735500	-11.224000	23.822445	0.001058	20.788080
468.105653	-3.007600	3.736000	-11.235000	23.823513	0.001059	20.766865
469.107783	-3.008600	3.735100	-11.236000	23.813979	0.001060	20.762996
470.105478	-2.993000	3.735000	-11.179000	23.829855	0.001061	20.777492
471.106341	-3.002500	3.736100	-11.216000	23.786572	0.001060	20.790519
472.110757	-2.992300	3.734900	-11.175000	23.810862	0.001058	20.784527
473.109052	-2.991900	3.735200	-11.174000	23.834655	0.001060	20.791788
474.111093	-2.994300	3.733100	-11.177000	23.846724	0.001059	20.776388
475.107832	-2.966900	3.733800	-11.077000	23.846972	0.001060	20.794181
476.107608	-2.979800	3.732900	-11.122000	23.837463	0.001060	20.793655
477.108225	-2.988500	3.732900	-11.153000	23.841395	0.001061	20.801391
478.110935	-3.002100	3.731600	-11.202000	23.831112	0.001059	20.802934
479.107130	-2.987500	3.733800	-11.154000	23.820632	0.001058	20.787685
480.108497	-3.002700	3.731800	-11.204000	23.825508	0.001060	20.768866
481.108258	-3.008400	3.732000	-11.227000	23.838974	0.001058	20.798015
482.106897	-3.018800	3.731100	-11.262000	23.835687	0.001060	20.774331
483.111789	-2.989600	3.731100	-11.154000	23.839419	0.001058	20.784237
484.109769	-2.978200	3.730600	-11.109000	23.896909	0.001056	20.802528
485.108362	-2.998900	3.729700	-11.184000	23.888172	0.001058	20.791871
486.113867	-3.016000	3.730000	-11.250000	23.901062	0.001057	20.783933
487.107584	-2.987400	3.731300	-11.146000	23.925923	0.001059	20.814078
488.108603	-2.991800	3.729100	-11.155000	23.928983	0.001059	20.805293
489.112532	-3.011600	3.727600	-11.225000	23.935130	0.001058	20.791543
490.108883	-2.998000	3.728900	-11.177000	23.891378	0.001058	20.818793
491.109705	-2.993200	3.728800	-11.160000	23.895708	0.001057	20.810333
492.114018	-3.003200	3.729100	-11.198000	23.891651	0.001056	20.788721
493.112974	-2.987600	3.728700	-11.139000	23.869253	0.001057	20.810358
494.114174	-3.011900	3.727400	-11.226000	23.858202	0.001058	20.799277
495.110956	-2.983400	3.728900	-11.124000	23.878261	0.001057	20.795683
496.107964	-2.993300	3.726900	-11.154000	23.890082	0.001057	20.819390
497.108918	-3.003600	3.727200	-11.194000	23.892422	0.001057	20.799451
498.112443	-2.990900	3.726400	-11.144000	23.890755	0.001058	20.801099
499.112402	-2.985700	3.725200	-11.122000	23.920520	0.001057	20.797281
500.107388	-2.985900	3.726300	-11.125000	23.922137	0.001057	20.794635
501.111733	-3.006800	3.724000	-11.196000	23.908573	0.001057	20.824181
502.112564	-2.987300	3.725800	-11.129000	23.897773	0.001058	20.808137
503.108119	-3.002600	3.725500	-11.185000	23.892248	0.001057	20.789794
504.114946	-2.980300	3.725600	-11.102000	23.925374	0.001059	20.803571
505.112789	-3.021500	3.723300	-11.250000	23.944610	0.001057	20.792040
506.109190	-3.003700	3.723100	-11.182000	23.956407	0.001059	20.804345
507.114337	-2.989500	3.725000	-11.134000	23.988386	0.001058	20.807964
508.113710	-2.995100	3.724000	-11.153000	23.951307	0.001058	20.816300
509.109527	-3.004200	3.723800	-11.186000	23.974029	0.001056	20.783136
510.111362	-2.996700	3.722900	-11.155000	23.962781	0.001059	20.811210
511.110208	-2.997300	3.721500	-11.154000	23.959894	0.001056	20.828230
512.111024	-3.008700	3.722100	-11.198000	23.964401	0.001058	20.809042
513.112608	-2.986200	3.723200	-11.118000	23.954523	0.001057	20.808619
514.110724	-2.988500	3.722300	-11.124000	23.985805	0.001058	20.809169
515.112276	-2.985200	3.721400	-11.108000	23.970377	0.001056	20.807923
516.111557	-2.997300	3.720600	-11.150000	24.005093	0.001061	20.815710
517.110984	-3.011400	3.720800	-11.204000	24.001710	0.001056	20.801412
518.109563	-2.989800	3.721800	-11.127000	23.990761	0.001058	20.811295
519.113262	-2.982700	3.720200	-11.096000	23.977425	0.001058	20.799343
520.112731	-3.012400	3.720000	-11.205000	23.989720	0.001057	20.808354
521.111033	-3.011900	3.719700	-11.202000	24.001492	0.001057	20.807832
522.114045	-2.986300	3.719000	-11.105000	24.010702	0.001058	20.817542
523.111461	-3.003400	3.717600	-11.164000	24.015358	0.001057	20.807512
524.111845	-2.993500	3.719200	-11.132000	24.037230	0.001058	20.804317
525.113751	-3.025500	3.717100	-11.244000	24.085481	0.001057	20.813827
526.111864	-2.992900	3.718300	-11.128000	24.068935	0.001058	20.798181
527.112628	-3.012500	3.716000	-11.194000	24.080581	0.001059	20.818396
528.113781	-2.995700	3.716700	-11.133000	24.102702	0.001059	20.824460
529.113822	-2.985400	3.716500	-11.094000	24.122983	0.001060	20.812558
530.114431	-2.974400	3.717700	-11.057000	24.140850	0.001060	20.822892
531.123445	-3.006400	3.715900	-11.170000	24.130549	0.001059	20.802129
532.115260	-3.017200	3.715800	-11.209000	24.129182	0.001059	20.808344
533.118395	-3.013000	3.715400	-11.193000	24.127141	0.001060	20.814357
534.115429	-3.027500	3.714200	-11.242000	24.095418	0.001060	20.813835
535.118405	-2.990300	3.715500	-11.110000	24.058192	0.001061	20.813959
536.117351	-2.998200	3.714700	-11.137000	24.072004	0.001061	20.814061
537.118225	-2.996700	3.713900	-11.129000	24.060659	0.001059	20.814062
538.120755	-2.990500	3.714200	-11.106000	24.072926	0.001060	20.817831
539.117255	-3.005400	3.713400	-11.157000	24.078649	0.001059	20.806027
540.118391	-2.992200	3.712900	-11.109000	24.109728	0.001062	20.805902
541.120892	-2.996000	3.712400	-11.122000	24.143071	0.001061	20.806627
542.117873	-2.998400	3.712200	-11.130000	24.155612	0.001059	20.821102
543.117345	-2.987900	3.712000	-11.091000	24.183030	0.001061	20.820153
544.123228	-3.021500	3.711200	-11.212000	24.195072	0.001059	20.805679
545.118649	-3.005900	3.712300	-11.157000	24.196964	0.001059	20.819905
546.119811	-3.005500	3.709800	-11.149000	24.197014	0.001061	20.814265
547.125145	-2.986500	3.710700	-11.081000	24.154494	0.001061	20.812395
548.120677	-2.991000	3.710900	-11.098000	24.145264	0.001059	20.840120
549.121509	-2.998100	3.711300	-11.125000	24.178406	0.001059	20.823575
550.124199	-3.009400	3.711000	-11.167000	24.179576	0.001059	20.818111
551.121657	-3.004000	3.709700	-11.141000	24.192065	0.001057	20.817836
552.120644	-3.018400	3.708400	-11.193000	24.215305	0.001058	20.825973
553.123286	-3.026900	3.708300	-11.224000	24.218837	0.001061	20.822877
554.121769	-3.017600	3.707900	-11.188000	24.265835	0.001058	20.810750
555.120819	-3.020400	3.707200	-11.197000	24.247947	0.001058	20.825523
556.125711	-3.018000	3.707600	-11.189000	24.234562	0.001059	20.814943
557.123712	-2.978200	3.709100	-11.045000	24.184603	0.001058	20.817937
558.125866	-3.005900	3.707100	-11.142000	24.171987	0.001059	20.837052
559.126636	-2.990700	3.707200	-11.086000	24.139269	0.001059	20.821306
560.124699	-3.009400	3.705900	-11.152000	24.168728	0.001059	20.829515
561.124507	-3.008900	3.705800	-11.149000	24.175594	0.001060	20.823126
562.125739	-3.004500	3.705800	-11.133000	24.203436	0.001060	20.807904
563.125030	-2.988000	3.705500	-11.072000	24.201369	0.001056	20.821952
564.126032	-3.002900	3.704100	-11.121000	24.241053	0.001058	20.840419
565.129305	-3.006800	3.704800	-11.139000	24.222144	0.001056	20.848479
566.125675	-3.006100	3.704400	-11.135000	24.223014	0.001057	20.835127
567.124922	-3.018600	3.703100	-11.177000	24.279938	0.001057	20.818733
568.128157	-3.006000	3.702600	-11.129000	24.283121	0.001058	20.845158
569.126122	-2.998100	3.703500	-11.102000	24.294266	0.001055	20.850173
570.128019	-2.989000	3.705300	-11.073000	24.304863	0.001058	20.829036
571.131755	-2.994500	3.703100	-11.087000	24.281825	0.001054	20.838643
572.127487	-3.000300	3.702800	-11.109000	24.277298	0.001057	20.830309
573.129838	-3.005100	3.702500	-11.126000	24.272844	0.001055	20.826790
574.133430	-3.005700	3.703200	-11.129000	24.271029	0.001054	20.842038
575.128955	-2.993900	3.702900	-11.084000	24.306854	0.001055	20.813490
576.128113	-3.003700	3.702000	-11.119000	24.300136	0.001057	20.823346
577.132358	-2.969400	3.701900	-10.991000	24.283318	0.001055	20.851045
578.132352	-3.004700	3.700800	-11.119000	24.296206	0.001055	20.858757
579.130605	-3.005500	3.699600	-11.118000	24.315113	0.001056	20.853068
580.134666	-3.027100	3.698500	-11.195000	24.325361	0.001057	20.842486
581.130753	-2.991500	3.699600	-11.067000	24.342029	0.001059	20.851145
582.131498	-2.995700	3.699300	-11.082000	24.320261	0.001056	20.862025
583.133194	-3.001400	3.699200	-11.101000	24.326008	0.001057	20.828910
584.130437	-3.031800	3.697300	-11.208000	24.343245	0.001058	20.862321
585.131454	-2.996100	3.699300	-11.083000	24.370434	0.001058	20.837441
586.133229	-3.027100	3.698400	-11.195000	24.375832	0.001058	20.845700
587.131547	-3.003600	3.698100	-11.107000	24.395210	0.001059	20.833847
588.131443	-2.986500	3.698300	-11.044000	24.395855	0.001058	20.847295
589.133544	-2.994700	3.697200	-11.072000	24.349882	0.001059	20.857600
590.131004	-3.022100	3.695300	-11.166000	24.331623	0.001057	20.845922
591.132212	-3.000400	3.696500	-11.090000	24.352964	0.001057	20.860692
592.132359	-2.984700	3.696200	-11.032000	24.322214	0.001057	20.874889
593.135600	-2.992600	3.696800	-11.061000	24.334277	0.001058	20.865179
594.132019	-2.983900	3.696300	-11.028000	24.347386	0.001059	20.856993
595.139343	-2.994300	3.695700	-11.066000	24.365345	0.001056	20.860310
596.135695	-3.018800	3.694000	-11.151000	24.371611	0.001057	20.859009
597.133935	-2.994900	3.694000	-11.062000	24.412456	0.001057	20.854466
598.142730	-2.965500	3.695500	-10.956000	24.422031	0.001056	20.885407
599.137735	-3.005900	3.693700	-11.102000	24.440063	0.001056	20.862722
600.137977	-3.007300	3.693700	-11.106000	24.452723	0.001057	20.866414
601.141958	-3.021000	3.692700	-11.155000	24.473292	0.001056	20.875669
602.138906	-3.011100	3.692500	-11.118000	24.471550	0.001058	20.862543
603.139667	-2.983600	3.695000	-11.024000	24.459633	0.001055	20.875716
604.140729	-3.000600	3.693700	-11.082000	24.462741	0.001056	20.861292
605.140682	-2.998200	3.692400	-11.069000	24.431024	0.001055	20.878783
606.137945	-3.013300	3.691500	-11.123000	24.456967	0.001054	20.861663
607.140002	-2.998000	3.692200	-11.068000	24.476865	0.001051	20.872616
608.141767	-3.007200	3.691900	-11.100000	24.497112	0.001052	20.877757
609.135633	-2.998200	3.691500	-11.067000	24.517581	0.001052	20.883594
610.140747	-3.003100	3.691400	-11.085000	24.540513	0.001052	20.871989
611.140245	-3.009500	3.690200	-11.104000	24.540960	0.001050	20.884766
612.139331	-3.018300	3.689500	-11.135000	24.542971	0.001052	20.863551
613.144021	-3.013500	3.688500	-11.114000	24.557772	0.001051	20.860857
614.145310	-3.007100	3.688700	-11.091000	24.588287	0.001049	20.908541
615.141614	-3.016400	3.688000	-11.122000	24.544611	0.001050	20.895066
616.144564	-3.007200	3.688600	-11.091000	24.563092	0.001051	20.888479
617.146428	-3.017800	3.688300	-11.129000	24.539364	0.001049	20.876527
618.141473	-3.000100	3.688800	-11.066000	24.530908	0.001049	20.862827
619.146521	-3.013400	3.688000	-11.112000	24.550234	0.001049	20.881742
620.143852	-3.006200	3.687300	-11.084000	24.541329	0.001050	20.889877
621.146071	-2.981700	3.687700	-10.995000	24.487204	0.001049	20.887730
622.150155	-2.986800	3.688100	-11.015000	24.466734	0.001050	20.878098
623.146724	-2.985400	3.687600	-11.008000	24.489667	0.001050	20.890674
624.144666	-2.980800	3.686500	-10.988000	24.503324	0.001049	20.889204
625.152421	-3.003100	3.686500	-11.070000	24.479892	0.001048	20.878498
626.147153	-3.011000	3.686000	-11.097000	24.501706	0.001049	20.865297
627.145649	-3.000600	3.684500	-11.055000	24.506111	0.001050	20.919499
628.148624	-3.007900	3.685700	-11.085000	24.493849	0.001046	20.893447
629.147373	-3.005000	3.685500	-11.072000	24.491684	0.001046	20.878949
630.146559	-2.998600	3.685400	-11.050000	24.521385	0.001047	20.887884
631.149802	-2.983100	3.685500	-10.993000	24.533523	0.001046	20.891528
632.150929	-3.018800	3.683600	-11.119000	24.551780	0.001046	20.883768
633.149533	-2.990400	3.684100	-11.017000	24.544693	0.001047	20.901312
634.151688	-3.002800	3.683800	-11.061000	24.546557	0.001046	20.870468
635.150898	-2.990300	3.682800	-11.011000	24.561930	0.001043	20.898692
636.148789	-2.997900	3.682000	-11.038000	24.562082	0.001042	20.893156
637.155848	-3.003900	3.682900	-11.061000	24.598643	0.001044	20.906605
638.154647	-2.993100	3.681700	-11.019000	24.599662	0.001045	20.891982
639.147886	-3.020400	3.680200	-11.114000	24.616154	0.001044	20.914217
640.155642	-3.005300	3.682200	-11.065000	24.578573	0.001044	20.898321
641.157100	-3.006900	3.681700	-11.069000	24.572953	0.001044	20.892683
642.150319	-2.991800	3.681800	-11.014000	24.615858	0.001042	20.903016
643.156626	-3.013900	3.680000	-11.090000	24.630583	0.001042	20.886972
644.153847	-2.985200	3.681600	-10.988000	24.633965	0.001045	20.901270
645.149951	-3.011600	3.679000	-11.079000	24.671917	0.001042	20.910429
646.152289	-2.979500	3.679900	-10.963000	24.664009	0.001044	20.908183
647.155015	-2.999300	3.680500	-11.037000	24.607853	0.001043	20.900199
648.150536	-3.007000	3.679300	-11.062000	24.582559	0.001042	20.909907
649.151939	-3.013200	3.678900	-11.084000	24.601612	0.001043	20.901998
650.150539	-3.007700	3.679300	-11.066000	24.602608	0.001042	20.902997
651.149843	-2.982400	3.679300	-10.972000	24.570699	0.001043	20.892318
652.153712	-3.004900	3.676600	-11.046000	24.615866	0.001043	20.903498
653.153260	-2.994300	3.677400	-11.010000	24.623305	0.001043	20.913332
654.148378	-3.016200	3.677100	-11.090000	24.648669	0.001043	20.879991
655.152644	-3.007000	3.677500	-11.057000	24.643100	0.001042	20.884833
656.149909	-3.025800	3.674700	-11.117000	24.654865	0.001043	20.911810
657.149710	-2.998300	3.677100	-11.024000	24.660311	0.001044	20.909214
658.153257	-3.011200	3.675700	-11.067000	24.683691	0.001044	20.913708
659.149302	-3.019000	3.674100	-11.091000	24.661481	0.001043	20.906121
660.149787	-2.999600	3.676700	-11.028000	24.654244	0.001042	20.890800
661.149138	-3.005100	3.675800	-11.045000	24.675433	0.001043	20.904474
662.151336	-3.003200	3.674200	-11.033000	24.678291	0.001043	20.917773
663.152196	-3.029200	3.673100	-11.126000	24.695005	0.001042	20.897088
664.150281	-3.022400	3.673900	-11.103000	24.692916	0.001042	20.911112
665.149477	-3.012400	3.673400	-11.063000	24.679336	0.001044	20.905545
666.150823	-2.989000	3.674300	-10.982000	24.644990	0.001042	20.912806
667.151775	-2.992600	3.672700	-10.988000	24.643820	0.001041	20.926330
668.151828	-2.989000	3.673700	-10.979000	24.639144	0.001041	20.887977
669.151704	-2.999300	3.672400	-11.014000	24.638348	0.001042	20.898556
670.150903	-2.981900	3.672500	-10.950000	24.665927	0.001040	20.906314
671.151179	-2.963800	3.673700	-10.887000	24.651254	0.001044	20.897281
672.155118	-3.015200	3.671500	-11.069000	24.683484	0.001040	20.907337
673.153358	-3.007500	3.671900	-11.041000	24.674952	0.001040	20.918689
674.153972	-3.024500	3.670900	-11.101000	24.730310	0.001039	20.905489
675.154839	-2.997200	3.670700	-11.000000	24.732174	0.001043	20.882705
676.156611	-3.005200	3.670200	-11.028000	24.726577	0.001040	20.903165
677.154980	-2.999800	3.671800	-11.014000	24.767460	0.001039	20.874020
678.156247	-3.014800	3.670000	-11.063000	24.741450	0.001038	20.869255
679.157571	-2.980100	3.671000	-10.937000	24.762411	0.001036	20.879859
680.155918	-3.009000	3.669600	-11.040000	24.783774	0.001039	20.895131
681.159220	-2.992000	3.668800	-10.976000	24.783997	0.001037	20.868805
682.157600	-2.997900	3.668300	-10.996000	24.827663	0.001037	20.899349
683.160396	-3.004400	3.668700	-11.021000	24.830795	0.001036	20.901069
684.156882	-2.999900	3.668200	-11.003000	24.835148	0.001036	20.881258
685.161965	-2.990800	3.669300	-10.973000	24.805980	0.001036	20.890864
686.159332	-2.972600	3.668700	-10.904000	24.805684	0.001034	20.889619
687.159464	-3.002300	3.667500	-11.010000	24.773503	0.001037	20.875343
688.160898	-2.988500	3.667600	-10.960000	24.755377	0.001035	20.879912
689.160896	-2.996500	3.666100	-10.985000	24.762216	0.001035	20.881085
690.164448	-3.008300	3.664600	-11.022000	24.762017	0.001038	20.902694
691.160861	-3.013000	3.665800	-11.043000	24.766692	0.001033	20.858077
692.160273	-2.990900	3.665800	-10.963000	24.787035	0.001035	20.875172
693.161330	-3.009100	3.666200	-11.031000	24.801755	0.001034	20.885203
694.162410	-2.997200	3.665600	-10.986000	24.808844	0.001036	20.872878
695.160645	-3.007000	3.665500	-11.020000	24.831050	0.001034	20.853439
696.165747	-3.007300	3.664500	-11.018000	24.804990	0.001035	20.893190
697.169643	-2.998200	3.663800	-10.983000	24.790020	0.001034	20.870582
698.165358	-3.014400	3.662400	-11.039000	24.798848	0.001038	20.855735
699.161350	-3.010300	3.663500	-11.026000	24.808993	0.001035	20.892466
700.162040	-2.996500	3.663100	-10.975000	24.838211	0.001036	20.877219
701.163532	-2.989200	3.662300	-10.946000	24.850841	0.001033	20.875197
702.163082	-3.013600	3.662400	-11.037000	24.856411	0.001033	20.876046
703.164180	-3.015800	3.662100	-11.044000	24.855067	0.001032	20.862369
704.162738	-3.020700	3.661100	-11.058000	24.832414	0.001035	20.879462
705.167110	-2.982400	3.662700	-10.923000	24.814261	0.001032	20.856978
706.165369	-2.984600	3.661500	-10.927000	24.812495	0.001031	20.869430
707.178354	-2.991800	3.661800	-10.954000	24.797125	0.001031	20.865385
708.170631	-2.989200	3.662400	-10.947000	24.797350	0.001031	20.880308
709.166647	-2.988700	3.660800	-10.940000	24.804860	0.001031	20.884525
710.165818	-3.022200	3.659000	-11.057000	24.807470	0.001032	20.867706
711.166925	-2.998000	3.660800	-10.975000	24.824852	0.001033	20.868554
712.166845	-2.976700	3.661400	-10.896000	24.840888	0.001030	20.859045
713.167419	-2.993300	3.659700	-10.954000	24.832535	0.001030	20.850188
714.174342	-2.981500	3.659400	-10.910000	24.856380	0.001029	20.863687
715.165505	-2.989800	3.658900	-10.939000	24.809956	0.001032	20.862140
716.170667	-2.982900	3.660100	-10.917000	24.793991	0.001028	20.856550
717.168395	-3.007500	3.657800	-10.998000	24.770417	0.001028	20.853281
718.171639	-2.990200	3.658600	-10.938000	24.742243	0.001029	20.842078
719.174633	-3.012500	3.658300	-11.019000	24.705687	0.001027	20.849964
720.171796	-2.992700	3.657700	-10.946000	24.709641	0.001030	20.849664
721.171856	-2.974100	3.658800	-10.880000	24.685693	0.001027	20.858823
722.173538	-2.991500	3.657000	-10.939000	24.720087	0.001026	20.847819
723.172639	-3.004600	3.656500	-10.985000	24.743935	0.001026	20.823861
724.173717	-2.984700	3.657500	-10.916000	24.773627	0.001027	20.841330
725.178246	-3.005100	3.655700	-10.985000	24.767214	0.001025	20.846274
726.174316	-3.012600	3.655600	-11.011000	24.784524	0.001025	20.861273
727.175683	-3.014500	3.654100	-11.014000	24.818987	0.001025	20.849393
728.178386	-3.006400	3.655400	-10.988000	24.835176	0.001026	20.859002
729.178237	-3.025100	3.653000	-11.049000	24.860838	0.001025	20.861524
730.176802	-2.997100	3.654700	-10.952000	24.829434	0.001024	20.843757
731.175846	-3.024500	3.654000	-11.051000	24.802231	0.001024	20.852492
732.177345	-3.031200	3.652800	-11.071000	24.789922	0.001025	20.836346
733.177660	-2.999300	3.654900	-10.961000	24.739369	0.001025	20.853891
734.178020	-3.016400	3.652500	-11.015000	24.774010	0.001024	20.836499
735.176639	-3.014800	3.652900	-11.012000	24.787291	0.001024	20.824697
736.180139	-2.980700	3.654500	-10.891000	24.796917	0.001024	20.845736
737.181382	-2.987400	3.652800	-10.911000	24.826209	0.001022	20.829616
738.180866	-2.967100	3.653100	-10.838000	24.820915	0.001022	20.838527
739.181305	-3.003800	3.650900	-10.966000	24.858661	0.001024	20.843218
740.181383	-3.008900	3.651500	-10.986000	24.850532	0.001023	20.832215
741.179431	-3.015800	3.650700	-11.008000	24.841407	0.001021	20.838230
742.180812	-3.004000	3.651000	-10.967000	24.815498	0.001022	20.829772
743.183105	-2.993200	3.650900	-10.927000	24.826862	0.001021	20.830271
744.179562	-3.010700	3.650700	-10.990000	24.790882	0.001024	20.840629
745.181198	-3.003700	3.649900	-10.962000	24.808091	0.001021	20.836088
746.182754	-3.028600	3.648900	-11.050000	24.774822	0.001020	20.813606
747.181665	-2.999500	3.649200	-10.945000	24.773381	0.001023	20.835394
748.186160	-3.002100	3.648800	-10.953000	24.751226	0.001021	20.837816
749.185053	-2.996400	3.649100	-10.933000	24.733892	0.001019	20.831801
750.184494	-3.005700	3.647100	-10.961000	24.737451	0.001020	20.829208
751.186298	-3.007600	3.647800	-10.971000	24.757970	0.001018	20.844109
752.187142	-3.035900	3.646300	-11.068000	24.767370	0.001020	20.828887
753.184348	-3.007000	3.647100	-10.966000	24.804373	0.001019	20.824770
754.186162	-2.995700	3.646800	-10.923000	24.812505	0.001019	20.824872
755.188475	-3.005000	3.646700	-10.958000	24.841799	0.001020	20.813968
756.185495	-2.976900	3.646800	-10.855000	24.878975	0.001019	20.817140
757.187695	-3.018000	3.645000	-10.998000	24.878504	0.001015	20.837055
758.188890	-3.004500	3.645700	-10.952000	24.916397	0.001015	20.845689
759.186475	-3.004600	3.645700	-10.953000	24.903447	0.001015	20.829373
760.187638	-3.001900	3.645500	-10.942000	24.958521	0.001016	20.827752
761.191315	-2.990100	3.644900	-10.898000	24.949448	0.001017	20.811059
762.192144	-2.993700	3.645700	-10.913000	24.973369	0.001014	20.816103
763.191560	-2.997000	3.645100	-10.923000	24.919168	0.001014	20.816229
764.201057	-2.998100	3.647000	-10.933000	24.908679	0.001015	20.819926
765.193387	-2.998700	3.644800	-10.929000	24.916785	0.001014	20.806250
766.194062	-3.007800	3.644100	-10.960000	24.881157	0.001014	20.813165
767.196100	-3.004500	3.644600	-10.949000	24.879966	0.001014	20.809125
768.194124	-2.995700	3.642900	-10.911000	24.867563	0.001014	20.822281
769.191399	-2.975300	3.644200	-10.842000	24.842026	0.001014	20.819411
770.200717	-2.996400	3.642000	-10.912000	24.841830	0.001013	20.803093
771.200993	-2.997500	3.643400	-10.920000	24.825370	0.001013	20.807437
772.191769	-3.005800	3.642700	-10.948000	24.840391	0.001013	20.804968
773.199642	-3.020800	3.640700	-10.997000	24.805803	0.001012	20.810559
774.195827	-2.986300	3.643300	-10.879000	24.782056	0.001013	20.795262
775.193154	-2.997900	3.642200	-10.918000	24.791410	0.001011	20.816503
776.197860	-3.022700	3.639800	-11.000000	24.787954	0.001012	20.792646
777.195767	-3.011500	3.641300	-10.965000	24.835823	0.001009	20.795642
778.193756	-3.002400	3.641100	-10.931000	24.835823	0.001009	20.779521
779.199372	-2.999900	3.640100	-10.919000	24.877597	0.001012	20.807222
780.199018	-3.001400	3.639800	-10.923000	24.885280	0.001011	20.797864
781.196265	-2.997500	3.638500	-10.905000	24.871282	0.001010	20.796143
782.197213	-3.007200	3.637900	-10.939000	24.840625	0.001008	20.783866
783.197453	-3.000800	3.638600	-10.917000	24.841021	0.001009	20.809394
784.194018	-2.963800	3.640900	-10.789000	24.836647	0.001010	20.775133
785.198031	-3.008200	3.639000	-10.945000	24.853581	0.001009	20.783119
786.197273	-2.993700	3.638200	-10.891000	24.908682	0.001008	20.792428
787.195319	-3.004700	3.637700	-10.928000	24.917559	0.001009	20.793277
788.195718	-2.993300	3.637300	-10.886000	24.960300	0.001005	20.796821
789.194089	-3.016900	3.634900	-10.965000	24.981409	0.001008	20.796198
790.197170	-2.992500	3.636100	-10.880000	24.991579	0.001006	20.782698
791.195509	-3.006000	3.635900	-10.928000	24.991083	0.001004	20.787417
792.194043	-3.046800	3.633900	-11.070000	25.012836	0.001008	20.789336
793.195239	-2.996900	3.635600	-10.895000	25.004112	0.001006	20.787692
794.196981	-3.003100	3.635700	-10.917000	25.033947	0.001005	20.781130
795.198279	-2.996900	3.635800	-10.895000	25.037877	0.001002	20.792187
796.198673	-2.981100	3.635700	-10.837000	25.068555	0.001006	20.768454
797.201509	-3.007700	3.636400	-10.937000	25.074225	0.001003	20.772249
798.202791	-2.989300	3.635900	-10.867000	25.058514	0.001004	20.798678
799.199744	-2.988400	3.635900	-10.863000	25.068334	0.001002	20.797630
800.199710	-2.982100	3.635000	-10.839000	25.065727	0.001002	20.775572
801.202267	-2.981500	3.634900	-10.836000	25.090064	0.001003	20.790994
802.199733	-2.994500	3.633200	-10.878000	25.118804	0.001004	20.802775
803.201057	-2.996100	3.633500	-10.885000	25.132055	0.001003	20.794267
804.200078	-2.980000	3.633800	-10.828000	25.109955	0.001000	20.782987
805.202343	-3.008700	3.631100	-10.924000	25.129098	0.001001	20.773754
806.204727	-3.018700	3.632200	-10.963000	25.150502	0.001001	20.767267
807.201665	-2.992100	3.632100	-10.865000	25.143418	0.001000	20.787181
808.202095	-3.002500	3.632100	-10.905000	25.117714	0.000999	20.774180
809.201773	-3.000700	3.632500	-10.899000	25.092534	0.001000	20.780197
810.204937	-3.014000	3.631000	-10.943000	25.044431	0.000998	20.787860
811.201226	-2.982700	3.631200	-10.829000	25.045749	0.000998	20.780648
812.202949	-2.994000	3.631500	-10.871000	25.029565	0.000999	20.783843
813.201834	-3.029700	3.629200	-10.995000	25.031233	0.001000	20.778406
814.207151	-2.983300	3.630900	-10.831000	25.042621	0.000999	20.777035
815.203748	-2.987100	3.630300	-10.843000	25.013013	0.000999	20.785247
816.205127	-2.983400	3.630900	-10.831000	25.024824	0.000999	20.784774
817.209821	-3.007700	3.629000	-10.914000	25.041332	0.000998	20.759619
818.205947	-3.028600	3.627800	-10.987000	25.054434	0.000998	20.775142
819.219240	-3.016000	3.628700	-10.944000	25.074970	0.000996	20.781532
820.206700	-3.007100	3.627500	-10.908000	25.093096	0.000997	20.762269
821.209030	-2.988800	3.627500	-10.841000	25.095035	0.000995	20.763267
822.207359	-2.992600	3.629000	-10.858000	25.090188	0.000996	20.774523
823.206532	-2.990100	3.628300	-10.849000	25.092925	0.000996	20.773477
824.207972	-2.985700	3.628900	-10.832000	25.114328	0.000996	20.742805
825.207874	-2.981600	3.628100	-10.817000	25.127306	0.000995	20.760101
826.209935	-3.001400	3.625900	-10.882000	25.146621	0.000997	20.764319
827.212502	-2.986000	3.625700	-10.826000	25.102074	0.000996	20.778869
828.211354	-3.000200	3.626900	-10.880000	25.100459	0.000994	20.746901
829.209822	-3.024900	3.624100	-10.960000	25.112367	0.000994	20.764544
830.207797	-2.997000	3.625900	-10.866000	25.114330	0.000995	20.767938
831.211276	-3.013700	3.624700	-10.923000	25.108887	0.000993	20.755187
832.214414	-3.000100	3.626500	-10.879000	25.112268	0.000994	20.763497
833.213034	-3.024100	3.623500	-10.956000	25.116816	0.000994	20.748147
834.212789	-2.980300	3.624100	-10.800000	25.116442	0.000996	20.734970
835.213175	-3.012800	3.623300	-10.914000	25.087756	0.000992	20.769710
836.211882	-3.004500	3.623100	-10.884000	25.076195	0.000992	20.763321
837.217914	-3.012000	3.623200	-10.911000	25.091955	0.000993	20.753537
838.214618	-3.017800	3.622200	-10.930000	25.110003	0.000992	20.763120
839.213421	-3.009000	3.622400	-10.898000	25.119175	0.000992	20.758103
840.219297	-3.005400	3.622600	-10.886000	25.140154	0.000991	20.755929
841.215392	-2.993400	3.621000	-10.838000	25.174707	0.000992	20.771177
842.217815	-2.993000	3.621900	-10.838000	25.181692	0.000989	20.750688
843.219512	-2.984200	3.621100	-10.805000	25.175028	0.000990	20.780035
844.219525	-3.019900	3.620500	-10.932000	25.155315	0.000991	20.764512
845.217851	-3.000600	3.622000	-10.867000	25.146069	0.000990	20.753806
846.224102	-3.020200	3.618800	-10.928000	25.148255	0.000988	20.746044
847.219577	-3.020400	3.617600	-10.925000	25.174280	0.000989	20.771697
848.220465	-3.000700	3.620700	-10.864000	25.193073	0.000987	20.743147
849.225139	-2.980000	3.621000	-10.789000	25.202069	0.000989	20.772094
850.221956	-2.984100	3.620900	-10.803000	25.202319	0.000988	20.758594
851.231466	-2.990400	3.619200	-10.822000	25.235203	0.000988	20.755573
852.225875	-2.992000	3.619400	-10.828000	25.225708	0.000987	20.749833
853.220375	-3.002100	3.618900	-10.863000	25.260306	0.000988	20.785044
854.223290	-3.005400	3.618600	-10.873000	25.276412	0.000988	20.747160
855.231136	-2.988300	3.617500	-10.809000	25.288965	0.000985	20.762609
856.225727	-3.004700	3.617300	-10.867000	25.271962	0.000986	20.748382
857.226781	-2.996400	3.617200	-10.838000	25.240073	0.000988	20.740547
858.228548	-3.018300	3.617000	-10.916000	25.220584	0.000985	20.740895
859.225860	-3.001600	3.617000	-10.856000	25.220458	0.000984	20.745036
860.226074	-3.009100	3.615900	-10.879000	25.232987	0.000985	20.752399
861.230209	-2.991500	3.615100	-10.814000	25.223566	0.000986	20.757640
862.229617	-2.982100	3.616300	-10.783000	25.233360	0.000983	20.749929
863.224886	-2.969000	3.615900	-10.734000	25.261993	0.000984	20.745485
864.230540	-3.001000	3.615100	-10.848000	25.254288	0.000984	20.740120
865.232085	-2.985300	3.615300	-10.792000	25.235870	0.000984	20.751026
866.231950	-2.998800	3.613500	-10.834000	25.256499	0.000986	20.753246
867.233521	-2.992000	3.614500	-10.813000	25.234104	0.000985	20.752573
868.230170	-2.988200	3.614800	-10.801000	25.250756	0.000983	20.757911
869.231262	-2.992100	3.615300	-10.816000	25.222669	0.000981	20.760058
870.230816	-3.001200	3.613200	-10.841000	25.253987	0.000984	20.741241
871.231647	-3.001000	3.613700	-10.844000	25.242676	0.000984	20.756911
872.229092	-2.994100	3.613000	-10.817000	25.219334	0.000983	20.748175
873.237198	-2.974800	3.613300	-10.748000	25.231764	0.000983	20.728885
874.231811	-3.010200	3.611500	-10.869000	25.246875	0.000980	20.772507
875.228209	-2.980200	3.611900	-10.762000	25.249187	0.000982	20.757284
876.236947	-3.022000	3.610900	-10.912000	25.266510	0.000979	20.758556
877.231727	-2.990500	3.612800	-10.803000	25.248962	0.000979	20.742359
878.229434	-2.985800	3.609900	-10.777000	25.227336	0.000980	20.752416
879.233533	-3.008500	3.612200	-10.865000	25.228231	0.000977	20.769911
880.231488	-2.980800	3.610300	-10.759000	25.250952	0.000977	20.749573
881.235358	-3.002000	3.610200	-10.836000	25.238147	0.000976	20.744778
882.235905	-3.041000	3.608800	-10.973000	25.234718	0.000977	20.766465
883.233371	-2.985600	3.608600	-10.772000	25.226565	0.000974	20.740736
884.231779	-2.991900	3.609100	-10.796000	25.246477	0.000976	20.745080
885.234712	-3.012600	3.608700	-10.870000	25.216449	0.000975	20.755711
886.236817	-2.998200	3.610100	-10.823000	25.211380	0.000973	20.748250
887.233938	-2.996900	3.607600	-10.811000	25.192214	0.000975	20.746078
888.235705	-2.988900	3.608400	-10.784000	25.225973	0.000971	20.758160
889.234877	-3.020700	3.606800	-10.894000	25.223760	0.000972	20.762576
890.235901	-2.985300	3.606800	-10.766000	25.227441	0.000970	20.744460
891.234731	-2.985000	3.607600	-10.767000	25.224034	0.000972	20.742937
892.235107	-3.006600	3.605600	-10.840000	25.231120	0.000972	20.751474
893.235410	-2.970900	3.608500	-10.719000	25.245763	0.000969	20.732983
894.237251	-3.005200	3.606100	-10.835000	25.244692	0.000971	20.744711
895.236204	-2.994800	3.607000	-10.801000	25.250013	0.000968	20.748631
896.239302	-2.988500	3.605500	-10.774000	25.241811	0.000969	20.752250
897.238314	-3.006800	3.605300	-10.839000	25.232790	0.000969	20.757418
898.237777	-3.030200	3.604100	-10.920000	25.223099	0.000968	20.731566
899.236351	-2.984800	3.606100	-10.762000	25.232122	0.000970	20.741099
900.239200	-3.003700	3.604700	-10.826000	25.258621	0.000968	20.746367
901.239902	-3.003800	3.603500	-10.823000	25.273735	0.000967	20.766284
902.242270	-3.028600	3.602100	-10.908000	25.296778	0.000966	20.738685
903.238086	-2.993100	3.604000	-10.786000	25.286836	0.000965	20.730124
904.240469	-3.005000	3.602900	-10.825000	25.304089	0.000964	20.734170
905.239380	-3.003900	3.603000	-10.821000	25.317734	0.000967	20.744553
906.239965	-2.980500	3.603500	-10.739000	25.324098	0.000967	20.762323
907.239094	-2.985000	3.601900	-10.750000	25.355391	0.000965	20.729257
908.238740	-3.015100	3.600900	-10.856000	25.355568	0.000965	20.738918
909.240065	-3.003900	3.601200	-10.816000	25.354426	0.000964	20.736348
910.237874	-3.011100	3.600600	-10.841000	25.312671	0.000966	20.768393
911.241581	-3.014900	3.601000	-10.856000	25.315730	0.000966	20.742065
912.238478	-3.030900	3.600100	-10.911000	25.312523	0.000967	20.745484
913.238739	-3.009900	3.599200	-10.832000	25.311209	0.000964	20.750803
914.237503	-2.990700	3.601000	-10.769000	25.308673	0.000968	20.757266
915.240738	-3.011500	3.599200	-10.838000	25.315111	0.000967	20.728641
916.240469	-3.010700	3.599500	-10.836000	25.312698	0.000964	20.745186
917.239437	-3.004800	3.598900	-10.812000	25.297737	0.000964	20.735853
918.239245	-2.988700	3.599400	-10.756000	25.292245	0.000964	20.733658
919.239311	-3.000500	3.598000	-10.795000	25.270096	0.000961	20.746035
920.244586	-2.993000	3.597600	-10.766000	25.289335	0.000963	20.727892
921.242846	-3.015000	3.597000	-10.843000	25.310958	0.000962	20.745809
922.238565	-3.003200	3.598000	-10.804000	25.314760	0.000963	20.753895
923.239948	-2.975500	3.597800	-10.704000	25.290824	0.000963	20.734129
924.239310	-2.986100	3.597500	-10.741000	25.275685	0.000963	20.749750
925.239783	-2.984700	3.596600	-10.734000	25.254209	0.000959	20.755214
926.241127	-2.993900	3.596600	-10.767000	25.287092	0.000962	20.758357
927.237957	-3.001000	3.594200	-10.784000	25.307320	0.000962	20.759701
928.243763	-3.002600	3.595900	-10.796000	25.336997	0.000960	20.760575
929.240319	-2.985500	3.595700	-10.734000	25.345421	0.000959	20.735367
930.244568	-2.977800	3.595700	-10.706000	25.398033	0.000957	20.734142
931.252775	-3.004700	3.594500	-10.799000	25.395200	0.000957	20.757376
932.243438	-3.001900	3.593400	-10.786000	25.429149	0.000958	20.757326
933.243495	-3.000600	3.593000	-10.781000	25.454618	0.000957	20.741650
934.246447	-3.009500	3.594800	-10.816000	25.416072	0.000957	20.763636
935.244673	-2.999500	3.592900	-10.776000	25.429666	0.000954	20.754053
936.244754	-3.016900	3.592700	-10.837000	25.429615	0.000954	20.760640
937.245865	-2.997800	3.593200	-10.771000	25.409855	0.000953	20.780153
938.243671	-2.991500	3.591700	-10.743000	25.390346	0.000954	20.761986
939.243929	-3.011100	3.591200	-10.813000	25.394147	0.000953	20.770544
940.244606	-2.976400	3.592400	-10.690000	25.414029	0.000953	20.753049
941.244196	-2.987000	3.591100	-10.726000	25.414874	0.000952	20.754846
942.248484	-2.983400	3.591400	-10.714000	25.394594	0.000951	20.769570
943.245067	-2.995500	3.590900	-10.756000	25.388305	0.000950	20.758039
944.243818	-3.010500	3.588900	-10.803000	25.350130	0.000951	20.759062
945.246675	-3.019800	3.590700	-10.842000	25.326046	0.000949	20.762856
946.247921	-2.997200	3.589900	-10.759000	25.311951	0.000949	20.758187
947.246343	-3.003300	3.589800	-10.780000	25.307430	0.000951	20.766450
948.246242	-3.006700	3.589300	-10.790000	25.311406	0.000950	20.762856
949.246900	-2.988500	3.589900	-10.727000	25.357339	0.000949	20.760611
950.247564	-3.003700	3.588400	-10.777000	25.367775	0.000949	20.779625
951.246999	-3.011100	3.587900	-10.802000	25.392679	0.000949	20.760535
952.249209	-2.999600	3.588300	-10.762000	25.430628	0.000947	20.755018
953.246126	-2.982100	3.588900	-10.700000	25.417703	0.000949	20.778077
954.247151	-3.006600	3.586000	-10.780000	25.432366	0.000947	20.746806
955.248113	-2.991000	3.588000	-10.730000	25.438901	0.000947	20.769016
956.246566	-2.991100	3.586800	-10.727000	25.448443	0.000948	20.763425
957.247453	-3.005900	3.586100	-10.778000	25.469667	0.000947	20.768142
958.248145	-3.010800	3.586500	-10.797000	25.473840	0.000946	20.772807
959.251858	-2.982800	3.587200	-10.698000	25.473516	0.000946	20.781966
960.249117	-2.993800	3.586900	-10.737000	25.437804	0.000945	20.761751
961.251047	-2.994900	3.585800	-10.738000	25.422168	0.000946	20.771654
962.252990	-3.015300	3.586100	-10.812000	25.396793	0.000944	20.751864
963.251665	-3.015500	3.584500	-10.808000	25.463347	0.000944	20.772702
964.254804	-2.977600	3.585700	-10.676000	25.430142	0.000941	20.764488
965.252207	-2.998800	3.585300	-10.750000	25.411552	0.000940	20.786598
966.251590	-3.005700	3.583000	-10.768000	25.396317	0.000941	20.768456
967.254739	-3.021600	3.583800	-10.827000	25.430565	0.000943	20.778190
968.252031	-2.985400	3.583900	-10.698000	25.453177	0.000940	20.788568
969.252786	-2.987200	3.584900	-10.706000	25.473082	0.000939	20.793858
970.256673	-3.006400	3.581600	-10.767000	25.507400	0.000939	20.786594
971.252549	-3.000300	3.582500	-10.747000	25.516993	0.000938	20.788168
972.254046	-2.996500	3.582200	-10.733000	25.531803	0.000937	20.782652
973.255187	-2.994300	3.581900	-10.724000	25.495347	0.000936	20.781128
974.258375	-3.002600	3.580900	-10.751000	25.425738	0.000938	20.779033
975.252868	-2.984700	3.583000	-10.693000	25.420369	0.000937	20.789763
976.256025	-2.998100	3.580500	-10.734000	25.375186	0.000932	20.780903
977.254278	-3.007800	3.579200	-10.765000	25.369672	0.000932	20.782004
978.254568	-3.007500	3.579800	-10.765000	25.339571	0.000934	20.796825
979.257142	-3.018700	3.577600	-10.797000	25.369620	0.000932	20.757770
980.255964	-3.015500	3.578700	-10.791000	25.387243	0.000936	20.776413
981.259421	-3.006200	3.577600	-10.754000	25.421464	0.000933	20.773318
982.258826	-3.000600	3.577400	-10.733000	25.421464	0.000931	20.768102
983.258460	-3.015800	3.577800	-10.789000	25.384112	0.000932	20.804090
984.257188	-3.013700	3.577600	-10.781000	25.383318	0.000931	20.796181
985.257317	-3.031800	3.575900	-10.840000	25.328167	0.000929	20.793435
986.258721	-2.999800	3.578600	-10.733000	25.322476	0.000930	20.796255
987.258942	-3.013200	3.577100	-10.778000	25.294314	0.000932	20.774144
988.258664	-2.994400	3.577000	-10.710000	25.303561	0.000929	20.785325
989.256213	-3.009300	3.575800	-10.759000	25.298715	0.000927	20.809857
990.260299	-2.988700	3.576100	-10.687000	25.291033	0.000929	20.812101
991.263999	-3.004200	3.576100	-10.743000	25.316287	0.000930	20.795257
992.258965	-3.020300	3.574700	-10.795000	25.322700	0.000928	20.786049
993.260348	-3.005100	3.573100	-10.737000	25.347281	0.000926	20.780859
994.259716	-2.982300	3.575000	-10.660000	25.358041	0.000926	20.792611
995.264878	-2.999700	3.575200	-10.722000	25.407922	0.000925	20.781057
996.261114	-3.014600	3.574000	-10.773000	25.421443	0.000924	20.803169
997.259342	-3.007100	3.572900	-10.743000	25.402582	0.000924	20.788971
998.261050	-2.997100	3.573700	-10.709000	25.377379	0.000925	20.781208
999.262783	-2.994200	3.572700	-10.696000	25.387446	0.000922	20.798429
1000.261145	-3.006200	3.572200	-10.738000	25.384935	0.000925	20.796381
1001.263111	-2.996600	3.571600	-10.702000	25.405464	0.000922	20.802297
1002.262875	-2.988900	3.572100	-10.675000	25.420127	0.000923	20.801848
1003.261549	-3.009200	3.570500	-10.743000	25.395521	0.000922	20.804641
1004.262077	-2.989700	3.572700	-10.680000	25.383792	0.000923	20.803295
1005.263497	-3.029600	3.571000	-10.817000	25.372235	0.000925	20.802595
1006.262983	-2.985700	3.571000	-10.661000	25.380361	0.000921	20.793212
1007.263916	-3.001000	3.570800	-10.715000	25.395472	0.000924	20.797005
1008.262789	-2.983100	3.570900	-10.650000	25.385182	0.000921	20.797104
1009.263839	-2.997600	3.568700	-10.697000	25.375812	0.000921	20.794334
1010.263280	-2.997600	3.568700	-10.696000	25.327396	0.000922	20.807834
1011.262444	-2.984400	3.568800	-10.650000	25.321230	0.000919	20.806859
1012.267403	-3.001500	3.568800	-10.711000	25.300103	0.000919	20.789914
1013.265040	-2.993400	3.569300	-10.683000	25.327244	0.000917	20.780654
1014.266634	-3.018000	3.567900	-10.767000	25.363754	0.000919	20.811623
1015.266517	-2.989000	3.567800	-10.663000	25.372551	0.000918	20.795326
1016.267214	-2.980800	3.567500	-10.632000	25.427427	0.000915	20.808704
1017.265550	-3.008700	3.567000	-10.731000	25.469151	0.000918	20.798445
1018.268196	-2.992700	3.566900	-10.674000	25.476757	0.000914	20.818410
1019.267137	-2.997100	3.565800	-10.685000	25.521386	0.000914	20.803958
1020.265473	-3.015100	3.565500	-10.749000	25.556201	0.000914	20.796248
1021.270774	-3.009700	3.564500	-10.728000	25.546733	0.000913	20.793378
1022.264365	-2.989600	3.565900	-10.660000	25.545393	0.000911	20.800093
1023.267789	-2.998900	3.564500	-10.686000	25.581174	0.000912	20.818009
1024.271439	-2.983700	3.564900	-10.636000	25.595911	0.000911	20.791558
1025.269413	-2.986800	3.565400	-10.648000	25.618073	0.000908	20.820928
1026.267514	-3.004500	3.563800	-10.705000	25.623466	0.000911	20.830138
1027.271655	-2.996700	3.564100	-10.680000	25.646850	0.000910	20.836554
1028.270470	-2.996600	3.562900	-10.675000	25.683498	0.000908	20.822628
1029.269555	-2.990500	3.563100	-10.654000	25.673238	0.000908	20.811375
1030.273575	-3.024100	3.561000	-10.767000	25.686131	0.000907	20.811996
1031.270432	-3.019700	3.561700	-10.753000	25.698386	0.000907	20.809132
1032.271553	-2.987400	3.562300	-10.642000	25.687353	0.000906	20.814172
1033.273778	-2.999500	3.561100	-10.679000	25.680548	0.000906	20.817294
1034.274194	-3.006000	3.560700	-10.703000	25.663950	0.000905	20.842823
1035.271704	-2.998700	3.560500	-10.676000	25.631526	0.000904	20.812155
1036.279593	-2.977700	3.560800	-10.602000	25.630731	0.000904	20.817519
1037.275673	-2.990900	3.559300	-10.644000	25.606059	0.000905	20.834466
1038.273504	-2.989500	3.559500	-10.641000	25.633616	0.000902	20.830375
1039.279591	-3.023400	3.559100	-10.760000	25.618113	0.000902	20.809589
1040.275077	-3.010300	3.559500	-10.714000	25.609941	0.000902	20.838364
1041.275780	-3.007900	3.557100	-10.698000	25.628155	0.000899	20.825364
1042.282011	-3.021600	3.558200	-10.750000	25.622469	0.000903	20.804480
1043.276668	-3.045500	3.557000	-10.832000	25.641476	0.000900	20.826415
1044.278367	-3.012700	3.558200	-10.719000	25.650123	0.000901	20.800012
1045.286222	-3.021500	3.557300	-10.747000	25.629950	0.000898	20.818632
1046.277676	-3.008700	3.557200	-10.701000	25.632436	0.000899	20.827767
1047.280042	-3.015800	3.556500	-10.724000	25.678157	0.000898	20.824375
1048.283382	-3.017600	3.557000	-10.731000	25.676196	0.000897	20.811501
1049.277858	-3.015000	3.555400	-10.718000	25.683750	0.000897	20.829992
1050.277389	-3.013100	3.556900	-10.716000	25.718040	0.000897	20.844519
1051.284347	-2.970500	3.556800	-10.564000	25.715160	0.000896	20.821238
1052.280008	-3.018700	3.555600	-10.732000	25.726167	0.000895	20.844148
1053.285545	-3.007600	3.555300	-10.692000	25.742444	0.000897	20.823988
1054.285526	-2.993000	3.556100	-10.642000	25.677127	0.000894	20.842781
1055.281341	-2.984100	3.555500	-10.609000	25.704930	0.000895	20.835619
1056.283622	-2.990800	3.554500	-10.630000	25.720661	0.000895	20.825815
1057.287412	-2.984100	3.554000	-10.604000	25.685950	0.000891	20.847849
1058.284771	-2.981500	3.553800	-10.595000	25.664140	0.000893	20.844909
1059.287734	-2.992900	3.554600	-10.638000	25.670578	0.000893	20.840944
1060.284058	-2.998200	3.553300	-10.651000	25.661435	0.000893	20.834132
1061.281775	-3.035900	3.551600	-10.781000	25.609458	0.000892	20.843095
1062.281741	-3.004400	3.552000	-10.671000	25.625042	0.000889	20.838832
1063.287802	-2.990100	3.551400	-10.618000	25.643429	0.000892	20.829324
1064.282373	-2.986400	3.552100	-10.607000	25.630734	0.000889	20.835066
1065.285342	-3.003700	3.551300	-10.666000	25.626487	0.000890	20.834594
1066.288198	-3.004800	3.550200	-10.666000	25.633473	0.000888	20.834498
1067.283693	-2.994300	3.549900	-10.628000	25.651539	0.000887	20.828935
1068.287590	-2.977100	3.550600	-10.569000	25.675420	0.000889	20.807402
1069.288126	-2.992600	3.548800	-10.619000	25.698329	0.000888	20.817609
1070.285754	-3.005100	3.549300	-10.665000	25.726333	0.000889	20.835780
1071.285302	-3.016700	3.548100	-10.702000	25.752249	0.000887	20.817715
1072.288583	-2.999400	3.547600	-10.639000	25.742884	0.000885	20.821585
1073.286977	-2.997200	3.548500	-10.634000	25.794514	0.000885	20.840254
1074.287297	-3.022500	3.546700	-10.718000	25.780328	0.000886	20.832169
1075.291237	-3.022500	3.548500	-10.725000	25.801248	0.000886	20.841803
1076.290640	-2.998100	3.547800	-10.635000	25.803635	0.000884	20.828080
1077.289745	-2.997100	3.547700	-10.631000	25.789029	0.000884	20.834745
1078.294408	-2.992800	3.547800	-10.616000	25.772782	0.000882	20.838339
1079.291081	-3.018400	3.545600	-10.701000	25.749107	0.000883	20.850594
1080.289107	-3.003300	3.546500	-10.650000	25.745704	0.000884	20.830581
1081.294815	-2.996800	3.544900	-10.622000	25.763568	0.000880	20.829558
1082.290592	-2.996500	3.545800	-10.624000	25.779446	0.000880	20.829861
1083.293071	-2.997100	3.545000	-10.623000	25.754005	0.000880	20.852195
1084.296288	-2.996500	3.544400	-10.619000	25.739495	0.000881	20.829560
1085.291626	-3.011900	3.545300	-10.676000	25.722429	0.000879	20.858884
1086.294706	-3.036800	3.542500	-10.757000	25.736892	0.000878	20.837851
1087.294939	-2.996600	3.543200	-10.616000	25.732693	0.000878	20.826521
1088.292818	-3.003900	3.542600	-10.640000	25.773339	0.000879	20.865450
1089.291564	-2.968300	3.544300	-10.520000	25.756619	0.000878	20.824950
1090.302420	-2.998600	3.541700	-10.620000	25.764871	0.000878	20.840350
1091.294128	-3.007200	3.542700	-10.652000	25.747331	0.000876	20.851654
1092.294671	-2.980400	3.543500	-10.559000	25.779605	0.000877	20.838555
1093.298461	-2.984700	3.541600	-10.569000	25.771980	0.000875	20.858870
1094.294532	-2.984400	3.541900	-10.569000	25.781473	0.000873	20.830948
1095.297927	-3.005500	3.539400	-10.636000	25.769126	0.000873	20.835615
1096.295673	-3.000900	3.540400	-10.623000	25.784653	0.000873	20.835091
1097.295716	-3.016900	3.538800	-10.675000	25.751388	0.000873	20.839609
1098.296204	-2.986700	3.541900	-10.577000	25.773823	0.000871	20.859773
1099.298719	-2.973900	3.539500	-10.525000	25.796632	0.000872	20.867510
1100.296494	-3.004100	3.539800	-10.633000	25.832557	0.000869	20.859976
1101.297386	-2.982100	3.539800	-10.555000	25.856953	0.000869	20.874999
1102.302918	-3.016800	3.537800	-10.671000	25.857277	0.000870	20.848299
1103.296834	-3.008100	3.539500	-10.646000	25.879290	0.000868	20.861403
1104.297843	-2.976900	3.539800	-10.536000	25.886419	0.000868	20.851021
1105.297763	-3.016700	3.537200	-10.669000	25.886693	0.000867	20.839444
1106.300556	-3.000400	3.536700	-10.611000	25.849360	0.000869	20.872587
1107.297628	-2.987100	3.537600	-10.567000	25.842628	0.000866	20.850179
1108.302287	-2.998900	3.537200	-10.606000	25.841761	0.000866	20.861635
1109.297735	-2.982100	3.536700	-10.545000	25.815278	0.000867	20.852577
1110.298338	-3.022200	3.534300	-10.680000	25.787107	0.000864	20.848935
1111.301857	-2.983400	3.536400	-10.550000	25.776527	0.000863	20.878608
1112.297498	-2.988100	3.534600	-10.560000	25.807211	0.000861	20.879085
1113.301255	-3.030100	3.535500	-10.712000	25.791958	0.000864	20.885573
1114.297029	-2.973200	3.535700	-10.511000	25.815312	0.000861	20.863989
1115.300975	-2.981900	3.534000	-10.537000	25.856080	0.000861	20.867010
1116.296672	-2.964000	3.534700	-10.476000	25.869622	0.000859	20.885828
1117.301198	-3.017500	3.533600	-10.660000	25.872629	0.000861	20.860876
1118.297995	-3.019900	3.532400	-10.667000	25.882220	0.000859	20.873354
1119.300556	-2.997900	3.533200	-10.591000	25.886346	0.000862	20.872758
1120.300498	-3.017700	3.532300	-10.658000	25.889924	0.000858	20.867344
1121.299773	-3.003500	3.532200	-10.607000	25.872337	0.000856	20.858686
1122.302532	-2.993600	3.533100	-10.575000	25.877704	0.000857	20.868344
1123.299051	-3.007200	3.531600	-10.619000	25.912036	0.000856	20.892400
1124.302820	-3.030900	3.530100	-10.698000	25.921950	0.000857	20.858266
1125.300259	-3.028800	3.529800	-10.689000	25.892491	0.000856	20.864707
1126.301205	-3.008000	3.531100	-10.621000	25.923716	0.000855	20.851506
1127.302574	-2.997500	3.531300	-10.584000	25.924763	0.000855	20.840231
1128.301377	-2.993400	3.530700	-10.567000	25.908096	0.000854	20.860469
1129.303327	-3.005500	3.529600	-10.607000	25.904918	0.000856	20.864389
1130.303654	-3.009200	3.528800	-10.618000	25.889221	0.000853	20.852414
1131.302882	-2.974300	3.527900	-10.492000	25.843612	0.000853	20.875348
1132.302119	-3.000900	3.528200	-10.587000	25.775072	0.000854	20.872406
1133.307057	-2.986900	3.528800	-10.539000	25.763992	0.000853	20.862226
1134.306319	-2.977100	3.527600	-10.501000	25.728692	0.000852	20.867071
1135.305371	-2.997500	3.526800	-10.570000	25.696443	0.000849	20.865500
1136.305772	-2.992200	3.526700	-10.552000	25.671798	0.000847	20.832687
1137.303756	-2.999100	3.526500	-10.575000	25.682335	0.000849	20.853701
1138.303659	-2.994100	3.525600	-10.555000	25.694213	0.000847	20.851881
1139.302981	-3.001600	3.526500	-10.584000	25.712082	0.000847	20.843751
1140.303460	-2.987300	3.525900	-10.531000	25.731635	0.000847	20.852484
1141.304668	-2.991800	3.526900	-10.551000	25.739192	0.000847	20.848695
1142.305668	-2.977800	3.525700	-10.497000	25.711666	0.000847	20.853764
1143.305574	-2.981600	3.525400	-10.510000	25.712240	0.000845	20.856236
1144.317382	-2.993100	3.523900	-10.546000	25.737808	0.000846	20.839244
1145.307854	-2.991600	3.524700	-10.544000	25.765661	0.000845	20.833557
1146.307923	-2.987700	3.524300	-10.528000	25.774931	0.000846	20.843342
1147.306366	-2.988400	3.523400	-10.528000	25.798636	0.000845	20.822110
1148.308929	-2.997000	3.523900	-10.560000	25.825593	0.000842	20.842550
1149.306671	-2.994800	3.522600	-10.548000	25.826935	0.000841	20.837734
1150.309298	-2.976600	3.523200	-10.486000	25.839635	0.000845	20.820146
1151.312710	-2.998800	3.521600	-10.560000	25.858169	0.000841	20.843980
1152.311182	-3.014600	3.519400	-10.608000	25.878094	0.000840	20.833176
1153.315083	-2.968500	3.522200	-10.454000	25.861925	0.000843	20.832580
1154.314738	-3.012700	3.519500	-10.602000	25.871293	0.000842	20.831560
1155.312764	-2.985200	3.521200	-10.509000	25.843645	0.000842	20.811847
1156.315299	-3.022800	3.518700	-10.635000	25.836765	0.000839	20.832910
1157.313195	-2.993700	3.520100	-10.536000	25.881185	0.000839	20.826324
1158.316012	-3.005600	3.518700	-10.576000	25.865711	0.000841	20.833064
1159.314829	-3.018800	3.517800	-10.617000	25.835801	0.000839	20.826726
1160.316228	-2.998300	3.518600	-10.549000	25.844797	0.000839	20.837659
1161.315110	-2.987100	3.518400	-10.509000	25.842140	0.000839	20.819344
1162.316860	-3.012500	3.516500	-10.592000	25.849393	0.000839	20.814302
1163.319241	-2.991600	3.517300	-10.521000	25.816802	0.000839	20.801951
1164.314058	-3.020700	3.516900	-10.621000	25.806793	0.000835	20.811812
1165.318861	-3.009200	3.515100	-10.576000	25.799836	0.000836	20.816203
1166.318255	-3.017100	3.514800	-10.604000	25.834222	0.000835	20.809493
1167.313043	-2.997200	3.515300	-10.535000	25.826099	0.000835	20.822670
1168.315309	-3.001800	3.516400	-10.555000	25.803268	0.000833	20.809220
1169.318907	-3.007300	3.515300	-10.571000	25.778898	0.000831	20.806077
1170.314593	-2.996700	3.514500	-10.531000	25.780290	0.000831	20.804156
1171.320346	-3.002700	3.515300	-10.554000	25.766329	0.000833	20.821426
1172.321496	-3.002400	3.514100	-10.549000	25.765609	0.000831	20.805531
1173.314772	-2.995600	3.514200	-10.527000	25.730749	0.000831	20.833577
1174.318925	-2.974100	3.513500	-10.449000	25.750506	0.000828	20.807904
1175.317679	-2.988700	3.513400	-10.499000	25.770384	0.000830	20.798947
1176.315552	-2.987600	3.514000	-10.498000	25.794035	0.000829	20.801842
1177.317482	-2.998100	3.512600	-10.530000	25.760869	0.000828	20.805511
1178.320343	-2.996400	3.511500	-10.521000	25.777442	0.000827	20.821684
1179.317073	-3.024900	3.511300	-10.620000	25.799754	0.000827	20.821811
1180.324172	-3.043600	3.508400	-10.676000	25.810635	0.000826	20.805240
1181.323612	-2.993400	3.509800	-10.505000	25.836774	0.000827	20.792143
1182.319942	-3.018300	3.509600	-10.592000	25.847905	0.000827	20.802850
1183.322579	-3.002700	3.509600	-10.537000	25.806068	0.000825	20.788325
1184.321829	-2.994400	3.510500	-10.510000	25.761875	0.000824	20.783288
1185.323826	-2.995700	3.508600	-10.509000	25.725801	0.000824	20.789253
1186.322722	-2.989200	3.510100	-10.491000	25.727692	0.000822	20.792575
1187.323765	-2.987900	3.508900	-10.481000	25.726377	0.000823	20.797418
1188.321492	-2.965500	3.509400	-10.406000	25.729286	0.000821	20.807452
1189.323040	-3.000800	3.506500	-10.520000	25.719847	0.000821	20.801765
1190.326760	-3.005000	3.506900	-10.537000	25.768397	0.000823	20.803589
1191.322788	-3.005000	3.505600	-10.533000	25.791032	0.000821	20.785075
1192.326134	-3.000100	3.506000	-10.518000	25.801046	0.000820	20.801298
1193.325690	-3.005300	3.506700	-10.538000	25.793422	0.000818	20.803123
1194.330130	-3.002600	3.505700	-10.524000	25.798941	0.000819	20.782587
1195.326419	-2.999700	3.505100	-10.513000	25.788010	0.000823	20.786780
1196.324902	-2.970500	3.505200	-10.411000	25.758249	0.000819	20.798138
1197.325377	-2.976000	3.505100	-10.430000	25.728636	0.000819	20.799213
1198.331380	-3.013500	3.503700	-10.557000	25.700037	0.000818	20.796092
1199.324995	-3.002900	3.503200	-10.519000	25.720089	0.000817	20.779723
1200.325914	-3.001700	3.503300	-10.515000	25.719592	0.000818	20.800561
1201.328286	-3.000300	3.503300	-10.511000	25.750476	0.000818	20.775157
1202.327144	-3.010200	3.501300	-10.539000	25.793432	0.000819	20.785115
1203.329797	-3.003500	3.502000	-10.518000	25.766328	0.000817	20.777330
1204.330687	-2.999500	3.502000	-10.502000	25.788265	0.000814	20.782295
1205.330163	-3.016300	3.501300	-10.560000	25.797013	0.000815	20.801040
1206.325917	-3.006000	3.500200	-10.521000	25.829506	0.000814	20.781997
1207.332891	-3.017400	3.500100	-10.561000	25.844536	0.000814	20.787138
1208.326535	-3.010700	3.499900	-10.537000	25.827171	0.000813	20.783444
1209.330578	-2.992300	3.500600	-10.474000	25.786997	0.000813	20.772012
1210.327981	-3.005600	3.499000	-10.516000	25.756813	0.000811	20.770143
1211.326609	-2.997600	3.499300	-10.487000	25.717284	0.000812	20.783069
1212.327299	-3.007100	3.497000	-10.514000	25.700537	0.000810	20.775731
1213.329904	-2.989500	3.499000	-10.458000	25.711197	0.000810	20.771265
1214.330295	-2.993100	3.498800	-10.471000	25.758178	0.000809	20.771513
1215.329331	-3.000600	3.498700	-10.497000	25.772588	0.000808	20.792627
1216.335700	-3.021800	3.496800	-10.565000	25.789631	0.000806	20.769443
1217.329498	-3.015700	3.497700	-10.547000	25.830648	0.000807	20.780773
1218.328900	-2.981800	3.497800	-10.429000	25.826002	0.000805	20.772787
1219.330023	-3.014300	3.496400	-10.538000	25.862374	0.000806	20.761908
1220.330703	-2.999900	3.495500	-10.485000	25.865628	0.000805	20.794101
1221.329980	-3.007500	3.496800	-10.515000	25.864909	0.000805	20.770145
1222.332889	-3.002200	3.495700	-10.494000	25.882376	0.000802	20.773941
1223.330681	-2.977600	3.495300	-10.407000	25.877928	0.000802	20.796025
1224.330103	-3.005600	3.494000	-10.501000	25.902723	0.000802	20.778261
1225.333896	-2.983600	3.494600	-10.426000	25.930170	0.000802	20.800144
1226.332252	-2.988000	3.495200	-10.443000	25.959360	0.000801	20.771148
1227.331578	-3.010000	3.494300	-10.516000	25.968974	0.000800	20.786024
1228.330169	-2.981800	3.492500	-10.413000	25.988945	0.000801	20.775267
1229.333944	-2.970200	3.494100	-10.377000	25.988302	0.000798	20.781260
1230.330954	-2.984600	3.493700	-10.426000	25.987556	0.000800	20.760595
1231.331089	-3.020800	3.490200	-10.542000	26.034332	0.000801	20.782935
1232.333286	-2.993900	3.491000	-10.451000	26.031325	0.000800	20.771379
1233.331054	-3.000800	3.492000	-10.477000	26.047047	0.000799	20.770580
1234.331570	-3.016500	3.489800	-10.526000	26.066250	0.000799	20.766640
1235.330433	-3.016600	3.490300	-10.527000	26.048863	0.000798	20.770508
1236.333239	-2.989600	3.490600	-10.435000	26.046800	0.000797	20.759900
1237.331151	-3.015000	3.488800	-10.519000	26.012623	0.000799	20.762546
1238.332636	-2.985200	3.490400	-10.418000	25.977354	0.000797	20.790174
1239.337227	-3.010500	3.487700	-10.498000	25.966348	0.000796	20.762996
1240.334490	-3.006800	3.488000	-10.487000	25.977527	0.000796	20.755734
1241.340719	-3.012500	3.486800	-10.503000	25.940911	0.000794	20.770158
1242.334241	-2.992900	3.486600	-10.434000	25.908447	0.000796	20.768837
1243.334787	-2.997100	3.488300	-10.453000	25.868871	0.000794	20.761323
1244.332928	-3.010700	3.486000	-10.494000	25.849445	0.000793	20.769309
1245.337047	-3.012700	3.484400	-10.496000	25.847359	0.000793	20.768636
1246.333004	-3.006900	3.485600	-10.481000	25.875553	0.000792	20.758078
1247.338521	-3.028900	3.483500	-10.550000	25.887976	0.000792	20.758229
1248.337322	-2.987100	3.485700	-10.411000	25.918257	0.000792	20.744079
1249.336754	-3.012600	3.484700	-10.496000	25.901663	0.000793	20.771980
1250.337172	-3.000700	3.483800	-10.451000	25.894907	0.000789	20.738639
1251.338598	-3.014300	3.483000	-10.497000	25.876771	0.000791	20.750767
1252.335076	-3.009400	3.482900	-10.480000	25.859008	0.000792	20.768485
1253.340522	-3.007400	3.481300	-10.469000	25.839456	0.000791	20.768284
1254.342937	-3.007100	3.483200	-10.474000	25.811634	0.000789	20.749818
1255.335926	-2.981700	3.483400	-10.385000	25.808925	0.000787	20.772228
1256.343589	-2.984500	3.481400	-10.389000	25.815161	0.000788	20.770905
1257.342228	-2.988900	3.481300	-10.404000	25.836824	0.000790	20.767062
1258.338500	-2.994200	3.480700	-10.422000	25.879850	0.000786	20.761447
1259.344938	-3.009500	3.481000	-10.475000	25.895154	0.000785	20.758329
1260.344091	-3.004600	3.480700	-10.457000	25.888445	0.000786	20.764391
1261.342800	-2.996600	3.481200	-10.430000	25.898206	0.000786	20.768033
1262.342500	-3.029100	3.480600	-10.542000	25.864549	0.000784	20.746549
1263.342947	-2.996400	3.478800	-10.423000	25.847431	0.000783	20.757328
1264.338716	-3.016200	3.478700	-10.492000	25.787259	0.000784	20.759473
1265.342023	-3.011700	3.478700	-10.475000	25.791806	0.000782	20.763567
1266.342326	-3.004000	3.479600	-10.452000	25.791211	0.000780	20.765339
1267.341805	-2.989600	3.478900	-10.399000	25.849069	0.000781	20.767509
1268.346485	-2.985900	3.477500	-10.382000	25.870556	0.000779	20.751635
1269.343503	-3.023600	3.477000	-10.513000	25.912862	0.000780	20.762368
1270.343180	-2.993700	3.476800	-10.407000	25.941156	0.000778	20.753334
1271.343449	-3.024400	3.476100	-10.511000	25.946026	0.000777	20.749217
1272.349701	-2.991100	3.475900	-10.395000	25.969301	0.000776	20.755531
1273.345374	-3.004600	3.474500	-10.438000	25.982466	0.000779	20.744101
1274.349643	-2.994300	3.475000	-10.404000	26.011430	0.000778	20.745226
1275.346505	-2.992900	3.474900	-10.400000	26.029909	0.000777	20.756680
1276.343497	-3.003500	3.473800	-10.432000	25.999384	0.000776	20.735494
1277.349318	-2.989700	3.474100	-10.386000	25.971614	0.000776	20.760699
1278.345532	-3.012100	3.474200	-10.464000	25.985004	0.000776	20.748073
1279.341044	-3.004800	3.473200	-10.434000	26.006765	0.000772	20.753815
1280.346717	-2.985700	3.473300	-10.369000	26.043872	0.000774	20.757907
1281.345054	-2.996200	3.472700	-10.403000	26.072137	0.000773	20.773030
1282.345592	-3.007600	3.471800	-10.441000	26.080335	0.000774	20.735747
1283.347258	-3.003800	3.471200	-10.426000	26.101176	0.000772	20.734876
1284.345789	-3.024000	3.470000	-10.492000	26.113719	0.000774	20.736574
1285.344821	-2.983900	3.470800	-10.356000	26.096207	0.000773	20.741738
1286.347441	-2.978600	3.469800	-10.334000	26.080415	0.000773	20.751949
1287.346161	-2.984800	3.470200	-10.356000	26.079120	0.000773	20.752544
1288.346148	-3.000500	3.469800	-10.410000	26.096704	0.000773	20.745082
1289.345119	-3.011500	3.468100	-10.444000	26.148685	0.000774	20.742311
1290.345821	-2.999500	3.468500	-10.403000	26.124074	0.000771	20.765945
1291.346056	-3.001900	3.468600	-10.412000	26.139322	0.000771	20.723418
1292.345387	-3.015700	3.467300	-10.456000	26.165744	0.000771	20.738590
1293.345028	-2.988900	3.466900	-10.361000	26.142151	0.000768	20.749021
1294.350385	-3.005800	3.466300	-10.418000	26.087263	0.000769	20.728957
1295.346284	-3.005300	3.466400	-10.417000	26.060362	0.000768	20.750292
1296.347055	-2.985100	3.466200	-10.346000	26.050597	0.000771	20.752810
1297.353191	-2.967000	3.467800	-10.286000	26.043170	0.000767	20.765736
1298.347279	-2.991200	3.465600	-10.366000	26.056557	0.000766	20.735089
1299.349364	-2.997100	3.465800	-10.385000	26.080671	0.000767	20.728023
1300.345702	-2.995800	3.464200	-10.377000	26.072449	0.000766	20.746789
1301.350759	-2.993500	3.465000	-10.371000	26.061894	0.000765	20.743771
1302.346377	-2.996500	3.464300	-10.380000	26.075678	0.000766	20.733438
1303.351239	-2.989300	3.462400	-10.349000	26.129098	0.000766	20.744441
1304.347095	-3.012500	3.461800	-10.427000	26.120901	0.000765	20.743790
1305.349926	-2.975500	3.464400	-10.308000	26.114368	0.000764	20.764254
1306.349065	-2.991300	3.462900	-10.357000	26.123008	0.000764	20.737847
1307.346847	-2.995600	3.462400	-10.371000	26.133066	0.000765	20.743212
1308.348736	-2.988800	3.460800	-10.342000	26.116001	0.000763	20.723219
1309.347120	-2.997800	3.461000	-10.374000	26.087490	0.000762	20.727762
1310.348676	-3.007900	3.460000	-10.405000	26.091685	0.000762	20.730555
1311.348510	-2.996600	3.459600	-10.366000	26.110235	0.000762	20.743505
1312.346670	-2.985200	3.460200	-10.329000	26.113511	0.000761	20.723088
1313.351266	-3.006900	3.461000	-10.405000	26.144109	0.000762	20.732971
1314.348063	-2.996500	3.459400	-10.365000	26.140530	0.000759	20.736486
1315.347713	-3.000200	3.457900	-10.373000	26.147259	0.000759	20.728075
1316.347872	-2.992300	3.458400	-10.348000	26.151704	0.000763	20.735861
1317.349335	-2.996500	3.456300	-10.355000	26.156719	0.000761	20.738055
1318.348217	-2.988300	3.458000	-10.332000	26.178025	0.000758	20.722954
1319.348584	-2.991300	3.456700	-10.339000	26.176708	0.000760	20.726372
1320.350949	-2.989300	3.457000	-10.332000	26.170003	0.000758	20.734808
1321.350885	-2.998700	3.455700	-10.362000	26.123954	0.000756	20.719356
1322.348780	-3.006000	3.455300	-10.385000	26.104557	0.000756	20.740170
1323.353966	-2.997700	3.454500	-10.355000	26.056593	0.000756	20.719952
1324.351235	-3.019000	3.454100	-10.428000	26.080757	0.000756	20.750396
1325.350799	-2.993300	3.453700	-10.337000	26.085350	0.000755	20.735570
1326.351513	-2.993300	3.453500	-10.337000	26.101370	0.000756	20.738391
1327.351198	-2.992800	3.453900	-10.336000	26.098586	0.000754	20.728480
1328.349384	-3.007900	3.451700	-10.381000	26.133728	0.000755	20.746248
1329.353310	-3.004000	3.453700	-10.374000	26.134469	0.000754	20.743199
1330.347180	-3.006500	3.452400	-10.379000	26.111668	0.000753	20.743996
1331.348975	-3.020400	3.451000	-10.421000	26.118371	0.000753	20.733187
1332.350143	-2.992200	3.452000	-10.328000	26.109852	0.000754	20.730317
1333.348886	-2.988100	3.452100	-10.314000	26.072197	0.000752	20.746536
1334.349413	-3.019400	3.450800	-10.418000	26.052275	0.000751	20.745012
1335.351949	-2.999300	3.450400	-10.348000	26.053342	0.000749	20.734704
1336.354007	-3.039800	3.449100	-10.482000	26.069607	0.000750	20.728761
1337.348817	-3.018700	3.447800	-10.406000	26.043773	0.000749	20.744530
1338.352240	-2.988300	3.450500	-10.311000	26.034804	0.000749	20.720819
1339.349622	-3.019800	3.449000	-10.414000	26.038229	0.000748	20.736589
1340.348699	-3.023800	3.446900	-10.422000	26.062741	0.000748	20.722810
1341.352399	-2.992000	3.448100	-10.315000	26.076276	0.000747	20.729297
1342.349743	-3.019500	3.445700	-10.402000	26.090979	0.000746	20.738856
1343.350002	-3.005100	3.446700	-10.357000	26.124926	0.000744	20.728868
1344.355592	-3.015100	3.444600	-10.385000	26.157634	0.000745	20.743243
1345.352107	-3.001200	3.446400	-10.342000	26.185321	0.000744	20.753521
1346.351693	-2.975800	3.445500	-10.252000	26.173997	0.000742	20.737873
1347.355131	-3.008900	3.443200	-10.358000	26.179780	0.000741	20.762652
1348.353438	-3.008400	3.443800	-10.360000	26.165671	0.000743	20.742784
1349.353654	-2.993300	3.445200	-10.311000	26.164826	0.000741	20.732451
1350.357630	-3.015900	3.444300	-10.386000	26.137730	0.000741	20.735569
1351.353059	-2.995400	3.443900	-10.314000	26.115301	0.000741	20.728680
1352.354981	-3.005900	3.442100	-10.346000	26.103378	0.000738	20.738037
1353.353911	-3.021500	3.442100	-10.399000	26.113135	0.000736	20.754005
1354.354011	-2.991600	3.442400	-10.298000	26.135711	0.000739	20.744922
1355.353745	-2.991100	3.442300	-10.295000	26.125703	0.000737	20.752409
1356.356121	-2.985200	3.442300	-10.275000	26.119791	0.000738	20.758323
1357.356827	-2.997700	3.439800	-10.311000	26.103149	0.000735	20.742074
1358.352630	-2.991500	3.441600	-10.294000	26.119618	0.000736	20.739656
1359.354505	-2.988200	3.440100	-10.278000	26.112589	0.000735	20.751086
1360.354589	-2.982100	3.439700	-10.256000	26.132208	0.000734	20.737134
1361.352860	-3.030100	3.439100	-10.419000	26.140304	0.000734	20.753330
1362.353291	-3.002800	3.438300	-10.323000	26.138716	0.000734	20.768804
1363.354450	-2.998700	3.438500	-10.310000	26.121580	0.000734	20.745421
1364.353435	-3.013600	3.437600	-10.359000	26.115420	0.000731	20.751560
1365.353991	-3.016300	3.437600	-10.368000	26.138765	0.000731	20.743723
1366.357028	-2.971400	3.437800	-10.214000	26.144803	0.000733	20.763067
1367.353710	-2.996400	3.437800	-10.300000	26.147535	0.000730	20.756803
1368.356054	-3.031100	3.435700	-10.412000	26.167878	0.000730	20.744053
1369.355509	-3.021800	3.435800	-10.382000	26.176394	0.000729	20.744549
1370.357102	-2.972500	3.436100	-10.213000	26.190053	0.000728	20.753534
1371.354677	-2.998300	3.434800	-10.298000	26.145774	0.000729	20.749343
1372.357372	-2.976200	3.435500	-10.224000	26.127595	0.000726	20.743879
1373.359475	-3.006600	3.434900	-10.327000	26.078595	0.000727	20.740636
1374.360930	-2.970900	3.435200	-10.205000	26.089325	0.000725	20.742409
1375.358380	-2.998900	3.435100	-10.300000	26.140961	0.000725	20.738816
1376.363287	-2.986100	3.433600	-10.252000	26.162123	0.000725	20.747754
1377.361070	-2.977800	3.434000	-10.225000	26.191750	0.000727	20.760455
1378.356830	-3.004500	3.432300	-10.310000	26.210552	0.000724	20.736200
1379.357453	-2.994800	3.432300	-10.278000	26.177522	0.000726	20.762753
1380.358877	-2.994600	3.431100	-10.273000	26.126018	0.000723	20.754149
1381.359714	-2.991900	3.430300	-10.261000	26.120852	0.000724	20.752751
1382.361285	-2.990800	3.431200	-10.261000	26.112089	0.000723	20.759118
1383.364619	-2.995000	3.430900	-10.274000	26.129227	0.000723	20.745045
1384.360106	-2.979500	3.430400	-10.219000	26.167724	0.000720	20.768555
1385.362218	-2.967500	3.431600	-10.182000	26.196186	0.000722	20.760171
1386.364686	-2.992700	3.429200	-10.262000	26.209625	0.000721	20.767512
1387.360961	-3.008600	3.426900	-10.308000	26.215784	0.000719	20.746673
1388.367358	-2.980400	3.430500	-10.223000	26.184720	0.000719	20.764771
1389.362892	-2.998300	3.427000	-10.275000	26.173546	0.000719	20.743110
1390.362019	-2.969700	3.428600	-10.180000	26.170122	0.000719	20.761481
1391.362665	-2.990700	3.427400	-10.250000	26.177351	0.000718	20.756417
1392.364284	-2.999000	3.425900	-10.273000	26.165655	0.000717	20.753674
1393.364595	-3.007100	3.426000	-10.302000	26.132999	0.000717	20.750257
1394.366146	-3.022300	3.424400	-10.347000	26.124656	0.000716	20.763211
1395.368530	-3.013000	3.425600	-10.321000	26.144576	0.000718	20.734389
1396.366592	-3.005600	3.424400	-10.291000	26.167577	0.000716	20.736638
1397.368260	-2.983100	3.424500	-10.215000	26.151832	0.000714	20.726506
1398.373663	-3.012900	3.424400	-10.317000	26.203095	0.000716	20.748621
1399.369479	-2.995900	3.424600	-10.259000	26.211242	0.000714	20.749222
1400.370839	-3.010900	3.422300	-10.303000	26.232179	0.000716	20.749398
1401.368036	-3.001400	3.422900	-10.271000	26.249069	0.000711	20.750724
1402.368956	-3.012900	3.422200	-10.308000	26.254088	0.000714	20.742966
1403.371594	-2.989100	3.423800	-10.232000	26.240904	0.000712	20.763383
1404.371126	-2.994800	3.423300	-10.251000	26.279495	0.000715	20.746213
1405.370473	-2.990200	3.422100	-10.231000	26.305768	0.000713	20.740848
1406.373261	-2.980900	3.421200	-10.197000	26.332118	0.000711	20.751208
1407.370550	-2.987800	3.422300	-10.223000	26.344537	0.000713	20.755630
1408.370898	-3.003100	3.420100	-10.269000	26.332916	0.000711	20.749639
1409.372797	-2.986500	3.419800	-10.212000	26.279530	0.000712	20.759999
1410.370706	-2.974800	3.421500	-10.176000	26.260086	0.000711	20.748519
1411.371346	-2.989200	3.419500	-10.221000	26.243701	0.000708	20.745804
1412.371128	-3.000500	3.419400	-10.259000	26.262873	0.000709	20.750846
1413.374241	-2.998200	3.418300	-10.247000	26.275143	0.000709	20.750848
1414.372475	-2.986000	3.419300	-10.209000	26.246910	0.000708	20.769892
1415.372570	-2.951000	3.419400	-10.090000	26.247856	0.000707	20.764204
1416.373009	-3.003000	3.418000	-10.263000	26.252626	0.000706	20.737229
1417.372813	-3.001000	3.417600	-10.255000	26.279451	0.000707	20.763713
1418.373619	-3.004600	3.416700	-10.264000	26.241480	0.000706	20.775815
1419.373882	-3.013100	3.417300	-10.295000	26.230035	0.000706	20.764314
1420.373477	-3.015700	3.416600	-10.302000	26.255665	0.000706	20.743128
1421.372860	-3.021600	3.414900	-10.317000	26.220082	0.000704	20.770908
1422.377444	-3.006200	3.414100	-10.261000	26.179033	0.000704	20.750995
1423.374362	-2.992200	3.414800	-10.217000	26.114811	0.000703	20.764225
1424.378375	-3.016800	3.415200	-10.302000	26.091493	0.000702	20.764977
1425.377391	-2.981100	3.415000	-10.179000	26.119137	0.000705	20.781848
1426.376174	-3.014000	3.412400	-10.284000	26.123387	0.000704	20.772842
1427.377788	-2.988400	3.414000	-10.201000	26.120682	0.000702	20.767279
1428.374180	-3.002800	3.412000	-10.245000	26.129176	0.000703	20.760640
1429.374862	-3.029900	3.410600	-10.333000	26.089791	0.000704	20.764690
1430.379603	-2.983200	3.412200	-10.179000	26.107298	0.000701	20.763788
1431.376606	-3.000000	3.412500	-10.237000	26.112566	0.000701	20.768607
1432.377788	-3.009400	3.410300	-10.262000	26.140459	0.000699	20.755857
1433.377531	-2.990900	3.412100	-10.204000	26.173342	0.000700	20.760924
1434.377982	-3.021500	3.410100	-10.302000	26.163929	0.000698	20.748146
1435.376067	-3.010100	3.410100	-10.263000	26.146569	0.000697	20.762944
1436.375744	-3.002700	3.408500	-10.234000	26.107954	0.000699	20.750222
1437.376029	-2.998700	3.409200	-10.222000	26.089920	0.000697	20.776673
1438.377171	-3.001900	3.408300	-10.230000	26.055995	0.000696	20.744956
1439.378619	-2.990000	3.408500	-10.190000	26.032972	0.000696	20.764499
1440.376790	-3.004600	3.407300	-10.236000	26.003336	0.000697	20.786881
1441.381309	-3.005700	3.408100	-10.241000	26.010692	0.000695	20.762977
1442.379836	-3.004400	3.406300	-10.232000	26.021596	0.000694	20.770613
1443.381236	-3.021700	3.406300	-10.291000	26.026963	0.000695	20.752771
1444.381818	-3.037100	3.404800	-10.339000	26.057317	0.000694	20.787063
1445.381065	-3.005600	3.406400	-10.238000	26.106598	0.000695	20.783947
1446.380054	-3.009200	3.405700	-10.247000	26.149613	0.000694	20.778332
1447.384336	-2.986800	3.406100	-10.172000	26.194564	0.000693	20.789362
1448.379122	-3.016800	3.405200	-10.272000	26.208451	0.000693	20.763961
1449.381923	-2.987100	3.404800	-10.169000	26.234797	0.000692	20.789963
1450.384762	-2.983200	3.404400	-10.155000	26.269271	0.000691	20.784303
1451.381270	-3.013200	3.402800	-10.253000	26.285387	0.000691	20.773471
1452.381200	-3.002700	3.402600	-10.216000	26.320553	0.000689	20.787001
1453.386393	-3.003400	3.401400	-10.215000	26.350150	0.000688	20.778814
1454.383384	-2.996000	3.402900	-10.193000	26.322467	0.000688	20.784658
1455.381063	-2.998400	3.403400	-10.204000	26.347425	0.000688	20.775128
1456.384431	-3.007500	3.402300	-10.231000	26.347722	0.000689	20.752666
1457.382505	-3.008700	3.401200	-10.232000	26.346062	0.000685	20.783715
1458.385157	-3.007100	3.401000	-10.226000	26.330891	0.000687	20.779847
1459.385470	-2.981800	3.400300	-10.138000	26.319644	0.000688	20.772812
1460.385704	-3.011800	3.400200	-10.240000	26.291808	0.000686	20.785614
1461.387349	-3.011600	3.399600	-10.237000	26.260670	0.000687	20.753848
1462.386959	-3.003400	3.399500	-10.209000	26.258536	0.000686	20.785369
1463.384890	-2.991800	3.399400	-10.169000	26.288782	0.000684	20.789212
1464.388674	-3.033100	3.396500	-10.301000	26.251165	0.000684	20.763262
1465.386719	-3.008600	3.398200	-10.223000	26.249055	0.000685	20.788169
1466.386785	-3.013000	3.396900	-10.233000	26.255140	0.000682	20.771998
1467.387951	-2.985300	3.397100	-10.140000	26.285783	0.000683	20.778138
1468.390056	-2.989500	3.396600	-10.153000	26.281940	0.000682	20.787552
1469.388750	-2.999600	3.396800	-10.187000	26.283378	0.000681	20.779987
1470.388296	-2.997400	3.394800	-10.175000	26.305279	0.000682	20.784928
1471.394005	-3.019200	3.395000	-10.249000	26.326833	0.000683	20.792839
1472.393745	-3.004300	3.395400	-10.199000	26.336192	0.000681	20.770002
1473.389513	-3.033700	3.394500	-10.297000	26.340290	0.000680	20.785975
1474.393445	-2.991700	3.395400	-10.157000	26.336938	0.000681	20.792564
1475.391551	-3.004000	3.395100	-10.198000	26.323405	0.000681	20.784652
1476.391968	-2.978800	3.394400	-10.110000	26.351339	0.000681	20.791389
1477.396059	-3.007900	3.392600	-10.203000	26.375795	0.000682	20.789416
1478.393847	-2.999700	3.394000	-10.180000	26.412022	0.000678	20.805912
1479.399958	-3.017500	3.392200	-10.235000	26.414132	0.000679	20.779582
1480.398300	-3.001000	3.393400	-10.182000	26.368592	0.000679	20.782651
1481.397173	-2.997800	3.392500	-10.169000	26.298095	0.000680	20.809476
1482.395302	-2.992800	3.393100	-10.154000	26.240211	0.000677	20.798248
1483.397564	-3.013100	3.392200	-10.220000	26.186890	0.000677	20.810099
1484.394971	-3.008500	3.390400	-10.199000	26.160734	0.000677	20.788084
1485.398120	-3.006600	3.391800	-10.196000	26.123206	0.000675	20.785937
1486.396076	-2.971200	3.391800	-10.076000	26.099908	0.000674	20.793347
1487.397878	-3.012900	3.389900	-10.213000	26.083987	0.000672	20.795368
1488.396859	-2.998400	3.390900	-10.166000	26.041315	0.000674	20.793744
1489.395721	-2.994500	3.388800	-10.147000	26.080558	0.000672	20.803302
1490.394517	-2.966700	3.389000	-10.053000	26.102836	0.000671	20.803401
1491.397022	-2.980900	3.390100	-10.103000	26.125385	0.000673	20.804721
1492.397560	-3.005700	3.387800	-10.182000	26.169670	0.000673	20.804650
1493.392612	-3.005500	3.387500	-10.180000	26.199496	0.000670	20.812335
1494.394508	-2.988200	3.387800	-10.123000	26.243026	0.000670	20.811508
1495.400270	-2.993600	3.387400	-10.139000	26.236769	0.000671	20.794789
1496.400592	-2.979800	3.386300	-10.090000	26.217698	0.000671	20.800755
1497.397519	-2.971000	3.385500	-10.056000	26.248096	0.000670	20.811861
1498.398442	-3.000300	3.386700	-10.160000	26.275983	0.000666	20.809540
1499.396645	-2.997500	3.386100	-10.148000	26.278666	0.000669	20.809865
1500.397361	-2.988200	3.386200	-10.118000	26.270894	0.000667	20.830978
1501.402225	-2.999500	3.383900	-10.148000	26.309213	0.000666	20.812589
1502.399251	-3.012600	3.383400	-10.191000	26.303452	0.000665	20.825766
1503.400086	-2.973200	3.385500	-10.065000	26.281378	0.000664	20.807376
1504.398278	-2.986200	3.383200	-10.102000	26.232261	0.000664	20.816338
1505.402938	-3.008400	3.382500	-10.174000	26.227518	0.000664	20.834804
1506.399879	-2.988800	3.383100	-10.110000	26.263180	0.000663	20.809950
1507.401029	-3.006400	3.381900	-10.166000	26.270235	0.000663	20.834584
1508.403819	-2.995300	3.381900	-10.129000	26.267901	0.000661	20.811375
1509.400101	-2.987900	3.382400	-10.106000	26.215360	0.000663	20.814526
1510.401422	-3.008400	3.379300	-10.166000	26.216457	0.000663	20.809939
1511.406933	-3.003100	3.379800	-10.149000	26.225373	0.000663	20.832174
1512.402874	-2.968300	3.380400	-10.033000	26.217949	0.000663	20.823766
1513.403655	-3.008200	3.379600	-10.165000	26.216065	0.000661	20.826614
1514.404578	-3.007600	3.379700	-10.164000	26.223367	0.000659	20.834426
1515.404282	-3.011300	3.378100	-10.171000	26.191553	0.000661	20.850345
1516.405044	-3.019300	3.378700	-10.200000	26.198340	0.000661	20.833458
1517.407089	-3.015300	3.378500	-10.187000	26.215250	0.000659	20.826743
1518.407457	-3.006800	3.377200	-10.153000	26.233728	0.000661	20.827295
1519.409975	-3.011800	3.376600	-10.169000	26.241478	0.000659	20.835082
1520.409252	-2.992100	3.379400	-10.110000	26.242243	0.000657	20.844860
1521.413967	-2.992000	3.376300	-10.101000	26.253101	0.000659	20.835857
1522.410724	-2.975300	3.377700	-10.049000	26.260151	0.000656	20.820657
1523.408244	-3.007200	3.375700	-10.150000	26.238570	0.000657	20.810824
1524.411292	-2.980700	3.375500	-10.060000	26.217960	0.000653	20.837527
1525.412170	-3.001400	3.375600	-10.129000	26.229951	0.000655	20.830611
1526.412930	-2.992600	3.374800	-10.098000	26.224514	0.000653	20.816138
1527.412554	-2.995200	3.375500	-10.109000	26.251013	0.000652	20.835655
1528.408884	-2.962700	3.374300	-9.996200	26.295537	0.000654	20.830139
1529.413714	-3.007300	3.373200	-10.144000	26.321314	0.000653	20.842293
1530.409121	-2.987400	3.373900	-10.079000	26.360794	0.000652	20.847357
1531.410895	-2.989400	3.373800	-10.085000	26.374774	0.000651	20.842916
1532.412467	-2.989500	3.372200	-10.080000	26.403305	0.000652	20.825125
1533.410958	-3.001800	3.372200	-10.121000	26.428879	0.000647	20.857940
1534.411809	-2.989000	3.372400	-10.079000	26.448465	0.000649	20.861030
1535.415757	-2.990500	3.371900	-10.082000	26.442310	0.000649	20.845361
1536.411183	-2.981300	3.372100	-10.052000	26.390515	0.000648	20.856840
1537.410220	-2.987200	3.371500	-10.071000	26.375073	0.000649	20.847484
1538.414382	-3.001300	3.370300	-10.113000	26.309121	0.000647	20.845687
1539.411917	-3.003000	3.369900	-10.118000	26.275321	0.000647	20.838746
1540.411988	-3.006300	3.369300	-10.128000	26.272866	0.000647	20.841020
1541.423110	-2.980500	3.369400	-10.042000	26.247582	0.000646	20.850698
1542.413783	-2.980000	3.369000	-10.039000	26.239807	0.000646	20.865170
1543.414321	-2.996700	3.369500	-10.098000	26.262110	0.000644	20.845384
1544.416661	-3.006000	3.367300	-10.120000	26.303232	0.000646	20.842139
1545.414904	-3.010900	3.367200	-10.137000	26.356890	0.000644	20.854814
1546.416123	-2.989000	3.367600	-10.065000	26.419460	0.000646	20.841362
1547.416234	-2.991400	3.366800	-10.070000	26.450621	0.000644	20.841861
1548.414883	-2.996500	3.366900	-10.088000	26.479100	0.000644	20.863373
1549.416385	-3.004100	3.366100	-10.110000	26.511471	0.000644	20.870306
1550.419710	-3.011400	3.366600	-10.137000	26.547022	0.000645	20.858626
1551.420962	-2.988900	3.366100	-10.060000	26.536691	0.000643	20.860096
1552.419422	-2.994100	3.364500	-10.072000	26.576141	0.000643	20.871301
1553.419208	-3.013500	3.364400	-10.138000	26.563427	0.000643	20.861841
1554.421871	-3.004400	3.365500	-10.110000	26.597984	0.000640	20.860068
1555.418601	-3.021100	3.363800	-10.162000	26.566082	0.000640	20.876836
1556.422580	-3.004200	3.364800	-10.107000	26.531173	0.000638	20.868299
1557.419266	-3.007200	3.364900	-10.118000	26.527523	0.000638	20.870320
1558.422260	-3.020700	3.362500	-10.156000	26.506022	0.000638	20.871941
1559.423585	-3.009800	3.362800	-10.120000	26.518185	0.000638	20.884640
1560.420625	-3.002500	3.362200	-10.094000	26.485560	0.000637	20.865124
1561.419477	-2.995000	3.361200	-10.065000	26.448912	0.000635	20.870014
1562.421007	-2.992000	3.363700	-10.064000	26.420034	0.000634	20.869912
1563.423089	-3.010500	3.360900	-10.117000	26.361211	0.000635	20.872906
1564.420029	-3.001000	3.361300	-10.085000	26.355174	0.000633	20.853089
1565.420637	-3.009000	3.360100	-10.109000	26.307325	0.000632	20.869485
1566.421217	-2.969100	3.362400	-9.982200	26.307100	0.000633	20.891543
1567.423371	-2.987900	3.360000	-10.039000	26.321227	0.000632	20.882507
1568.421902	-2.991000	3.360500	-10.049000	26.327786	0.000632	20.876771
1569.425111	-2.997700	3.360900	-10.074000	26.367638	0.000630	20.868934
1570.421782	-3.016600	3.358800	-10.131000	26.409354	0.000631	20.882884
1571.428789	-3.008900	3.358100	-10.103000	26.422761	0.000630	20.884505
1572.424759	-3.008400	3.357900	-10.101000	26.485428	0.000626	20.868785
1573.421254	-3.002500	3.358300	-10.081000	26.492581	0.000627	20.874077
1574.423218	-2.991800	3.357600	-10.044000	26.535707	0.000628	20.887554
1575.426941	-3.019700	3.357000	-10.136000	26.563337	0.000627	20.885456
1576.420914	-3.007000	3.356500	-10.092000	26.558250	0.000625	20.874653
1577.424785	-3.016500	3.356800	-10.124000	26.509245	0.000624	20.864275
1578.424057	-2.999600	3.356300	-10.067000	26.454373	0.000625	20.884985
1579.422108	-3.007400	3.354900	-10.087000	26.455690	0.000624	20.879670
1580.422007	-3.005400	3.354900	-10.082000	26.481887	0.000623	20.884191
1581.427574	-3.025900	3.354900	-10.151000	26.481887	0.000624	20.893199
1582.425896	-3.020200	3.354300	-10.130000	26.498351	0.000621	20.878454
1583.424908	-2.984400	3.356100	-10.014000	26.468234	0.000623	20.863831
1584.425827	-3.035100	3.353600	-10.176000	26.446263	0.000620	20.874937
1585.431362	-2.994300	3.353600	-10.041000	26.433605	0.000618	20.863164
1586.428215	-3.018000	3.351700	-10.114000	26.442417	0.000618	20.867753
1587.425674	-3.016600	3.352500	-10.112000	26.456375	0.000620	20.877040
1588.431167	-2.996900	3.352500	-10.046000	26.439071	0.000619	20.875295
1589.425292	-2.986100	3.352500	-10.010000	26.458292	0.000618	20.864269
1590.426868	-3.009200	3.350800	-10.083000	26.502585	0.000617	20.853788
1591.429578	-3.006000	3.350800	-10.071000	26.525628	0.000617	20.865570
1592.430100	-2.992400	3.351800	-10.028000	26.558403	0.000616	20.858687
1593.428890	-3.013100	3.350400	-10.094000	26.574791	0.000613	20.855721
1594.430794	-3.006600	3.349100	-10.069000	26.542472	0.000615	20.864484
1595.429777	-2.995600	3.349200	-10.032000	26.495797	0.000618	20.842224
1596.428212	-2.972500	3.349500	-9.954300	26.463130	0.000614	20.866286
1597.431634	-2.974100	3.347600	-9.954700	26.468494	0.000613	20.866937
1598.433900	-2.999100	3.349100	-10.043000	26.443846	0.000614	20.855439
1599.428957	-3.026400	3.346600	-10.127000	26.398434	0.000612	20.844884
1600.430903	-3.001500	3.347600	-10.047000	26.370827	0.000611	20.839898
1601.431550	-2.989000	3.348000	-10.006000	26.370533	0.000612	20.838654
1602.429431	-3.017100	3.347500	-10.097000	26.363684	0.000609	20.844099
1603.432455	-2.980700	3.347300	-9.976000	26.350079	0.000610	20.827581
1604.429271	-2.994100	3.346700	-10.019000	26.337124	0.000611	20.861975
1605.431382	-2.983700	3.345700	-9.980800	26.327669	0.000608	20.836353
1606.430730	-3.000700	3.344600	-10.035000	26.287794	0.000610	20.839426
1607.432823	-3.009500	3.344900	-10.066000	26.254124	0.000609	20.831195
1608.432228	-3.005600	3.345500	-10.054000	26.251025	0.000607	20.841356
1609.431081	-3.028200	3.343500	-10.123000	26.253337	0.000607	20.835146
1610.434182	-2.978900	3.345100	-9.962500	26.268817	0.000606	20.841693
1611.433662	-3.007700	3.344500	-10.058000	26.292285	0.000607	20.835879
1612.433675	-3.025200	3.342200	-10.110000	26.302124	0.000605	20.833440
1613.440025	-2.997300	3.342700	-10.019000	26.322368	0.000607	20.830551
1614.434114	-3.003400	3.341800	-10.036000	26.357832	0.000606	20.833002
1615.434877	-2.997400	3.341500	-10.014000	26.339287	0.000605	20.824796
1616.432855	-3.015300	3.341500	-10.074000	26.323598	0.000602	20.817562
1617.436131	-2.987000	3.343600	-9.986000	26.351066	0.000605	20.808184
1618.433177	-2.999700	3.340200	-10.019000	26.367806	0.000604	20.815051
1619.434778	-2.991200	3.342400	-9.996600	26.425738	0.000606	20.820645
1620.435852	-2.997800	3.341000	-10.014000	26.443445	0.000602	20.809045
1621.434470	-3.006100	3.341000	-10.042000	26.449164	0.000602	20.818112
1622.438334	-3.018400	3.340300	-10.081000	26.451399	0.000602	20.820359
1623.437039	-2.992100	3.340800	-9.994400	26.438418	0.000602	20.830071
1624.436643	-3.003400	3.338900	-10.027000	26.455953	0.000601	20.812608
1625.436819	-3.028800	3.337300	-10.107000	26.477952	0.000600	20.820495
1626.439063	-2.967600	3.339200	-9.908000	26.507377	0.000601	20.819726
1627.436755	-3.015200	3.337600	-10.063000	26.555343	0.000601	20.811042
1628.437160	-2.973900	3.338700	-9.927700	26.609840	0.000600	20.802287
1629.442723	-3.033200	3.337200	-10.121000	26.599515	0.000598	20.825573
1630.439410	-2.982600	3.337200	-9.952100	26.637079	0.000598	20.807385
1631.442297	-2.997700	3.337000	-10.002000	26.657634	0.000598	20.804816
1632.440434	-3.002000	3.336200	-10.014000	26.694028	0.000598	20.802523
1633.439703	-3.007300	3.335600	-10.030000	26.674795	0.000596	20.810214
1634.440646	-3.008700	3.334800	-10.032000	26.679687	0.000594	20.800908
1635.441385	-3.024000	3.333600	-10.080000	26.684333	0.000596	20.807474
1636.439005	-3.007700	3.333800	-10.026000	26.636674	0.000596	20.809823
1637.455717	-2.989500	3.334000	-9.965400	26.632035	0.000592	20.802314
1638.449167	-3.043800	3.331800	-10.141000	26.620446	0.000594	20.786872
1639.444931	-3.024000	3.334000	-10.081000	26.584876	0.000592	20.812755
1640.451522	-2.993700	3.334500	-9.981500	26.600294	0.000593	20.810235
1641.454224	-2.993700	3.333100	-9.976200	26.568549	0.000590	20.802506
1642.447649	-3.003600	3.331900	-10.007000	26.522871	0.000590	20.799739
1643.453142	-3.013300	3.331500	-10.038000	26.511257	0.000590	20.807979
1644.451998	-2.992700	3.332200	-9.971500	26.496513	0.000589	20.794107
1645.445973	-2.992200	3.331100	-9.964900	26.519560	0.000590	20.782185
1646.452385	-3.007200	3.331000	-10.015000	26.552113	0.000591	20.796416
1647.459534	-2.995100	3.330200	-9.972800	26.578380	0.000588	20.789629
1648.452559	-2.997600	3.330200	-9.981300	26.610482	0.000586	20.797718
1649.458706	-3.011000	3.329200	-10.023000	26.583254	0.000586	20.813020
1650.452447	-3.000600	3.329600	-9.990300	26.558532	0.000587	20.791014
1651.452191	-2.986200	3.329900	-9.942600	26.534432	0.000585	20.796187
1652.451962	-3.010100	3.330000	-10.021000	26.531827	0.000584	20.797361
1653.452912	-3.026800	3.328700	-10.075000	26.600154	0.000584	20.802034
1654.449675	-2.994200	3.329200	-9.967200	26.599344	0.000583	20.788891
1655.458514	-3.013000	3.326700	-10.022000	26.593437	0.000580	20.782479
1656.457290	-2.996300	3.328100	-9.971700	26.575667	0.000582	20.779315
1657.449768	-3.008100	3.326000	-10.004000	26.587015	0.000580	20.761799
1658.460604	-3.011800	3.326500	-10.018000	26.584068	0.000581	20.776855
1659.459678	-2.983200	3.326600	-9.922700	26.614638	0.000581	20.789567
1660.451520	-2.988700	3.326600	-9.941500	26.624740	0.000580	20.784550
1661.456826	-3.016500	3.324800	-10.028000	26.565864	0.000580	20.779892
1662.456804	-3.027300	3.324400	-10.063000	26.530542	0.000577	20.780422
1663.453052	-2.987100	3.324700	-9.929900	26.529429	0.000579	20.775510
1664.457265	-2.996100	3.323800	-9.957800	26.564489	0.000579	20.783252
1665.461049	-2.991200	3.324500	-9.943600	26.609500	0.000575	20.770177
1666.451996	-2.984600	3.324500	-9.921100	26.656352	0.000578	20.774129
1667.457739	-2.980900	3.325300	-9.911500	26.647119	0.000575	20.768166
1668.456979	-3.025300	3.322500	-10.050000	26.617411	0.000576	20.774811
1669.456220	-2.991900	3.323500	-9.943100	26.567191	0.000574	20.772217
1670.458939	-2.998800	3.322500	-9.962600	26.536910	0.000573	20.778763
1671.456869	-3.026000	3.321100	-10.049000	26.484056	0.000574	20.764990
1672.458114	-2.990700	3.322200	-9.933700	26.469686	0.000574	20.755287
1673.459308	-3.006000	3.321700	-9.984000	26.462412	0.000573	20.765995
1674.462697	-2.989300	3.320300	-9.924400	26.449235	0.000571	20.782148
1675.465807	-2.985400	3.319400	-9.908900	26.520595	0.000572	20.769950
1676.459427	-2.982800	3.320400	-9.902600	26.527350	0.000571	20.769153
1677.460215	-2.996300	3.319100	-9.943200	26.591033	0.000571	20.773898
1678.456722	-2.996600	3.319200	-9.945700	26.567550	0.000570	20.766888
1679.461002	-2.994200	3.319600	-9.938500	26.596283	0.000570	20.768271
1680.462777	-2.989500	3.319500	-9.922800	26.589036	0.000568	20.757666
1681.455647	-2.996000	3.317500	-9.938400	26.579880	0.000569	20.762687
1682.461027	-2.995200	3.317700	-9.934600	26.612355	0.000568	20.766409
1683.456320	-2.998900	3.317400	-9.948300	26.682068	0.000567	20.762998
1684.461451	-2.971700	3.316800	-9.854100	26.667869	0.000566	20.759155
1685.461884	-2.976000	3.316400	-9.867800	26.676535	0.000568	20.749374
1686.463022	-2.992300	3.316100	-9.920900	26.705481	0.000568	20.756663
1687.461053	-2.990100	3.316200	-9.913700	26.668696	0.000566	20.752399
1688.465013	-2.986000	3.315900	-9.900200	26.675123	0.000565	20.770715
1689.461274	-2.996900	3.315000	-9.934000	26.703351	0.000566	20.749780
1690.461393	-2.976600	3.314700	-9.865600	26.725866	0.000567	20.753450
1691.463583	-2.990000	3.315600	-9.912800	26.720801	0.000565	20.754996
1692.463334	-2.990200	3.313200	-9.907000	26.735693	0.000567	20.746260
1693.462081	-2.997600	3.313400	-9.931800	26.733905	0.000566	20.749204
1694.462545	-3.003300	3.312800	-9.948600	26.712583	0.000563	20.743889
1695.465021	-2.987500	3.312800	-9.896100	26.723430	0.000564	20.737250
1696.466100	-2.995400	3.311900	-9.919800	26.685028	0.000563	20.753645
1697.464959	-3.013500	3.310600	-9.975200	26.719851	0.000562	20.747403
1698.465106	-2.979400	3.312400	-9.867600	26.763863	0.000562	20.740916
1699.462925	-2.976800	3.312500	-9.859600	26.748595	0.000561	20.770612
1700.468340	-2.994000	3.311100	-9.912500	26.794313	0.000561	20.763472
1701.465723	-3.000700	3.310500	-9.931600	26.805131	0.000557	20.749218
1702.462216	-3.019900	3.308500	-9.990100	26.812057	0.000558	20.763295
1703.470380	-3.005900	3.308200	-9.943300	26.846852	0.000561	20.761770
1704.465044	-2.987200	3.309800	-9.885200	26.864004	0.000559	20.753412
1705.461681	-3.003600	3.309600	-9.940500	26.826004	0.000557	20.764042
1706.466704	-2.997200	3.309200	-9.916100	26.847749	0.000555	20.743705
1707.467618	-3.016400	3.308000	-9.976100	26.853281	0.000556	20.739785
1708.461955	-3.015600	3.307000	-9.971700	26.875297	0.000554	20.770931
1709.467557	-3.020500	3.306200	-9.985400	26.875395	0.000553	20.758228
1710.461726	-2.997900	3.307000	-9.913100	26.918901	0.000553	20.759774
1711.464014	-3.027100	3.305300	-10.003000	26.885646	0.000552	20.769958
1712.467012	-2.987100	3.305700	-9.873400	26.878647	0.000552	20.767662
1713.466769	-2.983600	3.306400	-9.864000	26.822485	0.000551	20.738691
1714.466589	-3.009500	3.304800	-9.944700	26.753213	0.000550	20.761030
1715.472738	-3.016300	3.303600	-9.962200	26.773890	0.000549	20.738669
1716.469482	-3.040200	3.303300	-10.042000	26.778236	0.000550	20.733082
1717.468995	-3.034500	3.303300	-10.023000	26.805366	0.000549	20.765577
1718.469838	-3.017000	3.303600	-9.966700	26.834654	0.000550	20.744288
1719.468636	-2.989900	3.303600	-9.876700	26.830810	0.000548	20.746114
1720.467838	-2.987300	3.303700	-9.867500	26.814654	0.000547	20.748835
1721.469756	-3.014400	3.303000	-9.955700	26.781498	0.000547	20.734465
1722.469525	-3.002400	3.302900	-9.915000	26.775990	0.000544	20.748842
1723.469263	-2.991000	3.303000	-9.878400	26.791907	0.000545	20.738767
1724.472354	-2.969100	3.302600	-9.804700	26.799453	0.000543	20.729758
1725.472173	-2.975900	3.301600	-9.824700	26.841476	0.000545	20.756364
1726.472336	-2.977600	3.301500	-9.829400	26.874510	0.000546	20.727465
1727.474073	-2.990900	3.302500	-9.876300	26.887745	0.000541	20.740773
1728.469058	-3.012800	3.300800	-9.943900	26.857892	0.000540	20.714548
1729.468680	-3.009000	3.299200	-9.926300	26.841264	0.000540	20.737185
1730.471833	-2.978000	3.300700	-9.828400	26.762713	0.000541	20.746873
1731.473084	-2.998800	3.300600	-9.897100	26.793543	0.000540	20.730454
1732.478626	-2.974100	3.298900	-9.810300	26.765222	0.000539	20.729955
1733.474375	-2.987500	3.300100	-9.857200	26.763888	0.000540	20.743787
1734.475675	-2.988900	3.297900	-9.856100	26.750486	0.000539	20.714190
1735.470298	-2.975200	3.299000	-9.814200	26.730161	0.000538	20.723627
1736.479252	-2.983300	3.296900	-9.834500	26.714228	0.000538	20.726575
1737.479653	-2.997100	3.297000	-9.880600	26.741384	0.000538	20.715945
1738.480897	-2.976400	3.298100	-9.815500	26.759108	0.000538	20.736610
1739.476130	-2.997400	3.296000	-9.878400	26.803192	0.000537	20.749165
1740.472770	-2.996600	3.297300	-9.879500	26.802921	0.000536	20.724710
1741.480545	-2.988800	3.295800	-9.848000	26.856135	0.000536	20.742180
1742.475486	-2.983100	3.295400	-9.830200	26.873583	0.000536	20.731274
1743.477939	-2.998600	3.295600	-9.881000	26.872964	0.000532	20.734445
1744.482617	-3.004700	3.294600	-9.898200	26.859412	0.000533	20.713704
1745.476160	-3.017800	3.293400	-9.936800	26.806676	0.000534	20.718053
1746.486142	-2.984400	3.294000	-9.829900	26.826729	0.000531	20.732052
1747.485539	-3.046000	3.292400	-10.027000	26.859640	0.000530	20.731953
1748.480823	-3.015300	3.292400	-9.926400	26.862543	0.000528	20.728234
1749.481092	-2.991800	3.293600	-9.852700	26.860485	0.000529	20.725216
1750.487026	-3.009000	3.292500	-9.906200	26.804515	0.000528	20.723942
1751.477415	-2.985900	3.293100	-9.831800	26.819511	0.000529	20.720527
1752.480788	-2.997900	3.292900	-9.871000	26.828643	0.000526	20.718329
1753.483942	-3.008500	3.290000	-9.896800	26.815319	0.000529	20.708725
1754.482317	-2.982600	3.292900	-9.818800	26.848357	0.000527	20.724876
1755.482034	-2.993100	3.290700	-9.848200	26.850198	0.000525	20.712975
1756.484998	-2.988000	3.290000	-9.828500	26.893187	0.000526	20.721114
1757.485402	-2.993400	3.289600	-9.845200	26.882764	0.000526	20.720590
1758.482840	-2.993500	3.289600	-9.846100	26.852066	0.000522	20.721018
1759.485604	-3.017600	3.287400	-9.919000	26.848199	0.000523	20.716181
1760.479849	-2.992100	3.286100	-9.831500	26.860709	0.000525	20.705051
1761.490093	-2.993900	3.288300	-9.843800	26.861234	0.000521	20.709372
1762.482788	-2.988900	3.286500	-9.822100	26.894964	0.000523	20.712468
1763.486792	-3.003200	3.286500	-9.868100	26.941874	0.000521	20.708905
1764.485698	-2.995400	3.286400	-9.843400	26.942149	0.000523	20.712026
1765.485493	-2.975600	3.287300	-9.780400	26.951456	0.000523	20.701470
1766.480366	-2.989300	3.285800	-9.821700	26.978977	0.000521	20.716817
1767.483609	-2.965100	3.286500	-9.744000	26.998709	0.000521	20.689243
1768.483487	-2.998500	3.285400	-9.849900	27.009082	0.000521	20.710582
1769.480216	-3.012100	3.285000	-9.893500	27.024564	0.000521	20.715246
1770.484460	-3.016400	3.283400	-9.902600	27.036577	0.000521	20.708360
1771.484958	-2.996100	3.284600	-9.840000	27.016922	0.000521	20.719415
1772.484586	-2.987400	3.283300	-9.807000	27.008804	0.000520	20.708880
1773.481860	-3.009700	3.283400	-9.881000	26.965475	0.000519	20.692333
1774.488230	-3.001400	3.282500	-9.850700	26.906562	0.000517	20.722709
1775.481798	-3.005000	3.283700	-9.867000	26.852601	0.000517	20.705908
1776.487537	-2.990300	3.283000	-9.816400	26.800379	0.000519	20.721680
1777.487371	-2.979000	3.282900	-9.778400	26.767093	0.000515	20.730887
1778.482374	-2.986300	3.282100	-9.800200	26.757506	0.000515	20.720774
1779.485286	-2.987900	3.282700	-9.806400	26.798489	0.000514	20.701760
1780.488240	-3.000800	3.280700	-9.842800	26.846809	0.000513	20.700083
1781.483850	-3.003800	3.280000	-9.851600	26.868156	0.000513	20.711117
1782.487449	-2.977500	3.280000	-9.764400	26.881285	0.000513	20.719104
1783.485579	-2.966500	3.280600	-9.730800	26.894756	0.000511	20.721269
1784.484784	-2.999400	3.279000	-9.833800	26.933180	0.000511	20.708696
1785.500443	-2.995700	3.278400	-9.820200	26.976236	0.000510	20.699835
1786.488116	-2.980600	3.278300	-9.769000	26.997327	0.000510	20.742384
1787.485463	-3.004300	3.277700	-9.846700	27.046538	0.000508	20.726913
1788.488509	-3.005600	3.277000	-9.847900	27.083963	0.000507	20.694375
1789.494484	-2.998200	3.277500	-9.824600	27.101953	0.000506	20.714365
1790.492571	-3.016600	3.276200	-9.882300	27.119942	0.000506	20.709698
1791.495446	-2.986100	3.277000	-9.784700	27.158132	0.000505	20.725349
1792.497030	-3.005600	3.277400	-9.849900	27.121212	0.000504	20.710501
1793.493807	-3.002300	3.274900	-9.831300	27.058187	0.000503	20.724879
1794.494490	-2.995600	3.275100	-9.808800	27.004811	0.000503	20.702967
1795.499090	-3.035000	3.273300	-9.933300	26.988811	0.000501	20.712008
1796.491887	-2.997600	3.274900	-9.815300	26.960426	0.000500	20.716654
1797.499281	-2.983600	3.273600	-9.765800	26.922781	0.000501	20.711042
1798.496206	-2.989200	3.274500	-9.787400	26.924966	0.000502	20.699014
1799.492118	-2.997100	3.274800	-9.813900	26.934822	0.000500	20.707029
1800.493853	-2.986000	3.274100	-9.776000	27.001380	0.000501	20.707578
1801.494687	-2.991300	3.273000	-9.789500	26.983765	0.000499	20.691285
1802.495797	-3.011400	3.271900	-9.852900	26.993744	0.000498	20.710331
1803.499447	-2.994700	3.271600	-9.796400	27.018512	0.000500	20.694459
1804.501713	-3.030000	3.269600	-9.906100	27.026035	0.000496	20.711509
1805.496747	-3.005600	3.270400	-9.828400	27.015465	0.000496	20.699930
1806.502859	-3.016700	3.269400	-9.861800	27.017203	0.000498	20.716852
1807.497127	-3.031100	3.269100	-9.907500	27.008568	0.000495	20.688727
1808.494397	-3.001700	3.270600	-9.816600	27.020898	0.000495	20.710610
1809.503212	-2.994000	3.269600	-9.787600	27.041618	0.000495	20.698731
1810.500352	-3.011100	3.267800	-9.837900	27.053434	0.000493	20.694965
1811.499095	-2.971000	3.270200	-9.714800	27.088868	0.000493	20.704524
1812.499842	-3.005200	3.268100	-9.818700	27.128346	0.000493	20.726686
1813.499639	-3.001500	3.266900	-9.804600	27.112637	0.000494	20.689073
1814.499180	-2.997800	3.266900	-9.792800	27.122837	0.000491	20.699332
1815.504431	-3.002700	3.266300	-9.807400	27.131224	0.000490	20.710140
1816.503074	-3.005300	3.265100	-9.810900	27.118045	0.000490	20.700203
1817.499357	-2.983500	3.266800	-9.745300	27.096038	0.000489	20.689923
1818.497740	-2.981300	3.265200	-9.734400	27.072261	0.000488	20.703469
1819.506098	-3.015100	3.265100	-9.843600	27.077025	0.000485	20.717744
1820.501536	-3.012500	3.264000	-9.831500	27.085437	0.000487	20.702496
1821.509000	-3.000500	3.264300	-9.794200	27.130253	0.000487	20.723863
1822.500371	-2.984300	3.265800	-9.745000	27.160126	0.000486	20.703646
1823.502577	-3.005600	3.262800	-9.804300	27.189974	0.000485	20.718020
1824.501849	-2.995800	3.264100	-9.777900	27.198561	0.000484	20.713381
1825.501026	-2.983700	3.264500	-9.738700	27.179254	0.000484	20.728102
1826.503403	-2.996600	3.263200	-9.777300	27.132361	0.000483	20.715550
1827.500163	-2.989000	3.264500	-9.756400	27.103578	0.000482	20.720267
1828.508939	-3.008600	3.260900	-9.809800	27.085318	0.000481	20.705221
1829.503154	-3.012500	3.261000	-9.822300	27.102712	0.000481	20.710861
1830.512306	-2.987200	3.263100	-9.746500	27.076581	0.000482	20.718721
1831.501177	-2.991800	3.260400	-9.753100	27.073330	0.000480	20.709287
1832.502464	-3.014000	3.259000	-9.820900	27.028540	0.000480	20.706916
1833.507341	-2.988800	3.261000	-9.745900	27.006179	0.000479	20.718569
1834.504631	-3.002700	3.260500	-9.789600	27.008435	0.000480	20.719889
1835.504344	-2.990500	3.259200	-9.745300	27.012703	0.000478	20.712326
1836.509402	-3.005200	3.258400	-9.790600	27.016225	0.000477	20.733414
1837.502326	-3.025300	3.259000	-9.857900	27.032453	0.000477	20.710377
1838.503800	-2.991000	3.259200	-9.747900	27.035778	0.000475	20.718937
1839.505298	-3.001900	3.258300	-9.780500	27.000708	0.000476	20.705479
1840.508701	-3.004000	3.256700	-9.781400	27.030708	0.000476	20.725218
1841.512876	-3.009900	3.257500	-9.803300	27.042987	0.000472	20.732826
1842.504812	-3.011800	3.256800	-9.808000	27.097945	0.000474	20.717447
1843.504664	-3.001600	3.255100	-9.769300	27.126285	0.000472	20.697584
1844.506558	-2.970900	3.256900	-9.674300	27.126528	0.000472	20.697829
1845.509404	-2.977600	3.256700	-9.695300	27.149899	0.000470	20.721336
1846.505537	-2.994200	3.255600	-9.746800	27.152330	0.000471	20.720462
1847.506855	-2.992600	3.254500	-9.738400	27.082155	0.000468	20.723378
1848.510861	-2.981100	3.254200	-9.699700	27.086525	0.000469	20.726825
1849.513291	-3.013500	3.254400	-9.804900	27.118728	0.000468	20.712270
1850.508786	-3.010100	3.253300	-9.792100	27.126915	0.000467	20.728092
1851.510411	-3.006900	3.252900	-9.780000	27.127879	0.000468	20.723845
1852.509017	-3.006700	3.252400	-9.777800	27.139197	0.000468	20.717210
1853.511234	-2.995300	3.252800	-9.742300	27.181077	0.000466	20.729461
1854.507405	-2.994700	3.252400	-9.738500	27.223676	0.000466	20.732954
1855.510635	-3.002000	3.251600	-9.760900	27.239204	0.000465	20.744306
1856.511459	-2.973100	3.250700	-9.662900	27.218811	0.000464	20.724267
1857.512231	-3.010700	3.251500	-9.788400	27.191392	0.000464	20.724663
1858.513058	-3.000500	3.250200	-9.750800	27.230568	0.000465	20.753163
1859.513540	-3.010100	3.249600	-9.780400	27.232155	0.000464	20.731050
1860.510774	-3.010200	3.249200	-9.779200	27.250982	0.000462	20.738609
1861.514818	-3.013500	3.248900	-9.788800	27.257828	0.000464	20.731744
1862.516825	-3.014400	3.249500	-9.792900	27.270879	0.000463	20.725431
1863.512551	-3.011400	3.248500	-9.781300	27.301139	0.000461	20.731688
1864.514548	-2.980100	3.250200	-9.685000	27.326617	0.000459	20.743567
1865.516607	-2.983000	3.248300	-9.688600	27.344525	0.000457	20.739770
1866.512869	-3.018500	3.246900	-9.799000	27.371265	0.000457	20.737746
1867.516736	-2.989800	3.247600	-9.707600	27.381089	0.000459	20.738620
1868.528185	-3.010600	3.246400	-9.773600	27.331271	0.000458	20.730230
1869.513897	-2.995400	3.245400	-9.720500	27.331767	0.000455	20.740687
1870.515591	-3.009200	3.247500	-9.771300	27.356003	0.000455	20.737091
1871.517116	-3.011100	3.244600	-9.767600	27.367265	0.000453	20.756009
1872.513051	-3.001100	3.244300	-9.735600	27.396713	0.000453	20.761925
1873.514128	-2.976700	3.245900	-9.659800	27.432801	0.000453	20.742753
1874.513735	-3.006200	3.244800	-9.752600	27.398641	0.000450	20.752959
1875.512519	-2.993200	3.244500	-9.709400	27.386657	0.000451	20.754180
1876.522208	-3.013700	3.244400	-9.776900	27.320124	0.000449	20.740354
1877.516173	-2.993300	3.244700	-9.711300	27.278172	0.000447	20.756476
1878.515100	-3.012400	3.242300	-9.765800	27.320272	0.000448	20.773695
1879.513470	-2.999800	3.242200	-9.724800	27.307795	0.000447	20.764463
1880.527723	-3.001800	3.242900	-9.733000	27.283558	0.000448	20.755729
1881.520163	-2.999400	3.242200	-9.723900	27.286956	0.000445	20.752035
1882.514282	-2.996000	3.242000	-9.712400	27.299707	0.000445	20.753957
1883.530790	-2.997100	3.240400	-9.710400	27.320103	0.000445	20.743652
1884.527856	-2.974100	3.241100	-9.638200	27.372746	0.000446	20.771479
1885.518214	-2.993800	3.239600	-9.696700	27.399784	0.000442	20.752686
1886.518047	-2.999400	3.239700	-9.714500	27.394255	0.000444	20.754710
1887.520651	-3.008200	3.238900	-9.742300	27.414722	0.000443	20.765344
1888.517507	-3.032000	3.237300	-9.814100	27.429333	0.000439	20.748273
1889.515653	-2.984600	3.238300	-9.663100	27.429653	0.000438	20.750492
1890.524911	-3.025000	3.236200	-9.788300	27.383220	0.000440	20.748351
1891.520785	-2.991700	3.237500	-9.685300	27.354223	0.000439	20.764225
1892.532076	-2.982300	3.238500	-9.657600	27.325051	0.000438	20.760959
1893.516113	-2.988600	3.236500	-9.670200	27.343557	0.000436	20.763454
1894.521588	-2.972800	3.237600	-9.623800	27.362833	0.000436	20.752498
1895.516800	-3.003300	3.236000	-9.717800	27.322621	0.000434	20.746660
1896.520622	-3.006900	3.235000	-9.726600	27.324432	0.000435	20.753698
1897.523774	-3.007300	3.236800	-9.732500	27.328034	0.000434	20.769650
1898.524078	-2.996700	3.234300	-9.691400	27.351577	0.000432	20.764409
1899.519875	-2.974400	3.234600	-9.619600	27.336227	0.000433	20.746596
1900.524554	-2.993900	3.233500	-9.679400	27.319581	0.000432	20.776320
1901.527167	-3.013700	3.232400	-9.739300	27.317249	0.000431	20.748368
1902.530664	-3.003800	3.232500	-9.708300	27.332733	0.000430	20.760626
1903.525661	-2.988800	3.233200	-9.660600	27.370617	0.000430	20.749897
1904.522114	-3.004000	3.231000	-9.705200	27.363870	0.000428	20.748326
1905.526095	-2.991100	3.231000	-9.663300	27.314730	0.000428	20.742515
1906.525750	-2.987600	3.229500	-9.646200	27.352245	0.000426	20.778357
1907.523516	-2.954800	3.232000	-9.547600	27.354658	0.000425	20.754231
1908.523595	-3.007600	3.230500	-9.715500	27.341780	0.000424	20.764985
1909.523034	-3.023000	3.229600	-9.761200	27.396934	0.000426	20.783959
1910.522067	-3.036300	3.228600	-9.802100	27.391179	0.000422	20.775325
1911.534622	-3.000800	3.228300	-9.686800	27.393043	0.000424	20.750173
1912.527773	-2.997200	3.228000	-9.674000	27.365038	0.000423	20.745707
1913.524314	-2.998700	3.227600	-9.678100	27.360824	0.000422	20.779401
1914.532954	-2.965500	3.228400	-9.572700	27.377746	0.000422	20.747586
1915.521079	-3.007300	3.225600	-9.698100	27.389730	0.000424	20.764383
1916.520875	-2.991100	3.229900	-9.660200	27.427119	0.000423	20.770229
1917.527689	-3.001100	3.225800	-9.678800	27.433619	0.000420	20.767759
1918.525064	-2.998300	3.226600	-9.673900	27.444536	0.000420	20.780639
1919.533883	-3.010200	3.225800	-9.708700	27.439746	0.000419	20.771552
1920.530532	-3.019000	3.225300	-9.735600	27.421389	0.000417	20.763042
1921.527557	-2.984200	3.225800	-9.625200	27.469663	0.000419	20.748070
1922.521121	-3.015300	3.223700	-9.719700	27.464109	0.000418	20.759553
1923.522882	-3.020000	3.223700	-9.734500	27.452749	0.000418	20.763771
1924.522386	-3.005700	3.223500	-9.688300	27.376096	0.000416	20.746874
1925.524548	-3.008800	3.223400	-9.696100	27.343053	0.000416	20.786181
1926.522692	-3.014100	3.221700	-9.709700	27.310678	0.000414	20.787752
1927.527557	-3.003500	3.223500	-9.681000	27.296361	0.000413	20.767186
1928.529032	-2.999800	3.221000	-9.661200	27.287823	0.000413	20.780884
1929.526113	-2.997300	3.221500	-9.654900	27.244829	0.000411	20.763715
1930.526713	-2.991500	3.221100	-9.635100	27.215328	0.000411	20.772448
1931.531927	-2.988900	3.220900	-9.626100	27.187564	0.000410	20.778661
1932.532026	-2.999000	3.221600	-9.661400	27.237603	0.000409	20.767352
1933.527850	-3.004300	3.220000	-9.673800	27.253405	0.000411	20.777083
1934.536434	-2.969900	3.221200	-9.565000	27.348597	0.000409	20.773739
1935.526111	-2.980800	3.219600	-9.595700	27.328797	0.000408	20.760933
1936.526231	-2.990900	3.218000	-9.624000	27.283071	0.000407	20.787483
1937.548493	-2.991300	3.217900	-9.625200	27.244963	0.000405	20.794195
1938.525497	-2.986500	3.218700	-9.610800	27.236376	0.000405	20.795041
1939.533163	-2.987700	3.218000	-9.613700	27.264360	0.000404	20.788576
1940.525186	-3.000300	3.216200	-9.648500	27.248526	0.000405	20.795409
1941.532537	-3.015400	3.217300	-9.700700	27.269190	0.000403	20.783003
1942.526105	-3.013700	3.214300	-9.685400	27.306699	0.000403	20.790862
1943.529006	-2.992700	3.214800	-9.618500	27.378246	0.000402	20.811626
1944.529160	-3.005900	3.214900	-9.663000	27.394690	0.000400	20.814418
1945.528734	-2.984700	3.215400	-9.595900	27.389210	0.000400	20.797051
1946.537086	-3.039400	3.212200	-9.762200	27.426511	0.000399	20.801860
1947.533699	-2.990700	3.214800	-9.613400	27.447646	0.000398	20.808898
1948.540130	-3.002100	3.214400	-9.649000	27.470462	0.000398	20.782540
1949.528286	-2.995700	3.211400	-9.620200	27.482712	0.000397	20.801503
1950.532012	-3.026300	3.210800	-9.715300	27.450491	0.000394	20.780941
1951.539470	-2.980300	3.212900	-9.574500	27.446496	0.000394	20.794939
1952.531516	-2.982300	3.211400	-9.576000	27.413054	0.000393	20.789270
1953.533539	-2.992100	3.213200	-9.614000	27.398640	0.000395	20.804167
1954.532562	-3.004600	3.210600	-9.645900	27.407863	0.000392	20.795428
1955.533782	-2.989500	3.210100	-9.594700	27.428277	0.000391	20.825922
1956.532509	-2.998100	3.209600	-9.621800	27.412653	0.000391	20.805937
1957.536002	-2.995600	3.209900	-9.613900	27.425597	0.000392	20.802363
1958.531122	-2.986900	3.208800	-9.583300	27.415249	0.000389	20.799065
1959.549026	-3.016500	3.206900	-9.673100	27.443528	0.000390	20.813764
1960.542728	-3.010800	3.208500	-9.659200	27.473392	0.000388	20.803506
1961.535767	-3.008800	3.206500	-9.647300	27.519152	0.000387	20.816354
1962.535054	-2.998300	3.206900	-9.614100	27.511935	0.000384	20.815257
1963.531844	-2.975700	3.207200	-9.542300	27.530558	0.000386	20.810760
1964.535273	-2.981400	3.207400	-9.561100	27.532812	0.000384	20.818244
1965.539402	-3.026900	3.204400	-9.698100	27.529066	0.000383	20.812105
1966.536645	-3.007100	3.205100	-9.637300	27.552007	0.000381	20.817642
1967.535876	-3.009300	3.204100	-9.640900	27.560068	0.000381	20.819589
1968.541563	-3.013800	3.205100	-9.659000	27.518347	0.000381	20.800846
1969.536399	-2.999900	3.205900	-9.616600	27.555753	0.000380	20.807186
1970.550554	-2.994500	3.205300	-9.597200	27.589707	0.000380	20.836134
1971.541771	-3.017600	3.203500	-9.665900	27.625665	0.000379	20.796451
1972.538340	-3.026500	3.203000	-9.691900	27.649700	0.000378	20.813998
1973.547150	-3.004100	3.201900	-9.618200	27.629065	0.000376	20.812675
1974.535653	-3.010200	3.201900	-9.636900	27.614334	0.000375	20.840525
1975.538694	-3.037600	3.200300	-9.720400	27.628024	0.000374	20.803567
1976.540066	-2.980300	3.200500	-9.537600	27.642632	0.000376	20.813050
1977.536857	-3.020900	3.198700	-9.661800	27.671872	0.000375	20.825402
1978.541630	-3.013800	3.199300	-9.641100	27.713411	0.000374	20.825477
1979.538986	-2.992300	3.199300	-9.572300	27.726730	0.000375	20.837457
1980.543879	-3.004700	3.200100	-9.613500	27.694243	0.000372	20.821361
1981.542511	-3.009000	3.199600	-9.626700	27.677129	0.000371	20.838752
1982.549834	-3.012500	3.197800	-9.631000	27.705151	0.000374	20.841346
1983.546106	-2.986200	3.198800	-9.550500	27.754821	0.000373	20.834906
1984.542201	-2.993000	3.198800	-9.572500	27.784329	0.000373	20.851324
1985.551116	-2.996000	3.198300	-9.581600	27.795664	0.000372	20.817689
1986.548974	-2.990900	3.195700	-9.556400	27.834713	0.000370	20.808623
1987.545691	-3.012400	3.195300	-9.624300	27.856779	0.000371	20.838891
1988.565356	-3.015600	3.194400	-9.631900	27.861166	0.000369	20.832876
1989.545531	-2.998500	3.195700	-9.580500	27.897815	0.000369	20.839415
1990.550830	-2.998800	3.194100	-9.577200	27.911547	0.000368	20.857028
1991.550186	-2.991100	3.194500	-9.554400	27.913498	0.000367	20.857096
1992.551999	-3.017600	3.192500	-9.631300	27.916174	0.000366	20.842246
1993.550276	-2.971800	3.193500	-9.488600	27.954852	0.000366	20.819537
1994.557938	-3.014600	3.190700	-9.616900	27.917211	0.000365	20.840919
1995.545984	-2.999300	3.192100	-9.572800	27.896304	0.000365	20.849747
1996.548429	-2.988400	3.193600	-9.542900	27.939170	0.000365	20.840261
1997.552841	-2.985600	3.191300	-9.527000	27.927685	0.000365	20.876115
1998.547915	-3.003500	3.191600	-9.584500	27.896565	0.000362	20.837208
1999.550970	-3.012400	3.189000	-9.605300	27.832883	0.000363	20.848981
2000.556184	-3.003300	3.189500	-9.578400	27.754771	0.000362	20.851925
2001.554069	-2.977900	3.191200	-9.500600	27.758906	0.000362	20.849448
2002.556910	-3.001700	3.188000	-9.568200	27.768576	0.000358	20.856808
2003.561584	-3.021900	3.188400	-9.633700	27.766565	0.000359	20.854310
2004.554835	-2.971900	3.188300	-9.473300	27.767054	0.000358	20.867130
2005.556479	-3.011000	3.188000	-9.596700	27.777441	0.000358	20.866677
2006.557174	-3.031800	3.187000	-9.661100	27.756134	0.000356	20.860408
2007.554944	-2.967800	3.188800	-9.462400	27.721039	0.000357	20.874402
2008.555975	-2.977100	3.187100	-9.487100	27.738989	0.000355	20.846474
2009.555907	-3.011200	3.185200	-9.590100	27.704836	0.000354	20.871374
2010.557202	-3.008100	3.185500	-9.581700	27.739352	0.000353	20.891881
2011.559659	-2.990000	3.184400	-9.520800	27.726128	0.000353	20.852972
2012.560310	-3.000800	3.184300	-9.554400	27.755313	0.000352	20.872383
2013.560988	-2.993500	3.183700	-9.528200	27.829231	0.000351	20.870434
2014.561857	-3.014200	3.182600	-9.591200	27.873984	0.000349	20.876594
2015.559071	-3.016600	3.181700	-9.596900	27.893223	0.000348	20.873198
2016.562660	-3.000000	3.183200	-9.548400	27.842240	0.000349	20.880207
2017.558306	-2.986800	3.184400	-9.510100	27.847912	0.000346	20.893027
2018.562081	-2.980000	3.182300	-9.482000	27.881682	0.000346	20.884815
2019.557817	-2.979500	3.181500	-9.477800	27.915081	0.000343	20.892351
2020.558198	-2.997400	3.180100	-9.530500	27.938699	0.000343	20.880089
2021.558182	-2.966100	3.181300	-9.435000	27.912420	0.000342	20.873553
2022.562143	-3.002600	3.178700	-9.542900	27.898259	0.000343	20.885852
2023.564633	-2.977900	3.179700	-9.467300	27.854692	0.000340	20.884678
2024.560335	-3.012100	3.180700	-9.579100	27.880579	0.000340	20.877541
2025.560788	-3.008500	3.177600	-9.558400	27.902370	0.000338	20.897575
2026.562531	-3.040000	3.177100	-9.657000	27.918485	0.000337	20.894355
2027.563403	-3.005100	3.177400	-9.547700	27.917368	0.000339	20.894178
2028.561057	-3.024000	3.176000	-9.603200	27.929838	0.000336	20.872118
2029.563394	-2.986400	3.176600	-9.485600	27.913793	0.000338	20.884891
2030.564725	-2.996900	3.175600	-9.515200	27.913941	0.000336	20.899263
2031.566106	-3.005700	3.175500	-9.543900	27.884307	0.000338	20.873233
2032.564381	-3.002000	3.175400	-9.531800	27.920357	0.000335	20.885334
2033.563802	-2.983100	3.176300	-9.473300	27.965258	0.000335	20.894017
2034.575391	-2.999600	3.174100	-9.520100	28.017641	0.000334	20.914026
2035.566193	-2.989600	3.174600	-9.488100	28.062408	0.000334	20.906932
2036.572788	-3.017200	3.172200	-9.569700	28.081621	0.000334	20.891188
2037.567571	-3.035200	3.171100	-9.624000	28.128245	0.000330	20.892604
2038.569009	-2.989500	3.172000	-9.480800	28.163246	0.000330	20.895597
2039.576694	-3.006400	3.170800	-9.532000	28.148369	0.000329	20.882043
2040.572536	-3.022100	3.170500	-9.580400	28.045789	0.000328	20.888309
2041.571601	-2.987700	3.170000	-9.469600	28.013878	0.000328	20.856663
2042.571634	-3.002900	3.169200	-9.516000	27.979460	0.000326	20.864692
2043.570491	-3.005400	3.169700	-9.524900	27.986350	0.000325	20.890118
2044.574285	-2.995000	3.168300	-9.488100	27.989743	0.000324	20.886895
2045.570037	-3.005600	3.167500	-9.519500	27.998392	0.000324	20.862885
2046.575507	-2.995700	3.168000	-9.488700	28.006446	0.000322	20.863880
2047.572439	-3.004700	3.167700	-9.517300	28.058753	0.000323	20.874807
2048.570549	-3.018000	3.166100	-9.554300	28.063534	0.000321	20.888627
2049.571742	-3.015300	3.164500	-9.540600	28.052897	0.000318	20.873180
2050.572278	-2.974000	3.166200	-9.414500	28.051112	0.000319	20.867589
2051.571306	-3.002900	3.166300	-9.506800	27.985039	0.000316	20.884531
2052.571545	-3.008200	3.163700	-9.516100	27.917696	0.000316	20.861320
2053.571927	-3.044000	3.164300	-9.630900	27.888386	0.000317	20.863115
2054.573505	-3.007000	3.163100	-9.510400	27.889254	0.000318	20.871575
2055.574802	-3.015700	3.162700	-9.537100	27.880525	0.000317	20.856626
2056.572386	-3.004200	3.161000	-9.495300	27.923839	0.000318	20.873666
2057.573810	-3.012800	3.161000	-9.522100	27.981606	0.000316	20.861637
2058.573491	-2.994500	3.160200	-9.461900	27.959986	0.000314	20.873065
2059.574524	-3.008300	3.160500	-9.505900	27.943892	0.000313	20.892901
2060.575853	-2.987000	3.159500	-9.435900	27.900053	0.000313	20.864900
2061.579372	-3.011800	3.159000	-9.513700	27.923906	0.000314	20.866149
2062.579746	-3.018800	3.159300	-9.535600	27.941386	0.000311	20.865724
2063.578296	-2.978000	3.159600	-9.408000	27.965085	0.000313	20.866344
2064.578778	-3.008400	3.158700	-9.500800	27.989380	0.000308	20.867091
2065.587043	-2.998900	3.157700	-9.469400	28.022234	0.000309	20.855591
2066.580543	-3.012200	3.156100	-9.505000	28.031704	0.000309	20.852795
2067.577069	-2.996300	3.157000	-9.458800	28.001430	0.000308	20.876375
2068.576698	-3.001300	3.155500	-9.468900	27.972822	0.000307	20.877450
2069.580203	-2.995200	3.155200	-9.448400	27.921893	0.000306	20.863174
2070.579587	-2.983800	3.154700	-9.411700	27.879395	0.000308	20.873505
2071.580748	-2.969300	3.155600	-9.367900	27.854349	0.000306	20.862523
2072.580640	-2.998200	3.152500	-9.449200	27.806715	0.000303	20.845405
2073.583165	-3.009000	3.153600	-9.487500	27.778372	0.000303	20.850072
2074.580525	-2.990000	3.153500	-9.427600	27.808920	0.000302	20.869433
2075.580687	-3.002500	3.152000	-9.463000	27.827843	0.000302	20.845804
2076.583277	-3.000700	3.152700	-9.459300	27.868433	0.000302	20.849672
2077.582363	-2.994000	3.150900	-9.432700	27.908154	0.000303	20.843657
2078.582763	-2.998600	3.151600	-9.449200	27.927398	0.000301	20.845008
2079.583211	-3.013900	3.148200	-9.486800	27.906716	0.000299	20.840313
2080.593421	-2.987800	3.149600	-9.409300	27.921145	0.000300	20.836818
2081.583724	-3.000800	3.148800	-9.447600	27.942491	0.000298	20.837915
2082.583130	-2.978200	3.147300	-9.371800	27.895360	0.000300	20.854962
2083.588512	-2.983600	3.147900	-9.390500	27.853305	0.000298	20.844878
2084.584999	-2.987300	3.147100	-9.400500	27.852782	0.000298	20.837239
2085.583651	-2.982100	3.147700	-9.385000	27.906390	0.000297	20.838562
2086.587153	-2.981000	3.145600	-9.374900	27.957615	0.000296	20.844602
2087.584721	-2.992300	3.145600	-9.410900	28.009752	0.000296	20.842554
2088.594716	-3.004600	3.145700	-9.451300	28.022643	0.000294	20.845572
2089.586844	-2.976800	3.143100	-9.355600	27.994352	0.000293	20.821837
2090.584876	-3.011100	3.143700	-9.465100	27.968321	0.000292	20.828825
2091.591907	-3.015900	3.140900	-9.471100	27.965839	0.000291	20.820164
2092.586279	-3.007100	3.142900	-9.450200	27.980168	0.000291	20.810405
2093.587697	-3.007700	3.141800	-9.447200	27.925920	0.000292	20.823133
2094.593551	-2.997200	3.140900	-9.412600	27.889122	0.000291	20.836356
2095.588463	-2.998500	3.139400	-9.412900	27.843424	0.000289	20.843468
2096.589322	-2.994700	3.140100	-9.402000	27.823212	0.000289	20.828342
2097.594069	-3.005800	3.139700	-9.434900	27.799504	0.000289	20.830087
2098.588732	-3.002200	3.138100	-9.420200	27.823855	0.000286	20.830886
2099.591060	-2.997100	3.137000	-9.401100	27.818845	0.000286	20.837224
2100.591341	-3.007100	3.137000	-9.432400	27.859954	0.000288	20.839715
2101.589839	-3.012700	3.136200	-9.446500	27.912545	0.000285	20.829111
2102.589826	-3.005000	3.136100	-9.422600	27.922583	0.000284	20.848222
2103.593009	-3.019500	3.134200	-9.463000	27.914873	0.000282	20.819126
2104.592829	-2.995900	3.133500	-9.387400	27.876070	0.000280	20.831280
2105.596465	-3.000900	3.133100	-9.401400	27.870192	0.000280	20.825364
2106.597454	-3.029500	3.132400	-9.488700	27.938474	0.000281	20.841457
2107.591515	-2.979000	3.133700	-9.334500	27.979781	0.000280	20.827084
2108.595995	-3.009000	3.132500	-9.424800	28.024155	0.000280	20.818172
2109.592480	-2.986900	3.133200	-9.357700	28.027677	0.000278	20.825036
2110.592842	-3.005400	3.130500	-9.407300	28.025070	0.000277	20.839006
2111.591135	-2.999600	3.129400	-9.385600	28.030553	0.000276	20.818447
2112.591486	-3.003900	3.130600	-9.403300	28.050509	0.000275	20.832845
2113.593876	-3.002400	3.129100	-9.394100	28.111148	0.000277	20.827980
2114.592706	-3.017500	3.127400	-9.435800	28.065634	0.000274	20.820096
2115.592506	-3.045100	3.126300	-9.518600	28.055072	0.000275	20.815627
2116.593145	-3.020900	3.126800	-9.443400	28.052119	0.000274	20.837785
2117.593828	-2.996500	3.125300	-9.363900	28.044783	0.000275	20.818547
2118.595075	-3.005300	3.124800	-9.390000	28.041956	0.000273	20.829452
2119.595622	-3.006800	3.125200	-9.395100	28.056411	0.000274	20.806070
2120.593829	-3.003200	3.124800	-9.382600	28.108765	0.000275	20.822736
2121.595669	-3.010700	3.122500	-9.399900	28.105520	0.000272	20.814254
2122.595351	-2.994000	3.123100	-9.350000	28.163077	0.000273	20.812928
2123.594675	-3.015000	3.121400	-9.408900	28.186032	0.000272	20.820865
2124.597605	-2.960900	3.124400	-9.250000	28.208168	0.000272	20.811856
2125.595838	-2.992900	3.122500	-9.343600	28.223706	0.000271	20.823707
2126.599366	-3.029500	3.118900	-9.446500	28.203480	0.000268	20.789118
2127.599167	-2.985500	3.119700	-9.313000	28.215799	0.000270	20.807685
2128.596498	-2.966800	3.118800	-9.251300	28.236619	0.000266	20.816793
2129.596105	-2.990000	3.117900	-9.321700	28.266283	0.000268	20.839071
2130.600446	-3.020200	3.116800	-9.412100	28.269109	0.000268	20.817261
2131.604471	-3.006400	3.116100	-9.367400	28.297986	0.000267	20.808404
2132.598483	-3.019900	3.115000	-9.405800	28.314388	0.000266	20.828712
2133.607970	-2.979200	3.115800	-9.281500	28.322148	0.000263	20.820877
2134.597920	-3.008500	3.113500	-9.366200	28.332954	0.000263	20.799516
2135.600583	-3.004700	3.113600	-9.354400	28.345493	0.000263	20.822099
2136.598261	-3.029100	3.112800	-9.427600	28.387375	0.000262	20.801208
2137.604261	-3.020300	3.111200	-9.396200	28.359719	0.000262	20.806077
2138.599458	-2.996200	3.111800	-9.322800	28.328365	0.000262	20.795370
2139.600399	-2.958500	3.113100	-9.209000	28.264713	0.000261	20.806672
2140.603760	-3.003300	3.111000	-9.342400	28.269894	0.000261	20.807620
2141.602292	-2.996900	3.110800	-9.321900	28.229565	0.000259	20.812061
2142.603460	-2.994200	3.109500	-9.309900	28.184078	0.000258	20.793768
2143.607086	-3.010400	3.109100	-9.357900	28.204031	0.000257	20.802950
2144.602830	-3.026900	3.106700	-9.402400	28.262060	0.000260	20.820122
2145.602443	-2.976300	3.108400	-9.250600	28.276358	0.000258	20.799430
2146.603913	-2.990900	3.105700	-9.287600	28.280125	0.000257	20.791843
2147.604708	-3.014200	3.105500	-9.359400	28.275613	0.000256	20.819542
2148.604339	-3.011100	3.104800	-9.347000	28.210052	0.000256	20.813279
2149.607537	-2.976800	3.104200	-9.239500	28.180775	0.000253	20.788072
2150.604962	-3.011800	3.102900	-9.343600	28.201052	0.000253	20.801373
2151.606681	-3.013700	3.102500	-9.349600	28.224400	0.000252	20.809706
2152.605290	-2.985200	3.102500	-9.261100	28.236891	0.000253	20.802368
2153.607446	-2.974200	3.101900	-9.225000	28.287260	0.000250	20.821312
2154.607066	-2.985100	3.100900	-9.256100	28.314149	0.000251	20.795280
2155.606162	-2.956900	3.100900	-9.167800	28.310382	0.000251	20.803815
2156.609187	-3.000000	3.098800	-9.294600	28.306291	0.000250	20.811076
2157.608893	-2.977800	3.097800	-9.223000	28.240437	0.000250	20.795032
2158.606246	-2.993700	3.097600	-9.272800	28.212226	0.000248	20.793657
2159.608618	-3.008300	3.094600	-9.308300	28.258850	0.000248	20.789863
2160.607830	-2.993600	3.095400	-9.265700	28.301754	0.000248	20.782800
2161.607827	-3.014400	3.096000	-9.331800	28.313752	0.000251	20.791561
2162.607185	-2.990800	3.094000	-9.252400	28.347707	0.000248	20.791611
2163.610197	-2.991800	3.093400	-9.253200	28.382452	0.000249	20.799095
2164.612245	-3.004300	3.092000	-9.288800	28.400296	0.000247	20.802839
2165.607590	-3.009500	3.092600	-9.305300	28.399800	0.000246	20.799021
2166.609983	-3.016500	3.089800	-9.319500	28.383692	0.000246	20.789913
2167.612786	-2.988700	3.091300	-9.237900	28.395067	0.000247	20.807057
2168.609574	-3.001000	3.089200	-9.270000	28.377866	0.000247	20.798745
2169.608994	-3.017600	3.087800	-9.316800	28.372858	0.000244	20.794651
2170.609153	-2.993100	3.087200	-9.239100	28.417617	0.000244	20.819806
2171.609143	-2.968700	3.088000	-9.164100	28.390432	0.000246	20.803338
2172.613602	-2.994200	3.086200	-9.240200	28.318505	0.000246	20.791605
2173.612068	-2.993700	3.084300	-9.232000	28.296765	0.000244	20.802907
2174.611803	-2.999200	3.084700	-9.249500	28.273145	0.000242	20.799040
2175.616957	-2.987600	3.084500	-9.213600	28.266721	0.000243	20.788779
2176.614142	-3.022300	3.083000	-9.315300	28.320084	0.000244	20.801730
2177.613170	-2.993200	3.082200	-9.224200	28.348486	0.000241	20.782913
2178.613682	-3.009000	3.080300	-9.268300	28.334556	0.000244	20.778369
2179.613810	-2.980600	3.080600	-9.180700	28.317182	0.000241	20.794540
2180.615134	-2.974200	3.080000	-9.159100	28.306520	0.000241	20.805617
2181.615533	-3.023100	3.077600	-9.302700	28.364245	0.000241	20.776969
2182.615763	-2.995000	3.079100	-9.219900	28.342780	0.000242	20.788073
2183.615098	-2.995900	3.079200	-9.223900	28.358413	0.000239	20.769674
2184.617731	-3.013300	3.076000	-9.267500	28.401165	0.000239	20.790438
2185.616018	-3.015400	3.074700	-9.269900	28.413531	0.000239	20.786769
2186.614193	-2.999800	3.074200	-9.220100	28.464581	0.000239	20.766578
2187.620121	-3.008700	3.072700	-9.244200	28.504052	0.000240	20.793525
2188.616244	-3.000300	3.073700	-9.221500	28.506203	0.000238	20.780044
2189.618561	-3.015600	3.071900	-9.262400	28.541438	0.000238	20.787079
2190.616457	-2.988400	3.070500	-9.174000	28.559228	0.000237	20.800728
2191.617176	-2.989000	3.069600	-9.173800	28.545695	0.000239	20.781408
2192.619390	-2.971800	3.070200	-9.123000	28.529241	0.000235	20.782856
2193.622761	-3.003100	3.067700	-9.210900	28.479031	0.000237	20.773543
2194.616055	-3.015000	3.067100	-9.245800	28.489707	0.000236	20.762957
2195.620219	-2.994600	3.066900	-9.183500	28.467602	0.000235	20.790483
2196.617478	-3.007800	3.065900	-9.220800	28.490618	0.000234	20.773358
2197.619049	-3.000800	3.063400	-9.191800	28.471262	0.000234	20.784211
2198.620877	-2.979500	3.064200	-9.128600	28.482805	0.000234	20.787301
2199.617979	-3.005100	3.061400	-9.198500	28.510806	0.000233	20.793689
2200.619842	-2.983800	3.062000	-9.134600	28.538853	0.000233	20.783527
2201.619298	-2.971800	3.060600	-9.093700	28.554759	0.000235	20.760665
2202.619974	-3.005700	3.058700	-9.192400	28.544276	0.000233	20.781402
2203.626595	-2.969600	3.059600	-9.084700	28.488595	0.000235	20.777484
2204.620585	-2.993900	3.056600	-9.150100	28.512229	0.000233	20.771888
2205.620940	-3.007100	3.056600	-9.189900	28.495252	0.000231	20.784663
2206.621874	-2.998000	3.057000	-9.163500	28.490168	0.000230	20.789501
2207.621820	-3.011800	3.054900	-9.199100	28.506694	0.000231	20.792392
2208.622295	-2.996800	3.054700	-9.152000	28.447912	0.000231	20.782035
2209.623360	-2.998900	3.052600	-9.153800	28.429023	0.000230	20.773919
2210.622595	-3.005400	3.051400	-9.170500	28.425850	0.000231	20.793010
2211.623965	-2.958800	3.052600	-9.031000	28.431744	0.000229	20.777608
2212.620818	-2.982500	3.050000	-9.095700	28.446218	0.000229	20.769897
2213.619573	-3.002600	3.049100	-9.153400	28.422048	0.000229	20.779697
2214.621169	-2.996200	3.048900	-9.134400	28.451786	0.000229	20.763176
2215.618707	-3.011400	3.045100	-9.168800	28.469454	0.000230	20.768640
2216.625694	-3.005700	3.044800	-9.150600	28.493612	0.000229	20.778269
2217.621920	-2.983300	3.043400	-9.078500	28.528029	0.000230	20.781635
2218.621078	-2.965000	3.043400	-9.023000	28.522847	0.000228	20.780210
2219.624551	-3.010200	3.042300	-9.157100	28.462331	0.000231	20.794658
2220.623494	-3.008300	3.040800	-9.146400	28.402082	0.000230	20.765756
2221.621496	-2.995700	3.038500	-9.101600	28.370552	0.000230	20.767672
2222.623383	-2.967600	3.039300	-9.017300	28.353175	0.000228	20.783841
2223.621377	-2.991200	3.038800	-9.089200	28.315253	0.000227	20.785487
2224.621585	-2.997400	3.037500	-9.103900	28.287934	0.000227	20.758454
2225.622248	-2.979600	3.037900	-9.049900	28.291526	0.000225	20.768235
2226.622314	-2.981400	3.035600	-9.047900	28.273084	0.000228	20.751088
2227.627886	-2.984300	3.035100	-9.055500	28.229655	0.000226	20.747666
2228.624174	-2.991300	3.033100	-9.071900	28.291023	0.000225	20.755399
2229.623595	-3.005800	3.032300	-9.113500	28.333008	0.000226	20.765431
2230.629129	-3.041400	3.028800	-9.210800	28.411817	0.000225	20.772715
2231.624870	-3.025500	3.028300	-9.160200	28.473103	0.000224	20.781798
2232.625857	-3.021100	3.028500	-9.147700	28.515352	0.000224	20.760808
2233.629467	-2.992300	3.028700	-9.061400	28.506429	0.000223	20.761305
2234.626237	-3.004500	3.025700	-9.090100	28.528161	0.000224	20.741464
2235.629210	-3.014500	3.024500	-9.116400	28.530758	0.000224	20.756883
2236.633232	-3.008500	3.022600	-9.092200	28.544212	0.000224	20.776597
2237.631014	-3.004000	3.021700	-9.076400	28.524266	0.000223	20.770259
2238.628111	-3.015500	3.020200	-9.106300	28.454850	0.000223	20.763416
2239.627925	-3.016500	3.019700	-9.108100	28.483519	0.000224	20.767158
2240.629907	-2.995400	3.019500	-9.043600	28.491871	0.000223	20.749489
2241.629160	-2.997000	3.016600	-9.040100	28.543832	0.000224	20.767204
2242.630548	-3.007000	3.016600	-9.070300	28.628201	0.000222	20.765879
2243.630013	-2.983300	3.016800	-8.998200	28.655407	0.000224	20.759141
2244.628251	-2.988900	3.014000	-9.007600	28.607336	0.000224	20.769046
2245.641270	-3.004500	3.014200	-9.053700	28.535971	0.000226	20.764029
2246.633034	-3.022900	3.011800	-9.103000	28.484894	0.000223	20.757162
2247.633088	-3.020100	3.010100	-9.089200	28.494483	0.000223	20.766345
2248.630133	-3.007200	3.008900	-9.047800	28.477750	0.000223	20.765140
2249.630060	-2.980800	3.008400	-8.966200	28.488429	0.000222	20.757876
2250.631381	-2.979700	3.007400	-8.958800	28.457303	0.000222	20.745024
2251.632243	-2.986800	3.006400	-8.978400	28.426991	0.000223	20.737258
2252.632791	-3.012300	3.002600	-9.043200	28.383643	0.000221	20.758094
2253.630130	-2.984800	3.003900	-8.965500	28.354272	0.000221	20.742270
2254.633562	-3.010800	3.002500	-9.038300	28.326188	0.000223	20.768521
2255.633181	-2.995300	3.001800	-8.990200	28.310199	0.000219	20.765224
2256.631506	-2.985200	2.998600	-8.949700	28.326111	0.000219	20.756590
2257.633862	-2.988800	2.998000	-8.958600	28.350845	0.000220	20.746406
2258.634460	-3.012500	2.995700	-9.023800	28.342736	0.000219	20.753888
2259.633664	-2.977800	2.995000	-8.917800	28.355746	0.000219	20.789274
2260.634209	-3.006200	2.994200	-9.000700	28.367097	0.000218	20.748546
2261.634926	-2.967600	2.992700	-8.879900	28.412573	0.000218	20.762095
2262.633512	-3.010600	2.991000	-9.003900	28.448482	0.000222	20.768384
2263.637463	-2.979300	2.990200	-8.908000	28.435864	0.000220	20.772748
2264.635370	-3.003400	2.989400	-8.976600	28.465356	0.000220	20.760246
2265.634684	-3.022200	2.986300	-9.024000	28.525445	0.000218	20.746316
2266.635762	-3.032700	2.984000	-9.047800	28.555999	0.000219	20.755750
2267.635586	-2.985500	2.985300	-8.910900	28.590390	0.000220	20.769523
2268.634396	-3.010700	2.984600	-8.984200	28.626389	0.000221	20.783020
2269.637298	-2.983000	2.982800	-8.895900	28.648641	0.000220	20.780302
2270.636165	-2.992300	2.981400	-8.920100	28.628294	0.000220	20.780672
2271.635769	-3.026800	2.979300	-9.016200	28.622918	0.000218	20.787585
2272.642140	-3.038500	2.977500	-9.046900	28.662483	0.000221	20.778122
2273.639401	-2.990100	2.977500	-8.901300	28.681510	0.000218	20.763147
2274.637087	-3.005200	2.975100	-8.940300	28.681283	0.000221	20.758651
2275.639361	-2.950500	2.974800	-8.775300	28.681653	0.000221	20.762343
2276.638478	-3.005600	2.972000	-8.931500	28.657395	0.000222	20.761618
2277.640917	-3.030200	2.971400	-9.002500	28.623719	0.000221	20.764684
2278.640984	-3.017500	2.969000	-8.957800	28.559757	0.000222	20.760009
2279.640637	-2.980100	2.968100	-8.843800	28.590806	0.000222	20.751449
2280.642313	-2.969000	2.967700	-8.810000	28.624552	0.000222	20.765048
2281.639947	-2.996600	2.964100	-8.880700	28.732202	0.000222	20.769636
2282.641199	-2.984800	2.963400	-8.844000	28.766116	0.000221	20.766339
2283.641701	-2.992800	2.962000	-8.863900	28.827009	0.000223	20.768410
2284.640915	-2.999800	2.959500	-8.876400	28.850640	0.000221	20.754756
2285.639320	-3.019900	2.960100	-8.938800	28.855714	0.000219	20.775989
2286.642591	-3.011200	2.956800	-8.902000	28.839038	0.000219	20.773415
2287.642579	-3.010800	2.955800	-8.898400	28.821694	0.000221	20.762107
2288.646702	-2.995100	2.955100	-8.850600	28.813911	0.000217	20.772285
2289.640903	-3.018800	2.951800	-8.908500	28.842845	0.000217	20.765870
2290.642739	-3.016600	2.950600	-8.899800	28.879183	0.000217	20.754113
2291.642264	-2.983500	2.951400	-8.803800	28.885918	0.000219	20.768958
2292.644452	-3.012200	2.947300	-8.877100	28.887724	0.000217	20.770778
2293.644324	-3.010400	2.946600	-8.869500	28.897234	0.000216	20.791264
2294.644375	-3.023700	2.944300	-8.901100	28.881948	0.000217	20.765433
2295.644011	-3.003500	2.942100	-8.835100	28.853703	0.000216	20.787714
2296.642949	-2.998900	2.942000	-8.821200	28.789169	0.000215	20.780552
2297.643862	-3.014000	2.940100	-8.860200	28.724158	0.000218	20.785716
2298.647564	-3.009500	2.938500	-8.842800	28.714100	0.000217	20.768946
2299.648285	-3.008500	2.936400	-8.833300	28.741521	0.000217	20.783765
2300.646242	-2.987100	2.935800	-8.768200	28.700692	0.000216	20.782943
2301.644099	-3.022400	2.932800	-8.863000	28.690854	0.000216	20.781568
2302.642432	-3.003400	2.932000	-8.805100	28.699847	0.000216	20.804377
2303.646597	-2.985700	2.929900	-8.747500	28.746277	0.000216	20.760580
2304.650463	-3.016000	2.928700	-8.832200	28.779001	0.000214	20.774103
2305.647094	-3.022900	2.925400	-8.841900	28.781530	0.000215	20.794668
2306.647124	-3.006000	2.925400	-8.792500	28.769513	0.000216	20.801055
2307.649862	-3.030200	2.922500	-8.853900	28.791387	0.000215	20.790373
2308.649325	-2.999600	2.921300	-8.762300	28.815541	0.000216	20.802850
2309.648971	-3.006900	2.920000	-8.779300	28.865012	0.000215	20.787727
2310.645844	-3.016900	2.917900	-8.802300	28.814427	0.000217	20.780865
2311.646821	-3.012300	2.915100	-8.780100	28.768175	0.000214	20.803975
2312.647208	-3.031500	2.914800	-8.835000	28.794534	0.000215	20.780741
2313.650339	-2.984000	2.914900	-8.696900	28.825748	0.000213	20.782312
2314.651342	-3.010600	2.912000	-8.766000	28.837220	0.000214	20.770160
2315.651313	-2.979700	2.911600	-8.673900	28.770602	0.000214	20.786980
2316.649057	-2.986300	2.908500	-8.684900	28.736686	0.000215	20.787429
2317.652288	-2.992900	2.907800	-8.701900	28.746719	0.000213	20.764344
2318.649518	-2.999400	2.904000	-8.709200	28.781029	0.000212	20.770930
2319.652529	-3.003400	2.902600	-8.717100	28.839921	0.000214	20.788529
2320.652934	-2.960600	2.902100	-8.590800	28.853918	0.000213	20.790301
2321.649293	-3.016000	2.898000	-8.739300	28.888449	0.000214	20.773405
2322.660233	-2.994100	2.899700	-8.679900	28.881266	0.000215	20.787980
2323.649563	-2.998500	2.895000	-8.679900	28.851392	0.000214	20.800559
2324.652861	-2.994200	2.893800	-8.664300	28.854465	0.000214	20.784214
2325.653052	-2.987700	2.893000	-8.641900	28.876636	0.000215	20.787108
2326.653736	-3.009700	2.890700	-8.698400	28.890704	0.000213	20.784211
2327.650228	-2.996900	2.887100	-8.650100	28.951146	0.000214	20.801482
2328.650613	-3.002500	2.887900	-8.669600	28.992413	0.000213	20.770039
2329.666517	-2.966600	2.887200	-8.563300	28.988156	0.000213	20.796569
2330.650280	-3.003800	2.882100	-8.656200	28.968461	0.000214	20.798064
2331.652900	-3.025400	2.880100	-8.711800	28.961281	0.000212	20.788459
2332.650692	-3.011700	2.879600	-8.670800	28.943643	0.000213	20.786336
2333.654623	-2.986300	2.878800	-8.596300	28.942455	0.000212	20.790830
2334.652177	-2.984400	2.876400	-8.583800	28.996282	0.000212	20.790532
2335.651260	-3.001900	2.872700	-8.622200	29.020061	0.000215	20.795998
2336.652087	-2.959600	2.871900	-8.498400	29.072023	0.000212	20.796671
2337.650631	-2.983400	2.869200	-8.559500	29.080742	0.000216	20.809250
2338.653263	-3.026300	2.866300	-8.673000	29.108112	0.000214	20.820232
2339.653161	-3.012300	2.864200	-8.627100	29.090799	0.000214	20.784296
2340.661736	-3.041000	2.861300	-8.699700	29.062069	0.000214	20.799918
2341.659448	-2.991600	2.861500	-8.559100	29.004782	0.000212	20.802415
2342.655707	-3.017200	2.860100	-8.627800	28.950737	0.000214	20.801544
2343.657038	-3.001100	2.858000	-8.576400	28.947243	0.000216	20.799920
2344.654311	-3.020100	2.853700	-8.617200	28.942739	0.000213	20.793486
2345.654421	-2.994100	2.853000	-8.541500	29.003176	0.000215	20.808857
2346.659839	-2.987700	2.851500	-8.517900	29.074336	0.000216	20.787622
2347.660967	-3.018900	2.847100	-8.594500	29.084268	0.000214	20.789568
2348.656178	-3.008600	2.846000	-8.560900	29.066856	0.000216	20.807112
2349.658817	-3.000800	2.845800	-8.539200	29.010484	0.000213	20.794883
2350.659200	-3.004000	2.842800	-8.538600	28.954729	0.000214	20.808884
2351.662457	-3.007400	2.841000	-8.541700	28.938008	0.000214	20.798202
2352.660242	-2.982600	2.840100	-8.470100	28.893123	0.000216	20.807038
2353.659869	-2.985200	2.836600	-8.466400	28.906102	0.000217	20.806362
2354.665766	-2.994600	2.834100	-8.486600	28.953189	0.000215	20.793108
2355.660264	-2.988400	2.832600	-8.464400	28.960965	0.000217	20.801891
2356.662723	-3.036700	2.829300	-8.589800	28.941918	0.000215	20.791711
2357.663017	-3.022000	2.826800	-8.540400	28.933269	0.000215	20.801964
2358.661146	-2.963500	2.825900	-8.373600	28.890812	0.000216	20.797597
2359.661797	-2.991500	2.823600	-8.444300	28.877956	0.000215	20.798396
2360.660810	-2.996000	2.822200	-8.453400	28.884045	0.000216	20.815910
2361.665902	-3.004300	2.818400	-8.465900	28.934129	0.000216	20.812313
2362.664638	-3.006700	2.815600	-8.464700	28.965886	0.000216	20.808272
2363.665870	-3.007800	2.814500	-8.464100	29.002392	0.000217	20.800008
2364.663947	-3.010600	2.810400	-8.459600	29.025824	0.000212	20.807495
2365.662527	-3.003500	2.808800	-8.435900	29.062208	0.000214	20.811437
2366.661722	-3.011500	2.806100	-8.449600	29.115602	0.000214	20.806916
2367.663625	-3.024300	2.802700	-8.475400	29.151191	0.000214	20.805794
2368.665047	-3.015800	2.801300	-8.446500	29.155177	0.000214	20.807914
2369.663612	-3.014700	2.799100	-8.437700	29.189896	0.000214	20.813028
2370.671294	-2.980000	2.797600	-8.336100	29.163869	0.000214	20.797706
2371.665091	-2.982600	2.795300	-8.335400	29.169217	0.000213	20.799303
2372.674987	-3.011700	2.790500	-8.401700	29.157503	0.000214	20.810258
2373.669805	-2.995300	2.790700	-8.357700	29.120105	0.000213	20.815248
2374.669042	-3.019800	2.787000	-8.413900	29.119187	0.000215	20.820960
2375.669519	-2.995700	2.784200	-8.339900	29.124412	0.000214	20.813423
2376.673605	-2.996200	2.781700	-8.333700	29.156037	0.000214	20.791237
2377.674075	-2.991600	2.777700	-8.308800	29.186176	0.000214	20.805961
2378.677358	-2.988400	2.775500	-8.293300	29.178870	0.000215	20.835107
2379.671199	-3.012000	2.770500	-8.344200	29.201800	0.000213	20.806058
2380.670153	-2.977800	2.769800	-8.247000	29.189268	0.000216	20.820930
2381.673214	-2.974100	2.767700	-8.230200	29.139736	0.000215	20.829338
2382.670785	-2.989300	2.763400	-8.259400	29.134163	0.000214	20.794800
2383.673101	-3.007200	2.760700	-8.300400	29.073359	0.000213	20.809397
2384.672543	-3.000900	2.758000	-8.274900	29.030684	0.000215	20.814287
2385.671609	-2.987200	2.755200	-8.229700	29.006333	0.000216	20.813461
2386.675882	-3.003400	2.751300	-8.262000	28.999695	0.000215	20.830006
2387.672393	-3.000300	2.746900	-8.239500	28.997264	0.000214	20.813332
2388.670699	-2.997800	2.745300	-8.229200	28.962041	0.000213	20.831898
2389.674726	-2.987700	2.742500	-8.192700	28.980516	0.000215	20.810209
2390.674976	-2.998900	2.738800	-8.212500	29.025394	0.000217	20.821760
2391.673846	-2.983300	2.736200	-8.161200	29.070670	0.000215	20.824230
2392.673949	-2.998600	2.732800	-8.193400	29.078295	0.000219	20.822905
2393.674439	-2.989500	2.729100	-8.157000	29.128764	0.000217	20.812593
2394.674978	-3.001400	2.727500	-8.185100	29.138274	0.000216	20.822175
2395.677722	-3.025300	2.721900	-8.232300	29.107762	0.000217	20.834578
2396.676549	-2.981600	2.720800	-8.112000	29.107410	0.000218	20.819999
2397.695819	-3.020500	2.715300	-8.200600	29.134476	0.000216	20.836365
2398.678684	-3.010400	2.712900	-8.165700	29.147848	0.000217	20.841306
2399.676112	-2.998900	2.709300	-8.124000	29.199849	0.000217	20.828273
2400.677574	-3.020500	2.704900	-8.168800	29.240782	0.000215	20.851504
2401.676152	-3.010400	2.701500	-8.131500	29.295874	0.000216	20.833058
2402.677587	-3.007600	2.699800	-8.118100	29.286610	0.000217	20.843161
2403.678384	-3.012200	2.694400	-8.115200	29.289529	0.000216	20.848474
2404.676051	-2.978100	2.693400	-8.019400	29.291532	0.000217	20.854285
2405.678535	-3.002500	2.687500	-8.068200	29.294129	0.000216	20.858324
2406.677552	-3.018000	2.682600	-8.095800	29.341590	0.000216	20.843096
2407.675969	-2.991900	2.681300	-8.020400	29.289836	0.000218	20.839775
2408.677677	-2.988500	2.677200	-7.999900	29.262001	0.000218	20.845387
2409.677397	-3.037300	2.670800	-8.110700	29.211007	0.000216	20.849000
2410.679124	-3.012300	2.668400	-8.035300	29.188321	0.000217	20.857433
2411.680890	-2.961300	2.666700	-7.896300	29.247131	0.000217	20.849368
2412.678290	-3.019100	2.658700	-8.025700	29.271938	0.000218	20.844496
2413.679846	-3.049900	2.654500	-8.093600	29.263122	0.000216	20.846991
2414.679709	-2.992400	2.652300	-7.934400	29.286617	0.000219	20.843169
2415.679214	-2.992900	2.648400	-7.924800	29.302311	0.000218	20.863252
2416.683713	-2.991700	2.642900	-7.906000	29.353194	0.000218	20.848626
2417.680474	-3.005200	2.638700	-7.929100	29.382061	0.000219	20.871556
2418.680317	-3.011100	2.634800	-7.932700	29.451680	0.000218	20.863491
2419.680239	-2.999900	2.632000	-7.894700	29.510702	0.000217	20.866560
2420.680578	-2.996600	2.625600	-7.865900	29.526243	0.000218	20.870371
2421.682821	-3.016600	2.619300	-7.900800	29.567234	0.000217	20.873286
2422.682979	-3.004600	2.616500	-7.860700	29.581589	0.000218	20.858360
2423.682509	-2.988500	2.610700	-7.801100	29.600722	0.000219	20.855837
2424.683711	-3.004700	2.606200	-7.829900	29.604037	0.000219	20.883833
2425.682673	-2.978700	2.602600	-7.751800	29.621359	0.000217	20.865261
2426.687065	-2.978400	2.595900	-7.730000	29.665765	0.000216	20.869725
2427.683857	-3.020000	2.588400	-7.815600	29.673931	0.000215	20.854250
2428.688162	-2.991500	2.586100	-7.735400	29.681971	0.000215	20.895545
2429.683799	-3.023800	2.578500	-7.796200	29.653896	0.000214	20.861553
2430.683740	-2.979400	2.573000	-7.664300	29.605573	0.000217	20.869735
2431.686754	-2.999000	2.567700	-7.698400	29.518605	0.000216	20.885431
2432.687683	-3.002800	2.563800	-7.697300	29.447247	0.000214	20.868506
2433.686349	-3.015000	2.555700	-7.704900	29.381979	0.000214	20.886644
2434.685750	-2.979500	2.550800	-7.599400	29.403469	0.000215	20.878907
2435.686543	-3.013800	2.544800	-7.668700	29.464323	0.000214	20.879079
2436.687576	-2.982400	2.539200	-7.570700	29.552976	0.000216	20.868396
2437.690144	-2.999600	2.533300	-7.597700	29.582087	0.000214	20.876404
2438.687510	-2.990600	2.525900	-7.553100	29.639863	0.000213	20.889129
2439.690663	-3.015000	2.520000	-7.595400	29.644689	0.000214	20.889727
2440.691195	-3.044200	2.512700	-7.648500	29.608346	0.000215	20.872531
2441.689741	-3.006200	2.507400	-7.536900	29.563141	0.000213	20.910883
2442.692562	-2.981100	2.502100	-7.457600	29.562967	0.000215	20.895061
2443.689549	-3.034700	2.494400	-7.568000	29.584431	0.000213	20.895835
