LabVIEW Measurement	
Writer_Version	2
Reader_Version	2
Separator	Tab
Decimal_Separator	.
Multi_Headings	No
X_Columns	One
Time_Pref	Absolute
Operator	admin
Description	Clolumns are: time, Current, Voltage, Power, Battery Temp, and Chamber Temp
Date	2024/08/16
Time	13:06:06.104549407958984375
***End_of_Header***	
	
Channels	6						
Samples	1	1	1	1	1	1	
Date	2024/09/10	2024/09/10	2024/09/10	2024/09/10	2024/09/10	2024/09/10	
Time	10:25:47.4815325736999511719	10:25:47.488681793212890625	10:25:47.4965567588806152344	10:25:47.4642271995544433594	10:25:47.4642271995544433594	10:25:47.4642271995544433594	
X_Dimension	Time	Time	Time	Time	Time	Time	
X0	0.0000000000000000E+0	0.0000000000000000E+0	0.0000000000000000E+0	0.0000000000000000E+0	0.0000000000000000E+0	0.0000000000000000E+0	
Delta_X	1.000000	1.000000	1.000000	1.000000	1.000000	1.000000	
***End_of_Header***							
X_Value	Untitled	Untitled 1	Untitled 2	Untitled 3	Untitled 4	Untitled 5	Comment
0.000000	0.009513	4.096300	0.038992	20.911051	0.000908	20.748421
0.998049	-3.006700	3.921400	-11.789000	20.921178	0.000910	20.731048
2.004170	-2.982100	3.914400	-11.673000	20.929786	0.000908	20.725431
3.004059	-2.979400	3.909300	-11.646000	20.940525	0.000905	20.730956
4.005012	-3.001100	3.903700	-11.714000	20.915994	0.000904	20.736295
5.003257	-3.007100	3.900000	-11.726000	20.922901	0.000905	20.731348
6.003609	-3.000100	3.899000	-11.697000	20.923400	0.000904	20.720466
7.004297	-2.995600	3.895800	-11.668000	20.944921	0.000904	20.729189
8.000762	-2.992300	3.893600	-11.649000	20.930053	0.000904	20.746088
9.004672	-3.004000	3.892200	-11.691000	20.939256	0.000902	20.735852
10.007616	-3.012200	3.890000	-11.716000	20.934335	0.000902	20.719549
11.005832	-3.003200	3.888000	-11.675000	20.943906	0.000901	20.742399
12.002748	-3.002000	3.886600	-11.666000	20.945705	0.000899	20.739930
13.003841	-3.000900	3.885800	-11.659000	20.954507	0.000899	20.751105
14.006630	-2.996500	3.883300	-11.635000	20.964161	0.000898	20.740371
15.008800	-3.001900	3.882000	-11.652000	20.973887	0.000897	20.750573
16.006357	-3.017900	3.881400	-11.713000	20.967397	0.000897	20.737443
17.003088	-3.010000	3.880400	-11.679000	20.988624	0.000898	20.752984
18.006641	-2.981300	3.880100	-11.567000	20.978579	0.000896	20.758585
19.003411	-3.004600	3.876400	-11.644000	21.004448	0.000895	20.725662
20.012560	-2.998100	3.877700	-11.625000	20.979763	0.000896	20.728000
21.007243	-2.987600	3.876600	-11.581000	20.992799	0.000893	20.759057
22.005583	-2.994100	3.875500	-11.602000	20.988501	0.000894	20.749543
23.007139	-2.991000	3.874500	-11.587000	21.008394	0.000892	20.746680
24.009007	-2.999200	3.873500	-11.616000	21.008452	0.000892	20.742470
25.007814	-3.018000	3.872100	-11.685000	21.013453	0.000892	20.753162
26.004373	-3.010500	3.872200	-11.656000	21.026097	0.000893	20.741627
27.004524	-2.995300	3.872000	-11.597000	21.030455	0.000892	20.733657
28.004605	-2.999800	3.871200	-11.611000	21.040826	0.000891	20.758256
29.012594	-2.985600	3.871800	-11.558000	21.043016	0.000893	20.750489
30.012354	-3.024300	3.868600	-11.698000	21.054394	0.000890	20.750963
31.010070	-3.015900	3.868700	-11.667000	21.053837	0.000892	20.741871
32.028326	-2.989600	3.867900	-11.562000	21.055880	0.000889	20.763356
33.014408	-3.003000	3.868100	-11.615000	21.066212	0.000890	20.763258
34.009697	-2.976000	3.868100	-11.511000	21.056018	0.000890	20.745950
35.009157	-3.021000	3.865800	-11.678000	21.087813	0.000890	20.756889
36.015122	-2.974600	3.868500	-11.506000	21.077751	0.000890	20.755834
37.010900	-2.996300	3.867000	-11.585000	21.090517	0.000889	20.742524
38.012495	-2.998400	3.865200	-11.587000	21.101820	0.000890	20.754779
39.010922	-3.010800	3.865000	-11.635000	21.119228	0.000887	20.760338
40.013546	-2.997600	3.865000	-11.585000	21.109591	0.000888	20.752121
41.023554	-2.995700	3.864100	-11.575000	21.132745	0.000889	20.767695
42.014710	-2.990300	3.864400	-11.555000	21.142953	0.000887	20.743766
43.015189	-2.999300	3.863400	-11.587000	21.140696	0.000889	20.774701
44.017878	-2.996400	3.862000	-11.571000	21.127874	0.000887	20.770883
45.016873	-3.004600	3.861600	-11.602000	21.158529	0.000887	20.760770
46.010242	-2.984300	3.863300	-11.528000	21.171556	0.000888	20.780914
47.014627	-3.007800	3.860800	-11.612000	21.165214	0.000887	20.745645
48.016001	-3.003100	3.861300	-11.595000	21.167159	0.000888	20.767980
49.016571	-3.024800	3.859600	-11.673000	21.186666	0.000888	20.754303
50.013870	-2.997400	3.859000	-11.565000	21.197822	0.000888	20.744599
51.020604	-3.014000	3.859300	-11.631000	21.193073	0.000887	20.746012
52.018535	-2.988900	3.860100	-11.536000	21.193694	0.000887	20.771290
53.022419	-2.994900	3.858200	-11.553000	21.210054	0.000886	20.755888
54.022727	-2.985000	3.857600	-11.514000	21.220350	0.000887	20.753386
55.019303	-3.001200	3.858200	-11.577000	21.219730	0.000886	20.744704
56.019387	-3.012100	3.857800	-11.619000	21.221298	0.000885	20.771404
57.019454	-3.005200	3.856800	-11.590000	21.239007	0.000888	20.772050
58.022503	-3.015200	3.855100	-11.623000	21.237634	0.000885	20.769728
59.021060	-3.010300	3.855700	-11.605000	21.248257	0.000885	20.774665
60.020161	-3.002600	3.855700	-11.576000	21.250358	0.000884	20.762542
61.017269	-2.981800	3.856700	-11.498000	21.250373	0.000884	20.766825
62.022602	-3.009400	3.855300	-11.601000	21.259183	0.000885	20.750507
63.025527	-3.010500	3.854400	-11.602000	21.273384	0.000885	20.782259
64.020839	-2.999000	3.855400	-11.560000	21.264216	0.000885	20.759810
65.018962	-3.012900	3.855100	-11.614000	21.280616	0.000886	20.780959
66.020352	-3.001200	3.854500	-11.566000	21.290733	0.000885	20.771640
67.022007	-2.986600	3.855200	-11.514000	21.309634	0.000885	20.765418
68.024470	-3.015600	3.853100	-11.619000	21.305344	0.000885	20.770135
69.021576	-2.998100	3.854600	-11.556000	21.348725	0.000885	20.763277
70.018049	-3.015500	3.852900	-11.618000	21.317813	0.000884	20.765066
71.021565	-3.009500	3.852300	-11.592000	21.346127	0.000887	20.764470
72.027501	-2.999600	3.853100	-11.557000	21.362910	0.000886	20.777468
73.024044	-2.999600	3.852400	-11.555000	21.356226	0.000885	20.773152
74.021352	-2.984000	3.852700	-11.496000	21.358220	0.000885	20.771827
75.021575	-3.008000	3.851200	-11.583000	21.381916	0.000885	20.768982
76.022431	-2.991100	3.852500	-11.521000	21.391076	0.000885	20.788104
77.020800	-2.992900	3.851800	-11.527000	21.401166	0.000885	20.752680
78.022137	-2.991600	3.852200	-11.523000	21.435589	0.000888	20.785226
79.019663	-2.981700	3.851500	-11.483000	21.426463	0.000885	20.787949
80.028997	-2.989600	3.850200	-11.509000	21.458360	0.000887	20.784302
81.023250	-3.002400	3.850100	-11.559000	21.444617	0.000887	20.772448
82.021357	-2.987300	3.851300	-11.504000	21.452249	0.000886	20.779136
83.021846	-2.980600	3.851300	-11.477000	21.469929	0.000887	20.779757
84.024724	-2.996900	3.849900	-11.537000	21.470525	0.000887	20.788888
85.023969	-2.990000	3.850200	-11.510000	21.471048	0.000887	20.792256
86.021225	-2.998200	3.850300	-11.542000	21.496310	0.000886	20.789558
87.024107	-2.986300	3.849300	-11.493000	21.493222	0.000886	20.795003
88.022651	-3.011000	3.849100	-11.589000	21.484635	0.000887	20.797316
89.025291	-2.992900	3.848500	-11.517000	21.505754	0.000888	20.798534
90.024063	-3.012900	3.848000	-11.593000	21.512012	0.000887	20.792468
91.028893	-2.994100	3.848200	-11.521000	21.538099	0.000886	20.802924
92.026833	-2.984000	3.849000	-11.484000	21.522715	0.000887	20.771409
93.030131	-2.999200	3.846600	-11.534000	21.540591	0.000887	20.777916
94.029150	-2.990900	3.847400	-11.505000	21.545867	0.000885	20.793154
95.023545	-2.993100	3.847500	-11.514000	21.550802	0.000888	20.785289
96.032273	-3.004000	3.847000	-11.554000	21.578129	0.000888	20.780392
97.029253	-2.994400	3.846600	-11.516000	21.578847	0.000885	20.785378
98.041856	-2.988400	3.846200	-11.491000	21.601371	0.000888	20.781838
99.025613	-2.994400	3.845500	-11.514000	21.589125	0.000888	20.793292
100.028607	-3.010800	3.845800	-11.577000	21.566659	0.000889	20.799260
101.027752	-3.015100	3.844600	-11.591000	21.608142	0.000889	20.806159
102.030078	-3.021300	3.845100	-11.615000	21.626499	0.000887	20.800820
103.028714	-3.012300	3.844800	-11.580000	21.603331	0.000889	20.798973
104.025151	-3.008900	3.843700	-11.564000	21.614751	0.000889	20.803763
105.032059	-2.999400	3.845100	-11.532000	21.623598	0.000890	20.804556
106.028264	-2.999300	3.844700	-11.531000	21.637959	0.000890	20.794271
107.028701	-3.011000	3.844900	-11.575000	21.633426	0.000889	20.779777
108.031507	-3.009300	3.843600	-11.565000	21.643645	0.000891	20.775305
109.029800	-2.981900	3.844100	-11.461000	21.645067	0.000891	20.807548
110.027929	-3.012500	3.842800	-11.575000	21.648294	0.000890	20.822631
111.035271	-3.004300	3.843600	-11.546000	21.674002	0.000891	20.797150
112.030267	-3.005500	3.843300	-11.550000	21.678208	0.000889	20.810842
113.029655	-2.983500	3.843900	-11.466000	21.697331	0.000892	20.799160
114.034560	-3.001400	3.841700	-11.529000	21.690624	0.000891	20.807621
115.029491	-3.028400	3.841600	-11.631000	21.675365	0.000891	20.796144
116.031406	-3.006700	3.840300	-11.545000	21.709200	0.000891	20.814357
117.030287	-2.985300	3.842100	-11.468000	21.701570	0.000891	20.815731
118.028036	-3.001900	3.841100	-11.529000	21.718920	0.000892	20.794688
119.027195	-2.996800	3.841000	-11.510000	21.716004	0.000892	20.821167
120.031565	-3.010600	3.841300	-11.563000	21.741172	0.000892	20.807948
121.031768	-3.012800	3.840800	-11.570000	21.753906	0.000891	20.833020
122.032619	-3.023800	3.839300	-11.608000	21.761608	0.000893	20.790469
123.033998	-2.976300	3.841000	-11.430000	21.755278	0.000892	20.823963
124.031869	-3.021400	3.839200	-11.599000	21.777071	0.000893	20.822066
125.033614	-3.014500	3.840100	-11.575000	21.772709	0.000893	20.798261
126.038730	-3.001900	3.840500	-11.527000	21.773926	0.000893	20.797108
127.031720	-2.986300	3.841000	-11.469000	21.803371	0.000896	20.790069
128.033613	-3.003500	3.839600	-11.531000	21.804613	0.000896	20.821182
129.038816	-2.994300	3.839000	-11.494000	21.807030	0.000895	20.807481
130.031872	-2.993700	3.838300	-11.489000	21.814986	0.000894	20.824927
131.033526	-2.977400	3.838500	-11.427000	21.829247	0.000896	20.818812
132.036139	-3.009400	3.837500	-11.548000	21.829434	0.000898	20.819947
133.031088	-3.002800	3.838300	-11.524000	21.836597	0.000896	20.810048
134.034543	-3.003500	3.838400	-11.528000	21.833918	0.000896	20.820642
135.042792	-3.014700	3.837800	-11.568000	21.853316	0.000898	20.832471
136.046511	-2.989300	3.837900	-11.471000	21.834767	0.000896	20.813906
137.039693	-2.997700	3.836900	-11.501000	21.827530	0.000898	20.826102
138.037352	-3.005900	3.837100	-11.533000	21.857292	0.000897	20.828865
139.032315	-3.011700	3.836300	-11.553000	21.861760	0.000898	20.830492
140.036001	-2.985300	3.837100	-11.454000	21.871815	0.000898	20.822538
141.040659	-2.987800	3.836800	-11.462000	21.880480	0.000899	20.819358
142.039127	-3.000600	3.836100	-11.509000	21.904899	0.000897	20.825308
143.036741	-3.014600	3.835300	-11.561000	21.917518	0.000900	20.838412
144.032873	-3.008800	3.836300	-11.542000	21.911702	0.000900	20.819790
145.039181	-3.004200	3.834500	-11.518000	21.933018	0.000900	20.833066
146.036321	-3.022000	3.833500	-11.584000	21.910150	0.000900	20.832934
147.041898	-2.995200	3.833400	-11.481000	21.949286	0.000901	20.828487
148.036941	-2.984800	3.835900	-11.448000	21.945921	0.000902	20.820378
149.039448	-2.990400	3.834900	-11.467000	21.957935	0.000901	20.834773
150.038085	-2.971100	3.835400	-11.394000	21.963365	0.000900	20.834520
151.038873	-2.982800	3.833800	-11.433000	21.962287	0.000901	20.845293
152.040377	-3.001100	3.834300	-11.506000	21.966868	0.000904	20.833284
153.039223	-2.985700	3.834200	-11.447000	21.983871	0.000904	20.855994
154.040264	-2.998600	3.831500	-11.487000	22.007325	0.000903	20.825894
155.040288	-2.991500	3.833900	-11.467000	21.999028	0.000902	20.855520
156.042819	-3.032900	3.832600	-11.622000	21.997501	0.000904	20.846404
157.049224	-2.999200	3.832200	-11.492000	22.016814	0.000905	20.848194
158.038536	-2.996800	3.832800	-11.485000	21.979199	0.000905	20.847998
159.051606	-3.003700	3.831700	-11.508000	21.995066	0.000904	20.854398
160.042614	-2.989100	3.832700	-11.456000	21.976397	0.000907	20.849461
161.044843	-3.018700	3.831500	-11.564000	21.998324	0.000905	20.817832
162.041478	-3.025300	3.830600	-11.588000	22.022667	0.000907	20.835088
163.048676	-3.003200	3.832000	-11.507000	22.026457	0.000906	20.834140
164.041679	-3.001600	3.829900	-11.495000	22.028335	0.000909	20.846452
165.043697	-3.006200	3.829400	-11.511000	22.043483	0.000907	20.855452
166.047076	-3.004500	3.830800	-11.508000	22.048440	0.000907	20.836707
167.045975	-2.975200	3.832200	-11.400000	22.044397	0.000908	20.848781
168.039700	-3.020600	3.828600	-11.564000	22.042045	0.000909	20.847374
169.045746	-3.016000	3.829100	-11.547000	22.075902	0.000909	20.839069
170.040655	-2.990100	3.830700	-11.454000	22.072358	0.000909	20.833624
171.044498	-3.005400	3.829900	-11.508000	22.100317	0.000909	20.834114
172.047140	-3.004300	3.829500	-11.503000	22.072104	0.000911	20.819146
173.040479	-3.022400	3.828900	-11.571000	22.065220	0.000909	20.835487
174.045231	-3.014300	3.828100	-11.538000	22.110728	0.000910	20.820829
175.049260	-2.990900	3.828700	-11.450000	22.078996	0.000910	20.823674
176.043229	-3.019700	3.826700	-11.554000	22.112140	0.000913	20.838838
177.046671	-2.990300	3.828500	-11.448000	22.126929	0.000912	20.834677
178.050651	-2.981600	3.828700	-11.414000	22.119302	0.000912	20.820404
179.039906	-2.997200	3.829100	-11.476000	22.127843	0.000914	20.809515
180.043269	-2.975800	3.829800	-11.395000	22.142598	0.000915	20.808640
181.046708	-2.986500	3.827200	-11.430000	22.156650	0.000915	20.831243
182.041041	-3.008700	3.826200	-11.510000	22.159394	0.000916	20.832093
183.045288	-2.979800	3.828000	-11.405000	22.161933	0.000915	20.808083
184.048801	-2.991300	3.828000	-11.449000	22.171747	0.000915	20.836875
185.044587	-2.998800	3.826900	-11.475000	22.168799	0.000916	20.822544
186.044962	-3.028500	3.826600	-11.587000	22.156853	0.000915	20.825282
187.053415	-2.992800	3.827500	-11.453000	22.166627	0.000919	20.829852
188.049621	-3.005300	3.825800	-11.497000	22.177193	0.000916	20.817197
189.045017	-2.987600	3.826100	-11.430000	22.196879	0.000918	20.820786
190.046275	-3.012600	3.824700	-11.521000	22.182663	0.000918	20.825519
191.043858	-2.989400	3.825300	-11.434000	22.214221	0.000918	20.838149
192.046814	-2.997600	3.826800	-11.470000	22.210824	0.000919	20.807247
193.048374	-3.017000	3.823700	-11.535000	22.222630	0.000919	20.814801
194.047753	-2.997800	3.824500	-11.464000	22.220311	0.000919	20.821488
195.046520	-2.995800	3.826200	-11.461000	22.255706	0.000919	20.822788
196.049181	-3.006100	3.824300	-11.495000	22.252007	0.000921	20.821929
197.051084	-3.006900	3.823900	-11.497000	22.276255	0.000921	20.822027
198.049154	-2.989700	3.823500	-11.429000	22.291082	0.000922	20.814113
199.049153	-3.001200	3.824800	-11.478000	22.316971	0.000923	20.813958
200.047448	-3.002600	3.823500	-11.479000	22.305263	0.000922	20.817408
201.051334	-2.975400	3.822700	-11.373000	22.300119	0.000925	20.817947
202.051189	-2.999600	3.823100	-11.467000	22.311860	0.000925	20.818797
203.050591	-2.987500	3.822000	-11.417000	22.301638	0.000923	20.809984
204.051795	-2.992700	3.821500	-11.435000	22.323460	0.000924	20.813344
205.054860	-2.994600	3.821700	-11.443000	22.307214	0.000927	20.802291
206.047598	-2.989200	3.821900	-11.423000	22.347610	0.000925	20.809550
207.053436	-3.011300	3.821400	-11.506000	22.350989	0.000927	20.815305
208.047605	-3.019900	3.820600	-11.536000	22.362656	0.000926	20.817030
209.049146	-3.019000	3.821600	-11.535000	22.360924	0.000927	20.791115
210.047455	-3.011800	3.821600	-11.509000	22.394045	0.000927	20.794409
211.051255	-2.974100	3.821500	-11.363000	22.382950	0.000929	20.805584
212.053844	-2.990200	3.820600	-11.423000	22.360418	0.000929	20.789185
213.051855	-2.991500	3.821200	-11.429000	22.389366	0.000927	20.806319
214.055607	-3.021600	3.819000	-11.539000	22.420274	0.000928	20.801709
215.055243	-3.033700	3.818200	-11.582000	22.399407	0.000930	20.802150
216.052826	-2.990700	3.820500	-11.424000	22.413032	0.000929	20.802992
217.058067	-2.987500	3.820300	-11.412000	22.433490	0.000931	20.807357
218.054399	-3.010500	3.819300	-11.497000	22.436077	0.000932	20.795724
219.051919	-2.990800	3.820500	-11.425000	22.419808	0.000931	20.805035
220.057439	-3.009500	3.819300	-11.493000	22.450542	0.000931	20.808787
221.054259	-2.977900	3.819000	-11.372000	22.456526	0.000932	20.801977
222.055494	-2.984600	3.818900	-11.397000	22.463350	0.000933	20.803121
223.059251	-2.988300	3.818000	-11.407000	22.474680	0.000933	20.799295
224.060728	-2.986500	3.818600	-11.404000	22.480737	0.000933	20.799197
225.054514	-3.016300	3.815800	-11.509000	22.467309	0.000934	20.799500
226.056935	-2.998700	3.817100	-11.444000	22.474933	0.000935	20.786272
227.056262	-3.020500	3.817000	-11.527000	22.480859	0.000935	20.808328
228.054276	-3.009500	3.815200	-11.480000	22.479937	0.000935	20.802663
229.057029	-3.000300	3.817100	-11.451000	22.498377	0.000935	20.784147
230.055727	-3.000200	3.816800	-11.450000	22.511405	0.000936	20.783443
231.060493	-3.007300	3.816200	-11.476000	22.511609	0.000936	20.800243
232.059027	-2.994200	3.816100	-11.425000	22.507977	0.000939	20.779062
233.060079	-3.022100	3.815500	-11.529000	22.529649	0.000937	20.790809
234.059488	-3.009400	3.816300	-11.483000	22.523510	0.000937	20.779445
235.062375	-3.032700	3.813400	-11.564000	22.514483	0.000939	20.800277
236.059804	-2.996200	3.815400	-11.431000	22.518173	0.000940	20.799230
237.058963	-3.004100	3.815000	-11.458000	22.514279	0.000938	20.775890
238.065075	-2.962900	3.816400	-11.306000	22.516557	0.000937	20.772481
239.059241	-2.994500	3.813800	-11.420000	22.535632	0.000939	20.781629
240.058752	-2.988000	3.815100	-11.399000	22.548464	0.000940	20.779781
241.062218	-3.011600	3.814700	-11.486000	22.540040	0.000940	20.785095
242.066265	-2.996700	3.815100	-11.429000	22.529535	0.000942	20.786902
243.065926	-3.019900	3.812500	-11.512000	22.573809	0.000946	20.766284
244.071302	-3.002700	3.813700	-11.451000	22.575955	0.000942	20.794987
245.062623	-3.005700	3.811800	-11.455000	22.592729	0.000942	20.796140
246.063363	-3.002900	3.811200	-11.444000	22.575988	0.000944	20.776528
247.062751	-2.990100	3.813600	-11.402000	22.604662	0.000942	20.789600
248.062892	-2.986000	3.813500	-11.386000	22.615477	0.000945	20.774354
249.065936	-3.004000	3.812000	-11.449000	22.594027	0.000945	20.777526
250.063300	-2.979700	3.812300	-11.358000	22.602720	0.000945	20.786706
251.064003	-3.004400	3.812600	-11.453000	22.567369	0.000946	20.771215
252.063025	-2.995800	3.811200	-11.416000	22.571010	0.000947	20.765378
253.062996	-3.003200	3.811600	-11.446000	22.545918	0.000947	20.772490
254.071608	-2.994600	3.811000	-11.411000	22.548123	0.000946	20.768534
255.060947	-2.996700	3.811200	-11.420000	22.555518	0.000947	20.774044
256.071131	-2.977500	3.811700	-11.347000	22.526712	0.000947	20.768901
257.065161	-2.999000	3.809600	-11.424000	22.529675	0.000949	20.793206
258.062742	-2.980300	3.811100	-11.357000	22.520304	0.000949	20.763906
259.070564	-3.000900	3.808600	-11.428000	22.550139	0.000949	20.762492
260.070123	-2.998000	3.809200	-11.419000	22.587906	0.000951	20.768075
261.064528	-2.982400	3.809900	-11.362000	22.586299	0.000949	20.779742
262.065956	-2.998000	3.809300	-11.419000	22.603137	0.000951	20.768632
263.069853	-3.025100	3.809000	-11.521000	22.603602	0.000952	20.779529
264.067095	-3.002500	3.809700	-11.437000	22.647620	0.000953	20.769564
265.067475	-3.000600	3.809000	-11.428000	22.647963	0.000951	20.765166
266.068707	-2.989700	3.807700	-11.382000	22.627411	0.000951	20.773979
267.063488	-3.008300	3.807800	-11.454000	22.631647	0.000953	20.752617
268.070153	-2.998800	3.808500	-11.419000	22.637483	0.000955	20.769842
269.070894	-3.006500	3.806800	-11.444000	22.663855	0.000957	20.754056
270.064171	-3.007100	3.807800	-11.449000	22.664173	0.000955	20.768600
271.069972	-3.022100	3.807200	-11.505000	22.665364	0.000955	20.756043
272.070300	-3.011600	3.806400	-11.461000	22.691375	0.000955	20.765027
273.069321	-3.015600	3.806300	-11.477000	22.680872	0.000958	20.777266
274.070412	-2.999200	3.806700	-11.416000	22.700574	0.000959	20.766654
275.075882	-3.003800	3.806300	-11.432000	22.711567	0.000958	20.771503
276.071308	-2.976000	3.807300	-11.330000	22.736386	0.000959	20.772181
277.073885	-3.002000	3.806900	-11.426000	22.735064	0.000959	20.763270
278.070686	-3.000300	3.805700	-11.417000	22.752227	0.000959	20.752961
279.073125	-3.011700	3.806100	-11.461000	22.767276	0.000961	20.759027
280.076510	-3.027400	3.805100	-11.518000	22.748546	0.000960	20.769189
281.075180	-2.998300	3.805600	-11.408000	22.771585	0.000961	20.752912
282.072679	-3.002700	3.803600	-11.419000	22.779616	0.000959	20.765225
283.075429	-2.990300	3.804900	-11.377000	22.808913	0.000962	20.749528
284.076497	-2.999800	3.803400	-11.409000	22.788331	0.000963	20.748825
285.072691	-2.994300	3.803600	-11.388000	22.805746	0.000965	20.754891
286.078880	-2.983300	3.805300	-11.352000	22.807175	0.000963	20.748735
287.073527	-2.999500	3.803400	-11.406000	22.820403	0.000965	20.741598
288.075912	-2.996900	3.802800	-11.396000	22.817343	0.000964	20.759396
289.075112	-3.005200	3.803100	-11.429000	22.815523	0.000965	20.757099
290.072870	-3.015800	3.802700	-11.467000	22.823170	0.000967	20.754802
291.076798	-2.999900	3.802700	-11.406000	22.835051	0.000967	20.764808
292.074225	-2.999600	3.801700	-11.402000	22.836422	0.000965	20.754802
293.077307	-2.981300	3.802200	-11.334000	22.867889	0.000967	20.732270
294.074651	-2.990100	3.801400	-11.366000	22.858619	0.000967	20.740527
295.080464	-2.992100	3.800100	-11.369000	22.868134	0.000967	20.744844
296.074178	-2.989600	3.800900	-11.362000	22.857346	0.000968	20.755848
297.074760	-3.002900	3.799200	-11.407000	22.859630	0.000970	20.734902
298.078985	-2.982300	3.800400	-11.333000	22.853877	0.000969	20.740519
299.073822	-3.016200	3.798100	-11.455000	22.849160	0.000970	20.741483
300.076591	-2.996600	3.798900	-11.382000	22.855542	0.000970	20.744557
301.080779	-3.001400	3.800200	-11.406000	22.860193	0.000971	20.728827
302.077230	-3.014100	3.798600	-11.448000	22.894318	0.000970	20.745947
303.077664	-2.991300	3.799400	-11.364000	22.881833	0.000970	20.736283
304.080495	-3.018800	3.798300	-11.465000	22.882657	0.000972	20.748015
305.078991	-2.995500	3.798800	-11.378000	22.908688	0.000971	20.742799
306.079165	-3.002600	3.799100	-11.406000	22.926297	0.000973	20.745268
307.075616	-3.010500	3.797200	-11.429000	22.917647	0.000973	20.743714
308.078012	-3.002300	3.798200	-11.402000	22.915199	0.000973	20.735097
309.079121	-3.002400	3.797600	-11.400000	22.919654	0.000974	20.749044
310.079624	-2.998300	3.797100	-11.384000	22.945430	0.000973	20.726978
311.081773	-3.009000	3.795800	-11.422000	22.914513	0.000973	20.755273
312.077402	-3.020300	3.796300	-11.464000	22.928311	0.000975	20.749182
313.081967	-2.984400	3.796700	-11.330000	22.918943	0.000974	20.735529
314.080160	-3.028400	3.795100	-11.492000	22.943047	0.000977	20.737867
315.081750	-3.025600	3.794800	-11.480000	22.951614	0.000976	20.722268
316.078499	-3.016500	3.795200	-11.447000	22.953841	0.000977	20.729715
317.084519	-3.016500	3.795400	-11.448000	22.940117	0.000977	20.745363
318.095063	-3.020800	3.793600	-11.459000	22.962515	0.000979	20.737932
319.082368	-3.014600	3.794400	-11.437000	22.971303	0.000977	20.727295
320.085774	-3.026900	3.793900	-11.482000	22.959618	0.000979	20.731710
321.081573	-3.020200	3.793200	-11.455000	22.989702	0.000979	20.741463
322.085506	-2.977000	3.794000	-11.294000	22.986609	0.000980	20.748796
323.085418	-2.985100	3.793600	-11.323000	23.003981	0.000980	20.726371
324.084576	-2.986300	3.794000	-11.329000	23.016652	0.000979	20.725316
325.082564	-3.000900	3.792000	-11.378000	23.032293	0.000977	20.722022
326.087142	-3.000900	3.792600	-11.379000	23.024542	0.000982	20.732273
327.085340	-2.989800	3.794600	-11.344000	23.014881	0.000981	20.705523
328.083005	-3.021700	3.793100	-11.461000	23.011487	0.000980	20.706864
329.091728	-2.988100	3.791600	-11.328000	23.024158	0.000982	20.715292
330.084938	-2.976300	3.792600	-11.287000	23.029021	0.000983	20.725856
331.085231	-2.995600	3.790800	-11.355000	23.028123	0.000982	20.705514
332.088599	-3.010400	3.790800	-11.410000	23.027854	0.000983	20.712832
333.086830	-2.998400	3.790900	-11.365000	23.027650	0.000985	20.725905
334.083376	-3.014500	3.790700	-11.426000	23.064496	0.000983	20.715882
335.090418	-3.002000	3.789200	-11.374000	23.042500	0.000984	20.735568
336.083330	-2.991500	3.790400	-11.337000	23.058818	0.000986	20.737694
337.087079	-3.020700	3.789600	-11.445000	23.050235	0.000984	20.712023
338.090255	-3.020900	3.789200	-11.445000	23.076775	0.000985	20.746205
339.090121	-2.997600	3.788900	-11.357000	23.074760	0.000985	20.717157
340.091016	-3.010000	3.789100	-11.404000	23.063998	0.000986	20.719651
341.092186	-3.007800	3.787600	-11.391000	23.100150	0.000986	20.715572
342.092628	-3.006200	3.788800	-11.389000	23.078154	0.000987	20.713920
343.087500	-3.009800	3.788300	-11.401000	23.080822	0.000989	20.724181
344.094095	-2.994900	3.789500	-11.347000	23.078603	0.000987	20.728595
345.094198	-2.988200	3.788400	-11.320000	23.077135	0.000988	20.708630
346.091427	-2.995800	3.786900	-11.342000	23.072656	0.000988	20.712203
347.095296	-3.004000	3.787900	-11.378000	23.057864	0.000991	20.712081
348.092045	-2.972200	3.788100	-11.258000	23.056493	0.000991	20.711656
349.091053	-3.005100	3.787200	-11.380000	23.066480	0.000992	20.742052
350.096803	-2.989200	3.787000	-11.318000	23.083695	0.000991	20.720894
351.092350	-3.012200	3.784900	-11.399000	23.074728	0.000991	20.714755
352.089351	-2.971900	3.787000	-11.254000	23.071236	0.000992	20.709358
353.094884	-3.002300	3.786500	-11.368000	23.073047	0.000993	20.701689
354.099280	-2.978000	3.786000	-11.274000	23.073398	0.000991	20.712473
355.089811	-2.996700	3.786000	-11.345000	23.083980	0.000994	20.720706
356.097190	-3.014500	3.786500	-11.413000	23.073349	0.000993	20.706260
357.091073	-2.992300	3.784500	-11.324000	23.080936	0.000992	20.733304
358.091218	-2.983900	3.785600	-11.295000	23.109646	0.000995	20.712284
359.094337	-2.994500	3.785100	-11.333000	23.110021	0.000992	20.721670
360.093931	-3.014600	3.783600	-11.405000	23.149646	0.000995	20.706373
361.091629	-3.004000	3.785400	-11.371000	23.159583	0.000993	20.704951
362.095474	-2.977200	3.784300	-11.266000	23.173867	0.000996	20.713576
363.093766	-2.980700	3.783400	-11.275000	23.165799	0.000995	20.705490
364.095120	-3.035800	3.781800	-11.479000	23.175262	0.000995	20.716396
365.100037	-2.983800	3.783100	-11.286000	23.185092	0.000996	20.717712
366.099122	-2.993600	3.782600	-11.322000	23.198520	0.000997	20.719789
367.100104	-3.019000	3.782000	-11.417000	23.188478	0.000996	20.711147
368.098271	-2.984300	3.782800	-11.287000	23.236062	0.000999	20.700036
369.100269	-3.008200	3.780800	-11.372000	23.226794	0.000998	20.715880
370.098889	-3.002000	3.781500	-11.351000	23.211116	0.001000	20.694477
371.102847	-2.979400	3.781000	-11.264000	23.241446	0.000999	20.711123
372.102837	-3.001800	3.779900	-11.345000	23.235180	0.000998	20.690617
373.099251	-3.003300	3.779800	-11.350000	23.226141	0.000999	20.697207
374.101500	-3.006400	3.780500	-11.365000	23.215757	0.001001	20.730899
375.098910	-2.989400	3.779100	-11.296000	23.201929	0.001002	20.709454
376.103563	-3.003700	3.779300	-11.351000	23.208227	0.000999	20.720981
377.106172	-3.006600	3.779700	-11.362000	23.218334	0.001001	20.717359
378.104391	-3.012900	3.778400	-11.383000	23.228939	0.001000	20.698588
379.104482	-2.994700	3.779000	-11.316000	23.219623	0.001002	20.706322
380.106702	-2.986900	3.779100	-11.286000	23.243051	0.001000	20.719844
381.103841	-3.026800	3.776700	-11.430000	23.264986	0.001002	20.718593
382.109415	-3.008100	3.776000	-11.357000	23.240399	0.001003	20.719083
383.106970	-2.984700	3.777500	-11.273000	23.237601	0.001004	20.708692
384.104647	-3.008800	3.776600	-11.363000	23.247023	0.001001	20.711022
385.104485	-2.965800	3.776700	-11.199000	23.231548	0.001002	20.714006
386.104419	-2.979200	3.778300	-11.255000	23.247903	0.001005	20.700524
387.106874	-2.989100	3.776900	-11.287000	23.237519	0.001004	20.710981
388.106840	-3.022100	3.774900	-11.408000	23.249681	0.001001	20.705151
389.105594	-2.970300	3.775500	-11.214000	23.246769	0.001005	20.695593
390.107906	-2.982700	3.776600	-11.263000	23.248408	0.001004	20.712885
391.104406	-3.003100	3.776400	-11.338000	23.264324	0.001003	20.708445
392.107487	-2.998800	3.774400	-11.317000	23.273729	0.001006	20.698430
393.105991	-3.001600	3.775500	-11.331000	23.279593	0.001003	20.702411
394.108258	-3.000600	3.774500	-11.325000	23.286788	0.001006	20.712941
395.107787	-3.001800	3.773000	-11.324000	23.326545	0.001004	20.719596
396.108004	-2.997200	3.774900	-11.313000	23.344409	0.001005	20.717585
397.107182	-3.007900	3.773000	-11.347000	23.353536	0.001006	20.727207
398.108802	-3.026300	3.771000	-11.410000	23.381007	0.001006	20.708747
399.108870	-2.995700	3.774300	-11.305000	23.366651	0.001007	20.724231
400.106053	-3.029000	3.772300	-11.424000	23.380101	0.001006	20.723013
401.108412	-2.991200	3.773100	-11.285000	23.402197	0.001008	20.720977
402.110613	-2.989600	3.772200	-11.277000	23.418363	0.001007	20.724378
403.113835	-2.987500	3.772200	-11.269000	23.431575	0.001007	20.726716
404.114500	-2.998900	3.772000	-11.311000	23.446575	0.001007	20.724681
405.114225	-2.992400	3.771200	-11.284000	23.426249	0.001007	20.724223
406.120342	-2.997200	3.769800	-11.298000	23.421397	0.001007	20.729790
407.114376	-3.006300	3.769500	-11.331000	23.385835	0.001009	20.707896
408.111216	-2.962300	3.771200	-11.169000	23.359938	0.001007	20.721295
409.111453	-2.993700	3.770400	-11.286000	23.364073	0.001010	20.730182
410.115635	-2.988700	3.770800	-11.269000	23.350827	0.001009	20.712163
411.119524	-2.991500	3.769600	-11.276000	23.355998	0.001007	20.725882
412.114312	-2.969400	3.770300	-11.193000	23.373102	0.001008	20.719317
413.119354	-3.011500	3.768700	-11.349000	23.377017	0.001010	20.705696
414.121972	-3.002900	3.769700	-11.318000	23.361202	0.001010	20.717821
415.120824	-3.017300	3.767800	-11.368000	23.408787	0.001010	20.724263
416.113788	-2.995800	3.766800	-11.283000	23.429340	0.001012	20.713095
417.119462	-3.002300	3.766800	-11.307000	23.417604	0.001010	20.716505
418.115799	-2.987300	3.767500	-11.253000	23.430376	0.001010	20.734523
419.115287	-2.984700	3.766500	-11.241000	23.420475	0.001013	20.707054
420.117834	-3.002500	3.766200	-11.306000	23.434984	0.001011	20.726340
421.117178	-2.996800	3.766700	-11.288000	23.446036	0.001012	20.727460
422.117648	-2.986800	3.766200	-11.247000	23.444070	0.001012	20.722170
423.119222	-3.013700	3.764700	-11.345000	23.458139	0.001010	20.741489
424.120800	-3.015800	3.764800	-11.353000	23.476188	0.001014	20.721173
425.116839	-3.004300	3.765500	-11.311000	23.473057	0.001011	20.722301
426.121531	-2.998400	3.765000	-11.289000	23.497230	0.001012	20.706702
427.118160	-3.010200	3.764300	-11.330000	23.494416	0.001012	20.730436
428.118557	-3.000700	3.764500	-11.295000	23.494963	0.001013	20.751847
429.126212	-3.012600	3.763100	-11.336000	23.469101	0.001012	20.720233
430.119181	-3.005300	3.765200	-11.314000	23.472290	0.001014	20.726749
431.123301	-3.011800	3.764200	-11.336000	23.471246	0.001015	20.722383
432.127297	-3.003800	3.763600	-11.304000	23.477869	0.001012	20.718116
433.124489	-3.028200	3.761600	-11.389000	23.455318	0.001014	20.725858
434.118545	-3.001700	3.761700	-11.291000	23.476996	0.001015	20.722931
435.124820	-2.996800	3.764400	-11.280000	23.444797	0.001015	20.732383
436.122571	-2.990800	3.762600	-11.253000	23.454079	0.001014	20.736944
437.123869	-3.010200	3.762300	-11.324000	23.458907	0.001016	20.746052
438.126139	-3.010800	3.760900	-11.321000	23.473596	0.001015	20.727583
439.121384	-3.008200	3.761100	-11.314000	23.480895	0.001015	20.712614
440.123302	-2.999600	3.762300	-11.284000	23.497320	0.001017	20.731925
441.135519	-3.010700	3.759800	-11.319000	23.502622	0.001018	20.734868
442.123478	-3.014400	3.758700	-11.330000	23.486147	0.001016	20.721673
443.120383	-2.993900	3.759200	-11.254000	23.472209	0.001018	20.696320
444.127520	-3.019700	3.757700	-11.346000	23.439512	0.001016	20.720446
445.129575	-3.023700	3.759300	-11.366000	23.470562	0.001017	20.725491
446.127479	-2.998200	3.758500	-11.266000	23.501635	0.001017	20.734827
447.129154	-3.017900	3.758600	-11.342000	23.515564	0.001016	20.732194
448.127968	-3.005900	3.757400	-11.294000	23.495037	0.001017	20.730584
449.124734	-3.004400	3.756300	-11.284000	23.507189	0.001017	20.723798
450.129791	-3.007800	3.757600	-11.299000	23.518158	0.001016	20.720094
451.124694	-3.003500	3.756900	-11.283000	23.528752	0.001018	20.742570
452.123910	-3.007400	3.757000	-11.298000	23.561161	0.001019	20.737124
453.146189	-2.999900	3.756500	-11.268000	23.570899	0.001017	20.734083
454.126656	-3.003200	3.757200	-11.283000	23.525343	0.001019	20.729195
455.127331	-2.997500	3.756400	-11.259000	23.587780	0.001018	20.733936
456.131857	-3.008900	3.756300	-11.302000	23.569431	0.001019	20.725025
457.127619	-3.009800	3.756500	-11.305000	23.588448	0.001018	20.731761
458.127968	-3.001500	3.755500	-11.270000	23.583449	0.001018	20.740027
459.134530	-3.004900	3.755000	-11.282000	23.606732	0.001020	20.760049
460.129779	-3.013500	3.754600	-11.313000	23.610181	0.001017	20.742643
461.128464	-3.021600	3.752400	-11.336000	23.573623	0.001020	20.735866
462.136827	-3.006300	3.753000	-11.281000	23.586190	0.001018	20.738981
463.133411	-3.010900	3.752700	-11.298000	23.613509	0.001019	20.727012
464.131105	-2.979200	3.753600	-11.181000	23.621794	0.001020	20.739112
465.135397	-3.000600	3.753800	-11.262000	23.655839	0.001020	20.719662
466.135261	-2.996900	3.751500	-11.242000	23.662835	0.001021	20.746118
467.131871	-2.994000	3.753200	-11.236000	23.674937	0.001020	20.752086
468.134652	-2.984800	3.751800	-11.197000	23.671928	0.001022	20.739586
469.134346	-2.984600	3.751600	-11.195000	23.684469	0.001022	20.727502
470.130152	-2.990900	3.752100	-11.221000	23.689174	0.001021	20.728426
471.134311	-3.010900	3.750900	-11.293000	23.664296	0.001021	20.722451
472.131961	-2.981900	3.751700	-11.187000	23.654828	0.001022	20.744728
473.135603	-2.995100	3.750300	-11.231000	23.683605	0.001021	20.744655
474.145542	-3.005100	3.749100	-11.264000	23.677774	0.001021	20.758250
475.135640	-3.014300	3.749400	-11.301000	23.670167	0.001022	20.745407
476.136697	-2.993000	3.750400	-11.224000	23.684697	0.001023	20.737689
477.141596	-2.977600	3.749100	-11.162000	23.691392	0.001022	20.743453
478.138974	-2.987600	3.749300	-11.201000	23.729545	0.001019	20.737133
479.135230	-3.000200	3.748900	-11.246000	23.735008	0.001023	20.738344
480.139904	-2.992300	3.747600	-11.212000	23.729439	0.001021	20.748408
481.134490	-3.009100	3.747700	-11.276000	23.759258	0.001020	20.749855
482.138303	-3.001600	3.748500	-11.250000	23.759844	0.001022	20.737166
483.143850	-3.001900	3.747100	-11.247000	23.764231	0.001023	20.733504
484.136855	-2.979200	3.747300	-11.163000	23.779886	0.001023	20.781918
485.144590	-3.009100	3.746000	-11.271000	23.799773	0.001025	20.751596
486.145818	-2.990100	3.746000	-11.200000	23.795639	0.001023	20.752667
487.140473	-2.997000	3.745800	-11.225000	23.826303	0.001024	20.748326
488.141686	-3.009800	3.745400	-11.271000	23.795239	0.001022	20.756060
489.148200	-3.004000	3.745500	-11.251000	23.791081	0.001025	20.746674
490.145318	-3.001200	3.745600	-11.239000	23.816910	0.001025	20.755977
491.144616	-2.987200	3.744500	-11.185000	23.787615	0.001022	20.749364
492.144556	-3.004900	3.744400	-11.250000	23.816160	0.001023	20.755225
493.144712	-3.000800	3.745100	-11.237000	23.834521	0.001024	20.756566
494.141535	-3.001400	3.744700	-11.238000	23.840872	0.001024	20.749183
495.149487	-2.996800	3.744500	-11.220000	23.860945	0.001025	20.752241
496.151368	-3.003600	3.741900	-11.237000	23.851365	0.001023	20.746902
497.149692	-2.986000	3.742900	-11.175000	23.902980	0.001024	20.753140
498.154973	-2.992800	3.743300	-11.202000	23.896303	0.001025	20.769678
499.148818	-3.010600	3.743100	-11.268000	23.910709	0.001025	20.748561
500.145948	-2.996500	3.743000	-11.215000	23.929745	0.001025	20.758167
501.154619	-2.991500	3.740700	-11.188000	23.908711	0.001022	20.764576
502.149829	-2.989400	3.742100	-11.185000	23.900313	0.001026	20.759949
503.144667	-2.994900	3.742400	-11.207000	23.888174	0.001024	20.749673
504.151507	-3.001900	3.739400	-11.225000	23.887000	0.001026	20.766988
505.152046	-3.022900	3.739300	-11.301000	23.872814	0.001026	20.768884
506.150016	-3.003400	3.739900	-11.232000	23.881423	0.001025	20.769457
507.154443	-2.990200	3.742000	-11.187000	23.867156	0.001024	20.761314
508.152550	-2.991000	3.738700	-11.181000	23.854934	0.001023	20.755223
509.150673	-3.016300	3.739500	-11.279000	23.847417	0.001024	20.764755
510.152388	-2.995600	3.739700	-11.202000	23.815539	0.001023	20.738954
511.152302	-2.994600	3.739100	-11.196000	23.821189	0.001024	20.757422
512.148143	-2.994200	3.739400	-11.196000	23.847197	0.001025	20.753629
513.156595	-3.018700	3.737300	-11.281000	23.863022	0.001026	20.757643
514.154680	-2.976600	3.740200	-11.131000	23.872528	0.001024	20.761485
515.152658	-2.988700	3.739800	-11.176000	23.908718	0.001025	20.758894
516.158386	-3.018700	3.736500	-11.278000	23.924966	0.001026	20.763807
517.155012	-2.986900	3.737100	-11.161000	23.938605	0.001025	20.765156
518.153244	-3.010400	3.735400	-11.244000	23.975763	0.001026	20.770176
519.155200	-3.004000	3.736000	-11.222000	23.973848	0.001025	20.751185
520.152798	-3.019800	3.734900	-11.277000	23.977386	0.001027	20.774174
521.156340	-3.004500	3.735000	-11.221000	23.995850	0.001025	20.771827
522.156938	-2.985400	3.735500	-11.150000	23.972307	0.001025	20.763390
523.159093	-3.007700	3.735500	-11.234000	23.983989	0.001025	20.775580
524.159520	-2.992600	3.735300	-11.177000	23.958033	0.001024	20.763775
525.164723	-3.016600	3.732100	-11.257000	23.939062	0.001026	20.780313
526.157304	-3.009000	3.733000	-11.231000	23.915453	0.001026	20.777027
527.158021	-3.020300	3.732100	-11.271000	23.947020	0.001025	20.766956
528.156378	-2.982000	3.733600	-11.133000	23.923948	0.001025	20.758045
529.159295	-3.005800	3.732700	-11.218000	23.933055	0.001025	20.765280
530.158258	-2.968600	3.734300	-11.084000	23.941574	0.001024	20.759598
531.158054	-3.004400	3.733100	-11.215000	23.955857	0.001024	20.793362
532.160147	-2.992400	3.732000	-11.166000	23.959615	0.001026	20.772474
533.157399	-3.023300	3.730500	-11.278000	23.988808	0.001025	20.764765
534.163760	-2.992900	3.731500	-11.167000	23.992770	0.001026	20.799085
535.156896	-2.986000	3.731900	-11.142000	23.986428	0.001026	20.778500
536.157571	-3.030100	3.731200	-11.304000	24.025850	0.001028	20.773464
537.159320	-3.031400	3.728300	-11.300000	23.989404	0.001025	20.770104
538.161573	-3.002500	3.730900	-11.201000	23.986387	0.001025	20.762812
539.163263	-3.008100	3.729200	-11.217000	24.017740	0.001026	20.774813
540.159298	-3.000100	3.728700	-11.185000	24.007069	0.001026	20.775966
541.159260	-3.004000	3.729700	-11.202000	24.003222	0.001023	20.780643
542.163250	-3.006000	3.729100	-11.208000	24.024425	0.001027	20.801432
543.164452	-2.998800	3.729100	-11.182000	24.003157	0.001024	20.769672
544.159302	-2.970600	3.729500	-11.078000	24.036530	0.001026	20.799822
545.163006	-3.010400	3.728100	-11.221000	24.012719	0.001028	20.792064
546.164035	-3.008800	3.727200	-11.213000	24.024238	0.001026	20.791287
547.165301	-3.004700	3.726500	-11.196000	24.028542	0.001026	20.787069
548.166780	-3.018200	3.726800	-11.248000	24.026977	0.001023	20.809681
549.164526	-2.968400	3.729600	-11.070000	24.066993	0.001024	20.792914
550.169973	-3.027500	3.725600	-11.279000	24.048685	0.001025	20.790200
551.165627	-2.986500	3.726400	-11.128000	24.031787	0.001023	20.798384
552.171728	-2.999900	3.726200	-11.177000	24.071909	0.001023	20.778404
553.165879	-3.022800	3.725200	-11.260000	24.048898	0.001023	20.799422
554.165664	-2.986500	3.726000	-11.126000	24.031648	0.001026	20.795874
555.164394	-2.982600	3.725300	-11.110000	24.011196	0.001024	20.785795
556.172137	-2.981600	3.724900	-11.105000	24.016927	0.001025	20.784904
557.165422	-2.973800	3.725100	-11.077000	24.029171	0.001025	20.796709
558.170303	-3.008700	3.724100	-11.204000	24.020547	0.001025	20.789008
559.166797	-3.000300	3.724700	-11.175000	24.023481	0.001026	20.759234
560.168886	-2.992700	3.724100	-11.144000	24.024647	0.001024	20.784585
561.170181	-3.023800	3.724100	-11.259000	24.021990	0.001025	20.798990
562.173343	-3.003400	3.722700	-11.179000	24.026082	0.001023	20.803569
563.170392	-3.003800	3.722900	-11.182000	24.040568	0.001027	20.789647
564.170813	-3.015000	3.722300	-11.221000	24.047620	0.001026	20.791029
565.171592	-2.992600	3.723600	-11.142000	24.078619	0.001026	20.790350
566.168446	-3.012300	3.722000	-11.210000	24.048150	0.001024	20.797724
567.172604	-3.003900	3.722300	-11.181000	24.086861	0.001025	20.799089
568.171348	-3.014700	3.720800	-11.215000	24.097898	0.001025	20.785503
569.171501	-3.011600	3.722600	-11.210000	24.104541	0.001024	20.811132
570.175725	-2.996800	3.721300	-11.151000	24.155428	0.001025	20.801477
571.176275	-2.995500	3.720700	-11.144000	24.137985	0.001023	20.776396
572.173058	-2.991100	3.720500	-11.128000	24.161729	0.001026	20.804478
573.173528	-2.996000	3.719300	-11.142000	24.160417	0.001023	20.794627
574.168875	-2.986800	3.719800	-11.108000	24.169969	0.001025	20.801363
575.170233	-2.997100	3.719100	-11.146000	24.185130	0.001024	20.790017
576.173602	-2.988200	3.719300	-11.112000	24.185529	0.001024	20.816970
577.174844	-3.004100	3.719100	-11.171000	24.197030	0.001023	20.774926
578.173682	-2.986500	3.720000	-11.107000	24.209851	0.001023	20.783992
579.174031	-3.010000	3.717300	-11.188000	24.195864	0.001022	20.811689
580.175938	-2.995500	3.717600	-11.136000	24.180297	0.001025	20.801765
581.173834	-3.010600	3.716500	-11.188000	24.158584	0.001025	20.812704
582.175444	-2.989700	3.717200	-11.112000	24.148510	0.001022	20.811134
583.176609	-2.996500	3.716600	-11.135000	24.166035	0.001024	20.797891
584.171577	-3.020300	3.715300	-11.220000	24.200169	0.001025	20.810317
585.176039	-2.995100	3.716400	-11.130000	24.137377	0.001024	20.811348
586.180399	-3.003000	3.715000	-11.153000	24.117415	0.001024	20.794172
587.173840	-3.012300	3.716000	-11.192000	24.155863	0.001024	20.799069
588.177938	-3.004000	3.714600	-11.157000	24.157909	0.001025	20.806337
589.178464	-2.991100	3.715300	-11.112000	24.168888	0.001023	20.820193
590.181177	-3.003300	3.713800	-11.152000	24.158985	0.001022	20.808364
591.175848	-3.001800	3.715600	-11.153000	24.162825	0.001022	20.817431
592.180486	-2.992600	3.714300	-11.113000	24.139578	0.001023	20.798383
593.178082	-2.999100	3.714600	-11.140000	24.146849	0.001024	20.820374
594.185093	-3.020900	3.711500	-11.211000	24.159711	0.001023	20.809566
595.180731	-3.008900	3.712900	-11.171000	24.162385	0.001023	20.820783
596.175752	-2.990100	3.712400	-11.099000	24.178947	0.001021	20.843557
597.182825	-2.991700	3.713200	-11.108000	24.159369	0.001024	20.823922
598.183702	-3.000400	3.711100	-11.133000	24.193781	0.001021	20.804384
599.181826	-2.958200	3.712900	-10.982000	24.174578	0.001021	20.802667
600.179882	-3.005900	3.710400	-11.152000	24.172956	0.001022	20.820006
601.185553	-2.978000	3.712400	-11.054000	24.183079	0.001023	20.813090
602.177439	-2.999900	3.709500	-11.127000	24.195190	0.001021	20.817177
603.186073	-2.989100	3.710500	-11.090000	24.225795	0.001022	20.821322
604.184636	-2.997100	3.709400	-11.116000	24.226969	0.001021	20.805904
605.175440	-2.985600	3.711600	-11.080000	24.217335	0.001024	20.814733
606.185754	-2.993100	3.709900	-11.103000	24.196307	0.001024	20.824461
607.183554	-3.001300	3.708900	-11.130000	24.202501	0.001023	20.818820
608.181403	-2.974600	3.709500	-11.033000	24.179191	0.001022	20.809664
609.180315	-2.959300	3.711300	-10.981000	24.180250	0.001020	20.825899
610.194295	-3.008800	3.706900	-11.152000	24.192370	0.001021	20.835684
611.177156	-2.997100	3.707400	-11.110000	24.190592	0.001021	20.828686
612.183353	-2.987500	3.708300	-11.077000	24.232412	0.001021	20.828907
613.183706	-3.010300	3.708600	-11.163000	24.217383	0.001021	20.838488
614.185647	-3.002600	3.706800	-11.129000	24.203820	0.001020	20.838160
615.185545	-3.000500	3.708000	-11.124000	24.202915	0.001020	20.830615
616.184130	-3.009600	3.707000	-11.155000	24.215222	0.001020	20.848174
617.181944	-3.013000	3.706300	-11.166000	24.240626	0.001019	20.825767
618.182320	-2.990500	3.706400	-11.083000	24.244701	0.001021	20.829380
619.188021	-2.989300	3.706800	-11.080000	24.265475	0.001019	20.833148
620.184308	-3.000600	3.705400	-11.118000	24.264219	0.001019	20.823828
621.188524	-3.003200	3.704500	-11.125000	24.274015	0.001022	20.838396
622.183740	-2.989100	3.706500	-11.078000	24.276175	0.001019	20.829656
623.183669	-3.004000	3.704400	-11.127000	24.318969	0.001021	20.837496
624.186149	-3.015200	3.704100	-11.168000	24.332546	0.001020	20.841158
625.187551	-3.010200	3.703300	-11.147000	24.341445	0.001021	20.821636
626.194099	-3.039900	3.702700	-11.254000	24.391318	0.001020	20.852700
627.187634	-3.008500	3.702600	-11.138000	24.377904	0.001019	20.829762
628.192940	-3.018200	3.703000	-11.175000	24.363023	0.001020	20.843757
629.187523	-3.026900	3.701100	-11.202000	24.354043	0.001022	20.855610
630.194643	-3.019700	3.703500	-11.183000	24.342690	0.001019	20.811981
631.190707	-2.999300	3.702900	-11.104000	24.323335	0.001018	20.815798
632.201579	-3.016000	3.701700	-11.164000	24.339675	0.001019	20.826973
633.192349	-3.010800	3.701700	-11.143000	24.341459	0.001019	20.838246
634.185010	-3.018900	3.699500	-11.167000	24.347180	0.001019	20.832605
635.192958	-2.996400	3.701900	-11.091000	24.381284	0.001016	20.825567
636.192088	-2.986300	3.700800	-11.050000	24.383949	0.001019	20.804533
637.192654	-2.986600	3.702000	-11.055000	24.401184	0.001017	20.811391
638.192770	-2.983000	3.702200	-11.041000	24.415983	0.001018	20.814383
639.198934	-3.005100	3.700200	-11.118000	24.404721	0.001017	20.810198
640.194027	-2.998800	3.698800	-11.091000	24.387152	0.001017	20.795891
641.188044	-3.000400	3.700000	-11.100000	24.378342	0.001019	20.812658
642.195230	-3.009600	3.698100	-11.129000	24.355835	0.001016	20.810942
643.191822	-2.985900	3.697800	-11.040000	24.319464	0.001016	20.804328
644.191642	-3.010000	3.696700	-11.126000	24.313572	0.001017	20.809797
645.199517	-2.999100	3.697900	-11.089000	24.273394	0.001017	20.796521
646.194304	-3.024000	3.697300	-11.179000	24.280362	0.001016	20.812994
647.191502	-2.984600	3.695600	-11.028000	24.301861	0.001014	20.799947
648.196858	-3.012600	3.695900	-11.133000	24.303801	0.001016	20.794780
649.195728	-3.010000	3.697900	-11.129000	24.293606	0.001018	20.793562
650.192818	-2.997700	3.696000	-11.079000	24.306661	0.001014	20.818986
651.195580	-3.008100	3.696500	-11.118000	24.302831	0.001015	20.805187
652.194712	-3.022300	3.695400	-11.168000	24.328135	0.001017	20.811130
653.195291	-2.991400	3.696600	-11.057000	24.372517	0.001014	20.811556
654.198887	-2.989100	3.695800	-11.045000	24.384211	0.001014	20.800528
655.196944	-2.994900	3.695200	-11.065000	24.419039	0.001014	20.806070
656.195745	-3.021700	3.694500	-11.163000	24.432925	0.001014	20.792500
657.198603	-3.011800	3.692200	-11.119000	24.447177	0.001016	20.798263
658.196928	-3.028700	3.691700	-11.180000	24.438670	0.001013	20.799686
659.193128	-3.012600	3.692700	-11.123000	24.442630	0.001014	20.784219
660.202611	-3.007400	3.693200	-11.106000	24.426985	0.001012	20.785118
661.195495	-2.997400	3.692200	-11.066000	24.422365	0.001015	20.777638
662.197792	-3.008600	3.691300	-11.104000	24.445149	0.001014	20.788642
663.201900	-3.006900	3.692200	-11.101000	24.440194	0.001014	20.806905
664.197284	-2.987800	3.691100	-11.027000	24.449524	0.001012	20.802515
665.194832	-2.989100	3.691100	-11.032000	24.453289	0.001013	20.797757
666.193535	-2.996100	3.691700	-11.058000	24.438678	0.001014	20.797798
667.197856	-2.992600	3.690400	-11.042000	24.451195	0.001014	20.791863
668.195915	-3.009800	3.690500	-11.106000	24.444057	0.001013	20.794659
669.200092	-3.009300	3.690700	-11.105000	24.434083	0.001013	20.786075
670.196985	-3.026000	3.689200	-11.163000	24.429463	0.001011	20.784759
671.196467	-3.002800	3.690400	-11.080000	24.423465	0.001012	20.780165
672.197524	-3.028600	3.687600	-11.166000	24.425112	0.001011	20.790825
673.196611	-3.010100	3.690100	-11.107000	24.474858	0.001011	20.792370
674.198400	-3.005200	3.690300	-11.089000	24.479886	0.001013	20.785086
675.201116	-2.973200	3.688400	-10.966000	24.458171	0.001012	20.772309
676.201329	-2.985200	3.688600	-11.010000	24.465863	0.001013	20.794251
677.197371	-3.003500	3.686900	-11.072000	24.457307	0.001013	20.797521
678.202435	-3.007500	3.687300	-11.088000	24.475837	0.001014	20.789558
679.200264	-2.994700	3.687900	-11.043000	24.487033	0.001011	20.782773
680.203331	-2.987500	3.686800	-11.012000	24.481541	0.001010	20.806187
681.200520	-3.004000	3.687200	-11.076000	24.452141	0.001011	20.809408
682.200293	-2.996300	3.686700	-11.045000	24.427989	0.001009	20.778539
683.202687	-3.005900	3.687000	-11.082000	24.436521	0.001010	20.773348
684.203529	-2.998600	3.686600	-11.053000	24.415652	0.001011	20.769481
685.203193	-2.996000	3.686600	-11.044000	24.465204	0.001009	20.768933
686.199902	-2.990300	3.685200	-11.019000	24.503183	0.001009	20.771475
687.210840	-2.998800	3.685700	-11.052000	24.509311	0.001009	20.762925
688.202380	-2.995700	3.685100	-11.037000	24.508960	0.001007	20.776798
689.204590	-2.990400	3.686200	-11.022000	24.488093	0.001009	20.780043
690.202926	-3.005000	3.685400	-11.072000	24.459989	0.001010	20.778875
691.205575	-2.993200	3.685400	-11.029000	24.483163	0.001008	20.775571
692.205000	-3.001700	3.683800	-11.056000	24.471755	0.001009	20.790205
693.207577	-2.999300	3.682700	-11.045000	24.485110	0.001007	20.765197
694.207101	-3.004900	3.683000	-11.066000	24.469792	0.001006	20.792503
695.206285	-3.003100	3.683000	-11.060000	24.468243	0.001008	20.775776
696.207294	-2.987400	3.681600	-10.997000	24.488370	0.001008	20.777951
697.205267	-3.002000	3.683000	-11.056000	24.500234	0.001008	20.777526
698.209476	-3.003200	3.681000	-11.054000	24.484997	0.001006	20.790214
699.205139	-2.988000	3.681700	-11.000000	24.520262	0.001007	20.774387
700.209198	-2.990000	3.682500	-11.010000	24.535882	0.001006	20.782946
701.205553	-3.001100	3.680600	-11.045000	24.523122	0.001005	20.768721
702.210066	-3.001300	3.680400	-11.046000	24.532150	0.001004	20.778253
703.206055	-3.010800	3.680100	-11.079000	24.535784	0.001006	20.759614
704.207845	-2.994700	3.680300	-11.021000	24.527147	0.001005	20.759009
705.209864	-3.006700	3.680100	-11.062000	24.509091	0.001006	20.786886
706.208548	-3.012700	3.679000	-11.083000	24.483571	0.001006	20.769342
707.209943	-3.026500	3.679500	-11.133000	24.467624	0.001005	20.758559
708.207538	-3.006800	3.679400	-11.062000	24.479219	0.001004	20.786788
709.206770	-3.019800	3.677800	-11.104000	24.480662	0.001003	20.756466
710.209613	-2.979200	3.679200	-10.960000	24.521647	0.001005	20.755387
711.210058	-3.023400	3.677500	-11.116000	24.522869	0.001005	20.763726
712.211215	-3.030300	3.677100	-11.141000	24.530186	0.001003	20.752575
713.212963	-3.008700	3.677400	-11.063000	24.496877	0.001006	20.753768
714.211611	-3.003500	3.677800	-11.044000	24.486724	0.001004	20.771558
715.214635	-2.988000	3.677300	-10.987000	24.474909	0.001004	20.771083
716.212690	-3.000300	3.676300	-11.029000	24.492900	0.001004	20.758788
717.209218	-3.007100	3.676400	-11.054000	24.520058	0.001003	20.745732
718.211526	-3.021500	3.674600	-11.101000	24.541821	0.001005	20.767568
719.214870	-3.025900	3.675000	-11.119000	24.567813	0.001002	20.769465
720.228151	-2.996100	3.675400	-11.010000	24.593233	0.001002	20.762729
721.219800	-3.000100	3.676300	-11.028000	24.578209	0.001005	20.754766
722.215761	-2.991900	3.676100	-10.997000	24.557660	0.001003	20.759278
723.216660	-2.978300	3.676000	-10.947000	24.554230	0.001003	20.746827
724.218013	-3.001700	3.674200	-11.028000	24.577158	0.001001	20.755133
725.216664	-3.002200	3.672900	-11.026000	24.559477	0.001001	20.780542
726.211421	-2.999400	3.673100	-11.015000	24.573548	0.001002	20.775694
727.213052	-2.983100	3.673800	-10.958000	24.601420	0.001003	20.757193
728.213840	-2.996900	3.672700	-11.005000	24.617447	0.001001	20.744350
729.215036	-2.988400	3.673400	-10.976000	24.622286	0.001000	20.745412
730.220276	-2.964900	3.674000	-10.893000	24.610464	0.001000	20.752990
731.216511	-3.017200	3.671600	-11.076000	24.577515	0.001000	20.752173
732.217213	-3.009300	3.672700	-11.051000	24.607376	0.001000	20.759849
733.217650	-3.001000	3.671700	-11.018000	24.576928	0.001000	20.745419
734.218586	-3.010500	3.671500	-11.052000	24.624924	0.000998	20.762285
735.214538	-2.997100	3.670400	-10.999000	24.590176	0.000999	20.773885
736.220275	-2.988800	3.670400	-10.969000	24.626333	0.000999	20.748525
737.215168	-3.003300	3.669800	-11.021000	24.642946	0.000999	20.743383
738.218461	-3.012900	3.670400	-11.057000	24.599585	0.000999	20.738755
739.226568	-3.009800	3.670900	-11.047000	24.627685	0.000998	20.744192
740.214281	-3.011400	3.669100	-11.047000	24.636077	0.000997	20.744078
741.220186	-3.007400	3.669300	-11.033000	24.649952	0.000996	20.752784
742.224600	-3.011700	3.669100	-11.049000	24.648550	0.000995	20.749007
743.218578	-2.991200	3.670200	-10.977000	24.649145	0.000995	20.737275
744.219274	-3.013200	3.666800	-11.047000	24.674384	0.000997	20.752170
745.223655	-3.012900	3.668300	-11.051000	24.680380	0.000995	20.737324
746.215919	-2.985000	3.667300	-10.946000	24.677643	0.000997	20.743112
747.219191	-3.012500	3.666600	-11.045000	24.695044	0.000996	20.714579
748.219366	-3.015900	3.666300	-11.056000	24.664175	0.000995	20.753306
749.224952	-3.020400	3.666400	-11.073000	24.657389	0.000996	20.754557
750.219378	-2.996000	3.668100	-10.989000	24.637762	0.000994	20.728698
751.221062	-3.005600	3.666500	-11.019000	24.642015	0.000995	20.746717
752.225502	-2.994500	3.666600	-10.978000	24.660908	0.000995	20.743863
753.222816	-3.022000	3.663700	-11.071000	24.693365	0.000992	20.752726
754.226620	-2.978200	3.666400	-10.918000	24.722587	0.000994	20.742694
755.221699	-3.010900	3.666000	-11.037000	24.712868	0.000993	20.729148
756.219989	-2.986700	3.667000	-10.951000	24.691198	0.000994	20.753870
757.225125	-2.993200	3.666100	-10.972000	24.667450	0.000996	20.753747
758.224812	-3.001100	3.663600	-10.993000	24.692917	0.000994	20.736154
759.222464	-3.030900	3.664200	-11.105000	24.696322	0.000993	20.725346
760.224872	-3.003700	3.664300	-11.005000	24.691597	0.000993	20.731510
761.226079	-3.024400	3.662800	-11.076000	24.700029	0.000994	20.750878
762.223391	-3.010800	3.662700	-11.026000	24.691621	0.000992	20.733431
763.223912	-3.026900	3.662500	-11.085000	24.698660	0.000991	20.745711
764.220482	-3.031300	3.663000	-11.103000	24.744264	0.000992	20.740740
765.224071	-3.016900	3.662700	-11.048000	24.734994	0.000993	20.755620
766.228921	-2.988900	3.662300	-10.945000	24.734220	0.000992	20.724495
767.227264	-3.008000	3.662800	-11.017000	24.696469	0.000991	20.738296
768.224607	-3.034500	3.661200	-11.109000	24.684925	0.000990	20.752316
769.231019	-2.987100	3.661500	-10.936000	24.676428	0.000991	20.737151
770.226621	-3.023500	3.660200	-11.066000	24.693853	0.000990	20.730929
771.224716	-3.016900	3.660800	-11.043000	24.681544	0.000989	20.745604
772.227751	-3.009700	3.659600	-11.014000	24.702538	0.000991	20.727316
773.225922	-2.994600	3.660700	-10.961000	24.721292	0.000990	20.736653
774.226163	-3.003700	3.660000	-10.993000	24.752834	0.000988	20.716622
775.230024	-2.979100	3.662000	-10.908000	24.770446	0.000989	20.736669
776.226786	-2.994100	3.659800	-10.957000	24.802892	0.000987	20.738410
777.238507	-3.000900	3.659200	-10.980000	24.834391	0.000987	20.727348
778.227778	-2.991500	3.660800	-10.949000	24.838302	0.000987	20.712305
779.224688	-2.996900	3.659600	-10.967000	24.869426	0.000986	20.729318
780.227671	-3.005700	3.659200	-10.998000	24.853249	0.000987	20.704072
781.230352	-2.999900	3.659800	-10.979000	24.899066	0.000986	20.725402
782.225111	-3.002600	3.658700	-10.985000	24.889993	0.000986	20.724830
783.231325	-3.012700	3.657800	-11.019000	24.889520	0.000985	20.719140
784.230022	-3.023500	3.656000	-11.053000	24.862918	0.000987	20.720889
785.230444	-3.006700	3.656900	-10.993000	24.869825	0.000986	20.741573
786.230062	-3.002000	3.657800	-10.978000	24.849559	0.000985	20.720758
787.231383	-2.978800	3.657400	-10.893000	24.879167	0.000985	20.724396
788.227548	-3.012100	3.656100	-11.011000	24.824339	0.000985	20.737649
789.230503	-3.005600	3.655400	-10.985000	24.795022	0.000984	20.721028
790.233339	-3.005200	3.654500	-10.981000	24.812870	0.000984	20.722818
791.227719	-3.003600	3.654800	-10.977000	24.841869	0.000983	20.725843
792.233986	-2.995300	3.655200	-10.947000	24.842406	0.000984	20.723063
793.231239	-3.005200	3.653900	-10.979000	24.821105	0.000983	20.717333
794.237799	-2.995500	3.655400	-10.949000	24.860090	0.000983	20.732751
795.234951	-3.016400	3.654600	-11.022000	24.834709	0.000984	20.716760
796.229830	-3.014000	3.653700	-11.011000	24.869612	0.000982	20.720970
797.233734	-3.017100	3.652500	-11.019000	24.856156	0.000981	20.724061
798.232680	-2.990000	3.653800	-10.922000	24.879012	0.000983	20.716654
799.234087	-3.035800	3.651000	-11.082000	24.891939	0.000981	20.715403
800.230856	-2.998900	3.652800	-10.953000	24.871201	0.000981	20.720668
801.232515	-2.994200	3.653400	-10.938000	24.860505	0.000981	20.718943
802.233603	-3.006900	3.651700	-10.979000	24.817317	0.000981	20.697882
803.233011	-3.020300	3.650400	-11.025000	24.818588	0.000980	20.683983
804.232850	-3.006200	3.650900	-10.975000	24.822791	0.000979	20.712860
805.231750	-3.005400	3.650500	-10.971000	24.808536	0.000982	20.704717
806.239507	-2.999500	3.651600	-10.952000	24.842178	0.000976	20.708134
807.234511	-3.005300	3.651500	-10.972000	24.847204	0.000979	20.706066
808.236266	-3.017000	3.650000	-11.010000	24.769924	0.000981	20.712909
809.232319	-3.007500	3.651400	-10.981000	24.740133	0.000980	20.718101
810.232914	-3.001500	3.650400	-10.955000	24.779259	0.000978	20.712794
811.236000	-2.987200	3.649700	-10.901000	24.778118	0.000980	20.703114
812.234487	-2.989100	3.650800	-10.912000	24.751236	0.000977	20.713121
813.233984	-3.002200	3.649800	-10.957000	24.757769	0.000978	20.714462
814.235084	-3.015900	3.649000	-11.005000	24.748237	0.000976	20.718647
815.233387	-3.003100	3.648400	-10.956000	24.773922	0.000977	20.710284
816.234749	-2.994000	3.647800	-10.920000	24.755145	0.000977	20.700448
817.238206	-2.990500	3.648200	-10.909000	24.766183	0.000977	20.707733
818.233223	-2.998500	3.647500	-10.936000	24.754664	0.000976	20.717036
819.238810	-3.007600	3.647200	-10.967000	24.788324	0.000976	20.704821
820.234713	-3.001100	3.647500	-10.945000	24.811572	0.000977	20.698755
821.237273	-2.988900	3.647600	-10.902000	24.795460	0.000974	20.702499
822.240805	-3.000900	3.647600	-10.945000	24.809357	0.000975	20.717395
823.235791	-2.985500	3.645900	-10.884000	24.827790	0.000976	20.699858
824.239182	-3.000900	3.645900	-10.941000	24.823465	0.000975	20.705475
825.239021	-2.967900	3.646200	-10.820000	24.802896	0.000975	20.726559
826.260470	-2.998100	3.644300	-10.925000	24.827578	0.000974	20.716241
827.241552	-2.992100	3.644500	-10.903000	24.835496	0.000973	20.702376
828.242188	-3.012800	3.645500	-10.982000	24.870342	0.000973	20.711745
829.239024	-3.004200	3.643100	-10.944000	24.847004	0.000974	20.738110
830.240506	-2.999500	3.644900	-10.932000	24.860982	0.000974	20.732224
831.242500	-3.012300	3.644800	-10.978000	24.889320	0.000972	20.708032
832.250148	-3.016000	3.643500	-10.988000	24.872263	0.000972	20.720786
833.242912	-3.017700	3.642900	-10.992000	24.857210	0.000970	20.711368
834.246205	-3.008000	3.644400	-10.961000	24.857780	0.000971	20.699137
835.247957	-3.001700	3.642700	-10.932000	24.875407	0.000972	20.709716
836.247064	-2.954100	3.644400	-10.765000	24.881784	0.000970	20.717065
837.244669	-2.990100	3.643000	-10.892000	24.862195	0.000970	20.720638
838.243966	-2.977500	3.643800	-10.849000	24.855051	0.000971	20.717736
839.251575	-3.001000	3.641700	-10.928000	24.837921	0.000971	20.715242
840.250250	-3.016700	3.641500	-10.984000	24.847760	0.000971	20.720850
841.252186	-3.004800	3.641800	-10.941000	24.866463	0.000968	20.712119
842.246598	-2.995800	3.642200	-10.910000	24.878167	0.000967	20.712961
843.249049	-2.979700	3.642600	-10.853000	24.889506	0.000970	20.736670
844.245529	-3.013900	3.639600	-10.968000	24.896584	0.000968	20.703469
845.250380	-3.003100	3.640100	-10.930000	24.897480	0.000967	20.708161
846.255807	-2.981800	3.639900	-10.852000	24.872164	0.000967	20.699822
847.250885	-2.999000	3.640500	-10.916000	24.873036	0.000968	20.707810
848.250236	-2.986600	3.640700	-10.872000	24.862666	0.000968	20.695979
849.252868	-3.001200	3.638100	-10.918000	24.866348	0.000964	20.716746
850.248035	-2.987000	3.641200	-10.875000	24.885913	0.000964	20.719313
851.254531	-2.998800	3.638800	-10.911000	24.890116	0.000965	20.707409
852.249959	-2.991200	3.639100	-10.883000	24.874054	0.000965	20.719264
853.251236	-2.997700	3.638400	-10.906000	24.843891	0.000967	20.737356
854.250544	-3.000500	3.637500	-10.912000	24.802714	0.000964	20.720686
855.250310	-3.012300	3.636300	-10.952000	24.844591	0.000963	20.712454
856.253052	-3.006600	3.636600	-10.932000	24.832984	0.000962	20.719297
857.254196	-2.996700	3.637600	-10.900000	24.879772	0.000961	20.729271
858.250988	-2.991700	3.636400	-10.878000	24.856199	0.000964	20.721733
859.254430	-2.993500	3.636200	-10.884000	24.819478	0.000961	20.703845
860.253860	-3.028300	3.634100	-11.004000	24.811471	0.000959	20.712879
861.254684	-2.978000	3.637900	-10.832000	24.818566	0.000960	20.722371
862.253742	-3.004700	3.634800	-10.921000	24.783628	0.000962	20.708170
863.252450	-3.021000	3.634100	-10.976000	24.772411	0.000961	20.722518
864.250992	-2.998800	3.634000	-10.897000	24.769967	0.000960	20.718168
865.254711	-2.971300	3.635300	-10.801000	24.802201	0.000960	20.725862
866.255554	-2.988400	3.633600	-10.857000	24.809492	0.000961	20.719902
867.250937	-2.977300	3.635600	-10.823000	24.837815	0.000960	20.717032
868.253632	-2.991800	3.632400	-10.866000	24.852363	0.000958	20.718831
869.254448	-3.009500	3.632500	-10.931000	24.846523	0.000959	20.713443
870.252036	-2.994900	3.632700	-10.879000	24.858562	0.000959	20.718414
871.258047	-3.001600	3.633100	-10.903000	24.872059	0.000959	20.701139
872.255649	-3.012800	3.633800	-10.947000	24.874600	0.000957	20.725977
873.256028	-2.998000	3.632700	-10.890000	24.895045	0.000958	20.713779
874.257953	-2.987500	3.631100	-10.846000	24.895469	0.000959	20.716575
875.256676	-3.000900	3.631700	-10.898000	24.852282	0.000958	20.727759
876.254507	-2.976300	3.631500	-10.808000	24.873664	0.000957	20.722192
877.254463	-2.991100	3.631000	-10.860000	24.866586	0.000955	20.708449
878.258378	-2.992600	3.631600	-10.866000	24.874145	0.000953	20.732632
879.255588	-2.991800	3.632100	-10.866000	24.897017	0.000954	20.711490
880.257387	-2.992100	3.631100	-10.864000	24.926535	0.000956	20.723100
881.254473	-2.994900	3.631300	-10.875000	24.940243	0.000955	20.726902
882.256856	-3.005200	3.630100	-10.909000	24.966030	0.000956	20.728602
883.256846	-2.986300	3.629700	-10.839000	24.972790	0.000953	20.714524
884.260087	-3.016100	3.628900	-10.944000	24.961729	0.000953	20.707215
885.255831	-3.011700	3.628500	-10.927000	24.979811	0.000954	20.710665
886.260238	-2.981100	3.629400	-10.819000	24.982523	0.000955	20.720975
887.259512	-2.990100	3.628000	-10.846000	25.004880	0.000954	20.720656
888.258418	-2.994100	3.627100	-10.859000	25.010426	0.000952	20.713895
889.263885	-2.996400	3.627400	-10.868000	25.013790	0.000952	20.707788
890.262302	-2.992700	3.626700	-10.852000	25.028214	0.000952	20.718948
891.258145	-2.972600	3.627000	-10.780000	25.040601	0.000953	20.711467
892.258789	-2.999700	3.626200	-10.876000	25.054471	0.000950	20.701681
893.265003	-2.990200	3.626500	-10.844000	25.073837	0.000951	20.710216
894.256807	-3.011700	3.626000	-10.919000	25.099824	0.000950	20.705957
895.259337	-2.986200	3.626400	-10.828000	25.088805	0.000950	20.717182
896.264565	-2.976600	3.626000	-10.793000	25.079775	0.000950	20.711436
897.261991	-3.017700	3.624500	-10.937000	25.064480	0.000949	20.718842
898.260895	-2.994300	3.624800	-10.853000	25.087552	0.000949	20.714975
899.265942	-2.999700	3.625000	-10.872000	25.110534	0.000949	20.733305
900.265272	-2.998000	3.624600	-10.866000	25.127171	0.000947	20.735309
901.267979	-3.002600	3.624400	-10.882000	25.117464	0.000949	20.697586
902.265149	-3.008000	3.623200	-10.897000	25.134729	0.000948	20.735783
903.258436	-3.001200	3.623300	-10.873000	25.135502	0.000945	20.712851
904.261466	-3.006300	3.623000	-10.891000	25.168621	0.000944	20.712434
905.264127	-3.007000	3.622500	-10.892000	25.172978	0.000945	20.719653
906.260634	-3.021200	3.621100	-10.939000	25.196789	0.000947	20.730281
907.260255	-3.007900	3.622200	-10.894000	25.209354	0.000945	20.719662
908.263495	-3.004500	3.621800	-10.881000	25.196325	0.000946	20.724126
909.261812	-2.990200	3.622100	-10.830000	25.196651	0.000946	20.731565
910.257312	-2.994200	3.622600	-10.845000	25.190617	0.000943	20.727879
911.266061	-2.969700	3.621100	-10.752000	25.197759	0.000944	20.721298
912.260505	-2.998500	3.620200	-10.854000	25.203573	0.000943	20.735196
913.259911	-2.998500	3.619800	-10.852000	25.196317	0.000942	20.717480
914.265460	-2.998400	3.621200	-10.857000	25.200226	0.000943	20.725672
915.265232	-3.010700	3.620100	-10.898000	25.189209	0.000944	20.720300
916.262931	-3.003500	3.619800	-10.871000	25.155480	0.000942	20.755193
917.264914	-3.012700	3.619500	-10.904000	25.161604	0.000940	20.721511
918.262818	-2.999200	3.620000	-10.855000	25.161710	0.000941	20.721617
919.262700	-3.006800	3.618800	-10.879000	25.146115	0.000941	20.734412
920.267115	-2.986600	3.619400	-10.808000	25.112132	0.000940	20.732539
921.265872	-2.996500	3.618500	-10.842000	25.065184	0.000939	20.721920
922.264481	-2.987400	3.618600	-10.810000	25.047845	0.000941	20.728697
923.266283	-3.011200	3.617700	-10.892000	25.028983	0.000938	20.744378
924.268754	-3.013600	3.618200	-10.903000	25.048578	0.000938	20.727062
925.264368	-2.994900	3.617200	-10.833000	25.073369	0.000940	20.728240
926.265023	-3.005600	3.616900	-10.869000	25.106359	0.000938	20.732908
927.266226	-2.991500	3.617100	-10.819000	25.103900	0.000938	20.721904
928.263801	-2.991300	3.617300	-10.819000	25.105268	0.000938	20.737503
929.267306	-3.000100	3.616000	-10.847000	25.111710	0.000938	20.731641
930.271454	-3.009200	3.615700	-10.879000	25.124496	0.000938	20.726458
931.265239	-2.998200	3.615500	-10.839000	25.134634	0.000936	20.736637
932.266752	-3.012600	3.614300	-10.887000	25.180049	0.000936	20.740029
933.270285	-3.013900	3.614700	-10.893000	25.150212	0.000936	20.734731
934.265397	-3.017000	3.613400	-10.901000	25.135774	0.000936	20.725452
935.267705	-2.993700	3.615700	-10.822000	25.120937	0.000934	20.722411
936.273402	-3.001900	3.614400	-10.849000	25.118819	0.000935	20.754426
937.264046	-2.999900	3.613500	-10.838000	25.117158	0.000934	20.742327
938.268265	-3.032100	3.611400	-10.949000	25.143340	0.000932	20.752963
939.266119	-2.998100	3.613000	-10.832000	25.126287	0.000932	20.730628
940.268199	-2.999700	3.613100	-10.837000	25.149471	0.000933	20.739678
941.266108	-2.992400	3.611000	-10.804000	25.145921	0.000933	20.735639
942.275191	-2.984700	3.614100	-10.786000	25.118526	0.000931	20.730423
943.268809	-2.999900	3.611500	-10.834000	25.118136	0.000931	20.718177
944.266520	-2.987400	3.612300	-10.790000	25.064460	0.000931	20.728306
945.277939	-3.028100	3.610500	-10.932000	25.058719	0.000930	20.755261
946.268522	-3.003500	3.609700	-10.840000	25.052261	0.000930	20.741191
947.270301	-3.028000	3.608400	-10.926000	25.077043	0.000930	20.740937
948.276357	-3.014000	3.609900	-10.879000	25.102655	0.000931	20.745311
949.270754	-3.016600	3.608600	-10.884000	25.103478	0.000927	20.744241
950.270026	-3.008400	3.608800	-10.856000	25.101034	0.000929	20.722346
951.274437	-3.008200	3.609800	-10.858000	25.093827	0.000927	20.759209
952.273254	-3.009300	3.609200	-10.860000	25.110554	0.000929	20.741861
953.271608	-3.015400	3.607300	-10.875000	25.127729	0.000928	20.737291
954.275488	-3.017900	3.607300	-10.886000	25.145107	0.000928	20.734822
955.272142	-2.965900	3.609000	-10.703000	25.164618	0.000926	20.730227
956.275577	-2.997700	3.607000	-10.811000	25.191262	0.000926	20.726630
957.274472	-2.975000	3.610200	-10.738000	25.192875	0.000925	20.743896
958.275844	-2.995900	3.607600	-10.807000	25.194935	0.000928	20.754500
959.274277	-3.003200	3.607300	-10.831000	25.207141	0.000926	20.732140
960.276211	-2.992600	3.606100	-10.790000	25.239402	0.000926	20.770221
961.279244	-3.008300	3.606600	-10.849000	25.272534	0.000925	20.742318
962.274704	-2.975600	3.607400	-10.733000	25.272412	0.000924	20.740299
963.276727	-3.001800	3.606300	-10.825000	25.273218	0.000925	20.729253
964.274401	-3.001000	3.606000	-10.821000	25.288135	0.000924	20.754663
965.278587	-2.985200	3.605400	-10.761000	25.304264	0.000923	20.746675
966.277341	-2.982000	3.605600	-10.750000	25.302074	0.000922	20.745898
967.281236	-2.998400	3.602800	-10.802000	25.301569	0.000922	20.723579
968.275520	-2.993100	3.605300	-10.791000	25.313481	0.000923	20.751662
969.282447	-2.999200	3.604600	-10.809000	25.303906	0.000922	20.750108
970.281429	-2.990200	3.603800	-10.775000	25.339616	0.000921	20.749454
971.274589	-3.001500	3.602800	-10.814000	25.344013	0.000920	20.753395
972.279194	-2.984000	3.602900	-10.749000	25.309491	0.000920	20.757613
973.279232	-2.991600	3.603600	-10.779000	25.306136	0.000918	20.754245
974.279110	-3.011600	3.601800	-10.847000	25.287320	0.000920	20.767595
975.278832	-2.982200	3.602900	-10.744000	25.281147	0.000919	20.758553
976.277195	-2.982500	3.603100	-10.744000	25.291586	0.000918	20.751015
977.276867	-3.003200	3.600700	-10.811000	25.302969	0.000918	20.759125
978.283611	-3.019700	3.601500	-10.874000	25.314531	0.000919	20.765044
979.279743	-2.999500	3.600700	-10.799000	25.278403	0.000919	20.759117
980.282162	-2.997400	3.601600	-10.795000	25.287954	0.000918	20.754007
981.283433	-3.006600	3.600500	-10.823000	25.291236	0.000917	20.754457
982.279830	-3.004700	3.599400	-10.814000	25.314994	0.000916	20.758397
983.281859	-3.021900	3.598200	-10.873000	25.296397	0.000915	20.768649
984.280541	-3.016800	3.598100	-10.854000	25.250564	0.000915	20.762934
985.280131	-3.005200	3.598500	-10.813000	25.219019	0.000916	20.759713
986.282668	-3.007300	3.597700	-10.818000	25.196862	0.000914	20.764495
987.288560	-2.989600	3.598100	-10.755000	25.183198	0.000914	20.775908
988.281026	-2.993600	3.598100	-10.770000	25.168222	0.000913	20.773676
989.286888	-3.009800	3.596600	-10.823000	25.192880	0.000913	20.771403
990.282905	-3.004700	3.596600	-10.805000	25.206649	0.000915	20.781434
991.282593	-3.005800	3.596700	-10.809000	25.244456	0.000912	20.765811
992.291875	-2.978500	3.596600	-10.711000	25.286691	0.000912	20.735669
993.282597	-2.983300	3.596800	-10.729000	25.298123	0.000911	20.777494
994.281473	-3.002200	3.595800	-10.793000	25.311696	0.000912	20.776423
995.283954	-3.002300	3.594600	-10.791000	25.322972	0.000912	20.770201
996.282687	-3.004200	3.595000	-10.799000	25.339159	0.000911	20.767013
997.281786	-2.999600	3.595400	-10.784000	25.304954	0.000911	20.776766
998.284895	-2.997700	3.595100	-10.775000	25.279949	0.000909	20.777739
999.286200	-3.014600	3.595000	-10.837000	25.272987	0.000908	20.788767
1000.283085	-3.029500	3.594300	-10.887000	25.308065	0.000909	20.770880
1001.288203	-3.006800	3.595100	-10.808000	25.295159	0.000909	20.785424
1002.293701	-2.994100	3.595100	-10.763000	25.282694	0.000907	20.780020
1003.283994	-3.004900	3.593700	-10.797000	25.307389	0.000910	20.782055
1004.287535	-3.022100	3.592800	-10.856000	25.309408	0.000908	20.794040
1005.288064	-2.997100	3.592000	-10.764000	25.346910	0.000907	20.766735
1006.288476	-2.995800	3.592400	-10.761000	25.345322	0.000907	20.797384
1007.290564	-3.001900	3.591000	-10.779000	25.338980	0.000907	20.784377
1008.288828	-2.995400	3.591600	-10.757000	25.353692	0.000907	20.788718
1009.292004	-2.985300	3.592100	-10.723000	25.387667	0.000905	20.789168
1010.287878	-3.009600	3.590400	-10.805000	25.319121	0.000905	20.775818
1011.286091	-2.995700	3.591300	-10.757000	25.351029	0.000905	20.779407
1012.289699	-2.989800	3.591600	-10.737000	25.316638	0.000904	20.779489
1013.290062	-2.976700	3.591600	-10.690000	25.308382	0.000903	20.784949
1014.291598	-3.005800	3.590500	-10.791000	25.335251	0.000902	20.792961
1015.289571	-3.000200	3.589800	-10.770000	25.364194	0.000903	20.776978
1016.288562	-3.000100	3.590200	-10.769000	25.385127	0.000903	20.783298
1017.291083	-3.005100	3.590000	-10.788000	25.354734	0.000903	20.784075
1018.290600	-3.012400	3.589600	-10.811000	25.341202	0.000902	20.782815
1019.294444	-2.978600	3.589300	-10.689000	25.319414	0.000903	20.790337
1020.292288	-3.004600	3.588000	-10.778000	25.272881	0.000900	20.806678
1021.292619	-3.010800	3.587400	-10.800000	25.313666	0.000900	20.783616
1022.297616	-2.985900	3.588300	-10.713000	25.345232	0.000899	20.798716
1023.293323	-3.000500	3.586900	-10.761000	25.365928	0.000901	20.800056
1024.293187	-2.984500	3.587300	-10.705000	25.391998	0.000899	20.802051
1025.294196	-2.992200	3.588200	-10.736000	25.403974	0.000898	20.797007
1026.296064	-2.978500	3.585800	-10.679000	25.361353	0.000899	20.809212
1027.292197	-2.988800	3.585800	-10.716000	25.319413	0.000897	20.807405
1028.300635	-2.994500	3.586000	-10.737000	25.276088	0.000898	20.805157
1029.292839	-3.008600	3.584900	-10.785000	25.271219	0.000897	20.791259
1030.297476	-3.007100	3.584300	-10.777000	25.247972	0.000897	20.811541
1031.296672	-3.009500	3.584000	-10.784000	25.283660	0.000896	20.812285
1032.293162	-3.006000	3.584000	-10.773000	25.301622	0.000895	20.801870
1033.293374	-2.972300	3.585100	-10.656000	25.303209	0.000895	20.776437
1034.297614	-3.014300	3.583300	-10.799000	25.318501	0.000893	20.790842
1035.298020	-3.013600	3.583100	-10.797000	25.331511	0.000895	20.793474
1036.295290	-2.994400	3.583400	-10.729000	25.326731	0.000894	20.806692
1037.299642	-2.969100	3.584500	-10.642000	25.308208	0.000894	20.815595
1038.297799	-2.991300	3.582600	-10.716000	25.349618	0.000894	20.820663
1039.299446	-2.983000	3.581900	-10.684000	25.346621	0.000895	20.797266
1040.299787	-2.999200	3.582400	-10.743000	25.361757	0.000893	20.819575
1041.301498	-3.027300	3.580600	-10.838000	25.353151	0.000890	20.811883
1042.302404	-2.991600	3.580900	-10.711000	25.349169	0.000891	20.813575
1043.301661	-3.003400	3.580600	-10.753000	25.351823	0.000892	20.793480
1044.302495	-3.010100	3.580600	-10.778000	25.374286	0.000891	20.802285
1045.299473	-2.998200	3.580000	-10.733000	25.360690	0.000891	20.809021
1046.306507	-2.995500	3.580800	-10.724000	25.382875	0.000889	20.821814
1047.302916	-3.016800	3.577900	-10.793000	25.394086	0.000889	20.802726
1048.302504	-3.015300	3.580100	-10.794000	25.409237	0.000888	20.826000
1049.303252	-3.010200	3.579300	-10.773000	25.414798	0.000887	20.825419
1050.302263	-2.998600	3.577900	-10.727000	25.430168	0.000887	20.833266
1051.303025	-2.993400	3.579500	-10.714000	25.426113	0.000886	20.808807
1052.303309	-3.023400	3.577500	-10.815000	25.434540	0.000887	20.817742
1053.304893	-3.008200	3.578800	-10.765000	25.377004	0.000888	20.831092
1054.305070	-3.014900	3.577800	-10.786000	25.346896	0.000884	20.827413
1055.304800	-3.003200	3.577400	-10.743000	25.372493	0.000885	20.815657
1056.304429	-3.005400	3.576000	-10.746000	25.387523	0.000885	20.826955
1057.307764	-2.994600	3.577900	-10.713000	25.377744	0.000884	20.817136
1058.304857	-2.995100	3.576100	-10.709000	25.413379	0.000884	20.829685
1059.304867	-3.011200	3.574700	-10.763000	25.406915	0.000885	20.826039
1060.306674	-2.992300	3.575600	-10.697000	25.387204	0.000883	20.845127
1061.303708	-3.017000	3.575400	-10.786000	25.411906	0.000883	20.830101
1062.306271	-3.022800	3.574300	-10.803000	25.358537	0.000883	20.826300
1063.304505	-3.017200	3.574100	-10.783000	25.339241	0.000880	20.825417
1064.306774	-3.018900	3.573600	-10.787000	25.330187	0.000881	20.852360
1065.305589	-3.010900	3.575200	-10.764000	25.373273	0.000882	20.822130
1066.312243	-3.029100	3.572500	-10.821000	25.392854	0.000881	20.866445
1067.305845	-3.016500	3.573500	-10.779000	25.421951	0.000881	20.844929
1068.308029	-2.987900	3.573200	-10.675000	25.468689	0.000882	20.860093
1069.314167	-2.997000	3.573100	-10.707000	25.500568	0.000880	20.844692
1070.310822	-2.988900	3.574000	-10.681000	25.468949	0.000882	20.834751
1071.309242	-2.994500	3.574400	-10.703000	25.480337	0.000880	20.826747
1072.314032	-2.996000	3.572300	-10.702000	25.528750	0.000878	20.825104
1073.310436	-3.016500	3.570800	-10.770000	25.493574	0.000880	20.852841
1074.312252	-2.996500	3.571600	-10.701000	25.470576	0.000878	20.831644
1075.310710	-2.988400	3.570100	-10.668000	25.428047	0.000876	20.843464
1076.313314	-3.010100	3.569900	-10.745000	25.393869	0.000879	20.841862
1077.311618	-2.989100	3.570100	-10.670000	25.395677	0.000877	20.856004
1078.309888	-3.006200	3.569000	-10.727000	25.378197	0.000876	20.865952
1079.317159	-2.985600	3.570700	-10.659000	25.412105	0.000876	20.862543
1080.311584	-2.998100	3.568300	-10.697000	25.428632	0.000875	20.848319
1081.316830	-2.984900	3.570400	-10.657000	25.455938	0.000874	20.851082
1082.310496	-3.007500	3.568700	-10.731000	25.473318	0.000876	20.873276
1083.310604	-2.987500	3.569600	-10.663000	25.484072	0.000873	20.851360
1084.316114	-3.036100	3.568300	-10.833000	25.500964	0.000875	20.852201
1085.318668	-2.991100	3.569300	-10.675000	25.545916	0.000872	20.857515
1086.315470	-2.998400	3.568700	-10.698000	25.565330	0.000871	20.849986
1087.317128	-2.982600	3.567900	-10.640000	25.549970	0.000872	20.850206
1088.315903	-3.011500	3.565900	-10.736000	25.564801	0.000870	20.868894
1089.317110	-3.010400	3.567600	-10.738000	25.552989	0.000869	20.863670
1090.315630	-2.979000	3.567300	-10.627000	25.541894	0.000867	20.842097
1091.315391	-3.000800	3.565800	-10.699000	25.546819	0.000867	20.872645
1092.314175	-2.996500	3.566200	-10.685000	25.525320	0.000869	20.869547
1093.327125	-3.004100	3.564800	-10.708000	25.541682	0.000867	20.865116
1094.316204	-3.000500	3.566300	-10.700000	25.549529	0.000868	20.860195
1095.316935	-2.986100	3.565700	-10.645000	25.533403	0.000866	20.855380
1096.318810	-2.973100	3.566600	-10.603000	25.538564	0.000865	20.848236
1097.313340	-2.977700	3.565100	-10.615000	25.527583	0.000865	20.876561
1098.313490	-3.005900	3.564600	-10.714000	25.534925	0.000864	20.841262
1099.315407	-2.998500	3.562800	-10.682000	25.578858	0.000864	20.854563
1100.317695	-3.006000	3.561200	-10.704000	25.577010	0.000864	20.846543
1101.315575	-2.990100	3.564400	-10.657000	25.598980	0.000864	20.829728
1102.319006	-3.021000	3.561700	-10.758000	25.568154	0.000864	20.848080
1103.315334	-3.014500	3.561700	-10.735000	25.575683	0.000863	20.860383
1104.317811	-3.022900	3.561200	-10.762000	25.586436	0.000864	20.849846
1105.320775	-2.997100	3.561600	-10.673000	25.613314	0.000861	20.842701
1106.313944	-3.005100	3.561100	-10.700000	25.621658	0.000862	20.870519
1107.316090	-3.000600	3.560800	-10.684000	25.618369	0.000862	20.836398
1108.316871	-2.993300	3.560200	-10.655000	25.596375	0.000859	20.838491
1109.313228	-2.983200	3.560700	-10.621000	25.573713	0.000860	20.858878
1110.314849	-3.016200	3.559000	-10.733000	25.562252	0.000859	20.841679
1111.318025	-2.993600	3.559900	-10.656000	25.533199	0.000857	20.840477
1112.316310	-2.980500	3.559700	-10.609000	25.573819	0.000857	20.830062
1113.317680	-3.005000	3.558900	-10.692000	25.586070	0.000857	20.843314
1114.317807	-2.989300	3.559400	-10.640000	25.585760	0.000857	20.856279
1115.316092	-2.983000	3.559900	-10.618000	25.591792	0.000856	20.835785
1116.315288	-3.002200	3.558000	-10.681000	25.588463	0.000854	20.827226
1117.317700	-2.999100	3.558100	-10.670000	25.564808	0.000857	20.829073
1118.317212	-3.008800	3.557200	-10.702000	25.540672	0.000854	20.831386
1119.318965	-2.993200	3.557900	-10.648000	25.525978	0.000855	20.814260
1120.318316	-3.015000	3.556200	-10.721000	25.505659	0.000853	20.826097
1121.320257	-2.989900	3.557600	-10.636000	25.512343	0.000852	20.843240
1122.320785	-2.969300	3.556600	-10.560000	25.538531	0.000853	20.841564
1123.323709	-2.994600	3.556400	-10.649000	25.553403	0.000852	20.832318
1124.318084	-2.987500	3.556300	-10.624000	25.543561	0.000852	20.827176
1125.319053	-2.982400	3.555800	-10.604000	25.565157	0.000852	20.845071
1126.318309	-3.008700	3.554300	-10.693000	25.569724	0.000850	20.834959
1127.322899	-3.020400	3.553100	-10.731000	25.553248	0.000849	20.827896
1128.323264	-2.981700	3.555300	-10.600000	25.527696	0.000848	20.827838
1129.321866	-2.997200	3.554800	-10.653000	25.559256	0.000848	20.817334
1130.325741	-2.981400	3.554500	-10.596000	25.573582	0.000848	20.809911
1131.321563	-2.995800	3.554300	-10.646000	25.575919	0.000849	20.815102
1132.324212	-2.975900	3.555300	-10.579000	25.621429	0.000847	20.819083
1133.322968	-3.001100	3.552900	-10.660000	25.597400	0.000846	20.811072
1134.328035	-2.988000	3.552500	-10.613000	25.575251	0.000848	20.815380
1135.323697	-3.029500	3.549200	-10.751000	25.563619	0.000846	20.814129
1136.326296	-3.001800	3.550700	-10.657000	25.571612	0.000845	20.834485
1137.322370	-2.996100	3.551100	-10.639000	25.542462	0.000846	20.815167
1138.326058	-2.978200	3.551500	-10.575000	25.525953	0.000845	20.811865
1139.323439	-3.008500	3.549800	-10.678000	25.515835	0.000843	20.830626
1140.327114	-2.981400	3.550100	-10.583000	25.504031	0.000842	20.833471
1141.327762	-2.998000	3.549800	-10.641000	25.526092	0.000845	20.823383
1142.324435	-2.986700	3.550100	-10.601000	25.559443	0.000843	20.821315
1143.326952	-3.004800	3.548800	-10.663000	25.544994	0.000843	20.813442
1144.329134	-2.991000	3.549600	-10.616000	25.560371	0.000844	20.813238
1145.329808	-3.015300	3.548000	-10.696000	25.572939	0.000843	20.820170
1146.330418	-2.990300	3.548700	-10.610000	25.559313	0.000843	20.834460
1147.326620	-2.991300	3.549500	-10.616000	25.545743	0.000841	20.814195
1148.330580	-3.015800	3.546500	-10.694000	25.564319	0.000841	20.823841
1149.331300	-3.017600	3.546600	-10.701000	25.572817	0.000843	20.811513
1150.331870	-3.009800	3.547500	-10.677000	25.546720	0.000838	20.822288
1151.328923	-2.993600	3.547600	-10.619000	25.543285	0.000838	20.819786
1152.327507	-2.997200	3.546000	-10.626000	25.538270	0.000839	20.813802
1153.331242	-2.997200	3.546500	-10.629000	25.549081	0.000838	20.826081
1154.333323	-2.992000	3.545500	-10.607000	25.559647	0.000836	20.818675
1155.332652	-2.988400	3.546200	-10.597000	25.565084	0.000837	20.823187
1156.331621	-2.984600	3.545300	-10.579000	25.570343	0.000837	20.834632
1157.331963	-2.978400	3.545000	-10.558000	25.625279	0.000836	20.825795
1158.329492	-2.989900	3.543200	-10.593000	25.636113	0.000835	20.806330
1159.332031	-3.007500	3.544100	-10.657000	25.614071	0.000836	20.822124
1160.328928	-2.986800	3.544300	-10.585000	25.650390	0.000832	20.806919
1161.329797	-2.972700	3.544500	-10.535000	25.650936	0.000831	20.806044
1162.331235	-2.976900	3.544500	-10.550000	25.666979	0.000835	20.809829
1163.328995	-2.994000	3.544100	-10.610000	25.678805	0.000834	20.816492
1164.331221	-3.000900	3.541800	-10.627000	25.698543	0.000833	20.800281
1165.332346	-3.004600	3.543000	-10.645000	25.647582	0.000831	20.793193
1166.337312	-2.992600	3.542400	-10.599000	25.612590	0.000831	20.815895
1167.333153	-2.999700	3.542900	-10.626000	25.563139	0.000830	20.812699
1168.338865	-2.989500	3.541000	-10.585000	25.614641	0.000828	20.815585
1169.334858	-3.004200	3.541400	-10.638000	25.612696	0.000828	20.810312
1170.334827	-3.003900	3.539700	-10.632000	25.582798	0.000829	20.805415
1171.334936	-2.997400	3.540900	-10.613000	25.584556	0.000828	20.801966
1172.338253	-2.988700	3.541400	-10.583000	25.578817	0.000828	20.792883
1173.342566	-3.015400	3.538800	-10.669000	25.543692	0.000828	20.804549
1174.338160	-2.989500	3.539500	-10.580000	25.548634	0.000827	20.799080
1175.339335	-3.014500	3.537700	-10.663000	25.519328	0.000826	20.801418
1176.335664	-3.011300	3.539000	-10.657000	25.511448	0.000824	20.800617
1177.339263	-2.993700	3.537000	-10.587000	25.466829	0.000825	20.799432
1178.338072	-3.001000	3.537800	-10.616000	25.426074	0.000824	20.798811
1179.336581	-3.010600	3.537900	-10.650000	25.471665	0.000822	20.790538
1180.343424	-3.006200	3.538100	-10.635000	25.474001	0.000824	20.804263
1181.341130	-3.006700	3.536500	-10.632000	25.490942	0.000824	20.814638
1182.339476	-2.983900	3.537500	-10.554000	25.536733	0.000823	20.798983
1183.341601	-3.007000	3.536700	-10.634000	25.529399	0.000823	20.803945
1184.340280	-2.974000	3.537100	-10.518000	25.555440	0.000822	20.798803
1185.337573	-3.025300	3.534500	-10.692000	25.566519	0.000823	20.788118
1186.340583	-2.974900	3.535500	-10.517000	25.537368	0.000819	20.806259
1187.340311	-3.005300	3.534200	-10.620000	25.567650	0.000820	20.779297
1188.340099	-2.984900	3.535000	-10.550000	25.539566	0.000821	20.780965
1189.349852	-3.023000	3.532800	-10.679000	25.549489	0.000821	20.800888
1190.341986	-3.001300	3.532800	-10.602000	25.570394	0.000819	20.787742
1191.341524	-3.034200	3.530800	-10.712000	25.578444	0.000818	20.810526
1192.342471	-3.001400	3.534700	-10.607000	25.551948	0.000818	20.800038
1193.345332	-2.975900	3.533500	-10.514000	25.536490	0.000817	20.812963
1194.340313	-2.996600	3.533600	-10.587000	25.577370	0.000815	20.795223
1195.345208	-3.005500	3.531600	-10.613000	25.603744	0.000816	20.810805
1196.347006	-3.010300	3.532000	-10.631000	25.618852	0.000814	20.795632
1197.343315	-3.014100	3.532100	-10.645000	25.639575	0.000814	20.807911
1198.351261	-3.014700	3.530300	-10.642000	25.662390	0.000814	20.806169
1199.343315	-2.997500	3.529500	-10.579000	25.701508	0.000813	20.789509
1200.348063	-3.008500	3.531200	-10.622000	25.715898	0.000812	20.796850
1201.342271	-2.998000	3.530900	-10.585000	25.691253	0.000812	20.792485
1202.346823	-3.016300	3.530100	-10.646000	25.674876	0.000810	20.795002
1203.342963	-3.013000	3.529600	-10.634000	25.665834	0.000810	20.771221
1204.346135	-3.010400	3.528800	-10.621000	25.676334	0.000810	20.776077
1205.347046	-3.024700	3.527500	-10.668000	25.675739	0.000810	20.772635
1206.347859	-2.996200	3.528700	-10.571000	25.701403	0.000810	20.807895
1207.344251	-3.009900	3.527100	-10.614000	25.733226	0.000811	20.792444
1208.348826	-3.000400	3.528700	-10.585000	25.728164	0.000806	20.781669
1209.347589	-3.000800	3.528300	-10.587000	25.780358	0.000808	20.789525
1210.343541	-3.002200	3.528900	-10.594000	25.789498	0.000807	20.780214
1211.345788	-3.011300	3.526100	-10.616000	25.780423	0.000806	20.772047
1212.355648	-2.987100	3.526100	-10.531000	25.817990	0.000806	20.794136
1213.344062	-2.964600	3.526900	-10.454000	25.829229	0.000806	20.786460
1214.344645	-2.998300	3.525000	-10.567000	25.848256	0.000805	20.798935
1215.347991	-2.981500	3.525200	-10.509000	25.828228	0.000802	20.794937
1216.344660	-2.992800	3.524000	-10.545000	25.802511	0.000804	20.787596
1217.345010	-3.009400	3.523700	-10.603000	25.813840	0.000802	20.786174
1218.343056	-2.991100	3.525300	-10.543000	25.819821	0.000803	20.786019
1219.345454	-3.003000	3.522200	-10.576000	25.771780	0.000802	20.782331
1220.347705	-3.011900	3.522100	-10.607000	25.699295	0.000803	20.771639
1221.346610	-2.990200	3.522700	-10.532000	25.682528	0.000799	20.782299
1222.346721	-2.989600	3.523900	-10.534000	25.681551	0.000803	20.800284
1223.347875	-3.005900	3.522900	-10.588000	25.664622	0.000800	20.778065
1224.349636	-2.970800	3.522900	-10.465000	25.653560	0.000800	20.764583
1225.346732	-3.000200	3.522900	-10.568000	25.653918	0.000800	20.780116
1226.355566	-3.006400	3.521800	-10.587000	25.669920	0.000801	20.762997
1227.350936	-3.002400	3.520900	-10.570000	25.655041	0.000798	20.761804
1228.350062	-3.014600	3.520800	-10.612000	25.686622	0.000799	20.768867
1229.351106	-3.014100	3.519200	-10.606000	25.677889	0.000796	20.780959
1230.351703	-2.962700	3.520200	-10.428000	25.722142	0.000796	20.778465
1231.350095	-3.003500	3.519400	-10.570000	25.728702	0.000798	20.753759
1232.346974	-2.993400	3.518700	-10.531000	25.753468	0.000795	20.782904
1233.349301	-2.996200	3.518800	-10.543000	25.765790	0.000795	20.785324
1234.348065	-3.006800	3.518700	-10.579000	25.772301	0.000795	20.789493
1235.354487	-3.008000	3.518200	-10.582000	25.746062	0.000795	20.791586
1236.349887	-3.006600	3.518000	-10.576000	25.768647	0.000793	20.773495
1237.350976	-3.013800	3.517900	-10.601000	25.763992	0.000792	20.780673
1238.349431	-2.999700	3.517600	-10.551000	25.749481	0.000792	20.776528
1239.351654	-3.011100	3.516800	-10.587000	25.719196	0.000791	20.784041
1240.351895	-3.009300	3.515300	-10.578000	25.720815	0.000792	20.777607
1241.353374	-3.009100	3.515700	-10.578000	25.698156	0.000789	20.758640
1242.353349	-2.975900	3.517500	-10.467000	25.694542	0.000791	20.770184
1243.354380	-2.977300	3.516900	-10.470000	25.675398	0.000791	20.749059
1244.355863	-2.972800	3.516200	-10.451000	25.687762	0.000790	20.758158
1245.353664	-3.001800	3.513900	-10.546000	25.733040	0.000787	20.772342
1246.357968	-2.997500	3.513900	-10.532000	25.740568	0.000789	20.759989
1247.360069	-3.007500	3.513700	-10.565000	25.765286	0.000787	20.767274
1248.356605	-3.009700	3.515600	-10.579000	25.771252	0.000789	20.751454
1249.354124	-3.006500	3.514000	-10.563000	25.765815	0.000786	20.748364
1250.353251	-3.017800	3.513200	-10.602000	25.746835	0.000785	20.755378
1251.352990	-2.992800	3.513600	-10.513000	25.760842	0.000785	20.758068
1252.352223	-3.031800	3.512200	-10.647000	25.750555	0.000786	20.735880
1253.354802	-2.986500	3.513000	-10.490000	25.752761	0.000784	20.759433
1254.354383	-3.000000	3.511800	-10.534000	25.745338	0.000783	20.748658
1255.355927	-2.998500	3.512300	-10.530000	25.792322	0.000784	20.768827
1256.354759	-3.004200	3.511200	-10.547000	25.773457	0.000782	20.736125
1257.359542	-2.984000	3.510600	-10.474000	25.763748	0.000783	20.754822
1258.357000	-2.993700	3.510500	-10.509000	25.757058	0.000784	20.760431
1259.357789	-3.018400	3.509100	-10.590000	25.794821	0.000781	20.746680
1260.357805	-3.020100	3.507700	-10.592000	25.800811	0.000783	20.726143
1261.354231	-3.020300	3.508400	-10.595000	25.806793	0.000781	20.767241
1262.357728	-3.022400	3.509000	-10.604000	25.812172	0.000781	20.745143
1263.357651	-3.001500	3.508400	-10.530000	25.817861	0.000780	20.734736
1264.354129	-3.009600	3.507900	-10.556000	25.811879	0.000779	20.734891
1265.359278	-3.001200	3.506100	-10.521000	25.801780	0.000779	20.726168
1266.360426	-2.984200	3.506900	-10.464000	25.797703	0.000776	20.757636
1267.363040	-3.000900	3.505800	-10.519000	25.789874	0.000778	20.742658
1268.358486	-3.024800	3.505200	-10.601000	25.805377	0.000778	20.745904
1269.360054	-3.023400	3.505300	-10.596000	25.781589	0.000777	20.744768
1270.356837	-2.999700	3.505400	-10.515000	25.784665	0.000776	20.753548
1271.366335	-3.003900	3.505100	-10.527000	25.779717	0.000775	20.750475
1272.362051	-3.010400	3.504700	-10.550000	25.774150	0.000776	20.749624
1273.361956	-2.993500	3.504400	-10.490000	25.816202	0.000775	20.734492
1274.360896	-2.996500	3.504000	-10.499000	25.833569	0.000775	20.746722
1275.357989	-3.000400	3.503900	-10.512000	25.803995	0.000773	20.743093
1276.361403	-2.991500	3.503800	-10.481000	25.799145	0.000773	20.748178
1277.365941	-2.995600	3.503300	-10.493000	25.779824	0.000773	20.735408
1278.364437	-3.001600	3.502600	-10.513000	25.748140	0.000771	20.731083
1279.358853	-3.003000	3.501200	-10.513000	25.737551	0.000771	20.760752
1280.363429	-3.001000	3.502100	-10.509000	25.719434	0.000771	20.738286
1281.361578	-3.024500	3.501400	-10.589000	25.730788	0.000771	20.737836
1282.364892	-3.011100	3.501600	-10.543000	25.754310	0.000770	20.721633
1283.365932	-3.010900	3.501000	-10.539000	25.738903	0.000769	20.731288
1284.361936	-3.018400	3.500400	-10.564000	25.745829	0.000768	20.729710
1285.366046	-3.012000	3.500900	-10.544000	25.777310	0.000768	20.732882
1286.368064	-3.010900	3.499300	-10.535000	25.770962	0.000769	20.714177
1287.365416	-2.981300	3.501800	-10.439000	25.770091	0.000768	20.732744
1288.371058	-3.024600	3.499100	-10.582000	25.788192	0.000766	20.736701
1289.364954	-2.989200	3.500100	-10.461000	25.806967	0.000766	20.742285
1290.372083	-2.998200	3.498700	-10.488000	25.791862	0.000764	20.740389
1291.369902	-2.996700	3.498000	-10.481000	25.802166	0.000765	20.746471
1292.364667	-3.016100	3.497700	-10.548000	25.842483	0.000766	20.735287
1293.372960	-2.997200	3.496000	-10.478000	25.813063	0.000764	20.739400
1294.370608	-2.954100	3.499100	-10.335000	25.795224	0.000764	20.722428
1295.364707	-3.008300	3.495900	-10.516000	25.803705	0.000763	20.735689
1296.374456	-2.985300	3.496800	-10.438000	25.822610	0.000763	20.728601
1297.370292	-3.026900	3.495800	-10.581000	25.839563	0.000763	20.742312
1298.370093	-3.010200	3.495100	-10.518000	25.846146	0.000762	20.729958
1299.369588	-3.012700	3.493500	-10.524000	25.846114	0.000762	20.731349
1300.372601	-2.961300	3.495100	-10.349000	25.816768	0.000760	20.742173
1301.365613	-3.002300	3.493500	-10.487000	25.801110	0.000758	20.726918
1302.371370	-3.012200	3.492700	-10.519000	25.752995	0.000761	20.740228
1303.370439	-2.981200	3.494000	-10.414000	25.749569	0.000759	20.738209
1304.366980	-2.973800	3.493000	-10.386000	25.771471	0.000758	20.735552
1305.371938	-3.005000	3.492900	-10.495000	25.766222	0.000756	20.742134
1306.367987	-3.018100	3.491300	-10.536000	25.781547	0.000759	20.739984
1307.371103	-3.010500	3.492300	-10.512000	25.838556	0.000757	20.717117
1308.371500	-3.021600	3.491200	-10.548000	25.829507	0.000759	20.722726
1309.371587	-3.002500	3.491800	-10.482000	25.875031	0.000758	20.737639
1310.369558	-3.019100	3.490600	-10.537000	25.875951	0.000757	20.743304
1311.369534	-3.006500	3.490000	-10.493000	25.856713	0.000757	20.736781
1312.373275	-2.999600	3.490700	-10.470000	25.851066	0.000754	20.736323
1313.374234	-3.008800	3.489300	-10.497000	25.836499	0.000755	20.725483
1314.373696	-2.977500	3.489900	-10.390000	25.817716	0.000754	20.755928
1315.370367	-2.988000	3.489200	-10.425000	25.842595	0.000753	20.735400
1316.375246	-2.987600	3.490200	-10.426000	25.804606	0.000751	20.733749
1317.374125	-3.026900	3.487500	-10.555000	25.801676	0.000754	20.720848
1318.375488	-2.989100	3.488400	-10.425000	25.824049	0.000752	20.739055
1319.372525	-2.983400	3.487500	-10.403000	25.829168	0.000753	20.732818
1320.377560	-2.996500	3.488500	-10.452000	25.855561	0.000752	20.736097
1321.372761	-2.986900	3.487100	-10.414000	25.821299	0.000751	20.739612
1322.376360	-3.003600	3.487000	-10.472000	25.792701	0.000751	20.761146
1323.382304	-3.002800	3.487100	-10.470000	25.728096	0.000751	20.718062
1324.379645	-3.005100	3.485700	-10.473000	25.702548	0.000750	20.722747
1325.377558	-3.008300	3.486200	-10.486000	25.733623	0.000750	20.725037
1326.378416	-2.998200	3.484000	-10.445000	25.711779	0.000748	20.715422
1327.380167	-2.987900	3.486300	-10.416000	25.757512	0.000747	20.732910
1328.376328	-2.983700	3.484500	-10.395000	25.765756	0.000746	20.744986
1329.384416	-3.003600	3.483700	-10.463000	25.750839	0.000748	20.727630
1330.379701	-3.001100	3.483000	-10.452000	25.754639	0.000747	20.732396
1331.379116	-2.989600	3.483500	-10.414000	25.710006	0.000747	20.746835
1332.382643	-3.018300	3.481600	-10.506000	25.722842	0.000745	20.738864
1333.379378	-3.006600	3.481200	-10.465000	25.725992	0.000745	20.740606
1334.378366	-2.994500	3.481400	-10.424000	25.786927	0.000744	20.761036
1335.379460	-2.990500	3.481800	-10.412000	25.783371	0.000745	20.732333
1336.376768	-2.986900	3.481300	-10.398000	25.851033	0.000743	20.759525
1337.377192	-3.008700	3.481500	-10.473000	25.845670	0.000742	20.745128
1338.387007	-2.985200	3.480500	-10.389000	25.868514	0.000744	20.740575
1339.380164	-2.985100	3.481100	-10.390000	25.890942	0.000741	20.755520
1340.390345	-3.003100	3.480600	-10.452000	25.895109	0.000742	20.738842
1341.386919	-2.995300	3.478900	-10.418000	25.885442	0.000741	20.740036
1342.384349	-3.020700	3.478500	-10.506000	25.895745	0.000740	20.746119
1343.387604	-3.012100	3.477400	-10.473000	25.901156	0.000740	20.742072
1344.384848	-3.010800	3.478100	-10.471000	25.889674	0.000740	20.751875
1345.390005	-2.988400	3.478000	-10.393000	25.898960	0.000739	20.739866
1346.389246	-2.993900	3.477100	-10.410000	25.842019	0.000737	20.755685
1347.391122	-2.991500	3.476800	-10.400000	25.825914	0.000737	20.744248
1348.385684	-2.988200	3.477200	-10.389000	25.835778	0.000738	20.738983
1349.383640	-2.972300	3.477000	-10.333000	25.830830	0.000737	20.740177
1350.390271	-2.998400	3.475300	-10.419000	25.852405	0.000736	20.761377
1351.385645	-3.006300	3.475700	-10.448000	25.828308	0.000739	20.741437
1352.384828	-2.987700	3.476700	-10.386000	25.824581	0.000734	20.749073
1353.387242	-2.999100	3.474900	-10.419000	25.865516	0.000735	20.751313
1354.391269	-3.005700	3.475600	-10.445000	25.885633	0.000737	20.745444
1355.388417	-3.022100	3.472600	-10.494000	25.895870	0.000734	20.766634
1356.388505	-3.005000	3.473700	-10.438000	25.920731	0.000735	20.750357
1357.388171	-2.984200	3.474900	-10.369000	25.935931	0.000733	20.753301
1358.389466	-2.982400	3.474300	-10.361000	25.951027	0.000734	20.745232
1359.390104	-2.990200	3.472800	-10.383000	25.965161	0.000732	20.748052
1360.392552	-2.999100	3.470700	-10.408000	25.977725	0.000733	20.750244
1361.389782	-3.009900	3.470900	-10.446000	25.976407	0.000732	20.736591
1362.389454	-3.003000	3.471700	-10.424000	25.963566	0.000730	20.750244
1363.393240	-2.989400	3.472700	-10.379000	25.944460	0.000729	20.747170
1364.386438	-3.000600	3.470900	-10.414000	25.968921	0.000730	20.734286
1365.389952	-3.017200	3.469100	-10.466000	26.002983	0.000731	20.750489
1366.391293	-3.005200	3.469900	-10.426000	26.022251	0.000728	20.756098
1367.395107	-3.005000	3.468900	-10.424000	25.993365	0.000729	20.748413
1368.393444	-3.005900	3.467900	-10.423000	26.010201	0.000728	20.748732
1369.395204	-3.011700	3.469300	-10.446000	26.007296	0.000727	20.763358
1370.391731	-2.999600	3.468000	-10.401000	26.025009	0.000728	20.765508
1371.391859	-2.996700	3.468900	-10.393000	26.015172	0.000727	20.772220
1372.393904	-3.008200	3.466300	-10.426000	25.975122	0.000724	20.746681
1373.390376	-3.005400	3.467100	-10.419000	25.987100	0.000727	20.766301
1374.392012	-3.014300	3.464900	-10.444000	25.962314	0.000726	20.766055
1375.393807	-2.976400	3.467600	-10.320000	25.962526	0.000725	20.759630
1376.392782	-3.021400	3.465200	-10.468000	25.964129	0.000723	20.752231
1377.395446	-2.995400	3.465900	-10.381000	25.970183	0.000723	20.767797
1378.400815	-2.967300	3.466600	-10.284000	25.962314	0.000724	20.740924
1379.395414	-3.018500	3.464200	-10.455000	25.947358	0.000725	20.760039
1380.390473	-2.999300	3.464700	-10.391000	25.920456	0.000723	20.752452
1381.393456	-2.991800	3.463200	-10.359000	25.938806	0.000722	20.761879
1382.393851	-2.986600	3.463000	-10.341000	25.914662	0.000722	20.739045
1383.394853	-2.998400	3.462000	-10.379000	25.894318	0.000723	20.761756
1384.396676	-2.998400	3.463500	-10.383000	25.883975	0.000721	20.762271
1385.394923	-3.012400	3.460200	-10.422000	25.895734	0.000720	20.749427
1386.398094	-3.005000	3.461400	-10.400000	25.883919	0.000721	20.737558
1387.392632	-3.007500	3.461300	-10.408000	25.877441	0.000718	20.748594
1388.395227	-3.001400	3.462200	-10.389000	25.887922	0.000719	20.766711
1389.393454	-3.005400	3.458900	-10.395000	25.911661	0.000720	20.745513
1390.398448	-3.006100	3.459300	-10.397000	25.934137	0.000719	20.759558
1391.397319	-3.001600	3.459500	-10.383000	25.936472	0.000718	20.779449
1392.399045	-3.005800	3.459600	-10.398000	25.976687	0.000715	20.782392
1393.395813	-3.000600	3.457700	-10.374000	25.994596	0.000718	20.784264
1394.397542	-3.005800	3.458400	-10.394000	26.000252	0.000717	20.762919
1395.399699	-3.008500	3.458600	-10.404000	25.988820	0.000715	20.768503
1396.396728	-2.977900	3.459200	-10.299000	25.981684	0.000716	20.771291
1397.394225	-3.008400	3.457000	-10.398000	26.001897	0.000714	20.775003
1398.398071	-3.007600	3.456700	-10.395000	25.993028	0.000712	20.769886
1399.398248	-2.993400	3.456300	-10.345000	25.963693	0.000715	20.757484
1400.399471	-2.996500	3.456300	-10.356000	25.976632	0.000711	20.758629
1401.398503	-2.997200	3.456100	-10.357000	25.971367	0.000714	20.764245
1402.400263	-3.001100	3.454100	-10.365000	26.004550	0.000712	20.753012
1403.396271	-2.975500	3.456600	-10.284000	26.004412	0.000712	20.762358
1404.402604	-2.978800	3.456400	-10.295000	26.017676	0.000710	20.771890
1405.396735	-3.025200	3.453000	-10.444000	25.971051	0.000711	20.778152
1406.397234	-2.978400	3.455400	-10.289000	25.947900	0.000710	20.760584
1407.402546	-2.990900	3.454900	-10.332000	25.954012	0.000711	20.761033
1408.405126	-3.010800	3.451800	-10.392000	25.970791	0.000712	20.766512
1409.402668	-3.002000	3.450900	-10.359000	26.012022	0.000707	20.760045
1410.402467	-3.022300	3.451500	-10.429000	25.991525	0.000707	20.774540
1411.404051	-3.020100	3.451500	-10.423000	26.003754	0.000709	20.773076
1412.401901	-2.995300	3.450900	-10.336000	26.019467	0.000709	20.779854
1413.402712	-3.000400	3.451200	-10.354000	26.027214	0.000708	20.794276
1414.406055	-2.991500	3.450400	-10.321000	26.035953	0.000706	20.783141
1415.401719	-3.024600	3.449700	-10.433000	26.044968	0.000707	20.775604
1416.400255	-2.985600	3.451900	-10.304000	26.023130	0.000705	20.774525
1417.405319	-2.992400	3.449600	-10.321000	26.027849	0.000706	20.765990
1418.406714	-2.982200	3.449300	-10.285000	26.005416	0.000704	20.776169
1419.403548	-3.012100	3.448600	-10.387000	25.997540	0.000703	20.759246
1420.403574	-3.021900	3.446900	-10.414000	25.969971	0.000703	20.769007
1421.401327	-3.018100	3.447200	-10.402000	25.973561	0.000703	20.765975
1422.404078	-3.007900	3.448300	-10.370000	25.996613	0.000702	20.785342
1423.403604	-3.003800	3.447000	-10.353000	25.989656	0.000701	20.771240
1424.407504	-2.974900	3.447100	-10.254000	25.997452	0.000700	20.787607
1425.406494	-2.987300	3.447500	-10.297000	26.009184	0.000701	20.773790
1426.406230	-2.981800	3.446500	-10.275000	25.977532	0.000701	20.766646
1427.405130	-2.997500	3.445300	-10.325000	25.993920	0.000700	20.786904
1428.403986	-3.004200	3.445100	-10.349000	26.042253	0.000700	20.770031
1429.408448	-2.986400	3.444300	-10.285000	26.008176	0.000696	20.780364
1430.402438	-3.011700	3.444700	-10.374000	25.988225	0.000700	20.775018
1431.403511	-2.996000	3.444900	-10.319000	25.983009	0.000700	20.780683
1432.412582	-2.984700	3.444000	-10.279000	25.981586	0.000697	20.763132
1433.409589	-3.011300	3.442100	-10.365000	25.977908	0.000697	20.774610
1434.408564	-3.001200	3.442300	-10.329000	25.977314	0.000697	20.782548
1435.408164	-2.997800	3.442500	-10.318000	25.968249	0.000696	20.781501
1436.406690	-3.016300	3.441700	-10.381000	25.949241	0.000695	20.789906
1437.404448	-3.009300	3.441600	-10.356000	25.957631	0.000696	20.776524
1438.409616	-2.981800	3.442900	-10.265000	25.956142	0.000693	20.784985
1439.407735	-3.008100	3.440700	-10.349000	25.971105	0.000693	20.780578
1440.414190	-2.991600	3.440700	-10.291000	25.982221	0.000693	20.795539
1441.416315	-3.009600	3.439100	-10.349000	25.998316	0.000693	20.801278
1442.407158	-3.004900	3.439000	-10.333000	25.984574	0.000693	20.789368
1443.411567	-3.003500	3.440300	-10.332000	25.983654	0.000692	20.792237
1444.411019	-2.995800	3.440000	-10.304000	25.993817	0.000691	20.781110
1445.413145	-2.981700	3.440200	-10.257000	25.968486	0.000692	20.799283
1446.408905	-2.998900	3.437600	-10.308000	25.981001	0.000692	20.790046
1447.411988	-3.003000	3.438500	-10.324000	26.002011	0.000690	20.778437
1448.412460	-3.022500	3.436700	-10.386000	26.030603	0.000689	20.782982
1449.418764	-3.011500	3.438300	-10.352000	25.998512	0.000689	20.788672
1450.416789	-2.996800	3.438000	-10.302000	26.004818	0.000689	20.784103
1451.418115	-3.000100	3.435800	-10.307000	26.019270	0.000689	20.816640
1452.416444	-3.003500	3.435200	-10.317000	26.058293	0.000689	20.769077
1453.414963	-3.011300	3.434400	-10.341000	26.091057	0.000688	20.787773
1454.418169	-2.986500	3.435400	-10.259000	26.092693	0.000685	20.784675
1455.415781	-3.003700	3.434200	-10.314000	26.117760	0.000686	20.800379
1456.418653	-3.010200	3.434800	-10.338000	26.054143	0.000687	20.791461
1457.419933	-2.995000	3.434200	-10.284000	26.031873	0.000686	20.805595
1458.414117	-2.973300	3.435400	-10.213000	25.984696	0.000686	20.786171
1459.430601	-3.025900	3.432300	-10.385000	25.931836	0.000683	20.800396
1460.421475	-3.005400	3.433300	-10.317000	25.911615	0.000682	20.787667
1461.422197	-2.997700	3.432100	-10.286000	25.887404	0.000683	20.795588
1462.418133	-3.024000	3.429900	-10.369000	25.893337	0.000684	20.784479
1463.424598	-2.976800	3.432300	-10.216000	25.894729	0.000682	20.801049
1464.421469	-3.018800	3.431200	-10.357000	25.940266	0.000679	20.798433
1465.422914	-2.990000	3.432700	-10.263000	25.936498	0.000679	20.803182
1466.420005	-3.017900	3.430100	-10.351000	25.964336	0.000683	20.797485
1467.421535	-3.021800	3.427800	-10.356000	25.976534	0.000681	20.805472
1468.418803	-3.031000	3.430700	-10.397000	26.002222	0.000681	20.803305
1469.421612	-3.014100	3.428400	-10.332000	26.026535	0.000683	20.822516
1470.422202	-3.007100	3.428500	-10.309000	26.053816	0.000681	20.801089
1471.420857	-3.010500	3.428000	-10.319000	26.038057	0.000678	20.797583
1472.426254	-3.040000	3.427300	-10.417000	26.028024	0.000679	20.780865
1473.423799	-2.994900	3.428000	-10.266000	26.033834	0.000678	20.792392
1474.424962	-2.978000	3.427000	-10.204000	26.052857	0.000677	20.806764
1475.423838	-2.986200	3.427400	-10.234000	26.066315	0.000679	20.807484
1476.423486	-3.016100	3.425800	-10.332000	26.047040	0.000677	20.810876
1477.421224	-3.000800	3.424900	-10.276000	26.045502	0.000676	20.814073
1478.421793	-2.990500	3.426800	-10.246000	26.060840	0.000676	20.793922
1479.423802	-2.992700	3.425000	-10.249000	26.058180	0.000676	20.809741
1480.424078	-2.992900	3.426100	-10.254000	26.050231	0.000676	20.810763
1481.431123	-3.001100	3.424200	-10.276000	26.031679	0.000676	20.820573
1482.423044	-2.997400	3.425000	-10.265000	26.024292	0.000675	20.820737
1483.419993	-2.994500	3.424000	-10.252000	26.042078	0.000675	20.791667
1484.424585	-3.003000	3.424600	-10.282000	26.054715	0.000671	20.815742
1485.424387	-2.997700	3.422900	-10.260000	26.047140	0.000674	20.815718
1486.421854	-3.014500	3.422800	-10.316000	26.064023	0.000673	20.813241
1487.423522	-2.992000	3.423100	-10.240000	26.093722	0.000672	20.810364
1488.427355	-2.991500	3.421500	-10.235000	26.127324	0.000671	20.825635
1489.429042	-2.972700	3.423500	-10.176000	26.144328	0.000671	20.819014
1490.428268	-3.003700	3.420800	-10.274000	26.156377	0.000672	20.805517
1491.426354	-3.005600	3.420900	-10.281000	26.138316	0.000671	20.797326
1492.427519	-2.971900	3.423400	-10.173000	26.128854	0.000672	20.821483
1493.428626	-3.008700	3.419500	-10.287000	26.160885	0.000670	20.828065
1494.430218	-3.028500	3.419100	-10.353000	26.162098	0.000670	20.829283
1495.424422	-3.000700	3.418800	-10.258000	26.146128	0.000669	20.822245
1496.426975	-3.025700	3.418000	-10.340000	26.137081	0.000669	20.828327
1497.428257	-2.999200	3.418600	-10.252000	26.166582	0.000670	20.842323
1498.430061	-3.012200	3.418700	-10.296000	26.160741	0.000670	20.829342
1499.428445	-2.991700	3.419000	-10.227000	26.200450	0.000666	20.818510
1500.425654	-2.997200	3.416500	-10.238000	26.194610	0.000667	20.798891
1501.434177	-3.010300	3.416300	-10.283000	26.201810	0.000667	20.795694
1502.428568	-2.989700	3.417700	-10.217000	26.197954	0.000665	20.821217
1503.426394	-3.013200	3.415400	-10.291000	26.208873	0.000668	20.818438
1504.426897	-3.005500	3.417100	-10.269000	26.193521	0.000666	20.843789
1505.427404	-2.995200	3.414600	-10.226000	26.192358	0.000667	20.838352
1506.427681	-2.994900	3.415800	-10.230000	26.164779	0.000665	20.819649
1507.428884	-2.993600	3.416000	-10.225000	26.174339	0.000663	20.842057
1508.436865	-3.004400	3.413800	-10.256000	26.194621	0.000663	20.837782
1509.426598	-2.972800	3.415500	-10.152000	26.195792	0.000663	20.829950
1510.428127	-3.020500	3.413100	-10.308000	26.200853	0.000662	20.845467
1511.431287	-3.006200	3.412500	-10.257000	26.214033	0.000663	20.842116
1512.444785	-2.992000	3.413800	-10.213000	26.171436	0.000661	20.834399
1513.439786	-3.001300	3.413100	-10.243000	26.170118	0.000662	20.847299
1514.425045	-3.008700	3.411800	-10.264000	26.136828	0.000660	20.832814
1515.424935	-3.019700	3.411300	-10.300000	26.165532	0.000661	20.840794
1516.429971	-2.972700	3.412500	-10.144000	26.184951	0.000659	20.841815
1517.428899	-2.990700	3.412400	-10.204000	26.179802	0.000661	20.843280
1518.433039	-2.987700	3.410000	-10.187000	26.204982	0.000658	20.847719
1519.426147	-2.980100	3.409100	-10.158000	26.231667	0.000659	20.843240
1520.429492	-2.989900	3.410500	-10.196000	26.228860	0.000657	20.842791
1521.430360	-3.009600	3.408700	-10.258000	26.239478	0.000657	20.855830
1522.433677	-3.011600	3.409100	-10.266000	26.238901	0.000656	20.856673
1523.432386	-3.004200	3.409800	-10.242000	26.273263	0.000659	20.846635
1524.429993	-2.987500	3.408400	-10.182000	26.271466	0.000657	20.845303
1525.452981	-3.006000	3.407200	-10.241000	26.311636	0.000654	20.855801
1526.429512	-2.992700	3.408400	-10.199000	26.297978	0.000654	20.861041
1527.436170	-2.990000	3.407300	-10.187000	26.294620	0.000652	20.854820
1528.433407	-3.001100	3.407600	-10.226000	26.272192	0.000654	20.878274
1529.432986	-2.990300	3.406900	-10.187000	26.280898	0.000653	20.861419
1530.432619	-3.001000	3.406500	-10.221000	26.276651	0.000652	20.870901
1531.434069	-2.990800	3.406300	-10.187000	26.222163	0.000654	20.866880
1532.434828	-2.984700	3.406300	-10.166000	26.223075	0.000651	20.856417
1533.432366	-3.006700	3.403900	-10.233000	26.218528	0.000651	20.845684
1534.432589	-2.970000	3.404900	-10.112000	26.225249	0.000651	20.854334
1535.430428	-3.004700	3.405000	-10.230000	26.236321	0.000649	20.858822
1536.432742	-2.990200	3.403100	-10.175000	26.260849	0.000649	20.869719
1537.433224	-3.000500	3.403100	-10.210000	26.240699	0.000649	20.877445
1538.433176	-3.010700	3.403200	-10.244000	26.240521	0.000650	20.858775
1539.434390	-2.998400	3.403600	-10.204000	26.251796	0.000648	20.872476
1540.439581	-3.008900	3.403000	-10.239000	26.257720	0.000647	20.893600
1541.435652	-3.008900	3.402800	-10.238000	26.266481	0.000647	20.891025
1542.436944	-2.998700	3.402400	-10.202000	26.294360	0.000646	20.876369
1543.438287	-2.994100	3.401800	-10.185000	26.287398	0.000648	20.878381
1544.433904	-2.981000	3.400900	-10.137000	26.271828	0.000647	20.870795
1545.437846	-3.003400	3.399800	-10.209000	26.272390	0.000645	20.859981
1546.438424	-3.010800	3.399200	-10.233000	26.302286	0.000645	20.890497
1547.434476	-3.010600	3.399300	-10.233000	26.293884	0.000645	20.871149
1548.438555	-2.987000	3.400000	-10.155000	26.320280	0.000642	20.868754
1549.437279	-3.001900	3.398000	-10.200000	26.310040	0.000642	20.880747
1550.437062	-2.988700	3.398700	-10.157000	26.322478	0.000643	20.859109
1551.434722	-3.001900	3.398200	-10.200000	26.323837	0.000642	20.867113
1552.441673	-2.999600	3.397800	-10.191000	26.320601	0.000642	20.888041
1553.434524	-3.002500	3.398200	-10.202000	26.277072	0.000641	20.884125
1554.438682	-3.005000	3.397500	-10.207000	26.285110	0.000641	20.889358
1555.440323	-3.006800	3.396200	-10.211000	26.274153	0.000641	20.896364
1556.438804	-2.990500	3.395600	-10.153000	26.295913	0.000642	20.881248
1557.438240	-2.989900	3.395900	-10.153000	26.341695	0.000640	20.873680
1558.439092	-2.990000	3.396600	-10.154000	26.351001	0.000640	20.867860
1559.437902	-2.999900	3.395300	-10.185000	26.315665	0.000640	20.898253
1560.434271	-2.988700	3.396000	-10.149000	26.277766	0.000637	20.863962
1561.438839	-2.979000	3.394800	-10.112000	26.308728	0.000637	20.882747
1562.439502	-3.024200	3.392400	-10.258000	26.299015	0.000637	20.882470
1563.440571	-2.999100	3.395500	-10.182000	26.289425	0.000637	20.858609
1564.438581	-3.027000	3.394300	-10.273000	26.263898	0.000637	20.886059
1565.440154	-2.976600	3.393700	-10.101000	26.261458	0.000637	20.851367
1566.440569	-2.995900	3.393100	-10.164000	26.252811	0.000635	20.882030
1567.445916	-2.990100	3.395200	-10.151000	26.257879	0.000636	20.844925
1568.447774	-3.000000	3.392700	-10.176000	26.266022	0.000636	20.865436
1569.440518	-3.024800	3.390500	-10.255000	26.279331	0.000637	20.879284
1570.445098	-2.985400	3.392200	-10.125000	26.294072	0.000635	20.873236
1571.446975	-2.984700	3.391800	-10.122000	26.297847	0.000632	20.870391
1572.442491	-3.010600	3.390500	-10.206000	26.306755	0.000634	20.877920
1573.446250	-2.980000	3.391600	-10.106000	26.338568	0.000633	20.864375
1574.447584	-3.004300	3.389400	-10.181000	26.344247	0.000631	20.868659
1575.441575	-2.999600	3.389200	-10.165000	26.313556	0.000630	20.858678
1576.450160	-2.995200	3.390500	-10.154000	26.335136	0.000632	20.848124
1577.447189	-2.998000	3.389200	-10.160000	26.326141	0.000630	20.871324
1578.442378	-2.992200	3.390900	-10.145000	26.303323	0.000626	20.850765
1579.451325	-2.999400	3.387700	-10.160000	26.327158	0.000628	20.846269
1580.443364	-3.035300	3.387600	-10.281000	26.337635	0.000631	20.864385
1581.446856	-2.997500	3.387100	-10.151000	26.314461	0.000629	20.861958
1582.451344	-2.981600	3.387900	-10.100000	26.225391	0.000627	20.836934
1583.448599	-3.009400	3.386500	-10.190000	26.193232	0.000629	20.878110
1584.448326	-3.009900	3.386700	-10.193000	26.163106	0.000625	20.855899
1585.448411	-3.024200	3.386400	-10.238000	26.144109	0.000627	20.845820
1586.449978	-3.001600	3.385400	-10.160000	26.107270	0.000623	20.871865
1587.445372	-2.987500	3.386500	-10.116000	26.110077	0.000625	20.857143
1588.448606	-2.998700	3.386600	-10.153000	26.147828	0.000623	20.850505
1589.448710	-3.006400	3.383600	-10.172000	26.181624	0.000622	20.847955
1590.449577	-2.957400	3.386200	-10.012000	26.193543	0.000624	20.839543
1591.452069	-3.009000	3.384100	-10.182000	26.212270	0.000622	20.867844
1592.449180	-2.987600	3.384000	-10.109000	26.233552	0.000622	20.850824
1593.449408	-2.970400	3.384600	-10.052000	26.268810	0.000621	20.843582
1594.450447	-2.985700	3.383000	-10.099000	26.279361	0.000622	20.852763
1595.452405	-2.999100	3.383500	-10.146000	26.260561	0.000619	20.842879
1596.448029	-2.991500	3.382500	-10.117000	26.244967	0.000619	20.848070
1597.453488	-3.016800	3.381700	-10.201000	26.238158	0.000618	20.859246
1598.451295	-3.003200	3.382000	-10.155000	26.229682	0.000618	20.855944
1599.455214	-2.997700	3.381200	-10.134000	26.246822	0.000618	20.847090
1600.454000	-2.999600	3.380700	-10.140000	26.224045	0.000618	20.830839
1601.453684	-3.002400	3.380700	-10.149000	26.192854	0.000615	20.859238
1602.449923	-2.988400	3.381000	-10.103000	26.218414	0.000615	20.839406
1603.456257	-3.000100	3.379600	-10.138000	26.189201	0.000616	20.858413
1604.450168	-2.996300	3.379300	-10.123000	26.203259	0.000615	20.850254
1605.448986	-3.011700	3.379800	-10.178000	26.222646	0.000614	20.852667
1606.456212	-2.994600	3.378400	-10.116000	26.249590	0.000613	20.838018
1607.451559	-3.008300	3.377500	-10.160000	26.297227	0.000612	20.832785
1608.455194	-3.013900	3.376600	-10.176000	26.321704	0.000613	20.831306
1609.451910	-2.981400	3.379100	-10.073000	26.339681	0.000612	20.847950
1610.456351	-2.996200	3.376700	-10.117000	26.361807	0.000612	20.818030
1611.451577	-3.003000	3.376600	-10.139000	26.356918	0.000611	20.817384
1612.455667	-3.000400	3.376700	-10.130000	26.370543	0.000610	20.834397
1613.454016	-3.013800	3.375400	-10.171000	26.391700	0.000610	20.832427
1614.453805	-3.003600	3.376400	-10.141000	26.392440	0.000610	20.820369
1615.460164	-3.003700	3.375900	-10.139000	26.409920	0.000613	20.808066
1616.454515	-2.998900	3.375100	-10.120000	26.418461	0.000609	20.833719
1617.457935	-3.006700	3.374900	-10.146000	26.410318	0.000609	20.828855
1618.459481	-2.996900	3.372900	-10.107000	26.399989	0.000609	20.823214
1619.462269	-2.994300	3.376300	-10.109000	26.384665	0.000609	20.836736
1620.454945	-3.006100	3.372800	-10.137000	26.380272	0.000609	20.838011
1621.460703	-3.026200	3.372000	-10.203000	26.364777	0.000607	20.831447
1622.454686	-2.991400	3.373400	-10.091000	26.343295	0.000607	20.845892
1623.458834	-3.000400	3.373400	-10.121000	26.348135	0.000608	20.821834
1624.459243	-3.000200	3.371900	-10.116000	26.402682	0.000607	20.832085
1625.454384	-3.011200	3.371800	-10.152000	26.409539	0.000606	20.822856
1626.454603	-3.015100	3.371500	-10.164000	26.418974	0.000604	20.825700
1627.459269	-3.019200	3.371500	-10.179000	26.432630	0.000606	20.824728
1628.455342	-3.019700	3.370200	-10.176000	26.390644	0.000604	20.821883
1629.457865	-2.987900	3.370600	-10.070000	26.329280	0.000605	20.840342
1630.458778	-3.005100	3.370900	-10.129000	26.330794	0.000607	20.827639
1631.458814	-3.015500	3.368800	-10.158000	26.346160	0.000603	20.843082
1632.458024	-2.977600	3.369400	-10.032000	26.315444	0.000602	20.828808
1633.456306	-2.991300	3.369100	-10.076000	26.259347	0.000602	20.800883
1634.457555	-2.999800	3.368800	-10.105000	26.239457	0.000601	20.800335
1635.463517	-2.991700	3.367900	-10.074000	26.259494	0.000598	20.815729
1636.471623	-2.994300	3.370300	-10.091000	26.240694	0.000600	20.807742
1637.457846	-2.970500	3.368500	-10.005000	26.258194	0.000600	20.825802
1638.459281	-3.046700	3.365800	-10.253000	26.258885	0.000599	20.814643
1639.461852	-3.021900	3.366700	-10.172000	26.279604	0.000597	20.816972
1640.456669	-3.032800	3.365900	-10.206000	26.263611	0.000597	20.830297
1641.455035	-3.010800	3.366300	-10.134000	26.221292	0.000597	20.818591
1642.460135	-3.016000	3.365600	-10.150000	26.192779	0.000596	20.797999
1643.457089	-3.007100	3.365000	-10.117000	26.198717	0.000596	20.812027
1644.459968	-3.003000	3.365200	-10.105000	26.233609	0.000596	20.817218
1645.458819	-2.990700	3.366700	-10.068000	26.286283	0.000594	20.811356
1646.464317	-3.019400	3.364500	-10.158000	26.283647	0.000596	20.811553
1647.461431	-2.980200	3.365900	-10.030000	26.302789	0.000594	20.813245
1648.463320	-3.016600	3.363700	-10.146000	26.310964	0.000595	20.817667
1649.461115	-3.002100	3.365600	-10.103000	26.279181	0.000591	20.812280
1650.463078	-2.976700	3.363700	-10.011000	26.291302	0.000591	20.798856
1651.465003	-3.028300	3.362100	-10.179000	26.284200	0.000594	20.800728
1652.462398	-2.994100	3.362500	-10.067000	26.272681	0.000591	20.797687
1653.461842	-3.001100	3.362700	-10.091000	26.236122	0.000590	20.814528
1654.459980	-2.975200	3.364700	-10.008000	26.226067	0.000590	20.807742
1655.462650	-2.989000	3.362900	-10.050000	26.211838	0.000591	20.816677
1656.462718	-3.007700	3.361000	-10.107000	26.228580	0.000589	20.774232
1657.463036	-2.991100	3.360800	-10.051000	26.244021	0.000586	20.814405
1658.462858	-2.999800	3.361000	-10.082000	26.270598	0.000588	20.812663
1659.463488	-3.002200	3.359000	-10.083000	26.310090	0.000590	20.802566
1660.468043	-2.977900	3.360600	-10.007000	26.305984	0.000586	20.816930
1661.464488	-2.988900	3.359300	-10.040000	26.315151	0.000588	20.805280
1662.468438	-2.991800	3.359600	-10.050000	26.338545	0.000586	20.793230
1663.468867	-2.989900	3.359600	-10.044000	26.361883	0.000585	20.795348
1664.468024	-3.002100	3.357400	-10.078000	26.371871	0.000584	20.784049
1665.463176	-3.002200	3.357400	-10.079000	26.335893	0.000585	20.781555
1666.467892	-3.034100	3.357900	-10.188000	26.346646	0.000585	20.792363
1667.463503	-3.007400	3.358300	-10.098000	26.341285	0.000585	20.778914
1668.468160	-2.975800	3.358100	-9.991800	26.336494	0.000585	20.781211
1669.473236	-2.984500	3.357500	-10.019000	26.276739	0.000583	20.788488
1670.465906	-3.027200	3.354200	-10.154000	26.245280	0.000583	20.786272
1671.470458	-2.997000	3.355900	-10.056000	26.261655	0.000584	20.789925
1672.473174	-3.020100	3.354800	-10.130000	26.257604	0.000581	20.791544
1673.468264	-2.996700	3.354900	-10.053000	26.250998	0.000582	20.776371
1674.470066	-2.998800	3.354500	-10.059000	26.266422	0.000581	20.794716
1675.472274	-3.006200	3.354100	-10.082000	26.301832	0.000579	20.793792
1676.467608	-3.002600	3.355500	-10.074000	26.333069	0.000579	20.773976
1677.469080	-3.006300	3.354900	-10.085000	26.374821	0.000579	20.773738
1678.477791	-3.005300	3.353600	-10.077000	26.381628	0.000581	20.758768
1679.469966	-2.995500	3.354500	-10.046000	26.408764	0.000580	20.779877
1680.467847	-3.003100	3.353000	-10.068000	26.422413	0.000578	20.778423
1681.480551	-3.003700	3.350100	-10.061000	26.442503	0.000580	20.789606
1682.466929	-3.027400	3.349900	-10.140000	26.427236	0.000578	20.768571
1683.472527	-2.998900	3.351400	-10.048000	26.440738	0.000578	20.769814
1684.476396	-3.011800	3.349900	-10.089000	26.418045	0.000577	20.764549
1685.468174	-3.000100	3.351600	-10.054000	26.460502	0.000575	20.790628
1686.473846	-3.004500	3.350200	-10.064000	26.451246	0.000575	20.762358
1687.476351	-3.006400	3.350900	-10.073000	26.470367	0.000574	20.776361
1688.471726	-3.008800	3.351000	-10.081000	26.491368	0.000575	20.791306
1689.472770	-3.007700	3.349600	-10.074000	26.515873	0.000572	20.778479
1690.482000	-3.001700	3.349000	-10.051000	26.520094	0.000573	20.777506
1691.470226	-2.998300	3.348600	-10.038000	26.520118	0.000573	20.776108
1692.473657	-3.006500	3.348300	-10.066000	26.516117	0.000573	20.761655
1693.472286	-3.017100	3.348200	-10.100000	26.494100	0.000571	20.778405
1694.470241	-3.018700	3.347200	-10.104000	26.495938	0.000572	20.759390
1695.473666	-2.986400	3.348800	-9.999500	26.512473	0.000569	20.766527
1696.476693	-2.997500	3.347300	-10.033000	26.492758	0.000569	20.770893
1697.470402	-3.002600	3.348000	-10.052000	26.482933	0.000569	20.777138
1698.476850	-2.996200	3.346700	-10.026000	26.488618	0.000569	20.760566
1699.475439	-3.015100	3.345800	-10.087000	26.510757	0.000569	20.768121
1700.474481	-3.002300	3.346700	-10.047000	26.513050	0.000567	20.754304
1701.477135	-3.015700	3.345400	-10.087000	26.488391	0.000569	20.784520
1702.471306	-3.016500	3.344800	-10.088000	26.455076	0.000568	20.770001
1703.472627	-3.000600	3.344500	-10.033000	26.436084	0.000566	20.760869
1704.473888	-3.007500	3.344500	-10.057000	26.387566	0.000568	20.754304
1705.482198	-2.993000	3.344600	-10.009000	26.397708	0.000567	20.753591
1706.475834	-2.988100	3.344200	-9.990700	26.399164	0.000566	20.783031
1707.476440	-2.977700	3.343700	-9.955100	26.411308	0.000565	20.773425
1708.480029	-2.967800	3.344600	-9.925000	26.415481	0.000564	20.760075
1709.475114	-2.972700	3.342700	-9.936100	26.436863	0.000564	20.765920
1710.473929	-2.997100	3.342500	-10.016000	26.426908	0.000563	20.768716
1711.474305	-2.997500	3.343600	-10.021000	26.474774	0.000564	20.777472
1712.472967	-2.991200	3.341600	-9.993600	26.476685	0.000562	20.762323
1713.476023	-2.989800	3.342500	-9.992800	26.466087	0.000561	20.768740
1714.477843	-2.999200	3.341800	-10.020000	26.461687	0.000560	20.768111
1715.477783	-2.974000	3.342400	-9.939000	26.491952	0.000560	20.764866
1716.478071	-2.990500	3.341800	-9.992300	26.492147	0.000558	20.739457
1717.475518	-2.983200	3.341800	-9.967600	26.500565	0.000561	20.734167
1718.475770	-2.993700	3.340100	-9.998300	26.543711	0.000560	20.757623
1719.472524	-3.008200	3.338600	-10.042000	26.537578	0.000558	20.773745
1720.474331	-2.988300	3.338500	-9.975300	26.531600	0.000557	20.753984
1721.476936	-3.027700	3.337100	-10.103000	26.526209	0.000558	20.735762
1722.478285	-3.010800	3.337800	-10.049000	26.535332	0.000556	20.739243
1723.478378	-3.004100	3.338200	-10.027000	26.537911	0.000557	20.750370
1724.477964	-2.983500	3.338300	-9.959100	26.470382	0.000555	20.752193
1725.478581	-3.001500	3.336200	-10.013000	26.445005	0.000555	20.761775
1726.478217	-3.011100	3.337400	-10.048000	26.424671	0.000556	20.746078
1727.479268	-2.997400	3.337500	-10.003000	26.388768	0.000554	20.747452
1728.477182	-2.976600	3.336900	-9.931300	26.384694	0.000555	20.748572
1729.481045	-2.995200	3.336700	-9.993200	26.361454	0.000552	20.745130
1730.476288	-3.008800	3.334400	-10.032000	26.338459	0.000554	20.726286
1731.478617	-2.996600	3.335400	-9.993100	26.327436	0.000552	20.756935
1732.480226	-3.027800	3.333300	-10.091000	26.344658	0.000552	20.746268
1733.477923	-2.984000	3.334900	-9.950600	26.357771	0.000552	20.738582
1734.479142	-3.005300	3.333700	-10.017000	26.397375	0.000552	20.748041
1735.479809	-2.991900	3.332700	-9.969000	26.397180	0.000549	20.762544
1736.479891	-3.008800	3.332800	-10.027000	26.431838	0.000550	20.722460
1737.479194	-2.993100	3.333500	-9.976600	26.431017	0.000550	20.742025
1738.490058	-3.012200	3.331400	-10.033000	26.428683	0.000550	20.730669
1739.478018	-3.004200	3.332400	-10.010000	26.431814	0.000550	20.735239
1740.479486	-3.017000	3.331900	-10.051000	26.446560	0.000549	20.733939
1741.487400	-3.021100	3.331800	-10.065000	26.449960	0.000548	20.753953
1742.483549	-3.002000	3.331200	-9.999000	26.458297	0.000545	20.738624
1743.480482	-2.993800	3.331700	-9.972800	26.475084	0.000547	20.725625
1744.484722	-2.979500	3.331200	-9.923800	26.440518	0.000545	20.728340
1745.486229	-2.982900	3.331400	-9.936300	26.391462	0.000546	20.721709
1746.485304	-2.971900	3.330100	-9.895700	26.355087	0.000545	20.742997
1747.488919	-2.986000	3.329600	-9.941200	26.307477	0.000545	20.738772
1748.486728	-3.012000	3.329100	-10.026000	26.271961	0.000544	20.759031
1749.485228	-3.005800	3.328600	-10.004000	26.230643	0.000542	20.744536
1750.486668	-3.001800	3.328800	-9.991900	26.225323	0.000542	20.739664
1751.486691	-2.977700	3.326900	-9.904800	26.254951	0.000543	20.734349
1752.487624	-2.993400	3.328000	-9.960500	26.283456	0.000541	20.729330
1753.492474	-3.013800	3.325800	-10.022000	26.321917	0.000542	20.743801
1754.484982	-3.005600	3.326500	-9.996900	26.367136	0.000541	20.725709
1755.489759	-2.992700	3.326800	-9.955200	26.426344	0.000542	20.734957
1756.489067	-2.998200	3.326200	-9.970000	26.405635	0.000540	20.730264
1757.490423	-2.999900	3.323600	-9.969300	26.429866	0.000540	20.732807
1758.485403	-3.011600	3.324400	-10.010000	26.438529	0.000541	20.741988
1759.489667	-3.009600	3.324800	-10.003000	26.464597	0.000537	20.748275
1760.490791	-2.986500	3.325500	-9.930400	26.507915	0.000537	20.752936
1761.493643	-3.000400	3.324500	-9.973600	26.496342	0.000536	20.744622
1762.493042	-3.025500	3.324300	-10.056000	26.486192	0.000537	20.753386
1763.486268	-3.001200	3.324000	-9.974500	26.521165	0.000537	20.745391
1764.489844	-2.992000	3.323700	-9.943300	26.550606	0.000534	20.739898
1765.487009	-3.016900	3.322400	-10.022000	26.526483	0.000534	20.748841
1766.485373	-3.013900	3.322300	-10.011000	26.535333	0.000533	20.742090
1767.490114	-3.001600	3.321800	-9.969400	26.499239	0.000533	20.749431
1768.488896	-3.003100	3.321600	-9.974000	26.509218	0.000531	20.745711
1769.488783	-3.018700	3.320500	-10.023000	26.477913	0.000532	20.730365
1770.490756	-3.025100	3.321300	-10.046000	26.467112	0.000533	20.719982
1771.489657	-2.986100	3.321300	-9.916200	26.447096	0.000530	20.747755
1772.490495	-2.989200	3.320700	-9.925700	26.408021	0.000528	20.748310
1773.491038	-3.006100	3.321100	-9.982500	26.449829	0.000530	20.740544
1774.491404	-2.985200	3.318500	-9.905700	26.462388	0.000529	20.737520
1775.489539	-2.978500	3.319500	-9.886400	26.475530	0.000528	20.737453
1776.485871	-2.985400	3.320000	-9.909800	26.465795	0.000527	20.739996
1777.491336	-3.007500	3.318800	-9.980000	26.474115	0.000527	20.748833
1778.491361	-2.993700	3.317600	-9.931100	26.440597	0.000526	20.713245
1779.491423	-2.980200	3.319000	-9.889700	26.425208	0.000527	20.741401
1780.495944	-2.988200	3.317700	-9.911700	26.414105	0.000524	20.725975
1781.492512	-2.984400	3.317300	-9.898700	26.433797	0.000525	20.727748
1782.491611	-3.010600	3.315800	-9.980900	26.435219	0.000525	20.726807
1783.493362	-3.001600	3.315500	-9.950400	26.457171	0.000523	20.757408
1784.493739	-3.002900	3.315200	-9.954100	26.506524	0.000523	20.742055
1785.489451	-3.002600	3.315100	-9.953300	26.549052	0.000521	20.734542
1786.492687	-2.996500	3.314500	-9.931200	26.578304	0.000523	20.747826
1787.489216	-3.000900	3.315100	-9.947000	26.566641	0.000522	20.746533
1788.491916	-2.995700	3.315700	-9.930100	26.538437	0.000521	20.719604
1789.498110	-3.014100	3.314300	-9.987600	26.534719	0.000520	20.732463
1790.491818	-3.025500	3.313400	-10.023000	26.504383	0.000522	20.729470
1791.493637	-3.011700	3.312100	-9.974400	26.516721	0.000519	20.730492
1792.496481	-3.018600	3.313900	-10.002000	26.524796	0.000520	20.745248
1793.497065	-3.012500	3.312000	-9.974900	26.547504	0.000517	20.755272
1794.491412	-2.986500	3.313000	-9.893500	26.576138	0.000518	20.736639
1795.496752	-2.984100	3.311700	-9.882100	26.590086	0.000517	20.753032
1796.489105	-2.987400	3.311100	-9.889900	26.597535	0.000517	20.726379
1797.489682	-3.025100	3.310000	-10.012000	26.631226	0.000517	20.727532
1798.498531	-3.001500	3.311400	-9.938500	26.647532	0.000517	20.733492
1799.495759	-2.997400	3.311500	-9.923400	26.622656	0.000515	20.731718
1800.492593	-3.018000	3.310300	-9.989200	26.623299	0.000515	20.734261
1801.498852	-2.994300	3.310000	-9.910000	26.620843	0.000515	20.743647
1802.498154	-3.002000	3.310400	-9.936600	26.594729	0.000514	20.733043
1803.491397	-2.996200	3.308300	-9.911800	26.583597	0.000514	20.719481
1804.499479	-3.013200	3.309100	-9.969900	26.560705	0.000512	20.742462
1805.489562	-3.019300	3.307400	-9.984800	26.510281	0.000512	20.742986
1806.492058	-2.989700	3.308300	-9.890200	26.465914	0.000513	20.735374
1807.495146	-3.001200	3.308700	-9.929800	26.460970	0.000511	20.750320
1808.498531	-3.009900	3.308400	-9.957000	26.488997	0.000511	20.751465
1809.496438	-2.988400	3.307200	-9.882100	26.519715	0.000511	20.752469
1810.498157	-2.991200	3.307200	-9.891400	26.558290	0.000509	20.750467
1811.498401	-3.001700	3.306500	-9.923800	26.567602	0.000508	20.765992
1812.495886	-2.978700	3.307500	-9.850900	26.590267	0.000508	20.738040
1813.501292	-2.985900	3.307700	-9.875600	26.577898	0.000509	20.731770
1814.499060	-3.008200	3.305300	-9.941900	26.600986	0.000507	20.743126
1815.496751	-3.001000	3.305500	-9.919000	26.621967	0.000506	20.748096
1816.500533	-2.983900	3.305400	-9.862300	26.658708	0.000505	20.750418
1817.495495	-3.006000	3.304900	-9.932800	26.660570	0.000504	20.766041
1818.497645	-3.015600	3.302800	-9.958500	26.674150	0.000505	20.726586
1819.498767	-2.988700	3.302700	-9.869500	26.670848	0.000504	20.737018
1820.502061	-3.009300	3.303800	-9.940700	26.695024	0.000501	20.743305
1821.497190	-3.007800	3.301900	-9.929500	26.728915	0.000501	20.746558
1822.499605	-2.991700	3.302700	-9.879600	26.728534	0.000502	20.737640
1823.497353	-3.007400	3.301400	-9.927900	26.688079	0.000501	20.754816
1824.497607	-3.030800	3.300700	-10.003000	26.651315	0.000502	20.746305
1825.503993	-2.990300	3.301500	-9.872100	26.582329	0.000500	20.751398
1826.498960	-2.989900	3.301100	-9.868200	26.603310	0.000500	20.742617
1827.499365	-2.992300	3.300600	-9.875600	26.565380	0.000499	20.732463
1828.500296	-2.996000	3.300100	-9.884900	26.582011	0.000500	20.767200
1829.499166	-2.992200	3.301200	-9.877100	26.594006	0.000497	20.754602
1830.501290	-2.996700	3.299500	-9.886500	26.624046	0.000498	20.752557
1831.500683	-2.999800	3.300400	-9.899700	26.635814	0.000497	20.762965
1832.498808	-3.005000	3.298600	-9.910700	26.643881	0.000500	20.754479
1833.496962	-2.974100	3.299600	-9.812500	26.665332	0.000496	20.758501
1834.497689	-2.978500	3.299600	-9.827000	26.655330	0.000495	20.747022
1835.495474	-3.005500	3.299400	-9.915300	26.627526	0.000495	20.753685
1836.495165	-2.985600	3.299500	-9.848400	26.608960	0.000494	20.779592
1837.500586	-2.998600	3.298900	-9.891000	26.585352	0.000495	20.743531
1838.502556	-2.976600	3.298200	-9.815400	26.530335	0.000496	20.744177
1839.506193	-3.002700	3.295600	-9.895300	26.510596	0.000495	20.749467
1840.501671	-3.009500	3.296500	-9.918600	26.519908	0.000494	20.772104
1841.496776	-3.013500	3.293900	-9.924700	26.530188	0.000491	20.760151
1842.501744	-3.006900	3.294700	-9.905600	26.557026	0.000492	20.753464
1843.502196	-3.023300	3.294900	-9.960000	26.584953	0.000492	20.745975
1844.499990	-3.004100	3.294100	-9.894200	26.582864	0.000491	20.751936
1845.495988	-3.020100	3.294700	-9.948400	26.627404	0.000491	20.762097
1846.499236	-3.010300	3.294000	-9.915300	26.618247	0.000489	20.757633
1847.502978	-3.002600	3.294900	-9.892000	26.672861	0.000492	20.789778
1848.501155	-3.011000	3.293000	-9.914200	26.670545	0.000488	20.749516
1849.502815	-3.020100	3.293200	-9.944800	26.690483	0.000489	20.783786
1850.502822	-3.006800	3.292000	-9.896900	26.710617	0.000489	20.776526
1851.502544	-2.989500	3.293700	-9.845200	26.721709	0.000487	20.770134
1852.508311	-2.998300	3.291400	-9.865800	26.733352	0.000487	20.755761
1853.501847	-2.991800	3.292700	-9.848800	26.780171	0.000486	20.753046
1854.500826	-3.023600	3.289500	-9.945500	26.800621	0.000483	20.762702
1855.500258	-3.018100	3.289100	-9.926400	26.834281	0.000485	20.766674
1856.499099	-3.010800	3.289900	-9.904300	26.861185	0.000482	20.765276
1857.504476	-2.979100	3.291300	-9.803800	26.894421	0.000483	20.771669
1858.503359	-3.021400	3.289600	-9.937800	26.910055	0.000482	20.764630
1859.501493	-2.993500	3.288200	-9.842700	26.911323	0.000482	20.760215
1860.502110	-3.010600	3.286600	-9.893600	26.913859	0.000483	20.771774
1861.506359	-2.964800	3.289300	-9.751400	26.935476	0.000481	20.770278
1862.502847	-3.000100	3.287400	-9.861900	26.911697	0.000479	20.777187
1863.501966	-2.984500	3.287200	-9.809000	26.926217	0.000479	20.768554
1864.504259	-3.005700	3.287300	-9.879800	26.945623	0.000480	20.762937
1865.500096	-2.981300	3.286900	-9.797800	26.943273	0.000478	20.753935
1866.500800	-2.997600	3.286900	-9.852100	26.947314	0.000477	20.781233
1867.506348	-3.028900	3.285700	-9.951100	26.949752	0.000478	20.752864
1868.503629	-3.009000	3.284900	-9.883200	26.971784	0.000477	20.779761
1869.503507	-2.982800	3.284800	-9.795900	26.979010	0.000475	20.757156
1870.508950	-2.973000	3.284700	-9.764600	26.983750	0.000475	20.769983
1871.508714	-2.994100	3.284500	-9.833000	27.014527	0.000475	20.770588
1872.505356	-3.006200	3.284200	-9.872200	26.991968	0.000474	20.768765
1873.504886	-3.012100	3.284000	-9.889500	26.981155	0.000474	20.776383
1874.507943	-2.991800	3.283300	-9.821800	26.949515	0.000474	20.770170
1875.503218	-3.009100	3.284200	-9.881600	26.926060	0.000473	20.773138
1876.506231	-3.021800	3.282500	-9.917300	26.921824	0.000472	20.793060
1877.508026	-2.999800	3.283000	-9.846900	26.881767	0.000474	20.788343
1878.506652	-3.028000	3.281000	-9.933600	26.870970	0.000471	20.778909
1879.511399	-2.978500	3.283300	-9.777600	26.857246	0.000469	20.769376
1880.509228	-3.008100	3.281900	-9.871400	26.870994	0.000470	20.784149
1881.526892	-3.003300	3.282400	-9.857500	26.833245	0.000468	20.775589
1882.510078	-2.999700	3.280400	-9.839000	26.835708	0.000469	20.763841
1883.512227	-3.018200	3.279700	-9.898400	26.842530	0.000468	20.769278
1884.507901	-3.021600	3.279700	-9.909400	26.856229	0.000466	20.791588
1885.506551	-3.026000	3.278500	-9.920100	26.847050	0.000468	20.786151
1886.507756	-2.984900	3.281600	-9.793700	26.831205	0.000467	20.790608
1887.507981	-3.002000	3.278800	-9.841900	26.791257	0.000466	20.770831
1888.509403	-2.996000	3.279800	-9.825000	26.786988	0.000464	20.767013
1889.511398	-3.030800	3.277500	-9.932500	26.807039	0.000464	20.754456
1890.512560	-2.997600	3.278500	-9.827100	26.811259	0.000465	20.786200
1891.514501	-2.994800	3.277800	-9.815600	26.849132	0.000463	20.774968
1892.515849	-3.001400	3.278500	-9.838800	26.830471	0.000463	20.782758
1893.508990	-2.989500	3.278600	-9.799600	26.836602	0.000464	20.787500
1894.509950	-2.982700	3.277600	-9.774900	26.836480	0.000464	20.776471
1895.513726	-3.007600	3.276800	-9.854100	26.827146	0.000461	20.780837
1896.511571	-2.985900	3.277200	-9.784400	26.804095	0.000461	20.799860
1897.512119	-2.999500	3.275300	-9.822300	26.861246	0.000462	20.773398
1898.511364	-3.001700	3.275300	-9.830500	26.857700	0.000461	20.775049
1899.515135	-2.991300	3.274400	-9.792700	26.885473	0.000459	20.813406
1900.509828	-2.992100	3.274600	-9.796700	26.874977	0.000458	20.772032
1901.512126	-3.002100	3.274400	-9.829100	26.838415	0.000457	20.800703
1902.510527	-2.993000	3.273700	-9.796500	26.880733	0.000457	20.790622
1903.512372	-3.001500	3.275100	-9.828300	26.919742	0.000457	20.793811
1904.518188	-2.990200	3.274200	-9.789500	26.964925	0.000455	20.782822
1905.518863	-2.992600	3.273900	-9.796500	26.932708	0.000453	20.786935
1906.516545	-2.994900	3.274700	-9.806400	26.921660	0.000455	20.810439
1907.511566	-3.009100	3.272200	-9.845400	26.933627	0.000456	20.792600
1908.518250	-3.001300	3.272500	-9.821400	26.951471	0.000453	20.792052
1909.511506	-2.994900	3.271500	-9.797000	26.951779	0.000451	20.786672
1910.518631	-2.980500	3.271800	-9.750700	26.979476	0.000451	20.790342
1911.514987	-2.971500	3.271300	-9.718400	26.992923	0.000452	20.780631
1912.515783	-2.994000	3.271400	-9.794100	27.007994	0.000452	20.791045
1913.516010	-2.996200	3.270200	-9.796800	27.002636	0.000451	20.799408
1914.518795	-2.976200	3.271400	-9.735500	27.037998	0.000448	20.813632
1915.514810	-3.001100	3.269800	-9.811500	27.008343	0.000448	20.790922
1916.518655	-2.978100	3.269800	-9.736600	26.997757	0.000448	20.783596
1917.522264	-3.000500	3.269100	-9.807100	26.987677	0.000447	20.805702
1918.513937	-3.003100	3.268000	-9.814200	26.956736	0.000450	20.772216
1919.533827	-3.005900	3.268200	-9.822000	26.979864	0.000447	20.798319
1920.519390	-3.019200	3.266900	-9.861400	26.988505	0.000446	20.814595
1921.520911	-2.992000	3.267100	-9.774400	27.005032	0.000444	20.787593
1922.524322	-2.996900	3.267900	-9.791400	27.047994	0.000443	20.807564
1923.525239	-2.993200	3.266900	-9.777200	27.050075	0.000444	20.795432
1924.523739	-3.003500	3.266200	-9.809200	27.072528	0.000443	20.791934
1925.533110	-3.011600	3.264300	-9.829900	27.086012	0.000443	20.802176
1926.528243	-3.001000	3.264700	-9.795700	27.090671	0.000443	20.811603
1927.529557	-3.002000	3.264900	-9.800100	27.073454	0.000441	20.816098
1928.524255	-3.002300	3.264100	-9.798600	27.072315	0.000442	20.812109
1929.523019	-2.979600	3.264300	-9.726100	27.068145	0.000440	20.813131
1930.521827	-3.011400	3.262900	-9.825100	27.057829	0.000439	20.819825
1931.524827	-3.004700	3.264000	-9.805800	27.068128	0.000440	20.808846
1932.537819	-3.021300	3.261200	-9.851800	27.027224	0.000439	20.794263
1933.523123	-3.002600	3.262500	-9.795400	27.026890	0.000437	20.804832
1934.527749	-2.996500	3.262300	-9.774600	27.038271	0.000438	20.801105
1935.528805	-3.014600	3.261700	-9.832500	27.060763	0.000440	20.810448
1936.524415	-3.002000	3.261400	-9.789500	27.075647	0.000438	20.811666
1937.529987	-3.027600	3.260900	-9.871400	27.055594	0.000436	20.811887
1938.538113	-3.000600	3.261000	-9.784100	27.059593	0.000435	20.812116
1939.536078	-2.984800	3.261800	-9.735400	27.060990	0.000434	20.825375
1940.537996	-3.003200	3.260200	-9.789900	27.072110	0.000435	20.820437
1941.534023	-2.988600	3.259700	-9.741500	27.120817	0.000433	20.806360
1942.538155	-2.973900	3.260300	-9.695200	27.127595	0.000432	20.821712
1943.526675	-2.981500	3.260100	-9.719000	27.171512	0.000432	20.847389
1944.532176	-2.993500	3.258300	-9.752600	27.135886	0.000430	20.817722
1945.523942	-3.004900	3.257100	-9.786700	27.114402	0.000432	20.817926
1946.536288	-3.004000	3.257900	-9.786000	27.069362	0.000429	20.811035
1947.532743	-2.989400	3.258300	-9.739400	27.058769	0.000429	20.809865
1948.532307	-2.986500	3.257900	-9.728400	27.064745	0.000431	20.813030
1949.534254	-2.997200	3.255400	-9.756300	27.089163	0.000429	20.823363
1950.528292	-2.996700	3.256500	-9.757500	27.098705	0.000428	20.821579
1951.533265	-2.991000	3.256200	-9.737100	27.118352	0.000428	20.800562
1952.532388	-2.987400	3.255000	-9.722300	27.090585	0.000427	20.834749
1953.527722	-3.010100	3.253600	-9.792700	27.055200	0.000426	20.842785
1954.530525	-2.973700	3.254400	-9.676900	27.020538	0.000423	20.814091
1955.529987	-2.991000	3.255100	-9.734600	27.008206	0.000425	20.817810
1956.542593	-2.996200	3.254100	-9.748700	27.046599	0.000423	20.824178
1957.528185	-3.004300	3.251900	-9.769000	27.050859	0.000424	20.825144
1958.537980	-3.013300	3.251100	-9.795100	27.102323	0.000423	20.834226
1959.528275	-2.989800	3.253200	-9.725900	27.120506	0.000421	20.833548
1960.533435	-3.010400	3.251800	-9.788000	27.120538	0.000419	20.860606
1961.537487	-3.000400	3.252700	-9.758900	27.127432	0.000419	20.836720
1962.537962	-3.000700	3.250500	-9.752600	27.160830	0.000421	20.828586
1963.535907	-2.997500	3.251300	-9.743800	27.199609	0.000420	20.835820
1964.530573	-2.990600	3.251800	-9.723900	27.170999	0.000418	20.842132
1965.533295	-2.992300	3.252200	-9.728800	27.171715	0.000418	20.829576
1966.532723	-2.987300	3.251100	-9.711300	27.194472	0.000419	20.828758
1967.533592	-2.996000	3.250000	-9.735400	27.225009	0.000416	20.841454
1968.533455	-3.004300	3.250000	-9.763100	27.218775	0.000414	20.835184
1969.534836	-3.002500	3.249200	-9.754400	27.176202	0.000416	20.850683
1970.538624	-3.001900	3.248400	-9.750800	27.166180	0.000416	20.840604
1971.532413	-3.025100	3.246300	-9.818900	27.148387	0.000414	20.833140
1972.531847	-3.003300	3.249100	-9.757500	27.158930	0.000414	20.844217
1973.533664	-3.019600	3.245600	-9.799500	27.195066	0.000412	20.829355
1974.532444	-3.002300	3.246300	-9.745700	27.227781	0.000415	20.850880
1975.533633	-3.011400	3.248000	-9.779800	27.248620	0.000410	20.845289
1976.532933	-2.988600	3.245500	-9.698300	27.272758	0.000412	20.849180
1977.533596	-3.002200	3.246000	-9.744400	27.238875	0.000411	20.846392
1978.535209	-2.984500	3.245900	-9.686600	27.217256	0.000410	20.866371
1979.537999	-2.983100	3.244000	-9.676100	27.198742	0.000408	20.845854
1980.533349	-3.025700	3.243400	-9.812500	27.194433	0.000408	20.845787
1981.532550	-2.999400	3.243700	-9.728100	27.158500	0.000407	20.832880
1982.533195	-2.976900	3.245300	-9.659000	27.144259	0.000409	20.845583
1983.534377	-2.986800	3.243500	-9.686800	27.153468	0.000404	20.862431
1984.535471	-3.007200	3.243600	-9.752300	27.185298	0.000405	20.859832
1985.534969	-3.004500	3.243100	-9.742300	27.241095	0.000406	20.845780
1986.534705	-3.021400	3.240800	-9.790900	27.285031	0.000405	20.851568
1987.535955	-3.015600	3.242700	-9.777700	27.282828	0.000402	20.863576
1988.535144	-2.999100	3.241300	-9.720500	27.294784	0.000403	20.849524
1989.534171	-2.979700	3.241200	-9.656300	27.229352	0.000401	20.857675
1990.536630	-2.992300	3.239900	-9.692500	27.191793	0.000402	20.861623
1991.538338	-3.019100	3.240100	-9.781000	27.144968	0.000401	20.861942
1992.543487	-2.993800	3.240600	-9.701200	27.171490	0.000400	20.858746
1993.537491	-3.008600	3.239200	-9.744400	27.186324	0.000400	20.864657
1994.539819	-3.015100	3.239100	-9.765300	27.219819	0.000398	20.870845
1995.540225	-2.998500	3.237600	-9.707100	27.228223	0.000397	20.863178
1996.540884	-2.986000	3.238700	-9.668900	27.231841	0.000397	20.862549
1997.542242	-2.990700	3.236800	-9.679400	27.259799	0.000396	20.885454
1998.539632	-2.982700	3.237300	-9.655000	27.274981	0.000395	20.861372
1999.544620	-2.958800	3.238700	-9.582000	27.269017	0.000396	20.871968
2000.544004	-2.987100	3.238100	-9.671000	27.277844	0.000392	20.890802
2001.540280	-2.968000	3.236500	-9.605100	27.241076	0.000394	20.868045
2002.540165	-2.996400	3.236300	-9.695800	27.234965	0.000394	20.879915
2003.543329	-2.985500	3.235800	-9.659500	27.244930	0.000392	20.871447
2004.539767	-3.002800	3.234800	-9.712700	27.223148	0.000390	20.868030
2005.540437	-2.986800	3.237100	-9.667800	27.218678	0.000391	20.883922
2006.538088	-2.995600	3.233700	-9.685800	27.238128	0.000388	20.859864
2007.540421	-3.025200	3.233500	-9.780700	27.248467	0.000388	20.876427
2008.541873	-3.024400	3.233300	-9.778200	27.246923	0.000388	20.872030
2009.543247	-2.998100	3.232400	-9.690100	27.250897	0.000388	20.875552
2010.540371	-3.004600	3.233000	-9.712200	27.276872	0.000386	20.872757
2011.541389	-2.995300	3.233700	-9.684800	27.238365	0.000386	20.877171
2012.551383	-2.985300	3.232700	-9.649700	27.218046	0.000383	20.868114
2013.545047	-2.985300	3.232300	-9.648800	27.227345	0.000386	20.878414
2014.547941	-2.987000	3.230000	-9.646600	27.267462	0.000383	20.857602
2015.542954	-2.972400	3.231500	-9.603000	27.297085	0.000384	20.883605
2016.548635	-3.002000	3.230900	-9.698800	27.269152	0.000383	20.856457
2017.544602	-2.954100	3.232000	-9.546400	27.271509	0.000380	20.862147
2018.549608	-3.002400	3.229500	-9.695300	27.292591	0.000380	20.867232
2019.542789	-3.008900	3.229900	-9.717100	27.296321	0.000381	20.864345
2020.544459	-2.989900	3.229200	-9.653500	27.320995	0.000379	20.870200
2021.547802	-3.012800	3.227100	-9.721500	27.331065	0.000379	20.865156
2022.545409	-2.995800	3.228200	-9.670200	27.369446	0.000377	20.858248
2023.548930	-3.021600	3.224400	-9.741700	27.418757	0.000377	20.856172
2024.546184	-2.994800	3.226400	-9.661500	27.436667	0.000376	20.853328
2025.547392	-2.988200	3.226100	-9.638900	27.379173	0.000377	20.854757
2026.549374	-2.995000	3.225700	-9.659500	27.359590	0.000375	20.867299
2027.549582	-3.012400	3.225800	-9.715900	27.320915	0.000376	20.864903
2028.547522	-2.998100	3.224200	-9.666100	27.310220	0.000372	20.884490
2029.546727	-2.985800	3.224500	-9.627300	27.282238	0.000372	20.875784
2030.545640	-2.987700	3.223300	-9.628400	27.314641	0.000373	20.853851
2031.549084	-3.028600	3.223500	-9.761200	27.373112	0.000369	20.866677
2032.546733	-3.025900	3.222400	-9.749300	27.404293	0.000371	20.852527
2033.549396	-2.998400	3.223700	-9.664200	27.413321	0.000369	20.875833
2034.550354	-3.010700	3.221500	-9.697000	27.439886	0.000369	20.866996
2035.548584	-3.030500	3.221300	-9.761300	27.441185	0.000367	20.854553
2036.553873	-2.999400	3.222000	-9.663700	27.447905	0.000367	20.861314
2037.549170	-3.018200	3.220200	-9.718200	27.480742	0.000365	20.873013
2038.551731	-2.996600	3.220000	-9.647900	27.473380	0.000365	20.858968
2039.547633	-3.008700	3.219600	-9.685500	27.492898	0.000368	20.861061
2040.549733	-3.000500	3.219600	-9.659400	27.517355	0.000365	20.860064
2041.549248	-2.969600	3.220900	-9.564000	27.526090	0.000363	20.853679
2042.549219	-2.999200	3.217900	-9.650900	27.525618	0.000364	20.864584
2043.549935	-3.007800	3.217400	-9.675700	27.487128	0.000362	20.854782
2044.549879	-2.977700	3.219400	-9.585600	27.471575	0.000359	20.851937
2045.552736	-3.009300	3.218200	-9.682800	27.476515	0.000360	20.852166
2046.551538	-3.000800	3.217600	-9.653700	27.451666	0.000361	20.850399
2047.550446	-2.985200	3.218400	-9.606300	27.449229	0.000360	20.845577
2048.550215	-2.993400	3.216200	-9.626700	27.435624	0.000359	20.830942
2049.552399	-3.013100	3.215200	-9.686000	27.449065	0.000357	20.835455
2050.550946	-3.014700	3.216400	-9.694800	27.444872	0.000358	20.860159
2051.555307	-2.988000	3.216200	-9.609400	27.487784	0.000356	20.844063
2052.550353	-3.005800	3.215000	-9.662500	27.497015	0.000357	20.844341
2053.551131	-2.997300	3.214800	-9.635600	27.503483	0.000358	20.834254
2054.554063	-2.990200	3.215500	-9.614000	27.513932	0.000353	20.836706
2055.553513	-3.005100	3.213700	-9.656600	27.495056	0.000353	20.844267
2056.553552	-2.981400	3.212600	-9.577400	27.489474	0.000354	20.844341
2057.556902	-2.994000	3.213500	-9.620600	27.509966	0.000351	20.840302
2058.557820	-3.002000	3.212000	-9.641100	27.495129	0.000350	20.844815
2059.556224	-3.006300	3.212600	-9.657100	27.530548	0.000351	20.851527
2060.559761	-3.032700	3.210300	-9.735000	27.546847	0.000351	20.826675
2061.554570	-2.994500	3.212200	-9.617100	27.569028	0.000349	20.836190
2062.560785	-2.992500	3.210500	-9.606700	27.586180	0.000348	20.833060
2063.564784	-3.011600	3.210200	-9.666800	27.584547	0.000349	20.833787
2064.555938	-3.013500	3.208900	-9.669200	27.535415	0.000349	20.845518
2065.570170	-3.002400	3.207800	-9.628800	27.475629	0.000344	20.839894
2066.560363	-3.006500	3.209700	-9.648700	27.449121	0.000344	20.834089
2067.557251	-3.004400	3.208700	-9.638100	27.462611	0.000345	20.832962
2068.560284	-2.989300	3.209000	-9.591700	27.457199	0.000344	20.819457
2069.563437	-3.006500	3.207200	-9.641500	27.472337	0.000343	20.835160
2070.562128	-3.001900	3.205900	-9.622500	27.495366	0.000342	20.838416
2071.559935	-2.998300	3.206300	-9.612700	27.539275	0.000340	20.843238
2072.561142	-2.993500	3.205200	-9.594000	27.577007	0.000338	20.826675
2073.560785	-3.001500	3.204300	-9.616200	27.577349	0.000340	20.848829
2074.561215	-2.989900	3.205000	-9.581900	27.514923	0.000338	20.828694
2075.561435	-3.000700	3.204800	-9.615700	27.486256	0.000338	20.825931
2076.562807	-2.989500	3.204200	-9.578200	27.490839	0.000337	20.828645
2077.560065	-3.000600	3.203800	-9.611500	27.514557	0.000338	20.827852
2078.566144	-2.982100	3.203900	-9.553800	27.560252	0.000335	20.840162
2079.561579	-2.986300	3.203500	-9.565100	27.574438	0.000334	20.820297
2080.560748	-2.983900	3.202900	-9.556400	27.526241	0.000335	20.827753
2081.565250	-3.020000	3.202700	-9.670400	27.505830	0.000333	20.832822
2082.561255	-3.008200	3.201400	-9.630200	27.471182	0.000333	20.816929
2083.561883	-2.990800	3.202900	-9.577200	27.429292	0.000332	20.835477
2084.563292	-3.000600	3.201300	-9.604200	27.458317	0.000331	20.823901
2085.566737	-3.001200	3.200600	-9.604400	27.460430	0.000331	20.831716
2086.563094	-2.974900	3.201400	-9.522600	27.487017	0.000332	20.812947
2087.571347	-3.023600	3.200200	-9.675500	27.476558	0.000330	20.802424
2088.568260	-3.008700	3.199100	-9.623800	27.447282	0.000328	20.828446
2089.569039	-3.009400	3.198400	-9.623500	27.418434	0.000330	20.821710
2090.570063	-3.006900	3.196900	-9.611500	27.373568	0.000328	20.846748
2091.572251	-3.009800	3.197100	-9.621500	27.381727	0.000328	20.832197
2092.562711	-3.014200	3.196600	-9.634600	27.394460	0.000327	20.833153
2093.566826	-3.022900	3.197200	-9.662800	27.418994	0.000326	20.825117
2094.567907	-3.020100	3.196400	-9.652700	27.445509	0.000327	20.823343
2095.564172	-3.018200	3.195800	-9.644600	27.537880	0.000325	20.818602
2096.573390	-3.006400	3.195100	-9.604000	27.574939	0.000323	20.828387
2097.565989	-3.010800	3.194800	-9.617700	27.542747	0.000325	20.807851
2098.566522	-3.025800	3.194100	-9.663500	27.544712	0.000323	20.806510
2099.566250	-3.002000	3.194200	-9.587000	27.549742	0.000322	20.831011
2100.566450	-2.986900	3.193600	-9.538200	27.566285	0.000320	20.809249
2101.565624	-3.015700	3.192700	-9.628000	27.555844	0.000321	20.795899
2102.568938	-3.017000	3.192700	-9.631800	27.593998	0.000321	20.808210
2103.566871	-3.000500	3.193100	-9.580000	27.536051	0.000321	20.815813
2104.566328	-3.022600	3.190400	-9.642300	27.510977	0.000319	20.839896
2105.570031	-3.012300	3.191600	-9.612400	27.472785	0.000321	20.826603
2106.569468	-3.013700	3.190300	-9.612700	27.423365	0.000320	20.829040
2107.575509	-3.009900	3.190700	-9.602600	27.418188	0.000318	20.810082
2108.571511	-3.013900	3.189900	-9.612700	27.474566	0.000318	20.811325
2109.571555	-3.001600	3.189100	-9.571100	27.518273	0.000316	20.809780
2110.571595	-2.986400	3.189500	-9.522700	27.536010	0.000316	20.812453
2111.575019	-3.022900	3.187300	-9.634100	27.564212	0.000316	20.817595
2112.570163	-3.017400	3.188600	-9.619800	27.604561	0.000314	20.822631
2113.570848	-3.032000	3.187100	-9.661500	27.629812	0.000314	20.823857
2114.572491	-3.027000	3.184800	-9.638700	27.682838	0.000313	20.809411
2115.573665	-3.009600	3.186900	-9.590800	27.691515	0.000312	20.804392
2116.575873	-2.965600	3.188900	-9.456300	27.710614	0.000311	20.817921
2117.576084	-3.007900	3.186700	-9.584200	27.727797	0.000310	20.820039
2118.574562	-3.004100	3.186400	-9.571300	27.707389	0.000310	20.796658
2119.573755	-2.959800	3.186600	-9.430200	27.715155	0.000311	20.793093
2120.575450	-2.998000	3.184000	-9.545600	27.673261	0.000307	20.798825
2121.575522	-3.006100	3.185400	-9.574400	27.676811	0.000309	20.792440
2122.571872	-3.006900	3.182100	-9.566700	27.690898	0.000306	20.818943
2123.573913	-3.011800	3.183100	-9.585400	27.686178	0.000307	20.813246
2124.582531	-3.007300	3.181000	-9.565100	27.672741	0.000307	20.790715
2125.574732	-2.998600	3.182000	-9.540200	27.675439	0.000306	20.804336
2126.577045	-2.994800	3.183400	-9.532000	27.658702	0.000303	20.794133
2127.575517	-3.000400	3.180700	-9.542500	27.661254	0.000306	20.799071
2128.572034	-2.995000	3.179500	-9.521600	27.675878	0.000303	20.805252
2129.574433	-2.983900	3.181400	-9.492400	27.701557	0.000302	20.805962
2130.573820	-2.986100	3.180300	-9.495300	27.727245	0.000304	20.788190
2131.574185	-3.006600	3.177400	-9.552900	27.723151	0.000302	20.797820
2132.575630	-3.018100	3.176900	-9.586900	27.715832	0.000301	20.787610
2133.573422	-2.979600	3.177700	-9.467700	27.731007	0.000300	20.791502
2134.575618	-2.993300	3.178300	-9.512700	27.727011	0.000298	20.788428
2135.577111	-3.022300	3.174900	-9.593700	27.731398	0.000299	20.813706
2136.576419	-3.010600	3.173800	-9.553800	27.754576	0.000296	20.787718
2137.576446	-2.995300	3.177700	-9.516900	27.786265	0.000297	20.787367
2138.574886	-2.999600	3.175300	-9.523800	27.791668	0.000297	20.793278
2139.577085	-3.009100	3.172900	-9.547300	27.783058	0.000297	20.785087
2140.575978	-2.993900	3.173900	-9.501300	27.799126	0.000296	20.786085
2141.577090	-2.977200	3.174800	-9.451200	27.794487	0.000296	20.803228
2142.574660	-3.000400	3.172300	-9.516900	27.797607	0.000294	20.782660
2143.575642	-3.020200	3.174000	-9.585000	27.768542	0.000294	20.810783
2144.577980	-3.023100	3.171300	-9.584700	27.747186	0.000293	20.781230
2145.577295	-3.022600	3.170400	-9.581800	27.757374	0.000292	20.799543
2146.580311	-3.001200	3.171900	-9.518300	27.764556	0.000292	20.779270
2147.582555	-3.012200	3.169400	-9.545800	27.780534	0.000290	20.789185
2148.588223	-2.989300	3.170200	-9.475400	27.812216	0.000291	20.797362
2149.584349	-2.977800	3.169700	-9.438100	27.853521	0.000289	20.801948
2150.584890	-3.002700	3.170200	-9.517400	27.846001	0.000290	20.791060
2151.582346	-3.043000	3.166600	-9.634300	27.841736	0.000289	20.800045
2152.580952	-3.052200	3.165700	-9.660200	27.875032	0.000287	20.796571
2153.587670	-3.013200	3.169000	-9.546800	27.858413	0.000288	20.803079
2154.581064	-3.011100	3.165200	-9.529800	27.838724	0.000287	20.789901
2155.584415	-2.999400	3.166100	-9.495700	27.819051	0.000283	20.781956
2156.588016	-3.009500	3.165800	-9.526100	27.806623	0.000284	20.799794
2157.583759	-3.012700	3.164700	-9.532900	27.756649	0.000284	20.762778
2158.584191	-2.994000	3.163500	-9.469500	27.754587	0.000282	20.774927
2159.589130	-3.012900	3.162800	-9.526700	27.736309	0.000284	20.793992
2160.582205	-2.969700	3.163300	-9.392100	27.762216	0.000282	20.788295
2161.581563	-2.999000	3.163200	-9.484900	27.790785	0.000279	20.788123
2162.583287	-3.010500	3.162800	-9.521000	27.814985	0.000279	20.803942
2163.581456	-3.015600	3.160800	-9.530700	27.793867	0.000278	20.780318
2164.580962	-2.999200	3.159800	-9.475400	27.748740	0.000279	20.775208
2165.585240	-3.013400	3.160400	-9.523100	27.716149	0.000278	20.788877
2166.584005	-2.998000	3.160800	-9.475200	27.667535	0.000277	20.789270
2167.587741	-3.021600	3.160100	-9.547800	27.655577	0.000276	20.791462
2168.586691	-3.006100	3.159300	-9.495700	27.652481	0.000275	20.782657
2169.583010	-3.009600	3.157000	-9.499900	27.663085	0.000274	20.780999
2170.584248	-2.989300	3.158300	-9.440100	27.729100	0.000276	20.779625
2171.586676	-3.021200	3.157100	-9.537100	27.761733	0.000272	20.774058
2172.596357	-2.998500	3.157300	-9.466300	27.794065	0.000272	20.779569
2173.582543	-2.997900	3.155800	-9.459000	27.834820	0.000272	20.769376
2174.584808	-3.000600	3.155900	-9.468800	27.809305	0.000272	20.772621
2175.587379	-3.016900	3.155400	-9.518200	27.780314	0.000271	20.776636
2176.584582	-2.982800	3.155600	-9.411000	27.775473	0.000271	20.781722
2177.587003	-3.018200	3.152900	-9.515700	27.814498	0.000270	20.780692
2178.586656	-2.985200	3.154300	-9.415300	27.814588	0.000270	20.771300
2179.584366	-2.985100	3.154100	-9.413300	27.862375	0.000270	20.792841
2180.589758	-2.995700	3.153300	-9.444400	27.890903	0.000269	20.756594
2181.584571	-3.006900	3.152500	-9.477700	27.876463	0.000270	20.771458
2182.585090	-2.999900	3.149900	-9.447700	27.848764	0.000266	20.773453
2183.586535	-3.003600	3.150000	-9.458800	27.806143	0.000267	20.787931
2184.588522	-2.989900	3.149300	-9.414700	27.778282	0.000267	20.789290
2185.584892	-3.003100	3.149500	-9.457700	27.778428	0.000264	20.767152
2186.592673	-3.032100	3.147600	-9.542800	27.752385	0.000264	20.797368
2187.585190	-2.992900	3.149100	-9.424400	27.752703	0.000265	20.793894
2188.587650	-2.993400	3.147700	-9.421700	27.766237	0.000264	20.778591
2189.585060	-2.981400	3.146800	-9.380900	27.798146	0.000260	20.785099
2190.586363	-2.993700	3.145900	-9.416800	27.827999	0.000261	20.771521
2191.586756	-2.998000	3.146200	-9.431600	27.839380	0.000260	20.797673
2192.587663	-3.008200	3.145000	-9.460000	27.831834	0.000258	20.787709
2193.586188	-3.004100	3.145300	-9.447700	27.846108	0.000259	20.787375
2194.588062	-2.974400	3.144900	-9.353200	27.879337	0.000258	20.779093
2195.593016	-3.020300	3.142600	-9.490700	27.922671	0.000259	20.777663
2196.586713	-2.975500	3.144000	-9.353900	27.958125	0.000257	20.773993
2197.591562	-2.992400	3.141000	-9.397800	27.989274	0.000259	20.759827
2198.593776	-2.993300	3.140900	-9.400400	27.955787	0.000256	20.756466
2199.592045	-2.998100	3.140900	-9.415600	27.905502	0.000258	20.763227
2200.594263	-3.005400	3.139600	-9.435000	27.952011	0.000258	20.785383
2201.597437	-3.018300	3.138200	-9.469400	27.971643	0.000255	20.783332
2202.592629	-3.022100	3.138600	-9.484200	28.008263	0.000257	20.787002
2203.595365	-3.028400	3.136600	-9.497500	27.968987	0.000253	20.773546
2204.600129	-3.000600	3.136200	-9.410100	27.932065	0.000254	20.768626
2205.596183	-3.024300	3.136100	-9.482900	27.902184	0.000251	20.752774
2206.596366	-3.013900	3.135200	-9.448400	27.894597	0.000253	20.761734
2207.594744	-2.986300	3.137000	-9.367300	27.909170	0.000252	20.765496
2208.601504	-3.003900	3.135000	-9.416100	27.902054	0.000252	20.756912
2209.596516	-3.024500	3.134200	-9.479100	27.916505	0.000253	20.748222
2210.600047	-3.006600	3.132400	-9.416900	27.927535	0.000250	20.756006
2211.594378	-3.005900	3.132500	-9.415200	27.936528	0.000252	20.767902
2212.595469	-2.979000	3.133900	-9.335600	27.916662	0.000249	20.770192
2213.600125	-3.006600	3.131800	-9.414200	27.921844	0.000248	20.765450
2214.596326	-2.998500	3.130200	-9.384400	27.922381	0.000249	20.759827
2215.601917	-2.969100	3.131400	-9.295600	27.924161	0.000245	20.770153
2216.599638	-2.987700	3.130400	-9.351300	27.924510	0.000248	20.767185
2217.603936	-3.012300	3.128100	-9.421700	27.893208	0.000248	20.754646
2218.599319	-2.998800	3.128300	-9.380200	27.878425	0.000248	20.749725
2219.603717	-3.007200	3.126400	-9.400400	27.836691	0.000245	20.766043
2220.598461	-3.015400	3.126600	-9.426500	27.817416	0.000248	20.771775
2221.601492	-2.985400	3.126900	-9.334000	27.869663	0.000242	20.765088
2222.600784	-3.008400	3.125500	-9.399900	27.868462	0.000242	20.764828
2223.602962	-2.983900	3.125800	-9.326300	27.884595	0.000245	20.782488
2224.602144	-2.997200	3.124700	-9.363800	27.910083	0.000243	20.767838
2225.603804	-3.019400	3.122900	-9.428400	27.933680	0.000243	20.772622
2226.603226	-3.002700	3.122300	-9.374200	27.984078	0.000243	20.745113
2227.601304	-2.991400	3.122900	-9.340800	27.989528	0.000243	20.754393
2228.604459	-2.989800	3.122900	-9.336000	27.958609	0.000242	20.771635
2229.603735	-2.994800	3.120000	-9.342100	27.898676	0.000238	20.779116
2230.604414	-2.991700	3.119500	-9.331100	27.849802	0.000239	20.756005
2231.606687	-3.002500	3.119000	-9.363700	27.798679	0.000236	20.760504
2232.602863	-3.021700	3.117500	-9.418600	27.777550	0.000236	20.763423
2233.603824	-2.975900	3.118200	-9.277400	27.751329	0.000238	20.773071
2234.605780	-3.004300	3.117000	-9.363200	27.782792	0.000236	20.758267
2235.608324	-3.011800	3.115500	-9.382400	27.796424	0.000237	20.796642
2236.607557	-2.982500	3.115200	-9.289600	27.861336	0.000237	20.757656
2237.610282	-3.032600	3.112800	-9.438800	27.907717	0.000233	20.780630
2238.606383	-2.977400	3.114500	-9.272200	27.940387	0.000235	20.776528
2239.606945	-2.997500	3.113800	-9.332400	27.979884	0.000234	20.768393
2240.606979	-3.008300	3.112900	-9.363400	27.987780	0.000235	20.776816
2241.608327	-3.005300	3.110100	-9.345700	27.962929	0.000232	20.775509
2242.607696	-2.996800	3.110900	-9.322200	27.954320	0.000233	20.773008
2243.608126	-3.001300	3.110800	-9.336000	27.948863	0.000234	20.770834
2244.606336	-3.000800	3.108900	-9.327200	27.967577	0.000232	20.764540
2245.609275	-3.026400	3.108100	-9.405400	27.945551	0.000231	20.785045
2246.616526	-2.990000	3.108400	-9.292500	27.972616	0.000231	20.789527
2247.606378	-3.010700	3.107600	-9.355500	27.934629	0.000230	20.777845
2248.615694	-2.996000	3.106500	-9.306500	27.945953	0.000231	20.776914
2249.615170	-2.996200	3.106100	-9.303600	27.899088	0.000229	20.761987
2250.612442	-2.986600	3.105100	-9.273400	27.844254	0.000230	20.774603
2251.609874	-3.009400	3.103600	-9.339400	27.866114	0.000229	20.786647
2252.621026	-3.027800	3.103200	-9.393700	27.883270	0.000230	20.778309
2253.615103	-2.981400	3.103200	-9.250800	27.966401	0.000226	20.779004
2254.619159	-2.996200	3.101500	-9.290500	27.995649	0.000226	20.755338
2255.619886	-2.980800	3.101700	-9.244300	28.027405	0.000224	20.799158
2256.616648	-2.989600	3.100600	-9.268100	28.080032	0.000226	20.766785
2257.615416	-2.981000	3.098800	-9.236100	28.077206	0.000225	20.774846
2258.614927	-2.991100	3.098000	-9.266100	28.080556	0.000223	20.784382
2259.617711	-2.978800	3.098800	-9.228800	28.054803	0.000226	20.770312
2260.611308	-3.015000	3.097800	-9.337900	28.007894	0.000225	20.755335
2261.620599	-2.989700	3.096100	-9.254900	27.954088	0.000223	20.768981
2262.618600	-3.003800	3.094600	-9.294400	27.925791	0.000223	20.779381
2263.626756	-3.008800	3.093300	-9.305500	27.937991	0.000222	20.781703
2264.621001	-2.997000	3.093900	-9.270900	27.943693	0.000223	20.760414
2265.620455	-3.005000	3.092200	-9.291400	27.944586	0.000223	20.744243
2266.616487	-3.006900	3.091200	-9.293700	27.983954	0.000222	20.767748
2267.616001	-3.000700	3.089200	-9.269100	27.996495	0.000223	20.777053
2268.622631	-3.005100	3.088700	-9.280700	27.995357	0.000220	20.762157
2269.613932	-3.009200	3.088200	-9.291900	27.985838	0.000221	20.795250
2270.621296	-2.995800	3.088200	-9.249200	28.038394	0.000221	20.778925
2271.620106	-2.983200	3.087500	-9.208900	28.063634	0.000220	20.791530
2272.620431	-2.993800	3.085200	-9.236100	28.128463	0.000219	20.789935
2273.619353	-2.982100	3.086800	-9.203900	28.176473	0.000220	20.798913
2274.614880	-3.008300	3.084300	-9.277300	28.238267	0.000218	20.782890
2275.617226	-3.019900	3.084200	-9.313400	28.279507	0.000220	20.785057
2276.619084	-3.000000	3.083300	-9.249000	28.295226	0.000218	20.786659
2277.620645	-3.030100	3.080900	-9.334600	28.247759	0.000217	20.788654
2278.619698	-3.008200	3.081700	-9.268800	28.247166	0.000217	20.779522
2279.627525	-3.016300	3.079400	-9.287300	28.238518	0.000215	20.793574
2280.620106	-3.024300	3.077800	-9.307500	28.252866	0.000217	20.783838
2281.619042	-3.018800	3.078300	-9.291900	28.280554	0.000215	20.788482
2282.621820	-3.000200	3.079200	-9.236700	28.292927	0.000217	20.787663
2283.618114	-2.993300	3.076900	-9.209100	28.328734	0.000215	20.800957
2284.621121	-2.990000	3.076900	-9.199200	28.295882	0.000217	20.796802
2285.622015	-3.004800	3.074900	-9.237700	28.235155	0.000215	20.796352
2286.621335	-2.998900	3.073600	-9.216300	28.187514	0.000215	20.789640
2287.620267	-2.990900	3.073200	-9.190800	28.161910	0.000213	20.781408
2288.622362	-2.988700	3.072600	-9.182500	28.128501	0.000214	20.786655
2289.622066	-3.007200	3.070900	-9.234500	28.143126	0.000216	20.771032
2290.619127	-3.011900	3.070400	-9.247200	28.136539	0.000216	20.795221
2291.622945	-2.990100	3.070000	-9.178500	28.203370	0.000213	20.785689
2292.617554	-3.009600	3.067400	-9.229600	28.232789	0.000214	20.770737
2293.621236	-2.995800	3.067100	-9.187800	28.205854	0.000213	20.796250
2294.624601	-2.988300	3.067400	-9.165400	28.210637	0.000214	20.783048
2295.621906	-2.993700	3.067000	-9.179600	28.183498	0.000214	20.787020
2296.624814	-2.982300	3.064200	-9.137500	28.149012	0.000215	20.789285
2297.622444	-3.010400	3.063100	-9.219700	28.181259	0.000213	20.790455
2298.623565	-2.985100	3.063000	-9.142400	28.209548	0.000214	20.786693
2299.623163	-3.036700	3.059900	-9.291000	28.211254	0.000216	20.790307
2300.628587	-2.997700	3.059500	-9.170300	28.201217	0.000213	20.783522
2301.620120	-2.999100	3.060100	-9.177400	28.158334	0.000215	20.801041
2302.621446	-2.972200	3.060700	-9.095600	28.138081	0.000214	20.786342
2303.624278	-3.022300	3.057600	-9.239900	28.097641	0.000214	20.790676
2304.621278	-3.023200	3.056600	-9.239800	28.103416	0.000214	20.787480
2305.623896	-3.006800	3.055800	-9.187000	28.185222	0.000215	20.800609
2306.623789	-2.991800	3.054900	-9.138200	28.171270	0.000215	20.773287
2307.624930	-2.990800	3.053900	-9.132400	28.192929	0.000213	20.785608
2308.624942	-2.991200	3.052900	-9.130800	28.221291	0.000212	20.786188
2309.631651	-2.998500	3.051600	-9.149300	28.287492	0.000212	20.795467
2310.625247	-2.999800	3.050900	-9.151000	28.350563	0.000212	20.786427
2311.624734	-2.964900	3.050300	-9.041200	28.384663	0.000211	20.787097
2312.630795	-2.995300	3.049600	-9.133800	28.432082	0.000211	20.787905
2313.625104	-3.015800	3.047500	-9.189100	28.375106	0.000212	20.802604
2314.625834	-3.002500	3.045800	-9.144100	28.372671	0.000210	20.819118
2315.628613	-3.007100	3.045000	-9.155300	28.392699	0.000211	20.812259
2316.627466	-2.985800	3.044000	-9.087700	28.406013	0.000209	20.787733
2317.623556	-3.017200	3.043900	-9.183500	28.358924	0.000212	20.801958
2318.632038	-2.990900	3.043900	-9.102700	28.335330	0.000210	20.784839
2319.630528	-2.985400	3.043200	-9.083900	28.363829	0.000211	20.807370
2320.628085	-2.975200	3.041300	-9.047900	28.378433	0.000208	20.810222
2321.636258	-3.036200	3.036300	-9.217500	28.410558	0.000209	20.800844
2322.630948	-3.024400	3.037900	-9.186400	28.420024	0.000207	20.797574
2323.629077	-2.985900	3.036700	-9.065400	28.411273	0.000209	20.810573
2324.630089	-3.008400	3.033800	-9.125400	28.384977	0.000210	20.796422
2325.629236	-3.036400	3.032100	-9.205100	28.379699	0.000207	20.799643
2326.626543	-2.996100	3.032500	-9.084600	28.372862	0.000210	20.788491
2327.632187	-3.026600	3.031300	-9.173300	28.369566	0.000209	20.798449
2328.629356	-2.991100	3.031200	-9.065300	28.380599	0.000209	20.778264
2329.628110	-3.000400	3.029000	-9.087000	28.363078	0.000209	20.806140
2330.631115	-2.983200	3.028800	-9.034900	28.336530	0.000210	20.805961
2331.633604	-2.988400	3.026900	-9.044800	28.368276	0.000210	20.805210
2332.639676	-3.014200	3.025300	-9.118700	28.361456	0.000209	20.793602
2333.641582	-3.005800	3.024700	-9.091000	28.337276	0.000208	20.812877
2334.634200	-3.021100	3.022300	-9.129600	28.291249	0.000210	20.794982
2335.629643	-3.000700	3.022700	-9.068700	28.334768	0.000207	20.800395
2336.632777	-3.009700	3.020700	-9.090700	28.327754	0.000208	20.809453
2337.631676	-3.011900	3.020400	-9.096500	28.356772	0.000208	20.812118
2338.634234	-2.995900	3.019300	-9.043600	28.400069	0.000207	20.806404
2339.634575	-3.006400	3.017400	-9.070100	28.432235	0.000210	20.794698
2340.632971	-2.992400	3.017100	-9.027700	28.443658	0.000208	20.800511
2341.630088	-3.015500	3.015200	-9.090600	28.480531	0.000208	20.831952
2342.633487	-2.990200	3.014400	-9.013000	28.539385	0.000206	20.807770
2343.635791	-3.006800	3.012200	-9.056100	28.538241	0.000208	20.825584
2344.632604	-2.992900	3.011200	-9.011700	28.556296	0.000208	20.810103
2345.636476	-3.000100	3.009100	-9.025400	28.532908	0.000207	20.800774
2346.642004	-3.015300	3.009200	-9.073100	28.532260	0.000208	20.814820
2347.638886	-3.018800	3.006400	-9.073400	28.556540	0.000208	20.835004
2348.638001	-3.002100	3.005600	-9.022300	28.561994	0.000208	20.805885
2349.637488	-3.021600	3.005500	-9.080700	28.539762	0.000207	20.821900
2350.636446	-2.991400	3.004200	-8.985800	28.563205	0.000207	20.819905
2351.635771	-3.010900	3.002700	-9.039100	28.540201	0.000207	20.809067
2352.642478	-2.969200	3.001900	-8.912400	28.474487	0.000205	20.820176
2353.638395	-2.988000	3.000000	-8.963300	28.417206	0.000205	20.820341
2354.642538	-2.998300	2.999400	-8.991900	28.358199	0.000204	20.813081
2355.638231	-3.010800	2.997300	-9.022800	28.364216	0.000206	20.833838
2356.640264	-3.006600	2.996800	-9.009100	28.356413	0.000205	20.801326
2357.644558	-3.014800	2.994400	-9.026500	28.394224	0.000206	20.819958
2358.639060	-2.999900	2.993300	-8.978600	28.433820	0.000203	20.829484
2359.642682	-3.005400	2.992100	-8.990800	28.443359	0.000204	20.825813
2360.643402	-2.988600	2.992200	-8.940700	28.514603	0.000205	20.820745
2361.638033	-3.014600	2.990400	-9.014000	28.544533	0.000203	20.825757
2362.641591	-3.001800	2.988000	-8.968900	28.541684	0.000204	20.820991
2363.644320	-3.000700	2.987600	-8.964200	28.551118	0.000203	20.834285
2364.641540	-3.015600	2.984900	-8.999600	28.516302	0.000206	20.821982
2365.643928	-2.986700	2.984000	-8.911700	28.481226	0.000205	20.834075
2366.649157	-3.008400	2.984900	-8.978700	28.514185	0.000204	20.832178
2367.643136	-2.972600	2.983700	-8.868200	28.540331	0.000205	20.837172
2368.643341	-2.999700	2.979900	-8.937800	28.559352	0.000204	20.840207
2369.647967	-3.016900	2.979300	-8.987200	28.556301	0.000203	20.819591
2370.644904	-3.023900	2.977200	-9.001400	28.548834	0.000203	20.829615
2371.641704	-2.999700	2.976800	-8.928600	28.591127	0.000206	20.839491
2372.646040	-3.037500	2.974400	-9.034000	28.629975	0.000202	20.841159
2373.647808	-3.019900	2.971900	-8.974000	28.618303	0.000201	20.846947
2374.648143	-3.016600	2.972300	-8.965400	28.630715	0.000202	20.837637
2375.651506	-2.975800	2.971100	-8.840600	28.668101	0.000200	20.826928
2376.653084	-3.002500	2.969200	-8.914400	28.676292	0.000203	20.841816
2377.649530	-3.023800	2.967500	-8.971900	28.654166	0.000203	20.849403
2378.654805	-3.007700	2.965800	-8.919200	28.653089	0.000202	20.845947
2379.652466	-3.006300	2.964800	-8.911300	28.697500	0.000202	20.842315
2380.650904	-3.021500	2.964200	-8.954700	28.713970	0.000202	20.836619
2381.649044	-3.000100	2.963400	-8.888300	28.729002	0.000202	20.838010
2382.648645	-3.022600	2.960200	-8.945900	28.740917	0.000202	20.866605
2383.646634	-2.994400	2.960100	-8.862800	28.728305	0.000200	20.846316
2384.651669	-3.000300	2.956700	-8.870000	28.666661	0.000204	20.847289
2385.653403	-2.962600	2.957400	-8.760200	28.589147	0.000204	20.849351
2386.650452	-2.972000	2.955400	-8.782100	28.507477	0.000202	20.845810
2387.652663	-3.007100	2.952700	-8.878500	28.431199	0.000203	20.849603
2388.652795	-3.006800	2.951500	-8.873900	28.392239	0.000202	20.850201
2389.654445	-2.974200	2.951100	-8.776200	28.418786	0.000204	20.850854
2390.659291	-2.999400	2.948600	-8.843800	28.445423	0.000200	20.836900
2391.658787	-3.018400	2.946600	-8.891900	28.500407	0.000202	20.833476
2392.651189	-3.005800	2.944000	-8.847900	28.549251	0.000201	20.845206
2393.654066	-3.016300	2.942400	-8.874400	28.577199	0.000201	20.844430
2394.655150	-2.999600	2.943200	-8.827200	28.555567	0.000201	20.851567
2395.654899	-3.000300	2.941000	-8.822900	28.568969	0.000201	20.862219
2396.661372	-3.011500	2.938200	-8.847400	28.589043	0.000201	20.859202
2397.659703	-3.024800	2.936500	-8.880500	28.605716	0.000201	20.877416
2398.656431	-2.998900	2.936200	-8.805000	28.659426	0.000201	20.860864
2399.661850	-2.985600	2.935500	-8.763100	28.656058	0.000202	20.863635
2400.657259	-3.005500	2.932600	-8.812700	28.622528	0.000200	20.851676
2401.652960	-3.014000	2.929000	-8.827200	28.592820	0.000200	20.850679
2402.654952	-2.973400	2.930600	-8.713400	28.601758	0.000202	20.858258
2403.653919	-3.030100	2.926000	-8.864300	28.609224	0.000202	20.846338
2404.655709	-2.974700	2.927300	-8.707000	28.573235	0.000202	20.847076
2405.654113	-2.973100	2.925100	-8.695300	28.572293	0.000201	20.846127
2406.657631	-3.011700	2.921600	-8.798400	28.561709	0.000204	20.848744
2407.659110	-3.019200	2.921300	-8.819400	28.584325	0.000201	20.877684
2408.660048	-3.006200	2.919100	-8.774500	28.581849	0.000200	20.856699
2409.657931	-2.973100	2.917400	-8.673100	28.627851	0.000201	20.852295
2410.654771	-3.019200	2.914400	-8.798300	28.648572	0.000200	20.879327
2411.656645	-2.994100	2.913700	-8.723000	28.708278	0.000202	20.856489
2412.653738	-3.006200	2.912000	-8.753500	28.737976	0.000200	20.878815
2413.658954	-2.989300	2.911600	-8.702500	28.739339	0.000203	20.871654
2414.660613	-3.003100	2.910100	-8.738200	28.803325	0.000199	20.866407
2415.666730	-3.002800	2.908500	-8.731800	28.827135	0.000200	20.868107
2416.656457	-2.986600	2.906200	-8.677900	28.861440	0.000200	20.865680
2417.663309	-2.988300	2.904100	-8.677200	28.914074	0.000203	20.876031
2418.660825	-2.993600	2.903200	-8.688300	28.952196	0.000201	20.876031
2419.660862	-3.026300	2.898300	-8.768900	28.999178	0.000202	20.880691
2420.660790	-3.020600	2.897700	-8.752000	29.025030	0.000200	20.886823
2421.660107	-3.004000	2.895900	-8.697900	29.042143	0.000200	20.865186
2422.661029	-2.994400	2.895000	-8.667500	29.023124	0.000200	20.858351
2423.656454	-2.997300	2.892900	-8.669900	29.031605	0.000201	20.882069
2424.660264	-3.003400	2.891800	-8.684100	29.055717	0.000199	20.891663
2425.658806	-2.995000	2.890800	-8.655900	29.067639	0.000200	20.894192
2426.660068	-2.980200	2.889500	-8.610400	29.058154	0.000201	20.876576
2427.657194	-2.963500	2.888700	-8.559300	29.079525	0.000201	20.876773
2428.661404	-2.992600	2.885200	-8.633000	29.027485	0.000200	20.899253
2429.658909	-3.007100	2.883500	-8.669800	28.970963	0.000200	20.883084
2430.679301	-3.008600	2.881000	-8.666000	28.937841	0.000200	20.847346
2431.660265	-3.006100	2.878400	-8.652100	28.929718	0.000198	20.902695
2432.656055	-2.996900	2.876800	-8.620600	28.917102	0.000198	20.901364
2433.670487	-2.997500	2.876500	-8.621100	28.969715	0.000198	20.903162
2434.661768	-3.009200	2.873100	-8.645100	28.997384	0.000199	20.885996
2435.663074	-2.994800	2.870700	-8.595900	28.963762	0.000199	20.894320
2436.662059	-2.969300	2.869200	-8.518300	28.962765	0.000201	20.889523
2437.668987	-2.977300	2.867400	-8.534700	28.947705	0.000199	20.892367
2438.659322	-2.994300	2.865100	-8.577700	28.900120	0.000200	20.905593
2439.666187	-2.976400	2.862500	-8.519100	28.841109	0.000199	20.887872
2440.662692	-2.996200	2.860500	-8.569900	28.833278	0.000199	20.904164
2441.662113	-3.004300	2.858300	-8.585400	28.860034	0.000199	20.892238
2442.665117	-2.987100	2.857100	-8.532800	28.841915	0.000201	20.895321
2443.661230	-2.982100	2.854500	-8.511400	28.880162	0.000201	20.890703
2444.664957	-3.010000	2.851400	-8.581700	28.848302	0.000199	20.904126
2445.662064	-3.007200	2.849700	-8.569100	28.846187	0.000198	20.890616
2446.662198	-2.987100	2.849000	-8.509200	28.868033	0.000200	20.890339
2447.663972	-3.021500	2.847400	-8.601700	28.909964	0.000199	20.900338
2448.665492	-3.015300	2.844400	-8.576600	28.948435	0.000199	20.911593
2449.661311	-2.986800	2.842400	-8.488900	28.964632	0.000199	20.914635
2450.666605	-3.016000	2.839000	-8.561600	28.934535	0.000198	20.899962
2451.666308	-2.996100	2.838200	-8.502200	28.923777	0.000201	20.901926
2452.667486	-3.007400	2.834400	-8.523300	28.948177	0.000199	20.899007
2453.665657	-2.996300	2.834200	-8.491500	28.973909	0.000198	20.906913
2454.662083	-2.998800	2.831000	-8.488900	29.012102	0.000199	20.897978
2455.668715	-2.981200	2.829700	-8.435500	29.038236	0.000199	20.916247
2456.665971	-2.972200	2.826300	-8.399200	29.036371	0.000199	20.914369
2457.666443	-3.012800	2.823700	-8.505500	29.024331	0.000200	20.922625
2458.663609	-2.998600	2.822300	-8.462200	28.992183	0.000199	20.887868
2459.666165	-2.995800	2.820000	-8.446700	29.030742	0.000199	20.897793
2460.663847	-3.017400	2.818400	-8.503000	29.078369	0.000199	20.896943
2461.663164	-2.998300	2.815000	-8.439300	29.105314	0.000200	20.908445
2462.666261	-2.993100	2.813600	-8.419800	29.096519	0.000199	20.909066
2463.664015	-2.989100	2.811700	-8.403900	29.116332	0.000197	20.910064
2464.668528	-3.007100	2.809000	-8.445600	29.116301	0.000199	20.930419
2465.665655	-3.005000	2.806000	-8.430900	29.107782	0.000198	20.907139
2466.667923	-3.002100	2.804400	-8.418500	29.066720	0.000198	20.915075
2467.664651	-2.984400	2.803200	-8.364700	29.018340	0.000198	20.895729
2468.669082	-3.025600	2.798400	-8.465700	29.025155	0.000200	20.898801
2469.668269	-3.004600	2.796600	-8.402200	29.009367	0.000199	20.897120
2470.668487	-3.004100	2.793400	-8.390600	29.018884	0.000200	20.928516
2471.668485	-3.004600	2.791000	-8.384500	29.009813	0.000199	20.915111
2472.690552	-3.007900	2.786800	-8.381000	29.023210	0.000199	20.909643
2473.669426	-3.008300	2.785100	-8.376700	28.973196	0.000199	20.903824
2474.669370	-2.991300	2.782500	-8.323000	29.028112	0.000201	20.917900
2475.670933	-2.977400	2.783000	-8.285800	29.017117	0.000198	20.903505
2476.666372	-2.999200	2.779500	-8.335500	29.001385	0.000200	20.904723
2477.672579	-3.014000	2.775000	-8.362100	29.016957	0.000197	20.900499
2478.670570	-3.013500	2.773600	-8.357400	29.004892	0.000199	20.901619
2479.672246	-3.024500	2.769700	-8.375300	29.040438	0.000199	20.907087
2480.671636	-2.992800	2.766700	-8.278900	29.108341	0.000200	20.900591
2481.673264	-3.009300	2.764500	-8.317000	29.123033	0.000201	20.894532
2482.673642	-2.993900	2.761100	-8.265000	29.127164	0.000201	20.897746
2483.677649	-3.020700	2.757200	-8.327000	29.075022	0.000200	20.920121
2484.669663	-3.015300	2.755000	-8.306100	29.055557	0.000199	20.916630
2485.674699	-2.996900	2.752800	-8.248800	29.025182	0.000198	20.902147
2486.676836	-2.988700	2.750400	-8.219700	29.025628	0.000198	20.911605
2487.675307	-2.993600	2.746500	-8.221300	29.055293	0.000198	20.909727
2488.675491	-2.999100	2.744100	-8.229100	29.041322	0.000198	20.886643
2489.676228	-3.009300	2.739300	-8.241800	29.016680	0.000197	20.908754
2490.674445	-3.016200	2.735600	-8.250100	29.003789	0.000199	20.881544
2491.677247	-2.980600	2.735800	-8.153600	29.056319	0.000199	20.898907
2492.673982	-3.002100	2.729400	-8.191600	29.063426	0.000199	20.886155
2493.671974	-3.025300	2.725400	-8.244300	29.095865	0.000200	20.906511
2494.681230	-3.020500	2.723100	-8.223700	29.100944	0.000198	20.892663
2495.678744	-2.983600	2.720800	-8.116700	29.082341	0.000198	20.890514
2496.679526	-3.006500	2.718500	-8.172200	29.094838	0.000198	20.894097
2497.681875	-2.983800	2.715500	-8.100900	29.092527	0.000200	20.894614
2498.679722	-3.020900	2.711100	-8.188700	29.099519	0.000200	20.897865
2499.677133	-2.981200	2.707300	-8.069300	29.143372	0.000198	20.890371
2500.681734	-3.026200	2.702600	-8.177800	29.168757	0.000199	20.881338
2501.678327	-2.995900	2.700300	-8.088000	29.161442	0.000199	20.893880
2502.683395	-2.991600	2.696300	-8.065200	29.171414	0.000199	20.889231
2503.682115	-2.980500	2.692100	-8.021500	29.178747	0.000202	20.895672
2504.682750	-2.961800	2.690100	-7.966600	29.174359	0.000197	20.924438
2505.681745	-2.992200	2.685900	-8.035100	29.191323	0.000200	20.878948
2506.681769	-2.999200	2.680300	-8.038500	29.210712	0.000201	20.882365
2507.685481	-2.992600	2.677200	-8.010600	29.194579	0.000199	20.880333
2508.682230	-2.954100	2.675900	-7.904100	29.182046	0.000199	20.887143
2509.683152	-2.979600	2.669700	-7.952100	29.121743	0.000196	20.899396
2510.681905	-3.034300	2.665700	-8.087300	29.064473	0.000197	20.891477
2511.685289	-3.008200	2.662300	-8.008000	29.065903	0.000198	20.893391
2512.683839	-3.022500	2.658000	-8.032800	29.098721	0.000200	20.892794
2513.685130	-2.978700	2.654900	-7.907600	29.066813	0.000199	20.902842
2514.686773	-3.013600	2.649100	-7.982200	29.052518	0.000201	20.887966
2515.685707	-2.974700	2.645800	-7.869800	29.059741	0.000199	20.898088
2516.685399	-2.983600	2.640100	-7.875600	29.111449	0.000199	20.878594
2517.684650	-3.007000	2.636400	-7.926700	29.126005	0.000200	20.876666
2518.686564	-2.985200	2.632600	-7.858000	29.140586	0.000200	20.879978
2519.683615	-2.978500	2.627400	-7.824800	29.139767	0.000201	20.891480
2520.690549	-3.020900	2.621300	-7.917000	29.223637	0.000200	20.892545
2521.685426	-3.023900	2.617100	-7.912500	29.248916	0.000200	20.884355
2522.687882	-3.012100	2.611100	-7.863800	29.261467	0.000200	20.884201
2523.685564	-2.959200	2.609800	-7.720300	29.248084	0.000198	20.870716
2524.687473	-2.990400	2.603700	-7.784800	29.223440	0.000199	20.883338
2525.688302	-2.980400	2.598800	-7.744200	29.169568	0.000202	20.876940
2526.686846	-2.980500	2.592900	-7.727100	29.136947	0.000201	20.888165
2527.690913	-3.038800	2.584700	-7.852600	29.077803	0.000201	20.881675
2528.685269	-2.940500	2.583200	-7.593800	29.121803	0.000200	20.868165
2529.693986	-2.950600	2.578100	-7.606000	29.168681	0.000201	20.869883
2530.686912	-2.985200	2.571300	-7.674300	29.213949	0.000199	20.874248
2531.688531	-2.999600	2.564400	-7.690700	29.257498	0.000200	20.870245
2532.686461	-2.984500	2.559700	-7.638500	29.310510	0.000201	20.870091
2533.688751	-2.993900	2.554500	-7.645900	29.372012	0.000200	20.873281
2534.690471	-2.998600	2.546800	-7.634900	29.375995	0.000200	20.872554
2535.688615	-2.996300	2.542700	-7.617200	29.415481	0.000199	20.887220
2536.685828	-2.995400	2.536200	-7.595600	29.393089	0.000199	20.872239
2537.685179	-3.004100	2.528700	-7.595700	29.356345	0.000201	20.873612
2538.685874	-3.015200	2.524800	-7.611800	29.319050	0.000200	20.870164
2539.691331	-3.033300	2.517100	-7.633300	29.280190	0.000198	20.848544
2540.691661	-2.989100	2.512400	-7.508600	29.304111	0.000199	20.868384
2541.686615	-3.050100	2.504800	-7.637300	29.294200	0.000201	20.865034
2542.689910	-3.029300	2.498200	-7.566600	29.268891	0.000201	20.848538
