LabVIEW Measurement	
Writer_Version	2
Reader_Version	2
Separator	Tab
Decimal_Separator	.
Multi_Headings	No
X_Columns	One
Time_Pref	Absolute
Operator	admin
Description	Clolumns are: time, Current, Voltage, Power, Battery Temp, and Chamber Temp
Date	2024/08/16
Time	13:06:06.104549407958984375
***End_of_Header***	
	
Channels	6						
Samples	1	1	1	1	1	1	
Date	2024/09/02	2024/09/02	2024/09/02	2024/09/02	2024/09/02	2024/09/02	
Time	14:57:12.9222149848937988282	14:57:12.9290137290954589844	14:57:12.9370145797729492188	14:57:12.902191162109375	14:57:12.902191162109375	14:57:12.902191162109375	
X_Dimension	Time	Time	Time	Time	Time	Time	
X0	0.0000000000000000E+0	0.0000000000000000E+0	0.0000000000000000E+0	0.0000000000000000E+0	0.0000000000000000E+0	0.0000000000000000E+0	
Delta_X	1.000000	1.000000	1.000000	1.000000	1.000000	1.000000	
***End_of_Header***							
X_Value	Untitled	Untitled 1	Untitled 2	Untitled 3	Untitled 4	Untitled 5	Comment
0.000000	0.029772	4.103100	0.122210	20.976873	0.000932	20.709461
0.996028	-2.990800	3.936900	-11.773000	20.983043	0.000931	20.695242
1.997523	-2.980500	3.930900	-11.716000	20.999007	0.000932	20.712633
2.994779	-3.000400	3.923900	-11.772000	20.988381	0.000930	20.702952
3.995119	-2.990300	3.920500	-11.723000	20.996275	0.000930	20.672439
5.000017	-2.995300	3.918500	-11.736000	20.986351	0.000927	20.696655
5.996962	-2.996800	3.914500	-11.730000	20.965443	0.000927	20.701822
7.001405	-2.996800	3.911500	-11.721000	20.980195	0.000927	20.689549
8.001035	-2.994800	3.909000	-11.705000	21.002779	0.000926	20.673728
8.999000	-3.015800	3.906700	-11.780000	20.970166	0.000926	20.698485
10.001989	-3.013000	3.905000	-11.765000	20.981249	0.000925	20.699612
11.001754	-3.011500	3.902500	-11.750000	20.996125	0.000926	20.686988
12.001070	-3.000700	3.902100	-11.708000	21.015291	0.000924	20.682924
13.000492	-2.993600	3.901700	-11.679000	21.015495	0.000923	20.683603
13.999963	-3.003000	3.901100	-11.713000	20.989225	0.000922	20.692890
15.001213	-2.997700	3.900000	-11.689000	20.991595	0.000921	20.684354
16.003982	-2.993200	3.897400	-11.664000	21.011759	0.000922	20.687927
17.001511	-2.998200	3.896500	-11.682000	21.016475	0.000919	20.697860
18.001259	-2.991400	3.894700	-11.649000	21.028302	0.000918	20.691197
19.001030	-3.000900	3.894700	-11.686000	21.019351	0.000920	20.687934
20.000419	-3.001300	3.893600	-11.685000	21.030834	0.000919	20.677607
21.008390	-3.011700	3.891200	-11.718000	21.040708	0.000917	20.667568
22.002353	-3.003500	3.890600	-11.684000	21.064369	0.000916	20.670371
23.001744	-3.003200	3.890300	-11.682000	21.032288	0.000917	20.673845
24.002696	-3.010600	3.889900	-11.710000	21.069134	0.000916	20.688890
25.001789	-2.976200	3.889400	-11.574000	21.060232	0.000915	20.685201
26.002295	-2.991800	3.888500	-11.631000	21.066297	0.000915	20.700752
27.001259	-3.019500	3.888700	-11.740000	21.084138	0.000915	20.665963
28.002136	-3.015100	3.885700	-11.714000	21.075851	0.000914	20.682332
29.003181	-2.990200	3.886300	-11.620000	21.078425	0.000913	20.667835
30.003252	-3.007300	3.885600	-11.684000	21.083507	0.000914	20.685248
31.005234	-3.005400	3.885500	-11.676000	21.078366	0.000912	20.658766
32.002549	-3.005100	3.884100	-11.672000	21.106285	0.000913	20.671046
33.001989	-2.980100	3.884800	-11.576000	21.098153	0.000915	20.667653
34.003070	-3.015900	3.882000	-11.707000	21.135379	0.000912	20.665061
35.003148	-3.022900	3.881400	-11.732000	21.135576	0.000913	20.664309
36.005628	-3.001900	3.882400	-11.653000	21.132019	0.000912	20.654586
37.002459	-3.001700	3.882900	-11.654000	21.111408	0.000912	20.682336
38.003143	-3.025600	3.880200	-11.739000	21.127925	0.000910	20.688901
39.004127	-2.993800	3.880100	-11.614000	21.152254	0.000911	20.656810
40.005119	-2.990900	3.880600	-11.605000	21.150162	0.000909	20.655191
41.004910	-2.977700	3.880500	-11.553000	21.159193	0.000911	20.677029
42.004461	-3.005100	3.878000	-11.653000	21.141033	0.000909	20.662655
43.006166	-3.009000	3.879000	-11.670000	21.149818	0.000909	20.687567
44.005958	-2.995000	3.879700	-11.618000	21.161219	0.000908	20.662459
45.007785	-3.015600	3.877300	-11.691000	21.167339	0.000910	20.645819
46.009260	-3.010700	3.877300	-11.673000	21.183479	0.000909	20.653906
47.007812	-3.023500	3.876500	-11.720000	21.188718	0.000908	20.656301
48.009321	-2.982800	3.877100	-11.563000	21.201793	0.000908	20.650888
49.008963	-2.989300	3.877400	-11.590000	21.216659	0.000908	20.657225
50.008676	-2.993000	3.875100	-11.597000	21.195467	0.000907	20.653095
51.009823	-3.001000	3.875200	-11.628000	21.195189	0.000906	20.647601
52.011929	-2.994400	3.876900	-11.609000	21.209809	0.000907	20.657485
53.010729	-3.005400	3.875800	-11.647000	21.209009	0.000906	20.653839
54.013903	-3.019700	3.873600	-11.696000	21.184565	0.000907	20.647404
55.013365	-2.992700	3.875200	-11.596000	21.216322	0.000907	20.654517
56.012417	-3.011700	3.876300	-11.672000	21.219608	0.000906	20.662547
57.015418	-3.006500	3.873700	-11.646000	21.231114	0.000906	20.663625
58.013678	-2.996200	3.874300	-11.607000	21.261602	0.000907	20.648131
59.013805	-2.996300	3.873900	-11.606000	21.250195	0.000905	20.644780
60.013154	-2.988000	3.872300	-11.570000	21.268410	0.000906	20.661581
61.012965	-2.998200	3.873700	-11.613000	21.287916	0.000906	20.655490
62.013523	-2.986800	3.873400	-11.568000	21.274522	0.000906	20.650625
63.012397	-3.002400	3.871900	-11.624000	21.264920	0.000907	20.652399
64.013240	-3.010200	3.871700	-11.654000	21.300361	0.000907	20.666994
65.014575	-2.990800	3.872200	-11.580000	21.326723	0.000906	20.650217
66.014563	-3.005600	3.871500	-11.634000	21.304055	0.000905	20.661205
67.013232	-2.994200	3.870400	-11.587000	21.317669	0.000904	20.657756
68.017947	-3.004700	3.871700	-11.633000	21.310184	0.000906	20.640782
69.013707	-2.993800	3.870100	-11.584000	21.335931	0.000906	20.641411
70.015374	-3.011000	3.870000	-11.650000	21.309261	0.000905	20.651240
71.014841	-2.997800	3.869300	-11.597000	21.338922	0.000907	20.653888
72.016751	-3.001400	3.868900	-11.610000	21.331536	0.000904	20.663569
73.018023	-3.000700	3.868000	-11.606000	21.363314	0.000904	20.634192
74.014624	-3.027500	3.867800	-11.706000	21.360846	0.000903	20.659227
75.017609	-3.018000	3.868100	-11.673000	21.347993	0.000904	20.664862
76.015198	-2.995400	3.869000	-11.587000	21.342657	0.000903	20.665213
77.015891	-2.975600	3.869100	-11.511000	21.373185	0.000903	20.651183
78.017426	-2.998200	3.868600	-11.598000	21.382501	0.000905	20.665722
79.015372	-2.987400	3.868600	-11.556000	21.372090	0.000905	20.650561
80.021865	-2.994700	3.867600	-11.581000	21.385924	0.000905	20.662508
81.016570	-2.995900	3.866500	-11.583000	21.391864	0.000905	20.660864
82.015652	-3.003200	3.866800	-11.612000	21.383758	0.000904	20.657970
83.021033	-2.985200	3.866400	-11.540000	21.409964	0.000905	20.644832
84.015669	-3.002100	3.866800	-11.608000	21.399864	0.000905	20.652272
85.016686	-3.006800	3.865500	-11.621000	21.423054	0.000904	20.649395
86.017659	-3.009000	3.866800	-11.634000	21.450367	0.000903	20.651119
87.018418	-2.987800	3.865100	-11.546000	21.446976	0.000905	20.656736
88.017523	-2.993500	3.865500	-11.569000	21.443308	0.000904	20.641684
89.025284	-2.999000	3.863900	-11.586000	21.462288	0.000904	20.668265
90.020655	-3.018500	3.863900	-11.662000	21.477624	0.000902	20.631448
91.020296	-2.976400	3.865100	-11.503000	21.454959	0.000905	20.658085
92.019060	-2.984200	3.866100	-11.536000	21.486930	0.000903	20.656410
93.020701	-2.997700	3.864000	-11.582000	21.481889	0.000904	20.685034
94.019769	-2.992600	3.863800	-11.562000	21.487003	0.000905	20.664071
95.019591	-2.993600	3.864900	-11.568000	21.515533	0.000906	20.644726
96.019616	-3.004900	3.864900	-11.612000	21.514136	0.000905	20.639534
97.021134	-2.995100	3.863500	-11.570000	21.521220	0.000903	20.652314
98.019787	-3.012500	3.861800	-11.632000	21.519774	0.000905	20.672680
99.020258	-3.022500	3.861600	-11.670000	21.529928	0.000905	20.663874
100.021078	-3.010500	3.861900	-11.625000	21.521546	0.000904	20.658805
101.023549	-3.014700	3.861400	-11.638000	21.524063	0.000905	20.652788
102.020124	-2.991900	3.862900	-11.555000	21.527886	0.000904	20.660407
103.021766	-3.003000	3.861800	-11.596000	21.545664	0.000906	20.672034
104.027390	-2.980400	3.861600	-11.509000	21.542624	0.000904	20.667095
105.020839	-2.993500	3.861000	-11.556000	21.562648	0.000904	20.673857
106.021141	-2.992900	3.862900	-11.561000	21.555116	0.000904	20.672483
107.020964	-3.005300	3.861000	-11.603000	21.588562	0.000906	20.651896
108.031102	-2.989300	3.861000	-11.540000	21.592956	0.000905	20.658191
109.021654	-2.976500	3.862600	-11.496000	21.568472	0.000905	20.675891
110.029212	-3.003200	3.859800	-11.591000	21.594329	0.000909	20.661935
111.024731	-2.993900	3.860600	-11.555000	21.583578	0.000906	20.655444
112.023855	-2.991800	3.859900	-11.547000	21.598871	0.000907	20.645615
113.024170	-2.995700	3.859500	-11.560000	21.609818	0.000905	20.647087
114.023666	-2.989500	3.859200	-11.535000	21.627903	0.000906	20.663766
115.027416	-2.997100	3.859300	-11.566000	21.642191	0.000906	20.659572
116.024229	-2.996000	3.860200	-11.564000	21.642739	0.000906	20.675294
117.024713	-2.977600	3.859200	-11.490000	21.643834	0.000908	20.650783
118.023200	-2.997200	3.858100	-11.562000	21.669149	0.000907	20.666161
119.022666	-3.002400	3.858900	-11.584000	21.666755	0.000907	20.693640
120.025299	-2.996100	3.858900	-11.561000	21.695934	0.000908	20.662146
121.026946	-3.005300	3.858900	-11.595000	21.692470	0.000908	20.678122
122.023803	-2.995600	3.859100	-11.559000	21.695428	0.000909	20.681083
123.023117	-3.005800	3.857700	-11.595000	21.688655	0.000908	20.662449
124.027959	-3.007300	3.858100	-11.600000	21.694162	0.000907	20.673176
125.031417	-2.999900	3.858100	-11.573000	21.695664	0.000909	20.661876
126.026605	-3.009800	3.856600	-11.606000	21.701700	0.000907	20.663650
127.026250	-2.989000	3.857300	-11.529000	21.707631	0.000910	20.689503
128.028220	-2.986600	3.857300	-11.519000	21.709632	0.000910	20.659733
129.025773	-3.022500	3.855600	-11.653000	21.713520	0.000910	20.663625
130.029837	-2.999700	3.857000	-11.569000	21.723494	0.000911	20.663650
131.028687	-3.014600	3.854800	-11.620000	21.727562	0.000909	20.662505
132.026663	-3.011800	3.855700	-11.612000	21.739651	0.000909	20.673658
133.028091	-3.001700	3.855600	-11.572000	21.770274	0.000909	20.663527
134.025948	-2.998500	3.855300	-11.560000	21.763224	0.000910	20.673068
135.025614	-2.986800	3.856600	-11.518000	21.784445	0.000912	20.677711
136.025412	-3.011300	3.854300	-11.606000	21.801875	0.000913	20.657696
137.032314	-3.025700	3.852800	-11.656000	21.811946	0.000912	20.690539
138.025897	-2.999200	3.855300	-11.560000	21.784543	0.000910	20.677810
139.024735	-3.005400	3.854400	-11.582000	21.807911	0.000911	20.677016
140.027609	-2.994300	3.855100	-11.542000	21.824614	0.000911	20.689942
141.024210	-2.995300	3.855200	-11.547000	21.817901	0.000912	20.683223
142.028401	-2.999600	3.854900	-11.562000	21.817386	0.000915	20.693139
143.026393	-2.974500	3.854300	-11.463000	21.828829	0.000914	20.684677
144.027422	-2.987700	3.854100	-11.512000	21.850301	0.000915	20.658750
145.026675	-3.004900	3.853400	-11.577000	21.854785	0.000915	20.673198
146.027364	-3.037100	3.850700	-11.694000	21.874910	0.000913	20.677694
147.028443	-2.990200	3.853200	-11.521000	21.857831	0.000914	20.680041
148.027074	-2.977000	3.853200	-11.469000	21.867804	0.000915	20.684333
149.026644	-2.990300	3.852400	-11.519000	21.886058	0.000916	20.678896
150.028358	-3.000600	3.851900	-11.556000	21.889774	0.000917	20.708696
151.029684	-2.971400	3.853700	-11.449000	21.908420	0.000915	20.676623
152.025371	-2.996600	3.851200	-11.539000	21.890002	0.000916	20.670040
153.026631	-2.994600	3.851600	-11.533000	21.901494	0.000917	20.689131
154.029751	-3.024000	3.851000	-11.644000	21.883566	0.000916	20.689679
155.032743	-3.003400	3.851000	-11.566000	21.894093	0.000918	20.694527
156.029097	-2.992000	3.851700	-11.523000	21.912519	0.000916	20.681674
157.030028	-3.013000	3.850900	-11.602000	21.924206	0.000917	20.689581
158.031005	-2.991300	3.851600	-11.520000	21.939592	0.000918	20.685067
159.030012	-3.011300	3.849500	-11.591000	21.933196	0.000918	20.703323
160.027219	-3.012900	3.850100	-11.599000	21.929235	0.000920	20.702202
161.029114	-3.020500	3.849500	-11.627000	21.945414	0.000920	20.700379
162.029292	-3.020700	3.846600	-11.618000	21.947611	0.000918	20.685507
163.027825	-2.976300	3.848900	-11.455000	21.972161	0.000920	20.690168
164.029924	-3.014900	3.849800	-11.606000	21.981740	0.000919	20.686954
165.028888	-2.988700	3.848700	-11.501000	21.989146	0.000918	20.685360
166.030598	-2.974300	3.848500	-11.445000	21.977673	0.000920	20.691893
167.030340	-3.015800	3.847600	-11.602000	21.982866	0.000921	20.697566
168.030857	-2.974100	3.849900	-11.449000	22.005454	0.000922	20.679873
169.034859	-3.008100	3.848100	-11.574000	22.020611	0.000921	20.694573
170.028827	-2.974500	3.848700	-11.447000	22.019362	0.000923	20.679571
171.032758	-3.006100	3.847400	-11.564000	22.033326	0.000923	20.688809
172.030087	-3.008900	3.846700	-11.574000	22.010338	0.000922	20.696618
173.030273	-3.003300	3.848200	-11.556000	22.026369	0.000924	20.712192
174.037439	-3.007500	3.846400	-11.567000	22.032796	0.000923	20.703453
175.031212	-3.013100	3.846600	-11.590000	22.040757	0.000924	20.691033
176.031736	-3.018000	3.845100	-11.603000	22.050321	0.000923	20.678320
177.031903	-2.990000	3.845400	-11.497000	22.031905	0.000924	20.683119
178.032983	-2.992100	3.847700	-11.512000	22.071519	0.000924	20.697647
179.031303	-2.992300	3.847200	-11.510000	22.068245	0.000925	20.702431
180.033162	-2.986200	3.847300	-11.488000	22.057727	0.000926	20.696168
181.034270	-2.976400	3.846900	-11.449000	22.075382	0.000926	20.688711
182.035240	-3.013800	3.845600	-11.589000	22.068383	0.000927	20.713000
183.032813	-2.998400	3.846700	-11.533000	22.075961	0.000925	20.704939
184.047599	-3.011700	3.845100	-11.580000	22.088896	0.000928	20.719312
185.035729	-2.997500	3.846400	-11.529000	22.099723	0.000926	20.711659
186.033171	-3.016400	3.844800	-11.596000	22.094562	0.000926	20.710285
187.035783	-3.006800	3.843900	-11.556000	22.120463	0.000927	20.683583
188.033089	-2.988700	3.845500	-11.491000	22.107259	0.000925	20.710669
189.036811	-2.998300	3.843700	-11.523000	22.127438	0.000928	20.720440
190.037264	-3.002500	3.844800	-11.542000	22.121074	0.000928	20.675659
191.040112	-3.015700	3.843700	-11.590000	22.128684	0.000927	20.715049
192.033648	-3.002000	3.844100	-11.538000	22.133192	0.000929	20.716243
193.034105	-2.981600	3.843200	-11.457000	22.155304	0.000931	20.722734
194.033447	-3.007800	3.843500	-11.560000	22.137952	0.000931	20.693981
195.033152	-2.994300	3.843600	-11.508000	22.180362	0.000931	20.717477
196.035260	-3.010100	3.842700	-11.566000	22.156707	0.000932	20.728407
197.032556	-3.009000	3.842000	-11.559000	22.169224	0.000931	20.708221
198.039606	-3.014600	3.840100	-11.574000	22.180247	0.000934	20.706455
199.033393	-2.991700	3.842500	-11.494000	22.194209	0.000933	20.718064
200.033263	-3.015500	3.840400	-11.580000	22.198773	0.000932	20.730221
201.037630	-2.983800	3.841200	-11.461000	22.178482	0.000934	20.724130
202.036495	-3.008700	3.841600	-11.555000	22.203558	0.000934	20.724579
203.036232	-2.984600	3.841700	-11.465000	22.223300	0.000935	20.707836
204.035878	-3.001100	3.839600	-11.522000	22.217151	0.000934	20.729181
205.036132	-3.013200	3.840300	-11.569000	22.225398	0.000933	20.706143
206.038488	-2.993400	3.840400	-11.495000	22.248831	0.000935	20.728184
207.036744	-3.024000	3.839800	-11.611000	22.221985	0.000936	20.723589
208.035470	-2.996200	3.840100	-11.503000	22.239139	0.000936	20.721324
209.037748	-3.014100	3.838900	-11.569000	22.219845	0.000937	20.720024
210.038657	-3.001900	3.839200	-11.523000	22.222638	0.000938	20.720924
211.035687	-3.012200	3.840100	-11.566000	22.214359	0.000938	20.730179
212.044124	-2.975000	3.840800	-11.424000	22.228320	0.000939	20.725191
213.037704	-3.021300	3.837700	-11.594000	22.249859	0.000939	20.721626
214.039557	-3.008800	3.838400	-11.548000	22.256211	0.000939	20.728461
215.039151	-2.989100	3.837900	-11.471000	22.270491	0.000940	20.741812
216.039105	-2.977900	3.838400	-11.430000	22.283505	0.000939	20.721177
217.042568	-2.978500	3.839200	-11.434000	22.290486	0.000940	20.712518
218.039535	-3.000400	3.837900	-11.514000	22.298111	0.000944	20.716835
219.041420	-3.014500	3.837800	-11.568000	22.318897	0.000940	20.721528
220.041117	-3.008900	3.837000	-11.544000	22.333896	0.000941	20.738918
221.038712	-2.993900	3.837000	-11.486000	22.369711	0.000942	20.716459
222.043189	-3.001900	3.837200	-11.517000	22.333380	0.000942	20.730341
223.042383	-3.005000	3.835700	-11.526000	22.355685	0.000944	20.718535
224.040454	-2.992700	3.837200	-11.482000	22.365751	0.000942	20.749006
225.041518	-2.993900	3.838200	-11.490000	22.379205	0.000943	20.743986
226.041549	-3.001100	3.837500	-11.516000	22.391288	0.000944	20.743284
227.041599	-2.995700	3.837300	-11.494000	22.381075	0.000944	20.744910
228.040236	-2.991200	3.836200	-11.473000	22.387532	0.000945	20.733358
229.043137	-3.007500	3.837100	-11.538000	22.393589	0.000943	20.728992
230.043579	-3.008600	3.836100	-11.540000	22.407109	0.000945	20.747748
231.042843	-3.015800	3.834800	-11.563000	22.412889	0.000947	20.762071
232.044600	-3.003700	3.833700	-11.514000	22.408751	0.000946	20.728528
233.043850	-2.992200	3.834800	-11.473000	22.411950	0.000946	20.735051
234.050674	-2.990900	3.835100	-11.468000	22.412514	0.000949	20.739409
235.044483	-3.022500	3.833300	-11.585000	22.427192	0.000948	20.753160
236.044940	-3.001300	3.833600	-11.504000	22.444777	0.000950	20.747062
237.053995	-3.000700	3.833300	-11.502000	22.444083	0.000948	20.745893
238.045168	-2.998500	3.833800	-11.494000	22.450613	0.000951	20.757175
239.048117	-3.014800	3.833000	-11.555000	22.485740	0.000952	20.736402
240.047190	-2.987400	3.834800	-11.455000	22.472083	0.000953	20.741692
241.045923	-2.989600	3.833700	-11.459000	22.430001	0.000954	20.720884
242.046720	-3.003500	3.832200	-11.509000	22.464932	0.000953	20.758239
243.052371	-3.011100	3.832700	-11.539000	22.483969	0.000953	20.760234
244.048140	-2.994400	3.832700	-11.475000	22.480402	0.000955	20.776102
245.047693	-2.985800	3.833600	-11.444000	22.466794	0.000953	20.749672
246.047508	-3.016400	3.830400	-11.553000	22.479080	0.000955	20.734948
247.049870	-2.982800	3.831200	-11.426000	22.507438	0.000955	20.761926
248.052710	-3.004500	3.831000	-11.510000	22.499880	0.000956	20.748193
249.050306	-3.018700	3.831100	-11.564000	22.493073	0.000957	20.764609
250.051387	-2.995900	3.832100	-11.479000	22.481285	0.000958	20.762288
251.049194	-2.994700	3.831800	-11.473000	22.501342	0.000958	20.762460
252.050992	-2.988700	3.831200	-11.449000	22.497474	0.000958	20.760482
253.054939	-3.014100	3.830700	-11.545000	22.503180	0.000958	20.772835
254.051476	-3.010400	3.830600	-11.531000	22.500412	0.000960	20.752993
255.051873	-2.996200	3.829500	-11.473000	22.498192	0.000957	20.767840
256.051812	-3.012400	3.829600	-11.534000	22.508829	0.000960	20.749569
257.055051	-2.989600	3.829600	-11.448000	22.520697	0.000959	20.768093
258.051611	-2.994300	3.828700	-11.463000	22.531105	0.000958	20.757180
259.053730	-3.037600	3.826500	-11.622000	22.548966	0.000959	20.772223
260.051687	-3.006900	3.829500	-11.514000	22.556043	0.000962	20.757499
261.051174	-3.000000	3.829100	-11.486000	22.567878	0.000963	20.764612
262.050800	-3.003900	3.828600	-11.499000	22.560272	0.000963	20.753200
263.053495	-2.988200	3.829400	-11.442000	22.581347	0.000962	20.765300
264.057286	-2.997700	3.827900	-11.474000	22.592677	0.000962	20.785657
265.054707	-2.993700	3.828800	-11.461000	22.591191	0.000963	20.773262
266.057902	-3.011200	3.827800	-11.524000	22.605239	0.000964	20.776427
267.054126	-2.997900	3.827800	-11.474000	22.615874	0.000964	20.785657
268.054982	-2.995600	3.828300	-11.467000	22.630844	0.000966	20.784529
269.058545	-2.989400	3.827400	-11.440000	22.646073	0.000965	20.758531
270.058226	-2.993900	3.827500	-11.458000	22.628526	0.000966	20.776518
271.055835	-3.009900	3.825800	-11.514000	22.634705	0.000967	20.776542
272.057175	-2.987700	3.826900	-11.433000	22.633481	0.000965	20.779110
273.054615	-3.023300	3.824700	-11.562000	22.639635	0.000966	20.773894
274.055346	-2.984900	3.826600	-11.421000	22.648286	0.000967	20.777343
275.056834	-2.990700	3.825900	-11.441000	22.643667	0.000966	20.798322
276.055852	-2.996100	3.825500	-11.461000	22.633572	0.000968	20.775882
277.058039	-2.999800	3.825100	-11.474000	22.642353	0.000970	20.813126
278.056273	-2.994300	3.826100	-11.455000	22.663949	0.000970	20.785920
279.057868	-3.008100	3.824300	-11.503000	22.653584	0.000968	20.777908
280.061682	-3.007100	3.823600	-11.497000	22.658188	0.000969	20.784417
281.059964	-2.997500	3.825200	-11.465000	22.669058	0.000971	20.786770
282.056787	-2.991500	3.824300	-11.439000	22.680297	0.000973	20.791389
283.057503	-3.002400	3.822700	-11.477000	22.677277	0.000973	20.793580
284.058274	-2.997000	3.823200	-11.457000	22.683056	0.000973	20.778031
285.058185	-3.013200	3.821400	-11.514000	22.676110	0.000973	20.790040
286.062223	-3.012600	3.822400	-11.514000	22.695665	0.000973	20.800145
287.059727	-2.990700	3.822500	-11.431000	22.700644	0.000975	20.801813
288.059251	-2.997100	3.822100	-11.454000	22.679995	0.000975	20.789190
289.059345	-3.000400	3.821700	-11.466000	22.712829	0.000975	20.787465
290.062790	-2.993800	3.821900	-11.440000	22.704259	0.000976	20.796425
291.064798	-2.990500	3.821900	-11.429000	22.705410	0.000977	20.807534
292.065643	-3.005200	3.821200	-11.483000	22.750631	0.000977	20.794037
293.061156	-2.983700	3.822800	-11.405000	22.758082	0.000978	20.805768
294.061430	-2.989400	3.822100	-11.425000	22.754891	0.000978	20.786451
295.060958	-3.004500	3.819800	-11.476000	22.763257	0.000977	20.796727
296.063081	-2.984500	3.822300	-11.406000	22.786303	0.000980	20.793261
297.061452	-3.004800	3.819500	-11.475000	22.781138	0.000978	20.815588
298.067296	-2.990800	3.820300	-11.425000	22.800201	0.000979	20.810028
299.062463	-2.988700	3.820300	-11.417000	22.770984	0.000981	20.812055
300.062462	-2.974900	3.820000	-11.364000	22.787870	0.000983	20.826599
301.066963	-2.996100	3.819300	-11.442000	22.799401	0.000981	20.825348
302.061366	-2.993000	3.818700	-11.429000	22.797336	0.000981	20.809055
303.062627	-2.999500	3.820100	-11.457000	22.814849	0.000982	20.812848
304.061456	-2.984800	3.819100	-11.399000	22.803987	0.000982	20.812399
305.065833	-2.994800	3.819000	-11.436000	22.797010	0.000982	20.821530
306.062426	-3.019800	3.816800	-11.525000	22.794317	0.000983	20.816462
307.066419	-2.999600	3.818400	-11.453000	22.823116	0.000982	20.816389
308.065144	-2.998600	3.818200	-11.449000	22.838042	0.000983	20.803840
309.064612	-3.002200	3.816900	-11.458000	22.827629	0.000985	20.799098
310.064127	-2.998000	3.817700	-11.445000	22.825581	0.000985	20.815539
311.063919	-2.974700	3.816900	-11.353000	22.842399	0.000984	20.817688
312.064645	-3.019200	3.815900	-11.520000	22.853832	0.000985	20.808279
313.065761	-2.990000	3.816400	-11.410000	22.892225	0.000984	20.808810
314.065885	-3.010100	3.816700	-11.487000	22.892022	0.000987	20.814295
315.065094	-2.972700	3.818200	-11.348000	22.890185	0.000984	20.813878
316.066801	-2.996600	3.815200	-11.431000	22.914462	0.000988	20.824923
317.068137	-2.995500	3.816100	-11.429000	22.900516	0.000987	20.829443
318.067175	-2.987600	3.815100	-11.397000	22.937243	0.000987	20.793219
319.066827	-3.005900	3.813900	-11.464000	22.940163	0.000988	20.795197
320.066886	-2.985900	3.814500	-11.389000	22.955822	0.000989	20.805670
321.066891	-2.982100	3.815200	-11.377000	22.940563	0.000987	20.806028
322.066713	-3.031900	3.812300	-11.558000	22.906936	0.000988	20.811219
323.069699	-2.974100	3.814300	-11.341000	22.913962	0.000989	20.796447
324.065928	-2.970100	3.814000	-11.326000	22.906894	0.000991	20.786996
325.065700	-2.987600	3.814900	-11.396000	22.896605	0.000991	20.815094
326.066294	-2.990000	3.813100	-11.400000	22.876758	0.000990	20.803272
327.064828	-3.010500	3.812600	-11.477000	22.867415	0.000991	20.790593
328.070632	-3.025300	3.812100	-11.532000	22.897730	0.000993	20.776392
329.065679	-3.002800	3.813100	-11.449000	22.905433	0.000992	20.793118
330.067111	-3.027200	3.812200	-11.538000	22.909015	0.000994	20.794337
331.067294	-3.023100	3.811800	-11.523000	22.926215	0.000992	20.796869
332.068782	-3.011900	3.812200	-11.480000	22.896090	0.000992	20.804621
333.068870	-2.972300	3.813200	-11.333000	22.909920	0.000993	20.797140
334.069902	-2.989200	3.812200	-11.393000	22.911526	0.000995	20.799697
335.070820	-2.994800	3.812200	-11.416000	22.934783	0.000995	20.770840
336.070697	-2.993200	3.809700	-11.401000	22.944052	0.000993	20.770169
337.069734	-2.992900	3.812800	-11.410000	22.941914	0.000996	20.805485
338.071739	-3.001300	3.810700	-11.436000	22.957433	0.000995	20.779308
339.073420	-2.993400	3.811000	-11.407000	22.947039	0.000999	20.782645
340.072843	-2.992000	3.809700	-11.397000	22.920722	0.000999	20.788995
341.071055	-2.988800	3.810700	-11.388000	22.945023	0.000997	20.789634
342.071774	-3.000000	3.809500	-11.427000	22.932701	0.000999	20.804790
343.073810	-2.991300	3.809200	-11.394000	22.956413	0.000997	20.786347
344.071671	-2.998100	3.809500	-11.421000	22.975490	0.000998	20.773692
345.072247	-3.014700	3.808400	-11.480000	22.978975	0.000997	20.787615
346.073162	-2.993600	3.808800	-11.401000	23.003713	0.000998	20.797228
347.072560	-3.006200	3.808200	-11.448000	22.999626	0.000998	20.774166
348.076792	-3.003200	3.807900	-11.435000	23.012273	0.000998	20.774036
349.071250	-2.985700	3.808800	-11.372000	23.027792	0.001000	20.777731
350.072642	-3.010100	3.808000	-11.460000	23.024633	0.001000	20.780731
351.073839	-3.022600	3.805000	-11.500000	23.013325	0.001000	20.792160
352.073430	-3.000500	3.807300	-11.422000	22.999503	0.001001	20.760293
353.073776	-3.023200	3.804900	-11.502000	22.969412	0.001001	20.778507
354.073794	-2.996400	3.805600	-11.401000	22.977611	0.001003	20.772972
355.077245	-2.989500	3.806500	-11.378000	22.975115	0.001004	20.770471
356.074836	-2.995400	3.806100	-11.399000	22.977302	0.001003	20.782620
357.077005	-3.026600	3.805900	-11.517000	23.009206	0.001004	20.787558
358.082632	-3.007900	3.804400	-11.442000	23.014990	0.001003	20.784345
359.077019	-2.977600	3.805600	-11.331000	23.027522	0.001004	20.773668
360.077379	-3.013100	3.804900	-11.463000	23.042935	0.001005	20.757342
361.083949	-3.001100	3.804400	-11.416000	23.068814	0.001002	20.769997
362.078534	-2.992100	3.804200	-11.382000	23.060534	0.001004	20.775925
363.079341	-3.007500	3.804600	-11.441000	23.076876	0.001006	20.762428
364.084378	-2.999500	3.803700	-11.408000	23.083729	0.001005	20.760759
365.078146	-2.995700	3.804500	-11.396000	23.107985	0.001006	20.773211
366.079815	-3.000800	3.804300	-11.415000	23.095282	0.001006	20.767594
367.088702	-3.001800	3.803200	-11.415000	23.111167	0.001006	20.767865
368.085184	-3.000200	3.804100	-11.412000	23.136270	0.001006	20.756983
369.081588	-2.985200	3.802100	-11.349000	23.132632	0.001006	20.755708
370.082321	-2.985700	3.802300	-11.351000	23.124988	0.001010	20.758480
371.082808	-2.995700	3.801700	-11.388000	23.144665	0.001008	20.772982
372.083227	-3.018300	3.802400	-11.475000	23.154479	0.001009	20.757686
373.081198	-2.996000	3.802500	-11.391000	23.180128	0.001010	20.749723
374.081862	-2.989000	3.802800	-11.364000	23.184183	0.001010	20.763745
375.090857	-3.006000	3.802000	-11.427000	23.202163	0.001010	20.779392
376.083312	-2.999900	3.802300	-11.405000	23.197081	0.001011	20.779041
377.081485	-3.038800	3.799100	-11.544000	23.206103	0.001011	20.760106
378.087870	-3.005500	3.800000	-11.420000	23.202661	0.001010	20.759976
379.088223	-2.983400	3.800000	-11.337000	23.192455	0.001011	20.769189
380.086980	-3.010200	3.799300	-11.436000	23.202742	0.001013	20.765273
381.084902	-2.983000	3.800800	-11.335000	23.216593	0.001011	20.763980
382.088316	-3.017100	3.797500	-11.457000	23.215899	0.001014	20.764233
383.085383	-2.987700	3.798200	-11.346000	23.232932	0.001015	20.757121
384.088115	-2.997700	3.799200	-11.388000	23.200856	0.001013	20.761961
385.087657	-3.015200	3.797800	-11.450000	23.233903	0.001015	20.759990
386.085655	-2.967900	3.798700	-11.273000	23.235501	0.001014	20.750686
387.083575	-2.995300	3.797800	-11.374000	23.232841	0.001014	20.749443
388.086640	-2.964900	3.799400	-11.264000	23.225874	0.001014	20.750522
389.087559	-2.961800	3.797100	-11.245000	23.262761	0.001014	20.751927
390.083705	-2.984000	3.798200	-11.333000	23.236266	0.001017	20.742444
391.087169	-3.006000	3.796200	-11.411000	23.249833	0.001016	20.766471
392.084779	-2.974200	3.797700	-11.295000	23.241292	0.001016	20.742264
393.086201	-2.988500	3.797300	-11.347000	23.235425	0.001016	20.749188
394.084057	-2.998800	3.795900	-11.383000	23.265860	0.001018	20.766412
395.087090	-2.974300	3.796300	-11.290000	23.248354	0.001017	20.766887
396.088815	-2.996400	3.795800	-11.373000	23.239666	0.001016	20.752490
397.088068	-3.014100	3.795200	-11.437000	23.220569	0.001019	20.748998
398.085439	-3.010700	3.795100	-11.424000	23.217460	0.001018	20.740667
399.085403	-3.001600	3.795800	-11.392000	23.238752	0.001019	20.758212
400.085749	-3.018900	3.795200	-11.457000	23.217331	0.001019	20.735321
401.091621	-3.004500	3.794200	-11.398000	23.251208	0.001019	20.742719
402.087650	-3.015400	3.794200	-11.440000	23.259675	0.001019	20.758317
403.086567	-2.981100	3.793900	-11.309000	23.254828	0.001019	20.754882
404.085345	-3.003000	3.793100	-11.390000	23.262563	0.001019	20.731338
405.089402	-3.007600	3.792600	-11.405000	23.289310	0.001021	20.713098
406.088063	-2.986400	3.792800	-11.325000	23.310656	0.001021	20.747770
407.103275	-2.984900	3.791700	-11.317000	23.313470	0.001021	20.750590
408.090097	-2.992200	3.793100	-11.349000	23.309521	0.001022	20.735252
409.090582	-3.008800	3.790500	-11.404000	23.312279	0.001023	20.727584
410.090789	-3.029700	3.790200	-11.483000	23.344303	0.001022	20.736446
411.089897	-2.993200	3.792100	-11.349000	23.337476	0.001023	20.753313
412.094016	-2.998500	3.790500	-11.365000	23.340118	0.001023	20.728459
413.095982	-2.989300	3.789900	-11.328000	23.323543	0.001025	20.733183
414.093024	-3.001700	3.791000	-11.378000	23.299986	0.001025	20.740869
415.093229	-2.968200	3.790100	-11.248000	23.311063	0.001024	20.730633
416.091482	-3.011700	3.789500	-11.411000	23.289339	0.001023	20.714076
417.093942	-2.988600	3.789600	-11.324000	23.293264	0.001024	20.739822
418.094252	-3.010300	3.788600	-11.404000	23.304773	0.001024	20.748038
419.094353	-3.006200	3.788300	-11.387000	23.330517	0.001025	20.727845
420.095426	-3.013800	3.787700	-11.413000	23.359954	0.001024	20.729373
421.094114	-3.015100	3.788700	-11.423000	23.376610	0.001025	20.736584
422.094700	-3.022800	3.787500	-11.448000	23.364896	0.001026	20.728636
423.097635	-3.010200	3.787900	-11.401000	23.385378	0.001026	20.733043
424.095236	-3.007200	3.787400	-11.388000	23.359366	0.001027	20.736844
425.098996	-2.997700	3.787100	-11.352000	23.358321	0.001026	20.733901
426.096512	-2.991100	3.788300	-11.330000	23.391854	0.001026	20.730999
427.096390	-3.004800	3.787600	-11.379000	23.377367	0.001025	20.721695
428.099015	-2.986400	3.786800	-11.308000	23.387081	0.001027	20.711042
429.097002	-3.001100	3.786200	-11.362000	23.369595	0.001028	20.718646
430.096760	-3.000500	3.786300	-11.360000	23.393084	0.001026	20.716585
431.097631	-3.027600	3.786100	-11.462000	23.399185	0.001027	20.734080
432.099183	-2.987900	3.785800	-11.310000	23.406810	0.001028	20.723231
433.097889	-3.020900	3.782500	-11.426000	23.386402	0.001029	20.729329
434.100169	-2.988200	3.785500	-11.311000	23.387309	0.001029	20.728815
435.097967	-2.965200	3.786400	-11.225000	23.406484	0.001027	20.739500
436.099004	-3.001600	3.783900	-11.357000	23.397798	0.001029	20.717042
437.099333	-3.019000	3.784700	-11.425000	23.423620	0.001029	20.746244
438.100341	-2.990900	3.784600	-11.318000	23.414379	0.001031	20.696676
439.101172	-2.995500	3.783900	-11.333000	23.423620	0.001029	20.719690
440.099967	-3.018400	3.783500	-11.418000	23.404200	0.001029	20.722985
441.100849	-3.011400	3.782800	-11.390000	23.418546	0.001029	20.715079
442.099648	-3.007000	3.781700	-11.370000	23.452655	0.001033	20.727456
443.101705	-3.007700	3.782100	-11.375000	23.460616	0.001030	20.709356
444.102718	-3.013600	3.780900	-11.392000	23.461471	0.001031	20.718749
445.099576	-3.012300	3.782000	-11.391000	23.443128	0.001031	20.705103
446.099859	-3.010200	3.780300	-11.378000	23.436848	0.001030	20.716828
447.098104	-2.990400	3.780500	-11.304000	23.430363	0.001032	20.704162
448.099347	-2.992900	3.781400	-11.316000	23.454628	0.001032	20.722796
449.101684	-2.997200	3.781000	-11.332000	23.440290	0.001033	20.708423
450.100578	-3.004500	3.779600	-11.355000	23.471045	0.001031	20.709379
451.100264	-2.985400	3.779500	-11.282000	23.442834	0.001033	20.726147
452.099585	-3.007400	3.779500	-11.365000	23.476770	0.001032	20.728869
453.100979	-3.009100	3.780000	-11.373000	23.455410	0.001032	20.692283
454.105196	-3.005400	3.779200	-11.357000	23.470408	0.001032	20.710637
455.101602	-2.994900	3.777900	-11.313000	23.483971	0.001033	20.711904
456.101355	-3.021800	3.777400	-11.413000	23.496547	0.001033	20.706492
457.100566	-2.995300	3.778400	-11.317000	23.498341	0.001033	20.717300
458.099319	-3.011800	3.777700	-11.377000	23.528288	0.001034	20.700376
459.101500	-3.020200	3.777600	-11.408000	23.553635	0.001033	20.713457
460.104072	-3.013700	3.776500	-11.381000	23.561847	0.001034	20.708887
461.102849	-2.992800	3.778700	-11.307000	23.548481	0.001033	20.715403
462.102407	-3.015600	3.776600	-11.387000	23.542388	0.001036	20.737272
463.102598	-2.984900	3.777100	-11.274000	23.541842	0.001033	20.705428
464.104098	-3.012400	3.775700	-11.373000	23.527578	0.001034	20.701561
465.104839	-3.006600	3.775500	-11.350000	23.547175	0.001034	20.702239
466.103950	-2.990400	3.776000	-11.290000	23.532854	0.001036	20.719653
467.120311	-2.996700	3.775600	-11.313000	23.543194	0.001037	20.712000
468.104316	-3.006200	3.774900	-11.347000	23.512253	0.001036	20.699949
469.104366	-3.016700	3.774100	-11.384000	23.519267	0.001035	20.703187
470.107396	-3.016500	3.774100	-11.382000	23.517953	0.001037	20.693335
471.106259	-2.990000	3.775900	-11.288000	23.525147	0.001038	20.698649
472.105666	-2.987000	3.774100	-11.273000	23.516811	0.001036	20.719693
473.107494	-2.991300	3.774600	-11.290000	23.520603	0.001036	20.712113
474.106323	-2.987200	3.774500	-11.274000	23.533823	0.001038	20.694544
475.108963	-2.989300	3.773600	-11.280000	23.563948	0.001037	20.705303
476.109782	-3.001400	3.772900	-11.322000	23.553892	0.001038	20.699015
477.104852	-2.991200	3.773000	-11.285000	23.552677	0.001036	20.675035
478.107809	-2.983200	3.771700	-11.251000	23.550785	0.001039	20.679303
479.107118	-3.007500	3.773200	-11.347000	23.554912	0.001039	20.690554
480.107153	-2.982400	3.772400	-11.249000	23.551160	0.001038	20.688215
481.114399	-2.995000	3.772100	-11.297000	23.514517	0.001037	20.678035
482.110440	-3.000900	3.771500	-11.317000	23.518708	0.001039	20.683659
483.109822	-3.019900	3.770600	-11.385000	23.537825	0.001038	20.697608
484.108754	-3.004700	3.771300	-11.331000	23.549153	0.001037	20.691893
485.108852	-2.958800	3.771600	-11.158000	23.584880	0.001039	20.694517
486.109457	-2.989300	3.769800	-11.268000	23.610193	0.001037	20.697133
487.111441	-2.970900	3.769900	-11.199000	23.590294	0.001039	20.696151
488.107723	-2.991100	3.769200	-11.273000	23.585181	0.001040	20.686758
489.109472	-2.984500	3.770300	-11.251000	23.593230	0.001040	20.693878
490.110433	-3.004500	3.768800	-11.322000	23.600104	0.001040	20.688441
491.108467	-3.001300	3.767800	-11.308000	23.611757	0.001039	20.694433
492.113785	-3.012900	3.767400	-11.350000	23.638488	0.001040	20.682350
493.111539	-2.997700	3.767700	-11.294000	23.638128	0.001041	20.679618
494.111542	-2.985600	3.767600	-11.247000	23.643037	0.001039	20.665571
495.112243	-2.997000	3.767400	-11.290000	23.641887	0.001038	20.699510
496.112888	-2.993600	3.768200	-11.278000	23.630911	0.001040	20.699886
497.115221	-3.006600	3.767000	-11.324000	23.646918	0.001041	20.686060
498.111484	-3.013800	3.765800	-11.348000	23.635827	0.001041	20.679682
499.112931	-3.017200	3.766400	-11.363000	23.660169	0.001039	20.691758
500.113291	-2.996000	3.765600	-11.280000	23.668738	0.001041	20.681857
501.114923	-3.006900	3.766100	-11.323000	23.691790	0.001040	20.684579
502.128913	-3.007200	3.764400	-11.319000	23.696218	0.001039	20.685699
503.114880	-2.998800	3.764500	-11.289000	23.698289	0.001040	20.687775
504.114826	-2.989500	3.765100	-11.254000	23.707422	0.001040	20.681758
505.117527	-3.011100	3.763900	-11.332000	23.701877	0.001039	20.673827
506.114587	-2.978500	3.764800	-11.212000	23.674046	0.001038	20.679117
507.115776	-2.992500	3.765600	-11.268000	23.659890	0.001041	20.674881
508.118712	-2.998100	3.762200	-11.279000	23.657973	0.001040	20.642136
509.116454	-2.998600	3.762400	-11.281000	23.646443	0.001041	20.679419
510.116356	-2.990200	3.763200	-11.251000	23.626204	0.001041	20.676198
511.119164	-2.989200	3.762300	-11.246000	23.630909	0.001041	20.678070
512.117521	-3.011500	3.761800	-11.328000	23.595142	0.001043	20.659756
513.124279	-3.009100	3.761300	-11.317000	23.616874	0.001042	20.674432
514.118521	-2.995300	3.761200	-11.264000	23.599994	0.001042	20.666518
515.120619	-3.001200	3.760400	-11.285000	23.634024	0.001040	20.679771
516.120915	-2.971300	3.761700	-11.176000	23.660860	0.001042	20.670638
517.119559	-2.994800	3.760700	-11.260000	23.672929	0.001042	20.676100
518.122966	-2.991200	3.761400	-11.250000	23.709924	0.001040	20.677628
519.121073	-3.000100	3.758900	-11.277000	23.734411	0.001042	20.671832
520.121221	-3.012700	3.759100	-11.324000	23.690778	0.001043	20.667441
521.121840	-3.011400	3.758200	-11.316000	23.708530	0.001042	20.699466
522.125365	-3.009200	3.759500	-11.311000	23.704371	0.001042	20.679174
523.123595	-3.015600	3.757900	-11.331000	23.695613	0.001042	20.669444
524.123221	-3.018500	3.758100	-11.343000	23.739767	0.001043	20.662029
525.123264	-2.999100	3.757500	-11.268000	23.738356	0.001043	20.676262
526.128215	-3.004000	3.757900	-11.287000	23.762044	0.001041	20.672984
527.142100	-3.015600	3.756800	-11.328000	23.792692	0.001042	20.668626
528.123768	-3.010300	3.756400	-11.306000	23.767726	0.001043	20.669198
529.126883	-2.984300	3.757400	-11.212000	23.786520	0.001043	20.674292
530.125011	-2.992100	3.756200	-11.238000	23.768272	0.001042	20.671643
531.126310	-3.003600	3.755400	-11.279000	23.733602	0.001045	20.662486
532.125373	-2.959600	3.756500	-11.117000	23.731319	0.001043	20.656402
533.125564	-2.995200	3.755800	-11.248000	23.743019	0.001043	20.640156
534.127261	-2.993000	3.755700	-11.240000	23.740304	0.001044	20.675845
535.127899	-2.978600	3.755100	-11.184000	23.729459	0.001044	20.648847
536.124242	-3.001600	3.753800	-11.267000	23.731245	0.001045	20.677668
537.126226	-2.969600	3.754600	-11.149000	23.698963	0.001043	20.651938
538.125353	-2.988300	3.754600	-11.218000	23.705991	0.001043	20.669891
539.125135	-2.993200	3.754700	-11.237000	23.716094	0.001043	20.660579
540.128848	-2.996700	3.753400	-11.247000	23.675218	0.001043	20.668911
541.126524	-3.015700	3.753600	-11.317000	23.724362	0.001042	20.651798
542.129581	-3.001800	3.753500	-11.266000	23.703252	0.001044	20.664773
543.125871	-3.017500	3.753200	-11.324000	23.712644	0.001043	20.652852
544.127455	-3.001100	3.750900	-11.256000	23.741167	0.001045	20.644938
545.131300	-2.985000	3.753600	-11.203000	23.727786	0.001045	20.648592
546.129612	-3.005800	3.749700	-11.269000	23.731439	0.001044	20.656049
547.128625	-3.017200	3.750700	-11.315000	23.762358	0.001043	20.659073
548.128789	-2.971700	3.750900	-11.146000	23.769501	0.001046	20.655803
549.128408	-3.005500	3.750900	-11.272000	23.801633	0.001044	20.650562
550.128762	-3.000100	3.751600	-11.254000	23.797588	0.001043	20.634176
551.130921	-3.014900	3.749100	-11.302000	23.831391	0.001043	20.652899
552.128273	-2.986100	3.750900	-11.200000	23.810763	0.001044	20.669202
553.129111	-2.993500	3.748500	-11.220000	23.786344	0.001044	20.639972
554.128530	-3.013600	3.748400	-11.294000	23.763750	0.001044	20.644346
555.130833	-2.984800	3.750000	-11.192000	23.775450	0.001045	20.671253
556.131464	-3.013600	3.747800	-11.294000	23.762037	0.001045	20.656855
557.131486	-3.017500	3.747600	-11.307000	23.746350	0.001045	20.651083
558.132293	-2.998200	3.747300	-11.234000	23.738489	0.001045	20.651737
559.131701	-2.992700	3.748600	-11.217000	23.727090	0.001046	20.658801
560.131837	-2.984400	3.747700	-11.183000	23.712429	0.001044	20.646472
561.131645	-3.001100	3.747700	-11.246000	23.704389	0.001043	20.670182
562.133264	-2.987800	3.745200	-11.189000	23.727514	0.001044	20.658278
563.134110	-2.999900	3.745700	-11.234000	23.781312	0.001044	20.647256
564.133479	-3.011300	3.745500	-11.278000	23.783245	0.001044	20.642081
565.134913	-2.999500	3.745800	-11.235000	23.784093	0.001044	20.655261
566.133731	-3.035000	3.744600	-11.363000	23.829718	0.001045	20.663551
567.136746	-2.992000	3.745500	-11.205000	23.815556	0.001044	20.650772
568.133590	-3.001500	3.744600	-11.239000	23.808593	0.001042	20.676509
569.139297	-2.963000	3.745200	-11.096000	23.792213	0.001044	20.657713
570.143577	-3.005900	3.742900	-11.250000	23.792661	0.001042	20.642988
571.141813	-3.015300	3.742300	-11.283000	23.822177	0.001042	20.644133
572.140010	-3.002200	3.742800	-11.235000	23.826587	0.001043	20.653298
573.137123	-3.010000	3.742200	-11.263000	23.842763	0.001045	20.664303
574.135246	-2.998200	3.744000	-11.225000	23.863104	0.001044	20.654826
575.135596	-3.020800	3.743300	-11.306000	23.865111	0.001044	20.659209
576.136772	-2.998500	3.741500	-11.218000	23.848543	0.001044	20.655873
577.139359	-2.996800	3.742700	-11.215000	23.861750	0.001043	20.677178
578.136266	-3.013200	3.741700	-11.274000	23.876247	0.001043	20.658996
579.137284	-2.997000	3.743100	-11.217000	23.875578	0.001044	20.673025
580.136017	-3.007100	3.742400	-11.253000	23.871827	0.001044	20.660254
581.135401	-2.994400	3.741400	-11.202000	23.891410	0.001045	20.658554
582.138254	-3.007100	3.738800	-11.242000	23.901698	0.001045	20.644686
583.137329	-2.984300	3.740500	-11.162000	23.916153	0.001043	20.663925
584.136503	-3.008500	3.740700	-11.252000	23.923498	0.001042	20.662281
585.141856	-2.978900	3.740200	-11.141000	23.934846	0.001044	20.683620
586.138456	-2.994400	3.740000	-11.198000	23.948020	0.001044	20.640401
587.143322	-3.001100	3.739800	-11.222000	23.965139	0.001043	20.650458
588.141240	-2.992800	3.738900	-11.189000	23.978557	0.001043	20.649689
589.135849	-3.014600	3.737800	-11.267000	23.978158	0.001044	20.663041
590.141223	-3.042600	3.737600	-11.370000	23.934886	0.001042	20.652837
591.138011	-3.007500	3.737800	-11.241000	23.907338	0.001041	20.666940
592.137223	-3.004100	3.739100	-11.232000	23.900792	0.001043	20.675075
593.138675	-3.035800	3.736600	-11.343000	23.889321	0.001042	20.649819
594.136375	-3.017400	3.737200	-11.275000	23.901395	0.001042	20.671412
595.138762	-3.020600	3.736900	-11.287000	23.910761	0.001043	20.664208
596.139378	-3.009000	3.736200	-11.240000	23.929993	0.001043	20.646507
597.140062	-3.002000	3.736600	-11.216000	23.940746	0.001044	20.658240
598.138387	-3.025100	3.735100	-11.297000	23.917430	0.001043	20.680854
599.143712	-2.999600	3.735100	-11.204000	23.913949	0.001043	20.670724
600.140761	-3.007700	3.734700	-11.232000	23.907728	0.001045	20.679186
601.140096	-2.992800	3.735600	-11.178000	23.869525	0.001042	20.655100
602.142009	-2.988400	3.735400	-11.162000	23.862806	0.001043	20.645517
603.142863	-2.987400	3.734300	-11.155000	23.871766	0.001044	20.654503
604.144772	-3.035600	3.733600	-11.332000	23.876797	0.001042	20.652908
605.142957	-2.991900	3.735100	-11.174000	23.892678	0.001043	20.680216
606.145683	-2.984500	3.734400	-11.143000	23.916484	0.001043	20.675638
607.145844	-2.998900	3.733500	-11.195000	23.930922	0.001042	20.674469
608.143080	-2.996100	3.733700	-11.184000	23.927090	0.001043	20.669678
609.146785	-2.990500	3.733500	-11.164000	23.975939	0.001042	20.669825
610.142472	-2.998500	3.732500	-11.191000	23.968097	0.001043	20.662434
611.143984	-2.977500	3.732400	-11.113000	23.944007	0.001042	20.679056
612.141396	-2.994300	3.731800	-11.172000	23.976110	0.001044	20.679481
613.141794	-2.986000	3.731200	-11.141000	23.991118	0.001042	20.669400
614.145891	-2.983700	3.730700	-11.131000	24.000305	0.001040	20.688572
615.143670	-2.985700	3.732500	-11.142000	23.983448	0.001043	20.690633
616.143710	-2.989900	3.731600	-11.156000	23.985795	0.001043	20.680658
617.144556	-3.006100	3.731600	-11.217000	23.991819	0.001042	20.682906
618.144931	-3.010800	3.729900	-11.228000	23.979111	0.001043	20.696716
619.144494	-3.012700	3.730000	-11.237000	23.959839	0.001041	20.685449
620.146329	-3.020800	3.729000	-11.263000	23.952094	0.001044	20.685744
621.145047	-2.994000	3.730300	-11.168000	23.943363	0.001042	20.678410
622.145316	-3.011500	3.728900	-11.228000	23.930996	0.001042	20.684501
623.144567	-2.997400	3.729900	-11.179000	23.949289	0.001041	20.669653
624.144616	-3.000000	3.729600	-11.187000	23.967379	0.001040	20.660766
625.147532	-2.997800	3.729600	-11.180000	23.971586	0.001040	20.681582
626.147212	-2.997400	3.728500	-11.175000	23.956007	0.001041	20.671648
627.146899	-2.988000	3.728800	-11.141000	23.956487	0.001040	20.675449
628.144427	-3.003700	3.728500	-11.199000	23.972156	0.001041	20.687370
629.143346	-3.014900	3.727000	-11.236000	23.977341	0.001042	20.678344
630.148075	-3.013600	3.727200	-11.230000	23.972188	0.001040	20.694515
631.148482	-2.981900	3.727200	-11.112000	23.965797	0.001040	20.694744
632.145283	-3.000300	3.725900	-11.177000	23.977324	0.001040	20.670739
633.146325	-2.994600	3.726100	-11.157000	24.006410	0.001041	20.699437
634.144837	-2.985700	3.726300	-11.125000	24.026170	0.001041	20.691751
635.145440	-2.993200	3.726300	-11.153000	24.043223	0.001041	20.692258
636.148065	-3.001100	3.726000	-11.181000	24.043174	0.001039	20.685570
637.144929	-3.012300	3.724900	-11.219000	24.058320	0.001039	20.661403
638.148164	-2.992200	3.725700	-11.147000	24.076374	0.001041	20.692789
639.149087	-3.011300	3.722700	-11.209000	24.072063	0.001038	20.699845
640.145938	-3.008200	3.724300	-11.202000	24.083091	0.001040	20.691939
641.152942	-3.011300	3.724500	-11.215000	24.078363	0.001038	20.699526
642.146966	-3.003300	3.723200	-11.181000	24.079488	0.001039	20.682634
643.147309	-3.011000	3.723800	-11.211000	24.084867	0.001037	20.679494
644.147914	-3.005400	3.721800	-11.184000	24.032185	0.001041	20.693990
645.148375	-2.978300	3.722400	-11.085000	24.029355	0.001039	20.685936
646.149199	-2.982600	3.721600	-11.098000	24.027204	0.001038	20.698005
647.152971	-3.008300	3.722000	-11.196000	24.030570	0.001039	20.699958
648.149541	-3.010400	3.721800	-11.203000	24.023559	0.001037	20.696246
649.150184	-3.022500	3.720600	-11.244000	24.032844	0.001038	20.697497
650.152673	-3.010700	3.720700	-11.201000	24.049563	0.001038	20.710946
651.151567	-2.992000	3.720600	-11.130000	24.070317	0.001037	20.687187
652.154938	-3.010500	3.719800	-11.197000	24.103614	0.001037	20.692133
653.153674	-3.013600	3.720800	-11.212000	24.136105	0.001038	20.698167
654.154251	-3.008000	3.719300	-11.188000	24.166238	0.001036	20.684767
655.154488	-2.979600	3.720800	-11.085000	24.167901	0.001039	20.710145
656.153847	-3.015100	3.718700	-11.211000	24.163507	0.001037	20.689141
657.157155	-2.998800	3.718700	-11.151000	24.198668	0.001039	20.707339
658.155875	-3.007400	3.719200	-11.184000	24.202002	0.001036	20.708787
659.155733	-2.984400	3.718600	-11.097000	24.195457	0.001038	20.710757
660.154896	-2.993500	3.718800	-11.131000	24.175553	0.001035	20.696008
661.156410	-2.974600	3.719700	-11.062000	24.165357	0.001037	20.704273
662.156391	-2.990100	3.718800	-11.118000	24.171274	0.001037	20.707364
663.156099	-3.000100	3.717500	-11.152000	24.144059	0.001036	20.707094
664.155925	-2.986800	3.717500	-11.103000	24.169366	0.001036	20.715882
665.158317	-2.996500	3.718100	-11.141000	24.178748	0.001034	20.711541
666.156680	-2.999000	3.715800	-11.142000	24.186336	0.001034	20.700185
667.155379	-2.998600	3.714900	-11.139000	24.185415	0.001036	20.706848
668.161939	-3.005500	3.716400	-11.169000	24.187110	0.001034	20.727516
669.156466	-3.017300	3.715100	-11.208000	24.175487	0.001035	20.714435
670.160080	-3.006900	3.715900	-11.172000	24.188357	0.001034	20.722602
671.158213	-3.025200	3.713900	-11.234000	24.206345	0.001035	20.689908
672.157640	-2.993100	3.716500	-11.122000	24.224585	0.001036	20.706308
673.156812	-3.000100	3.714600	-11.142000	24.226900	0.001035	20.699620
674.159873	-2.986600	3.715000	-11.094000	24.184330	0.001032	20.704338
675.163161	-3.010400	3.713800	-11.179000	24.190353	0.001033	20.704689
676.157948	-3.008400	3.713700	-11.171000	24.191551	0.001035	20.717271
677.159411	-2.991500	3.714500	-11.110000	24.201282	0.001033	20.722765
678.161191	-2.995700	3.714000	-11.125000	24.190882	0.001033	20.700004
679.164113	-3.003200	3.713500	-11.151000	24.170775	0.001032	20.703544
680.159293	-3.005700	3.713900	-11.162000	24.161450	0.001034	20.704623
681.161170	-3.002600	3.713300	-11.149000	24.155427	0.001034	20.700952
682.160975	-2.991700	3.713200	-11.107000	24.143658	0.001032	20.705743
683.161014	-3.016500	3.711900	-11.196000	24.145581	0.001032	20.716208
684.161749	-3.005300	3.711000	-11.152000	24.125774	0.001032	20.731905
685.160409	-2.990400	3.711900	-11.098000	24.124348	0.001034	20.740906
686.165644	-2.992700	3.711700	-11.107000	24.119523	0.001032	20.733696
687.162210	-2.996400	3.709800	-11.115000	24.118504	0.001034	20.711809
688.162542	-3.007300	3.711100	-11.159000	24.119645	0.001031	20.732396
689.163979	-2.998600	3.708900	-11.120000	24.120297	0.001030	20.721669
690.164943	-2.966200	3.710600	-11.005000	24.145899	0.001031	20.718898
691.163540	-3.002100	3.708900	-11.133000	24.152745	0.001031	20.734774
692.164154	-2.988600	3.710000	-11.087000	24.164792	0.001030	20.733106
693.165567	-3.013600	3.706800	-11.170000	24.179887	0.001030	20.716952
694.164135	-2.990800	3.707300	-11.085000	24.181754	0.001031	20.724040
695.167963	-3.004500	3.708000	-11.140000	24.193131	0.001030	20.722650
696.165350	-2.987600	3.707800	-11.077000	24.216221	0.001032	20.710721
697.166765	-3.004500	3.707400	-11.138000	24.247445	0.001029	20.724972
698.167027	-2.962600	3.707000	-10.981000	24.236002	0.001030	20.719183
699.167952	-2.994500	3.707000	-11.099000	24.216799	0.001028	20.737856
700.173160	-3.003500	3.706000	-11.130000	24.217223	0.001029	20.712201
701.168108	-3.007100	3.704900	-11.140000	24.208584	0.001029	20.724399
702.168588	-3.006300	3.705600	-11.139000	24.226604	0.001029	20.743897
703.168220	-3.015600	3.704500	-11.171000	24.246808	0.001030	20.725756
704.166158	-3.001000	3.705200	-11.119000	24.269368	0.001028	20.724677
705.170487	-3.008200	3.705700	-11.147000	24.261535	0.001028	20.737684
706.167612	-2.958900	3.706000	-10.965000	24.292040	0.001031	20.722289
707.167075	-2.989200	3.704900	-11.074000	24.289921	0.001029	20.755727
708.167899	-2.992900	3.704800	-11.087000	24.327222	0.001030	20.751418
709.169747	-2.995000	3.704700	-11.095000	24.316928	0.001030	20.753420
710.169960	-2.983900	3.704700	-11.054000	24.336340	0.001027	20.727373
711.172959	-2.998800	3.703700	-11.104000	24.342705	0.001027	20.725697
712.170011	-2.975500	3.705100	-11.024000	24.344522	0.001028	20.753126
713.169730	-2.977700	3.703800	-11.028000	24.362833	0.001027	20.725975
714.170545	-3.006100	3.701000	-11.124000	24.359924	0.001027	20.743446
715.173338	-3.003600	3.702400	-11.120000	24.351318	0.001025	20.735761
716.175192	-3.006000	3.701400	-11.125000	24.358661	0.001027	20.726530
717.170983	-3.001300	3.701700	-11.109000	24.371593	0.001025	20.751834
718.173286	-2.995800	3.701600	-11.088000	24.392390	0.001027	20.759420
719.171817	-2.999700	3.702000	-11.103000	24.377493	0.001026	20.739260
720.171947	-2.987800	3.700700	-11.056000	24.375603	0.001026	20.743053
721.172930	-2.994900	3.701200	-11.082000	24.386799	0.001025	20.762821
722.172902	-2.989800	3.700200	-11.061000	24.365701	0.001027	20.735965
723.170288	-2.994800	3.700300	-11.080000	24.340927	0.001027	20.747149
724.171613	-2.998300	3.699300	-11.089000	24.361545	0.001024	20.745547
725.173434	-2.991100	3.700200	-11.065000	24.407823	0.001025	20.760679
726.172162	-3.004000	3.698000	-11.108000	24.398444	0.001025	20.760278
727.177007	-2.978800	3.700600	-11.022000	24.369906	0.001024	20.770056
728.173106	-2.960100	3.699500	-10.949000	24.352092	0.001026	20.751237
729.177806	-2.979700	3.698900	-11.021000	24.332216	0.001023	20.761644
730.179951	-2.965500	3.699800	-10.970000	24.331401	0.001025	20.750868
731.174425	-2.987000	3.698200	-11.044000	24.347650	0.001025	20.767170
732.179860	-2.986600	3.697500	-11.042000	24.382619	0.001024	20.754834
733.175282	-2.968200	3.698500	-10.976000	24.378536	0.001024	20.751212
734.174097	-3.012900	3.696300	-11.135000	24.371601	0.001024	20.744255
735.174061	-3.004000	3.697300	-11.106000	24.368888	0.001023	20.757180
736.176494	-2.994200	3.696600	-11.067000	24.380956	0.001022	20.749846
737.175697	-3.001800	3.694900	-11.090000	24.376482	0.001022	20.755790
738.177491	-2.993500	3.697000	-11.066000	24.373044	0.001022	20.758978
739.174450	-2.995300	3.697000	-11.071000	24.376230	0.001023	20.783038
740.180437	-2.990800	3.695800	-11.053000	24.359190	0.001022	20.763099
741.177073	-2.996000	3.695100	-11.070000	24.351456	0.001022	20.758659
742.177464	-2.981700	3.695900	-11.019000	24.364560	0.001019	20.747623
743.184114	-2.983400	3.694800	-11.022000	24.388502	0.001020	20.763106
744.178044	-3.007300	3.693800	-11.107000	24.385071	0.001021	20.751129
745.179526	-2.989300	3.695900	-11.047000	24.394866	0.001022	20.768069
746.181410	-2.996100	3.692800	-11.063000	24.401165	0.001022	20.776285
747.178927	-3.009800	3.693100	-11.114000	24.396708	0.001022	20.746682
748.183414	-2.989600	3.693000	-11.039000	24.377810	0.001020	20.755699
749.179556	-2.984400	3.693700	-11.023000	24.393015	0.001020	20.790394
750.186553	-2.990200	3.694500	-11.046000	24.436262	0.001019	20.767872
751.179331	-3.003400	3.692600	-11.090000	24.463307	0.001019	20.781255
752.180642	-2.998000	3.692200	-11.068000	24.460055	0.001020	20.778941
753.183907	-2.994700	3.692500	-11.057000	24.461326	0.001017	20.763620
754.181004	-3.017400	3.691600	-11.138000	24.469931	0.001018	20.776521
755.181097	-3.023700	3.690100	-11.156000	24.467120	0.001017	20.787451
756.184038	-3.014700	3.690300	-11.123000	24.503535	0.001019	20.770880
757.183970	-2.992700	3.691400	-11.046000	24.509661	0.001019	20.767544
758.181498	-2.982900	3.691300	-11.010000	24.543092	0.001016	20.779749
759.185066	-3.004500	3.689700	-11.084000	24.546719	0.001016	20.783862
760.180184	-2.997300	3.690200	-11.059000	24.535719	0.001017	20.768084
761.185806	-3.004600	3.690000	-11.087000	24.522316	0.001016	20.801103
762.183669	-2.994700	3.690200	-11.051000	24.479961	0.001018	20.759083
763.180716	-2.998300	3.689700	-11.060000	24.498637	0.001015	20.774501
764.184323	-3.007500	3.688500	-11.092000	24.521028	0.001015	20.784164
765.182972	-3.001200	3.688200	-11.068000	24.527318	0.001017	20.778622
766.189357	-3.024600	3.686800	-11.150000	24.536574	0.001018	20.787908
767.181771	-2.981800	3.689200	-10.999000	24.534113	0.001015	20.784017
768.184166	-3.000800	3.685900	-11.059000	24.542750	0.001015	20.800743
769.184578	-2.986600	3.688900	-11.016000	24.502923	0.001014	20.785439
770.183147	-2.986000	3.685800	-11.005000	24.494066	0.001016	20.777976
771.183450	-2.999700	3.686000	-11.056000	24.494465	0.001016	20.789756
772.184719	-3.001500	3.685800	-11.062000	24.484687	0.001017	20.781843
773.187582	-3.003000	3.687100	-11.071000	24.513866	0.001012	20.782194
774.182866	-3.002400	3.686100	-11.066000	24.529314	0.001014	20.790107
775.184836	-2.990300	3.685300	-11.019000	24.538335	0.001014	20.798684
776.185061	-3.002900	3.685700	-11.066000	24.553741	0.001015	20.782848
777.187708	-2.989800	3.685300	-11.017000	24.547843	0.001013	20.785464
778.184342	-2.986600	3.685600	-11.007000	24.554214	0.001010	20.792805
779.183868	-3.003200	3.684000	-11.063000	24.528621	0.001013	20.802214
780.187555	-2.986900	3.684200	-11.004000	24.525313	0.001011	20.807430
781.185572	-2.984200	3.685000	-10.996000	24.537243	0.001012	20.794269
782.189751	-2.998600	3.685600	-11.051000	24.507828	0.001013	20.803637
783.188731	-2.990700	3.684100	-11.016000	24.484670	0.001011	20.802214
784.189271	-2.981900	3.684100	-10.985000	24.471112	0.001010	20.802836
785.192120	-3.013000	3.680800	-11.090000	24.449526	0.001010	20.797775
786.195543	-2.982800	3.682200	-10.982000	24.451938	0.001010	20.806833
787.191762	-2.966200	3.682600	-10.921000	24.467559	0.001009	20.803064
788.191443	-3.013300	3.681600	-11.093000	24.465896	0.001008	20.804715
789.192140	-3.009500	3.681600	-11.079000	24.531065	0.001009	20.816046
790.193386	-2.979300	3.681600	-10.968000	24.546864	0.001009	20.825259
791.197153	-3.000300	3.682100	-11.046000	24.541910	0.001008	20.798004
792.193123	-3.016200	3.680200	-11.099000	24.552111	0.001007	20.788324
793.199478	-3.005600	3.680600	-11.061000	24.561766	0.001009	20.801330
794.196398	-3.004300	3.680100	-11.055000	24.594975	0.001008	20.809996
795.197480	-3.027600	3.680000	-11.140000	24.605371	0.001009	20.787236
796.196798	-3.003400	3.680500	-11.053000	24.614480	0.001007	20.806333
797.195831	-2.970100	3.680400	-10.931000	24.633756	0.001008	20.797700
798.197812	-2.997300	3.678400	-11.023000	24.619947	0.001007	20.820827
799.196197	-2.988300	3.679700	-10.996000	24.620809	0.001007	20.813158
800.196706	-2.999300	3.679100	-11.034000	24.600987	0.001007	20.805596
801.199962	-3.040100	3.677100	-11.176000	24.619392	0.001005	20.803675
802.198233	-2.986800	3.678800	-10.986000	24.598184	0.001005	20.798042
803.198148	-3.001500	3.678000	-11.037000	24.602958	0.001005	20.803781
804.199833	-3.011300	3.677600	-11.073000	24.628704	0.001005	20.812070
805.199676	-3.018900	3.676600	-11.098000	24.639433	0.001004	20.805292
806.199958	-2.998600	3.676900	-11.024000	24.652713	0.001006	20.774047
807.202410	-3.007300	3.676900	-11.057000	24.657462	0.001004	20.772649
808.200350	-2.993700	3.677200	-11.007000	24.636744	0.001005	20.787896
809.202167	-3.006100	3.675800	-11.049000	24.609719	0.001004	20.795866
810.201528	-3.006000	3.676800	-11.052000	24.602207	0.001005	20.796864
811.200794	-3.016300	3.676700	-11.089000	24.587069	0.001006	20.787364
812.205806	-3.002100	3.676400	-11.035000	24.604130	0.001003	20.774610
813.202165	-2.996400	3.675200	-11.012000	24.622941	0.001003	20.772623
814.208500	-2.987300	3.674100	-10.975000	24.633386	0.001002	20.779785
815.204248	-3.003600	3.675100	-11.038000	24.642568	0.001004	20.795636
816.203127	-3.037400	3.672900	-11.155000	24.596283	0.001002	20.780014
817.211435	-2.996200	3.675200	-11.010000	24.609123	0.001003	20.789104
818.205893	-2.987800	3.674700	-10.978000	24.564482	0.001001	20.765649
819.204686	-3.021400	3.673300	-11.098000	24.576745	0.001001	20.760883
820.205367	-3.024300	3.672700	-11.106000	24.593088	0.001000	20.781075
821.204687	-2.994800	3.675600	-11.007000	24.584289	0.001001	20.764659
822.203907	-3.018400	3.671700	-11.082000	24.605382	0.001000	20.775393
823.208388	-2.999800	3.673500	-11.018000	24.603582	0.001003	20.777380
824.204756	-3.009800	3.672300	-11.051000	24.610776	0.001001	20.768951
825.207679	-3.021000	3.671400	-11.091000	24.636073	0.000999	20.779636
826.206212	-3.012500	3.670100	-11.055000	24.645108	0.000999	20.763571
827.204662	-3.012900	3.672100	-11.062000	24.649589	0.000999	20.769964
828.206993	-3.006700	3.671600	-11.038000	24.677240	0.000999	20.767365
829.208687	-3.012300	3.670300	-11.055000	24.651112	0.000997	20.774812
830.206066	-3.006000	3.670500	-11.032000	24.650762	0.001000	20.766400
831.207888	-2.989800	3.671000	-10.974000	24.617268	0.000999	20.744170
832.209999	-2.991900	3.670300	-10.979000	24.576001	0.000999	20.749231
833.209855	-2.980000	3.671300	-10.939000	24.572954	0.000998	20.749966
834.213461	-3.005900	3.670100	-11.031000	24.559200	0.000998	20.762720
835.210577	-3.010400	3.669400	-11.044000	24.576359	0.000997	20.751961
836.210516	-2.994700	3.669300	-10.986000	24.563600	0.000997	20.748168
837.214014	-3.003800	3.668800	-11.020000	24.610114	0.000997	20.750743
838.212140	-2.997900	3.669200	-10.998000	24.608827	0.000997	20.737597
839.215385	-3.005500	3.670100	-11.029000	24.630833	0.000996	20.749721
840.211278	-2.991200	3.668500	-10.972000	24.641726	0.000996	20.760651
841.212571	-3.025700	3.666800	-11.092000	24.663119	0.000996	20.759834
842.212212	-3.003800	3.667800	-11.016000	24.677898	0.000997	20.756171
843.210392	-2.981000	3.666900	-10.929000	24.671853	0.000995	20.751053
844.212480	-3.000900	3.668700	-11.008000	24.684089	0.000995	20.757168
845.212749	-3.006500	3.666800	-11.022000	24.676537	0.000995	20.752908
846.211895	-3.025300	3.666800	-11.091000	24.620648	0.000994	20.758468
847.211865	-2.992300	3.666200	-10.969000	24.605836	0.000992	20.743130
848.213071	-2.995700	3.666200	-10.982000	24.590601	0.000993	20.748707
849.212301	-3.007700	3.665500	-11.023000	24.602341	0.000993	20.744366
850.214627	-3.003000	3.665300	-11.006000	24.603448	0.000993	20.753538
851.213200	-2.990400	3.665300	-10.959000	24.619556	0.000992	20.725603
852.214715	-2.989500	3.664400	-10.954000	24.626351	0.000992	20.750913
853.212226	-2.987200	3.665000	-10.946000	24.636754	0.000993	20.745231
854.215044	-2.987500	3.665600	-10.949000	24.627670	0.000992	20.747496
855.215206	-3.012300	3.663900	-11.036000	24.637846	0.000992	20.730205
856.214482	-2.983800	3.664500	-10.933000	24.601713	0.000990	20.751796
857.212983	-2.991300	3.664400	-10.960000	24.589524	0.000992	20.741936
858.213338	-3.005400	3.664300	-11.011000	24.567688	0.000993	20.750373
859.213959	-2.982900	3.663500	-10.927000	24.551499	0.000990	20.735551
860.214718	-3.002300	3.662800	-10.996000	24.547148	0.000990	20.737824
861.216639	-2.999200	3.662500	-10.984000	24.565138	0.000990	20.753030
862.215292	-2.998900	3.662700	-10.982000	24.579233	0.000989	20.731136
863.217366	-2.992800	3.662900	-10.961000	24.616272	0.000988	20.728945
864.216556	-3.006900	3.661700	-11.009000	24.636542	0.000987	20.726051
865.216399	-3.011000	3.663000	-11.027000	24.632110	0.000990	20.746735
866.219843	-2.986900	3.660900	-10.933000	24.653602	0.000988	20.739851
867.216506	-2.973000	3.660500	-10.882000	24.652706	0.000987	20.728046
868.218953	-2.989200	3.661500	-10.944000	24.620630	0.000988	20.744699
869.215130	-2.986000	3.659700	-10.927000	24.630553	0.000987	20.731896
870.218240	-3.006800	3.659000	-11.001000	24.647589	0.000988	20.721489
871.216633	-2.994400	3.661300	-10.962000	24.673154	0.000985	20.749040
872.221076	-3.013000	3.658400	-11.022000	24.685945	0.000985	20.729157
873.225968	-2.990200	3.659600	-10.941000	24.685945	0.000984	20.754288
874.218336	-2.984400	3.661400	-10.926000	24.683036	0.000985	20.743783
875.217591	-2.980600	3.659400	-10.906000	24.730605	0.000984	20.727506
876.217324	-2.976700	3.659400	-10.892000	24.714499	0.000986	20.710394
877.223638	-2.978900	3.660400	-10.903000	24.770431	0.000982	20.729541
878.217313	-2.985200	3.657800	-10.918000	24.763890	0.000986	20.731037
879.222232	-2.975000	3.659700	-10.886000	24.777225	0.000984	20.722608
880.217775	-2.998200	3.657400	-10.965000	24.777022	0.000984	20.753225
881.220974	-2.986600	3.656400	-10.919000	24.745593	0.000982	20.716942
882.220850	-2.987400	3.657400	-10.925000	24.729341	0.000982	20.739514
883.218439	-2.995400	3.657300	-10.953000	24.707647	0.000983	20.716320
884.219778	-2.969600	3.658000	-10.861000	24.736957	0.000982	20.735303
885.219959	-2.991400	3.657800	-10.941000	24.714049	0.000983	20.712314
886.219797	-2.994600	3.655100	-10.944000	24.715068	0.000981	20.724716
887.220350	-3.014800	3.653100	-11.012000	24.742603	0.000981	20.731011
888.220935	-3.007800	3.653900	-10.990000	24.765811	0.000981	20.729171
889.221036	-2.973400	3.655700	-10.869000	24.759498	0.000983	20.716671
890.223223	-3.003800	3.654000	-10.975000	24.740231	0.000979	20.737641
891.221793	-2.995700	3.656200	-10.951000	24.744858	0.000981	20.725688
892.223452	-3.007200	3.654700	-10.989000	24.764377	0.000980	20.736267
893.226671	-3.004200	3.654800	-10.978000	24.771912	0.000980	20.714430
894.226238	-2.981500	3.655100	-10.896000	24.798150	0.000978	20.707097
895.226233	-2.998600	3.653600	-10.954000	24.803054	0.000979	20.728140
896.226294	-2.998500	3.651900	-10.948000	24.802459	0.000981	20.708576
897.224911	-3.026000	3.653200	-11.053000	24.771398	0.000978	20.715337
898.232836	-2.972500	3.653200	-10.858000	24.787975	0.000979	20.694039
899.225553	-3.003900	3.653000	-10.971000	24.788423	0.000977	20.730053
900.229868	-2.984100	3.653700	-10.902000	24.788350	0.000978	20.737092
901.225851	-2.988500	3.652500	-10.915000	24.811542	0.000979	20.707734
902.224594	-3.016400	3.651200	-11.013000	24.818734	0.000978	20.711159
903.225761	-2.997000	3.652300	-10.944000	24.828403	0.000976	20.702845
904.226423	-3.019900	3.649600	-11.021000	24.803615	0.000975	20.708314
905.225860	-3.031300	3.650600	-11.065000	24.785792	0.000978	20.717454
906.233795	-2.995800	3.650200	-10.934000	24.815402	0.000976	20.709712
907.226600	-3.006600	3.650700	-10.975000	24.822220	0.000977	20.702329
908.227098	-2.991200	3.649400	-10.915000	24.841689	0.000975	20.711437
909.229337	-2.990300	3.650000	-10.912000	24.859487	0.000976	20.702272
910.227700	-2.986900	3.649000	-10.897000	24.845957	0.000975	20.706712
911.226422	-2.997600	3.649500	-10.939000	24.851634	0.000973	20.698658
912.227966	-2.993300	3.650000	-10.924000	24.867934	0.000973	20.704112
913.226757	-2.991500	3.648100	-10.912000	24.834317	0.000973	20.708780
914.229235	-3.003000	3.648300	-10.954000	24.842104	0.000973	20.706638
915.229648	-2.986800	3.649400	-10.899000	24.849492	0.000973	20.698405
916.228914	-3.011100	3.646800	-10.980000	24.796618	0.000972	20.707930
917.229959	-2.992500	3.647800	-10.914000	24.776033	0.000970	20.715247
918.229728	-3.006800	3.646600	-10.963000	24.812821	0.000972	20.716605
919.227985	-3.024800	3.646900	-11.031000	24.812780	0.000972	20.685267
920.231114	-3.014700	3.646900	-10.992000	24.815566	0.000973	20.691857
921.227255	-2.996800	3.646800	-10.927000	24.828493	0.000970	20.719057
922.229560	-3.011900	3.645500	-10.979000	24.840109	0.000971	20.709377
923.229350	-3.011600	3.645400	-10.977000	24.861369	0.000972	20.713171
924.229018	-3.012300	3.644600	-10.977000	24.862640	0.000969	20.693107
925.230814	-3.006600	3.645700	-10.959000	24.842023	0.000967	20.691382
926.230308	-2.991200	3.645600	-10.903000	24.825618	0.000970	20.689142
927.228908	-2.985100	3.644100	-10.877000	24.837478	0.000969	20.700098
928.228651	-2.992000	3.643800	-10.901000	24.825365	0.000970	20.690311
929.228934	-2.985100	3.644800	-10.879000	24.812242	0.000969	20.697530
930.233663	-3.007100	3.644900	-10.959000	24.809155	0.000966	20.692535
931.232725	-3.013600	3.643900	-10.980000	24.805424	0.000967	20.716768
932.229364	-2.977600	3.644500	-10.851000	24.770290	0.000968	20.691938
933.231729	-2.989500	3.644200	-10.893000	24.752189	0.000967	20.682307
934.231035	-3.009400	3.641800	-10.958000	24.740572	0.000966	20.707636
935.232268	-2.993300	3.643400	-10.905000	24.729240	0.000966	20.703376
936.235420	-2.997800	3.642000	-10.918000	24.756123	0.000964	20.695739
937.232339	-2.972500	3.643600	-10.829000	24.804813	0.000963	20.680115
938.231707	-2.994700	3.641200	-10.904000	24.822416	0.000963	20.708690
939.232085	-3.003700	3.641500	-10.937000	24.846511	0.000964	20.703000
940.229958	-3.026700	3.640200	-11.017000	24.869066	0.000964	20.708567
941.232659	-3.004400	3.640600	-10.937000	24.870760	0.000961	20.714061
942.234157	-3.015700	3.640300	-10.976000	24.879337	0.000963	20.693270
943.231476	-3.001200	3.641200	-10.927000	24.880412	0.000962	20.692452
944.230420	-3.005000	3.640400	-10.939000	24.874278	0.000960	20.687718
945.232000	-2.986900	3.641000	-10.874000	24.826749	0.000961	20.683639
946.231391	-3.002700	3.638400	-10.923000	24.833543	0.000962	20.694725
947.234766	-3.022100	3.638200	-10.993000	24.817202	0.000961	20.701560
948.233214	-3.010600	3.638700	-10.954000	24.833518	0.000961	20.688536
949.235276	-3.002700	3.639400	-10.927000	24.826358	0.000961	20.687988
950.232428	-3.003200	3.638500	-10.926000	24.826830	0.000960	20.687040
951.232988	-2.998700	3.638100	-10.909000	24.807386	0.000960	20.669421
952.232500	-3.017400	3.636600	-10.971000	24.851838	0.000957	20.699337
953.235104	-2.992000	3.639100	-10.887000	24.876681	0.000957	20.676379
954.235475	-3.015300	3.637200	-10.966000	24.870890	0.000957	20.669143
955.234709	-2.977700	3.637500	-10.830000	24.908407	0.000958	20.705853
956.235725	-3.008400	3.636900	-10.940000	24.922922	0.000957	20.672528
957.236536	-3.026800	3.635300	-11.002000	24.918752	0.000955	20.692052
958.237847	-2.990800	3.636800	-10.875000	24.898210	0.000958	20.682813
959.237070	-2.989400	3.635700	-10.866000	24.908302	0.000957	20.682037
960.239451	-2.985100	3.635900	-10.852000	24.918279	0.000954	20.669764
961.238866	-3.002700	3.635300	-10.914000	24.935481	0.000955	20.680867
962.238113	-2.981000	3.635700	-10.837000	24.919868	0.000955	20.662349
963.241410	-3.014800	3.633900	-10.955000	24.927899	0.000954	20.706924
964.239803	-2.988100	3.634900	-10.860000	24.913645	0.000956	20.697358
965.237416	-2.999000	3.633600	-10.896000	24.899651	0.000952	20.689003
966.236382	-2.982000	3.635600	-10.839000	24.858851	0.000955	20.669388
967.239579	-2.989000	3.633700	-10.859000	24.895448	0.000955	20.674351
968.239755	-3.015100	3.633000	-10.953000	24.873717	0.000954	20.679093
969.242939	-2.996900	3.633500	-10.888000	24.865164	0.000952	20.665292
970.240983	-3.005400	3.631900	-10.915000	24.865588	0.000951	20.694170
971.242225	-2.999600	3.633600	-10.898000	24.873920	0.000952	20.663649
972.243091	-2.990200	3.632300	-10.860000	24.897615	0.000952	20.676052
973.241544	-2.994100	3.633000	-10.876000	24.922352	0.000953	20.673853
974.246891	-3.001000	3.631200	-10.896000	24.925260	0.000950	20.661597
975.246536	-3.015300	3.630200	-10.944000	24.905247	0.000950	20.677548
976.245046	-3.024600	3.630500	-10.979000	24.950753	0.000952	20.682919
977.243937	-3.037600	3.629600	-11.024000	24.964494	0.000951	20.676322
978.244976	-3.004000	3.631400	-10.908000	24.970911	0.000947	20.679445
979.245728	-3.004600	3.630800	-10.908000	24.979162	0.000946	20.656430
980.245694	-3.000400	3.630300	-10.892000	24.979537	0.000950	20.668187
981.245964	-3.003700	3.630000	-10.902000	24.956023	0.000948	20.682993
982.246378	-2.989000	3.630500	-10.850000	24.955770	0.000947	20.669462
983.246911	-3.004200	3.629100	-10.901000	24.966383	0.000946	20.676796
984.251088	-2.996400	3.628700	-10.872000	24.972377	0.000947	20.681391
985.253592	-2.988600	3.629200	-10.845000	25.000452	0.000950	20.680172
986.248206	-2.975100	3.630600	-10.801000	25.020210	0.000946	20.670133
987.247825	-2.977900	3.629100	-10.806000	25.038706	0.000946	20.673526
988.248055	-2.995100	3.628000	-10.865000	25.039154	0.000945	20.660698
989.248649	-2.998900	3.627300	-10.877000	25.033982	0.000947	20.655506
990.253733	-3.023900	3.625900	-10.963000	25.033730	0.000946	20.683231
991.248543	-3.002700	3.627000	-10.889000	25.035261	0.000946	20.656316
992.255057	-3.001000	3.626200	-10.881000	24.988081	0.000944	20.665383
993.251170	-2.988500	3.627200	-10.839000	24.949589	0.000945	20.674164
994.249337	-2.991100	3.627900	-10.851000	24.921049	0.000944	20.678710
995.252882	-3.014100	3.626100	-10.928000	24.887532	0.000946	20.650756
996.250273	-3.007400	3.625700	-10.902000	24.892777	0.000942	20.648434
997.250170	-3.023800	3.625000	-10.960000	24.874768	0.000941	20.660707
998.249807	-3.010900	3.623800	-10.910000	24.895213	0.000942	20.653250
999.249511	-3.008000	3.623800	-10.900000	24.923436	0.000943	20.664982
1000.251348	-3.006700	3.623600	-10.894000	24.936663	0.000941	20.670198
1001.254600	-2.998200	3.624800	-10.866000	24.965927	0.000942	20.657370
1002.251950	-3.012800	3.624400	-10.918000	24.931882	0.000943	20.656864
1003.254469	-3.005800	3.623500	-10.890000	24.920520	0.000942	20.653520
1004.251361	-3.012400	3.623500	-10.915000	24.911446	0.000942	20.663854
1005.252091	-2.999900	3.624800	-10.872000	24.932330	0.000939	20.669643
1006.253880	-2.989900	3.624600	-10.836000	24.947496	0.000940	20.650249
1007.251140	-3.023100	3.622400	-10.949000	24.961342	0.000940	20.659881
1008.250076	-2.999800	3.623100	-10.867000	24.989221	0.000938	20.656095
1009.250735	-3.002100	3.622800	-10.875000	25.000404	0.000939	20.673486
1010.250887	-3.009600	3.622500	-10.901000	25.011537	0.000936	20.657158
1011.250988	-3.001700	3.622700	-10.872000	24.971507	0.000937	20.653013
1012.254203	-2.982600	3.622300	-10.802000	24.936998	0.000939	20.657731
1013.250437	-3.004100	3.621500	-10.878000	24.962010	0.000935	20.644902
1014.253268	-3.005100	3.621700	-10.882000	24.985035	0.000937	20.665645
1015.252647	-3.003300	3.621800	-10.875000	24.977795	0.000934	20.647944
1016.253232	-3.000800	3.621600	-10.866000	24.982494	0.000934	20.656455
1017.253788	-3.002700	3.618200	-10.862000	24.991600	0.000936	20.648050
1018.251810	-2.997500	3.621100	-10.854000	25.019462	0.000934	20.654681
1019.254376	-3.004300	3.618300	-10.869000	25.032192	0.000937	20.652760
1020.252231	-3.011400	3.619300	-10.898000	25.053325	0.000935	20.642204
1021.252052	-2.992100	3.619800	-10.829000	25.040238	0.000934	20.650880
1022.254232	-2.999200	3.619200	-10.853000	25.032248	0.000932	20.668940
1023.255045	-2.992000	3.619500	-10.827000	25.023917	0.000933	20.629278
1024.253782	-3.006500	3.619100	-10.879000	25.028396	0.000931	20.649424
1025.257131	-2.994300	3.617100	-10.830000	25.042787	0.000929	20.619295
1026.257872	-3.003800	3.617700	-10.865000	25.050320	0.000933	20.659104
1027.255156	-2.973500	3.618200	-10.757000	25.049229	0.000932	20.648050
1028.254510	-3.007500	3.617200	-10.878000	25.071723	0.000931	20.673478
1029.253310	-2.992000	3.616500	-10.819000	25.086821	0.000932	20.654018
1030.258766	-2.988100	3.617200	-10.808000	25.090690	0.000932	20.640357
1031.256119	-3.008700	3.615500	-10.875000	25.098573	0.000930	20.671981
1032.254518	-3.010700	3.614600	-10.882000	25.081618	0.000927	20.669185
1033.259123	-2.993000	3.615800	-10.821000	25.078515	0.000928	20.655638
1034.263827	-3.005800	3.614500	-10.863000	25.062365	0.000925	20.658867
1035.255822	-2.988900	3.613300	-10.798000	25.070786	0.000928	20.641713
1036.255659	-2.999400	3.614300	-10.840000	25.076951	0.000925	20.651697
1037.257967	-2.979600	3.614400	-10.769000	25.095608	0.000926	20.662840
1038.255416	-2.991500	3.614200	-10.811000	25.100218	0.000926	20.655613
1039.259751	-3.010100	3.612600	-10.873000	25.084582	0.000926	20.651770
1040.256246	-2.988600	3.612900	-10.797000	25.034138	0.000927	20.658033
1041.255655	-2.975100	3.614500	-10.750000	25.042127	0.000925	20.667950
1042.256380	-2.967700	3.613200	-10.722000	25.037330	0.000924	20.682577
1043.255993	-2.992200	3.611700	-10.806000	25.015552	0.000924	20.665931
1044.260428	-3.005500	3.611100	-10.852000	25.007123	0.000925	20.652252
1045.257524	-2.988000	3.612600	-10.794000	25.008572	0.000924	20.643274
1046.258626	-2.991300	3.611000	-10.800000	25.013141	0.000922	20.647387
1047.261587	-2.990400	3.611900	-10.800000	25.027931	0.000922	20.649431
1048.259256	-2.973900	3.611600	-10.738000	25.019559	0.000922	20.674695
1049.259871	-3.004600	3.611000	-10.849000	24.989652	0.000921	20.676445
1050.258304	-2.988700	3.610100	-10.789000	24.978144	0.000922	20.654459
1051.259295	-2.978800	3.609900	-10.752000	24.960788	0.000919	20.651737
1052.260014	-2.995500	3.609500	-10.812000	24.970040	0.000921	20.648695
1053.269593	-2.975000	3.609800	-10.739000	24.997316	0.000923	20.654737
1054.258605	-3.006100	3.608500	-10.846000	25.012807	0.000920	20.650845
1055.261222	-3.001900	3.609100	-10.833000	25.025715	0.000919	20.659536
1056.260085	-3.020200	3.605400	-10.887000	25.078163	0.000919	20.663346
1057.262391	-3.004500	3.608000	-10.838000	25.082317	0.000918	20.658980
1058.259281	-3.036600	3.605900	-10.948000	25.031506	0.000918	20.660133
1059.259185	-3.000300	3.606900	-10.821000	25.031163	0.000918	20.658841
1060.264317	-3.009900	3.606300	-10.854000	25.083514	0.000918	20.666347
1061.260518	-3.015600	3.605200	-10.871000	25.086397	0.000919	20.662978
1062.271870	-3.019900	3.605200	-10.886000	25.065548	0.000916	20.654949
1063.260557	-2.986900	3.605600	-10.769000	25.076779	0.000917	20.655317
1064.260736	-3.019400	3.605300	-10.884000	25.060792	0.000915	20.660133
1065.262923	-2.995700	3.603600	-10.794000	25.057828	0.000918	20.670909
1066.261250	-2.997400	3.605900	-10.806000	25.056663	0.000915	20.667369
1067.259905	-2.984300	3.606300	-10.760000	25.050075	0.000915	20.656961
1068.263402	-2.992400	3.604800	-10.786000	25.021936	0.000915	20.655268
1069.262633	-3.002500	3.603800	-10.820000	24.999784	0.000913	20.657688
1070.266799	-3.003900	3.603700	-10.824000	24.975041	0.000914	20.659406
1071.263592	-3.026300	3.603400	-10.904000	24.985409	0.000914	20.656536
1072.269205	-2.985000	3.603200	-10.754000	24.949010	0.000915	20.666944
1073.262367	-2.998900	3.602100	-10.801000	24.948310	0.000912	20.666715
1074.261914	-2.992700	3.602300	-10.780000	24.937469	0.000913	20.668162
1075.267255	-2.972300	3.603800	-10.710000	24.967800	0.000913	20.670631
1076.262947	-3.006300	3.601100	-10.824000	24.977142	0.000912	20.661990
1077.264790	-3.003600	3.601100	-10.815000	25.007098	0.000910	20.681154
1078.271635	-2.999500	3.601300	-10.802000	25.032036	0.000910	20.668253
1079.268807	-2.991400	3.600900	-10.771000	25.051305	0.000910	20.662938
1080.266042	-3.008300	3.600600	-10.831000	25.045181	0.000908	20.651574
1081.268531	-3.022100	3.600300	-10.878000	25.030122	0.000909	20.663960
1082.264514	-3.001900	3.600400	-10.806000	25.026441	0.000908	20.680181
1083.266689	-3.009600	3.599500	-10.831000	24.977142	0.000906	20.677164
1084.269625	-2.993000	3.599300	-10.771000	25.013386	0.000909	20.668024
1085.266978	-2.983900	3.602100	-10.747000	25.000159	0.000908	20.674188
1086.270922	-3.017000	3.598700	-10.855000	25.027899	0.000906	20.692078
1087.268100	-2.992900	3.599600	-10.771000	25.000949	0.000907	20.680672
1088.267699	-2.998600	3.599200	-10.791000	25.023648	0.000906	20.667893
1089.270162	-2.996800	3.598100	-10.782000	25.040083	0.000905	20.683918
1090.266726	-2.988600	3.598100	-10.752000	25.017654	0.000907	20.671834
1091.274225	-3.000200	3.597000	-10.791000	25.036923	0.000904	20.699714
1092.269634	-3.001200	3.598300	-10.798000	25.061388	0.000904	20.676380
1093.269846	-3.019100	3.595800	-10.852000	25.075159	0.000904	20.680247
1094.271613	-2.995700	3.596700	-10.774000	25.112474	0.000903	20.683092
1095.269144	-2.988500	3.597200	-10.749000	25.137434	0.000902	20.680648
1096.271509	-2.993200	3.597100	-10.766000	25.148924	0.000903	20.672267
1097.269938	-3.000200	3.595600	-10.787000	25.168053	0.000899	20.688628
1098.269962	-3.015000	3.594400	-10.837000	25.138623	0.000902	20.669986
1099.269963	-3.005900	3.594300	-10.803000	25.134876	0.000900	20.706058
1100.270945	-3.007000	3.594100	-10.807000	25.112222	0.000899	20.700384
1101.272449	-3.008200	3.595100	-10.813000	25.093360	0.000898	20.692830
1102.274594	-2.985200	3.595500	-10.732000	25.078767	0.000899	20.695250
1103.271697	-3.005500	3.593700	-10.800000	25.110308	0.000899	20.688979
1104.274503	-2.989100	3.593800	-10.741000	25.108948	0.000897	20.680026
1105.271758	-3.027600	3.592900	-10.877000	25.141709	0.000898	20.691105
1106.272635	-2.991200	3.592700	-10.746000	25.165471	0.000897	20.695045
1107.277574	-2.991500	3.592100	-10.745000	25.201594	0.000896	20.700964
1108.275660	-3.008700	3.591400	-10.803000	25.217774	0.000896	20.678800
1109.276563	-3.008600	3.592200	-10.806000	25.239230	0.000895	20.706982
1110.274453	-3.029100	3.589900	-10.873000	25.271523	0.000897	20.694832
1111.274727	-2.990500	3.592000	-10.740000	25.309670	0.000896	20.700417
1112.277674	-3.001100	3.589900	-10.773000	25.318715	0.000894	20.690058
1113.274704	-2.996000	3.590900	-10.757000	25.349313	0.000895	20.706082
1114.278293	-3.002200	3.591000	-10.780000	25.363854	0.000895	20.707881
1115.275032	-3.013800	3.590400	-10.819000	25.354483	0.000895	20.679977
1116.276386	-3.012700	3.589200	-10.812000	25.333330	0.000893	20.686240
1117.275031	-2.992900	3.590200	-10.744000	25.291577	0.000894	20.684147
1118.283061	-3.015900	3.587600	-10.819000	25.289681	0.000893	20.689829
1119.275252	-2.990100	3.589500	-10.732000	25.280789	0.000894	20.697498
1120.277014	-3.001900	3.589100	-10.773000	25.284095	0.000893	20.712672
1121.275791	-3.007000	3.587200	-10.785000	25.295877	0.000892	20.694628
1122.276098	-2.990400	3.588300	-10.729000	25.279624	0.000893	20.714348
1123.277983	-3.003400	3.586100	-10.767000	25.260580	0.000889	20.698070
1124.275315	-2.987000	3.585500	-10.708000	25.252649	0.000890	20.707652
1125.277905	-2.993300	3.586500	-10.733000	25.271572	0.000889	20.701046
1126.276763	-2.989200	3.587500	-10.723000	25.307813	0.000889	20.701872
1127.279211	-3.023900	3.586100	-10.843000	25.327118	0.000890	20.699444
1128.276490	-3.006600	3.585800	-10.781000	25.347082	0.000890	20.721861
1129.278621	-3.018500	3.584500	-10.817000	25.324659	0.000889	20.718313
1130.277826	-2.963600	3.587600	-10.630000	25.309685	0.000887	20.704700
1131.279555	-3.021000	3.584700	-10.828000	25.278338	0.000885	20.715901
1132.278345	-3.002700	3.586900	-10.769000	25.278492	0.000886	20.711314
1133.280015	-2.981300	3.585300	-10.687000	25.304556	0.000886	20.709034
1134.281093	-3.011800	3.583500	-10.792000	25.315458	0.000887	20.701961
1135.279084	-2.975600	3.584700	-10.666000	25.307137	0.000885	20.721583
1136.283364	-2.986700	3.584300	-10.704000	25.317290	0.000884	20.702378
1137.282546	-2.999400	3.583500	-10.747000	25.308447	0.000883	20.711992
1138.282419	-3.020100	3.582000	-10.817000	25.306477	0.000884	20.713808
1139.283701	-2.990400	3.583600	-10.715000	25.328135	0.000882	20.697145
1140.282866	-2.993600	3.582600	-10.724000	25.326612	0.000884	20.706997
1141.283104	-2.988800	3.583700	-10.710000	25.323168	0.000883	20.734361
1142.281065	-3.001200	3.581800	-10.749000	25.342668	0.000880	20.718378
1143.285862	-2.979700	3.582700	-10.675000	25.311012	0.000882	20.708403
1144.282218	-3.016600	3.581900	-10.804000	25.267402	0.000881	20.731475
1145.285873	-2.981700	3.581400	-10.678000	25.255107	0.000880	20.720078
1146.285198	-2.993800	3.581100	-10.719000	25.295273	0.000880	20.719154
1147.285572	-3.011700	3.581000	-10.783000	25.302479	0.000879	20.735399
1148.281155	-3.001400	3.580800	-10.746000	25.342921	0.000880	20.721476
1149.284722	-3.004400	3.579200	-10.751000	25.342693	0.000879	20.727412
1150.284775	-3.021200	3.578800	-10.811000	25.359945	0.000878	20.712491
1151.283846	-2.996300	3.579600	-10.725000	25.379526	0.000877	20.721722
1152.282640	-2.993700	3.578200	-10.711000	25.393668	0.000876	20.731181
1153.283220	-2.984600	3.579000	-10.681000	25.379233	0.000876	20.740394
1154.284597	-3.006000	3.578400	-10.755000	25.342318	0.000874	20.726087
1155.285061	-2.993400	3.577400	-10.707000	25.311476	0.000874	20.720724
1156.286796	-2.991600	3.577600	-10.702000	25.293808	0.000874	20.719105
1157.284244	-2.985700	3.576800	-10.678000	25.274340	0.000874	20.728009
1158.285041	-2.998800	3.577500	-10.728000	25.262753	0.000874	20.723962
1159.286005	-2.979300	3.576800	-10.654000	25.267557	0.000872	20.736372
1160.285977	-3.002400	3.576200	-10.736000	25.319634	0.000873	20.724174
1161.288937	-2.992900	3.574600	-10.698000	25.307194	0.000872	20.722114
1162.285305	-2.993900	3.576100	-10.704000	25.334274	0.000873	20.737925
1163.288516	-2.999700	3.574700	-10.722000	25.358920	0.000873	20.732800
1164.286921	-3.004100	3.575100	-10.739000	25.364016	0.000873	20.726063
1165.286843	-2.992800	3.574400	-10.696000	25.365237	0.000871	20.717331
1166.293348	-3.006100	3.574500	-10.744000	25.366458	0.000870	20.727093
1167.290440	-3.002100	3.574300	-10.730000	25.374731	0.000869	20.733503
1168.290207	-2.994000	3.573800	-10.699000	25.392675	0.000871	20.727812
1169.290752	-3.012800	3.573700	-10.765000	25.393717	0.000869	20.729807
1170.294108	-2.978400	3.575400	-10.648000	25.397600	0.000869	20.738449
1171.299751	-2.996800	3.572700	-10.706000	25.388107	0.000867	20.709948
1172.291435	-3.031000	3.571800	-10.825000	25.397079	0.000867	20.741719
1173.293359	-3.001300	3.572800	-10.720000	25.380747	0.000867	20.739070
1174.293939	-2.994800	3.572000	-10.696000	25.370627	0.000866	20.735547
1175.291635	-3.016300	3.571600	-10.771000	25.345436	0.000867	20.743444
1176.294304	-3.036900	3.570400	-10.841000	25.340217	0.000865	20.727771
1177.295471	-3.020100	3.570700	-10.783000	25.309815	0.000866	20.761732
1178.293639	-2.976900	3.571500	-10.630000	25.294801	0.000865	20.744286
1179.294345	-3.008900	3.570300	-10.742000	25.335813	0.000864	20.751325
1180.293795	-3.032300	3.568400	-10.819000	25.317770	0.000863	20.728940
1181.292537	-3.023000	3.569100	-10.788000	25.352194	0.000862	20.742168
1182.296358	-3.017500	3.567900	-10.765000	25.342864	0.000862	20.752241
1183.293118	-3.015800	3.568700	-10.761000	25.328029	0.000861	20.754890
1184.293502	-3.002500	3.569200	-10.715000	25.371327	0.000862	20.733404
1185.293822	-3.012400	3.568600	-10.749000	25.392308	0.000861	20.736928
1186.295773	-3.011300	3.566900	-10.739000	25.388075	0.000862	20.749747
1187.298100	-3.015900	3.568400	-10.759000	25.390509	0.000861	20.736070
1188.294930	-3.016600	3.567000	-10.759000	25.398732	0.000859	20.722041
1189.295154	-3.007400	3.567600	-10.728000	25.384843	0.000859	20.740812
1190.295364	-3.010800	3.568000	-10.742000	25.384843	0.000858	20.745553
1191.297925	-3.001300	3.566100	-10.702000	25.383825	0.000857	20.734574
1192.295012	-2.996400	3.566000	-10.683000	25.359091	0.000858	20.763793
1193.296380	-3.021700	3.564600	-10.770000	25.357307	0.000857	20.745406
1194.308556	-3.000900	3.565500	-10.699000	25.362453	0.000857	20.770488
1195.296010	-2.996900	3.566700	-10.688000	25.387822	0.000857	20.742381
1196.293424	-3.000700	3.563900	-10.693000	25.367811	0.000854	20.756427
1197.296191	-2.988200	3.565100	-10.652000	25.381977	0.000856	20.754056
1198.301714	-2.982100	3.565500	-10.631000	25.398879	0.000854	20.761070
1199.296265	-2.987600	3.563300	-10.645000	25.424378	0.000854	20.764864
1200.303442	-2.993400	3.562900	-10.665000	25.418809	0.000851	20.754530
1201.296503	-3.008000	3.562700	-10.716000	25.431208	0.000853	20.784051
1202.297120	-2.969500	3.564500	-10.583000	25.462160	0.000854	20.753492
1203.299261	-2.998200	3.562000	-10.677000	25.469088	0.000852	20.749543
1204.304430	-2.987300	3.561600	-10.637000	25.460239	0.000852	20.770529
1205.306618	-2.988000	3.562800	-10.645000	25.460093	0.000850	20.786029
1206.297854	-2.982600	3.562600	-10.625000	25.470204	0.000850	20.772949
1207.298266	-3.017800	3.560400	-10.745000	25.447091	0.000850	20.763016
1208.298531	-2.989600	3.561900	-10.647000	25.450568	0.000850	20.775516
1209.303431	-2.998700	3.560700	-10.676000	25.442386	0.000848	20.787689
1210.298390	-2.992100	3.561000	-10.654000	25.394132	0.000846	20.760572
1211.299268	-3.003400	3.560300	-10.692000	25.390078	0.000848	20.754130
1212.299624	-3.009600	3.560100	-10.714000	25.357112	0.000847	20.774608
1213.300276	-2.997600	3.558900	-10.667000	25.378818	0.000848	20.776963
1214.300863	-2.994900	3.559900	-10.660000	25.365531	0.000847	20.782587
1215.300143	-2.987000	3.559500	-10.631000	25.387171	0.000846	20.767807
1216.303544	-2.993800	3.559000	-10.653000	25.410757	0.000847	20.759247
1217.307482	-3.016800	3.557600	-10.732000	25.465604	0.000844	20.791564
1218.301326	-3.013300	3.557000	-10.718000	25.488577	0.000843	20.777175
1219.307065	-2.993600	3.557200	-10.647000	25.488569	0.000845	20.780487
1220.300831	-3.027900	3.557100	-10.769000	25.504924	0.000843	20.772254
1221.303631	-2.993700	3.557600	-10.649000	25.504729	0.000842	20.760204
1222.301692	-3.023200	3.556400	-10.750000	25.541174	0.000841	20.778786
1223.302648	-3.000700	3.556600	-10.671000	25.524299	0.000841	20.764210
1224.301674	-2.984700	3.556400	-10.614000	25.536534	0.000844	20.774600
1225.304512	-2.997700	3.556800	-10.660000	25.543673	0.000842	20.792201
1226.301362	-3.004100	3.554700	-10.678000	25.523061	0.000840	20.755855
1227.302297	-3.014900	3.555700	-10.719000	25.501049	0.000841	20.781639
1228.300809	-3.017000	3.555000	-10.723000	25.513895	0.000842	20.796910
1229.302003	-3.004800	3.555300	-10.682000	25.461631	0.000840	20.787574
1230.307170	-2.995300	3.553600	-10.643000	25.448866	0.000842	20.774281
1231.302601	-2.993900	3.555200	-10.643000	25.419859	0.000840	20.774551
1232.303568	-2.974500	3.554100	-10.571000	25.404252	0.000838	20.794441
1233.301887	-2.976200	3.553500	-10.574000	25.415308	0.000838	20.791319
1234.302109	-2.984200	3.555100	-10.608000	25.420103	0.000837	20.769107
1235.304703	-2.984500	3.554100	-10.606000	25.436679	0.000836	20.773897
1236.302962	-2.993200	3.552800	-10.633000	25.451390	0.000836	20.800524
1237.304708	-2.976000	3.552000	-10.569000	25.470595	0.000835	20.787567
1238.303555	-3.006200	3.551200	-10.674000	25.439634	0.000835	20.795357
1239.304404	-3.006500	3.551000	-10.675000	25.426592	0.000836	20.797908
1240.304149	-2.991400	3.552700	-10.626000	25.381000	0.000836	20.796698
1241.307267	-2.995200	3.549800	-10.631000	25.400841	0.000834	20.787223
1242.306595	-3.001400	3.550700	-10.656000	25.373714	0.000835	20.796494
1243.308176	-3.004200	3.550200	-10.664000	25.417091	0.000833	20.804015
1244.306267	-2.960700	3.551200	-10.513000	25.410725	0.000832	20.800941
1245.305664	-3.005600	3.549800	-10.667000	25.404806	0.000832	20.804007
1246.309880	-2.987400	3.549100	-10.601000	25.379633	0.000832	20.794377
1247.305132	-3.016600	3.548700	-10.704000	25.374504	0.000830	20.798236
1248.309204	-3.020400	3.548500	-10.717000	25.379177	0.000829	20.801032
1249.307995	-3.004800	3.549400	-10.665000	25.388100	0.000829	20.811414
1250.307187	-2.976800	3.548500	-10.562000	25.420902	0.000831	20.804522
1251.314251	-3.009100	3.546800	-10.672000	25.432756	0.000831	20.809313
1252.311071	-2.989100	3.547500	-10.603000	25.482978	0.000829	20.812804
1253.309564	-2.968900	3.548300	-10.533000	25.500546	0.000828	20.802945
1254.307774	-3.008200	3.546000	-10.666000	25.507848	0.000826	20.803640
1255.311067	-2.993100	3.547400	-10.617000	25.503102	0.000829	20.800296
1256.307123	-3.026600	3.545100	-10.728000	25.507393	0.000827	20.805079
1257.308074	-3.000800	3.546300	-10.640000	25.472761	0.000825	20.809657
1258.307156	-2.999700	3.546100	-10.636000	25.469798	0.000826	20.813793
1259.309855	-3.012100	3.544400	-10.675000	25.447077	0.000825	20.810417
1260.308183	-2.996400	3.545600	-10.623000	25.493008	0.000825	20.795375
1261.313443	-3.004000	3.544700	-10.648000	25.499806	0.000824	20.824013
1262.310468	-3.026800	3.542300	-10.719000	25.517675	0.000823	20.802602
1263.310420	-2.968400	3.546200	-10.526000	25.515037	0.000822	20.818920
1264.309442	-2.996800	3.543500	-10.619000	25.519832	0.000823	20.780113
1265.312404	-3.010600	3.543300	-10.666000	25.565158	0.000820	20.794338
1266.309645	-2.997300	3.543300	-10.619000	25.532800	0.000821	20.803567
1267.310194	-2.981600	3.543100	-10.563000	25.507084	0.000821	20.803821
1268.312779	-2.974700	3.542800	-10.538000	25.484664	0.000820	20.800747
1269.311783	-2.988000	3.542300	-10.583000	25.453183	0.000819	20.803273
1270.311211	-2.993400	3.541600	-10.600000	25.474700	0.000818	20.800698
1271.314057	-3.020600	3.540200	-10.693000	25.489785	0.000818	20.804941
1272.311379	-3.001000	3.540300	-10.624000	25.499375	0.000817	20.812200
1273.313742	-2.978800	3.540400	-10.546000	25.535080	0.000816	20.783097
1274.312344	-2.997400	3.541100	-10.614000	25.532450	0.000817	20.798475
1275.315186	-3.021700	3.539400	-10.694000	25.528893	0.000817	20.788738
1276.314634	-3.005700	3.540100	-10.639000	25.540623	0.000818	20.788190
1277.313899	-2.996500	3.539000	-10.602000	25.553591	0.000816	20.795998
1278.316800	-3.001300	3.538400	-10.618000	25.569741	0.000814	20.791829
1279.315763	-2.996600	3.537500	-10.598000	25.556277	0.000816	20.774988
1280.315814	-2.998900	3.537700	-10.608000	25.492537	0.000815	20.784945
1281.315383	-2.988500	3.537400	-10.571000	25.469572	0.000814	20.793652
1282.313968	-3.012400	3.536400	-10.652000	25.460901	0.000816	20.796799
1283.316779	-2.969200	3.537200	-10.501000	25.483135	0.000813	20.766494
1284.316219	-2.980800	3.537200	-10.543000	25.510243	0.000811	20.800356
1285.315799	-2.995200	3.537800	-10.595000	25.507890	0.000812	20.788984
1286.320943	-2.995400	3.536700	-10.592000	25.529984	0.000810	20.768971
1287.318584	-3.012200	3.536000	-10.649000	25.531043	0.000812	20.784733
1288.316057	-2.991100	3.536600	-10.577000	25.537156	0.000809	20.774751
1289.322506	-3.011000	3.534400	-10.641000	25.559493	0.000810	20.785330
1290.316747	-2.978200	3.535700	-10.529000	25.567747	0.000811	20.778920
1291.316388	-3.026100	3.534400	-10.694000	25.591654	0.000809	20.801508
1292.321432	-2.993800	3.535000	-10.582000	25.607462	0.000807	20.769494
1293.318808	-3.009200	3.533200	-10.631000	25.619411	0.000807	20.784340
1294.317424	-3.022900	3.531800	-10.674000	25.630140	0.000807	20.774727
1295.322871	-3.004000	3.533500	-10.613000	25.626087	0.000807	20.752163
1296.319135	-2.982200	3.534900	-10.540000	25.597288	0.000806	20.761646
1297.319382	-2.997200	3.532700	-10.586000	25.587430	0.000806	20.770712
1298.320008	-2.985300	3.532800	-10.545000	25.595375	0.000805	20.766838
1299.323664	-3.018800	3.531800	-10.661000	25.565956	0.000805	20.773803
1300.324796	-2.981200	3.532900	-10.530000	25.553502	0.000802	20.777416
1301.318864	-2.986200	3.531900	-10.546000	25.560657	0.000804	20.786499
1302.319180	-3.016600	3.531100	-10.651000	25.581586	0.000803	20.768636
1303.318129	-3.018200	3.530800	-10.655000	25.580161	0.000803	20.770525
1304.325561	-3.015400	3.531300	-10.647000	25.604467	0.000801	20.779763
1305.323008	-2.987400	3.531200	-10.548000	25.614406	0.000804	20.766985
1306.321705	-2.996400	3.530900	-10.579000	25.626754	0.000802	20.760420
1307.321734	-3.007800	3.530800	-10.619000	25.649652	0.000800	20.760184
1308.319852	-3.001200	3.530200	-10.593000	25.647795	0.000799	20.757371
1309.319587	-3.019800	3.529400	-10.657000	25.672474	0.000800	20.770778
1310.324646	-2.968300	3.530700	-10.479000	25.666809	0.000801	20.760821
1311.321417	-2.986200	3.527600	-10.533000	25.653111	0.000798	20.756071
1312.322251	-3.013200	3.527400	-10.627000	25.663301	0.000797	20.777686
1313.322996	-3.002000	3.528400	-10.591000	25.665710	0.000797	20.752605
1314.323495	-3.004500	3.527800	-10.597000	25.644092	0.000798	20.737055
1315.322412	-3.004900	3.527400	-10.599000	25.606649	0.000795	20.771997
1316.331737	-2.978700	3.526600	-10.503000	25.571362	0.000797	20.752204
1317.325422	-2.983400	3.527200	-10.522000	25.544353	0.000796	20.759219
1318.323695	-2.988600	3.525200	-10.534000	25.517440	0.000795	20.772021
1319.327026	-3.020800	3.523700	-10.642000	25.515006	0.000793	20.752981
1320.325601	-2.996100	3.525700	-10.562000	25.549644	0.000797	20.766429
1321.326668	-2.990000	3.524600	-10.537000	25.568872	0.000793	20.756815
1322.324875	-2.995800	3.525500	-10.560000	25.613381	0.000794	20.760265
1323.326704	-2.991900	3.523700	-10.542000	25.622872	0.000791	20.750357
1324.326947	-2.997500	3.522000	-10.556000	25.651198	0.000793	20.764582
1325.326758	-2.999900	3.523200	-10.567000	25.643116	0.000793	20.744610
1326.326882	-2.965600	3.523700	-10.449000	25.638761	0.000791	20.758729
1327.328511	-2.989300	3.523100	-10.529000	25.631639	0.000792	20.762481
1328.326792	-3.008900	3.521500	-10.595000	25.615506	0.000790	20.760029
1329.327620	-2.983400	3.523000	-10.510000	25.617174	0.000791	20.742738
1330.327942	-3.032400	3.521700	-10.678000	25.623857	0.000790	20.769365
1331.328842	-2.986300	3.521600	-10.514000	25.630882	0.000791	20.765040
1332.329596	-2.998800	3.521200	-10.558000	25.639730	0.000788	20.756857
1333.329459	-2.969000	3.520800	-10.452000	25.653274	0.000789	20.751019
1334.330910	-3.006000	3.519900	-10.578000	25.639600	0.000787	20.742501
1335.331010	-2.966600	3.521300	-10.446000	25.648749	0.000788	20.751690
1336.334032	-3.011000	3.520600	-10.599000	25.633340	0.000787	20.740007
1337.337351	-2.979000	3.520700	-10.487000	25.653828	0.000787	20.750628
1338.332128	-2.983100	3.520100	-10.500000	25.655871	0.000785	20.746041
1339.335298	-3.009600	3.519800	-10.592000	25.672460	0.000786	20.746581
1340.333489	-2.982700	3.519400	-10.496000	25.641742	0.000784	20.747497
1341.334196	-3.009200	3.518500	-10.587000	25.643109	0.000786	20.748871
1342.334580	-2.994300	3.517500	-10.531000	25.628547	0.000784	20.722390
1343.336353	-2.985300	3.517700	-10.499000	25.626977	0.000784	20.746419
1344.336020	-2.995900	3.517700	-10.537000	25.590103	0.000783	20.744473
1345.335207	-3.008400	3.515400	-10.574000	25.618862	0.000784	20.756761
1346.335640	-2.993100	3.516500	-10.523000	25.609973	0.000784	20.739298
1347.335973	-2.998300	3.517100	-10.544000	25.656752	0.000781	20.710889
1348.338466	-3.003000	3.515500	-10.556000	25.644185	0.000782	20.755167
1349.334913	-2.994900	3.516300	-10.530000	25.629322	0.000782	20.739290
1350.335918	-2.984200	3.515800	-10.490000	25.586824	0.000781	20.739757
1351.336199	-3.006600	3.513900	-10.563000	25.579197	0.000781	20.743951
1352.337339	-2.995600	3.515000	-10.529000	25.598473	0.000779	20.743869
1353.337328	-3.017300	3.513800	-10.600000	25.602812	0.000782	20.731631
1354.336669	-3.006200	3.512200	-10.557000	25.595111	0.000777	20.749029
1355.336333	-3.020700	3.512700	-10.610000	25.561712	0.000777	20.726865
1356.336404	-2.991200	3.514100	-10.510000	25.575852	0.000778	20.730160
1357.337378	-3.003800	3.512200	-10.548000	25.572914	0.000774	20.697809
1358.339890	-3.028600	3.511400	-10.634000	25.579019	0.000775	20.741876
1359.338269	-2.992000	3.511400	-10.505000	25.604058	0.000776	20.747583
1360.338578	-3.013800	3.510400	-10.578000	25.627363	0.000773	20.738745
1361.341290	-3.009900	3.510400	-10.565000	25.633784	0.000775	20.742350
1362.338699	-3.004700	3.510500	-10.546000	25.654150	0.000774	20.760435
1363.339623	-2.988800	3.511000	-10.491000	25.658619	0.000772	20.747853
1364.343008	-2.980100	3.509300	-10.457000	25.663430	0.000775	20.736089
1365.343265	-2.979900	3.509800	-10.456000	25.670568	0.000774	20.728559
1366.341584	-3.004200	3.509300	-10.542000	25.673556	0.000772	20.738673
1367.339922	-2.992300	3.510700	-10.504000	25.639980	0.000771	20.737192
1368.343536	-3.005700	3.507000	-10.540000	25.623994	0.000773	20.749113
1369.344701	-2.999200	3.507800	-10.519000	25.596790	0.000770	20.729377
1370.342289	-2.985500	3.510100	-10.477000	25.580038	0.000771	20.722984
1371.343583	-2.997600	3.506800	-10.510000	25.604312	0.000770	20.721758
1372.341216	-3.025600	3.506600	-10.607000	25.579436	0.000770	20.738027
1373.342881	-3.004100	3.508300	-10.538000	25.607365	0.000769	20.735730
1374.343740	-3.018100	3.505400	-10.578000	25.574414	0.000769	20.736302
1375.344331	-2.998300	3.506800	-10.514000	25.529113	0.000768	20.714989
1376.346868	-3.012100	3.506700	-10.561000	25.529837	0.000767	20.730890
1377.342107	-3.023900	3.505100	-10.598000	25.489460	0.000769	20.723058
1378.344703	-3.002000	3.506100	-10.523000	25.488207	0.000765	20.726067
1379.339593	-3.013600	3.504900	-10.561000	25.461684	0.000765	20.732150
1380.349823	-2.998900	3.505200	-10.511000	25.473114	0.000765	20.729403
1381.342616	-2.986200	3.504400	-10.464000	25.505376	0.000766	20.739516
1382.343552	-2.985500	3.504600	-10.460000	25.549082	0.000764	20.728405
1383.346903	-2.972000	3.503900	-10.413000	25.584223	0.000766	20.722919
1384.342806	-2.980100	3.504000	-10.442000	25.587031	0.000762	20.721946
1385.343698	-2.991100	3.503200	-10.478000	25.611175	0.000763	20.734815
1386.344723	-2.984300	3.503000	-10.451000	25.632371	0.000760	20.718170
1387.342910	-2.993700	3.502400	-10.484000	25.638142	0.000763	20.729656
1388.344554	-3.007000	3.501800	-10.529000	25.670293	0.000761	20.724489
1389.343556	-3.026200	3.500300	-10.592000	25.683504	0.000760	20.728275
1390.342764	-2.980000	3.502600	-10.437000	25.675006	0.000762	20.716420
1391.350867	-2.983200	3.502000	-10.446000	25.672963	0.000760	20.719585
1392.344475	-2.986900	3.501400	-10.456000	25.640568	0.000760	20.737309
1393.345975	-3.004700	3.501700	-10.520000	25.646265	0.000758	20.733074
1394.350436	-2.986000	3.498700	-10.446000	25.622335	0.000761	20.731798
1395.347435	-2.989000	3.500900	-10.463000	25.606723	0.000757	20.726076
1396.349746	-2.997500	3.500300	-10.491000	25.556898	0.000757	20.717762
1397.345974	-2.984400	3.499100	-10.442000	25.529822	0.000757	20.709536
1398.348738	-2.976700	3.499700	-10.417000	25.524100	0.000758	20.724179
1399.346972	-3.012000	3.497500	-10.534000	25.511824	0.000755	20.725128
1400.347692	-2.983300	3.497100	-10.432000	25.480091	0.000755	20.725504
1401.350019	-3.011800	3.497500	-10.533000	25.497659	0.000754	20.723231
1402.348624	-2.992300	3.499200	-10.469000	25.492889	0.000757	20.714172
1403.348742	-3.001300	3.497100	-10.495000	25.485187	0.000753	20.712128
1404.352554	-3.000900	3.496000	-10.490000	25.539160	0.000753	20.711801
1405.351666	-2.994800	3.495700	-10.468000	25.550589	0.000752	20.722806
1406.350558	-2.997200	3.497100	-10.480000	25.566162	0.000754	20.731333
1407.352443	-3.007100	3.493600	-10.504000	25.543971	0.000751	20.717582
1408.354496	-3.005300	3.494200	-10.500000	25.484675	0.000750	20.710666
1409.350079	-3.001600	3.493400	-10.485000	25.511914	0.000748	20.721899
1410.350966	-2.997900	3.494300	-10.474000	25.507315	0.000748	20.719651
1411.349751	-2.996100	3.493500	-10.466000	25.507574	0.000750	20.708057
1412.354809	-2.996700	3.492300	-10.464000	25.499662	0.000750	20.726665
1413.352562	-3.003400	3.492500	-10.488000	25.531598	0.000748	20.695671
1414.357331	-2.970300	3.493400	-10.374000	25.546202	0.000748	20.703700
1415.353010	-2.996900	3.491000	-10.461000	25.536946	0.000751	20.708629
1416.352272	-2.990300	3.491500	-10.439000	25.526754	0.000748	20.705032
1417.355276	-2.998000	3.490200	-10.462000	25.476681	0.000748	20.708327
1418.352240	-3.000100	3.492000	-10.476000	25.514502	0.000746	20.696047
1419.354851	-2.973100	3.492000	-10.380000	25.489380	0.000747	20.700217
1420.352856	-3.003600	3.489800	-10.481000	25.502226	0.000746	20.707902
1421.352639	-3.001300	3.490100	-10.473000	25.496137	0.000745	20.717909
1422.357137	-2.990000	3.488900	-10.431000	25.479384	0.000745	20.716258
1423.356895	-3.011000	3.488300	-10.503000	25.476135	0.000744	20.702089
1424.356106	-3.020900	3.487500	-10.533000	25.477422	0.000745	20.708597
1425.354722	-2.989000	3.489300	-10.429000	25.490317	0.000744	20.684561
1426.355065	-3.004600	3.487300	-10.478000	25.513583	0.000743	20.715988
1427.356711	-3.008300	3.486900	-10.488000	25.515292	0.000742	20.709170
1428.356439	-3.006900	3.487200	-10.485000	25.527617	0.000743	20.676025
1429.364734	-3.015700	3.485500	-10.510000	25.513974	0.000742	20.691723
1430.357840	-3.010400	3.485200	-10.491000	25.499141	0.000742	20.702433
1431.357524	-2.992200	3.487500	-10.434000	25.456191	0.000740	20.687749
1432.355252	-2.992700	3.486600	-10.433000	25.444516	0.000739	20.682664
1433.359758	-2.997700	3.485900	-10.448000	25.455946	0.000742	20.690349
1434.355742	-3.005700	3.485200	-10.474000	25.476348	0.000739	20.702776
1435.359602	-2.996500	3.484700	-10.440000	25.492222	0.000741	20.695484
1436.356332	-3.026800	3.483400	-10.543000	25.485213	0.000738	20.700774
1437.357514	-3.005300	3.483300	-10.467000	25.470576	0.000738	20.687022
1438.360603	-3.005500	3.483900	-10.469000	25.502838	0.000739	20.686229
1439.361995	-2.978200	3.484600	-10.376000	25.510734	0.000736	20.672821
1440.356319	-2.977900	3.483900	-10.372000	25.491205	0.000738	20.723862
1441.357887	-3.005500	3.482800	-10.467000	25.480166	0.000736	20.687644
1442.361439	-3.011400	3.481100	-10.480000	25.445697	0.000735	20.708982
1443.359840	-2.984800	3.481600	-10.390000	25.462769	0.000735	20.687717
1444.363700	-3.032300	3.482000	-10.558000	25.478400	0.000735	20.683024
1445.357835	-3.008000	3.480800	-10.470000	25.493989	0.000733	20.688722
1446.362963	-3.006400	3.480300	-10.462000	25.549915	0.000735	20.685616
1447.358553	-2.998600	3.480100	-10.434000	25.603070	0.000734	20.688739
1448.361035	-3.015000	3.479500	-10.490000	25.638796	0.000734	20.702336
1449.362290	-3.024300	3.479600	-10.522000	25.650329	0.000733	20.694005
1450.361039	-2.991200	3.479600	-10.407000	25.642768	0.000733	20.695894
1451.363322	-2.994600	3.478600	-10.416000	25.635613	0.000733	20.698665
1452.363745	-3.003500	3.479500	-10.450000	25.602191	0.000732	20.699712
1453.367856	-2.992700	3.479200	-10.411000	25.585870	0.000733	20.689484
1454.364476	-3.014100	3.477500	-10.480000	25.585317	0.000732	20.676599
1455.364585	-3.011200	3.478000	-10.472000	25.615362	0.000730	20.683540
1456.363415	-2.994200	3.477000	-10.410000	25.594133	0.000729	20.682609
1457.364732	-3.009200	3.476100	-10.459000	25.603233	0.000730	20.681316
1458.368610	-2.996700	3.476300	-10.417000	25.597128	0.000729	20.678978
1459.367795	-3.005100	3.475600	-10.443000	25.623974	0.000729	20.680336
1460.364232	-3.006500	3.475400	-10.448000	25.610210	0.000728	20.694962
1461.365758	-2.993400	3.475500	-10.403000	25.631178	0.000728	20.683304
1462.376918	-2.998900	3.474300	-10.418000	25.642337	0.000729	20.679812
1463.368356	-3.003500	3.473200	-10.431000	25.646187	0.000727	20.682257
1464.368814	-2.968400	3.475600	-10.315000	25.667106	0.000727	20.676714
1465.370236	-3.003600	3.473200	-10.432000	25.670452	0.000725	20.675807
1466.373077	-2.997900	3.473700	-10.413000	25.667189	0.000724	20.686281
1467.367838	-3.023200	3.472000	-10.496000	25.636062	0.000725	20.672561
1468.369709	-2.996700	3.472400	-10.405000	25.587802	0.000722	20.693794
1469.374671	-3.005700	3.471200	-10.432000	25.589788	0.000723	20.670183
1470.368144	-3.028200	3.470900	-10.509000	25.592841	0.000723	20.672775
1471.368126	-2.994900	3.471300	-10.395000	25.603423	0.000722	20.691465
1472.368151	-3.001200	3.471600	-10.417000	25.608388	0.000722	20.688865
1473.370046	-3.002000	3.470200	-10.417000	25.611515	0.000722	20.670666
1474.370590	-3.006800	3.471100	-10.434000	25.613501	0.000721	20.677877
1475.372936	-3.007100	3.469300	-10.432000	25.639085	0.000720	20.653784
1476.370274	-3.018000	3.469100	-10.468000	25.638360	0.000720	20.681034
1477.371382	-3.002300	3.470600	-10.419000	25.686090	0.000720	20.679187
1478.370667	-3.025500	3.467100	-10.489000	25.692944	0.000719	20.680855
1479.370041	-3.010800	3.467800	-10.441000	25.691195	0.000719	20.691427
1480.376319	-3.011600	3.467800	-10.443000	25.686075	0.000719	20.698613
1481.368927	-3.002400	3.468100	-10.411000	25.706717	0.000719	20.642053
1482.369697	-2.987400	3.466600	-10.355000	25.709720	0.000719	20.686326
1483.369611	-2.988800	3.467300	-10.362000	25.672590	0.000717	20.698819
1484.370480	-2.997600	3.466600	-10.390000	25.665411	0.000718	20.688289
1485.372436	-2.999700	3.465600	-10.394000	25.645827	0.000719	20.680473
1486.371683	-2.998600	3.466000	-10.392000	25.654797	0.000717	20.670989
1487.373538	-3.007000	3.464700	-10.416000	25.677897	0.000717	20.697038
1488.371411	-3.003600	3.464900	-10.406000	25.661423	0.000716	20.676222
1489.371842	-3.013700	3.464400	-10.440000	25.661619	0.000715	20.687325
1490.373786	-3.006000	3.464900	-10.414000	25.633709	0.000715	20.679207
1491.372519	-3.006700	3.463500	-10.413000	25.606522	0.000714	20.683197
1492.374693	-2.999400	3.464500	-10.390000	25.575908	0.000714	20.700342
1493.370781	-2.998700	3.463400	-10.384000	25.572319	0.000713	20.682985
1494.372748	-2.996800	3.463200	-10.378000	25.584489	0.000712	20.674818
1495.372453	-3.013100	3.462300	-10.432000	25.608868	0.000713	20.699305
1496.376842	-3.022100	3.462200	-10.461000	25.632514	0.000711	20.686069
1497.375238	-3.019900	3.461200	-10.452000	25.654133	0.000712	20.666528
1498.372123	-3.002100	3.461200	-10.390000	25.658944	0.000711	20.687958
1499.373894	-2.993200	3.461800	-10.360000	25.665480	0.000710	20.674132
1500.373834	-2.993800	3.460700	-10.360000	25.696476	0.000713	20.707164
1501.375555	-3.003700	3.460400	-10.393000	25.666539	0.000710	20.702225
1502.374119	-3.012800	3.460400	-10.425000	25.683160	0.000708	20.669130
1503.377459	-3.001800	3.459900	-10.385000	25.699699	0.000710	20.706134
1504.373883	-2.995400	3.458400	-10.358000	25.723498	0.000709	20.682621
1505.377002	-2.999100	3.457600	-10.369000	25.740964	0.000707	20.682147
1506.380165	-3.007100	3.458000	-10.398000	25.713626	0.000706	20.694043
1507.376004	-3.009600	3.459000	-10.408000	25.692131	0.000708	20.685729
1508.378207	-3.004100	3.456700	-10.383000	25.705031	0.000707	20.680667
1509.379600	-3.003000	3.457200	-10.381000	25.698659	0.000706	20.703667
1510.384512	-3.000800	3.456000	-10.370000	25.710233	0.000704	20.696325
1511.378403	-2.999400	3.456400	-10.366000	25.731623	0.000705	20.696473
1512.383224	-2.995100	3.456000	-10.350000	25.726479	0.000704	20.699367
1513.377950	-3.000700	3.456700	-10.371000	25.740340	0.000704	20.682942
1514.378605	-2.989200	3.454600	-10.326000	25.761061	0.000704	20.676254
1515.378464	-2.980300	3.454100	-10.294000	25.744239	0.000704	20.717681
1516.383247	-3.010200	3.454100	-10.397000	25.757872	0.000704	20.701976
1517.378577	-3.005300	3.453100	-10.376000	25.768631	0.000703	20.714681
1518.379920	-2.992200	3.454800	-10.336000	25.730811	0.000703	20.690440
1519.378685	-3.007200	3.452900	-10.383000	25.725373	0.000700	20.707266
1520.378606	-3.010400	3.451400	-10.389000	25.754007	0.000700	20.684342
1521.381697	-3.015700	3.453300	-10.413000	25.779456	0.000702	20.692836
1522.381107	-2.981400	3.453200	-10.294000	25.790777	0.000700	20.694251
1523.379760	-3.010500	3.451800	-10.390000	25.803823	0.000700	20.692182
1524.379823	-2.975600	3.452700	-10.272000	25.803921	0.000698	20.701290
1525.380503	-2.986100	3.451100	-10.304000	25.817805	0.000698	20.698167
1526.379966	-2.999600	3.451000	-10.351000	25.811092	0.000699	20.691423
1527.381194	-3.010900	3.449100	-10.383000	25.829207	0.000697	20.712467
1528.381675	-3.001100	3.449500	-10.351000	25.830444	0.000698	20.701855
1529.382788	-3.006900	3.448600	-10.369000	25.813965	0.000699	20.709958
1530.381685	-3.008900	3.449500	-10.377000	25.825000	0.000698	20.708715
1531.382263	-2.986700	3.450000	-10.303000	25.773118	0.000697	20.712076
1532.384562	-3.001500	3.449100	-10.351000	25.797713	0.000696	20.716867
1533.380599	-3.000900	3.447700	-10.345000	25.831569	0.000696	20.719582
1534.381606	-2.984800	3.448900	-10.294000	25.814520	0.000693	20.709567
1535.381979	-2.996200	3.448300	-10.330000	25.796436	0.000695	20.731232
1536.386104	-2.992400	3.448700	-10.318000	25.779052	0.000692	20.707604
1537.384441	-2.980100	3.447800	-10.274000	25.797437	0.000693	20.704734
1538.389982	-3.005900	3.445800	-10.356000	25.835541	0.000695	20.718356
1539.386590	-2.995700	3.447100	-10.324000	25.852338	0.000693	20.693501
1540.383658	-2.994100	3.447300	-10.320000	25.859841	0.000692	20.736129
1541.385596	-3.015200	3.444800	-10.386000	25.850239	0.000693	20.703722
1542.386100	-3.001500	3.445300	-10.340000	25.813992	0.000691	20.706191
1543.390171	-3.016100	3.444000	-10.387000	25.791977	0.000692	20.704466
1544.383146	-2.976200	3.445200	-10.252000	25.772079	0.000691	20.722886
1545.385408	-3.000400	3.444300	-10.333000	25.736203	0.000689	20.732370
1546.383496	-3.011600	3.443000	-10.367000	25.741770	0.000690	20.719943
1547.383849	-2.994000	3.442800	-10.306000	25.721569	0.000691	20.705815
1548.385195	-2.998800	3.442700	-10.323000	25.725345	0.000687	20.743750
1549.385189	-3.000500	3.441600	-10.325000	25.712348	0.000689	20.726426
1550.384426	-2.958300	3.443100	-10.184000	25.716971	0.000687	20.711154
1551.382402	-3.001800	3.440900	-10.328000	25.750015	0.000687	20.720638
1552.385905	-2.991400	3.440800	-10.292000	25.755980	0.000684	20.713353
1553.385272	-3.026300	3.440500	-10.409000	25.740875	0.000687	20.710508
1554.385702	-3.009700	3.440600	-10.353000	25.783554	0.000687	20.726827
1555.385298	-2.999300	3.440600	-10.318000	25.732590	0.000685	20.718783
1556.397705	-3.005400	3.439900	-10.338000	25.756892	0.000685	20.729917
1557.386900	-3.005000	3.440200	-10.336000	25.737384	0.000685	20.721701
1558.386441	-2.988300	3.439000	-10.275000	25.744546	0.000684	20.712773
1559.388667	-2.982400	3.440200	-10.257000	25.732126	0.000686	20.734912
1560.387004	-2.984500	3.438500	-10.261000	25.732720	0.000683	20.717490
1561.386329	-2.979400	3.437700	-10.242000	25.723156	0.000682	20.736335
1562.388080	-2.993900	3.438200	-10.291000	25.736944	0.000683	20.725053
1563.386873	-3.007400	3.436500	-10.334000	25.768361	0.000683	20.707296
1564.385962	-3.003400	3.436400	-10.319000	25.773431	0.000684	20.726141
1565.394516	-3.018700	3.436200	-10.372000	25.780984	0.000682	20.737521
1566.388873	-3.008200	3.436500	-10.337000	25.765952	0.000681	20.721947
1567.387527	-3.013600	3.435800	-10.353000	25.790970	0.000683	20.738069
1568.389564	-2.977700	3.436500	-10.231000	25.809078	0.000680	20.739190
1569.390088	-3.026800	3.433300	-10.390000	25.792882	0.000679	20.740465
1570.392981	-2.995500	3.434800	-10.288000	25.777867	0.000680	20.724433
1571.389221	-2.995900	3.434200	-10.288000	25.759930	0.000679	20.723485
1572.391825	-2.996700	3.433800	-10.289000	25.735408	0.000679	20.725406
1573.390356	-2.991600	3.433000	-10.268000	25.736026	0.000678	20.712276
1574.390611	-3.007400	3.432800	-10.322000	25.755275	0.000679	20.714067
1575.390304	-2.990800	3.432900	-10.266000	25.753761	0.000679	20.737204
1576.390748	-3.008600	3.431300	-10.322000	25.779398	0.000677	20.738300
1577.390964	-3.002500	3.433200	-10.306000	25.808070	0.000678	20.719684
1578.392570	-3.000600	3.430200	-10.292000	25.804164	0.000675	20.736150
1579.393401	-2.993700	3.430200	-10.268000	25.808266	0.000677	20.738848
1580.393561	-3.002700	3.429500	-10.297000	25.824209	0.000675	20.736845
1581.396352	-2.998500	3.430300	-10.285000	25.826097	0.000676	20.739690
1582.394373	-3.006400	3.429800	-10.310000	25.768404	0.000676	20.733420
1583.393919	-3.018000	3.430600	-10.352000	25.756945	0.000674	20.736609
1584.394489	-3.001400	3.429200	-10.291000	25.781768	0.000675	20.744000
1585.394951	-2.995900	3.429200	-10.272000	25.775005	0.000674	20.749061
1586.397442	-2.988600	3.430400	-10.251000	25.752819	0.000674	20.755225
1587.398249	-2.986800	3.429300	-10.241000	25.723520	0.000671	20.736700
1588.396708	-3.002000	3.428400	-10.291000	25.725636	0.000672	20.750206
1589.395113	-2.987800	3.428900	-10.243000	25.762025	0.000672	20.764946
1590.396689	-2.983000	3.428300	-10.225000	25.761431	0.000670	20.734477
1591.399349	-2.964600	3.429200	-10.164000	25.743811	0.000671	20.738115
1592.400139	-2.999700	3.427000	-10.279000	25.696507	0.000670	20.730430
1593.404704	-3.014600	3.426100	-10.328000	25.696174	0.000668	20.747166
1594.398376	-3.016800	3.424500	-10.329000	25.727428	0.000668	20.742997
1595.399816	-2.991800	3.427200	-10.251000	25.744894	0.000668	20.756748
1596.398891	-3.008000	3.425000	-10.301000	25.774178	0.000668	20.751549
1597.402463	-2.979000	3.425500	-10.203000	25.759667	0.000668	20.750724
1598.398339	-2.989800	3.424900	-10.239000	25.750747	0.000667	20.737022
1599.404617	-2.998600	3.423600	-10.265000	25.758740	0.000667	20.753112
1600.399963	-2.979600	3.424900	-10.204000	25.763901	0.000665	20.753080
1601.401260	-3.008000	3.422600	-10.294000	25.745124	0.000665	20.755556
1602.401295	-2.989000	3.423200	-10.231000	25.741886	0.000668	20.746613
1603.401191	-3.002500	3.423500	-10.277000	25.752939	0.000666	20.747758
1604.400821	-3.013900	3.421800	-10.312000	25.772789	0.000666	20.752998
1605.402050	-2.995700	3.422600	-10.252000	25.765400	0.000665	20.753163
1606.400536	-2.996700	3.422900	-10.257000	25.799093	0.000664	20.747652
1607.401175	-3.018800	3.419000	-10.320000	25.827603	0.000663	20.773446
1608.404475	-3.010800	3.420300	-10.297000	25.852399	0.000664	20.741930
1609.401713	-2.992600	3.419900	-10.234000	25.849959	0.000660	20.750858
1610.406971	-2.989600	3.420500	-10.225000	25.835718	0.000662	20.746036
1611.402487	-3.017800	3.420000	-10.320000	25.815739	0.000662	20.755838
1612.403387	-3.011200	3.418400	-10.293000	25.792585	0.000660	20.750598
1613.405330	-2.981900	3.420600	-10.197000	25.801798	0.000660	20.743731
1614.402172	-2.980000	3.419900	-10.190000	25.791015	0.000660	20.760875
1615.402328	-3.003000	3.418600	-10.265000	25.837941	0.000659	20.755381
1616.402400	-2.993900	3.420200	-10.239000	25.834580	0.000660	20.761489
1617.403934	-3.019800	3.417900	-10.320000	25.881984	0.000658	20.767857
1618.402867	-2.990800	3.417000	-10.218000	25.873837	0.000657	20.746397
1619.402380	-3.010700	3.417600	-10.289000	25.861142	0.000658	20.771103
1620.407319	-2.977500	3.416700	-10.172000	25.848440	0.000656	20.766403
1621.401938	-2.997500	3.416700	-10.240000	25.835370	0.000658	20.753747
1622.400554	-3.006200	3.416300	-10.269000	25.834150	0.000657	20.767221
1623.405190	-2.998400	3.416300	-10.242000	25.804217	0.000656	20.774611
1624.400939	-3.023400	3.415000	-10.324000	25.805325	0.000657	20.764344
1625.402025	-3.019900	3.415000	-10.311000	25.816507	0.000655	20.764671
1626.403128	-2.994400	3.414600	-10.223000	25.783611	0.000656	20.770982
1627.402174	-3.010200	3.414300	-10.277000	25.771835	0.000654	20.762472
1628.406359	-2.999900	3.415000	-10.244000	25.788674	0.000654	20.767059
1629.405336	-3.019100	3.413100	-10.303000	25.813366	0.000652	20.759145
1630.402276	-2.976500	3.412500	-10.156000	25.832621	0.000652	20.776117
1631.404930	-3.010900	3.411600	-10.270000	25.873084	0.000654	20.782625
1632.400942	-2.996200	3.411700	-10.221000	25.873263	0.000651	20.783752
1633.401935	-2.983700	3.413800	-10.185000	25.898271	0.000653	20.787538
1634.404972	-2.985300	3.413200	-10.188000	25.895903	0.000653	20.764771
1635.402252	-3.003800	3.410800	-10.245000	25.935036	0.000650	20.772316
1636.407390	-3.005700	3.410800	-10.251000	25.963444	0.000650	20.798960
1637.405623	-2.998700	3.411200	-10.228000	25.957358	0.000652	20.782888
1638.404030	-2.989400	3.411500	-10.197000	25.944681	0.000648	20.786273
1639.405659	-2.997800	3.409400	-10.219000	25.907948	0.000649	20.775923
1640.406482	-3.003500	3.409200	-10.239000	25.920488	0.000649	20.773348
1641.404235	-2.976900	3.411300	-10.153000	25.943607	0.000648	20.779979
1642.403410	-2.999300	3.408900	-10.224000	25.937423	0.000649	20.789887
1643.405258	-2.982100	3.410400	-10.168000	25.919341	0.000647	20.779782
1644.404075	-3.026900	3.407100	-10.311000	25.925347	0.000648	20.794351
1645.403973	-3.004200	3.407000	-10.233000	25.898696	0.000645	20.796026
1646.407288	-2.984400	3.406800	-10.165000	25.919432	0.000647	20.798365
1647.407106	-2.982400	3.408400	-10.164000	25.926854	0.000646	20.794442
1648.403794	-2.999100	3.406800	-10.217000	25.969908	0.000645	20.793599
1649.406445	-3.018800	3.406100	-10.281000	25.987754	0.000645	20.789718
1650.403393	-3.028300	3.405400	-10.312000	25.972456	0.000643	20.789047
1651.407737	-2.990800	3.406500	-10.187000	25.981496	0.000643	20.805716
1652.404722	-3.000700	3.405800	-10.218000	25.918295	0.000643	20.798645
1653.405734	-3.019600	3.404300	-10.279000	25.897104	0.000643	20.805333
1654.408868	-3.007000	3.405300	-10.238000	25.874392	0.000644	20.794845
1655.410172	-2.997000	3.404800	-10.203000	25.879357	0.000641	20.803151
1656.406812	-2.987300	3.405500	-10.172000	25.924709	0.000643	20.806038
1657.406884	-2.998200	3.404300	-10.206000	25.927223	0.000642	20.802874
1658.407411	-2.994400	3.404700	-10.193000	25.899467	0.000640	20.796800
1659.409523	-3.005600	3.402000	-10.224000	25.874224	0.000641	20.801788
1660.410095	-2.998000	3.402200	-10.199000	25.850103	0.000642	20.799842
1661.408715	-2.983700	3.402900	-10.153000	25.868853	0.000639	20.807772
1662.409425	-2.989000	3.401800	-10.166000	25.856826	0.000640	20.799009
1663.408588	-3.018700	3.401100	-10.266000	25.854979	0.000639	20.828922
1664.410584	-3.007700	3.401600	-10.230000	25.861465	0.000638	20.824532
1665.412293	-3.001100	3.402100	-10.210000	25.887442	0.000637	20.806532
1666.410048	-3.010800	3.400700	-10.238000	25.889005	0.000637	20.786765
1667.408137	-2.980900	3.400900	-10.137000	25.875911	0.000636	20.798741
1668.409426	-2.998300	3.400300	-10.194000	25.878369	0.000637	20.791253
1669.408020	-2.996700	3.400300	-10.188000	25.927008	0.000636	20.805502
1670.409817	-3.042400	3.397000	-10.334000	25.929417	0.000636	20.811241
1671.410880	-2.997500	3.399100	-10.188000	25.910873	0.000634	20.831018
1672.409347	-2.989900	3.399000	-10.162000	25.911572	0.000637	20.798530
1673.413768	-3.002900	3.397200	-10.200000	25.938052	0.000633	20.802373
1674.410556	-3.014700	3.397500	-10.241000	25.940258	0.000633	20.815020
1675.411607	-2.989300	3.396700	-10.153000	25.928881	0.000633	20.816393
1676.415512	-2.989800	3.398000	-10.158000	25.941649	0.000634	20.805987
1677.412004	-3.017300	3.395300	-10.242000	25.961325	0.000631	20.826702
1678.415274	-2.980300	3.397200	-10.124000	25.959129	0.000631	20.814538
1679.414903	-2.985600	3.396800	-10.139000	25.906593	0.000630	20.825770
1680.416874	-2.988100	3.395300	-10.144000	25.922420	0.000632	20.830291
1681.419424	-3.006400	3.395700	-10.208000	25.946613	0.000629	20.801965
1682.417679	-2.997900	3.393800	-10.173000	25.929395	0.000630	20.815961
1683.415863	-2.991500	3.396100	-10.158000	25.939103	0.000629	20.822869
1684.417760	-3.002400	3.393800	-10.189000	25.953742	0.000629	20.793479
1685.415950	-2.997100	3.394200	-10.172000	25.968169	0.000629	20.816983
1686.418748	-3.005400	3.392900	-10.196000	25.981604	0.000627	20.824790
1687.415707	-3.007600	3.392400	-10.202000	25.964663	0.000629	20.812512
1688.416019	-2.993500	3.393000	-10.156000	25.977601	0.000627	20.816027
1689.415185	-3.003900	3.392200	-10.189000	25.996706	0.000628	20.830954
1690.415335	-3.000300	3.392900	-10.179000	26.012126	0.000626	20.827480
1691.416815	-3.026700	3.391600	-10.264000	26.003216	0.000628	20.817106
1692.419636	-2.996500	3.390700	-10.159000	25.987187	0.000625	20.815226
1693.416170	-2.987000	3.392500	-10.132000	25.968627	0.000626	20.831667
1694.418582	-3.024200	3.389900	-10.250000	25.980734	0.000626	20.831502
1695.415734	-2.988700	3.390300	-10.132000	26.006033	0.000623	20.830367
1696.417411	-3.020200	3.389100	-10.234000	26.055463	0.000622	20.823606
1697.420305	-3.007300	3.388800	-10.190000	26.059986	0.000621	20.813453
1698.416662	-3.024500	3.388600	-10.247000	26.054536	0.000623	20.835951
1699.418364	-3.006300	3.388700	-10.185000	26.057025	0.000621	20.835133
1700.428872	-3.010900	3.387000	-10.197000	26.062884	0.000622	20.809726
1701.422635	-3.007300	3.387800	-10.186000	26.080435	0.000622	20.832102
1702.419998	-3.013900	3.386700	-10.207000	26.101426	0.000620	20.820951
1703.422578	-3.042900	3.385800	-10.302000	26.101035	0.000621	20.813920
1704.418736	-3.021000	3.386700	-10.230000	26.088986	0.000619	20.800865
1705.419417	-2.981400	3.386700	-10.095000	26.083462	0.000619	20.825186
1706.421145	-3.007300	3.385700	-10.181000	26.090646	0.000618	20.832878
1707.421712	-2.989700	3.386000	-10.122000	26.089565	0.000617	20.820887
1708.427637	-2.991600	3.386500	-10.130000	26.094732	0.000618	20.823707
1709.421393	-2.992900	3.386000	-10.132000	26.112996	0.000618	20.811239
1710.425744	-2.976600	3.386800	-10.080000	26.111500	0.000615	20.820641
1711.421650	-3.001200	3.385200	-10.159000	26.110874	0.000617	20.829969
1712.425155	-2.999100	3.387000	-10.156000	26.120036	0.000617	20.831114
1713.425003	-2.970200	3.384800	-10.053000	26.112754	0.000615	20.810996
1714.423049	-3.004400	3.384800	-10.168000	26.087069	0.000615	20.810793
1715.423343	-3.034800	3.382900	-10.264000	26.092756	0.000614	20.800860
1716.423812	-3.002200	3.383000	-10.155000	26.047949	0.000614	20.789031
1717.424800	-3.005300	3.382700	-10.165000	26.042727	0.000613	20.814603
1718.424434	-3.019200	3.382400	-10.210000	26.012995	0.000612	20.804646
1719.427151	-2.998600	3.383000	-10.143000	26.010352	0.000614	20.819060
1720.426595	-3.015800	3.382200	-10.199000	26.003224	0.000613	20.809053
1721.423828	-2.990700	3.383200	-10.117000	26.020035	0.000612	20.809348
1722.423804	-3.018200	3.380800	-10.202000	25.995243	0.000612	20.800086
1723.424743	-3.008100	3.382200	-10.173000	25.947551	0.000612	20.822347
1724.427840	-2.988200	3.382500	-10.106000	25.950473	0.000612	20.799205
1725.424868	-3.005900	3.381800	-10.164000	25.920389	0.000612	20.797431
1726.426169	-2.998300	3.382000	-10.139000	25.949498	0.000611	20.784948
1727.427191	-2.997900	3.379100	-10.129000	25.986855	0.000608	20.825325
1728.426211	-3.008500	3.378500	-10.163000	26.017850	0.000610	20.791980
1729.427531	-2.984000	3.380500	-10.086000	26.027728	0.000609	20.810914
1730.428108	-2.986000	3.378500	-10.087000	26.055701	0.000608	20.806302
1731.425746	-2.988600	3.378100	-10.095000	26.041016	0.000607	20.822367
1732.426242	-3.008500	3.377900	-10.160000	26.035891	0.000607	20.785924
1733.424245	-2.998400	3.377500	-10.126000	26.056078	0.000605	20.798621
1734.426927	-2.978500	3.379300	-10.065000	26.036688	0.000606	20.795260
1735.425819	-2.987000	3.378100	-10.088000	25.998349	0.000606	20.795621
1736.426267	-2.983400	3.377400	-10.075000	25.998814	0.000604	20.795140
1737.425235	-2.996800	3.376500	-10.118000	25.966550	0.000604	20.782639
1738.426740	-3.002400	3.376100	-10.134000	25.983963	0.000602	20.806772
1739.427583	-2.994500	3.376400	-10.110000	26.018212	0.000603	20.798034
1740.425647	-3.012900	3.374700	-10.165000	25.989847	0.000601	20.794665
1741.428082	-3.007300	3.374800	-10.148000	26.000596	0.000604	20.780809
1742.432131	-2.996800	3.376600	-10.118000	26.029580	0.000602	20.786696
1743.428990	-2.989400	3.376400	-10.093000	26.043511	0.000601	20.766079
1744.426564	-3.004700	3.373700	-10.136000	26.070239	0.000601	20.808107
1745.431148	-2.974800	3.374900	-10.038000	26.113947	0.000602	20.783271
1746.430836	-2.998600	3.372900	-10.113000	26.086105	0.000601	20.784220
1747.434253	-2.979700	3.373800	-10.051000	26.025294	0.000601	20.808468
1748.431444	-2.987200	3.372600	-10.074000	26.002372	0.000598	20.786387
1749.430967	-3.003700	3.372300	-10.129000	25.974300	0.000598	20.783787
1750.436197	-3.001600	3.372000	-10.120000	25.955691	0.000600	20.796860
1751.432650	-2.994000	3.371200	-10.092000	25.945836	0.000598	20.785537
1752.431867	-2.987900	3.371900	-10.074000	25.913636	0.000596	20.793492
1753.429946	-3.006300	3.371000	-10.133000	25.940661	0.000597	20.802149
1754.431623	-3.024100	3.371100	-10.193000	25.931271	0.000597	20.778965
1755.432248	-3.024200	3.369300	-10.189000	25.970940	0.000594	20.775670
1756.434866	-3.005000	3.370300	-10.127000	25.984920	0.000595	20.772646
1757.434289	-2.993000	3.370600	-10.087000	25.993422	0.000595	20.778343
1758.438339	-2.998700	3.369400	-10.103000	26.029754	0.000592	20.798725
1759.433321	-2.997700	3.370900	-10.104000	26.028419	0.000595	20.791693
1760.435581	-2.978200	3.369800	-10.035000	26.046922	0.000592	20.781360
1761.439210	-2.979600	3.369600	-10.039000	26.105162	0.000592	20.778712
1762.433047	-2.979500	3.368500	-10.036000	26.083822	0.000592	20.771494
1763.432372	-3.004700	3.368600	-10.120000	26.112216	0.000591	20.792438
1764.433666	-2.993200	3.367900	-10.079000	26.115764	0.000592	20.764234
1765.435408	-2.975600	3.368700	-10.023000	26.139862	0.000590	20.767585
1766.437215	-2.988100	3.367800	-10.062000	26.138771	0.000591	20.778817
1767.438299	-3.000800	3.365800	-10.099000	26.095700	0.000588	20.756402
1768.434741	-2.997200	3.368000	-10.093000	26.091673	0.000589	20.777012
1769.435231	-3.009100	3.366500	-10.129000	26.097759	0.000589	20.782178
1770.435382	-2.999300	3.366100	-10.095000	26.066222	0.000588	20.777518
1771.435882	-3.010600	3.365600	-10.132000	26.037955	0.000587	20.787524
1772.439752	-2.963900	3.367300	-9.979200	26.077068	0.000586	20.777985
1773.436507	-2.999500	3.364900	-10.092000	26.077474	0.000588	20.761322
1774.438867	-2.995300	3.365500	-10.080000	26.110776	0.000585	20.786249
1775.437447	-2.985200	3.364500	-10.043000	26.138838	0.000586	20.775091
1776.439960	-2.991300	3.363700	-10.061000	26.131295	0.000585	20.789323
1777.438479	-2.987800	3.364700	-10.051000	26.136901	0.000586	20.759868
1778.440740	-3.014700	3.364100	-10.141000	26.137048	0.000585	20.766180
1779.438903	-3.003300	3.362100	-10.097000	26.156493	0.000585	20.782400
1780.439897	-3.032400	3.361900	-10.194000	26.154231	0.000586	20.767325
1781.440311	-3.016700	3.362300	-10.141000	26.158999	0.000581	20.763581
1782.442632	-3.018200	3.361800	-10.145000	26.165581	0.000582	20.777781
1783.440863	-2.982200	3.362400	-10.026000	26.164784	0.000582	20.752323
1784.440080	-2.997200	3.362000	-10.076000	26.200222	0.000581	20.773236
1785.444156	-3.013000	3.361600	-10.127000	26.185570	0.000581	20.757564
1786.440889	-2.993000	3.361700	-10.061000	26.210351	0.000580	20.759232
1787.441396	-2.991900	3.361300	-10.055000	26.174588	0.000579	20.755063
1788.444678	-3.017500	3.359300	-10.136000	26.196083	0.000580	20.752955
1789.444015	-2.993300	3.359600	-10.055000	26.142826	0.000581	20.764399
1790.443847	-2.969100	3.361300	-9.978600	26.118655	0.000580	20.760026
1791.443995	-2.968200	3.359700	-9.971200	26.084776	0.000579	20.781462
1792.444064	-3.013000	3.357900	-10.116000	26.043590	0.000578	20.733440
1793.446257	-2.971700	3.360500	-9.985200	26.025111	0.000576	20.742850
1794.445856	-3.016300	3.356900	-10.124000	25.989220	0.000577	20.742826
1795.447576	-3.004100	3.357900	-10.086000	25.982556	0.000577	20.754624
1796.446938	-3.007300	3.358500	-10.099000	26.002525	0.000575	20.735804
1797.445456	-2.977300	3.358400	-9.998100	25.995470	0.000576	20.754321
1798.446164	-3.037800	3.355700	-10.193000	26.009034	0.000574	20.751353
1799.450560	-3.014100	3.356800	-10.117000	26.028345	0.000572	20.746099
1800.450315	-2.994900	3.356800	-10.053000	26.042876	0.000574	20.756906
1801.452714	-3.017500	3.355300	-10.123000	26.042999	0.000572	20.750865
1802.447311	-3.003900	3.355700	-10.080000	26.044432	0.000572	20.762737
1803.446777	-3.013000	3.355400	-10.109000	26.052276	0.000572	20.765402
1804.448454	-3.004400	3.354900	-10.078000	26.064529	0.000572	20.758747
1805.447263	-3.021400	3.354100	-10.132000	26.094779	0.000573	20.752157
1806.449460	-2.997400	3.353600	-10.050000	26.142318	0.000569	20.731171
1807.450571	-2.992500	3.355200	-10.039000	26.173675	0.000571	20.750352
1808.449586	-3.013000	3.353400	-10.103000	26.158819	0.000571	20.752494
1809.451321	-3.001800	3.353200	-10.063000	26.172301	0.000572	20.753239
1810.455302	-3.012200	3.353700	-10.101000	26.161853	0.000569	20.751750
1811.455834	-3.006400	3.352300	-10.077000	26.147592	0.000570	20.769189
1812.454461	-2.987800	3.353500	-10.019000	26.183601	0.000569	20.768388
1813.452533	-2.987100	3.353400	-10.016000	26.185660	0.000568	20.767137
1814.456574	-3.001700	3.352000	-10.060000	26.219738	0.000568	20.762975
1815.455271	-2.991000	3.351900	-10.025000	26.212751	0.000566	20.749315
1816.453452	-3.003900	3.351700	-10.067000	26.229388	0.000567	20.726678
1817.454008	-2.996200	3.350900	-10.039000	26.233334	0.000566	20.759568
1818.455061	-2.975100	3.351700	-9.970700	26.210759	0.000564	20.756797
1819.454087	-2.984800	3.350500	-9.999400	26.220919	0.000565	20.736660
1820.457067	-2.989500	3.351000	-10.016000	26.239793	0.000565	20.744247
1821.452569	-2.992100	3.350300	-10.024000	26.217235	0.000563	20.745761
1822.453968	-2.995200	3.348600	-10.029000	26.190193	0.000563	20.738975
1823.454777	-3.009800	3.348500	-10.077000	26.173573	0.000565	20.738395
1824.454587	-2.982600	3.348500	-9.986300	26.171790	0.000563	20.751778
1825.456049	-3.011800	3.347800	-10.081000	26.138336	0.000561	20.733808
1826.452334	-2.984400	3.348000	-9.990900	26.127280	0.000563	20.750200
1827.457215	-3.003700	3.346400	-10.051000	26.080912	0.000561	20.754819
1828.453250	-2.997500	3.348000	-10.035000	26.074274	0.000562	20.754787
1829.454881	-2.992900	3.347200	-10.017000	26.040841	0.000562	20.751068
1830.456715	-3.007700	3.346400	-10.064000	26.081800	0.000561	20.713509
1831.454840	-3.009000	3.346400	-10.067000	26.102458	0.000560	20.726681
1832.454522	-2.989000	3.346300	-10.000000	26.139045	0.000560	20.761075
1833.453767	-2.979700	3.345400	-9.966600	26.157172	0.000558	20.727605
1834.454717	-2.995100	3.345600	-10.020000	26.177218	0.000557	20.712185
1835.457446	-3.016800	3.345400	-10.092000	26.162982	0.000557	20.728701
1836.454129	-3.018900	3.344200	-10.094000	26.125508	0.000558	20.724711
1837.454564	-3.009500	3.343900	-10.063000	26.097568	0.000557	20.729354
1838.456745	-2.994400	3.343800	-10.012000	26.109984	0.000555	20.735666
1839.454674	-3.016800	3.343400	-10.086000	26.056358	0.000556	20.727777
1840.456710	-3.026900	3.342500	-10.116000	26.071858	0.000555	20.731497
1841.460721	-2.984800	3.344000	-9.979900	26.070142	0.000553	20.724082
1842.457037	-3.002100	3.342400	-10.034000	26.114728	0.000554	20.711507
1843.459516	-2.968900	3.343700	-9.925700	26.130342	0.000551	20.711549
1844.459786	-3.015000	3.342400	-10.076000	26.156148	0.000552	20.724205
1845.458104	-2.997400	3.341400	-10.015000	26.184485	0.000552	20.729445
1846.460387	-2.998600	3.341500	-10.019000	26.211649	0.000551	20.716439
1847.458914	-2.977500	3.342000	-9.949700	26.221785	0.000552	20.712873
1848.460647	-2.981800	3.341900	-9.963800	26.246045	0.000551	20.694577
1849.459776	-3.021800	3.340900	-10.095000	26.251634	0.000548	20.721057
1850.459954	-3.021400	3.340000	-10.091000	26.224959	0.000549	20.733133
1851.463148	-3.022400	3.338700	-10.090000	26.217361	0.000550	20.737352
1852.460328	-3.019500	3.338400	-10.080000	26.254513	0.000551	20.733910
1853.460802	-2.988500	3.338800	-9.976300	26.259973	0.000549	20.703832
1854.459910	-2.978000	3.340000	-9.945200	26.312459	0.000546	20.735718
1855.461249	-2.986300	3.337900	-9.966800	26.333648	0.000546	20.734728
1856.465644	-3.018100	3.337900	-10.073000	26.337049	0.000547	20.724868
1857.461004	-3.005200	3.336900	-10.026000	26.301989	0.000545	20.741791
1858.461030	-2.977300	3.338800	-9.938900	26.285101	0.000544	20.715336
1859.460707	-2.991000	3.337700	-9.982400	26.267287	0.000544	20.729677
1860.462642	-2.986200	3.336600	-9.961500	26.274267	0.000544	20.733372
1861.466112	-3.024000	3.335800	-10.087000	26.286901	0.000544	20.708609
1862.461602	-3.023000	3.336400	-10.084000	26.274665	0.000544	20.714805
1863.466403	-2.992200	3.335400	-9.978900	26.272226	0.000542	20.726105
1864.461445	-2.991700	3.336700	-9.981400	26.296386	0.000543	20.713400
1865.464769	-3.003800	3.335600	-10.018000	26.294775	0.000542	20.708936
1866.468669	-3.050600	3.332500	-10.164000	26.238450	0.000540	20.729621
1867.465328	-2.991600	3.334900	-9.975700	26.239240	0.000540	20.717137
1868.471428	-2.994000	3.333100	-9.978900	26.215095	0.000541	20.725592
1869.463075	-2.999300	3.333800	-9.997800	26.206805	0.000541	20.716312
1870.467598	-3.004800	3.333700	-10.017000	26.167633	0.000539	20.703976
1871.466384	-2.983200	3.332600	-9.939000	26.184246	0.000538	20.700755
1872.467103	-2.999000	3.332400	-9.991800	26.170562	0.000538	20.724464
1873.465474	-2.985900	3.332900	-9.950700	26.150027	0.000539	20.694819
1874.466012	-3.002300	3.332100	-10.003000	26.217276	0.000538	20.711187
1875.466158	-2.985600	3.332300	-9.947700	26.218139	0.000537	20.700674
1876.467004	-2.997800	3.331400	-9.985800	26.248215	0.000534	20.703870
1877.469750	-3.003400	3.331100	-10.004000	26.249452	0.000536	20.704165
1878.469152	-3.004100	3.330800	-10.005000	26.224567	0.000534	20.697175
1879.475451	-2.989100	3.330500	-9.953700	26.231368	0.000535	20.702114
1880.471275	-2.991500	3.329300	-9.959200	26.238998	0.000534	20.699350
1881.472183	-2.996000	3.329300	-9.973500	26.236982	0.000534	20.689736
1882.475484	-2.991000	3.330100	-9.959600	26.205490	0.000530	20.696023
1883.471568	-3.008700	3.327700	-10.011000	26.195005	0.000531	20.700185
1884.472099	-2.991700	3.329500	-9.958700	26.162348	0.000532	20.709571
1885.472288	-2.980300	3.330000	-9.922400	26.200545	0.000532	20.687259
1886.472232	-3.001600	3.329700	-9.994000	26.187748	0.000531	20.697161
1887.475505	-2.974900	3.328800	-9.901600	26.209877	0.000532	20.701380
1888.472229	-3.007300	3.328000	-10.007000	26.194931	0.000527	20.714337
1889.472558	-2.991600	3.327500	-9.952900	26.215735	0.000527	20.702525
1890.475467	-2.968200	3.328100	-9.877300	26.264187	0.000528	20.704274
1891.475350	-3.000600	3.325900	-9.978500	26.276870	0.000529	20.720340
1892.486397	-3.001600	3.325300	-9.978500	26.294775	0.000527	20.705616
1893.474553	-3.006500	3.326400	-9.998400	26.336115	0.000527	20.699746
1894.476736	-2.988400	3.326300	-9.939300	26.325589	0.000526	20.706237
1895.474571	-2.976000	3.327400	-9.901400	26.308978	0.000527	20.717520
1896.474005	-3.001200	3.324600	-9.976400	26.295239	0.000526	20.701815
1897.475136	-2.992500	3.324400	-9.947500	26.313144	0.000526	20.686142
1898.476180	-2.980700	3.324700	-9.908700	26.324914	0.000526	20.693705
1899.476215	-2.982500	3.323800	-9.912500	26.304155	0.000523	20.711724
1900.477399	-3.000300	3.323000	-9.969100	26.304081	0.000524	20.709279
1901.485284	-3.020100	3.322100	-10.032000	26.297972	0.000524	20.698872
1902.476770	-2.997700	3.322600	-9.959300	26.298444	0.000523	20.710726
1903.478453	-2.990600	3.322900	-9.935900	26.259049	0.000521	20.699110
1904.477112	-2.980400	3.324200	-9.906700	26.234342	0.000519	20.678548
1905.479671	-2.988200	3.321700	-9.923700	26.210978	0.000520	20.693950
1906.476455	-3.004600	3.321800	-9.979600	26.188622	0.000521	20.707523
1907.476122	-3.016900	3.320100	-10.015000	26.198839	0.000520	20.693606
1908.484035	-3.004500	3.320900	-9.976400	26.184375	0.000520	20.700410
1909.478753	-3.011100	3.319400	-9.994100	26.156689	0.000523	20.692503
1910.479771	-3.011900	3.319700	-9.997600	26.138954	0.000520	20.715461
1911.478890	-3.003800	3.319500	-9.969800	26.178835	0.000519	20.693420
1912.478905	-3.007100	3.318900	-9.979800	26.207398	0.000519	20.690354
1913.482902	-2.992500	3.319800	-9.933700	26.192925	0.000518	20.693353
1914.480715	-2.996400	3.318300	-9.941900	26.202281	0.000519	20.694695
1915.480699	-3.004500	3.317300	-9.965900	26.208912	0.000516	20.693771
1916.479406	-2.995700	3.318600	-9.940700	26.195780	0.000518	20.692904
1917.479995	-2.989200	3.318700	-9.919400	26.206675	0.000514	20.691523
1918.482873	-2.985400	3.318900	-9.907600	26.234489	0.000516	20.686282
1919.480412	-2.982400	3.317000	-9.891500	26.280980	0.000514	20.696019
1920.480927	-2.976200	3.319400	-9.878100	26.307947	0.000515	20.685187
1921.479095	-2.990700	3.317000	-9.919300	26.350531	0.000515	20.667290
1922.479584	-2.962300	3.317500	-9.825300	26.388346	0.000514	20.694867
1923.484289	-2.997000	3.316000	-9.937400	26.414685	0.000512	20.687199
1924.480214	-3.007700	3.315600	-9.971000	26.433807	0.000512	20.700730
1925.482660	-3.001100	3.314200	-9.945400	26.424022	0.000512	20.694688
1926.480362	-2.999100	3.314500	-9.939600	26.421020	0.000514	20.701155
1927.479762	-2.983500	3.315200	-9.889300	26.353281	0.000511	20.700877
1928.482524	-2.978100	3.315500	-9.872300	26.305151	0.000510	20.700870
1929.483092	-2.992800	3.313900	-9.916000	26.287229	0.000509	20.691393
1930.482279	-3.007800	3.312700	-9.963300	26.331872	0.000510	20.698801
1931.482683	-2.991100	3.313300	-9.908900	26.317320	0.000508	20.691762
1932.480258	-3.005700	3.313500	-9.958700	26.313521	0.000507	20.692212
1933.481348	-2.982300	3.312000	-9.876900	26.314188	0.000508	20.691934
1934.484765	-3.003100	3.310800	-9.941500	26.311001	0.000507	20.687308
1935.486092	-3.017100	3.311400	-9.990000	26.324641	0.000506	20.695801
1936.480887	-2.993900	3.312000	-9.915300	26.363377	0.000504	20.701067
1937.481113	-3.003100	3.310200	-9.940100	26.373431	0.000506	20.678453
1938.482526	-2.981100	3.312100	-9.873000	26.434110	0.000505	20.685387
1939.481089	-3.013800	3.309900	-9.975100	26.438779	0.000502	20.682018
1940.485148	-3.023400	3.307800	-9.999200	26.438447	0.000505	20.701601
1941.483529	-2.997600	3.309900	-9.921100	26.415785	0.000504	20.691151
1942.492584	-3.007400	3.309200	-9.950700	26.372750	0.000505	20.701952
1943.485419	-2.983300	3.307800	-9.867700	26.384967	0.000500	20.715180
1944.483988	-2.980400	3.309900	-9.863400	26.388587	0.000501	20.720716
1945.489822	-2.982700	3.309000	-9.868900	26.399787	0.000501	20.706841
1946.484615	-2.998400	3.307600	-9.917300	26.401692	0.000500	20.707333
1947.484910	-2.999100	3.307700	-9.917900	26.382447	0.000498	20.705060
1948.486313	-3.002900	3.306600	-9.927300	26.365439	0.000500	20.714520
1949.486504	-2.963900	3.308200	-9.803000	26.339613	0.000499	20.708004
1950.485145	-2.983100	3.306800	-9.862900	26.307628	0.000496	20.704309
1951.487543	-2.985600	3.306400	-9.870700	26.313559	0.000497	20.689405
1952.486394	-2.987300	3.306500	-9.876900	26.302376	0.000495	20.704720
1953.485563	-2.978700	3.305700	-9.845000	26.316359	0.000496	20.693167
1954.487391	-3.006600	3.304800	-9.934700	26.350254	0.000496	20.703051
1955.491570	-3.004300	3.304800	-9.926900	26.376073	0.000496	20.706241
1956.489793	-2.999400	3.305000	-9.912500	26.399288	0.000495	20.703494
1957.487186	-3.013900	3.302800	-9.952800	26.415866	0.000496	20.703560
1958.488189	-3.019600	3.303600	-9.974600	26.440226	0.000494	20.718088
1959.487402	-2.999900	3.304400	-9.911600	26.486033	0.000495	20.711499
1960.490871	-3.004800	3.303300	-9.924200	26.531667	0.000494	20.704737
1961.490378	-3.023600	3.301400	-9.980900	26.533278	0.000492	20.691656
1962.495296	-2.989200	3.303700	-9.874000	26.534344	0.000492	20.730189
1963.493074	-2.978600	3.303200	-9.838700	26.540965	0.000491	20.712661
1964.490906	-2.987400	3.301800	-9.862700	26.529228	0.000490	20.717459
1965.490430	-3.004100	3.302000	-9.917600	26.506366	0.000490	20.695900
1966.493092	-3.006000	3.301100	-9.921900	26.431979	0.000491	20.707428
1967.492179	-2.991600	3.301200	-9.874200	26.403764	0.000491	20.714158
1968.490846	-2.983100	3.300100	-9.843400	26.368161	0.000488	20.703030
1969.492138	-2.979500	3.300500	-9.832500	26.350184	0.000489	20.699187
1970.492531	-2.982400	3.299900	-9.840600	26.350429	0.000488	20.707494
1971.492671	-2.974000	3.299200	-9.811200	26.379459	0.000486	20.709170
1972.498320	-2.976300	3.298400	-9.816200	26.340853	0.000485	20.708302
1973.493902	-3.002100	3.298400	-9.899300	26.363915	0.000485	20.723894
1974.496668	-2.989100	3.298700	-9.858800	26.425000	0.000486	20.714639
1975.495331	-2.997200	3.298400	-9.884400	26.477259	0.000483	20.716430
1976.497313	-3.001100	3.298200	-9.897100	26.528970	0.000484	20.732373
1977.496932	-2.977800	3.298900	-9.822200	26.543243	0.000484	20.716374
1978.495174	-3.002100	3.296900	-9.896600	26.531880	0.000481	20.708745
1979.493505	-3.018000	3.295900	-9.944800	26.546870	0.000483	20.701527
1980.496326	-2.976400	3.297300	-9.812100	26.522041	0.000481	20.713079
1981.495658	-2.986900	3.295800	-9.843600	26.492225	0.000480	20.711558
1982.496542	-2.980500	3.296500	-9.824400	26.483066	0.000481	20.712784
1983.497855	-2.992800	3.295600	-9.862600	26.508263	0.000480	20.740958
1984.496644	-2.994700	3.294700	-9.865800	26.453861	0.000479	20.704291
1985.497567	-2.989700	3.295000	-9.849600	26.445093	0.000479	20.713972
1986.496235	-3.005000	3.293700	-9.897100	26.392435	0.000479	20.701822
1987.496915	-3.009700	3.292800	-9.908700	26.399529	0.000479	20.715117
1988.496279	-3.011900	3.293100	-9.917900	26.436252	0.000476	20.740649
1989.497190	-3.016700	3.292700	-9.932300	26.484695	0.000476	20.713473
1990.501132	-2.980400	3.294200	-9.817500	26.509249	0.000477	20.727723
1991.497595	-3.004700	3.292800	-9.893900	26.487990	0.000477	20.723424
1992.498044	-3.004300	3.290800	-9.885800	26.484443	0.000476	20.725074
1993.498799	-3.016400	3.290300	-9.923400	26.430665	0.000474	20.708004
1994.496416	-2.998400	3.291900	-9.869300	26.423711	0.000475	20.708127
1995.501201	-3.002200	3.290200	-9.876700	26.423858	0.000473	20.740045
1996.497680	-3.019500	3.289600	-9.931400	26.423955	0.000473	20.730659
1997.497366	-3.016900	3.290100	-9.924900	26.411837	0.000473	20.708520
1998.497073	-3.012200	3.289200	-9.906900	26.406022	0.000470	20.726385
1999.501277	-3.035100	3.288500	-9.979900	26.430529	0.000471	20.714031
2000.500119	-3.003300	3.289700	-9.878900	26.446592	0.000471	20.725436
2001.498548	-3.019500	3.287600	-9.926000	26.428991	0.000470	20.721495
2002.502073	-3.039000	3.287400	-9.989600	26.444234	0.000471	20.709788
2003.498705	-3.012000	3.288800	-9.904900	26.467398	0.000469	20.727856
2004.503974	-3.001800	3.287900	-9.868300	26.458484	0.000467	20.713206
2005.502103	-2.994400	3.288200	-9.845400	26.464739	0.000467	20.716174
2006.501741	-3.000100	3.286000	-9.856300	26.433733	0.000465	20.725788
2007.502715	-2.989200	3.288000	-9.827400	26.443461	0.000466	20.721815
2008.501158	-3.006700	3.286000	-9.877800	26.483779	0.000467	20.742900
2009.502243	-2.996000	3.285900	-9.843400	26.499622	0.000466	20.737013
2010.501612	-2.983000	3.286600	-9.802300	26.532195	0.000466	20.728028
2011.501369	-2.997300	3.287100	-9.851200	26.550022	0.000465	20.751639
2012.504568	-2.989100	3.285500	-9.819700	26.590783	0.000464	20.721488
2013.502565	-2.981200	3.284700	-9.791800	26.562108	0.000464	20.744821
2014.501580	-3.019100	3.283500	-9.912300	26.537384	0.000464	20.744151
2015.503029	-2.998700	3.284500	-9.848700	26.522233	0.000462	20.734611
2016.503769	-3.000900	3.283700	-9.852300	26.520378	0.000462	20.715675
2017.503900	-2.971400	3.283300	-9.754500	26.533359	0.000463	20.750536
2018.504257	-3.023000	3.283000	-9.923700	26.545029	0.000459	20.748516
2019.502720	-3.005500	3.282600	-9.864900	26.558879	0.000457	20.735886
2020.505745	-3.011000	3.282100	-9.880300	26.587285	0.000459	20.740733
2021.504879	-2.993400	3.282300	-9.824200	26.632566	0.000457	20.730775
2022.504590	-3.039100	3.279800	-9.966400	26.667916	0.000460	20.750666
2023.504352	-3.006200	3.281200	-9.863100	26.655108	0.000456	20.755334
2024.504623	-3.000500	3.280100	-9.841000	26.623929	0.000455	20.741060
2025.504546	-2.986100	3.281600	-9.798900	26.577031	0.000454	20.753659
2026.509508	-3.012800	3.280900	-9.884200	26.529438	0.000456	20.739957
2027.505650	-3.001600	3.280000	-9.843800	26.501859	0.000454	20.725036
2028.512593	-3.010200	3.278900	-9.869100	26.490446	0.000454	20.730635
2029.506241	-3.010300	3.278900	-9.868700	26.513229	0.000452	20.743104
2030.509718	-3.003800	3.278200	-9.845900	26.530787	0.000455	20.747477
2031.511346	-3.019500	3.277500	-9.895400	26.552111	0.000452	20.748049
2032.507015	-3.000100	3.278300	-9.834000	26.589920	0.000453	20.757132
2033.511545	-3.002800	3.278100	-9.842700	26.623961	0.000450	20.751049
2034.508674	-3.003100	3.278900	-9.846000	26.660977	0.000449	20.744165
2035.509945	-2.995300	3.278600	-9.818600	26.670997	0.000449	20.750445
2036.513409	-2.994100	3.277200	-9.811700	26.673907	0.000448	20.741042
2037.510894	-3.029200	3.274600	-9.918800	26.670435	0.000449	20.738499
2038.508901	-3.009200	3.274900	-9.853900	26.686146	0.000447	20.759036
2039.512216	-3.008500	3.275500	-9.853600	26.709189	0.000448	20.744270
2040.508820	-3.007800	3.276100	-9.853100	26.704515	0.000445	20.755218
2041.510138	-2.977000	3.276200	-9.751800	26.685031	0.000447	20.745587
2042.513972	-3.013300	3.273800	-9.863200	26.667703	0.000446	20.755193
2043.510506	-3.021800	3.274700	-9.894400	26.625107	0.000446	20.761210
2044.513119	-3.003800	3.273200	-9.831900	26.618723	0.000443	20.753845
2045.513230	-3.023300	3.272900	-9.893000	26.611477	0.000444	20.770268
2046.511825	-2.977800	3.273600	-9.747600	26.643152	0.000443	20.764178
2047.513587	-3.000900	3.272400	-9.819200	26.652463	0.000444	20.750778
2048.516400	-2.995300	3.272400	-9.801200	26.701035	0.000442	20.764048
2049.513059	-3.020300	3.272000	-9.881200	26.702579	0.000440	20.764178
2050.513774	-2.995600	3.271700	-9.800000	26.687512	0.000441	20.751874
2051.513896	-3.003800	3.272200	-9.828500	26.658815	0.000439	20.757638
2052.513379	-3.003100	3.271100	-9.822400	26.659880	0.000440	20.748278
2053.518689	-3.018000	3.270300	-9.868400	26.684154	0.000440	20.736644
2054.514133	-2.996800	3.270700	-9.800700	26.699491	0.000438	20.767712
2055.520027	-2.984600	3.271600	-9.763300	26.681244	0.000438	20.753160
2056.515975	-3.012000	3.270100	-9.848800	26.666274	0.000436	20.758024
2057.515980	-3.039400	3.268600	-9.932600	26.661557	0.000436	20.746644
2058.517426	-3.007600	3.268200	-9.828500	26.653214	0.000437	20.767181
2059.516366	-2.993200	3.269100	-9.784000	26.645538	0.000436	20.773215
2060.516468	-2.998000	3.268300	-9.797000	26.627462	0.000437	20.773535
2061.517189	-2.988000	3.267300	-9.761200	26.621354	0.000433	20.757438
2062.519475	-3.012000	3.266500	-9.837300	26.579368	0.000432	20.753163
2063.520866	-3.026200	3.265100	-9.880100	26.566926	0.000433	20.767209
2064.522499	-3.003700	3.266100	-9.809400	26.573156	0.000433	20.768256
2065.519340	-2.997100	3.267500	-9.790900	26.558013	0.000429	20.763465
2066.521427	-3.010200	3.265200	-9.827200	26.532754	0.000431	20.780275
2067.523198	-2.997300	3.266900	-9.790600	26.513781	0.000430	20.799136
2068.520530	-2.994400	3.264400	-9.773300	26.522174	0.000427	20.768217
2069.524490	-2.991900	3.265300	-9.767100	26.551144	0.000429	20.782165
2070.521599	-2.994400	3.264800	-9.774100	26.610527	0.000427	20.775003
2071.521083	-2.984500	3.263500	-9.738900	26.643334	0.000428	20.757723
2072.521517	-2.989900	3.263500	-9.757000	26.698070	0.000427	20.785723
2073.521369	-2.994600	3.262300	-9.769100	26.709804	0.000426	20.790883
2074.526274	-3.009000	3.262300	-9.814500	26.699764	0.000427	20.786004
2075.523646	-2.989700	3.261800	-9.750600	26.726825	0.000424	20.797089
2076.525063	-3.002300	3.261600	-9.790600	26.728607	0.000426	20.784181
2077.523259	-3.017900	3.261300	-9.840600	26.782517	0.000424	20.784803
2078.526106	-3.025800	3.260000	-9.862900	26.812049	0.000424	20.778460
2079.523905	-2.979300	3.261400	-9.715300	26.800951	0.000422	20.778207
2080.526389	-2.995200	3.260900	-9.765500	26.802285	0.000421	20.786661
2081.524337	-2.994500	3.261200	-9.764400	26.832680	0.000421	20.784979
2082.522886	-2.999200	3.260600	-9.777700	26.833151	0.000421	20.771228
2083.524209	-2.973900	3.259500	-9.692500	26.810509	0.000419	20.786868
2084.527687	-2.994300	3.260100	-9.761100	26.791823	0.000419	20.782780
2085.528924	-3.010000	3.260000	-9.810900	26.774668	0.000420	20.800145
2086.527508	-3.002400	3.258600	-9.782900	26.753016	0.000418	20.802558
2087.529659	-2.988400	3.257400	-9.733100	26.774881	0.000418	20.807946
2088.527147	-2.987700	3.258100	-9.732200	26.819057	0.000418	20.794041
2089.524667	-3.013400	3.256800	-9.813000	26.820105	0.000417	20.792724
2090.527473	-3.003900	3.257100	-9.783700	26.776638	0.000416	20.789798
2091.525531	-3.007600	3.256200	-9.792100	26.760523	0.000415	20.789717
2092.528669	-3.000100	3.256400	-9.768700	26.729366	0.000413	20.815764
2093.525059	-3.003100	3.256100	-9.777900	26.702312	0.000413	20.810376
2094.526787	-2.978400	3.255900	-9.696800	26.677989	0.000411	20.787346
2095.531581	-3.017600	3.254300	-9.818400	26.667215	0.000412	20.804490
2096.526380	-3.025300	3.254200	-9.843600	26.692400	0.000412	20.803731
2097.528819	-3.006600	3.254600	-9.785100	26.680138	0.000411	20.796145
2098.526391	-3.021300	3.253700	-9.828700	26.685546	0.000410	20.781193
2099.528835	-3.008600	3.253600	-9.788500	26.714934	0.000407	20.804100
2100.527250	-3.008200	3.253300	-9.785400	26.707234	0.000409	20.804894
2101.532040	-2.977300	3.254600	-9.688700	26.702721	0.000407	20.807943
2102.528712	-3.019800	3.251800	-9.818900	26.721530	0.000408	20.796507
2103.529927	-3.024600	3.251100	-9.832400	26.773935	0.000408	20.788976
2104.529380	-3.000100	3.252600	-9.757600	26.790385	0.000406	20.792714
2105.529776	-3.009900	3.250700	-9.783400	26.834389	0.000406	20.803292
2106.535369	-3.001900	3.252000	-9.761500	26.842437	0.000405	20.807591
2107.532495	-2.981700	3.250800	-9.691500	26.859308	0.000404	20.823133
2108.536335	-3.001500	3.250900	-9.756300	26.845437	0.000402	20.816772
2109.533593	-3.003800	3.250400	-9.762600	26.873927	0.000404	20.827874
2110.534038	-3.002900	3.248600	-9.753100	26.856325	0.000402	20.828194
2111.533767	-3.008200	3.248700	-9.771700	26.819696	0.000401	20.808908
2112.535254	-2.992400	3.249000	-9.720900	26.828503	0.000401	20.838625
2113.534577	-3.000400	3.248300	-9.745300	26.819868	0.000400	20.810503
2114.535597	-3.002300	3.246800	-9.746900	26.841585	0.000398	20.808631
2115.535237	-3.000300	3.248500	-9.745500	26.828111	0.000399	20.816895
2116.536252	-3.006400	3.245700	-9.757700	26.845731	0.000398	20.822757
2117.541847	-3.002800	3.246600	-9.747800	26.867025	0.000397	20.823779
2118.535771	-2.980800	3.246000	-9.674100	26.922489	0.000398	20.833083
2119.538451	-2.987800	3.245900	-9.696700	26.960285	0.000395	20.831734
2120.536139	-2.993400	3.245200	-9.712600	26.990143	0.000396	20.829992
2121.536824	-2.972500	3.245500	-9.646000	27.000345	0.000395	20.836932
2122.541799	-3.018500	3.244700	-9.793100	27.028782	0.000392	20.824278
2123.538124	-3.017600	3.242700	-9.783300	27.103225	0.000394	20.805737
2124.539956	-2.997300	3.243800	-9.721300	27.113517	0.000393	20.820355
2125.538878	-3.001400	3.242500	-9.730100	27.088677	0.000392	20.821925
2126.538809	-3.026300	3.242400	-9.810300	27.111753	0.000390	20.818107
2127.543276	-3.002700	3.242300	-9.734300	27.114191	0.000391	20.839524
2128.545635	-3.016900	3.242300	-9.780100	27.152151	0.000391	20.836451
2129.540621	-3.004600	3.242300	-9.741300	27.157061	0.000390	20.827165
2130.540987	-3.019100	3.239700	-9.780400	27.198675	0.000387	20.829666
2131.540415	-3.000400	3.241200	-9.724200	27.200040	0.000389	20.823453
2132.542620	-2.990000	3.241900	-9.692800	27.200082	0.000388	20.843883
2133.545158	-2.981100	3.240600	-9.659200	27.179120	0.000387	20.850299
2134.541507	-3.051900	3.237500	-9.878800	27.156093	0.000386	20.839942
2135.548699	-2.974600	3.240300	-9.637600	27.174626	0.000385	20.838193
2136.543178	-2.996400	3.238600	-9.702600	27.163703	0.000387	20.833845
2137.542743	-2.970500	3.239000	-9.620100	27.194492	0.000384	20.823562
2138.547054	-2.974600	3.238700	-9.633200	27.216526	0.000384	20.850465
2139.547891	-2.980700	3.237700	-9.649200	27.221289	0.000383	20.841031
2140.545216	-2.987400	3.237700	-9.670700	27.232756	0.000382	20.839289
2141.544449	-2.947300	3.239800	-9.547200	27.225329	0.000384	20.851733
2142.543406	-2.990000	3.236000	-9.674900	27.257855	0.000383	20.844621
2143.546112	-2.992900	3.235600	-9.682800	27.258724	0.000380	20.829849
2144.546900	-2.993600	3.235600	-9.685200	27.270809	0.000380	20.827780
2145.546061	-2.987700	3.236400	-9.668700	27.245121	0.000379	20.823752
2146.546245	-2.992500	3.235300	-9.680800	27.224355	0.000377	20.834632
2147.545459	-2.988100	3.235000	-9.666300	27.218991	0.000379	20.814065
2148.545348	-2.985600	3.234900	-9.657100	27.231094	0.000377	20.817704
2149.547984	-2.975900	3.233700	-9.622600	27.200362	0.000376	20.830888
2150.544937	-2.988100	3.233000	-9.658600	27.185846	0.000375	20.843314
2151.545620	-3.000000	3.231700	-9.693800	27.188227	0.000375	20.833382
2152.546387	-2.992700	3.231200	-9.668000	27.162470	0.000374	20.838770
2153.548287	-2.996500	3.230500	-9.679400	27.161081	0.000374	20.811294
2154.546581	-3.011300	3.229900	-9.724900	27.133119	0.000372	20.853819
2155.545916	-3.035500	3.230000	-9.803500	27.106969	0.000372	20.811399
2156.545692	-3.034600	3.229900	-9.800500	27.103533	0.000371	20.827383
2157.549720	-2.997900	3.229300	-9.680100	27.120463	0.000371	20.819281
2158.547075	-2.991500	3.230300	-9.662600	27.189568	0.000370	20.810075
2159.546527	-2.974600	3.228700	-9.603700	27.215814	0.000370	20.817033
2160.550258	-3.012600	3.228100	-9.724500	27.243057	0.000369	20.809822
2161.548685	-2.980900	3.230500	-9.628200	27.255044	0.000368	20.818086
2162.550856	-2.978800	3.229100	-9.617700	27.213034	0.000368	20.818505
2163.547804	-2.995400	3.229100	-9.671900	27.177158	0.000366	20.798541
2164.547875	-2.996100	3.226300	-9.665300	27.132005	0.000364	20.830888
2165.551743	-3.000300	3.227100	-9.681300	27.100338	0.000363	20.807100
2166.550148	-2.983300	3.227000	-9.626200	27.088845	0.000365	20.827310
2167.552113	-2.987900	3.225100	-9.634900	27.094467	0.000363	20.811627
2168.551720	-2.995500	3.224000	-9.656700	27.099119	0.000362	20.815358
2169.553350	-2.992100	3.224900	-9.648500	27.140858	0.000360	20.800438
2170.552956	-3.010800	3.226000	-9.710900	27.179368	0.000362	20.815463
2171.555590	-2.983000	3.225900	-9.621600	27.222365	0.000360	20.800863
2172.552533	-2.988800	3.224000	-9.635200	27.272988	0.000358	20.784453
2173.553943	-2.999400	3.224100	-9.669500	27.267870	0.000359	20.803486
2174.555837	-2.998300	3.222400	-9.660600	27.287220	0.000357	20.804459
2175.553070	-3.016000	3.222100	-9.717500	27.300792	0.000360	20.797248
2176.557346	-2.978600	3.222500	-9.597000	27.340865	0.000357	20.811480
2177.556719	-3.013300	3.221900	-9.706700	27.378970	0.000356	20.800501
2178.556802	-3.004900	3.222800	-9.682800	27.382294	0.000356	20.762118
2179.556712	-2.982200	3.219600	-9.600000	27.357515	0.000356	20.801203
2180.553502	-2.980600	3.220800	-9.599200	27.286194	0.000354	20.779244
2181.555588	-2.999400	3.219700	-9.656300	27.203602	0.000353	20.794793
2182.553683	-3.003600	3.217300	-9.662800	27.165630	0.000353	20.779835
2183.558194	-3.010500	3.217300	-9.684800	27.151470	0.000352	20.798783
2184.555244	-2.975500	3.220600	-9.581500	27.174748	0.000354	20.782367
2185.556248	-2.992600	3.218200	-9.629800	27.161995	0.000352	20.800360
2186.556159	-3.007000	3.217700	-9.674400	27.124954	0.000350	20.802934
2187.558149	-3.001700	3.216700	-9.653600	27.090018	0.000352	20.807153
2188.555743	-2.970300	3.217300	-9.555700	27.086417	0.000348	20.785514
2189.561746	-3.006800	3.215300	-9.666100	27.080669	0.000350	20.787319
2190.557573	-2.995500	3.217100	-9.635100	27.105006	0.000348	20.786666
2191.557327	-2.990700	3.215300	-9.615100	27.136471	0.000348	20.779904
2192.556408	-2.997700	3.215300	-9.638100	27.144884	0.000347	20.790262
2193.556241	-2.973300	3.215600	-9.559900	27.168260	0.000348	20.786746
2194.558528	-2.991100	3.215100	-9.615600	27.186914	0.000346	20.773740
2195.556499	-3.011100	3.212400	-9.671900	27.179109	0.000346	20.776796
2196.559390	-3.000400	3.213500	-9.641000	27.201217	0.000344	20.790023
2197.557265	-2.989000	3.213100	-9.603200	27.200030	0.000344	20.776501
2198.560733	-2.994400	3.212300	-9.616800	27.189805	0.000341	20.774277
2199.559060	-3.000000	3.212300	-9.636000	27.172963	0.000344	20.776778
2200.558668	-3.003300	3.210600	-9.641500	27.164673	0.000341	20.779820
2201.558475	-3.034900	3.210100	-9.742100	27.144646	0.000342	20.781014
2202.558609	-2.992900	3.210300	-9.606300	27.180879	0.000341	20.775257
2203.559559	-2.992700	3.210500	-9.605800	27.170753	0.000342	20.787357
2204.560887	-3.000600	3.210500	-9.632300	27.190228	0.000338	20.773754
2205.561652	-3.022300	3.208700	-9.696900	27.204621	0.000338	20.773533
2206.559114	-3.008600	3.208700	-9.652700	27.223478	0.000338	20.791077
2207.558788	-3.010300	3.208000	-9.656200	27.259304	0.000339	20.782542
2208.564053	-3.008100	3.208400	-9.650200	27.297803	0.000339	20.767688
2209.563401	-2.997300	3.206800	-9.611000	27.297607	0.000336	20.775552
2210.560212	-3.008600	3.206500	-9.645500	27.318078	0.000336	20.781446
2211.561619	-2.994000	3.206800	-9.599100	27.355738	0.000334	20.771439
2212.561495	-2.990800	3.205200	-9.585100	27.395679	0.000334	20.763730
2213.562024	-2.977200	3.205200	-9.541300	27.426964	0.000335	20.764857
2214.564391	-3.000400	3.205200	-9.616200	27.426346	0.000334	20.791263
2215.563890	-3.006600	3.203700	-9.630900	27.442866	0.000334	20.772795
2216.565355	-3.001300	3.204700	-9.617100	27.454471	0.000333	20.752701
2217.562916	-3.024600	3.202800	-9.686000	27.458841	0.000330	20.781755
2218.563972	-3.010200	3.203200	-9.640700	27.486396	0.000331	20.765381
2219.566938	-3.000900	3.203000	-9.610400	27.486121	0.000330	20.788337
2220.563983	-2.999200	3.202100	-9.602000	27.444678	0.000330	20.762764
2221.563195	-3.002100	3.200400	-9.607200	27.456363	0.000328	20.770252
2222.563548	-3.017500	3.199700	-9.654300	27.453168	0.000327	20.771306
2223.563883	-3.002000	3.199400	-9.603600	27.442744	0.000328	20.754180
2224.563960	-2.971300	3.200400	-9.508100	27.393800	0.000328	20.768004
2225.568094	-3.010500	3.199200	-9.629200	27.336175	0.000324	20.776890
2226.570930	-3.006700	3.199100	-9.616100	27.325536	0.000324	20.764766
2227.565619	-3.003700	3.198000	-9.604900	27.306381	0.000326	20.756877
2228.566908	-3.028300	3.198400	-9.685000	27.306682	0.000323	20.760972
2229.566937	-3.006800	3.198100	-9.614900	27.332575	0.000325	20.743397
2230.569442	-2.996000	3.198700	-9.582100	27.375045	0.000322	20.747239
2231.567252	-2.981300	3.198800	-9.535900	27.367755	0.000324	20.750811
2232.568893	-2.994900	3.194900	-9.567400	27.401642	0.000322	20.773996
2233.567883	-2.995900	3.196800	-9.576300	27.394352	0.000321	20.775197
2234.568027	-3.008700	3.194500	-9.610200	27.381773	0.000319	20.772974
2235.570318	-3.005700	3.194900	-9.602300	27.372364	0.000319	20.766353
2236.567643	-3.012300	3.193100	-9.618000	27.330389	0.000318	20.748785
2237.567603	-3.019300	3.193400	-9.640100	27.331601	0.000318	20.765177
2238.568130	-2.983600	3.193700	-9.527700	27.343605	0.000317	20.754966
2239.569518	-3.014100	3.193900	-9.625000	27.347732	0.000316	20.787094
2240.568755	-3.000100	3.193200	-9.577400	27.336412	0.000317	20.761482
2241.572682	-3.011900	3.193100	-9.615600	27.363328	0.000314	20.748728
2242.571065	-3.017200	3.192000	-9.629200	27.414385	0.000315	20.763582
2243.571559	-3.013800	3.191100	-9.616300	27.437430	0.000314	20.747885
2244.572302	-2.990600	3.191800	-9.543300	27.465433	0.000314	20.767523
2245.571689	-3.009200	3.190200	-9.599500	27.470121	0.000314	20.755644
2246.575060	-2.999900	3.189100	-9.565500	27.466675	0.000314	20.759290
2247.574431	-2.981500	3.190200	-9.510900	27.468512	0.000313	20.762086
2248.576012	-2.994300	3.188500	-9.546500	27.436243	0.000311	20.768029
2249.572470	-2.975600	3.188200	-9.486100	27.438219	0.000308	20.753895
2250.572394	-3.001200	3.188300	-9.568600	27.438171	0.000312	20.747682
2251.575376	-2.967600	3.189000	-9.461100	27.442891	0.000310	20.756698
2252.578104	-3.006800	3.188300	-9.584500	27.435350	0.000310	20.751008
2253.573728	-3.009100	3.185700	-9.585400	27.446741	0.000309	20.745873
2254.573663	-3.002900	3.185400	-9.564800	27.428214	0.000309	20.756631
2255.574204	-2.988400	3.184800	-9.516900	27.419932	0.000308	20.735971
2256.574099	-3.002600	3.185100	-9.561800	27.428067	0.000306	20.759329
2257.576287	-2.992100	3.185000	-9.528500	27.420421	0.000307	20.744524
2258.573439	-3.007900	3.184500	-9.578400	27.420159	0.000305	20.758011
2259.577385	-3.009100	3.181500	-9.571900	27.466867	0.000304	20.766121
2260.573217	-2.966100	3.184500	-9.444600	27.467387	0.000304	20.768067
2261.573176	-3.030300	3.183900	-9.647700	27.491552	0.000304	20.750179
2262.576368	-3.014400	3.181000	-9.588400	27.501124	0.000303	20.746533
2263.574393	-2.982000	3.181900	-9.487400	27.473448	0.000303	20.725325
2264.574379	-2.992900	3.183300	-9.526400	27.409790	0.000302	20.743312
2265.575517	-2.996400	3.181900	-9.533200	27.395860	0.000303	20.754429
2266.574985	-2.983400	3.180500	-9.488100	27.364200	0.000301	20.756245
2267.575598	-3.000800	3.179000	-9.538400	27.401938	0.000300	20.746318
2268.579221	-2.987800	3.178800	-9.495700	27.426593	0.000300	20.724180
2269.575903	-2.987900	3.178500	-9.495800	27.447313	0.000298	20.737439
2270.576131	-3.010000	3.178100	-9.564600	27.436351	0.000300	20.728307
2271.576494	-3.002400	3.177100	-9.538800	27.427885	0.000298	20.715047
2272.575986	-3.017200	3.179200	-9.591000	27.442901	0.000294	20.737267
2273.581367	-2.986300	3.178000	-9.488500	27.475071	0.000298	20.735967
2274.578747	-2.981700	3.177100	-9.471000	27.516219	0.000299	20.734692
2275.577860	-3.010000	3.173700	-9.551200	27.569674	0.000295	20.757656
2276.575985	-2.980300	3.174000	-9.458000	27.581755	0.000294	20.748475
2277.577255	-2.985700	3.173300	-9.473800	27.564326	0.000297	20.730937
2278.578975	-2.987700	3.174200	-9.482800	27.493880	0.000293	20.740667
2279.577413	-2.973800	3.172900	-9.434400	27.443281	0.000292	20.727218
2280.578613	-3.003400	3.171500	-9.524500	27.409322	0.000293	20.742367
2281.579716	-2.977400	3.170600	-9.439200	27.383570	0.000293	20.730685
2282.577303	-2.997100	3.171200	-9.503800	27.412688	0.000290	20.729631
2283.581389	-2.999100	3.170800	-9.508100	27.436456	0.000292	20.718928
2284.579796	-3.001400	3.169000	-9.509700	27.480433	0.000290	20.715757
2285.577572	-2.982000	3.169200	-9.449900	27.528852	0.000289	20.720375
2286.577740	-2.974000	3.172300	-9.433400	27.577270	0.000291	20.730210
2287.578284	-3.011800	3.168600	-9.542000	27.605373	0.000289	20.726719
2288.577280	-2.966800	3.168500	-9.399500	27.606560	0.000288	20.704204
2289.580547	-3.014200	3.166900	-9.542900	27.623946	0.000288	20.721700
2290.580748	-2.974800	3.166400	-9.418200	27.645776	0.000284	20.732286
2291.577451	-2.989700	3.166900	-9.466100	27.646638	0.000285	20.718928
2292.576923	-3.007900	3.164200	-9.517000	27.678240	0.000287	20.719908
2293.576118	-3.007500	3.163700	-9.512700	27.704278	0.000286	20.729515
2294.580683	-2.965800	3.164600	-9.385100	27.732525	0.000286	20.750354
2295.577635	-3.015900	3.162100	-9.534900	27.732249	0.000283	20.709297
2296.581208	-2.959200	3.163900	-9.362300	27.783623	0.000282	20.728282
2297.579339	-2.991500	3.164100	-9.464600	27.786880	0.000283	20.732507
2298.578264	-2.998700	3.164900	-9.490400	27.737083	0.000282	20.713688
2299.581412	-3.018600	3.161300	-9.540500	27.669514	0.000283	20.726301
2300.583138	-3.015600	3.160000	-9.527500	27.585612	0.000281	20.718215
2301.579531	-3.024100	3.158900	-9.551400	27.494188	0.000280	20.700196
2302.580217	-3.028600	3.158200	-9.563600	27.444279	0.000282	20.713048
2303.579407	-3.013500	3.159700	-9.520400	27.481285	0.000279	20.725149
2304.579861	-2.984700	3.159700	-9.429700	27.486298	0.000279	20.713596
2305.582334	-2.981500	3.159200	-9.418000	27.519019	0.000278	20.709532
2306.581091	-3.000600	3.157300	-9.472000	27.546816	0.000279	20.707629
2307.587376	-3.015400	3.156200	-9.516800	27.527097	0.000278	20.738998
2308.581380	-2.978600	3.156700	-9.401400	27.539901	0.000277	20.703515
2309.581999	-3.006100	3.155800	-9.486000	27.524569	0.000278	20.725549
2310.583641	-2.982400	3.157200	-9.414500	27.460199	0.000277	20.719582
2311.582247	-3.019700	3.153500	-9.521800	27.446961	0.000277	20.705314
2312.581851	-3.022200	3.153200	-9.528000	27.372810	0.000277	20.715117
2313.581899	-2.987400	3.153400	-9.419600	27.347609	0.000277	20.713947
2314.584446	-3.000100	3.152500	-9.456800	27.369217	0.000274	20.727151
2315.583488	-2.985500	3.152900	-9.412600	27.396652	0.000274	20.725353
2316.585908	-2.991100	3.151800	-9.425700	27.434473	0.000274	20.711243
2317.582906	-2.980200	3.151500	-9.392400	27.420414	0.000274	20.694253
2318.584172	-2.978800	3.150700	-9.383100	27.440153	0.000273	20.713638
2319.583673	-2.986700	3.149900	-9.407000	27.432465	0.000273	20.706378
2320.583561	-3.014100	3.147100	-9.484300	27.480164	0.000273	20.715486
2321.588855	-3.016700	3.147300	-9.492300	27.492962	0.000274	20.713189
2322.584402	-3.021000	3.147400	-9.506600	27.500552	0.000271	20.702806
2323.588002	-3.004300	3.146600	-9.452700	27.568040	0.000271	20.724717
2324.584136	-2.989700	3.146900	-9.407400	27.575734	0.000270	20.684565
2325.585536	-2.996800	3.144800	-9.423600	27.587061	0.000269	20.697386
2326.586939	-2.971900	3.146000	-9.348500	27.592325	0.000268	20.689880
2327.585093	-2.993800	3.143200	-9.408800	27.604179	0.000269	20.720776
2328.586906	-3.022000	3.143300	-9.497700	27.633842	0.000268	20.705577
2329.587102	-2.970400	3.143900	-9.336200	27.653088	0.000267	20.697442
2330.586651	-2.984700	3.143200	-9.380000	27.672230	0.000267	20.723344
2331.585917	-3.009400	3.140700	-9.450300	27.697032	0.000265	20.705152
2332.587095	-3.006700	3.140800	-9.442600	27.751745	0.000265	20.691931
2333.585935	-2.998200	3.139400	-9.411800	27.745686	0.000266	20.702904
2334.587386	-3.009400	3.139400	-9.446600	27.704620	0.000265	20.711840
2335.586523	-3.007600	3.139200	-9.439900	27.713144	0.000265	20.708089
2336.587673	-3.018300	3.138500	-9.471400	27.740926	0.000263	20.690052
2337.593263	-3.000900	3.136300	-9.410000	27.768302	0.000263	20.695317
2338.588629	-2.998300	3.136700	-9.404200	27.787693	0.000264	20.711039
2339.591518	-3.003200	3.136600	-9.418400	27.788017	0.000263	20.693821
2340.589036	-2.973100	3.135500	-9.321400	27.756816	0.000262	20.676170
2341.587984	-3.007200	3.134000	-9.423800	27.695968	0.000261	20.701710
2342.588387	-2.978000	3.134800	-9.334600	27.690478	0.000262	20.682433
2343.593884	-2.980800	3.132800	-9.336900	27.711112	0.000262	20.703674
2344.588862	-2.990300	3.131700	-9.363100	27.694296	0.000262	20.690544
2345.588682	-3.016300	3.129900	-9.438800	27.724906	0.000262	20.694320
2346.588810	-2.990700	3.131000	-9.362400	27.730008	0.000259	20.682384
2347.589423	-2.990500	3.129200	-9.357200	27.759238	0.000261	20.692360
2348.591864	-2.989500	3.129000	-9.353500	27.745459	0.000260	20.695089
2349.591027	-2.990700	3.128300	-9.354700	27.738912	0.000259	20.701777
2350.591671	-2.994900	3.128100	-9.367700	27.751009	0.000258	20.689767
2351.593411	-3.018900	3.126000	-9.436100	27.761503	0.000257	20.703175
2352.590961	-2.985800	3.127400	-9.335900	27.766386	0.000259	20.700502
2353.594296	-3.000600	3.126600	-9.380700	27.803136	0.000257	20.685328
2354.592033	-3.025300	3.124300	-9.450300	27.802958	0.000257	20.686097
2355.594692	-3.009800	3.123100	-9.397500	27.807425	0.000257	20.706715
2356.592903	-2.991100	3.123600	-9.342000	27.844149	0.000256	20.691042
2357.591732	-3.025500	3.120600	-9.440400	27.860565	0.000255	20.679588
2358.596054	-2.997200	3.122000	-9.356500	27.857341	0.000256	20.719968
2359.599263	-3.015800	3.122000	-9.413700	27.809163	0.000255	20.697084
2360.592891	-2.992800	3.119900	-9.336300	27.778361	0.000254	20.681731
2361.594929	-2.987900	3.119900	-9.321000	27.749522	0.000254	20.675468
2362.594003	-3.003300	3.119500	-9.367700	27.771276	0.000254	20.684558
2363.593213	-2.997700	3.117800	-9.344700	27.805492	0.000254	20.705718
2364.597178	-2.979200	3.117200	-9.285200	27.819853	0.000255	20.682711
2365.593676	-2.964500	3.118500	-9.243600	27.837229	0.000253	20.691190
2366.595486	-2.991600	3.115900	-9.320400	27.875097	0.000254	20.685205
2367.592747	-2.997100	3.115900	-9.338000	27.871603	0.000254	20.685008
2368.600897	-3.008000	3.114200	-9.366000	27.911923	0.000251	20.685285
2369.599199	-3.015900	3.113500	-9.388700	27.878726	0.000252	20.700238
2370.594903	-3.017200	3.112100	-9.388600	27.853432	0.000252	20.687108
2371.594104	-3.012000	3.112800	-9.374900	27.779861	0.000251	20.693199
2372.596471	-3.026600	3.110000	-9.411300	27.736943	0.000251	20.673715
2373.594368	-3.001500	3.110700	-9.335900	27.704903	0.000251	20.670395
2374.595339	-2.983600	3.111500	-9.281900	27.632442	0.000250	20.671449
2375.601074	-2.991100	3.108300	-9.296100	27.668279	0.000251	20.669103
2376.594406	-2.988300	3.108900	-9.289100	27.669668	0.000251	20.688046
2377.596339	-3.003200	3.106700	-9.329300	27.709370	0.000250	20.675366
2378.594633	-3.005800	3.107200	-9.337200	27.717705	0.000249	20.674270
2379.593998	-3.001700	3.104700	-9.317800	27.721848	0.000251	20.679862
2380.599303	-3.012400	3.104800	-9.351300	27.725300	0.000248	20.673852
2381.601192	-3.001500	3.103100	-9.312400	27.740353	0.000248	20.658178
2382.598165	-3.008000	3.102500	-9.330800	27.789849	0.000248	20.680490
2383.598074	-3.016100	3.102900	-9.358000	27.785487	0.000247	20.702655
2384.598806	-2.971300	3.102300	-9.216600	27.756673	0.000249	20.677923
2385.598504	-3.002800	3.100300	-9.307000	27.755155	0.000250	20.663117
2386.599878	-3.005200	3.098600	-9.310400	27.775715	0.000246	20.680965
2387.599539	-2.983900	3.099500	-9.247300	27.799199	0.000247	20.664768
2388.599795	-2.977000	3.098900	-9.224200	27.819409	0.000248	20.668987
2389.600596	-2.999000	3.097900	-9.289900	27.817874	0.000247	20.681193
2390.600556	-3.016500	3.095700	-9.336800	27.795032	0.000247	20.681439
2391.603672	-3.033400	3.093700	-9.383100	27.802668	0.000246	20.686279
2392.609853	-2.994400	3.094000	-9.263400	27.789720	0.000246	20.685102
2393.608791	-3.027600	3.091800	-9.359100	27.821960	0.000247	20.674874
2394.604976	-2.988800	3.091900	-9.240700	27.810158	0.000247	20.687653
2395.600107	-3.023200	3.090100	-9.340800	27.847230	0.000244	20.680866
2396.604153	-3.003900	3.091500	-9.285600	27.814998	0.000244	20.671660
2397.602546	-2.990100	3.089500	-9.237000	27.810011	0.000245	20.701731
2398.603982	-3.005300	3.087800	-9.279100	27.762173	0.000246	20.673974
2399.601354	-2.968600	3.089700	-9.171000	27.718679	0.000245	20.706072
2400.603495	-2.970700	3.087500	-9.171400	27.715925	0.000244	20.685756
2401.603831	-2.976100	3.087400	-9.187900	27.737435	0.000244	20.692229
2402.605075	-3.000700	3.086700	-9.260600	27.772668	0.000242	20.693547
2403.604328	-2.979300	3.086100	-9.193300	27.821123	0.000244	20.683040
2404.602605	-2.996600	3.083700	-9.239600	27.816631	0.000241	20.710291
2405.603187	-3.016800	3.082200	-9.296600	27.855760	0.000241	20.718851
2406.604880	-3.011100	3.081500	-9.277200	27.846337	0.000243	20.683286
2407.609842	-3.014400	3.079200	-9.281500	27.865182	0.000241	20.694193
2408.606027	-2.998500	3.079600	-9.231900	27.915241	0.000244	20.718025
2409.608234	-3.005100	3.078900	-9.252100	27.920245	0.000240	20.687024
2410.607396	-2.996000	3.077300	-9.219100	27.952059	0.000240	20.685380
2411.607111	-3.003900	3.077300	-9.242800	27.980666	0.000242	20.700424
2412.607729	-3.019500	3.074900	-9.283300	27.994871	0.000242	20.686272
2413.606179	-3.000700	3.074100	-9.222800	27.979968	0.000242	20.699722
2414.608345	-2.975800	3.074600	-9.147800	27.980188	0.000240	20.724127
2415.605639	-3.019200	3.071300	-9.271300	27.967915	0.000241	20.699444
2416.607507	-2.979800	3.073400	-9.156700	27.981741	0.000239	20.693445
2417.609468	-3.004100	3.069900	-9.220600	27.985394	0.000239	20.716090
2418.612092	-3.010100	3.068800	-9.236500	27.962758	0.000241	20.689511
2419.610128	-2.979800	3.068800	-9.143200	27.942146	0.000239	20.692946
2420.609780	-3.012800	3.068900	-9.245000	27.867272	0.000237	20.701039
2421.611315	-2.989100	3.067300	-9.167700	27.805725	0.000236	20.699789
2422.609851	-3.004700	3.066000	-9.211400	27.765978	0.000237	20.710523
2423.613918	-2.994500	3.064100	-9.173000	27.716676	0.000239	20.711643
2424.616523	-2.989700	3.064500	-9.160800	27.681354	0.000237	20.712135
2425.612549	-3.008500	3.061900	-9.210700	27.668223	0.000237	20.700818
2426.609822	-3.020400	3.061100	-9.243900	27.656687	0.000236	20.704857
2427.612307	-3.012300	3.059500	-9.214800	27.698299	0.000237	20.716385
2428.618775	-2.995900	3.059800	-9.166100	27.750544	0.000236	20.689774
2429.616240	-3.009000	3.058200	-9.200600	27.740699	0.000236	20.707843
2430.614401	-3.020000	3.056900	-9.231300	27.755849	0.000236	20.707917
2431.614619	-3.007400	3.057000	-9.191900	27.767458	0.000236	20.715332
2432.614866	-3.005100	3.055500	-9.180700	27.764166	0.000237	20.697793
2433.614939	-3.017300	3.055500	-9.218500	27.785135	0.000238	20.697558
2434.615747	-3.029600	3.053000	-9.247600	27.750642	0.000236	20.716427
2435.613886	-2.989000	3.052900	-9.124300	27.731153	0.000234	20.704875
2436.616374	-3.010700	3.051800	-9.187200	27.673312	0.000235	20.709733
2437.614647	-2.996400	3.050800	-9.140000	27.660816	0.000236	20.716600
2438.615587	-2.993500	3.049100	-9.126700	27.643511	0.000234	20.712936
2439.617014	-2.984000	3.048000	-9.094300	27.641943	0.000236	20.734120
2440.616518	-3.008800	3.047000	-9.167000	27.700819	0.000236	20.707067
2441.619390	-2.981300	3.047300	-9.083800	27.724990	0.000235	20.716217
2442.618335	-2.970900	3.046100	-9.048800	27.788408	0.000236	20.720295
2443.617151	-3.001900	3.043600	-9.135700	27.857941	0.000234	20.718675
2444.618367	-3.012700	3.041800	-9.162900	27.893892	0.000235	20.724513
2445.619956	-3.024800	3.040500	-9.195600	27.973848	0.000236	20.700674
2446.619936	-2.958700	3.040200	-8.994200	27.998943	0.000236	20.730678
2447.620522	-2.986800	3.039100	-9.076500	28.016874	0.000236	20.719329
2448.620682	-2.998400	3.037500	-9.106700	28.030308	0.000236	20.726687
2449.622245	-2.986500	3.037800	-9.071600	28.053487	0.000237	20.694541
2450.625347	-3.006600	3.035700	-9.125900	28.039834	0.000234	20.713990
2451.621748	-2.969800	3.034600	-9.011100	28.033386	0.000235	20.723621
2452.623067	-2.976000	3.034300	-9.028900	28.031972	0.000234	20.723621
2453.620936	-3.004200	3.031500	-9.106500	28.035148	0.000233	20.720179
2454.621062	-2.988000	3.031400	-9.056900	28.085230	0.000235	20.720807
2455.624036	-3.022200	3.028400	-9.151000	28.071173	0.000236	20.722778
2456.623019	-3.016400	3.028100	-9.133200	28.097745	0.000235	20.730562
2457.622837	-3.030700	3.026600	-9.171000	28.111460	0.000233	20.718763
2458.622928	-2.984600	3.026600	-9.032700	28.140443	0.000233	20.754579
2459.622513	-2.985000	3.026200	-9.032300	28.138583	0.000234	20.722360
2460.626836	-2.987700	3.023800	-9.033200	28.113198	0.000233	20.736634
2461.624522	-3.028600	3.022200	-9.152000	28.074704	0.000234	20.734393
2462.626283	-2.987500	3.021900	-9.028000	28.039254	0.000232	20.726684
2463.626442	-3.012700	3.020300	-9.098600	28.004868	0.000231	20.719097
2464.624814	-3.015100	3.018800	-9.101200	27.948340	0.000231	20.736167
2465.633396	-3.003500	3.018800	-9.065600	27.925427	0.000233	20.715001
2466.625710	-3.003900	3.017000	-9.062000	27.901709	0.000233	20.720526
2467.630764	-3.002200	3.014300	-9.048400	27.857442	0.000232	20.741882
2468.627247	-3.020300	3.013300	-9.100200	27.817329	0.000233	20.738496
2469.627011	-3.033600	3.011700	-9.135400	27.853306	0.000233	20.729184
2470.626003	-3.049900	3.010100	-9.179300	27.867886	0.000231	20.741489
2471.627057	-3.016800	3.009800	-9.078900	27.912739	0.000230	20.729258
2472.634684	-2.997200	3.009400	-9.018200	27.961181	0.000233	20.737713
2473.628873	-3.028000	3.007300	-9.103800	27.987170	0.000232	20.735897
2474.627807	-3.015000	3.006700	-9.064800	28.018828	0.000231	20.715131
2475.638734	-2.980600	3.005300	-8.956900	28.066103	0.000232	20.709139
2476.626198	-2.992300	3.003900	-8.986300	28.099472	0.000233	20.730403
2477.628664	-2.981500	3.004600	-8.956200	28.120221	0.000231	20.738015
2478.631404	-3.006100	3.000300	-9.017100	28.139979	0.000231	20.717600
2479.632132	-3.027400	2.998200	-9.075900	28.122527	0.000232	20.751242
2480.629780	-3.009200	2.998900	-9.023700	28.106140	0.000233	20.728106
2481.631956	-2.981500	2.998600	-8.938100	28.116282	0.000231	20.735472
2482.629737	-3.042000	2.994000	-9.106000	28.119523	0.000232	20.742528
2483.630483	-3.002000	2.995200	-8.990900	28.088388	0.000231	20.728254
2484.630891	-3.023700	2.993700	-9.051000	28.083995	0.000232	20.749437
2485.634270	-3.004100	2.992400	-8.987900	28.117542	0.000230	20.741956
2486.630955	-3.004300	2.991000	-8.984700	28.124080	0.000230	20.727674
2487.633059	-2.982100	2.989800	-8.915200	28.161686	0.000231	20.765534
2488.631353	-3.014300	2.986800	-9.002200	28.144584	0.000229	20.742627
2489.631388	-2.968600	2.986900	-8.866200	28.161020	0.000231	20.763441
2490.633130	-3.008500	2.984700	-8.977500	28.140094	0.000230	20.759444
2491.636008	-3.016000	2.983900	-8.998800	28.079958	0.000230	20.749641
2492.645612	-3.013300	2.982100	-8.985000	28.038012	0.000229	20.742504
2493.633016	-3.005500	2.980600	-8.957500	28.022241	0.000231	20.752707
2494.636458	-2.994700	2.981500	-8.927400	27.989096	0.000230	20.765812
2495.632626	-2.997600	2.978000	-8.924500	27.972860	0.000229	20.743779
2496.634398	-2.996600	2.977700	-8.921800	27.960214	0.000230	20.751439
2497.635083	-3.015300	2.975000	-8.969100	27.947600	0.000229	20.742061
2498.635404	-2.979000	2.976400	-8.864600	28.022150	0.000230	20.773479
2499.638624	-3.024300	2.971400	-8.985200	28.033577	0.000230	20.764593
2500.634050	-2.991800	2.972000	-8.889900	28.002293	0.000230	20.750171
2501.636373	-2.989000	2.970800	-8.879100	28.027656	0.000230	20.761003
2502.636895	-3.032700	2.968000	-8.999800	28.051410	0.000229	20.755991
2503.637568	-3.018100	2.967100	-8.954500	28.101890	0.000229	20.755598
2504.641064	-2.988900	2.966200	-8.865000	28.153864	0.000230	20.749599
2505.634182	-3.002900	2.964600	-8.902300	28.217324	0.000230	20.743786
2506.635004	-2.987100	2.963300	-8.850900	28.240969	0.000232	20.750997
2507.636240	-2.991700	2.962300	-8.861400	28.248982	0.000229	20.769022
2508.638003	-3.008400	2.960800	-8.906200	28.217746	0.000231	20.759858
2509.637357	-2.990900	2.958300	-8.846400	28.157339	0.000230	20.768745
2510.641506	-3.003700	2.957300	-8.881700	28.146189	0.000229	20.765106
2511.639011	-3.008600	2.955300	-8.890300	28.173126	0.000231	20.755240
2512.640152	-3.041200	2.953400	-8.980100	28.202260	0.000228	20.764656
2513.637787	-2.997100	2.951800	-8.844600	28.221196	0.000229	20.780876
2514.643818	-3.009900	2.950900	-8.880900	28.264021	0.000227	20.753817
2515.648988	-2.980400	2.951200	-8.794900	28.270694	0.000228	20.760536
2516.641907	-3.006500	2.947800	-8.862000	28.260878	0.000228	20.748756
2517.643841	-2.994700	2.946600	-8.822000	28.212003	0.000228	20.756922
2518.641507	-2.973600	2.945100	-8.756000	28.188926	0.000227	20.764983
2519.643064	-2.993600	2.942900	-8.809100	28.197452	0.000228	20.754126
2520.642852	-3.010500	2.941600	-8.854300	28.228511	0.000228	20.783500
2521.643750	-2.997500	2.940100	-8.811600	28.298130	0.000228	20.781048
2522.642436	-3.016700	2.938500	-8.863100	28.289845	0.000229	20.774129
2523.644532	-3.012200	2.935800	-8.842500	28.314229	0.000228	20.774498
2524.645429	-2.984100	2.935600	-8.759300	28.357828	0.000228	20.775723
2525.645025	-3.014100	2.932800	-8.838300	28.346777	0.000229	20.775976
2526.644277	-2.990900	2.932800	-8.771100	28.372010	0.000228	20.785263
2527.646514	-3.016600	2.930200	-8.838000	28.409510	0.000228	20.748106
2528.648388	-3.007000	2.928900	-8.806000	28.441854	0.000228	20.772615
2529.645919	-2.996500	2.927300	-8.770600	28.438816	0.000229	20.771926
2530.650367	-3.007000	2.925000	-8.794700	28.427612	0.000227	20.776292
2531.646534	-3.001900	2.924700	-8.778800	28.396859	0.000228	20.758601
2532.645850	-3.009300	2.921800	-8.792100	28.316036	0.000228	20.782007
2533.645684	-3.008800	2.920700	-8.786900	28.276631	0.000227	20.794015
2534.646327	-2.995700	2.920100	-8.747100	28.250754	0.000227	20.780763
2535.646555	-3.002600	2.918600	-8.761500	28.263752	0.000228	20.773935
2536.648144	-2.991700	2.915900	-8.722100	28.286088	0.000228	20.767975
2537.649335	-3.002800	2.914400	-8.750800	28.338123	0.000226	20.764891
2538.651988	-2.995800	2.912500	-8.723800	28.384013	0.000230	20.783124
2539.647233	-3.015300	2.911500	-8.777700	28.373660	0.000228	20.788820
2540.652971	-3.008100	2.908700	-8.748200	28.374951	0.000230	20.773524
2541.656263	-2.984000	2.908300	-8.677000	28.386454	0.000229	20.771831
2542.650919	-3.013500	2.905800	-8.756500	28.385146	0.000229	20.798964
2543.650059	-3.020200	2.903600	-8.768100	28.346369	0.000229	20.772246
2544.655970	-2.974700	2.903400	-8.635900	28.324010	0.000227	20.765379
2545.653205	-3.033400	2.898800	-8.791200	28.298336	0.000228	20.772246
2546.653424	-3.002500	2.899000	-8.703000	28.271322	0.000227	20.777290
2547.653186	-2.991500	2.897500	-8.667100	28.295719	0.000229	20.771508
2548.651718	-2.976100	2.896500	-8.619900	28.326434	0.000227	20.785364
2549.654864	-3.039100	2.892300	-8.789300	28.308961	0.000228	20.792902
2550.654198	-3.043200	2.891100	-8.797300	28.336103	0.000229	20.800790
2551.654659	-2.976000	2.890100	-8.600400	28.403790	0.000226	20.784546
2552.654196	-2.974500	2.889000	-8.592600	28.443399	0.000228	20.789344
2553.654533	-3.007200	2.885500	-8.677100	28.473784	0.000228	20.807140
2554.653794	-2.994500	2.886000	-8.641500	28.471381	0.000227	20.775797
2555.653862	-3.002600	2.883100	-8.655700	28.474628	0.000227	20.793292
2556.658726	-3.002400	2.880700	-8.648000	28.417979	0.000228	20.791247
2557.655160	-3.000700	2.879200	-8.638200	28.401652	0.000228	20.787135
2558.653925	-2.981700	2.877900	-8.579700	28.397121	0.000227	20.796797
2559.656168	-2.981100	2.875900	-8.572100	28.388303	0.000227	20.781754
2560.654943	-2.975300	2.873500	-8.548300	28.395886	0.000227	20.794605
2561.654950	-2.970600	2.872200	-8.531200	28.396332	0.000228	20.800745
2562.654463	-2.960100	2.870300	-8.495400	28.383357	0.000227	20.793843
2563.654459	-2.978300	2.868200	-8.540800	28.352400	0.000228	20.793018
2564.656896	-3.009000	2.864800	-8.618800	28.326654	0.000228	20.806923
2565.657074	-3.008000	2.863400	-8.611700	28.342396	0.000228	20.799540
2566.659739	-3.019900	2.861100	-8.639300	28.388690	0.000227	20.821498
2567.657539	-2.997200	2.858800	-8.567200	28.442272	0.000228	20.792003
2568.658484	-3.002600	2.858400	-8.581800	28.479801	0.000226	20.801345
2569.659432	-2.971500	2.856400	-8.487000	28.486281	0.000229	20.802181
2570.660549	-2.973600	2.854600	-8.487500	28.509554	0.000228	20.775832
2571.660376	-3.014100	2.850900	-8.592000	28.528094	0.000229	20.803038
2572.663551	-3.013900	2.849400	-8.586400	28.553770	0.000228	20.802343
2573.663886	-2.989200	2.848600	-8.513500	28.601435	0.000229	20.793450
2574.658700	-3.002800	2.845800	-8.544000	28.612295	0.000227	20.823827
2575.663267	-2.980200	2.844800	-8.475800	28.638836	0.000228	20.819265
2576.660670	-2.991600	2.842700	-8.503400	28.693413	0.000228	20.790784
2577.658833	-2.999400	2.839800	-8.516800	28.672480	0.000227	20.806210
2578.659460	-3.026900	2.836500	-8.584900	28.634892	0.000227	20.814818
2579.661878	-2.984100	2.835900	-8.460900	28.572560	0.000227	20.807516
2580.664104	-3.023800	2.832100	-8.563100	28.508919	0.000226	20.816444
2581.661275	-3.019700	2.829300	-8.542700	28.490428	0.000228	20.819159
2582.663321	-2.992400	2.830500	-8.469500	28.516080	0.000226	20.810379
2583.663681	-2.998400	2.826000	-8.472900	28.523571	0.000227	20.830251
2584.662247	-2.978300	2.824100	-8.410600	28.540196	0.000226	20.823760
2585.663669	-2.994500	2.823100	-8.452800	28.573062	0.000228	20.825091
2586.662773	-3.019400	2.818200	-8.508300	28.518789	0.000226	20.823065
2587.665292	-2.980600	2.818900	-8.400500	28.482486	0.000227	20.837240
2588.662337	-2.998600	2.814700	-8.439200	28.486700	0.000226	20.812560
2589.667209	-2.989300	2.812500	-8.406600	28.502464	0.000226	20.823219
2590.666002	-2.999800	2.810000	-8.428800	28.562802	0.000227	20.826138
2591.663474	-3.001400	2.807600	-8.426000	28.598639	0.000227	20.810547
2592.667928	-3.010500	2.805200	-8.443700	28.662047	0.000227	20.817512
2593.669476	-3.018200	2.802900	-8.459000	28.746188	0.000227	20.808380
2594.664788	-3.022300	2.800900	-8.463900	28.785875	0.000228	20.831761
2595.666524	-2.992300	2.798000	-8.370700	28.809319	0.000230	20.810807
2596.669406	-3.003800	2.795700	-8.397000	28.827450	0.000227	20.820062
2597.664639	-2.998900	2.793600	-8.377400	28.854823	0.000227	20.840998
2598.665247	-3.022900	2.789400	-8.430800	28.861761	0.000227	20.842297
2599.666388	-2.995900	2.788900	-8.353700	28.864804	0.000227	20.829243
2600.667595	-3.007000	2.785400	-8.374400	28.877544	0.000228	20.823585
2601.667964	-3.003200	2.782600	-8.355100	28.885197	0.000229	20.827027
2602.668143	-2.981400	2.779300	-8.284600	28.897134	0.000229	20.841423
2603.667804	-3.003400	2.775800	-8.335700	28.852623	0.000227	20.826454
2604.667800	-3.018800	2.772300	-8.368600	28.788169	0.000225	20.832176
2605.667256	-2.999300	2.771600	-8.311800	28.730149	0.000229	20.825415
2606.667720	-2.997800	2.768500	-8.298400	28.687555	0.000227	20.812859
2607.666415	-3.006900	2.765000	-8.313300	28.674552	0.000229	20.845279
2608.667142	-2.996800	2.762800	-8.278200	28.656022	0.000227	20.837047
2609.669043	-3.006300	2.759300	-8.293800	28.660625	0.000226	20.834097
2610.668908	-3.000300	2.758100	-8.274300	28.620609	0.000227	20.840261
2611.666639	-2.966600	2.755800	-8.174200	28.597662	0.000226	20.828056
2612.668927	-2.955400	2.751200	-8.129600	28.617223	0.000225	20.825945
2613.667942	-3.002100	2.747600	-8.247500	28.651241	0.000225	20.818956
2614.667677	-2.989100	2.745900	-8.206400	28.650048	0.000227	20.839091
2615.668943	-2.972500	2.742600	-8.151200	28.670127	0.000225	20.833711
2616.668111	-3.012900	2.736400	-8.244100	28.734222	0.000226	20.816715
2617.668448	-3.029300	2.733900	-8.280700	28.773965	0.000227	20.821660
2618.668986	-2.998000	2.731300	-8.187100	28.823322	0.000227	20.816378
2619.670074	-3.001900	2.727600	-8.186700	28.862689	0.000228	20.810516
2620.669581	-2.956400	2.727000	-8.060500	28.908123	0.000229	20.837321
2621.669826	-3.014400	2.721100	-8.201600	28.882910	0.000225	20.805283
2622.671128	-3.007900	2.718600	-8.176500	28.867800	0.000226	20.796699
2623.670294	-2.994200	2.716200	-8.132300	28.886131	0.000227	20.796201
2624.669830	-3.004900	2.713000	-8.150300	28.902936	0.000226	20.806492
2625.671760	-3.014600	2.708300	-8.163500	28.899373	0.000226	20.817601
2626.669744	-2.994400	2.704200	-8.095900	28.934525	0.000226	20.795168
2627.671109	-2.994400	2.701700	-8.088600	28.948034	0.000226	20.823477
2628.669611	-2.997400	2.698400	-8.087200	28.926158	0.000226	20.803808
2629.671884	-3.005700	2.693600	-8.094300	28.902179	0.000225	20.798617
2630.671031	-3.003100	2.688100	-8.072100	28.901123	0.000227	20.819838
2631.671666	-3.006100	2.685600	-8.072600	28.900280	0.000226	20.822307
2632.674952	-3.008300	2.680900	-8.063900	28.898202	0.000227	20.777540
2633.676007	-3.012400	2.679000	-8.067900	28.895378	0.000226	20.806938
2634.674506	-2.993800	2.674600	-8.005800	28.856375	0.000228	20.802734
2635.674107	-3.008500	2.670500	-8.032900	28.811838	0.000228	20.806232
2636.674013	-2.994700	2.666300	-7.983900	28.826161	0.000229	20.793634
2637.673363	-2.982800	2.661000	-7.936200	28.820586	0.000225	20.790389
2638.673828	-2.975100	2.659500	-7.911900	28.854256	0.000227	20.792538
2639.675366	-3.008000	2.653700	-7.981000	28.871573	0.000227	20.786276
2640.676398	-3.002300	2.649700	-7.954200	28.901337	0.000227	20.804406
2641.676951	-3.014800	2.644800	-7.972700	28.944758	0.000227	20.785563
2642.679540	-3.033200	2.641200	-8.009700	28.934160	0.000226	20.782472
2643.679172	-3.015300	2.636100	-7.948000	28.927603	0.000227	20.781556
2644.679228	-3.010900	2.631200	-7.921000	28.894249	0.000225	20.792525
2645.679318	-3.007000	2.627600	-7.900500	28.895239	0.000225	20.795419
2646.679276	-3.035200	2.622500	-7.958100	28.946547	0.000227	20.794478
2647.682335	-2.992200	2.618600	-7.834200	28.921164	0.000227	20.790716
2648.680982	-3.002000	2.611800	-7.839900	28.948332	0.000229	20.783474
2649.684611	-3.042700	2.606800	-7.931000	28.938829	0.000229	20.772477
2650.686259	-2.986700	2.604300	-7.778000	28.980196	0.000228	20.775747
2651.681342	-2.969200	2.597700	-7.711100	28.993136	0.000229	20.797320
2652.685907	-3.010300	2.592700	-7.802900	29.035588	0.000229	20.782245
2653.686118	-3.001500	2.587600	-7.765300	29.083944	0.000229	20.784974
2654.685466	-2.963800	2.584600	-7.659000	29.102564	0.000229	20.764856
2655.689079	-2.977500	2.578000	-7.674900	29.092438	0.000228	20.784999
2656.692671	-2.987800	2.573800	-7.688000	29.068153	0.000228	20.773331
2657.685466	-2.967500	2.566900	-7.616000	29.084397	0.000228	20.785905
2658.687678	-2.996300	2.559800	-7.669000	29.111146	0.000228	20.792470
2659.689160	-3.024600	2.553600	-7.720800	29.143217	0.000228	20.786379
2660.686340	-2.988900	2.548200	-7.615500	29.101962	0.000229	20.777051
2661.695425	-2.997400	2.542300	-7.619800	29.078011	0.000229	20.782316
2662.688161	-2.990800	2.537000	-7.586200	29.062757	0.000229	20.752721
2663.686376	-2.969300	2.532200	-7.517700	29.039552	0.000228	20.786713
2664.692603	-3.009900	2.525200	-7.599000	28.986544	0.000228	20.769341
2665.687919	-2.949900	2.518900	-7.429400	28.958209	0.000227	20.759286
2666.687402	-2.999200	2.512300	-7.533700	28.916964	0.000228	20.764199
2667.687940	-2.996100	2.505900	-7.507600	28.953845	0.000230	20.767690
2668.691991	-2.985800	2.500300	-7.464900	29.021370	0.000230	20.771712
2669.689075	-3.050000	2.491000	-7.596700	29.070231	0.000229	20.787753
