LabVIEW Measurement	
Writer_Version	2
Reader_Version	2
Separator	Tab
Decimal_Separator	.
Multi_Headings	No
X_Columns	One
Time_Pref	Absolute
Operator	admin
Description	Clolumns are: time, Current, Voltage, Power, Battery Temp, and Chamber Temp
Date	2024/08/16
Time	13:06:06.104549407958984375
***End_of_Header***	
	
Channels	6						
Samples	1	1	1	1	1	1	
Date	2024/08/31	2024/08/31	2024/08/31	2024/08/31	2024/08/31	2024/08/31	
Time	08:47:25.8167486190795898437	08:47:25.8234047889709472656	08:47:25.8314008712768554687	08:47:25.7842278480529785156	08:47:25.7842278480529785156	08:47:25.7842278480529785156	
X_Dimension	Time	Time	Time	Time	Time	Time	
X0	0.0000000000000000E+0	0.0000000000000000E+0	0.0000000000000000E+0	0.0000000000000000E+0	0.0000000000000000E+0	0.0000000000000000E+0	
Delta_X	1.000000	1.000000	1.000000	1.000000	1.000000	1.000000	
***End_of_Header***							
X_Value	Untitled	Untitled 1	Untitled 2	Untitled 3	Untitled 4	Untitled 5	Comment
0.000000	0.014795	4.109400	0.060735	20.984321	0.000954	20.740145
0.991503	-2.981200	3.942200	-11.751000	20.985345	0.000950	20.767249
1.992262	-2.994000	3.934400	-11.779000	20.978809	0.000950	20.772092
2.992150	-3.004400	3.930600	-11.808000	20.972047	0.000949	20.768173
3.990284	-3.013200	3.925800	-11.829000	20.985396	0.000948	20.754498
4.994324	-3.016700	3.921100	-11.828000	20.985022	0.000948	20.776409
5.990741	-3.012500	3.918100	-11.802000	20.996874	0.000945	20.764555
6.988714	-3.019200	3.915200	-11.820000	20.969027	0.000946	20.757567
7.998333	-3.014400	3.913900	-11.796000	20.985321	0.000943	20.760113
8.994187	-2.983500	3.913500	-11.675000	20.982401	0.000945	20.746287
9.994225	-3.011400	3.911800	-11.779000	20.993979	0.000944	20.775885
10.995206	-2.985900	3.910000	-11.674000	20.981878	0.000943	20.744341
11.992261	-3.005900	3.905700	-11.739000	21.025393	0.000942	20.760363
13.007109	-3.012200	3.905400	-11.763000	21.014488	0.000942	20.760836
13.999219	-2.977900	3.905500	-11.629000	21.006654	0.000941	20.766751
14.991174	-2.976700	3.904600	-11.622000	21.032628	0.000939	20.751478
16.001650	-2.997100	3.902700	-11.696000	21.014913	0.000938	20.765054
17.008018	-3.000700	3.900100	-11.702000	21.025168	0.000938	20.743542
17.992399	-3.007000	3.898700	-11.722000	21.026740	0.000937	20.765978
19.001528	-3.000600	3.899400	-11.700000	21.025143	0.000938	20.764380
20.005218	-2.968100	3.897700	-11.568000	21.009473	0.000938	20.774313
20.999578	-3.007500	3.896800	-11.718000	21.026366	0.000936	20.747111
22.000917	-2.994600	3.895800	-11.665000	21.035173	0.000936	20.752601
23.005955	-3.008600	3.896300	-11.721000	21.027688	0.000937	20.760288
24.000253	-2.994500	3.893700	-11.659000	21.040238	0.000935	20.752452
25.005365	-2.998600	3.894500	-11.677000	21.040686	0.000935	20.762858
26.004653	-2.992700	3.892400	-11.648000	21.073072	0.000933	20.787190
26.997820	-3.009500	3.891200	-11.709000	21.089289	0.000935	20.755995
27.999147	-2.988600	3.891900	-11.631000	21.087992	0.000933	20.761810
29.007060	-3.007300	3.891500	-11.701000	21.082553	0.000932	20.743568
30.000621	-3.006500	3.891000	-11.697000	21.087219	0.000932	20.766253
31.004492	-2.993400	3.890700	-11.645000	21.106230	0.000932	20.753026
31.999202	-3.017700	3.887900	-11.731000	21.101839	0.000933	20.754798
32.998684	-3.002700	3.889100	-11.675000	21.117433	0.000932	20.764232
34.005723	-3.014300	3.886500	-11.713000	21.099995	0.000931	20.755324
34.997761	-3.009300	3.886000	-11.692000	21.110248	0.000930	20.755623
36.011238	-3.008000	3.886700	-11.690000	21.104511	0.000930	20.761264
37.001827	-2.986400	3.888600	-11.612000	21.118981	0.000930	20.750607
38.014938	-3.006100	3.885100	-11.677000	21.104087	0.000930	20.768426
39.000384	-2.991600	3.886400	-11.625000	21.122899	0.000928	20.766381
40.010863	-3.038500	3.882700	-11.795000	21.141660	0.000928	20.772820
41.007535	-3.013600	3.883600	-11.702000	21.153461	0.000928	20.756174
42.009922	-2.992600	3.884500	-11.624000	21.164613	0.000926	20.786770
43.005833	-3.011600	3.883400	-11.694000	21.157154	0.000927	20.758920
44.011784	-2.996200	3.881300	-11.628000	21.154734	0.000928	20.764086
45.008101	-2.976800	3.882100	-11.555000	21.196870	0.000928	20.765933
46.011647	-2.974300	3.882300	-11.545000	21.198044	0.000924	20.770901
47.004999	-2.988700	3.883300	-11.605000	21.197370	0.000924	20.770701
48.011687	-3.012900	3.881700	-11.694000	21.195424	0.000925	20.756900
49.009997	-2.998500	3.881000	-11.636000	21.202308	0.000926	20.750510
50.008651	-2.991200	3.880900	-11.607000	21.202385	0.000925	20.750587
51.007465	-3.000100	3.879800	-11.638000	21.207425	0.000923	20.774595
52.004891	-2.992400	3.879200	-11.608000	21.237785	0.000925	20.761344
53.010547	-3.002600	3.877300	-11.640000	21.227058	0.000924	20.762941
54.008929	-3.000700	3.878800	-11.636000	21.238036	0.000924	20.768233
55.005776	-2.992300	3.877900	-11.603000	21.249137	0.000923	20.773175
56.023071	-2.983500	3.879300	-11.573000	21.260662	0.000925	20.781860
57.019101	-2.977800	3.878600	-11.549000	21.257993	0.000923	20.781086
58.031096	-2.994700	3.877300	-11.611000	21.250784	0.000923	20.763917
59.018625	-2.993000	3.878300	-11.607000	21.280870	0.000922	20.760349
60.018387	-3.013500	3.876000	-11.680000	21.280970	0.000923	20.772778
61.012949	-3.013300	3.876300	-11.679000	21.292569	0.000923	20.763519
62.008885	-2.970000	3.877600	-11.516000	21.289876	0.000921	20.780265
63.023123	-3.007200	3.876000	-11.655000	21.303297	0.000921	20.792744
64.024411	-2.999700	3.876000	-11.627000	21.299257	0.000923	20.783012
65.019139	-2.996100	3.874400	-11.606000	21.298908	0.000920	20.792620
66.012593	-2.995400	3.874000	-11.603000	21.299757	0.000922	20.778771
67.016422	-2.996700	3.874800	-11.609000	21.331562	0.000923	20.779296
68.024405	-2.994800	3.874100	-11.601000	21.342162	0.000919	20.774254
69.016366	-2.990600	3.876100	-11.591000	21.346529	0.000924	20.805649
70.020292	-2.989700	3.874200	-11.582000	21.354611	0.000921	20.787184
71.022880	-3.021000	3.872900	-11.699000	21.348450	0.000921	20.780071
72.012606	-3.000300	3.873800	-11.621000	21.338175	0.000920	20.768368
73.013350	-3.031800	3.871800	-11.737000	21.368457	0.000920	20.778751
74.018466	-3.013500	3.872400	-11.669000	21.363843	0.000920	20.804006
75.016176	-3.028700	3.870900	-11.724000	21.387165	0.000919	20.790356
76.015637	-3.020600	3.871900	-11.693000	21.397466	0.000922	20.781222
77.019650	-2.983200	3.872100	-11.550000	21.413005	0.000921	20.792975
78.020983	-3.005700	3.871600	-11.634000	21.422834	0.000921	20.798068
79.014410	-3.012400	3.870100	-11.657000	21.419466	0.000921	20.790906
80.020629	-3.006400	3.870000	-11.634000	21.424804	0.000921	20.795298
81.018531	-2.986900	3.870700	-11.561000	21.444234	0.000921	20.773961
82.029734	-3.011700	3.870300	-11.655000	21.439970	0.000922	20.785816
83.027626	-2.988300	3.869400	-11.561000	21.452315	0.000919	20.778728
84.031607	-2.976800	3.871200	-11.523000	21.454212	0.000920	20.794376
85.038635	-3.003000	3.871900	-11.626000	21.440345	0.000920	20.803261
86.032825	-2.999300	3.871000	-11.610000	21.483842	0.000920	20.804109
87.020589	-2.982600	3.870400	-11.543000	21.472968	0.000920	20.784694
88.030066	-2.985200	3.870000	-11.551000	21.492122	0.000919	20.796273
89.025529	-2.991400	3.868700	-11.572000	21.481649	0.000921	20.797173
90.019727	-2.994200	3.868900	-11.584000	21.481773	0.000921	20.784495
91.028145	-2.972900	3.869900	-11.504000	21.495416	0.000919	20.803836
92.025554	-3.013200	3.868600	-11.655000	21.480901	0.000920	20.793580
93.025397	-3.003100	3.867500	-11.614000	21.502175	0.000920	20.808703
94.025568	-2.994900	3.867300	-11.580000	21.506964	0.000922	20.815865
95.021637	-2.984200	3.867200	-11.539000	21.531655	0.000920	20.792683
96.027679	-2.993800	3.868400	-11.579000	21.530458	0.000920	20.800493
97.032352	-2.997600	3.868800	-11.596000	21.528762	0.000919	20.787891
98.027149	-2.981500	3.867300	-11.529000	21.531081	0.000918	20.805385
99.020308	-2.983400	3.867400	-11.537000	21.563902	0.000921	20.806458
100.036463	-2.969300	3.866100	-11.478000	21.558840	0.000919	20.780530
101.022101	-2.984200	3.867700	-11.541000	21.556720	0.000920	20.802117
102.022594	-2.983200	3.866000	-11.532000	21.548165	0.000919	20.790711
103.026873	-3.021300	3.866000	-11.680000	21.567420	0.000921	20.807608
104.029808	-3.003800	3.864100	-11.605000	21.573205	0.000921	20.792534
105.029467	-2.995800	3.866000	-11.580000	21.594253	0.000921	20.826398
106.032444	-3.023900	3.864100	-11.683000	21.611611	0.000920	20.804888
107.024509	-3.025300	3.864100	-11.689000	21.601112	0.000920	20.801020
108.029252	-3.013400	3.864100	-11.643000	21.625203	0.000919	20.809954
109.039715	-2.996900	3.863300	-11.576000	21.609018	0.000921	20.820785
110.024905	-3.006400	3.862900	-11.612000	21.618919	0.000921	20.821210
111.029691	-3.008600	3.863600	-11.622000	21.626374	0.000920	20.832463
112.036689	-2.996900	3.862900	-11.576000	21.632509	0.000919	20.813947
113.025902	-3.004200	3.862700	-11.604000	21.644205	0.000921	20.831815
114.041727	-3.003100	3.863600	-11.602000	21.656200	0.000922	20.802568
115.036436	-2.995400	3.864100	-11.573000	21.671137	0.000920	20.819886
116.027997	-2.995900	3.863200	-11.573000	21.679790	0.000923	20.831865
117.029246	-3.032500	3.862000	-11.710000	21.673531	0.000921	20.818489
118.028317	-3.036200	3.859700	-11.718000	21.688617	0.000921	20.821259
119.030389	-2.997200	3.861600	-11.573000	21.725348	0.000922	20.826725
120.030016	-3.022400	3.862600	-11.673000	21.720185	0.000920	20.844791
121.029016	-3.007700	3.861300	-11.611000	21.705398	0.000922	20.824303
122.029853	-2.976900	3.862700	-11.497000	21.722155	0.000920	20.828271
123.039642	-2.993100	3.862200	-11.559000	21.705822	0.000924	20.818089
124.043249	-3.008000	3.860300	-11.611000	21.720859	0.000922	20.818913
125.031088	-3.013800	3.861300	-11.635000	21.727691	0.000922	20.812474
126.033913	-3.014300	3.860500	-11.635000	21.720109	0.000923	20.811051
127.034658	-3.004900	3.860200	-11.599000	21.730757	0.000922	20.835457
128.030123	-3.015200	3.859600	-11.636000	21.757613	0.000923	20.830093
129.034615	-3.009600	3.861100	-11.619000	21.755518	0.000925	20.818987
130.033107	-2.986400	3.859400	-11.524000	21.765791	0.000922	20.829268
131.033558	-2.984000	3.861900	-11.522000	21.794214	0.000923	20.818362
132.044444	-2.981500	3.860100	-11.508000	21.778331	0.000924	20.816689
133.041464	-3.011400	3.859100	-11.620000	21.782744	0.000925	20.815890
134.031605	-3.007600	3.859500	-11.608000	21.771025	0.000924	20.834032
135.033881	-2.994900	3.860400	-11.560000	21.796457	0.000923	20.832460
136.041297	-3.012700	3.857700	-11.621000	21.776085	0.000924	20.820131
137.035048	-3.002900	3.858400	-11.586000	21.798950	0.000924	20.821679
138.038941	-3.008800	3.857700	-11.604000	21.806504	0.000924	20.818334
139.036424	-2.992600	3.858600	-11.545000	21.800419	0.000927	20.820304
140.035240	-2.989000	3.858200	-11.530000	21.814132	0.000927	20.844934
141.035716	-2.992200	3.857600	-11.542000	21.828742	0.000924	20.814988
142.049175	-3.002300	3.858100	-11.583000	21.825425	0.000925	20.827314
143.036688	-3.002600	3.858100	-11.582000	21.828816	0.000925	20.825967
144.040712	-2.983600	3.857300	-11.508000	21.837791	0.000924	20.839217
145.040963	-3.005900	3.856800	-11.593000	21.863670	0.000927	20.813438
146.048407	-3.012500	3.855500	-11.613000	21.849059	0.000926	20.828210
147.041790	-3.007200	3.856900	-11.597000	21.869479	0.000926	20.843433
148.042818	-2.989900	3.855100	-11.524000	21.868356	0.000930	20.862222
149.040546	-2.988000	3.857700	-11.525000	21.865189	0.000926	20.828234
150.043979	-2.994500	3.857200	-11.550000	21.890869	0.000927	20.830704
151.042618	-2.995900	3.854800	-11.548000	21.888150	0.000926	20.839837
152.037499	-3.000500	3.854900	-11.565000	21.913655	0.000929	20.850193
153.045360	-3.011200	3.855700	-11.609000	21.902860	0.000929	20.833224
154.045869	-2.989400	3.855900	-11.526000	21.920187	0.000929	20.830653
155.047514	-3.028100	3.854500	-11.671000	21.931854	0.000928	20.831426
156.042764	-3.012300	3.854300	-11.609000	21.951499	0.000928	20.834495
157.051935	-2.991600	3.854600	-11.531000	21.929735	0.000927	20.828356
158.044573	-3.003600	3.854600	-11.577000	21.971070	0.000930	20.831800
159.042129	-3.007600	3.855000	-11.593000	21.960848	0.000931	20.833422
160.039045	-3.007200	3.852000	-11.582000	21.968128	0.000930	20.843080
161.041244	-3.001500	3.854200	-11.568000	21.987947	0.000930	20.845849
162.044994	-2.995300	3.853400	-11.540000	21.975457	0.000929	20.857528
163.043203	-3.006500	3.853800	-11.586000	21.976852	0.000930	20.849916
164.045315	-3.000800	3.852200	-11.558000	21.957132	0.000932	20.853410
165.043118	-3.003400	3.852100	-11.569000	21.987073	0.000931	20.856354
166.044656	-3.008900	3.851000	-11.585000	21.978274	0.000932	20.836641
167.050337	-3.006900	3.852200	-11.581000	22.004599	0.000932	20.835018
168.049614	-3.023900	3.851300	-11.645000	22.009285	0.000933	20.863416
169.045322	-2.994800	3.853200	-11.538000	21.966183	0.000934	20.845874
170.056411	-2.990700	3.853000	-11.522000	21.992907	0.000934	20.855556
171.046060	-2.991800	3.852600	-11.525000	22.022075	0.000932	20.845400
172.044644	-2.972700	3.853700	-11.454000	22.029952	0.000934	20.858027
173.046336	-3.012300	3.851500	-11.600000	22.023271	0.000933	20.873149
174.056325	-3.002900	3.850200	-11.561000	22.050942	0.000935	20.854384
175.051415	-2.987000	3.852100	-11.505000	22.056227	0.000935	20.845450
176.045786	-3.004400	3.851000	-11.569000	22.058346	0.000935	20.866536
177.054830	-3.021600	3.850600	-11.633000	22.064901	0.000935	20.843703
178.051971	-2.982500	3.851300	-11.486000	22.056850	0.000936	20.864565
179.048412	-3.014100	3.848900	-11.600000	22.080681	0.000935	20.875619
180.049096	-3.000800	3.850400	-11.553000	22.068094	0.000936	20.859226
181.048122	-3.018700	3.848100	-11.615000	22.093245	0.000936	20.854534
182.043290	-3.017600	3.848000	-11.610000	22.073877	0.000938	20.870705
183.044510	-2.996100	3.849800	-11.534000	22.088958	0.000938	20.874423
184.046026	-2.987900	3.849800	-11.502000	22.087961	0.000940	20.870580
185.045342	-2.987800	3.849700	-11.500000	22.115432	0.000940	20.872952
186.046294	-2.992300	3.849000	-11.516000	22.111992	0.000938	20.877568
187.061159	-2.991900	3.850400	-11.518000	22.127870	0.000938	20.868335
188.051775	-2.988500	3.849100	-11.502000	22.127023	0.000940	20.850893
189.051815	-2.991800	3.847600	-11.510000	22.147987	0.000940	20.842009
190.047343	-3.006200	3.847800	-11.566000	22.149160	0.000940	20.865942
191.044558	-2.999600	3.847700	-11.540000	22.140360	0.000940	20.866141
192.049124	-2.996700	3.848200	-11.531000	22.147963	0.000941	20.844830
193.048408	-2.995400	3.847900	-11.525000	22.148835	0.000940	20.879366
194.045086	-3.027800	3.847800	-11.650000	22.157112	0.000943	20.872955
195.056077	-3.008300	3.847500	-11.573000	22.157411	0.000944	20.855711
196.045731	-3.003100	3.847400	-11.553000	22.166110	0.000944	20.871058
197.049368	-2.995000	3.846800	-11.520000	22.219576	0.000947	20.861053
198.050062	-2.970100	3.847000	-11.425000	22.192258	0.000945	20.855513
199.059738	-2.991400	3.847300	-11.507000	22.212123	0.000944	20.890099
200.052930	-3.011200	3.845500	-11.578000	22.196770	0.000945	20.860505
201.051063	-2.989600	3.846500	-11.497000	22.239366	0.000945	20.869014
202.051667	-3.006900	3.846000	-11.564000	22.231466	0.000948	20.878646
203.049750	-2.981400	3.846200	-11.466000	22.232015	0.000946	20.868766
204.056077	-2.993700	3.845200	-11.510000	22.237248	0.000948	20.875902
205.057451	-3.019400	3.843900	-11.606000	22.249911	0.000948	20.895691
206.064098	-2.987000	3.844900	-11.484000	22.271620	0.000948	20.878074
207.062206	-3.009200	3.843800	-11.566000	22.257463	0.000948	20.895667
208.052714	-2.972500	3.845600	-11.430000	22.272742	0.000949	20.902429
209.052562	-2.995000	3.844500	-11.513000	22.284407	0.000949	20.885187
210.055619	-3.006100	3.843000	-11.551000	22.271396	0.000949	20.885436
211.057905	-2.998300	3.844500	-11.526000	22.309306	0.000951	20.894946
212.057000	-3.000000	3.843700	-11.530000	22.293830	0.000951	20.878976
213.056215	-3.014400	3.842300	-11.580000	22.296796	0.000950	20.898540
214.061841	-2.995000	3.844500	-11.514000	22.308534	0.000949	20.885638
215.069666	-3.011100	3.841600	-11.567000	22.322965	0.000952	20.896768
216.062843	-3.020700	3.841800	-11.604000	22.333782	0.000953	20.886738
217.061831	-3.006200	3.842900	-11.552000	22.348287	0.000954	20.884667
218.069200	-2.966600	3.844300	-11.402000	22.328998	0.000953	20.894275
219.058059	-3.005400	3.842900	-11.549000	22.317284	0.000955	20.896770
220.059634	-3.000800	3.843400	-11.532000	22.349958	0.000955	20.887289
221.069401	-2.977100	3.843000	-11.440000	22.342408	0.000953	20.911021
222.062881	-2.997600	3.842100	-11.516000	22.331243	0.000955	20.900789
223.064794	-3.006700	3.841900	-11.550000	22.349062	0.000955	20.897297
224.062882	-3.014300	3.840900	-11.576000	22.391829	0.000958	20.892707
225.057972	-3.023900	3.840900	-11.613000	22.395742	0.000956	20.903736
226.063457	-3.009100	3.841200	-11.558000	22.409474	0.000958	20.898996
227.069767	-2.998800	3.839700	-11.512000	22.408503	0.000959	20.932160
228.067128	-2.997400	3.840300	-11.510000	22.393825	0.000957	20.901343
229.066881	-3.015200	3.839600	-11.576000	22.428067	0.000958	20.918562
230.064311	-3.017800	3.840000	-11.587000	22.423007	0.000960	20.892161
231.060974	-2.982000	3.841100	-11.454000	22.452762	0.000961	20.905836
232.077877	-2.984100	3.840000	-11.457000	22.434547	0.000959	20.903242
233.069496	-3.012900	3.838500	-11.564000	22.451294	0.000958	20.906737
234.065720	-2.984600	3.839300	-11.458000	22.409603	0.000961	20.917142
235.061951	-2.980900	3.839000	-11.443000	22.423559	0.000959	20.917841
236.066370	-2.982200	3.838000	-11.445000	22.447509	0.000959	20.921910
237.060650	-2.995000	3.838800	-11.496000	22.473774	0.000960	20.922135
238.071350	-3.006000	3.837800	-11.536000	22.463583	0.000963	20.915249
239.070104	-2.991100	3.838500	-11.481000	22.471931	0.000962	20.899903
240.064451	-2.987100	3.837900	-11.462000	22.450353	0.000963	20.904372
241.068689	-3.009400	3.836500	-11.545000	22.455461	0.000964	20.910909
242.066950	-3.014000	3.836700	-11.563000	22.479385	0.000966	20.917324
243.064897	-2.996700	3.836900	-11.497000	22.495658	0.000963	20.914654
244.062088	-2.994200	3.837200	-11.487000	22.493864	0.000965	20.918073
245.067911	-3.007000	3.835700	-11.533000	22.487461	0.000966	20.915929
246.065099	-3.013200	3.836000	-11.557000	22.515195	0.000966	20.925685
247.077622	-2.985100	3.835600	-11.448000	22.522573	0.000963	20.922168
248.079195	-3.011500	3.835700	-11.551000	22.544775	0.000970	20.924964
249.068397	-3.008700	3.834700	-11.537000	22.537475	0.000965	20.932351
250.066789	-3.003300	3.834600	-11.516000	22.554568	0.000971	20.943305
251.067627	-2.980400	3.837700	-11.437000	22.561670	0.000969	20.922445
252.074836	-3.004200	3.833700	-11.516000	22.568424	0.000970	20.918304
253.066142	-3.010100	3.834300	-11.540000	22.561647	0.000968	20.922896
254.073098	-3.013000	3.834300	-11.550000	22.576523	0.000968	20.955809
255.071206	-3.001700	3.834800	-11.510000	22.573110	0.000968	20.935324
256.066848	-2.988900	3.834600	-11.460000	22.583078	0.000971	20.932032
257.066357	-3.001100	3.833800	-11.505000	22.573484	0.000970	20.940913
258.078412	-3.021900	3.832100	-11.579000	22.550937	0.000970	20.928764
259.076859	-3.016000	3.832600	-11.558000	22.549242	0.000972	20.942712
260.072878	-3.012500	3.832600	-11.543000	22.582035	0.000971	20.935254
261.076272	-3.025600	3.830800	-11.589000	22.574336	0.000973	20.950774
262.072819	-2.995700	3.831800	-11.477000	22.614477	0.000974	20.949253
263.070557	-2.985000	3.832200	-11.439000	22.586994	0.000973	20.946383
264.073824	-2.997800	3.831400	-11.484000	22.619062	0.000974	20.942467
265.071575	-3.015600	3.830600	-11.551000	22.609819	0.000975	20.953596
266.069306	-2.994200	3.831200	-11.470000	22.635457	0.000975	20.943241
267.070952	-3.010000	3.830000	-11.527000	22.642733	0.000975	20.942468
268.073587	-2.984700	3.832100	-11.437000	22.656537	0.000976	20.941122
269.077653	-3.017200	3.830200	-11.554000	22.659777	0.000977	20.941996
270.073361	-3.000900	3.831800	-11.497000	22.659554	0.000977	20.956943
271.075039	-2.989700	3.831800	-11.455000	22.669320	0.000977	20.958190
272.071545	-3.015400	3.829700	-11.547000	22.681852	0.000978	20.952252
273.075250	-2.997200	3.831700	-11.484000	22.667852	0.000977	20.937283
274.077016	-3.002500	3.830600	-11.500000	22.664589	0.000978	20.959141
275.073740	-2.998800	3.829600	-11.483000	22.664712	0.000978	20.945990
276.083967	-2.991100	3.830300	-11.455000	22.651883	0.000979	20.950684
277.073137	-3.036200	3.828800	-11.624000	22.640472	0.000979	20.944470
278.076642	-3.003800	3.829800	-11.503000	22.650290	0.000981	20.933916
279.082748	-3.004700	3.830100	-11.508000	22.651411	0.000978	20.940255
280.072839	-3.003600	3.828800	-11.500000	22.651710	0.000980	20.917797
281.087522	-3.001000	3.829600	-11.492000	22.664442	0.000982	20.934342
282.074035	-3.002400	3.828700	-11.494000	22.682382	0.000982	20.938560
283.072123	-3.024200	3.826500	-11.571000	22.680240	0.000984	20.940207
284.077843	-2.981800	3.828700	-11.414000	22.666065	0.000987	20.921270
285.072986	-3.012700	3.827100	-11.529000	22.688463	0.000983	20.920472
286.071183	-2.998000	3.826600	-11.471000	22.694494	0.000985	20.911814
287.076302	-3.014200	3.827500	-11.536000	22.707848	0.000983	20.923767
288.081892	-3.020400	3.826200	-11.555000	22.727979	0.000986	20.922120
289.071745	-2.988900	3.828100	-11.440000	22.723370	0.000984	20.943580
290.083679	-3.008400	3.826800	-11.511000	22.724990	0.000986	20.915808
291.075277	-3.015800	3.827100	-11.542000	22.732638	0.000987	20.924891
292.085688	-2.990300	3.826700	-11.443000	22.736925	0.000988	20.924917
293.086895	-2.982900	3.825400	-11.409000	22.763731	0.000988	20.931380
294.080417	-2.983000	3.827000	-11.414000	22.748113	0.000989	20.937071
295.077113	-3.015100	3.826700	-11.536000	22.738695	0.000988	20.919104
296.077074	-2.999500	3.827600	-11.480000	22.750903	0.000989	20.924695
297.083329	-3.010000	3.826100	-11.516000	22.749134	0.000989	20.921027
298.078300	-3.030400	3.826100	-11.593000	22.734312	0.000989	20.938894
299.085569	-3.004800	3.824200	-11.490000	22.734687	0.000990	20.930262
300.074648	-3.019800	3.824700	-11.547000	22.739620	0.000992	20.917187
301.078835	-2.995600	3.824100	-11.453000	22.744080	0.000992	20.929240
302.077778	-2.996800	3.823800	-11.458000	22.744753	0.000991	20.918535
303.077863	-2.995600	3.824400	-11.455000	22.744728	0.000992	20.912821
304.080965	-3.008500	3.824700	-11.506000	22.759528	0.000991	20.900621
305.076706	-3.002500	3.823000	-11.476000	22.746823	0.000992	20.905437
306.074988	-2.993600	3.825000	-11.450000	22.777890	0.000991	20.899100
307.082422	-2.987900	3.823600	-11.421000	22.762195	0.000992	20.927945
308.084805	-2.984900	3.824500	-11.414000	22.783919	0.000994	20.908458
309.077548	-3.016400	3.823000	-11.530000	22.790497	0.000996	20.903668
310.078090	-2.993200	3.821200	-11.437000	22.776198	0.000996	20.904042
311.076974	-2.988600	3.822600	-11.423000	22.783124	0.000994	20.916195
312.078979	-2.989100	3.823100	-11.426000	22.786687	0.000995	20.929720
313.078944	-3.037000	3.820500	-11.601000	22.819621	0.000996	20.916247
314.081533	-3.000400	3.821900	-11.466000	22.808785	0.000999	20.888324
315.081367	-2.978300	3.821900	-11.381000	22.808361	0.000997	20.899279
316.081443	-2.987100	3.820400	-11.411000	22.819074	0.000999	20.918069
317.088775	-3.012400	3.821300	-11.510000	22.830932	0.001000	20.897708
318.084478	-2.983500	3.821200	-11.399000	22.797277	0.000998	20.898606
319.082751	-2.994100	3.821900	-11.442000	22.818751	0.000998	20.889773
320.083821	-3.003500	3.819600	-11.470000	22.824530	0.001002	20.882287
321.080215	-2.987600	3.819800	-11.410000	22.822364	0.001003	20.914253
322.085597	-3.015800	3.820200	-11.520000	22.827695	0.000999	20.916274
323.080022	-3.006200	3.820200	-11.482000	22.842567	0.001001	20.895614
324.094723	-2.995400	3.819300	-11.439000	22.867204	0.001003	20.902276
325.087467	-2.993700	3.818200	-11.429000	22.877218	0.001002	20.884809
326.092332	-2.994600	3.819600	-11.436000	22.888428	0.001002	20.895091
327.082278	-2.977200	3.818500	-11.368000	22.890795	0.001002	20.896513
328.087295	-2.973800	3.818000	-11.353000	22.907061	0.001003	20.924187
329.102065	-3.002700	3.818100	-11.464000	22.894059	0.001002	20.908317
330.081364	-2.991400	3.818000	-11.419000	22.888355	0.001004	20.912559
331.087137	-2.988400	3.817400	-11.406000	22.877544	0.001004	20.896040
332.085426	-2.995900	3.817500	-11.436000	22.888605	0.001006	20.873458
333.089007	-3.007400	3.815300	-11.474000	22.871566	0.001006	20.884363
334.098370	-3.010300	3.815700	-11.485000	22.895082	0.001008	20.888481
335.086734	-3.013000	3.814900	-11.493000	22.907114	0.001006	20.890104
336.084995	-2.962500	3.817300	-11.308000	22.917351	0.001008	20.883765
337.105794	-3.001400	3.816800	-11.454000	22.924500	0.001007	20.894245
338.096336	-2.992400	3.816200	-11.418000	22.917054	0.001008	20.894372
339.090548	-2.995700	3.814500	-11.426000	22.932471	0.001006	20.888007
340.097299	-2.995800	3.815100	-11.427000	22.903852	0.001009	20.906749
341.088212	-2.986300	3.814900	-11.391000	22.925848	0.001008	20.889432
342.088369	-2.984500	3.815700	-11.386000	22.929560	0.001011	20.910219
343.090594	-2.980700	3.815700	-11.372000	22.913744	0.001010	20.872091
344.097660	-2.984600	3.814400	-11.383000	22.929113	0.001012	20.883221
345.094834	-2.984800	3.815100	-11.385000	22.916185	0.001011	20.902036
346.098804	-2.990300	3.814300	-11.405000	22.920495	0.001011	20.887388
347.089359	-2.996000	3.813400	-11.424000	22.946501	0.001011	20.901588
348.098512	-3.011200	3.811900	-11.477000	22.931730	0.001013	20.883471
349.097908	-3.008000	3.812600	-11.468000	22.941345	0.001012	20.870820
350.096519	-3.000000	3.812400	-11.436000	22.962293	0.001012	20.886117
351.096051	-3.007200	3.813700	-11.467000	22.971336	0.001013	20.879531
352.094243	-2.985000	3.812000	-11.378000	22.986355	0.001014	20.885570
353.094960	-2.991500	3.813000	-11.406000	22.987253	0.001016	20.887417
354.096110	-3.029500	3.811800	-11.547000	23.015971	0.001015	20.876362
355.091392	-2.990200	3.812000	-11.398000	22.996769	0.001014	20.898848
356.101434	-3.029000	3.809500	-11.538000	22.974949	0.001015	20.856125
357.092558	-3.004300	3.812400	-11.453000	22.992834	0.001017	20.867880
358.098047	-3.001600	3.810800	-11.438000	22.981700	0.001015	20.879010
359.092745	-2.979900	3.812000	-11.358000	22.984938	0.001017	20.881779
360.091367	-2.987000	3.811100	-11.382000	23.000605	0.001018	20.893682
361.091713	-2.984700	3.810100	-11.370000	23.026208	0.001019	20.871922
362.097221	-2.995000	3.810200	-11.411000	23.024716	0.001018	20.902667
363.094750	-2.998700	3.811200	-11.427000	22.996996	0.001017	20.882480
364.102175	-3.003700	3.809300	-11.441000	22.986409	0.001021	20.862866
365.108883	-3.000400	3.810000	-11.431000	22.992686	0.001019	20.871525
366.097260	-2.995000	3.809000	-11.407000	23.034681	0.001021	20.900797
367.095960	-3.015200	3.808600	-11.482000	23.013784	0.001019	20.870378
368.093531	-3.014000	3.809100	-11.479000	23.027507	0.001020	20.871801
369.098417	-2.978200	3.807600	-11.338000	23.056299	0.001019	20.893535
370.096883	-2.994900	3.808300	-11.403000	23.053436	0.001021	20.884977
371.097077	-3.010500	3.807300	-11.460000	23.090048	0.001020	20.878515
372.096807	-3.005800	3.806700	-11.439000	23.082252	0.001023	20.865014
373.098736	-3.007800	3.806700	-11.449000	23.099088	0.001022	20.892788
374.102666	-3.005000	3.806500	-11.437000	23.110745	0.001022	20.867486
375.099411	-3.001200	3.806400	-11.423000	23.100483	0.001020	20.897030
376.100493	-3.011300	3.806600	-11.462000	23.110047	0.001023	20.890967
377.098431	-3.001600	3.806500	-11.424000	23.122723	0.001022	20.877117
378.102643	-3.002800	3.805400	-11.425000	23.144641	0.001024	20.898604
379.100499	-3.017500	3.805800	-11.482000	23.147130	0.001024	20.864591
380.098053	-3.031700	3.803300	-11.529000	23.162148	0.001022	20.854037
381.096004	-3.005200	3.805400	-11.435000	23.178932	0.001026	20.884131
382.096314	-3.022300	3.804200	-11.496000	23.179181	0.001027	20.876319
383.106246	-3.006700	3.804300	-11.438000	23.179754	0.001027	20.852239
384.100852	-2.965400	3.804900	-11.282000	23.173653	0.001023	20.866513
385.105924	-3.002600	3.804500	-11.423000	23.140804	0.001025	20.867735
386.108498	-2.988600	3.803800	-11.366000	23.127581	0.001027	20.860650
387.102162	-3.000400	3.803200	-11.410000	23.132362	0.001028	20.858328
388.105056	-3.000500	3.804100	-11.413000	23.159008	0.001026	20.861795
389.102486	-3.002500	3.804200	-11.421000	23.110920	0.001027	20.853438
390.101279	-3.002000	3.803400	-11.417000	23.141949	0.001028	20.854184
391.101195	-3.019500	3.802400	-11.480000	23.114257	0.001028	20.870057
392.108834	-3.020700	3.802900	-11.487000	23.147156	0.001030	20.861773
393.098446	-2.997200	3.803100	-11.396000	23.151314	0.001029	20.851715
394.103951	-2.981000	3.802800	-11.334000	23.159682	0.001030	20.850144
395.102705	-3.011400	3.801600	-11.447000	23.174749	0.001028	20.869034
396.102860	-3.015000	3.800800	-11.458000	23.199951	0.001030	20.862521
397.104120	-2.980400	3.801800	-11.330000	23.187899	0.001031	20.864194
398.117210	-3.011800	3.800000	-11.445000	23.196490	0.001030	20.852416
399.106497	-2.995100	3.800700	-11.382000	23.203888	0.001031	20.853190
400.109177	-2.985300	3.801000	-11.346000	23.211133	0.001034	20.859977
401.105181	-2.987200	3.800000	-11.351000	23.215691	0.001033	20.867389
402.103343	-3.005300	3.799300	-11.417000	23.218357	0.001033	20.854888
403.107506	-3.002300	3.800300	-11.409000	23.234269	0.001032	20.861825
404.100408	-2.981700	3.800400	-11.331000	23.211011	0.001031	20.856061
405.102763	-3.011100	3.798900	-11.437000	23.207649	0.001033	20.855063
406.102632	-3.013900	3.797700	-11.445000	23.215544	0.001034	20.839742
407.106115	-3.012600	3.798400	-11.442000	23.209692	0.001036	20.859955
408.105256	-3.012800	3.797900	-11.441000	23.224610	0.001034	20.851672
409.113714	-2.971000	3.798500	-11.284000	23.205859	0.001034	20.853744
410.104931	-2.991400	3.798100	-11.362000	23.218858	0.001036	20.856338
411.112009	-3.003900	3.796900	-11.405000	23.225732	0.001033	20.854218
412.102471	-3.004700	3.797800	-11.410000	23.229467	0.001036	20.842789
413.107817	-3.010900	3.796500	-11.430000	23.223691	0.001036	20.854543
414.111795	-2.983000	3.796300	-11.324000	23.208725	0.001037	20.861830
415.112477	-2.994900	3.797300	-11.372000	23.223392	0.001036	20.862305
416.114934	-2.977400	3.796000	-11.302000	23.233353	0.001036	20.840520
417.105677	-2.969900	3.796600	-11.274000	23.220280	0.001037	20.861082
418.115777	-2.990700	3.794600	-11.347000	23.227650	0.001037	20.851400
419.115969	-3.005000	3.794400	-11.401000	23.211938	0.001038	20.833758
420.108951	-3.002800	3.795700	-11.397000	23.206807	0.001040	20.838573
421.118298	-3.018400	3.794500	-11.452000	23.209896	0.001040	20.845935
422.121736	-3.014800	3.793000	-11.434000	23.196997	0.001040	20.833010
423.107670	-3.003100	3.793000	-11.389000	23.206012	0.001040	20.839673
424.121693	-3.019100	3.793600	-11.451000	23.229644	0.001038	20.851975
425.112134	-2.996100	3.794000	-11.365000	23.256139	0.001040	20.846758
426.119731	-2.996900	3.792600	-11.365000	23.250611	0.001041	20.842167
427.111185	-3.019000	3.793200	-11.451000	23.278625	0.001041	20.841793
428.112653	-2.995400	3.791900	-11.357000	23.310447	0.001040	20.845710
429.122436	-3.006500	3.792800	-11.401000	23.323967	0.001042	20.836027
430.111410	-3.008000	3.791400	-11.403000	23.316771	0.001042	20.863427
431.112284	-2.995700	3.791000	-11.356000	23.287163	0.001040	20.852246
432.110026	-3.023600	3.791600	-11.463000	23.315027	0.001041	20.855515
433.117198	-2.979800	3.790200	-11.293000	23.317841	0.001042	20.829887
434.112489	-3.011100	3.790200	-11.411000	23.353521	0.001044	20.847629
435.112382	-2.991100	3.791300	-11.339000	23.331684	0.001041	20.835226
436.109752	-3.020400	3.789700	-11.445000	23.305837	0.001042	20.824020
437.111998	-3.001300	3.789500	-11.372000	23.318760	0.001041	20.842188
438.117896	-2.982000	3.791700	-11.305000	23.303696	0.001042	20.857909
439.127965	-3.016000	3.789300	-11.427000	23.300134	0.001043	20.848651
440.114969	-3.028700	3.788000	-11.471000	23.286239	0.001043	20.826665
441.117451	-3.019200	3.789200	-11.438000	23.297419	0.001044	20.820326
442.122883	-2.989700	3.790000	-11.331000	23.278496	0.001043	20.833603
443.120500	-3.012200	3.787500	-11.407000	23.290199	0.001044	20.837271
444.115145	-2.978700	3.789200	-11.285000	23.311789	0.001045	20.817184
445.122807	-2.990000	3.788200	-11.326000	23.318882	0.001046	20.826664
446.112251	-3.011600	3.786800	-11.402000	23.316941	0.001046	20.831831
447.115559	-2.997400	3.787300	-11.351000	23.304442	0.001044	20.831158
448.126249	-3.017100	3.786100	-11.423000	23.311637	0.001045	20.832205
449.117975	-2.996400	3.786100	-11.344000	23.318062	0.001044	20.821101
450.116133	-3.004500	3.787000	-11.378000	23.326179	0.001047	20.814536
451.133901	-3.028100	3.785700	-11.462000	23.337360	0.001046	20.822423
452.117021	-3.007300	3.785500	-11.384000	23.324485	0.001047	20.826589
453.115062	-3.018200	3.785600	-11.424000	23.307055	0.001046	20.819077
454.124189	-2.986400	3.784600	-11.301000	23.317763	0.001045	20.824119
455.118262	-3.010400	3.785500	-11.395000	23.325780	0.001047	20.815085
456.117376	-2.995500	3.783700	-11.332000	23.320875	0.001048	20.821548
457.124262	-3.031100	3.783600	-11.467000	23.323590	0.001049	20.818105
458.120658	-2.974600	3.785200	-11.258000	23.322965	0.001049	20.822221
459.118054	-2.985100	3.783700	-11.294000	23.341094	0.001050	20.811942
460.121247	-3.003800	3.783800	-11.365000	23.357628	0.001048	20.813339
461.123160	-3.034300	3.780700	-11.470000	23.382676	0.001050	20.797667
462.120224	-2.997900	3.783800	-11.343000	23.390495	0.001047	20.806926
463.123615	-2.998700	3.784900	-11.348000	23.392934	0.001049	20.824069
464.124504	-2.998900	3.782800	-11.342000	23.405160	0.001050	20.787486
465.120102	-2.993800	3.781700	-11.319000	23.390620	0.001049	20.813215
466.134240	-2.976500	3.782900	-11.259000	23.403294	0.001049	20.803634
467.130902	-3.019800	3.781900	-11.418000	23.392685	0.001052	20.808173
468.121736	-2.998100	3.781600	-11.337000	23.368085	0.001052	20.797742
469.124503	-2.981200	3.781700	-11.273000	23.388876	0.001049	20.805303
470.122088	-3.019300	3.780000	-11.412000	23.417510	0.001053	20.798442
471.121583	-2.985000	3.781200	-11.287000	23.415592	0.001050	20.806003
472.119911	-3.011200	3.780300	-11.382000	23.454408	0.001049	20.800338
473.121799	-3.009100	3.778700	-11.369000	23.458265	0.001050	20.820326
474.124464	-3.014700	3.778600	-11.391000	23.446939	0.001054	20.797593
475.124667	-2.982400	3.779200	-11.270000	23.453138	0.001050	20.798118
476.123481	-2.986000	3.779700	-11.285000	23.443181	0.001052	20.797146
477.128871	-2.991700	3.779700	-11.306000	23.427817	0.001050	20.806876
478.130332	-3.008800	3.778300	-11.367000	23.433470	0.001051	20.778877
479.132935	-2.988300	3.777800	-11.289000	23.463397	0.001053	20.789434
480.125048	-2.998600	3.777300	-11.326000	23.463846	0.001055	20.814066
481.126837	-2.992800	3.778200	-11.305000	23.474178	0.001053	20.804508
482.133624	-2.990800	3.777900	-11.298000	23.493921	0.001053	20.807702
483.128772	-2.996300	3.778400	-11.319000	23.507389	0.001054	20.793227
484.133204	-3.003700	3.777400	-11.346000	23.525963	0.001055	20.786716
485.127125	-2.986000	3.776600	-11.277000	23.509184	0.001055	20.776534
486.131282	-3.015700	3.776800	-11.388000	23.499798	0.001051	20.811223
487.133398	-2.995100	3.776700	-11.311000	23.487824	0.001053	20.789263
488.126924	-3.006300	3.775300	-11.349000	23.510504	0.001054	20.783548
489.127377	-2.997600	3.775400	-11.316000	23.517053	0.001054	20.789639
490.127933	-2.999000	3.775400	-11.321000	23.531940	0.001054	20.778483
491.137590	-2.984700	3.775000	-11.267000	23.553350	0.001055	20.799471
492.130064	-2.990600	3.775300	-11.288000	23.561093	0.001056	20.797275
493.132548	-2.997200	3.774600	-11.312000	23.542074	0.001051	20.815194
494.130673	-3.018500	3.773200	-11.388000	23.573691	0.001055	20.796153
495.132949	-3.034300	3.772000	-11.445000	23.582429	0.001053	20.793533
496.138416	-2.996500	3.773500	-11.307000	23.563036	0.001055	20.777412
497.132783	-2.999200	3.773000	-11.314000	23.594104	0.001057	20.789590
498.133137	-2.998300	3.773400	-11.312000	23.618003	0.001057	20.777512
499.146008	-3.014100	3.771900	-11.367000	23.614195	0.001056	20.802619
500.137556	-2.986100	3.772600	-11.264000	23.595773	0.001055	20.786047
501.138957	-2.970900	3.772500	-11.207000	23.584323	0.001055	20.782155
502.137700	-2.993500	3.771600	-11.289000	23.592488	0.001055	20.778013
503.134646	-3.017700	3.771100	-11.379000	23.616886	0.001054	20.785402
504.133148	-2.997500	3.771700	-11.304000	23.620570	0.001056	20.796208
505.135501	-3.005700	3.769600	-11.329000	23.641133	0.001056	20.777941
506.142345	-2.991200	3.771900	-11.281000	23.622141	0.001060	20.776919
507.138163	-3.010500	3.771000	-11.351000	23.574169	0.001058	20.779089
508.135280	-3.009100	3.768700	-11.338000	23.560129	0.001058	20.789671
509.142941	-3.003900	3.768700	-11.320000	23.541584	0.001056	20.783882
510.133199	-3.013300	3.768900	-11.356000	23.532275	0.001058	20.780241
511.144918	-3.009200	3.768500	-11.339000	23.522143	0.001058	20.786680
512.141371	-3.012900	3.767900	-11.350000	23.526549	0.001059	20.759328
513.136357	-3.000800	3.768300	-11.306000	23.508974	0.001057	20.777746
514.144414	-2.995500	3.767300	-11.284000	23.499763	0.001059	20.761401
515.150283	-3.002400	3.768900	-11.315000	23.508652	0.001060	20.796390
516.147191	-2.992100	3.767800	-11.272000	23.516743	0.001059	20.779845
517.137994	-2.992100	3.767100	-11.271000	23.535191	0.001059	20.782690
518.139092	-2.988800	3.766700	-11.256000	23.555853	0.001059	20.777324
519.142525	-2.982400	3.766600	-11.232000	23.592101	0.001058	20.783788
520.140437	-3.006800	3.766700	-11.325000	23.597552	0.001061	20.763174
521.143275	-3.006900	3.765100	-11.321000	23.630413	0.001060	20.780945
522.141564	-2.990100	3.765400	-11.257000	23.589264	0.001060	20.783316
523.145544	-2.997700	3.764600	-11.284000	23.596259	0.001060	20.791276
524.144441	-3.009100	3.764700	-11.326000	23.588691	0.001059	20.783690
525.141851	-3.025200	3.763800	-11.385000	23.552221	0.001059	20.777001
526.153048	-2.999700	3.764500	-11.291000	23.541741	0.001059	20.772660
527.145506	-3.001700	3.763400	-11.295000	23.554860	0.001060	20.766371
528.141511	-2.988400	3.764700	-11.249000	23.572486	0.001058	20.778824
529.153979	-3.006200	3.763900	-11.313000	23.588070	0.001060	20.786860
530.146022	-3.004800	3.763900	-11.309000	23.615456	0.001060	20.783020
531.150054	-3.023700	3.762400	-11.375000	23.645401	0.001059	20.767047
532.143854	-2.999200	3.763100	-11.286000	23.650652	0.001059	20.794123
533.154452	-3.017100	3.761200	-11.346000	23.661084	0.001060	20.769019
534.143951	-3.005400	3.762200	-11.306000	23.669524	0.001059	20.772264
535.148542	-3.000800	3.761900	-11.287000	23.663898	0.001060	20.776108
536.143423	-2.995800	3.762000	-11.269000	23.634400	0.001060	20.783045
537.146668	-2.986400	3.762100	-11.234000	23.612918	0.001060	20.762931
538.146669	-2.984900	3.761800	-11.227000	23.589195	0.001058	20.787040
539.150286	-3.001900	3.761500	-11.290000	23.590290	0.001060	20.782921
540.149555	-3.001100	3.759600	-11.282000	23.600397	0.001059	20.801588
541.146341	-3.008700	3.759300	-11.310000	23.627855	0.001059	20.781225
542.149271	-2.993600	3.760400	-11.256000	23.662881	0.001061	20.799269
543.154927	-2.995900	3.759600	-11.262000	23.691481	0.001061	20.799019
544.150390	-3.012200	3.758300	-11.320000	23.712067	0.001062	20.781726
545.152172	-2.983800	3.760800	-11.221000	23.699098	0.001060	20.800492
546.148522	-2.987600	3.759300	-11.230000	23.740169	0.001062	20.780978
547.155470	-3.001500	3.758600	-11.279000	23.746367	0.001062	20.774864
548.146725	-3.005100	3.757900	-11.292000	23.762670	0.001062	20.787415
549.151886	-3.005100	3.758600	-11.293000	23.791494	0.001060	20.782650
550.148240	-2.991600	3.758300	-11.242000	23.775240	0.001062	20.791484
551.153372	-2.992000	3.756800	-11.239000	23.788906	0.001060	20.780530
552.149195	-3.004100	3.756200	-11.282000	23.825319	0.001057	20.782901
553.149714	-3.012300	3.756600	-11.315000	23.799111	0.001058	20.771796
554.161399	-3.015000	3.754800	-11.320000	23.832089	0.001064	20.794905
555.159074	-2.997200	3.756300	-11.256000	23.838038	0.001061	20.796129
556.150740	-3.000800	3.756200	-11.270000	23.843688	0.001064	20.794681
557.151500	-3.008400	3.755200	-11.296000	23.847845	0.001059	20.796479
558.156286	-3.027700	3.754500	-11.367000	23.871637	0.001063	20.782403
559.150622	-3.018100	3.753300	-11.326000	23.834032	0.001063	20.773145
560.152390	-3.008800	3.753800	-11.293000	23.808721	0.001062	20.789492
561.151149	-2.997600	3.753600	-11.251000	23.789781	0.001059	20.783779
562.150891	-3.010800	3.752200	-11.296000	23.793167	0.001060	20.799501
563.155051	-3.039300	3.750900	-11.398000	23.746199	0.001059	20.804092
564.156093	-3.023900	3.752100	-11.345000	23.777512	0.001062	20.784754
565.168744	-3.007300	3.752300	-11.284000	23.755782	0.001061	20.779561
566.150741	-2.977200	3.752000	-11.169000	23.765018	0.001059	20.801150
567.155548	-3.006400	3.752400	-11.278000	23.742891	0.001063	20.802673
568.152024	-3.011100	3.750500	-11.292000	23.723924	0.001061	20.797881
569.158583	-3.010200	3.750700	-11.289000	23.729226	0.001064	20.772377
570.155003	-3.006200	3.751000	-11.275000	23.720367	0.001064	20.801901
571.163558	-2.962400	3.751800	-11.112000	23.739807	0.001063	20.777295
572.153450	-2.997000	3.749400	-11.236000	23.739436	0.001064	20.774078
573.152343	-3.011100	3.750000	-11.292000	23.792029	0.001063	20.807369
574.156050	-3.020000	3.748800	-11.321000	23.801262	0.001065	20.787703
575.156168	-2.997900	3.750400	-11.242000	23.841411	0.001063	20.803778
576.163944	-2.997500	3.749900	-11.239000	23.833372	0.001064	20.802829
577.152690	-3.013200	3.749200	-11.294000	23.812267	0.001064	20.810117
578.155490	-3.005200	3.749500	-11.267000	23.809329	0.001066	20.801956
579.155777	-3.012100	3.748500	-11.290000	23.746161	0.001063	20.821598
580.152520	-3.016700	3.747800	-11.305000	23.748005	0.001061	20.827713
581.154135	-3.011500	3.747600	-11.285000	23.720577	0.001063	20.806853
582.157607	-2.991700	3.748600	-11.213000	23.727621	0.001062	20.828139
583.164925	-3.015900	3.746500	-11.297000	23.747483	0.001061	20.808225
584.159477	-2.992600	3.748600	-11.216000	23.767073	0.001065	20.795623
585.158073	-2.995600	3.746700	-11.223000	23.751991	0.001061	20.821753
586.165790	-3.014400	3.745900	-11.291000	23.765757	0.001062	20.800468
587.155339	-3.020800	3.745100	-11.312000	23.784224	0.001063	20.800966
588.165064	-2.987900	3.746400	-11.193000	23.776685	0.001060	20.805736
589.158326	-3.006600	3.744500	-11.257000	23.791620	0.001059	20.803640
590.168114	-3.022600	3.744200	-11.316000	23.816136	0.001064	20.800246
591.159308	-2.994100	3.746300	-11.216000	23.834332	0.001063	20.798102
592.161071	-3.013000	3.742800	-11.276000	23.843838	0.001063	20.803841
593.166797	-2.990700	3.743900	-11.196000	23.865965	0.001062	20.792837
594.159079	-3.006300	3.743600	-11.252000	23.891576	0.001063	20.810457
595.161517	-3.016300	3.742500	-11.288000	23.913673	0.001063	20.810804
596.159214	-3.016000	3.742800	-11.287000	23.884556	0.001060	20.801996
597.162799	-3.000600	3.743200	-11.231000	23.854021	0.001060	20.815948
598.161430	-3.024900	3.742300	-11.319000	23.880850	0.001063	20.833840
599.162602	-3.014900	3.741400	-11.279000	23.879283	0.001063	20.824209
600.159978	-3.012300	3.740800	-11.267000	23.901832	0.001062	20.798930
601.164056	-3.011700	3.741600	-11.268000	23.932867	0.001060	20.812981
602.158215	-3.035000	3.740200	-11.351000	23.932094	0.001061	20.808413
603.161290	-2.998700	3.740700	-11.216000	23.920523	0.001060	20.813405
604.168422	-3.024600	3.740500	-11.311000	23.935704	0.001063	20.812033
605.175758	-3.000800	3.739200	-11.220000	23.905392	0.001062	20.822888
606.171126	-2.988100	3.739600	-11.172000	23.911018	0.001062	20.816202
607.176042	-2.998500	3.739700	-11.212000	23.916296	0.001065	20.836667
608.164413	-2.978000	3.740100	-11.137000	23.932122	0.001062	20.825511
609.162656	-3.017700	3.739000	-11.283000	23.941531	0.001063	20.818824
610.177458	-3.011400	3.738400	-11.256000	23.953900	0.001062	20.833124
611.166907	-2.988100	3.739200	-11.172000	23.931676	0.001059	20.815106
612.174838	-2.988200	3.739700	-11.175000	23.950789	0.001061	20.828583
613.165143	-3.019000	3.737200	-11.282000	23.938271	0.001061	20.820297
614.163436	-3.017200	3.737200	-11.276000	23.930159	0.001060	20.821172
615.164421	-2.995200	3.737700	-11.193000	23.969729	0.001063	20.812963
616.162812	-2.984400	3.736600	-11.150000	23.967067	0.001061	20.821673
617.165867	-3.004900	3.737500	-11.229000	24.000414	0.001060	20.815285
618.172348	-3.005200	3.736600	-11.228000	24.025971	0.001061	20.837121
619.163268	-2.985000	3.735200	-11.148000	24.015919	0.001059	20.837945
620.175583	-3.003100	3.735700	-11.218000	24.013803	0.001059	20.848151
621.164345	-2.997700	3.736400	-11.199000	24.002505	0.001058	20.853891
622.169043	-3.012900	3.736300	-11.256000	23.983842	0.001060	20.858408
623.173343	-3.013500	3.734900	-11.254000	23.985309	0.001063	20.825741
624.170622	-2.982600	3.735100	-11.139000	24.001260	0.001058	20.843159
625.169658	-2.985800	3.736100	-11.155000	24.034682	0.001059	20.841116
626.176510	-2.992800	3.735100	-11.178000	24.033639	0.001062	20.829638
627.169816	-3.003400	3.733900	-11.213000	24.047722	0.001058	20.858460
628.175657	-3.012000	3.733600	-11.245000	24.063697	0.001059	20.835127
629.175438	-3.008300	3.732700	-11.228000	24.053819	0.001060	20.834229
630.170335	-2.977500	3.733900	-11.116000	24.045012	0.001061	20.829190
631.173235	-3.007000	3.732500	-11.223000	24.035730	0.001059	20.844062
632.171819	-3.013400	3.732100	-11.246000	24.061708	0.001060	20.834080
633.172421	-2.990100	3.731400	-11.156000	24.070145	0.001059	20.841119
634.177950	-2.977700	3.731300	-11.110000	24.063701	0.001059	20.846510
635.178007	-3.020800	3.730000	-11.266000	24.084303	0.001062	20.842516
636.177938	-3.006200	3.730300	-11.214000	24.099830	0.001059	20.841493
637.184936	-2.990500	3.730800	-11.156000	24.118990	0.001059	20.844588
638.172850	-2.985400	3.730200	-11.135000	24.114163	0.001057	20.832161
639.180151	-3.013400	3.729500	-11.237000	24.095750	0.001060	20.842142
640.174832	-3.030900	3.728300	-11.300000	24.098636	0.001056	20.843141
641.199877	-3.019700	3.728500	-11.258000	24.128620	0.001060	20.862306
642.172174	-3.001200	3.727800	-11.186000	24.128695	0.001058	20.855270
643.181818	-3.010300	3.729000	-11.223000	24.137950	0.001059	20.867397
644.176795	-3.004200	3.728500	-11.200000	24.168629	0.001057	20.847433
645.174185	-2.981400	3.730600	-11.121000	24.171340	0.001057	20.849204
646.178123	-2.981300	3.729800	-11.119000	24.165617	0.001059	20.855792
647.177318	-3.002400	3.728600	-11.194000	24.192165	0.001057	20.849704
648.175103	-2.994200	3.727100	-11.159000	24.162508	0.001056	20.850303
649.180557	-2.996200	3.726400	-11.164000	24.150315	0.001055	20.861780
650.182332	-3.017700	3.726700	-11.244000	24.117745	0.001057	20.863253
651.180499	-3.000400	3.727000	-11.180000	24.112844	0.001057	20.879674
652.187512	-2.982900	3.728000	-11.119000	24.146210	0.001057	20.844862
653.180562	-3.020800	3.725300	-11.252000	24.130311	0.001057	20.863528
654.181284	-3.013900	3.725700	-11.228000	24.140014	0.001059	20.866622
655.180381	-3.001800	3.724800	-11.180000	24.144194	0.001055	20.857064
656.181067	-3.000200	3.724700	-11.174000	24.134614	0.001057	20.866422
657.175014	-2.983400	3.725100	-11.111000	24.142102	0.001054	20.862078
658.177693	-2.993400	3.725300	-11.151000	24.171164	0.001057	20.869415
659.175470	-3.009400	3.724300	-11.206000	24.130083	0.001053	20.853343
660.185517	-3.009800	3.724300	-11.209000	24.133892	0.001053	20.844361
661.175357	-2.991100	3.725100	-11.141000	24.156657	0.001056	20.861029
662.175957	-3.016500	3.723300	-11.232000	24.155587	0.001054	20.848102
663.191422	-3.009700	3.723300	-11.205000	24.170664	0.001056	20.862276
664.179731	-3.002300	3.724300	-11.181000	24.142100	0.001056	20.858283
665.178650	-3.007500	3.722400	-11.195000	24.144961	0.001055	20.846455
666.178203	-3.000800	3.722800	-11.170000	24.169644	0.001054	20.866468
667.177014	-2.975700	3.722700	-11.077000	24.165190	0.001052	20.865320
668.178883	-3.002200	3.720500	-11.169000	24.162128	0.001054	20.866043
669.179834	-2.983600	3.720800	-11.100000	24.164094	0.001054	20.864221
670.180458	-3.010700	3.721100	-11.202000	24.181760	0.001056	20.856336
671.179691	-3.002500	3.720400	-11.169000	24.157403	0.001055	20.856562
672.178931	-2.996300	3.721100	-11.148000	24.164442	0.001054	20.880690
673.180718	-3.001200	3.720500	-11.165000	24.196094	0.001055	20.870712
674.181103	-2.996500	3.719900	-11.146000	24.209528	0.001054	20.867118
675.192102	-2.985700	3.720500	-11.106000	24.221369	0.001056	20.863822
676.187182	-2.992300	3.720200	-11.131000	24.219653	0.001056	20.872532
677.187999	-3.005200	3.719300	-11.175000	24.213781	0.001056	20.873754
678.181056	-3.015900	3.719900	-11.218000	24.200372	0.001053	20.861727
679.184324	-2.980300	3.720000	-11.085000	24.182806	0.001052	20.875876
680.184776	-3.000600	3.717500	-11.154000	24.221569	0.001054	20.885832
681.188287	-2.997600	3.719500	-11.148000	24.224281	0.001054	20.877173
682.188821	-3.027100	3.718100	-11.254000	24.170987	0.001055	20.872557
683.183642	-3.017800	3.717300	-11.217000	24.148620	0.001052	20.883313
684.187507	-3.002200	3.717000	-11.158000	24.145982	0.001051	20.872607
685.192551	-3.011500	3.715000	-11.187000	24.136677	0.001054	20.857585
686.184347	-3.014900	3.716300	-11.204000	24.133018	0.001053	20.873829
687.189050	-2.985500	3.715900	-11.093000	24.152897	0.001054	20.895662
688.194752	-3.018000	3.715600	-11.213000	24.177829	0.001051	20.880841
689.191182	-2.998400	3.716000	-11.142000	24.201565	0.001052	20.900379
690.189638	-3.000600	3.714400	-11.144000	24.210422	0.001051	20.882712
691.187181	-2.996100	3.714800	-11.129000	24.202958	0.001050	20.883286
692.193733	-3.013500	3.713900	-11.191000	24.207063	0.001052	20.879343
693.190634	-2.990500	3.714100	-11.106000	24.218956	0.001053	20.876099
694.201887	-3.005500	3.713300	-11.159000	24.212513	0.001052	20.886231
695.189134	-2.990800	3.714700	-11.109000	24.224828	0.001052	20.876300
696.188409	-2.983100	3.714200	-11.077000	24.190270	0.001052	20.892370
697.190344	-2.990400	3.715200	-11.108000	24.206965	0.001049	20.878296
698.191951	-2.997400	3.714000	-11.131000	24.211169	0.001051	20.885832
699.193515	-3.017700	3.713000	-11.203000	24.209378	0.001051	20.913431
700.195368	-3.036600	3.711100	-11.267000	24.215996	0.001048	20.894466
701.194713	-2.993100	3.712700	-11.112000	24.233635	0.001052	20.879443
702.196739	-2.995800	3.712200	-11.120000	24.278666	0.001048	20.893318
703.193421	-2.999000	3.713200	-11.135000	24.264336	0.001048	20.906917
704.196978	-3.002800	3.711600	-11.144000	24.290234	0.001048	20.888326
705.195276	-3.001100	3.711800	-11.138000	24.282771	0.001049	20.906443
706.202352	-3.007100	3.711100	-11.158000	24.268592	0.001047	20.883213
707.192814	-3.018600	3.710600	-11.200000	24.291406	0.001049	20.877174
708.193784	-3.008300	3.709700	-11.157000	24.332056	0.001048	20.899458
709.197588	-2.983400	3.710500	-11.068000	24.337926	0.001046	20.901079
710.197484	-2.989200	3.710400	-11.090000	24.318721	0.001048	20.891772
711.196770	-3.017500	3.709200	-11.192000	24.329468	0.001048	20.897336
712.197927	-2.997600	3.709100	-11.117000	24.302425	0.001047	20.912882
713.195797	-2.996300	3.709700	-11.115000	24.293869	0.001047	20.917100
714.199117	-3.016800	3.707600	-11.182000	24.262596	0.001047	20.908017
715.195539	-3.014400	3.708000	-11.177000	24.269189	0.001049	20.909414
716.197033	-3.000400	3.709200	-11.128000	24.263815	0.001045	20.892171
717.197014	-3.019400	3.707500	-11.192000	24.228537	0.001046	20.904199
718.199409	-3.012100	3.708400	-11.169000	24.223387	0.001045	20.907094
719.203901	-2.990900	3.708200	-11.089000	24.203684	0.001046	20.913409
720.196859	-3.016300	3.706700	-11.178000	24.214382	0.001048	20.910863
721.199184	-2.988200	3.708400	-11.080000	24.234885	0.001047	20.909144
722.199513	-3.013100	3.706000	-11.165000	24.241078	0.001045	20.910615
723.199089	-2.995600	3.707000	-11.102000	24.246130	0.001047	20.911888
724.201584	-3.003600	3.706800	-11.133000	24.229138	0.001044	20.919499
725.201436	-2.998400	3.705900	-11.112000	24.230681	0.001045	20.920572
726.199529	-2.987300	3.706100	-11.070000	24.246130	0.001045	20.922793
727.198004	-2.992600	3.705900	-11.089000	24.283325	0.001044	20.899887
728.203863	-2.994100	3.704800	-11.091000	24.270562	0.001045	20.918851
729.200112	-3.000000	3.703700	-11.109000	24.239341	0.001047	20.916457
730.201490	-2.987700	3.704100	-11.065000	24.232525	0.001042	20.937119
731.203574	-3.006200	3.704000	-11.134000	24.248274	0.001043	20.915461
732.204015	-3.004700	3.704100	-11.128000	24.269146	0.001044	20.910793
733.200642	-2.998900	3.702600	-11.102000	24.276786	0.001045	20.923671
734.203248	-3.012900	3.702800	-11.154000	24.251608	0.001043	20.923546
735.202754	-2.993100	3.703000	-11.083000	24.241931	0.001041	20.930434
736.207881	-2.997200	3.704000	-11.100000	24.267979	0.001045	20.945655
737.200614	-3.008200	3.701600	-11.133000	24.290943	0.001043	20.915588
738.202754	-2.995000	3.702000	-11.086000	24.310621	0.001043	20.927739
739.200614	-2.981000	3.703200	-11.038000	24.333659	0.001045	20.937098
740.203777	-3.006500	3.701700	-11.128000	24.355326	0.001041	20.937497
741.201664	-2.997700	3.700500	-11.091000	24.338983	0.001043	20.941964
742.200222	-3.008900	3.700500	-11.133000	24.321371	0.001041	20.920506
743.200634	-3.001300	3.700900	-11.106000	24.315499	0.001043	20.920305
744.201961	-3.008500	3.700700	-11.133000	24.306518	0.001043	20.930262
745.207083	-2.995300	3.700500	-11.083000	24.300299	0.001044	20.927342
746.201855	-2.993300	3.699900	-11.073000	24.315899	0.001043	20.942515
747.203050	-3.007400	3.698600	-11.121000	24.275820	0.001041	20.944985
748.209524	-3.025400	3.699800	-11.192000	24.314033	0.001040	20.944910
749.201420	-2.999900	3.699200	-11.096000	24.324334	0.001040	20.947656
750.202566	-2.997400	3.698700	-11.085000	24.366078	0.001042	20.940695
751.206575	-2.985200	3.699600	-11.043000	24.360629	0.001042	20.933807
752.211658	-2.988900	3.698700	-11.053000	24.374785	0.001040	20.938525
753.202291	-2.981900	3.699500	-11.031000	24.374810	0.001038	20.926698
754.213863	-3.001600	3.699400	-11.101000	24.378070	0.001040	20.933287
755.202954	-2.996100	3.698600	-11.080000	24.353592	0.001040	20.944765
756.203504	-2.990500	3.697300	-11.055000	24.342894	0.001039	20.961532
757.202228	-2.974000	3.698100	-10.997000	24.372672	0.001039	20.936879
758.206477	-2.983600	3.698800	-11.035000	24.347523	0.001036	20.944366
759.211165	-3.006500	3.696500	-11.112000	24.348941	0.001040	20.960485
760.208895	-3.018600	3.694800	-11.150000	24.349913	0.001038	20.961934
761.212770	-2.989600	3.697600	-11.053000	24.337224	0.001038	20.950155
762.206449	-2.990000	3.695700	-11.049000	24.350335	0.001039	20.939128
763.207805	-2.985700	3.695500	-11.033000	24.386257	0.001036	20.962358
764.209778	-3.003200	3.694600	-11.095000	24.359913	0.001035	20.957743
765.209036	-3.008900	3.694300	-11.115000	24.352326	0.001038	20.959140
766.210239	-2.988200	3.695700	-11.043000	24.351181	0.001035	20.960362
767.211256	-3.001500	3.694500	-11.089000	24.369764	0.001035	20.951978
768.211171	-2.982700	3.694700	-11.019000	24.377749	0.001034	20.941972
769.210513	-3.012700	3.692200	-11.122000	24.383944	0.001037	20.947712
770.212305	-3.017800	3.692200	-11.141000	24.398075	0.001036	20.950034
771.209295	-2.995100	3.693900	-11.062000	24.399443	0.001037	20.961362
772.209462	-3.010100	3.692900	-11.113000	24.420264	0.001033	20.973239
773.210077	-3.001700	3.693600	-11.086000	24.417626	0.001034	20.965378
774.213631	-2.982800	3.693000	-11.014000	24.394417	0.001034	20.945416
775.209931	-3.017200	3.690800	-11.135000	24.392726	0.001036	20.965054
776.210639	-2.989800	3.692400	-11.038000	24.421034	0.001031	20.949359
777.217789	-3.011000	3.690200	-11.111000	24.424965	0.001034	20.959940
778.211472	-2.985400	3.692300	-11.022000	24.437826	0.001032	20.955773
779.216047	-2.998300	3.690800	-11.064000	24.452949	0.001033	20.992751
780.211559	-2.981200	3.690400	-11.000000	24.477300	0.001033	20.967400
781.213390	-3.006000	3.691100	-11.094000	24.476780	0.001033	20.946966
782.215823	-3.006100	3.691100	-11.095000	24.446085	0.001034	20.947465
783.213485	-3.006800	3.689900	-11.093000	24.443126	0.001031	20.951134
784.217151	-2.996200	3.691200	-11.059000	24.459368	0.001032	20.943248
785.216371	-3.002100	3.690500	-11.078000	24.458000	0.001032	20.955624
786.218117	-3.014700	3.688600	-11.119000	24.482922	0.001032	20.943171
787.217204	-3.000500	3.688800	-11.068000	24.515732	0.001032	20.947640
788.219069	-3.009000	3.688000	-11.096000	24.521229	0.001033	20.950783
789.214283	-2.999500	3.687200	-11.058000	24.517298	0.001029	20.937833
790.222347	-3.015100	3.688200	-11.119000	24.508344	0.001033	20.923635
791.219577	-3.005400	3.685900	-11.077000	24.525207	0.001032	20.946715
792.213558	-2.981900	3.687400	-10.995000	24.535777	0.001030	20.934562
793.215703	-2.996400	3.687600	-11.048000	24.498892	0.001032	20.941176
794.216855	-2.994000	3.687300	-11.039000	24.531301	0.001032	20.920590
795.217036	-2.994600	3.687500	-11.040000	24.513291	0.001029	20.930020
796.221004	-3.007900	3.686200	-11.086000	24.524708	0.001031	20.927724
797.217993	-2.996800	3.688200	-11.052000	24.467898	0.001029	20.914825
798.218366	-3.003500	3.686600	-11.071000	24.462873	0.001029	20.915473
799.222799	-2.998300	3.685800	-11.051000	24.447102	0.001028	20.929521
800.220869	-2.996900	3.685100	-11.043000	24.448819	0.001025	20.921287
801.217530	-2.997200	3.684600	-11.043000	24.477374	0.001027	20.908211
802.218572	-2.998200	3.685000	-11.048000	24.496303	0.001029	20.927200
803.220036	-3.025700	3.683200	-11.143000	24.503814	0.001026	20.913401
804.219772	-2.994700	3.683800	-11.031000	24.507891	0.001026	20.920336
805.220405	-3.008500	3.683400	-11.081000	24.535503	0.001026	20.930968
806.223703	-2.995700	3.684900	-11.038000	24.568681	0.001025	20.922533
807.220857	-2.990100	3.684300	-11.016000	24.557887	0.001024	20.922134
808.221082	-2.990700	3.683300	-11.015000	24.578407	0.001026	20.906689
809.226906	-3.033600	3.681900	-11.168000	24.554427	0.001026	20.917241
810.222467	-2.996800	3.684100	-11.040000	24.564453	0.001027	20.908335
811.221646	-3.009500	3.683300	-11.084000	24.549179	0.001025	20.906760
812.226266	-3.014500	3.681400	-11.096000	24.574475	0.001022	20.923604
813.222193	-3.008600	3.680600	-11.071000	24.569947	0.001023	20.906261
814.236345	-3.009500	3.680800	-11.076000	24.567909	0.001026	20.896156
815.224745	-2.992800	3.681600	-11.017000	24.573601	0.001022	20.926995
816.222019	-2.996600	3.680100	-11.027000	24.565319	0.001022	20.901618
817.222072	-2.975300	3.682800	-10.957000	24.552835	0.001022	20.901894
818.225376	-3.000800	3.680900	-11.044000	24.501719	0.001021	20.923152
819.222595	-3.013400	3.680500	-11.089000	24.510946	0.001023	20.910126
820.225462	-2.989600	3.681300	-11.004000	24.493013	0.001021	20.887867
821.222540	-3.019400	3.679500	-11.109000	24.465229	0.001023	20.910251
822.225489	-2.981700	3.680500	-10.973000	24.458363	0.001023	20.911897
823.227778	-3.010300	3.679700	-11.076000	24.517486	0.001021	20.922850
824.225655	-2.995500	3.678900	-11.019000	24.522683	0.001021	20.936123
825.223593	-2.991000	3.680500	-11.008000	24.557256	0.001020	20.895899
826.230519	-2.981400	3.679000	-10.968000	24.552282	0.001020	20.910822
827.226529	-2.996300	3.677900	-11.018000	24.577676	0.001021	20.915438
828.225403	-3.001000	3.677600	-11.035000	24.599611	0.001018	20.910895
829.226091	-2.989200	3.678700	-10.995000	24.573047	0.001016	20.888036
830.225102	-2.998600	3.676800	-11.025000	24.550239	0.001018	20.905453
831.227807	-2.995900	3.678400	-11.019000	24.582024	0.001017	20.879026
832.227326	-3.000300	3.677300	-11.032000	24.580879	0.001018	20.898738
833.227359	-2.992400	3.676400	-11.001000	24.575531	0.001016	20.895744
834.227155	-3.001700	3.674400	-11.028000	24.547822	0.001017	20.900658
835.233214	-3.007300	3.675200	-11.051000	24.537524	0.001018	20.880844
836.227736	-3.009000	3.675200	-11.057000	24.502627	0.001017	20.883290
837.230701	-3.014900	3.674600	-11.077000	24.463376	0.001017	20.900807
838.229257	-3.031700	3.674600	-11.139000	24.493821	0.001018	20.881567
839.228975	-3.006900	3.675300	-11.051000	24.477080	0.001018	20.886582
840.231266	-3.007000	3.674500	-11.049000	24.472802	0.001018	20.881341
841.228311	-2.993800	3.675400	-11.003000	24.497673	0.001017	20.885431
842.227937	-2.978300	3.675900	-10.947000	24.491257	0.001016	20.897011
843.229915	-2.999400	3.674400	-11.020000	24.481407	0.001015	20.889500
844.228999	-2.987300	3.674900	-10.977000	24.477401	0.001016	20.886904
845.229185	-3.017100	3.674200	-11.084000	24.452155	0.001016	20.898558
846.229914	-2.977600	3.675600	-10.943000	24.430638	0.001017	20.879817
847.229466	-2.990200	3.675200	-10.988000	24.419616	0.001014	20.872079
848.229084	-2.996900	3.673100	-11.005000	24.445861	0.001014	20.892244
849.230794	-3.007200	3.673000	-11.044000	24.437825	0.001015	20.897458
850.232099	-3.015400	3.671700	-11.071000	24.427725	0.001015	20.890645
851.232651	-2.996800	3.672000	-11.003000	24.447800	0.001013	20.888974
852.230473	-3.001700	3.673000	-11.024000	24.488593	0.001013	20.875373
853.234099	-3.007800	3.671000	-11.040000	24.530379	0.001012	20.868460
854.232462	-2.991800	3.671700	-10.984000	24.543935	0.001014	20.898655
855.230917	-2.991700	3.671000	-10.980000	24.604871	0.001011	20.895311
856.236910	-2.994600	3.670600	-10.991000	24.627230	0.001011	20.882186
857.234614	-2.985000	3.670300	-10.955000	24.642724	0.001011	20.892991
858.230860	-2.960600	3.672100	-10.870000	24.670628	0.001012	20.869784
859.233261	-3.024900	3.670600	-11.102000	24.694752	0.001010	20.886403
860.233165	-3.016700	3.669400	-11.068000	24.678461	0.001009	20.887126
861.229598	-3.009200	3.670000	-11.043000	24.645137	0.001009	20.875498
862.230751	-2.996400	3.668100	-10.990000	24.641854	0.001007	20.880265
863.231379	-2.989500	3.667700	-10.964000	24.653368	0.001009	20.883283
864.233134	-3.010300	3.666300	-11.036000	24.679954	0.001009	20.882934
865.232066	-3.006800	3.667900	-11.028000	24.667643	0.001008	20.872478
866.232942	-2.992400	3.668200	-10.976000	24.683012	0.001009	20.869408
867.240664	-3.015600	3.668000	-11.059000	24.680129	0.001005	20.882161
868.233106	-3.001200	3.667600	-11.006000	24.705644	0.001008	20.865093
869.237801	-3.001900	3.666800	-11.007000	24.671870	0.001008	20.856805
870.233966	-2.993700	3.667400	-10.978000	24.668339	0.001008	20.873176
871.235673	-2.991000	3.666300	-10.965000	24.665006	0.001008	20.873151
872.236640	-2.973600	3.668600	-10.908000	24.647398	0.001006	20.867336
873.234486	-3.002100	3.666800	-11.007000	24.690348	0.001008	20.854011
874.234418	-2.999400	3.665400	-10.993000	24.701588	0.001006	20.882358
875.235087	-2.979600	3.666000	-10.921000	24.688903	0.001003	20.853036
876.236151	-3.006900	3.665800	-11.021000	24.692708	0.001007	20.855906
877.237060	-3.032700	3.663600	-11.110000	24.710166	0.001005	20.868682
878.240191	-3.005300	3.664200	-11.011000	24.742369	0.001003	20.869704
879.239754	-3.007900	3.663500	-11.018000	24.754579	0.001005	20.859672
880.235555	-3.003600	3.664800	-11.007000	24.789043	0.001001	20.843051
881.242279	-3.005900	3.664200	-11.012000	24.779369	0.001002	20.853730
882.241307	-3.005500	3.663500	-11.010000	24.758930	0.001002	20.846495
883.246946	-3.001900	3.663400	-10.996000	24.749277	0.001000	20.878058
884.249599	-2.973400	3.663600	-10.892000	24.756265	0.001001	20.852355
885.236696	-3.005700	3.662900	-11.008000	24.756436	0.001001	20.870070
886.239146	-2.988500	3.662400	-10.942000	24.751834	0.001001	20.868297
887.239199	-2.992200	3.663100	-10.960000	24.754566	0.001000	20.862030
888.244096	-2.992600	3.663700	-10.963000	24.756381	0.000998	20.863851
889.241843	-2.988700	3.662200	-10.944000	24.745463	0.001001	20.856213
890.240555	-2.992400	3.661500	-10.955000	24.742699	0.000998	20.844906
891.243682	-3.011200	3.661300	-11.023000	24.736306	0.000998	20.855085
892.240656	-3.006100	3.660400	-11.002000	24.769701	0.000999	20.883381
893.245422	-3.004600	3.660400	-10.997000	24.762912	0.000999	20.854758
894.239845	-3.004000	3.660400	-10.995000	24.739110	0.000998	20.862640
895.241488	-2.978100	3.659700	-10.898000	24.741993	0.000996	20.851783
896.244128	-3.002700	3.659200	-10.987000	24.712174	0.000999	20.844620
897.245898	-2.990900	3.659000	-10.942000	24.713836	0.000999	20.846288
898.240544	-3.002900	3.659100	-10.986000	24.692722	0.000997	20.843117
899.242327	-3.011200	3.658000	-11.014000	24.714828	0.000999	20.846335
900.240015	-3.016300	3.659700	-11.037000	24.690554	0.000998	20.839994
901.240432	-3.008400	3.658100	-11.004000	24.738102	0.000998	20.836026
902.240650	-2.976900	3.658100	-10.889000	24.736459	0.000998	20.843859
903.240934	-3.011900	3.657300	-11.015000	24.759932	0.000994	20.849397
904.243040	-2.978400	3.657400	-10.892000	24.759109	0.000995	20.844778
905.245271	-2.975000	3.658100	-10.882000	24.770224	0.000995	20.825113
906.242431	-2.996300	3.657200	-10.957000	24.758585	0.000996	20.846623
907.243036	-2.972900	3.658100	-10.874000	24.768953	0.000993	20.842329
908.244586	-3.015100	3.656400	-11.022000	24.775415	0.000993	20.823685
909.242787	-3.022500	3.655400	-11.047000	24.788195	0.000994	20.831769
910.241247	-2.980800	3.656100	-10.898000	24.798590	0.000994	20.836036
911.242948	-2.990800	3.657000	-10.936000	24.822286	0.000995	20.813351
912.245047	-3.008600	3.656800	-11.000000	24.817883	0.000992	20.856345
913.243232	-2.987900	3.655900	-10.922000	24.781949	0.000993	20.819810
914.248275	-3.002900	3.654500	-10.973000	24.736268	0.000991	20.837504
915.245612	-3.019300	3.653800	-11.031000	24.766852	0.000990	20.857764
916.249155	-3.006500	3.655400	-10.989000	24.759814	0.000993	20.834107
917.245786	-2.990700	3.655800	-10.932000	24.761753	0.000992	20.835578
918.254780	-2.992800	3.653900	-10.934000	24.754068	0.000992	20.829289
919.262698	-2.978100	3.655300	-10.884000	24.714128	0.000993	20.829037
920.249282	-3.038100	3.650700	-11.089000	24.716043	0.000992	20.842812
921.250875	-2.988700	3.652600	-10.915000	24.692067	0.000990	20.819702
922.247432	-3.005200	3.652600	-10.976000	24.719846	0.000991	20.804430
923.247945	-3.022400	3.652100	-11.036000	24.748691	0.000990	20.814884
924.255594	-2.985600	3.652300	-10.903000	24.728696	0.000990	20.828484
925.248170	-2.983200	3.652300	-10.895000	24.727402	0.000990	20.823392
926.246498	-2.988100	3.653200	-10.916000	24.699549	0.000989	20.826736
927.248123	-2.999100	3.651100	-10.948000	24.690396	0.000988	20.820870
928.249773	-3.005300	3.651600	-10.973000	24.669157	0.000988	20.817101
929.250814	-3.003500	3.651300	-10.965000	24.685295	0.000987	20.816225
930.251232	-3.004100	3.651400	-10.968000	24.700913	0.000988	20.818621
931.251762	-3.005000	3.650500	-10.968000	24.725706	0.000986	20.804146
932.254322	-2.988500	3.650500	-10.909000	24.747266	0.000988	20.823411
933.250429	-2.995900	3.651700	-10.938000	24.746122	0.000986	20.818944
934.271184	-2.985200	3.650700	-10.897000	24.769273	0.000987	20.829849
935.253093	-3.002300	3.649900	-10.957000	24.789489	0.000987	20.805566
936.251715	-3.014600	3.649200	-11.001000	24.769570	0.000988	20.820190
937.255776	-3.010000	3.648900	-10.981000	24.730202	0.000987	20.815771
938.254010	-2.983300	3.650900	-10.890000	24.703145	0.000984	20.801421
939.252776	-3.012200	3.648900	-10.988000	24.691705	0.000985	20.804166
940.256850	-2.998500	3.647900	-10.937000	24.677603	0.000986	20.813248
941.256238	-3.003100	3.649000	-10.956000	24.692398	0.000984	20.813396
942.252826	-2.979700	3.648100	-10.869000	24.712518	0.000985	20.807033
943.257230	-3.018900	3.647600	-11.009000	24.756733	0.000984	20.800195
944.260512	-2.997500	3.646400	-10.929000	24.777795	0.000983	20.819435
945.256090	-2.990400	3.647200	-10.905000	24.795276	0.000981	20.808055
946.253901	-3.016600	3.645600	-10.996000	24.826407	0.000982	20.807055
947.253907	-2.999100	3.645500	-10.933000	24.813303	0.000984	20.819508
948.255429	-3.012400	3.646000	-10.983000	24.787516	0.000979	20.811647
949.254294	-3.005500	3.645700	-10.956000	24.770803	0.000982	20.810996
950.257370	-2.990700	3.644200	-10.897000	24.747352	0.000982	20.810222
951.255550	-3.007700	3.643600	-10.958000	24.724274	0.000982	20.795122
952.256027	-2.992600	3.645600	-10.909000	24.720717	0.000982	20.798665
953.255843	-3.013000	3.644500	-10.979000	24.727007	0.000982	20.808297
954.258750	-2.988700	3.644800	-10.892000	24.728227	0.000981	20.808098
955.257675	-2.981600	3.645000	-10.867000	24.769182	0.000979	20.797041
956.257217	-3.010500	3.643700	-10.968000	24.800888	0.000980	20.811316
957.259169	-2.986800	3.644100	-10.884000	24.799196	0.000980	20.793971
958.256484	-3.010900	3.642600	-10.967000	24.829508	0.000982	20.809219
959.261039	-2.998500	3.641900	-10.920000	24.855914	0.000980	20.811538
960.263945	-2.990800	3.644700	-10.900000	24.835847	0.000976	20.781916
961.267938	-3.000600	3.642500	-10.929000	24.805137	0.000979	20.782390
962.259365	-2.990500	3.642400	-10.891000	24.770396	0.000977	20.808217
963.260632	-2.992500	3.641600	-10.896000	24.752144	0.000977	20.796064
964.265827	-3.000800	3.642600	-10.930000	24.770744	0.000978	20.787703
965.265682	-2.980700	3.643400	-10.858000	24.766864	0.000975	20.798034
966.262765	-3.016000	3.642600	-10.983000	24.750650	0.000978	20.788875
967.266497	-3.008200	3.641700	-10.954000	24.759502	0.000975	20.791120
968.266188	-3.005200	3.641600	-10.943000	24.737220	0.000975	20.774923
969.264724	-2.993900	3.641300	-10.899000	24.764699	0.000974	20.799180
970.263062	-2.982500	3.642000	-10.861000	24.774396	0.000977	20.788049
971.263932	-2.987700	3.640400	-10.876000	24.797272	0.000973	20.789195
972.263605	-3.002700	3.639500	-10.928000	24.798914	0.000975	20.779937
973.265241	-3.007200	3.639400	-10.943000	24.812515	0.000973	20.785053
974.268071	-3.011800	3.638800	-10.958000	24.808536	0.000973	20.778689
975.268349	-2.998100	3.638000	-10.906000	24.803910	0.000971	20.783055
976.266547	-3.004000	3.638300	-10.929000	24.823603	0.000970	20.780533
977.267638	-2.996900	3.637500	-10.900000	24.834990	0.000971	20.794806
978.265728	-2.988100	3.639300	-10.872000	24.838123	0.000971	20.804588
979.266160	-2.992700	3.638300	-10.886000	24.823775	0.000973	20.794930
980.265070	-2.986600	3.638200	-10.863000	24.815966	0.000970	20.795154
981.265531	-3.001400	3.636400	-10.913000	24.795674	0.000969	20.790436
982.271991	-2.999500	3.638600	-10.912000	24.815244	0.000969	20.772144
983.266482	-3.007500	3.637400	-10.938000	24.829441	0.000969	20.776910
984.266170	-3.019900	3.636600	-10.982000	24.811163	0.000968	20.777057
985.269228	-2.999700	3.636500	-10.907000	24.782740	0.000970	20.795474
986.266992	-3.009400	3.636500	-10.943000	24.804721	0.000970	20.790507
987.267570	-3.021500	3.634800	-10.981000	24.782017	0.000968	20.765825
988.267132	-2.996100	3.636900	-10.895000	24.785795	0.000969	20.780523
989.273613	-2.978200	3.635600	-10.827000	24.791539	0.000967	20.785338
990.269249	-3.000500	3.636000	-10.908000	24.807478	0.000966	20.770988
991.270096	-3.008500	3.636100	-10.938000	24.829532	0.000967	20.764198
992.270507	-3.006300	3.633700	-10.923000	24.813418	0.000966	20.768415
993.272626	-3.004800	3.634500	-10.919000	24.834603	0.000965	20.771185
994.270263	-3.000800	3.633700	-10.903000	24.857005	0.000965	20.791771
995.275963	-3.004000	3.633300	-10.914000	24.881348	0.000965	20.779692
996.275361	-2.997400	3.633400	-10.889000	24.873712	0.000964	20.772976
997.279286	-2.991500	3.633300	-10.868000	24.883459	0.000963	20.768535
998.275893	-2.990500	3.632600	-10.862000	24.884899	0.000963	20.769980
999.272895	-2.983300	3.632400	-10.835000	24.886465	0.000960	20.763016
1000.272079	-2.986800	3.632700	-10.848000	24.890218	0.000964	20.791440
1001.275379	-3.013200	3.632100	-10.942000	24.897875	0.000962	20.764037
1002.280155	-2.993100	3.631400	-10.868000	24.881241	0.000961	20.766782
1003.294739	-2.991800	3.630600	-10.861000	24.875172	0.000964	20.784873
1004.278231	-3.010800	3.630600	-10.930000	24.860997	0.000961	20.764483
1005.274404	-3.011400	3.631100	-10.933000	24.836105	0.000961	20.778856
1006.274980	-3.002700	3.630500	-10.901000	24.812632	0.000959	20.751978
1007.278989	-2.992100	3.629300	-10.858000	24.842096	0.000962	20.755944
1008.292428	-2.974400	3.629500	-10.794000	24.859675	0.000961	20.741344
1009.276099	-2.993100	3.628900	-10.861000	24.851021	0.000961	20.773437
1010.275542	-3.002500	3.627700	-10.891000	24.882103	0.000958	20.752948
1011.277203	-3.011900	3.628300	-10.927000	24.891649	0.000958	20.781496
1012.289798	-3.009800	3.628300	-10.920000	24.896347	0.000959	20.770090
1013.276040	-3.017900	3.625700	-10.940000	24.924890	0.000959	20.775030
1014.281592	-3.002100	3.628000	-10.891000	24.948088	0.000958	20.764175
1015.282626	-3.004400	3.627400	-10.897000	24.986575	0.000956	20.757286
1016.281897	-3.002100	3.627700	-10.889000	24.984411	0.000958	20.752743
1017.284590	-2.993600	3.627300	-10.857000	25.015563	0.000957	20.760578
1018.282223	-3.001600	3.625300	-10.881000	25.015015	0.000957	20.758806
1019.278223	-2.987300	3.626700	-10.833000	24.995248	0.000955	20.772630
1020.282458	-2.998000	3.627200	-10.872000	24.969193	0.000956	20.764969
1021.288404	-2.991400	3.628000	-10.851000	24.955566	0.000956	20.755085
1022.278122	-2.983700	3.625300	-10.816000	24.925903	0.000954	20.742381
1023.283711	-2.998700	3.628100	-10.878000	24.919961	0.000954	20.752539
1024.281024	-2.996800	3.626200	-10.866000	24.892187	0.000955	20.738412
1025.283522	-3.026600	3.624400	-10.969000	24.890694	0.000954	20.788124
1026.285653	-2.995600	3.625500	-10.859000	24.867370	0.000954	20.765663
1027.288176	-2.990500	3.625800	-10.842000	24.850536	0.000953	20.758250
1028.288756	-3.009900	3.623500	-10.905000	24.849962	0.000952	20.778064
1029.282809	-2.962500	3.626200	-10.741000	24.848618	0.000953	20.762964
1030.282865	-2.988000	3.623700	-10.827000	24.829696	0.000952	20.754879
1031.284193	-2.971500	3.623900	-10.767000	24.882234	0.000952	20.774892
1032.286152	-2.992300	3.624200	-10.843000	24.907969	0.000952	20.767530
1033.284300	-3.003100	3.623500	-10.881000	24.910404	0.000952	20.757172
1034.283943	-2.971000	3.623300	-10.764000	24.946457	0.000949	20.736932
1035.282080	-3.027100	3.620900	-10.961000	24.968783	0.000950	20.764084
1036.291894	-2.988600	3.623200	-10.828000	24.963138	0.000949	20.793980
1037.285036	-2.999300	3.622700	-10.864000	24.943522	0.000948	20.790886
1038.282589	-3.013100	3.620800	-10.909000	24.974625	0.000948	20.768526
1039.291636	-3.014300	3.620800	-10.913000	24.980640	0.000949	20.771244
1040.294997	-2.986500	3.621200	-10.814000	25.001375	0.000950	20.747960
1041.285541	-2.996400	3.620800	-10.848000	25.022930	0.000949	20.759639
1042.282720	-2.992000	3.620600	-10.831000	24.999286	0.000947	20.761036
1043.291485	-3.001800	3.619800	-10.865000	25.002419	0.000947	20.781251
1044.293055	-2.993300	3.621200	-10.838000	24.977183	0.000946	20.781525
1045.298868	-2.990900	3.620400	-10.829000	24.989912	0.000946	20.775335
1046.287595	-2.980900	3.619900	-10.790000	25.003411	0.000947	20.759961
1047.290587	-3.004300	3.618400	-10.869000	25.012834	0.000946	20.770842
1048.291317	-3.000600	3.617600	-10.854000	25.073669	0.000945	20.748930
1049.296007	-2.980900	3.619200	-10.788000	25.067354	0.000945	20.764877
1050.296054	-3.000400	3.617100	-10.852000	25.079708	0.000944	20.765425
1051.285770	-3.003300	3.617100	-10.862000	25.115482	0.000945	20.794225
1052.286140	-3.018100	3.618200	-10.919000	25.140862	0.000943	20.765649
1053.287495	-2.987700	3.618400	-10.809000	25.153241	0.000942	20.755791
1054.288271	-3.016700	3.616100	-10.907000	25.139121	0.000941	20.764376
1055.285665	-3.016400	3.615200	-10.904000	25.135267	0.000942	20.769990
1056.295734	-2.991900	3.615800	-10.817000	25.089575	0.000941	20.751147
1057.289163	-2.978800	3.616300	-10.771000	25.072570	0.000944	20.780545
1058.289345	-2.976500	3.617100	-10.765000	25.027994	0.000939	20.781319
1059.289634	-3.005500	3.615200	-10.865000	25.054545	0.000939	20.774305
1060.292912	-2.990300	3.616600	-10.813000	25.019340	0.000939	20.772632
1061.286646	-2.979100	3.615300	-10.769000	24.988288	0.000939	20.780343
1062.291010	-2.990900	3.614200	-10.807000	24.957906	0.000939	20.769763
1063.290672	-3.020600	3.613900	-10.913000	24.957583	0.000938	20.771808
1064.286827	-3.006700	3.614900	-10.868000	24.943709	0.000938	20.777323
1065.286612	-3.003100	3.613100	-10.849000	24.962430	0.000937	20.780467
1066.293459	-3.017800	3.613200	-10.904000	24.972051	0.000939	20.784435
1067.285915	-2.989700	3.613900	-10.804000	24.976750	0.000935	20.756908
1068.284652	-3.013400	3.613500	-10.888000	24.988386	0.000937	20.784709
1069.286226	-2.984400	3.612800	-10.780000	25.016007	0.000937	20.799157
1070.296794	-2.974600	3.614100	-10.749000	25.039177	0.000936	20.774051
1071.291270	-2.987500	3.612400	-10.790000	25.032861	0.000935	20.775298
1072.299200	-2.990800	3.611800	-10.800000	25.021725	0.000933	20.802052
1073.288593	-2.988800	3.610900	-10.791000	25.028808	0.000934	20.785929
1074.298705	-2.991600	3.610700	-10.800000	25.006011	0.000934	20.774425
1075.294773	-3.002200	3.610400	-10.838000	24.979681	0.000930	20.766488
1076.291715	-3.029800	3.610600	-10.938000	24.999793	0.000934	20.771029
1077.296387	-3.003100	3.611500	-10.844000	24.974807	0.000935	20.782933
1078.306195	-3.003300	3.608600	-10.836000	25.016303	0.000933	20.776695
1079.297368	-2.994000	3.610200	-10.807000	25.020155	0.000934	20.778666
1080.287346	-2.995400	3.610300	-10.813000	25.051829	0.000933	20.800976
1081.291535	-2.974100	3.611000	-10.738000	25.057123	0.000932	20.777841
1082.289808	-3.007900	3.610000	-10.857000	25.046806	0.000930	20.796883
1083.289069	-2.985100	3.608900	-10.772000	25.044991	0.000930	20.773724
1084.289166	-3.000200	3.609000	-10.827000	25.007301	0.000930	20.789470
1085.292096	-3.009400	3.607300	-10.855000	25.002303	0.000928	20.791092
1086.300823	-3.004500	3.607400	-10.837000	24.984327	0.000929	20.798179
1087.290848	-2.988100	3.608100	-10.779000	25.005013	0.000930	20.794760
1088.293238	-2.995600	3.607300	-10.804000	25.027487	0.000927	20.792663
1089.289830	-3.010800	3.606500	-10.856000	25.051726	0.000927	20.790442
1090.295331	-3.009700	3.606200	-10.853000	25.042950	0.000927	20.798227
1091.305420	-3.008000	3.605200	-10.843000	25.060004	0.000926	20.799700
1092.295625	-3.004300	3.606100	-10.833000	25.055976	0.000927	20.801820
1093.291014	-2.995900	3.605800	-10.801000	25.059631	0.000923	20.788419
1094.297159	-3.019200	3.607000	-10.889000	25.051203	0.000927	20.825952
1095.299738	-3.001900	3.606300	-10.825000	25.049885	0.000928	20.791912
1096.291685	-2.988900	3.604800	-10.774000	25.036807	0.000927	20.800596
1097.308622	-3.000200	3.604200	-10.813000	25.020224	0.000923	20.796753
1098.294258	-2.983500	3.604100	-10.751000	25.024102	0.000924	20.800171
1099.290162	-3.002600	3.604100	-10.821000	25.043817	0.000926	20.786770
1100.293957	-2.982800	3.605800	-10.754000	25.028428	0.000924	20.802617
1101.295901	-2.996000	3.604200	-10.796000	25.060399	0.000924	20.798673
1102.294873	-2.999500	3.601000	-10.800000	25.068926	0.000922	20.813397
1103.293647	-3.001900	3.602600	-10.814000	25.085109	0.000925	20.800719
1104.294587	-2.986800	3.602000	-10.757000	25.087769	0.000924	20.807182
1105.291904	-3.010200	3.600700	-10.838000	25.080410	0.000921	20.814493
1106.292358	-3.012700	3.601900	-10.851000	25.070118	0.000922	20.814593
1107.307022	-2.983500	3.601900	-10.745000	25.091051	0.000923	20.791510
1108.298669	-3.013700	3.600700	-10.851000	25.101118	0.000920	20.818212
1109.293299	-2.992500	3.600600	-10.773000	25.138357	0.000920	20.812921
1110.298430	-2.999000	3.602000	-10.800000	25.172116	0.000918	20.804137
1111.295918	-2.987500	3.600300	-10.755000	25.186358	0.000917	20.819384
1112.302978	-2.984100	3.601500	-10.746000	25.238408	0.000917	20.827069
1113.295263	-2.998900	3.599600	-10.794000	25.272537	0.000918	20.800643
1114.299365	-3.004700	3.600300	-10.816000	25.282901	0.000917	20.810100
1115.294731	-2.998500	3.598300	-10.789000	25.257000	0.000918	20.801640
1116.310082	-2.999500	3.598500	-10.793000	25.192920	0.000917	20.816014
1117.297239	-3.009300	3.597400	-10.825000	25.167713	0.000917	20.804459
1118.296351	-3.013000	3.598500	-10.841000	25.142830	0.000913	20.814092
1119.314167	-2.981000	3.600100	-10.731000	25.136962	0.000916	20.817685
1120.303890	-2.996200	3.597300	-10.777000	25.107951	0.000915	20.818433
1121.300859	-3.014400	3.597800	-10.844000	25.117945	0.000915	20.811396
1122.311810	-3.009000	3.598100	-10.826000	25.143449	0.000915	20.806179
1123.304795	-3.022700	3.596100	-10.869000	25.170048	0.000912	20.822924
1124.301622	-3.015000	3.594600	-10.836000	25.190232	0.000915	20.803833
1125.300303	-2.992200	3.595800	-10.757000	25.208428	0.000911	20.814988
1126.313116	-3.011000	3.594900	-10.823000	25.249515	0.000910	20.812616
1127.301007	-3.004600	3.594500	-10.799000	25.253592	0.000911	20.833779
1128.303683	-2.987200	3.594900	-10.738000	25.257966	0.000912	20.791704
1129.301041	-3.009800	3.595700	-10.822000	25.284736	0.000912	20.817632
1130.304099	-3.007200	3.595000	-10.810000	25.238354	0.000912	20.826066
1131.300438	-2.998800	3.593900	-10.776000	25.258911	0.000910	20.821575
1132.299878	-2.977000	3.595300	-10.702000	25.265696	0.000911	20.817008
1133.314799	-2.994500	3.593900	-10.759000	25.249043	0.000913	20.820677
1134.307076	-3.036800	3.591300	-10.905000	25.270767	0.000911	20.817358
1135.304132	-2.998200	3.592600	-10.771000	25.278696	0.000908	20.815361
1136.302081	-2.981700	3.592400	-10.710000	25.269574	0.000910	20.810471
1137.302480	-2.993000	3.592600	-10.751000	25.273477	0.000908	20.820079
1138.305262	-2.998600	3.592200	-10.771000	25.277504	0.000908	20.830286
1139.301139	-3.021100	3.590100	-10.843000	25.219340	0.000907	20.829736
1140.301471	-3.009400	3.591200	-10.804000	25.212182	0.000907	20.814964
1141.302814	-3.008400	3.590500	-10.800000	25.156600	0.000905	20.849252
1142.309976	-3.001200	3.590800	-10.775000	25.189587	0.000907	20.838272
1143.303637	-3.013900	3.590200	-10.819000	25.186754	0.000905	20.832583
1144.302466	-2.985600	3.591800	-10.722000	25.226178	0.000905	20.855567
1145.314536	-3.010200	3.588700	-10.801000	25.260082	0.000904	20.828915
1146.305349	-3.008800	3.590100	-10.801000	25.246835	0.000904	20.839796
1147.308286	-3.002300	3.589300	-10.776000	25.266545	0.000903	20.843938
1148.315144	-3.024400	3.588000	-10.850000	25.230430	0.000903	20.849879
1149.310002	-3.002300	3.587500	-10.770000	25.187055	0.000904	20.831937
1150.305771	-2.980300	3.588800	-10.695000	25.140570	0.000902	20.850703
1151.305856	-3.002600	3.586700	-10.769000	25.129981	0.000903	20.839125
1152.308836	-2.994800	3.587900	-10.743000	25.138360	0.000899	20.841372
1153.304001	-3.007700	3.587900	-10.790000	25.172366	0.000899	20.829519
1154.308198	-2.995900	3.587300	-10.745000	25.190936	0.000901	20.859539
1155.311200	-2.988500	3.587000	-10.718000	25.220814	0.000901	20.842596
1156.307544	-3.006400	3.585200	-10.778000	25.160784	0.000898	20.845391
1157.310476	-2.999900	3.585800	-10.755000	25.163420	0.000900	20.836658
1158.310804	-2.969900	3.586000	-10.649000	25.147784	0.000901	20.861738
1159.321903	-3.015800	3.584900	-10.810000	25.160364	0.000898	20.848763
1160.309626	-2.977900	3.586200	-10.678000	25.140676	0.000898	20.857921
1161.306253	-2.982500	3.585700	-10.693000	25.138066	0.000900	20.858620
1162.308319	-3.012900	3.585500	-10.802000	25.154101	0.000898	20.843898
1163.311969	-2.989900	3.584100	-10.715000	25.128522	0.000898	20.862789
1164.317360	-2.970100	3.586100	-10.649000	25.107317	0.000895	20.868054
1165.313727	-2.979800	3.585100	-10.682000	25.134015	0.000895	20.848390
1166.310872	-3.029800	3.582600	-10.853000	25.165464	0.000894	20.861469
1167.314765	-3.009800	3.583000	-10.783000	25.168545	0.000894	20.868355
1168.321226	-2.993800	3.583600	-10.727000	25.189800	0.000894	20.856028
1169.315430	-3.000200	3.583100	-10.748000	25.194399	0.000894	20.875343
1170.316772	-3.002800	3.581600	-10.752000	25.190423	0.000892	20.876094
1171.313559	-2.996000	3.582500	-10.731000	25.198974	0.000892	20.863342
1172.308824	-3.021800	3.581500	-10.822000	25.237603	0.000893	20.883630
1173.312120	-3.015300	3.580500	-10.796000	25.245607	0.000891	20.866537
1174.324417	-3.015600	3.581000	-10.798000	25.225622	0.000890	20.862120
1175.319213	-3.019000	3.581300	-10.811000	25.241432	0.000890	20.863294
1176.319778	-3.011800	3.579500	-10.779000	25.234025	0.000893	20.863918
1177.312535	-2.986700	3.579000	-10.688000	25.261493	0.000891	20.857831
1178.322576	-2.998900	3.580100	-10.735000	25.272206	0.000888	20.861475
1179.319390	-2.982600	3.579600	-10.676000	25.284212	0.000889	20.879217
1180.315795	-2.993700	3.579600	-10.716000	25.288114	0.000886	20.870334
1181.315593	-3.017800	3.578600	-10.798000	25.301264	0.000886	20.875950
1182.315760	-3.002900	3.579400	-10.747000	25.302954	0.000888	20.871009
1183.317857	-2.996000	3.578400	-10.718000	25.319906	0.000889	20.882339
1184.319187	-3.001600	3.577800	-10.737000	25.333825	0.000886	20.892995
1185.313513	-3.010400	3.576400	-10.765000	25.353436	0.000883	20.876177
1186.320457	-3.011000	3.576800	-10.768000	25.337605	0.000887	20.864550
1187.323019	-3.002400	3.576500	-10.737000	25.311558	0.000886	20.882491
1188.312467	-2.991700	3.577200	-10.700000	25.288692	0.000885	20.875181
1189.318335	-3.010100	3.576100	-10.763000	25.266297	0.000882	20.889679
1190.313109	-3.008400	3.576800	-10.759000	25.249470	0.000883	20.886536
1191.317859	-2.996400	3.575300	-10.712000	25.270051	0.000885	20.883966
1192.315647	-2.995300	3.577200	-10.713000	25.254666	0.000883	20.883692
1193.321930	-2.997700	3.575700	-10.718000	25.243729	0.000884	20.886936
1194.318772	-3.005300	3.575300	-10.744000	25.311113	0.000881	20.882994
1195.327061	-3.002400	3.574500	-10.731000	25.308107	0.000881	20.893724
1196.317122	-2.998100	3.574400	-10.715000	25.308133	0.000881	20.904655
1197.316211	-2.980400	3.574700	-10.653000	25.340716	0.000881	20.897068
1198.321491	-2.980700	3.573200	-10.650000	25.341438	0.000878	20.871717
1199.324202	-2.995900	3.573500	-10.705000	25.344446	0.000879	20.903658
1200.320755	-2.987400	3.571800	-10.670000	25.325209	0.000880	20.893827
1201.325709	-3.001200	3.573300	-10.722000	25.338805	0.000877	20.907477
1202.321057	-2.995600	3.572100	-10.699000	25.383318	0.000876	20.889111
1203.328840	-2.999900	3.573100	-10.718000	25.377404	0.000875	20.895026
1204.330032	-3.008200	3.572000	-10.744000	25.394577	0.000876	20.915113
1205.333377	-3.008000	3.571100	-10.740000	25.340892	0.000876	20.901987
1206.320964	-3.006400	3.571300	-10.736000	25.361397	0.000872	20.888437
1207.321717	-2.987900	3.570100	-10.665000	25.389433	0.000873	20.904258
1208.326351	-3.005700	3.570300	-10.730000	25.358963	0.000873	20.895475
1209.325268	-2.979200	3.570800	-10.637000	25.376236	0.000873	20.898594
1210.321855	-3.009600	3.569300	-10.740000	25.373055	0.000872	20.915787
1211.318358	-3.016800	3.569500	-10.768000	25.348001	0.000871	20.909597
1212.323887	-3.009500	3.567900	-10.736000	25.341042	0.000871	20.914938
1213.325410	-3.017100	3.568600	-10.765000	25.326701	0.000870	20.908599
1214.321447	-2.999600	3.567800	-10.701000	25.312856	0.000869	20.902760
1215.333332	-2.987600	3.569500	-10.663000	25.283700	0.000867	20.913314
1216.325698	-3.006500	3.567600	-10.725000	25.255365	0.000869	20.903358
1217.331076	-2.971700	3.568200	-10.603000	25.282158	0.000866	20.907499
1218.326268	-2.967700	3.568800	-10.590000	25.292895	0.000867	20.898366
1219.330128	-2.999600	3.566700	-10.698000	25.311785	0.000867	20.919226
1220.332968	-3.009800	3.567000	-10.735000	25.304973	0.000867	20.923292
1221.329949	-3.017600	3.566200	-10.759000	25.315461	0.000866	20.930977
1222.330822	-3.006300	3.566200	-10.719000	25.341484	0.000865	20.905899
1223.335452	-3.003900	3.564700	-10.706000	25.327762	0.000864	20.915828
1224.343320	-2.999100	3.565800	-10.693000	25.350653	0.000865	20.932647
1225.327254	-2.990400	3.567100	-10.664000	25.384602	0.000864	20.901305
1226.332105	-2.995700	3.566000	-10.682000	25.415344	0.000863	20.917474
1227.332200	-2.991100	3.565600	-10.664000	25.428342	0.000865	20.951858
1228.332011	-3.018700	3.563400	-10.756000	25.457169	0.000864	20.920591
1229.333029	-2.990300	3.564300	-10.657000	25.467605	0.000864	20.936760
1230.326343	-3.000000	3.564200	-10.691000	25.472973	0.000862	20.916547
1231.341003	-3.014700	3.563100	-10.741000	25.479806	0.000861	20.922461
1232.338338	-3.018400	3.562400	-10.751000	25.469791	0.000861	20.917145
1233.332230	-3.009700	3.563800	-10.725000	25.457936	0.000862	20.919939
1234.345579	-3.015200	3.565000	-10.747000	25.471479	0.000859	20.928323
1235.338718	-3.004000	3.562000	-10.698000	25.454307	0.000863	20.932415
1236.330426	-3.017400	3.561500	-10.745000	25.466211	0.000861	20.936782
1237.340728	-2.975300	3.561400	-10.595000	25.459251	0.000861	20.925052
1238.333466	-3.002100	3.561600	-10.691000	25.452093	0.000860	20.918814
1239.334460	-3.018400	3.561000	-10.746000	25.454653	0.000858	20.930866
1240.333051	-2.993500	3.560700	-10.658000	25.488699	0.000857	20.929019
1241.338306	-3.023900	3.559300	-10.762000	25.493843	0.000860	20.934184
1242.337415	-2.999300	3.559500	-10.675000	25.512556	0.000859	20.921683
1243.343395	-3.016700	3.558600	-10.734000	25.479404	0.000860	20.904989
1244.345292	-3.022000	3.559500	-10.756000	25.489618	0.000857	20.924253
1245.334816	-3.015400	3.559600	-10.733000	25.525924	0.000857	20.923729
1246.336029	-3.034700	3.557700	-10.795000	25.522717	0.000856	20.917663
1247.336514	-3.006300	3.558900	-10.697000	25.498389	0.000855	20.910777
1248.333438	-2.980300	3.557300	-10.600000	25.490536	0.000855	20.914271
1249.344316	-2.995500	3.559100	-10.661000	25.440410	0.000855	20.929840
1250.335340	-2.983000	3.559400	-10.616000	25.433798	0.000852	20.917987
1251.346803	-2.972800	3.556600	-10.572000	25.425100	0.000850	20.924424
1252.343376	-2.988500	3.557500	-10.631000	25.403180	0.000850	20.923751
1253.335635	-3.008200	3.555900	-10.695000	25.414139	0.000850	20.937598
1254.334563	-3.000300	3.556000	-10.668000	25.428602	0.000849	20.903761
1255.339608	-2.980400	3.556400	-10.599000	25.403154	0.000849	20.910923
1256.336816	-3.018300	3.556300	-10.733000	25.408869	0.000850	20.922825
1257.340858	-3.009100	3.555700	-10.698000	25.391098	0.000849	20.921102
1258.336487	-2.983700	3.555200	-10.606000	25.378373	0.000847	20.891732
1259.331597	-3.013700	3.555800	-10.715000	25.400888	0.000849	20.913390
1260.336927	-2.988300	3.555000	-10.623000	25.396737	0.000845	20.904955
1261.335855	-2.993600	3.554600	-10.639000	25.403894	0.000845	20.890331
1262.337923	-3.001000	3.554400	-10.664000	25.409137	0.000847	20.897966
1263.344765	-3.024600	3.553000	-10.745000	25.453398	0.000846	20.888833
1264.339715	-2.999300	3.553400	-10.657000	25.435628	0.000845	20.909867
1265.346046	-3.016200	3.553100	-10.716000	25.456503	0.000845	20.914707
1266.350659	-3.008200	3.552800	-10.686000	25.483242	0.000844	20.892249
1267.342702	-3.020000	3.552300	-10.727000	25.507668	0.000843	20.899234
1268.338450	-2.995600	3.552500	-10.641000	25.524442	0.000843	20.889052
1269.344162	-3.010100	3.551200	-10.688000	25.521632	0.000843	20.899032
1270.356102	-3.015800	3.549900	-10.704000	25.526949	0.000840	20.881614
1271.340664	-2.994100	3.550800	-10.630000	25.513727	0.000842	20.896310
1272.348619	-3.009500	3.551400	-10.686000	25.494292	0.000842	20.891966
1273.349627	-3.007600	3.551300	-10.680000	25.499685	0.000838	20.893114
1274.344690	-3.000700	3.549400	-10.650000	25.467203	0.000841	20.876618
1275.350688	-3.004800	3.550400	-10.666000	25.468917	0.000840	20.869805
1276.355916	-3.019200	3.549800	-10.717000	25.475924	0.000838	20.865462
1277.345040	-2.996000	3.549300	-10.632000	25.471376	0.000837	20.887445
1278.342875	-2.992500	3.549400	-10.621000	25.488696	0.000837	20.865485
1279.352695	-2.987000	3.549700	-10.602000	25.487526	0.000836	20.883750
1280.345237	-2.997700	3.548800	-10.637000	25.495801	0.000838	20.892059
1281.344203	-3.017300	3.546800	-10.701000	25.522217	0.000835	20.871173
1282.348331	-3.031400	3.546600	-10.750000	25.567939	0.000839	20.871097
1283.346570	-3.036500	3.545900	-10.765000	25.574473	0.000837	20.873391
1284.355438	-2.976100	3.546800	-10.554000	25.553401	0.000839	20.865980
1285.345045	-2.993400	3.546700	-10.616000	25.522289	0.000834	20.869823
1286.343791	-3.019000	3.546400	-10.706000	25.547088	0.000837	20.874338
1287.346707	-3.032200	3.543700	-10.743000	25.528377	0.000835	20.855075
1288.350944	-3.003900	3.544700	-10.647000	25.546069	0.000833	20.862410
1289.354315	-2.992600	3.545700	-10.610000	25.510584	0.000832	20.875611
1290.354446	-3.001400	3.544800	-10.638000	25.511006	0.000832	20.856595
1291.349379	-3.010000	3.544200	-10.666000	25.468462	0.000832	20.863658
1292.344397	-3.001500	3.544700	-10.638000	25.462572	0.000832	20.881924
1293.352072	-2.982100	3.545600	-10.571000	25.448208	0.000831	20.870346
1294.354423	-2.986700	3.542500	-10.579000	25.480563	0.000831	20.842621
1295.350245	-3.005600	3.543400	-10.649000	25.487821	0.000830	20.854176
1296.350800	-3.020400	3.542600	-10.699000	25.473108	0.000830	20.854100
1297.351189	-2.993500	3.544400	-10.609000	25.494008	0.000829	20.855647
1298.354238	-3.000900	3.543200	-10.631000	25.509490	0.000830	20.865505
1299.349028	-2.993300	3.542800	-10.604000	25.514386	0.000828	20.857145
1300.353766	-2.993700	3.542400	-10.604000	25.553872	0.000828	20.867875
1301.350362	-3.002900	3.541800	-10.635000	25.561153	0.000828	20.860488
1302.352524	-3.014200	3.540800	-10.671000	25.551213	0.000829	20.858093
1303.358317	-3.000800	3.540800	-10.625000	25.538564	0.000829	20.846339
1304.364608	-3.014100	3.538500	-10.664000	25.584460	0.000827	20.853551
1305.350474	-3.005400	3.540400	-10.639000	25.591046	0.000826	20.844518
1306.354605	-2.983300	3.541200	-10.563000	25.568633	0.000825	20.847613
1307.348576	-3.007200	3.539100	-10.641000	25.596140	0.000825	20.865280
1308.352488	-2.986600	3.540300	-10.572000	25.577180	0.000824	20.836283
1309.350090	-2.977900	3.540500	-10.542000	25.549126	0.000821	20.861687
1310.355040	-2.972700	3.540700	-10.524000	25.546764	0.000824	20.850781
1311.367194	-2.991300	3.539400	-10.587000	25.543957	0.000824	20.851755
1312.350869	-3.003800	3.537400	-10.625000	25.544502	0.000824	20.847561
1313.349953	-2.958700	3.540500	-10.473000	25.504743	0.000823	20.858841
1314.353538	-2.988600	3.538100	-10.573000	25.463690	0.000821	20.851754
1315.358996	-2.993800	3.537600	-10.589000	25.428971	0.000820	20.836332
1316.355504	-2.992400	3.537100	-10.583000	25.368131	0.000823	20.843045
1317.355998	-2.997100	3.535700	-10.596000	25.380682	0.000818	20.857543
1318.362050	-3.007300	3.536400	-10.634000	25.379216	0.000820	20.852277
1319.360982	-2.986200	3.536600	-10.560000	25.411697	0.000818	20.851228
1320.366220	-2.992200	3.535200	-10.577000	25.447187	0.000820	20.845615
1321.354910	-3.021600	3.535600	-10.682000	25.480488	0.000815	20.849183
1322.356403	-2.995200	3.535200	-10.589000	25.487247	0.000819	20.882047
1323.356611	-3.001000	3.534700	-10.608000	25.544824	0.000815	20.848359
1324.368711	-3.015900	3.533100	-10.653000	25.538390	0.000816	20.861336
1325.365004	-3.007400	3.534800	-10.630000	25.520174	0.000818	20.851104
1326.362634	-2.989400	3.533300	-10.562000	25.535879	0.000815	20.857867
1327.358543	-2.981100	3.534200	-10.534000	25.504245	0.000814	20.841272
1328.358184	-3.000400	3.532200	-10.597000	25.482277	0.000816	20.839126
1329.354101	-3.005400	3.532200	-10.615000	25.464036	0.000814	20.849258
1330.359650	-2.989900	3.532800	-10.560000	25.449622	0.000813	20.845215
1331.353267	-3.020700	3.531300	-10.666000	25.469454	0.000814	20.844741
1332.363486	-2.999600	3.531800	-10.593000	25.428773	0.000812	20.845615
1333.358789	-3.005200	3.531700	-10.612000	25.427057	0.000812	20.847212
1334.359380	-3.004400	3.531200	-10.608000	25.466547	0.000813	20.840873
1335.364468	-3.007300	3.530700	-10.616000	25.458943	0.000811	20.846040
1336.363148	-3.006100	3.530400	-10.611000	25.423852	0.000811	20.832614
1337.368702	-3.013900	3.527700	-10.631000	25.461776	0.000810	20.844143
1338.359942	-3.019600	3.528700	-10.654000	25.492691	0.000809	20.851006
1339.366421	-2.988200	3.529800	-10.547000	25.500047	0.000808	20.835634
1340.358317	-2.998300	3.528700	-10.579000	25.524774	0.000807	20.846715
1341.362123	-2.994600	3.527200	-10.562000	25.510261	0.000810	20.845890
1342.369896	-2.982400	3.528400	-10.522000	25.502831	0.000806	20.835111
1343.369613	-3.005000	3.528000	-10.600000	25.499750	0.000808	20.840552
1344.374949	-3.013700	3.527800	-10.631000	25.477957	0.000805	20.829572
1345.363782	-2.995800	3.526700	-10.564000	25.480666	0.000805	20.841302
1346.365317	-3.004200	3.527400	-10.596000	25.491079	0.000806	20.842275
1347.367509	-3.013300	3.525800	-10.623000	25.482282	0.000806	20.830596
1348.374885	-3.000700	3.527100	-10.582000	25.448012	0.000805	20.834115
1349.361075	-3.009000	3.525100	-10.606000	25.456437	0.000801	20.828825
1350.365859	-3.018900	3.525600	-10.642000	25.468192	0.000803	20.813129
1351.374504	-3.026900	3.525000	-10.669000	25.527238	0.000804	20.841603
1352.365280	-3.020900	3.523300	-10.642000	25.540285	0.000801	20.844748
1353.369571	-2.999700	3.525900	-10.575000	25.535241	0.000803	20.848217
1354.371173	-3.024600	3.523400	-10.655000	25.589064	0.000801	20.824984
1355.365763	-2.994700	3.523500	-10.551000	25.588940	0.000800	20.835291
1356.373907	-3.004600	3.523800	-10.586000	25.588219	0.000800	20.845472
1357.372677	-2.987800	3.524900	-10.531000	25.588120	0.000802	20.839209
1358.370315	-3.001600	3.523600	-10.576000	25.567049	0.000798	20.832272
1359.365485	-3.030500	3.522600	-10.674000	25.556339	0.000799	20.841905
1360.373269	-3.007500	3.522600	-10.593000	25.545778	0.000798	20.844575
1361.366238	-3.009500	3.522200	-10.598000	25.531267	0.000797	20.842330
1362.375894	-2.993600	3.522000	-10.542000	25.527390	0.000797	20.836540
1363.375645	-2.984000	3.521700	-10.506000	25.546648	0.000796	20.838811
1364.370633	-2.996500	3.522700	-10.554000	25.542001	0.000796	20.844575
1365.375332	-3.002100	3.521300	-10.570000	25.559297	0.000796	20.823539
1366.366803	-2.998200	3.520700	-10.555000	25.590035	0.000794	20.833071
1367.370029	-2.990300	3.520800	-10.527000	25.610808	0.000794	20.835442
1368.380223	-2.984900	3.520200	-10.506000	25.639109	0.000793	20.847270
1369.367831	-3.019500	3.520000	-10.627000	25.654266	0.000794	20.832622
1370.375952	-2.993800	3.518100	-10.531000	25.653322	0.000795	20.830252
1371.371517	-2.990000	3.519800	-10.522000	25.647160	0.000794	20.826433
1372.367894	-2.992700	3.518600	-10.529000	25.650240	0.000793	20.842803
1373.373309	-3.002400	3.518800	-10.563000	25.626685	0.000792	20.836215
1374.372881	-3.002200	3.518300	-10.560000	25.622362	0.000793	20.832347
1375.378836	-3.003900	3.517800	-10.565000	25.636301	0.000791	20.829752
1376.379474	-2.999200	3.517200	-10.548000	25.670142	0.000791	20.813955
1377.386081	-2.996300	3.517700	-10.539000	25.645344	0.000790	20.829826
1378.381826	-3.004500	3.516100	-10.563000	25.608868	0.000788	20.824959
1379.370330	-2.996700	3.515700	-10.535000	25.594953	0.000788	20.843701
1380.382362	-3.005300	3.515100	-10.562000	25.577161	0.000787	20.806867
1381.371290	-3.006100	3.515300	-10.566000	25.575297	0.000787	20.830125
1382.368636	-2.995000	3.515500	-10.528000	25.596692	0.000786	20.826481
1383.382138	-3.020200	3.513800	-10.611000	25.566053	0.000785	20.845970
1384.371491	-2.979500	3.515700	-10.475000	25.582502	0.000785	20.824558
1385.371954	-3.009700	3.512800	-10.571000	25.584266	0.000786	20.824908
1386.375046	-2.969700	3.515200	-10.438000	25.581582	0.000785	20.832169
1387.377467	-3.002300	3.512300	-10.544000	25.619451	0.000786	20.840803
1388.377428	-2.999300	3.513900	-10.539000	25.644844	0.000785	20.834539
1389.381347	-3.005800	3.513200	-10.559000	25.615325	0.000782	20.830970
1390.380120	-2.992600	3.512800	-10.511000	25.565503	0.000785	20.826927
1391.378599	-3.010800	3.512800	-10.576000	25.555936	0.000782	20.823483
1392.386790	-3.012500	3.511600	-10.577000	25.558471	0.000784	20.812278
1393.380227	-2.976300	3.513100	-10.455000	25.595146	0.000781	20.819239
1394.378278	-2.991100	3.511300	-10.502000	25.582424	0.000782	20.811204
1395.378068	-2.990200	3.511800	-10.500000	25.581554	0.000781	20.810804
1396.379086	-3.015800	3.510800	-10.586000	25.549995	0.000780	20.799499
1397.381320	-3.008000	3.510200	-10.556000	25.513142	0.000782	20.789042
1398.376898	-3.029900	3.509900	-10.634000	25.511725	0.000778	20.813223
1399.385910	-2.986200	3.509100	-10.478000	25.514434	0.000780	20.806934
1400.387764	-3.001500	3.510000	-10.534000	25.535407	0.000775	20.809031
1401.400580	-3.014400	3.507600	-10.573000	25.524547	0.000777	20.816616
1402.383686	-2.996200	3.508300	-10.510000	25.489110	0.000777	20.816591
1403.382266	-3.030200	3.506300	-10.623000	25.515824	0.000777	20.814495
1404.387878	-2.968900	3.508500	-10.416000	25.509935	0.000777	20.800994
1405.393959	-3.004300	3.508000	-10.538000	25.487968	0.000778	20.808806
1406.387847	-3.013600	3.506000	-10.564000	25.491770	0.000778	20.804563
1407.383708	-2.993800	3.506800	-10.497000	25.485880	0.000776	20.792959
1408.383573	-3.000100	3.505700	-10.516000	25.500865	0.000776	20.801843
1409.379519	-3.006000	3.504800	-10.535000	25.505114	0.000774	20.812748
1410.398472	-2.994500	3.505200	-10.495000	25.524497	0.000774	20.802816
1411.386666	-2.994600	3.504900	-10.494000	25.545048	0.000774	20.802592
1412.382222	-3.019600	3.503300	-10.576000	25.548353	0.000772	20.793583
1413.382262	-2.991800	3.503600	-10.482000	25.522883	0.000773	20.797875
1414.386064	-2.998700	3.504600	-10.508000	25.509413	0.000771	20.796203
1415.389503	-2.992500	3.503400	-10.483000	25.494877	0.000773	20.792036
1416.394365	-3.000100	3.502900	-10.508000	25.437918	0.000771	20.814971
1417.368312	-3.002100	3.502600	-10.514000	25.431630	0.000769	20.812924
1418.370259	-2.988900	3.503500	-10.471000	25.412419	0.000769	20.805013
1419.368218	-2.989300	3.502000	-10.467000	25.397780	0.000770	20.803116
1420.394556	-2.994000	3.502600	-10.486000	25.408716	0.000770	20.790389
1421.385179	-3.019700	3.500800	-10.570000	25.431730	0.000768	20.800222
1422.369620	-3.004300	3.500000	-10.513000	25.450070	0.000768	20.813897
1423.369941	-2.998500	3.501500	-10.497000	25.456830	0.000767	20.791288
1424.370001	-3.006400	3.500600	-10.524000	25.459961	0.000767	20.781630
1425.406285	-2.999200	3.500600	-10.497000	25.499946	0.000766	20.799498
1426.390696	-3.008800	3.499600	-10.528000	25.537545	0.000767	20.785099
1427.371140	-3.009400	3.498800	-10.528000	25.540203	0.000765	20.798674
1428.371939	-3.016100	3.499300	-10.554000	25.578694	0.000767	20.796079
1429.372751	-2.992200	3.499900	-10.471000	25.579017	0.000765	20.793558
1430.370739	-2.990200	3.498500	-10.460000	25.569973	0.000762	20.783052
1431.372326	-3.011800	3.498200	-10.534000	25.513812	0.000762	20.795879
1432.372272	-2.993500	3.497400	-10.468000	25.503152	0.000762	20.783751
1433.371657	-2.981600	3.498600	-10.429000	25.501810	0.000762	20.817965
1434.372667	-2.997100	3.496600	-10.479000	25.496741	0.000764	20.794382
1435.372888	-3.007900	3.497100	-10.518000	25.478351	0.000761	20.793459
1436.374248	-3.004800	3.495400	-10.502000	25.488664	0.000762	20.781056
1437.373463	-3.003200	3.496100	-10.497000	25.497262	0.000758	20.802018
1438.373816	-3.012100	3.493900	-10.522000	25.507004	0.000760	20.785248
1439.374603	-2.985700	3.496100	-10.437000	25.512371	0.000759	20.785896
1440.372811	-3.002000	3.496400	-10.496000	25.548479	0.000758	20.792286
1441.374946	-2.989300	3.495300	-10.447000	25.546442	0.000758	20.780283
1442.391450	-3.004400	3.494900	-10.498000	25.584435	0.000756	20.782878
1443.375476	-3.001800	3.492200	-10.482000	25.560183	0.000758	20.768952
1444.399194	-3.013600	3.493500	-10.527000	25.579938	0.000758	20.798276
1445.394892	-3.005600	3.492300	-10.496000	25.572806	0.000756	20.777837
1446.396731	-2.987400	3.493900	-10.437000	25.541372	0.000758	20.792735
1447.393879	-3.014900	3.491800	-10.526000	25.558321	0.000757	20.786049
1448.380667	-2.986000	3.492200	-10.427000	25.572212	0.000756	20.788146
1449.379127	-2.987800	3.492100	-10.432000	25.590699	0.000754	20.798178
1450.399321	-2.991700	3.492000	-10.445000	25.588388	0.000755	20.771201
1451.401156	-3.015300	3.491000	-10.525000	25.622804	0.000753	20.774471
1452.399375	-3.009200	3.490300	-10.502000	25.603771	0.000754	20.764364
1453.396615	-2.982100	3.491500	-10.411000	25.586204	0.000753	20.795560
1454.414904	-2.985000	3.491200	-10.419000	25.558473	0.000755	20.774348
1455.402611	-3.003400	3.490300	-10.481000	25.536532	0.000751	20.776021
1456.379751	-3.004800	3.489800	-10.485000	25.512527	0.000752	20.786527
1457.381844	-3.016800	3.489200	-10.525000	25.553257	0.000752	20.783334
1458.381209	-3.003000	3.488400	-10.474000	25.571247	0.000752	20.762995
1459.379724	-2.990200	3.489900	-10.435000	25.594457	0.000750	20.771606
1460.383206	-2.988900	3.489100	-10.428000	25.620001	0.000753	20.779242
1461.383534	-3.014000	3.486800	-10.508000	25.628896	0.000750	20.769210
1462.380025	-3.021900	3.486800	-10.536000	25.658068	0.000750	20.766740
1463.381374	-3.013100	3.487500	-10.507000	25.685649	0.000749	20.776424
1464.382503	-3.007800	3.486300	-10.484000	25.697203	0.000749	20.772382
1465.380414	-3.004000	3.486000	-10.470000	25.712806	0.000749	20.777148
1466.381728	-3.007800	3.486900	-10.487000	25.726619	0.000749	20.768263
1467.382086	-3.002900	3.485600	-10.466000	25.744284	0.000748	20.781740
1468.380939	-3.001100	3.485900	-10.460000	25.750869	0.000744	20.776974
1469.383189	-3.013900	3.484900	-10.503000	25.744310	0.000745	20.777024
1470.383862	-2.998500	3.484600	-10.447000	25.742671	0.000748	20.773481
1471.383068	-3.004500	3.484400	-10.467000	25.746622	0.000747	20.784562
1472.383984	-2.997700	3.483200	-10.440000	25.733429	0.000746	20.770836
1473.385874	-2.992700	3.484300	-10.426000	25.714373	0.000744	20.755014
1474.385462	-3.010600	3.482400	-10.482000	25.722299	0.000746	20.773407
1475.404171	-3.018300	3.481900	-10.509000	25.717503	0.000742	20.785186
1476.406558	-3.006500	3.481200	-10.465000	25.694621	0.000746	20.775479
1477.411425	-2.994600	3.481300	-10.423000	25.641697	0.000741	20.775429
1478.405155	-3.033800	3.479200	-10.554000	25.599531	0.000744	20.774331
1479.412686	-2.994400	3.480800	-10.422000	25.569638	0.000742	20.740989
1480.409230	-2.993400	3.480100	-10.416000	25.549287	0.000741	20.757062
1481.407954	-3.013700	3.478700	-10.483000	25.534278	0.000742	20.771386
1482.410940	-3.043000	3.477500	-10.580000	25.551647	0.000742	20.776028
1483.408723	-2.984500	3.479100	-10.382000	25.576099	0.000741	20.761230
1484.413033	-3.004100	3.479400	-10.451000	25.584497	0.000740	20.749749
1485.415315	-2.996400	3.478200	-10.421000	25.565737	0.000740	20.759832
1486.422987	-2.989800	3.478400	-10.398000	25.527270	0.000737	20.762926
1487.413379	-2.979500	3.478300	-10.363000	25.521902	0.000738	20.752794
1488.406660	-2.986600	3.477800	-10.386000	25.518870	0.000739	20.753542
1489.410102	-3.007800	3.477100	-10.457000	25.561512	0.000740	20.748476
1490.417023	-3.027000	3.476700	-10.523000	25.537831	0.000737	20.748875
1491.428071	-2.975000	3.477100	-10.344000	25.541558	0.000733	20.741713
1492.407389	-2.999000	3.475100	-10.420000	25.510222	0.000735	20.736322
1493.413706	-3.012600	3.474900	-10.468000	25.540464	0.000732	20.746778
1494.416194	-3.009500	3.474600	-10.456000	25.563947	0.000735	20.752818
1495.406739	-2.987800	3.475000	-10.380000	25.559052	0.000735	20.750273
1496.409991	-2.993300	3.475200	-10.401000	25.561908	0.000736	20.757409
1497.412294	-2.976400	3.475100	-10.342000	25.585315	0.000734	20.756260
1498.416282	-2.994500	3.473500	-10.400000	25.617196	0.000735	20.742285
1499.422661	-2.986500	3.473200	-10.372000	25.640055	0.000733	20.742484
1500.393646	-2.993800	3.473200	-10.396000	25.637768	0.000731	20.730230
1501.401972	-2.992800	3.473000	-10.393000	25.623977	0.000734	20.736293
1502.395148	-3.001800	3.473500	-10.426000	25.633592	0.000732	20.744528
1503.395062	-2.984200	3.473300	-10.363000	25.682938	0.000731	20.761848
1504.395589	-3.001200	3.471700	-10.417000	25.696057	0.000731	20.761274
1505.396411	-2.979300	3.471200	-10.340000	25.690142	0.000732	20.743952
1506.426671	-3.017500	3.470800	-10.472000	25.679334	0.000732	20.751589
1507.414662	-3.001600	3.471100	-10.416000	25.626285	0.000728	20.749517
1508.412507	-2.977000	3.471600	-10.334000	25.638459	0.000728	20.730449
1509.414410	-3.015200	3.469000	-10.459000	25.629042	0.000728	20.754657
1510.399419	-3.001200	3.469400	-10.412000	25.641167	0.000730	20.750239
1511.399272	-3.026500	3.469900	-10.501000	25.660572	0.000729	20.762617
1512.400808	-2.989300	3.468700	-10.366000	25.672175	0.000729	20.759572
1513.401246	-2.985500	3.470800	-10.361000	25.706462	0.000728	20.744697
1514.400764	-3.005800	3.467800	-10.422000	25.670807	0.000729	20.736860
1515.400633	-2.994800	3.467800	-10.384000	25.675875	0.000727	20.761866
1516.400640	-3.014300	3.467600	-10.451000	25.688198	0.000725	20.756699
1517.400927	-3.000300	3.466600	-10.399000	25.695279	0.000727	20.727774
1518.401916	-3.047800	3.464800	-10.558000	25.726633	0.000725	20.768752
1519.421918	-3.000700	3.465700	-10.399000	25.697290	0.000723	20.749236
1520.418216	-2.993400	3.466500	-10.376000	25.695377	0.000725	20.753478
1521.419571	-2.991700	3.465700	-10.367000	25.675997	0.000725	20.758195
1522.428636	-3.011600	3.464200	-10.431000	25.702583	0.000723	20.755026
1523.400774	-2.970400	3.466700	-10.295000	25.716769	0.000721	20.757421
1524.400390	-2.997500	3.464700	-10.385000	25.716894	0.000723	20.765607
1525.403764	-3.014000	3.463800	-10.438000	25.759875	0.000721	20.768477
1526.401265	-3.020200	3.461600	-10.453000	25.767079	0.000722	20.758643
1527.401569	-3.018000	3.462000	-10.446000	25.758011	0.000722	20.745741
1528.404038	-2.962400	3.463400	-10.257000	25.725588	0.000720	20.752054
1529.401061	-2.986000	3.463900	-10.341000	25.743129	0.000717	20.770622
1530.417968	-2.993300	3.462600	-10.364000	25.732098	0.000719	20.753852
1531.437360	-2.981500	3.460900	-10.317000	25.712595	0.000719	20.755125
1532.417743	-3.000900	3.461400	-10.386000	25.685712	0.000719	20.752305
1533.416346	-3.002700	3.461900	-10.393000	25.673263	0.000719	20.768726
1534.418148	-2.981400	3.460500	-10.315000	25.663226	0.000720	20.754377
1535.424071	-2.993400	3.458500	-10.351000	25.657734	0.000718	20.761663
1536.418197	-3.003500	3.459400	-10.390000	25.680493	0.000717	20.753227
1537.424936	-3.000200	3.459700	-10.379000	25.681140	0.000719	20.751981
1538.405066	-2.979400	3.459100	-10.305000	25.690159	0.000717	20.744444
1539.401794	-2.994800	3.457900	-10.354000	25.671698	0.000717	20.758145
1540.406190	-3.006500	3.459600	-10.400000	25.657486	0.000714	20.752879
1541.401237	-2.988100	3.458400	-10.334000	25.659201	0.000716	20.755550
1542.405391	-2.989100	3.458500	-10.337000	25.655101	0.000716	20.744793
1543.401568	-3.019500	3.455800	-10.433000	25.700570	0.000712	20.765332
1544.403934	-3.025800	3.455100	-10.453000	25.672767	0.000715	20.757322
1545.429497	-2.976400	3.457700	-10.289000	25.659052	0.000715	20.749711
1546.417574	-3.000600	3.454700	-10.366000	25.647423	0.000713	20.764110
1547.423006	-2.987700	3.457600	-10.328000	25.623521	0.000716	20.742000
1548.423818	-3.006800	3.455500	-10.389000	25.633311	0.000711	20.775541
1549.422308	-3.010400	3.455800	-10.403000	25.655226	0.000714	20.760567
1550.421041	-2.987400	3.455100	-10.320000	25.686408	0.000711	20.759643
1551.430119	-3.006700	3.453500	-10.382000	25.655252	0.000711	20.768180
1552.403578	-3.002800	3.453400	-10.369000	25.649139	0.000709	20.774368
1553.408147	-2.996800	3.453200	-10.348000	25.664794	0.000709	20.755952
1554.406379	-3.013700	3.452300	-10.404000	25.683329	0.000709	20.764137
1555.406008	-3.021100	3.453800	-10.432000	25.685341	0.000709	20.752882
1556.408184	-3.005700	3.453300	-10.379000	25.701641	0.000708	20.758822
1557.406415	-3.015200	3.451100	-10.405000	25.707455	0.000708	20.772248
1558.405522	-2.994800	3.451400	-10.335000	25.673068	0.000708	20.779910
1559.408298	-3.000400	3.450100	-10.350000	25.658210	0.000702	20.761193
1560.406996	-2.978700	3.452300	-10.282000	25.667651	0.000708	20.763563
1561.407747	-2.993100	3.451600	-10.330000	25.651774	0.000707	20.777489
1562.411121	-2.991700	3.450800	-10.323000	25.661962	0.000707	20.767332
1563.408969	-2.983400	3.450500	-10.292000	25.665788	0.000704	20.778762
1564.408740	-2.987200	3.451000	-10.308000	25.682882	0.000704	20.757050
1565.412907	-3.003200	3.449400	-10.359000	25.656992	0.000705	20.754754
1566.409571	-3.004200	3.448300	-10.358000	25.688945	0.000704	20.775942
1567.426620	-3.013100	3.447500	-10.387000	25.698908	0.000701	20.766508
1568.440990	-3.004900	3.448600	-10.362000	25.675578	0.000702	20.771525
1569.438504	-3.020300	3.447500	-10.412000	25.701791	0.000699	20.767507
1570.411121	-3.015200	3.446900	-10.393000	25.707008	0.000702	20.776067
1571.410639	-3.006100	3.446200	-10.359000	25.753195	0.000700	20.788320
1572.411345	-2.998500	3.447300	-10.336000	25.743629	0.000701	20.780607
1573.412812	-2.980100	3.446100	-10.268000	25.676148	0.000700	20.768304
1574.415717	-3.007400	3.446100	-10.363000	25.680620	0.000701	20.784650
1575.412362	-3.020200	3.444700	-10.403000	25.722759	0.000699	20.777662
1576.412056	-3.017100	3.444700	-10.392000	25.719131	0.000698	20.797252
1577.413473	-2.986000	3.444900	-10.285000	25.718360	0.000699	20.784624
1578.412975	-2.988300	3.446200	-10.297000	25.687005	0.000700	20.763087
1579.413446	-3.001000	3.444200	-10.335000	25.670506	0.000699	20.794880
1580.413171	-2.996100	3.444300	-10.318000	25.626725	0.000698	20.785521
1581.414182	-2.989700	3.442900	-10.291000	25.611617	0.000697	20.770348
1582.414246	-3.009600	3.443800	-10.363000	25.582272	0.000695	20.782128
1583.414451	-3.016300	3.441300	-10.378000	25.607319	0.000696	20.786420
1584.413236	-3.002200	3.442500	-10.335000	25.619643	0.000696	20.775090
1585.415450	-3.005900	3.441900	-10.344000	25.676568	0.000694	20.757346
1586.415702	-3.011600	3.441100	-10.363000	25.692891	0.000696	20.796975
1587.418699	-2.989900	3.440800	-10.286000	25.693438	0.000695	20.776187
1588.443574	-2.995100	3.441100	-10.306000	25.699773	0.000694	20.804836
1589.416119	-2.999500	3.440000	-10.317000	25.685561	0.000692	20.778233
1590.420191	-2.997300	3.440500	-10.311000	25.708792	0.000692	20.784022
1591.420301	-2.991000	3.439700	-10.287000	25.706184	0.000694	20.789938
1592.418000	-2.988900	3.440400	-10.282000	25.776544	0.000694	20.785221
1593.446267	-3.020000	3.438600	-10.383000	25.759674	0.000692	20.802889
1594.420631	-3.018400	3.438100	-10.375000	25.806058	0.000692	20.792108
1595.437349	-2.984200	3.439800	-10.264000	25.789065	0.000693	20.804436
1596.419922	-2.995400	3.438800	-10.299000	25.791575	0.000690	20.778033
1597.423389	-2.992200	3.437700	-10.285000	25.788419	0.000690	20.795726
1598.421472	-2.986300	3.436900	-10.262000	25.791102	0.000691	20.756221
1599.419921	-2.994900	3.437100	-10.292000	25.757861	0.000687	20.780678
1600.423932	-2.996900	3.436000	-10.296000	25.746234	0.000691	20.782750
1601.420807	-2.971800	3.436500	-10.211000	25.778656	0.000688	20.796350
1602.419667	-2.976300	3.436300	-10.226000	25.805909	0.000687	20.786742
1603.421653	-3.003600	3.435600	-10.318000	25.806978	0.000687	20.798247
1604.420831	-3.020600	3.434500	-10.372000	25.798455	0.000689	20.798221
1605.421428	-2.988400	3.435000	-10.263000	25.814777	0.000687	20.809875
1606.422133	-2.995500	3.435100	-10.289000	25.810034	0.000685	20.797998
1607.423912	-3.013000	3.433700	-10.344000	25.785389	0.000684	20.785096
1608.425159	-3.010200	3.432100	-10.330000	25.796544	0.000687	20.804836
1609.421135	-2.993300	3.432800	-10.274000	25.802754	0.000685	20.786892
1610.441904	-2.991200	3.433400	-10.269000	25.857061	0.000685	20.799719
1611.422447	-3.006200	3.431900	-10.316000	25.861160	0.000684	20.797199
1612.423423	-2.989400	3.433800	-10.263000	25.861160	0.000683	20.818062
1613.424112	-3.025600	3.431500	-10.381000	25.874649	0.000683	20.807431
1614.422045	-3.001700	3.431200	-10.298000	25.877631	0.000683	20.787192
1615.422661	-3.018500	3.430000	-10.351000	25.840219	0.000682	20.801767
1616.426496	-3.002100	3.431800	-10.302000	25.865783	0.000683	20.798049
1617.423624	-3.021400	3.428500	-10.358000	25.841486	0.000685	20.809678
1618.441154	-2.983000	3.430400	-10.232000	25.866826	0.000680	20.827547
1619.439568	-3.025700	3.429500	-10.375000	25.856889	0.000682	20.808556
1620.445026	-2.993700	3.429600	-10.266000	25.842605	0.000679	20.809380
1621.444182	-3.001800	3.430200	-10.296000	25.829066	0.000681	20.807633
1622.422080	-2.963100	3.428800	-10.157000	25.808968	0.000679	20.816368
1623.422754	-2.981000	3.428300	-10.218000	25.760573	0.000678	20.836507
1624.422278	-2.997500	3.428400	-10.275000	25.799304	0.000679	20.802867
1625.423159	-2.998100	3.427900	-10.275000	25.768250	0.000678	20.822408
1626.424726	-2.989700	3.427900	-10.247000	25.833042	0.000676	20.816843
1627.423831	-2.986100	3.427800	-10.235000	25.857140	0.000678	20.832515
1628.422071	-2.992100	3.426800	-10.253000	25.870357	0.000677	20.811653
1629.427082	-2.994900	3.426500	-10.262000	25.871549	0.000674	20.814273
1630.425337	-2.982300	3.427000	-10.220000	25.888317	0.000675	20.819739
1631.424413	-3.002100	3.426600	-10.286000	25.887522	0.000675	20.809457
1632.453917	-2.981000	3.426200	-10.213000	25.865066	0.000673	20.829097
1633.451260	-2.991500	3.425000	-10.244000	25.822634	0.000674	20.814448
1634.428576	-2.984000	3.425900	-10.222000	25.818983	0.000672	20.813151
1635.446181	-3.015200	3.424400	-10.324000	25.855376	0.000673	20.838803
1636.451004	-3.011600	3.423300	-10.308000	25.880343	0.000672	20.813625
1637.443580	-2.993000	3.424700	-10.249000	25.907371	0.000674	20.816595
1638.445271	-2.958500	3.422800	-10.125000	25.881262	0.000672	20.831143
1639.452139	-3.017400	3.422800	-10.326000	25.878555	0.000671	20.834113
1640.446369	-3.023700	3.420800	-10.341000	25.870580	0.000673	20.827998
1641.446435	-2.977800	3.422200	-10.189000	25.859550	0.000670	20.821660
1642.431243	-2.969000	3.423600	-10.163000	25.870727	0.000670	20.827672
1643.442473	-3.016600	3.421800	-10.320000	25.902774	0.000670	20.840425
1644.427176	-3.005400	3.420900	-10.281000	25.873957	0.000670	20.820012
1645.427907	-3.005900	3.420200	-10.279000	25.863126	0.000670	20.842321
1646.428323	-3.004200	3.419500	-10.270000	25.834780	0.000667	20.834235
1647.428947	-3.018400	3.419700	-10.320000	25.812670	0.000670	20.827672
1648.450064	-2.980900	3.419700	-10.193000	25.854952	0.000668	20.835059
1649.448965	-2.991000	3.419000	-10.224000	25.859448	0.000668	20.823928
1650.456661	-3.005300	3.417500	-10.268000	25.881509	0.000669	20.838503
1651.449772	-3.020900	3.417500	-10.324000	25.881135	0.000667	20.817740
1652.443631	-3.005700	3.418800	-10.275000	25.898177	0.000669	20.835807
1653.433266	-3.003700	3.416500	-10.261000	25.889085	0.000667	20.823354
1654.451083	-2.987100	3.417900	-10.209000	25.898475	0.000666	20.814770
1655.444870	-2.965500	3.418100	-10.136000	25.908337	0.000664	20.831316
1656.447075	-2.975200	3.416500	-10.164000	25.901257	0.000665	20.824677
1657.452066	-2.989500	3.416000	-10.211000	25.856864	0.000663	20.834609
1658.446250	-2.991100	3.416600	-10.218000	25.832891	0.000663	20.843717
1659.450856	-3.003400	3.415100	-10.256000	25.869608	0.000665	20.839824
1660.446623	-2.988700	3.416700	-10.211000	25.862354	0.000664	20.841546
1661.446712	-3.003300	3.414800	-10.254000	25.896784	0.000664	20.866175
1662.450656	-3.002400	3.415600	-10.254000	25.887444	0.000661	20.842568
1663.459452	-3.026900	3.414200	-10.333000	25.879146	0.000661	20.849405
1664.431771	-3.000400	3.414300	-10.244000	25.849534	0.000661	20.864702
1665.441123	-3.006900	3.413200	-10.262000	25.794655	0.000661	20.855094
1666.448114	-2.999900	3.413300	-10.238000	25.774655	0.000659	20.857290
1667.454037	-3.042000	3.411100	-10.374000	25.785214	0.000661	20.850352
1668.453823	-3.010500	3.412200	-10.271000	25.790555	0.000658	20.852398
1669.459626	-2.993600	3.412100	-10.213000	25.818627	0.000661	20.852148
1670.456777	-3.028400	3.411100	-10.329000	25.801957	0.000657	20.847256
1671.450076	-2.992100	3.411600	-10.205000	25.824415	0.000657	20.838996
1672.460866	-3.011700	3.410600	-10.270000	25.875119	0.000658	20.860532
1673.453380	-2.989500	3.410600	-10.194000	25.862449	0.000658	20.872933
1674.449474	-2.995300	3.409700	-10.212000	25.850176	0.000655	20.830735
1675.456888	-2.974100	3.410000	-10.139000	25.828736	0.000657	20.846656
1676.464704	-3.010300	3.409000	-10.261000	25.783521	0.000656	20.839169
1677.433602	-3.006600	3.408200	-10.246000	25.762477	0.000654	20.842213
1678.433928	-3.015000	3.407400	-10.272000	25.744514	0.000654	20.866368
1679.436473	-2.983000	3.408500	-10.166000	25.736861	0.000655	20.854889
1680.436254	-3.007200	3.406300	-10.242000	25.761333	0.000654	20.839167
1681.440270	-2.986300	3.409100	-10.179000	25.790997	0.000655	20.852842
1682.437193	-3.021800	3.406600	-10.293000	25.801828	0.000651	20.840489
1683.435037	-3.016800	3.406100	-10.274000	25.849427	0.000652	20.853215
1684.438211	-3.010400	3.406900	-10.254000	25.859240	0.000654	20.836521
1685.439920	-2.998000	3.406100	-10.209000	25.862891	0.000652	20.854887
1686.436304	-3.006500	3.406200	-10.239000	25.887162	0.000651	20.852241
1687.438378	-2.975300	3.407400	-10.137000	25.857947	0.000651	20.875049
1688.435898	-2.999300	3.404800	-10.211000	25.842818	0.000650	20.851792
1689.453074	-3.003600	3.405500	-10.228000	25.825005	0.000648	20.857606
1690.460025	-2.986700	3.405400	-10.170000	25.826471	0.000650	20.874250
1691.455230	-3.005400	3.404400	-10.230000	25.854667	0.000649	20.865116
1692.457853	-2.997800	3.403300	-10.201000	25.875385	0.000648	20.837567
1693.466227	-2.997800	3.403700	-10.203000	25.902859	0.000650	20.872277
1694.453603	-3.011800	3.403700	-10.250000	25.906461	0.000648	20.849819
1695.459088	-2.945500	3.405500	-10.030000	25.887309	0.000646	20.867087
1696.456703	-3.015200	3.402200	-10.257000	25.889718	0.000648	20.846749
1697.453451	-2.989200	3.404000	-10.175000	25.890538	0.000649	20.879813
1698.461715	-2.994300	3.401000	-10.182000	25.866392	0.000648	20.864567
1699.453648	-2.992200	3.401900	-10.179000	25.858839	0.000646	20.858403
1700.460072	-3.002400	3.402000	-10.213000	25.829377	0.000647	20.872427
1701.470616	-3.002200	3.401900	-10.211000	25.769403	0.000647	20.854859
1702.459184	-3.012400	3.400100	-10.242000	25.752485	0.000646	20.860624
1703.463329	-2.991100	3.399500	-10.167000	25.717479	0.000645	20.872403
1704.455035	-3.002100	3.400600	-10.208000	25.724883	0.000644	20.865615
1705.441886	-2.986000	3.399900	-10.150000	25.708460	0.000644	20.850543
1706.442631	-3.013900	3.397700	-10.240000	25.727666	0.000643	20.881686
1707.458553	-2.993600	3.398600	-10.173000	25.744560	0.000642	20.874475
1708.467664	-3.011600	3.398800	-10.234000	25.783715	0.000644	20.870183
1709.460523	-3.011000	3.398100	-10.230000	25.785778	0.000643	20.862772
1710.461991	-3.000500	3.397100	-10.192000	25.789182	0.000644	20.873303
1711.462354	-3.030100	3.396200	-10.290000	25.802101	0.000643	20.883909
1712.473457	-2.989600	3.397300	-10.156000	25.842049	0.000641	20.885156
1713.460864	-3.022700	3.396200	-10.265000	25.871737	0.000641	20.881789
1714.439003	-2.990300	3.396500	-10.156000	25.894839	0.000639	20.892194
1715.464765	-3.010100	3.396600	-10.223000	25.933367	0.000641	20.883011
1716.468775	-3.013400	3.395400	-10.229000	25.938311	0.000641	20.885132
1717.460147	-3.016100	3.395400	-10.240000	25.921818	0.000639	20.890374
1718.465123	-2.993700	3.396300	-10.166000	25.883860	0.000638	20.897285
1719.460819	-3.012000	3.395600	-10.227000	25.879141	0.000639	20.890174
1720.461445	-2.998600	3.394000	-10.176000	25.857776	0.000635	20.898583
1721.467443	-2.984700	3.394000	-10.130000	25.883936	0.000637	20.886931
1722.462998	-2.992600	3.393700	-10.154000	25.891984	0.000636	20.889326
1723.460563	-2.984700	3.393500	-10.127000	25.956570	0.000636	20.903949
1724.466839	-2.974100	3.396000	-10.097000	25.967475	0.000635	20.891198
1725.469222	-3.001100	3.393100	-10.182000	25.993656	0.000634	20.897586
1726.468116	-2.989500	3.393900	-10.145000	25.971748	0.000634	20.898335
1727.462034	-3.009800	3.390600	-10.204000	25.967773	0.000635	20.914255
1728.447969	-2.997400	3.392300	-10.167000	25.948373	0.000634	20.911360
1729.467957	-2.996800	3.392400	-10.165000	25.954236	0.000634	20.905397
1730.462552	-3.008000	3.392100	-10.203000	25.947206	0.000634	20.905921
1731.475892	-3.003600	3.390600	-10.184000	25.984565	0.000632	20.901729
1732.466226	-2.993400	3.391600	-10.151000	26.000785	0.000632	20.898111
1733.464026	-3.019600	3.389400	-10.233000	25.991669	0.000631	20.888004
1734.467578	-2.976000	3.392300	-10.094000	25.990278	0.000631	20.916002
1735.475283	-3.020900	3.389700	-10.239000	25.954112	0.000633	20.906221
1736.465335	-3.009300	3.389900	-10.200000	25.901201	0.000632	20.893844
1737.465853	-3.005700	3.389200	-10.186000	25.918789	0.000628	20.891124
1738.448931	-3.000400	3.388100	-10.165000	25.911908	0.000630	20.921667
1739.449762	-2.996300	3.389700	-10.155000	25.915560	0.000629	20.894044
1740.454471	-3.011200	3.387600	-10.199000	25.897798	0.000628	20.906071
1741.449586	-2.989200	3.386500	-10.122000	25.902368	0.000627	20.901180
1742.451141	-3.011300	3.387500	-10.201000	25.886693	0.000628	20.917199
1743.451094	-3.020900	3.387100	-10.231000	25.910740	0.000628	20.901055
1744.451435	-3.034500	3.385600	-10.272000	25.910218	0.000628	20.903375
1745.457044	-2.996300	3.385600	-10.143000	25.924080	0.000625	20.915403
1746.472007	-2.991600	3.386900	-10.132000	25.943828	0.000626	20.895415
1747.479667	-3.024000	3.384900	-10.234000	26.001082	0.000623	20.892246
1748.469875	-3.001000	3.385700	-10.159000	25.983372	0.000623	20.924709
1749.469574	-2.996800	3.386400	-10.147000	25.985508	0.000624	20.909313
1750.475676	-3.001700	3.383300	-10.155000	25.969312	0.000623	20.913430
1751.470490	-2.981500	3.384800	-10.090000	25.959649	0.000623	20.919368
1752.454214	-2.982400	3.384000	-10.091000	25.937417	0.000624	20.906992
1753.481963	-3.016300	3.382600	-10.201000	25.940248	0.000624	20.912206
1754.483412	-2.987800	3.382900	-10.107000	25.927007	0.000622	20.918818
1755.455885	-3.003900	3.382400	-10.160000	25.959200	0.000621	20.905643
1756.457506	-3.003400	3.383100	-10.160000	25.954479	0.000621	20.906115
1757.453950	-2.993700	3.382600	-10.126000	25.982300	0.000620	20.920314
1758.455564	-3.006400	3.381900	-10.166000	25.995265	0.000622	20.900625
1759.457604	-2.994800	3.382300	-10.128000	25.988583	0.000619	20.918092
1760.474407	-3.009400	3.382000	-10.177000	25.998866	0.000619	20.897131
1761.475735	-3.013100	3.381000	-10.186000	26.029963	0.000619	20.886175
1762.469052	-2.972900	3.381300	-10.051000	26.050702	0.000618	20.893261
1763.476895	-3.011300	3.378800	-10.173000	26.066226	0.000615	20.897953
1764.477517	-3.003900	3.380000	-10.152000	26.024398	0.000616	20.903816
1765.474558	-3.015600	3.379500	-10.190000	25.963864	0.000617	20.883778
1766.479594	-3.020000	3.379500	-10.204000	25.959319	0.000614	20.885849
1767.477551	-3.012400	3.378100	-10.175000	25.979910	0.000615	20.891363
1768.456110	-3.025400	3.378500	-10.220000	25.983759	0.000613	20.887170
1769.460684	-3.002600	3.378100	-10.142000	25.983610	0.000614	20.866159
1770.475515	-2.995900	3.377700	-10.118000	25.986839	0.000612	20.877462
1771.457953	-3.004700	3.377500	-10.148000	26.013689	0.000612	20.880257
1772.476651	-3.035500	3.376500	-10.249000	26.031970	0.000613	20.881554
1773.476615	-2.999800	3.378500	-10.134000	26.060259	0.000612	20.878682
1774.468191	-2.986200	3.378500	-10.087000	26.061775	0.000611	20.875464
1775.457071	-3.000100	3.376400	-10.129000	26.109261	0.000612	20.875288
1776.476448	-2.986300	3.377100	-10.084000	26.091304	0.000609	20.891382
1777.477538	-2.984500	3.376200	-10.075000	26.111893	0.000609	20.881251
1778.486649	-2.991400	3.375100	-10.095000	26.095848	0.000608	20.886466
1779.477581	-2.978500	3.376100	-10.054000	26.106503	0.000606	20.854499
1780.491305	-2.996700	3.375800	-10.115000	26.121925	0.000611	20.854349
1781.477858	-3.005700	3.374800	-10.143000	26.124284	0.000605	20.858615
1782.477773	-2.983200	3.375100	-10.068000	26.129375	0.000605	20.853773
1783.477592	-2.995400	3.374100	-10.106000	26.124034	0.000605	20.857416
1784.461092	-2.983800	3.373000	-10.063000	26.113155	0.000605	20.853597
1785.461827	-2.985500	3.372800	-10.069000	26.127634	0.000607	20.864352
1786.462778	-3.007200	3.373000	-10.142000	26.134265	0.000604	20.851101
1787.465559	-3.016500	3.373300	-10.175000	26.154655	0.000605	20.847881
1788.463555	-3.014100	3.371300	-10.160000	26.146879	0.000604	20.870413
1789.466846	-3.010900	3.371600	-10.151000	26.147202	0.000605	20.848928
1790.466039	-3.019700	3.372200	-10.182000	26.136571	0.000599	20.845358
1791.464799	-3.024500	3.370600	-10.193000	26.153360	0.000601	20.850374
1792.464220	-3.011800	3.370700	-10.151000	26.162424	0.000601	20.849998
1793.468045	-2.992800	3.371500	-10.090000	26.152837	0.000601	20.853168
1794.465240	-3.003700	3.371400	-10.125000	26.115806	0.000599	20.839192
1795.464326	-3.003900	3.371000	-10.125000	26.124895	0.000599	20.829359
1796.465188	-2.976400	3.371400	-10.033000	26.104628	0.000599	20.855935
1797.484730	-3.009600	3.369200	-10.138000	26.103386	0.000600	20.844730
1798.482506	-2.995600	3.370600	-10.096000	26.110041	0.000598	20.843357
1799.498466	-2.994400	3.370000	-10.090000	26.104105	0.000599	20.836444
1800.483696	-2.980600	3.370000	-10.043000	26.127872	0.000597	20.833299
1801.486555	-2.981100	3.369200	-10.043000	26.125214	0.000597	20.845326
1802.485682	-2.998200	3.368000	-10.096000	26.116993	0.000597	20.839911
1803.468429	-2.999100	3.368600	-10.101000	26.100824	0.000598	20.840733
1804.468379	-3.002100	3.366600	-10.106000	26.146174	0.000600	20.834145
1805.468924	-2.968000	3.367800	-9.994400	26.157648	0.000594	20.828605
1806.467709	-3.007700	3.367300	-10.127000	26.108895	0.000596	20.843153
1807.471088	-2.985100	3.367100	-10.051000	26.105144	0.000595	20.846022
1808.468771	-2.979200	3.367600	-10.032000	26.113116	0.000596	20.834119
1809.471659	-3.002000	3.364900	-10.100000	26.124242	0.000596	20.817324
1810.471609	-3.003700	3.366000	-10.110000	26.071538	0.000595	20.810361
1811.470205	-3.055800	3.364300	-10.279000	26.073600	0.000595	20.842303
1812.476544	-2.999600	3.363500	-10.088000	26.039796	0.000593	20.831572
1813.472463	-2.976000	3.364700	-10.013000	26.010337	0.000592	20.819044
1814.471329	-2.990500	3.365200	-10.063000	26.023973	0.000588	20.818046
1815.473849	-3.023200	3.363100	-10.166000	26.005120	0.000588	20.824708
1816.488890	-2.999400	3.362800	-10.085000	25.956384	0.000591	20.816997
1817.491681	-3.009800	3.362000	-10.118000	25.914578	0.000589	20.829524
1818.488560	-3.012200	3.362500	-10.127000	25.917707	0.000592	20.814651
1819.488618	-3.032600	3.361200	-10.192000	25.939567	0.000588	20.824283
1820.473430	-2.989700	3.361900	-10.051000	25.943765	0.000589	20.824707
1821.474411	-3.017400	3.359800	-10.136000	26.027870	0.000589	20.794461
1822.480030	-3.002500	3.361400	-10.092000	26.062644	0.000588	20.809959
1823.476342	-2.988000	3.362400	-10.045000	26.034403	0.000588	20.823309
1824.475357	-3.009100	3.360800	-10.112000	26.021338	0.000586	20.828675
1825.499302	-2.990900	3.360600	-10.051000	26.005242	0.000586	20.806813
1826.500167	-3.008500	3.361200	-10.111000	25.987556	0.000587	20.797580
1827.501708	-3.008100	3.359300	-10.104000	25.963661	0.000584	20.807238
1828.499572	-3.011700	3.360400	-10.119000	25.939864	0.000585	20.829323
1829.493504	-3.015400	3.358500	-10.127000	25.895126	0.000584	20.810931
1830.500481	-3.002700	3.358900	-10.084000	25.917060	0.000586	20.819216
1831.497482	-2.978200	3.358700	-10.002000	25.915719	0.000582	20.805541
1832.497123	-2.984700	3.358400	-10.023000	25.891772	0.000583	20.801398
1833.475517	-3.004200	3.358100	-10.087000	25.861018	0.000583	20.811755
1834.477312	-3.000500	3.358300	-10.075000	25.871973	0.000581	20.805217
1835.497216	-3.003300	3.357100	-10.082000	25.893163	0.000585	20.821762
1836.504834	-3.021700	3.356800	-10.142000	25.920190	0.000583	20.790592
1837.477967	-2.999700	3.357100	-10.070000	25.957600	0.000581	20.797355
1838.502660	-2.980000	3.357100	-10.003000	25.995878	0.000581	20.797406
1839.496932	-3.012800	3.355800	-10.110000	26.004273	0.000580	20.794935
1840.499912	-3.029200	3.355400	-10.163000	26.044263	0.000577	20.811405
1841.499056	-3.025500	3.356400	-10.153000	26.050323	0.000578	20.821761
1842.502444	-2.979400	3.356900	-10.001000	26.073249	0.000581	20.799751
1843.498339	-3.003800	3.355800	-10.080000	26.089541	0.000579	20.804741
1844.501820	-2.996500	3.354900	-10.052000	26.096124	0.000579	20.813252
1845.509099	-3.023700	3.354700	-10.142000	26.069697	0.000575	20.792389
1846.516140	-2.991900	3.354400	-10.035000	26.086586	0.000577	20.831644
1847.483715	-3.006600	3.353900	-10.083000	26.119917	0.000573	20.803021
1848.516073	-2.987800	3.353800	-10.019000	26.139761	0.000577	20.809210
1849.483765	-3.010400	3.353600	-10.095000	26.174927	0.000575	20.808510
1850.485027	-3.006200	3.352800	-10.078000	26.178852	0.000576	20.802970
1851.486270	-2.996000	3.353300	-10.045000	26.191989	0.000574	20.804318
1852.485550	-3.008900	3.351100	-10.082000	26.190698	0.000576	20.803969
1853.485827	-2.985000	3.352200	-10.005000	26.174456	0.000570	20.797131
1854.486014	-2.967800	3.352200	-9.947400	26.179422	0.000572	20.795483
1855.484054	-2.994300	3.351600	-10.035000	26.187543	0.000572	20.800325
1856.485142	-2.994900	3.350800	-10.035000	26.175473	0.000571	20.805266
1857.487453	-3.005500	3.351000	-10.071000	26.209968	0.000573	20.813850
1858.490265	-2.995200	3.351400	-10.037000	26.214563	0.000572	20.819415
1859.489723	-3.002400	3.349800	-10.056000	26.185109	0.000568	20.799775
1860.488447	-2.991300	3.350700	-10.021000	26.183445	0.000570	20.821336
1861.506282	-2.981200	3.350800	-9.988200	26.211830	0.000568	20.804341
1862.511710	-3.000900	3.348700	-10.048000	26.211532	0.000570	20.811628
1863.505249	-2.999200	3.350200	-10.047000	26.216325	0.000566	20.796056
1864.506248	-2.999400	3.349300	-10.045000	26.233957	0.000568	20.795756
1865.509024	-3.000500	3.348500	-10.046000	26.248906	0.000564	20.801770
1866.507397	-3.006100	3.349000	-10.067000	26.251662	0.000568	20.811652
1867.508946	-2.987500	3.347500	-9.999400	26.259608	0.000565	20.796878
1868.507013	-2.986400	3.348800	-9.999600	26.245528	0.000566	20.788418
1869.518255	-3.000400	3.347200	-10.042000	26.224220	0.000566	20.801619
1870.511817	-2.963900	3.346600	-9.918000	26.167200	0.000565	20.801694
1871.512994	-2.978200	3.345900	-9.964000	26.150311	0.000561	20.785671
1872.512007	-3.002800	3.346800	-10.049000	26.162605	0.000563	20.781429
1873.514658	-3.032600	3.344100	-10.140000	26.155998	0.000564	20.792808
1874.508317	-3.004600	3.345600	-10.051000	26.178698	0.000560	20.785272
1875.510950	-2.993400	3.345000	-10.012000	26.230129	0.000561	20.774366
1876.518103	-3.015400	3.344100	-10.083000	26.275672	0.000564	20.785995
1877.506792	-3.012400	3.343800	-10.072000	26.295091	0.000561	20.789862
1878.510731	-3.004200	3.343700	-10.044000	26.330625	0.000561	20.780529
1879.512912	-2.982700	3.344400	-9.974700	26.328613	0.000559	20.790361
1880.518282	-2.994900	3.344000	-10.011000	26.336757	0.000556	20.785269
1881.515832	-3.004100	3.343400	-10.043000	26.365983	0.000559	20.779080
1882.509540	-3.003600	3.341500	-10.036000	26.348278	0.000558	20.783571
1883.493577	-3.000500	3.341500	-10.025000	26.354684	0.000555	20.796173
1884.495959	-3.028700	3.341800	-10.120000	26.369011	0.000557	20.770743
1885.494128	-2.985700	3.341200	-9.973900	26.385274	0.000557	20.785192
1886.493656	-2.988100	3.342200	-9.986100	26.406727	0.000558	20.784468
1887.494497	-2.998200	3.341800	-10.018000	26.394982	0.000554	20.789259
1888.494133	-3.017300	3.339800	-10.076000	26.421698	0.000556	20.788610
1889.510652	-2.990500	3.341100	-9.990700	26.423833	0.000554	20.773212
1890.519424	-3.014000	3.338900	-10.062000	26.409978	0.000557	20.771140
1891.524385	-2.983300	3.339400	-9.961700	26.368785	0.000555	20.775732
1892.525110	-3.007000	3.339400	-10.040000	26.349416	0.000553	20.769542
1893.519627	-3.001100	3.338300	-10.017000	26.283140	0.000555	20.783542
1894.520676	-3.034200	3.338500	-10.128000	26.221728	0.000554	20.772561
1895.516607	-3.007100	3.338000	-10.037000	26.206032	0.000553	20.782394
1896.517067	-2.968300	3.338700	-9.909200	26.202754	0.000551	20.772935
1897.513253	-3.018800	3.336900	-10.071000	26.221181	0.000552	20.749252
1898.514921	-2.980100	3.337900	-9.945800	26.236404	0.000550	20.783042
1899.517225	-3.001000	3.337600	-10.015000	26.235435	0.000551	20.746506
1900.524580	-2.976200	3.337700	-9.932300	26.227687	0.000549	20.783766
1901.518561	-2.988100	3.337200	-9.971300	26.147744	0.000550	20.775979
1902.513494	-3.009900	3.336300	-10.040000	26.197563	0.000551	20.770090
1903.518786	-2.997900	3.335800	-9.999600	26.208043	0.000551	20.762129
1904.519603	-3.004700	3.335100	-10.020000	26.233845	0.000547	20.750599
1905.515488	-2.992700	3.335700	-9.980800	26.275838	0.000548	20.772885
1906.520092	-3.011200	3.333700	-10.038000	26.275391	0.000547	20.758210
1907.507861	-3.003400	3.335700	-10.017000	26.243332	0.000549	20.769141
1908.498382	-2.983700	3.334400	-9.948200	26.225899	0.000547	20.753993
1909.519568	-3.020100	3.331900	-10.062000	26.211967	0.000547	20.779348
1910.500558	-2.997100	3.334000	-9.991200	26.187430	0.000547	20.754692
1911.500037	-2.993300	3.333400	-9.976300	26.187058	0.000545	20.755740
1912.502142	-2.987000	3.335000	-9.960700	26.160634	0.000543	20.758111
1913.500150	-3.000100	3.332900	-9.997400	26.160832	0.000546	20.742663
1914.499824	-3.012100	3.331800	-10.035000	26.182563	0.000542	20.765922
1915.500575	-3.002400	3.333100	-10.006000	26.159268	0.000544	20.781395
1916.502821	-2.994100	3.332100	-9.975900	26.138431	0.000542	20.747654
1917.500155	-3.028300	3.331600	-10.088000	26.119183	0.000541	20.775256
1918.502080	-3.009900	3.332300	-10.028000	26.088609	0.000543	20.763976
1919.530026	-2.996300	3.330900	-9.978700	26.055154	0.000542	20.753594
1920.501551	-2.993800	3.329800	-9.965900	26.021250	0.000541	20.761730
1921.501712	-2.980100	3.331400	-9.926600	26.029099	0.000540	20.748753
1922.505741	-3.013300	3.330400	-10.035000	26.030912	0.000542	20.752472
1923.525327	-2.990000	3.329100	-9.953400	26.045517	0.000540	20.756714
1924.518560	-2.984900	3.329900	-9.937900	26.080613	0.000536	20.761157
1925.520214	-2.973800	3.331100	-9.904700	26.119929	0.000538	20.744711
1926.505112	-3.009400	3.327400	-10.013000	26.141909	0.000540	20.750201
1927.521028	-2.988800	3.329400	-9.949800	26.160958	0.000539	20.754644
1928.507268	-3.001300	3.327400	-9.985400	26.165156	0.000538	20.767871
1929.505934	-2.999400	3.326800	-9.977000	26.141115	0.000536	20.755093
1930.507919	-3.018100	3.326200	-10.038000	26.157035	0.000537	20.768719
1931.504838	-3.006800	3.326500	-10.001000	26.132696	0.000537	20.773661
1932.506354	-3.005900	3.326400	-9.996900	26.154104	0.000536	20.744911
1933.505867	-3.016900	3.326600	-10.035000	26.150355	0.000535	20.757265
1934.505696	-2.989400	3.326100	-9.941900	26.165430	0.000534	20.749179
1935.507940	-3.007700	3.325900	-10.002000	26.199329	0.000534	20.747208
1936.508845	-3.015800	3.323400	-10.022000	26.191730	0.000532	20.764702
1937.508456	-3.000500	3.324200	-9.973600	26.218079	0.000532	20.761308
1938.517525	-3.005300	3.323500	-9.986600	26.246762	0.000532	20.733232
1939.507541	-2.996100	3.323600	-9.956200	26.281255	0.000530	20.763629
1940.508122	-3.008800	3.322600	-9.995500	26.260023	0.000529	20.751301
1941.525588	-2.996800	3.324200	-9.961100	26.248947	0.000530	20.769569
1942.531199	-3.007200	3.323500	-9.993400	26.239237	0.000528	20.750327
1943.530661	-2.991400	3.323500	-9.941300	26.187508	0.000528	20.766150
1944.534336	-3.008700	3.323400	-9.998700	26.173153	0.000529	20.745087
1945.535899	-2.999800	3.323600	-9.968700	26.132174	0.000526	20.743738
1946.533015	-3.002500	3.321400	-9.971100	26.134261	0.000529	20.760534
1947.529195	-2.997800	3.322900	-9.959300	26.116950	0.000524	20.770167
1948.527458	-3.013300	3.322200	-10.009000	26.135105	0.000526	20.743838
1949.533144	-2.995300	3.320800	-9.945200	26.144070	0.000521	20.752373
1950.534073	-2.998500	3.321500	-9.958600	26.180603	0.000528	20.752098
1951.533338	-3.023300	3.319300	-10.034000	26.245966	0.000523	20.752822
1952.533607	-2.996600	3.319700	-9.946600	26.263945	0.000521	20.744337
1953.540443	-2.996300	3.319500	-9.945500	26.240850	0.000525	20.757164
1954.532100	-3.003900	3.319300	-9.969300	26.223913	0.000524	20.720702
1955.533454	-2.990000	3.321200	-9.929000	26.237944	0.000521	20.742389
1956.511062	-3.021100	3.317300	-10.022000	26.275168	0.000523	20.734752
1957.510995	-2.969500	3.320900	-9.859800	26.307500	0.000521	20.766771
1958.514655	-3.019800	3.317900	-10.018000	26.330022	0.000522	20.738195
1959.528044	-2.994800	3.316800	-9.932000	26.306754	0.000520	20.748478
1960.534050	-2.991200	3.318700	-9.926500	26.324434	0.000522	20.752969
1961.530686	-2.977100	3.317800	-9.876100	26.359694	0.000521	20.734826
1962.543797	-2.992300	3.316400	-9.922500	26.341319	0.000518	20.762352
1963.531859	-3.002300	3.315800	-9.954900	26.345838	0.000519	20.737021
1964.533219	-2.992900	3.315000	-9.921300	26.340449	0.000517	20.742986
1965.544178	-2.990600	3.315900	-9.914300	26.392245	0.000517	20.727238
1966.532258	-2.997200	3.315600	-9.936300	26.413648	0.000518	20.734525
1967.513412	-2.976700	3.315400	-9.868200	26.419433	0.000517	20.723269
1968.532298	-2.979300	3.314700	-9.874400	26.457843	0.000518	20.725839
1969.537627	-2.997300	3.314200	-9.931900	26.453846	0.000515	20.730356
1970.515867	-2.997100	3.314700	-9.932100	26.435795	0.000514	20.745405
1971.515794	-2.989300	3.313300	-9.903600	26.422287	0.000516	20.751269
1972.516243	-2.992400	3.313900	-9.915400	26.422337	0.000514	20.721920
1973.538909	-2.985300	3.313500	-9.890700	26.404658	0.000515	20.739714
1974.531730	-2.998200	3.312800	-9.931600	26.357183	0.000513	20.745104
1975.534702	-2.988400	3.312100	-9.896900	26.357083	0.000514	20.726037
1976.537538	-2.980800	3.312600	-9.873400	26.363961	0.000510	20.719673
1977.539293	-2.994700	3.311300	-9.916000	26.360931	0.000511	20.728482
1978.545559	-3.007100	3.311500	-9.956800	26.410343	0.000511	20.734522
1979.544430	-2.977800	3.312200	-9.862100	26.415110	0.000512	20.736468
1980.533647	-2.996600	3.310400	-9.918700	26.436016	0.000508	20.741360
1981.533773	-3.011400	3.309900	-9.966700	26.415929	0.000513	20.732076
1982.531720	-3.021200	3.309000	-9.996600	26.418984	0.000509	20.727559
1983.536564	-2.994600	3.310800	-9.913800	26.444185	0.000510	20.748622
1984.515364	-2.995000	3.308800	-9.909500	26.454638	0.000510	20.730678
1985.516403	-2.990900	3.308700	-9.895000	26.466232	0.000509	20.734746
1986.517997	-2.977900	3.309000	-9.852300	26.435743	0.000507	20.733498
1987.534231	-2.995000	3.307400	-9.905000	26.438995	0.000506	20.723490
1988.544643	-2.984700	3.308200	-9.873200	26.471868	0.000508	20.711960
1989.552529	-2.999200	3.307700	-9.920000	26.455904	0.000508	20.737166
1990.521411	-3.009200	3.308000	-9.953900	26.468492	0.000506	20.740336
1991.520095	-2.990500	3.307200	-9.889100	26.481750	0.000506	20.741334
1992.521429	-2.995600	3.306600	-9.904200	26.485077	0.000504	20.728082
1993.520495	-2.998600	3.306400	-9.913800	26.501984	0.000503	20.735120
1994.522111	-2.991200	3.305700	-9.886400	26.522516	0.000503	20.727783
1995.524203	-3.003900	3.305500	-9.929000	26.524329	0.000503	20.726285
1996.520638	-3.025300	3.304600	-9.997300	26.511394	0.000502	20.743630
1997.525106	-3.001400	3.304000	-9.915400	26.472663	0.000503	20.743581
1998.524282	-3.022600	3.305300	-9.989500	26.433359	0.000502	20.723989
1999.523695	-3.005800	3.303900	-9.930400	26.419108	0.000502	20.733373
2000.547626	-3.027000	3.302500	-9.995200	26.413894	0.000498	20.732400
2001.551338	-3.012500	3.302800	-9.948600	26.427351	0.000499	20.741185
2002.546391	-3.017300	3.302000	-9.961000	26.448754	0.000501	20.730454
2003.524186	-3.011500	3.303100	-9.946400	26.424620	0.000500	20.725163
2004.522672	-3.010100	3.302800	-9.940400	26.464843	0.000499	20.746152
2005.524235	-2.991100	3.303400	-9.878700	26.470603	0.000497	20.725862
2006.524130	-2.984700	3.303600	-9.859700	26.497119	0.000498	20.730229
2007.544491	-3.001400	3.300700	-9.905400	26.506355	0.000499	20.768912
2008.539948	-2.989200	3.300600	-9.864300	26.555462	0.000495	20.749047
2009.550063	-2.999800	3.300300	-9.899500	26.592627	0.000496	20.751318
2010.543979	-2.996600	3.300900	-9.890900	26.578030	0.000498	20.752766
2011.544305	-2.986200	3.301600	-9.859000	26.527459	0.000494	20.732751
2012.540148	-3.007300	3.298600	-9.918300	26.499528	0.000495	20.755412
2013.524637	-2.987700	3.299800	-9.856900	26.482224	0.000494	20.770261
2014.524824	-3.017500	3.297400	-9.949200	26.506729	0.000495	20.749847
2015.548187	-3.000600	3.298100	-9.895400	26.491683	0.000493	20.735671
2016.549079	-2.995100	3.298600	-9.878600	26.482249	0.000492	20.754639
2017.549080	-2.994300	3.297200	-9.872300	26.460202	0.000493	20.746703
2018.543235	-2.997300	3.297400	-9.881300	26.430234	0.000493	20.739341
2019.524064	-3.016900	3.297600	-9.947700	26.427205	0.000489	20.746728
2020.525322	-2.997900	3.297000	-9.882300	26.429315	0.000492	20.754066
2021.525418	-3.008800	3.297100	-9.919700	26.453176	0.000491	20.759556
2022.525288	-3.024900	3.294500	-9.963400	26.423257	0.000491	20.748451
2023.547696	-2.999800	3.297400	-9.890900	26.425319	0.000489	20.764273
2024.527286	-3.000900	3.294200	-9.884700	26.409354	0.000492	20.747753
2025.533725	-2.994100	3.296600	-9.869300	26.428373	0.000487	20.742213
2026.525486	-3.019900	3.295700	-9.951800	26.390458	0.000487	20.740615
2027.546650	-2.996200	3.293600	-9.866600	26.414817	0.000487	20.745183
2028.547759	-3.005500	3.294600	-9.900700	26.417325	0.000485	20.746755
2029.527672	-2.976100	3.294000	-9.802300	26.472023	0.000485	20.749102
2030.531887	-3.000300	3.293900	-9.880900	26.461347	0.000484	20.746906
2031.529490	-2.984800	3.294100	-9.829800	26.471403	0.000486	20.751323
2032.530028	-3.013500	3.291700	-9.917800	26.505417	0.000483	20.772711
2033.532226	-3.017200	3.291300	-9.928400	26.448810	0.000483	20.772712
2034.530177	-3.010800	3.291400	-9.907700	26.441088	0.000480	20.749303
2035.530296	-2.997700	3.291600	-9.865600	26.412560	0.000483	20.766623
2036.532504	-2.975300	3.292900	-9.795900	26.411791	0.000480	20.772014
2037.529502	-3.000800	3.291200	-9.875400	26.412461	0.000482	20.757515
2038.530636	-3.001300	3.289200	-9.870900	26.345147	0.000482	20.757190
2039.533471	-2.996100	3.289600	-9.855400	26.309489	0.000480	20.773512
2040.530850	-2.996800	3.290200	-9.858700	26.263898	0.000479	20.766575
2041.530997	-3.012100	3.289700	-9.907000	26.244229	0.000480	20.753447
2042.535145	-2.969300	3.289000	-9.765400	26.211425	0.000480	20.768846
2043.547931	-2.992300	3.289500	-9.841800	26.253741	0.000477	20.770593
2044.534154	-2.985400	3.289100	-9.818500	26.262210	0.000479	20.776258
2045.535567	-3.008200	3.288100	-9.890200	26.283094	0.000476	20.766426
2046.534454	-3.014100	3.287600	-9.907200	26.307753	0.000476	20.790733
2047.534994	-3.004100	3.286300	-9.870800	26.321162	0.000477	20.741620
2048.534774	-2.989600	3.287100	-9.825400	26.311949	0.000477	20.794477
2049.536508	-2.987600	3.287800	-9.821000	26.307182	0.000475	20.781625
2050.535306	-3.005100	3.287200	-9.877000	26.315451	0.000475	20.786616
2051.555083	-2.995100	3.285700	-9.840400	26.334646	0.000474	20.776983
2052.537968	-3.003600	3.285500	-9.867800	26.360942	0.000475	20.769272
2053.538604	-2.991000	3.285400	-9.825300	26.414352	0.000473	20.785019
2054.535300	-2.989300	3.285900	-9.821500	26.435556	0.000472	20.799693
2055.540404	-3.010300	3.284200	-9.885600	26.448517	0.000469	20.785694
2056.538575	-3.004100	3.283900	-9.864200	26.481713	0.000472	20.774015
2057.556186	-3.007700	3.284600	-9.877800	26.505920	0.000470	20.778432
2058.539329	-3.024200	3.283000	-9.928000	26.526353	0.000470	20.788066
2059.541444	-2.997700	3.283600	-9.842200	26.536159	0.000469	20.790336
2060.561968	-2.997500	3.283100	-9.840000	26.562376	0.000465	20.799620
2061.557436	-2.994000	3.283100	-9.827300	26.583900	0.000466	20.786643
2062.539618	-2.988600	3.283100	-9.810500	26.595271	0.000467	20.799970
2063.558565	-2.983800	3.281900	-9.791700	26.595867	0.000465	20.797250
2064.563567	-2.989300	3.282800	-9.811900	26.611755	0.000467	20.788092
2065.570235	-2.999300	3.281700	-9.841800	26.548103	0.000465	20.786221
2066.563024	-2.998100	3.281100	-9.836200	26.527124	0.000465	20.777461
2067.571544	-3.030900	3.280000	-9.939900	26.510813	0.000460	20.785247
2068.556180	-2.994200	3.279700	-9.818800	26.492466	0.000464	20.798100
2069.540846	-2.996700	3.278300	-9.823000	26.543361	0.000463	20.794731
2070.561342	-3.037400	3.279800	-9.961300	26.568833	0.000461	20.801369
2071.561943	-3.018500	3.279100	-9.896600	26.599741	0.000460	20.786446
2072.562876	-2.990900	3.280500	-9.810600	26.611830	0.000462	20.797651
2073.556570	-2.993900	3.279500	-9.818000	26.628960	0.000460	20.773619
2074.541146	-3.011900	3.278600	-9.872900	26.590556	0.000460	20.806610
2075.542520	-2.982200	3.278600	-9.776500	26.607909	0.000459	20.812200
2076.567068	-2.992600	3.278600	-9.810100	26.615034	0.000459	20.790440
2077.559373	-3.024500	3.277900	-9.912400	26.632908	0.000460	20.798450
2078.559346	-2.998200	3.275800	-9.819900	26.637922	0.000458	20.808233
2079.561694	-2.994900	3.275600	-9.808100	26.627297	0.000456	20.795181
2080.560467	-2.990500	3.276800	-9.798700	26.634323	0.000457	20.797977
2081.565729	-3.031200	3.274500	-9.924200	26.647704	0.000457	20.809057
2082.561114	-3.008500	3.276000	-9.855000	26.642962	0.000455	20.779634
2083.568698	-2.999900	3.275200	-9.824100	26.624418	0.000455	20.801296
2084.551923	-2.998100	3.275800	-9.820700	26.607985	0.000453	20.805638
2085.546978	-2.997400	3.274400	-9.813700	26.634348	0.000453	20.811752
2086.547382	-2.994200	3.273300	-9.800200	26.666620	0.000451	20.813849
2087.546479	-2.997400	3.274300	-9.813100	26.667017	0.000450	20.832266
2088.583591	-2.999500	3.273200	-9.817900	26.730018	0.000449	20.820213
2089.582486	-3.029200	3.271300	-9.908300	26.766406	0.000450	20.793735
2090.547850	-2.990100	3.271500	-9.781700	26.759631	0.000450	20.822010
2091.551002	-2.993200	3.271700	-9.791900	26.760251	0.000451	20.816470
2092.548894	-2.986900	3.272500	-9.773000	26.774672	0.000447	20.821960
2093.551972	-3.000900	3.271600	-9.816800	26.792643	0.000446	20.815846
2094.555838	-2.985900	3.272700	-9.771000	26.816570	0.000450	20.810506
2095.554203	-3.006400	3.271500	-9.833800	26.764000	0.000445	20.821187
2096.550915	-3.004100	3.271300	-9.826100	26.738433	0.000446	20.831993
2097.573693	-2.996000	3.270100	-9.796600	26.777453	0.000446	20.821911
2098.572642	-3.012600	3.269700	-9.849000	26.774946	0.000444	20.802795
2099.553283	-3.001700	3.269500	-9.812900	26.779414	0.000445	20.797330
2100.551468	-2.992200	3.269100	-9.780300	26.760178	0.000444	20.820190
2101.552364	-2.993900	3.269100	-9.786500	26.737367	0.000442	20.843722
2102.553057	-2.989100	3.268400	-9.768500	26.722176	0.000441	20.806165
2103.554439	-3.007100	3.267900	-9.825600	26.698793	0.000441	20.826753
2104.552911	-3.001400	3.266800	-9.804400	26.702889	0.000443	20.815224
2105.556209	-3.000700	3.266500	-9.798700	26.728729	0.000439	20.824133
2106.571743	-2.983500	3.266500	-9.743700	26.765813	0.000439	20.818743
2107.577096	-3.004700	3.266300	-9.813500	26.770207	0.000440	20.832643
2108.573224	-2.996000	3.266700	-9.786400	26.812327	0.000439	20.820939
2109.571818	-2.988900	3.266300	-9.761500	26.822429	0.000439	20.844372
2110.572134	-3.001000	3.263400	-9.792500	26.780930	0.000436	20.829674
2111.572563	-3.021200	3.263800	-9.859700	26.761073	0.000437	20.826305
2112.571646	-3.020100	3.263600	-9.855700	26.814934	0.000435	20.820715
2113.579815	-2.987400	3.264300	-9.750800	26.827344	0.000434	20.825606
2114.572779	-3.016900	3.263900	-9.845700	26.817441	0.000434	20.848365
2115.579236	-2.989800	3.263100	-9.755500	26.844619	0.000434	20.832070
2116.577703	-2.990400	3.263400	-9.758300	26.850253	0.000433	20.832994
2117.574747	-2.966400	3.264500	-9.683500	26.812006	0.000432	20.823461
2118.583916	-2.995900	3.261900	-9.771500	26.781130	0.000432	20.842203
2119.559288	-2.981900	3.261800	-9.724600	26.732828	0.000430	20.836314
2120.556875	-3.004700	3.260100	-9.794300	26.705820	0.000431	20.830973
2121.560946	-2.994700	3.261200	-9.765300	26.689263	0.000430	20.841828
2122.559052	-2.985200	3.261800	-9.736500	26.690282	0.000429	20.825783
2123.565674	-2.993000	3.260600	-9.758000	26.713267	0.000429	20.851261
2124.564261	-2.999400	3.261300	-9.780000	26.723817	0.000429	20.834841
2125.559963	-3.015800	3.261400	-9.833100	26.721012	0.000425	20.830125
2126.566188	-3.008200	3.258500	-9.801200	26.714732	0.000426	20.837562
2127.563004	-2.991400	3.259400	-9.748700	26.738140	0.000425	20.834542
2128.559656	-2.984800	3.259600	-9.727800	26.754895	0.000427	20.863714
2129.562219	-2.983900	3.259000	-9.723200	26.792945	0.000427	20.847918
2130.560984	-3.028900	3.256500	-9.861200	26.813174	0.000423	20.855928
2131.560661	-3.010700	3.255900	-9.801000	26.849486	0.000424	20.836490
2132.570628	-2.999900	3.256900	-9.769500	26.866313	0.000423	20.849615
2133.560725	-3.002300	3.255800	-9.773600	26.882917	0.000425	20.848767
2134.562109	-2.991200	3.257000	-9.740200	26.919648	0.000422	20.840657
2135.565509	-3.008000	3.255400	-9.791400	26.934960	0.000421	20.853209
2136.561792	-3.015800	3.256000	-9.817500	26.923371	0.000423	20.844875
2137.561265	-2.971600	3.257100	-9.677500	26.897784	0.000423	20.852811
2138.563783	-2.990700	3.255600	-9.736300	26.884655	0.000420	20.851937
2139.560636	-2.975400	3.256300	-9.687100	26.863361	0.000418	20.858501
2140.560760	-3.010700	3.254300	-9.796900	26.874331	0.000418	20.858151
2141.563079	-2.993900	3.254900	-9.742800	26.859763	0.000414	20.870054
2142.563350	-2.971600	3.254000	-9.668400	26.870361	0.000416	20.862694
2143.565119	-2.991400	3.254600	-9.734000	26.886890	0.000418	20.857503
2144.566146	-2.977500	3.253500	-9.685500	26.884161	0.000416	20.851440
2145.563060	-2.998600	3.252500	-9.751600	26.864107	0.000415	20.852613
2146.564601	-2.971400	3.252000	-9.661100	26.890663	0.000415	20.860823
2147.569999	-3.020400	3.250700	-9.816300	26.885849	0.000415	20.858827
2148.566546	-3.011500	3.251200	-9.788900	26.908732	0.000415	20.858603
2149.568295	-3.030400	3.250600	-9.849800	26.908608	0.000413	20.859901
2150.569729	-3.014300	3.250700	-9.797800	26.917022	0.000412	20.862671
2151.565928	-3.003100	3.249900	-9.759500	26.911140	0.000412	20.866240
2152.565789	-3.009500	3.248600	-9.775900	26.926875	0.000411	20.865941
2153.567312	-3.009600	3.249500	-9.779000	26.935859	0.000411	20.877345
2154.567210	-3.009200	3.249000	-9.775800	26.946134	0.000411	20.863496
2155.568652	-2.986900	3.249400	-9.703800	26.966062	0.000411	20.882586
2156.569896	-3.011300	3.245500	-9.771500	26.979116	0.000407	20.864894
2157.567427	-3.030400	3.246800	-9.838100	27.025248	0.000408	20.875250
2158.568509	-3.046100	3.245100	-9.883000	27.051379	0.000407	20.868338
2159.572619	-3.012900	3.247000	-9.781600	27.084555	0.000406	20.882262
2160.567583	-3.011700	3.245800	-9.774200	27.116665	0.000406	20.890847
2161.567917	-3.019400	3.246200	-9.800300	27.080438	0.000406	20.880492
2162.570162	-3.009100	3.243700	-9.759600	27.039345	0.000404	20.884210
2163.574903	-3.001300	3.244400	-9.735500	27.061927	0.000402	20.897436
2164.568859	-3.010400	3.243400	-9.761600	27.090116	0.000404	20.888328
2165.569748	-3.018900	3.242500	-9.786600	27.088627	0.000404	20.882564
2166.572459	-2.977200	3.244600	-9.658800	27.078752	0.000401	20.887805
2167.572351	-3.003600	3.242800	-9.739100	27.065774	0.000399	20.895615
2168.573308	-2.999200	3.242400	-9.722900	27.057040	0.000400	20.896314
2169.570768	-2.988700	3.243100	-9.690400	27.034483	0.000398	20.886433
2170.571508	-3.015800	3.242700	-9.776700	27.096495	0.000396	20.893320
2171.570646	-3.003600	3.242100	-9.737000	27.090093	0.000398	20.880719
2172.572491	-3.030600	3.239800	-9.817300	27.067413	0.000396	20.893470
2173.571876	-3.024000	3.242100	-9.802000	26.991826	0.000397	20.894269
2174.575880	-3.007600	3.240000	-9.743800	26.965149	0.000398	20.874556
2175.572290	-2.991800	3.241400	-9.696400	26.924301	0.000393	20.899860
2176.574003	-3.008100	3.238000	-9.740200	26.897994	0.000396	20.900908
2177.578184	-2.990300	3.240300	-9.688700	26.916782	0.000395	20.909368
2178.578281	-3.000700	3.238200	-9.716100	26.918147	0.000394	20.904103
2179.575599	-2.987300	3.237900	-9.671300	26.920331	0.000396	20.879748
2180.578254	-2.984300	3.238900	-9.664400	26.893701	0.000393	20.894221
2181.575753	-2.996200	3.238800	-9.703000	26.848036	0.000391	20.891453
2182.576227	-3.012500	3.237200	-9.749300	26.800754	0.000391	20.890380
2183.580710	-3.020600	3.237100	-9.777300	26.802988	0.000393	20.895470
2184.578389	-2.982600	3.238600	-9.658200	26.796163	0.000393	20.888135
2185.577201	-3.005200	3.237400	-9.727100	26.852480	0.000391	20.910618
2186.577252	-3.008200	3.235400	-9.731300	26.889560	0.000388	20.908548
2187.579455	-2.994800	3.236200	-9.690200	26.932123	0.000389	20.900139
2188.579556	-2.972300	3.237200	-9.620600	26.997416	0.000390	20.910320
2189.580102	-2.988800	3.235300	-9.668300	27.060843	0.000389	20.911992
2190.583277	-2.993700	3.233900	-9.680700	27.062084	0.000387	20.920825
2191.581199	-3.024200	3.232400	-9.774900	27.081315	0.000384	20.924993
2192.582820	-3.007500	3.233000	-9.721600	27.090299	0.000384	20.928337
2193.589605	-3.016000	3.232500	-9.747800	27.092408	0.000385	20.913865
2194.583097	-2.989600	3.233200	-9.665100	27.087471	0.000382	20.910796
2195.582840	-3.026500	3.231000	-9.777200	27.067694	0.000384	20.917458
2196.588403	-3.008700	3.231500	-9.720800	27.046900	0.000381	20.937321
2197.583566	-2.980300	3.232300	-9.632200	26.992480	0.000382	20.915787
2198.583384	-3.013100	3.229500	-9.728900	26.975853	0.000382	20.899069
2199.586492	-3.002000	3.230600	-9.696300	26.927263	0.000380	20.918009
2200.584201	-3.001000	3.229000	-9.689600	26.912074	0.000379	20.914117
2201.584308	-3.000600	3.230400	-9.692500	26.922920	0.000381	20.913168
2202.586807	-2.999000	3.229500	-9.684100	26.937414	0.000381	20.902614
2203.584197	-2.987300	3.228400	-9.643000	26.936372	0.000376	20.931909
2204.584936	-2.996900	3.227700	-9.672000	26.935926	0.000378	20.922453
2205.585761	-2.999200	3.229500	-9.684600	26.946672	0.000376	20.937999
2206.584423	-2.993000	3.227400	-9.659000	26.974541	0.000379	20.922878
2207.586382	-3.007200	3.227200	-9.704600	27.014371	0.000378	20.930688
2208.590589	-3.004100	3.228100	-9.696500	27.045912	0.000376	20.943439
2209.586922	-2.998600	3.228200	-9.678200	27.057798	0.000375	20.937850
2210.585737	-2.999100	3.226700	-9.676400	27.081099	0.000372	20.919560
2211.587146	-2.999500	3.224800	-9.672100	27.118816	0.000373	20.945162
2212.587673	-2.979700	3.225700	-9.610900	27.144372	0.000375	20.931038
2213.587500	-2.996900	3.225300	-9.664700	27.156755	0.000374	20.944439
2214.589767	-2.997500	3.224300	-9.663600	27.150205	0.000372	20.928844
2215.589452	-2.997800	3.223300	-9.661500	27.134053	0.000373	20.909755
2216.589359	-2.976800	3.223900	-9.596000	27.141769	0.000370	20.947384
2217.589256	-2.969400	3.222800	-9.569100	27.159932	0.000368	20.940997
2218.588892	-3.021800	3.221200	-9.733200	27.187896	0.000368	20.935458
2219.587953	-3.021900	3.220800	-9.731900	27.212087	0.000368	20.939875
2220.597039	-2.984200	3.221700	-9.611900	27.257069	0.000366	20.950031
2221.591488	-3.011900	3.220000	-9.697400	27.279869	0.000364	20.923182
2222.591487	-2.994200	3.220500	-9.642100	27.299543	0.000369	20.917369
2223.593380	-2.979000	3.221600	-9.595400	27.306590	0.000367	20.915448
2224.599596	-2.982500	3.224200	-9.615300	27.300811	0.000364	20.926703
2225.595776	-3.000000	3.221000	-9.661800	27.329564	0.000365	20.937134
2226.595507	-3.001700	3.217900	-9.658100	27.319765	0.000365	20.925856
2227.597570	-3.003500	3.217800	-9.663200	27.372482	0.000362	20.956123
2228.595881	-3.006600	3.217100	-9.669900	27.383248	0.000366	20.950360
2229.597919	-2.981900	3.216400	-9.589900	27.384936	0.000364	20.936886
2230.597478	-2.970100	3.217600	-9.554800	27.342962	0.000363	20.933069
2231.595829	-2.984700	3.217200	-9.601000	27.344700	0.000361	20.928180
2232.595279	-2.979900	3.216700	-9.584500	27.337060	0.000362	20.918598
2233.597714	-2.989000	3.217000	-9.613700	27.361917	0.000358	20.929852
2234.596000	-2.997400	3.214300	-9.633300	27.394365	0.000359	20.923140
2235.597189	-3.013700	3.215000	-9.687100	27.438248	0.000357	20.939310
2236.595606	-3.001000	3.214900	-9.646000	27.403224	0.000358	20.940110
2237.593802	-3.004000	3.213200	-9.652100	27.436514	0.000356	20.930454
2238.596101	-3.016200	3.212800	-9.689700	27.445171	0.000357	20.921147
2239.598652	-2.978700	3.212900	-9.569200	27.439665	0.000355	20.926039
2240.597913	-3.035300	3.212200	-9.748100	27.432026	0.000354	20.933999
2241.599591	-3.038500	3.210500	-9.754300	27.364206	0.000354	20.925516
2242.598645	-2.978200	3.211400	-9.563800	27.314021	0.000355	20.905381
2243.594845	-3.017600	3.211000	-9.688900	27.253040	0.000354	20.910422
2244.598250	-3.014200	3.210500	-9.676200	27.248922	0.000353	20.906754
2245.598350	-3.010600	3.210500	-9.665000	27.246343	0.000349	20.919805
2246.597583	-3.009500	3.211200	-9.663700	27.199749	0.000351	20.905183
2247.603764	-3.001400	3.210800	-9.635700	27.196152	0.000349	20.928590
2248.602175	-2.991400	3.210400	-9.602700	27.182184	0.000351	20.936351
2249.599154	-3.017600	3.207400	-9.678000	27.125911	0.000348	20.899671
2250.599651	-3.020000	3.208100	-9.687500	27.082364	0.000346	20.920358
2251.600459	-3.002000	3.207300	-9.627300	27.118766	0.000345	20.894383
2252.595427	-3.009400	3.206900	-9.650300	27.120976	0.000349	20.921733
2253.602468	-3.021800	3.206100	-9.686900	27.152761	0.000345	20.904390
2254.601050	-2.970800	3.207000	-9.526200	27.119835	0.000348	20.896406
2255.595875	-2.985400	3.205800	-9.569300	27.126114	0.000344	20.920736
2256.598149	-2.981800	3.207700	-9.563300	27.125643	0.000346	20.903669
2257.596089	-3.000400	3.204700	-9.614100	27.107605	0.000346	20.910657
2258.602127	-2.993500	3.204100	-9.590200	27.105323	0.000345	20.915474
2259.600692	-3.003000	3.205200	-9.624000	27.131105	0.000340	20.918644
2260.597991	-2.990400	3.203600	-9.578400	27.169192	0.000342	20.915700
2261.599442	-3.019500	3.201100	-9.664600	27.184676	0.000341	20.904247
2262.603464	-2.988900	3.204000	-9.574900	27.202193	0.000341	20.910012
2263.598402	-2.975800	3.205100	-9.534900	27.257521	0.000344	20.904498
2264.602254	-3.041100	3.201800	-9.735600	27.281984	0.000340	20.874106
2265.602448	-3.024800	3.203000	-9.687500	27.308010	0.000340	20.901231
2266.602211	-3.016000	3.201200	-9.653400	27.325773	0.000339	20.901082
2267.602084	-3.016700	3.200700	-9.654400	27.363210	0.000338	20.902231
2268.602449	-3.014900	3.199600	-9.645400	27.413890	0.000338	20.912438
2269.607088	-2.988200	3.199500	-9.559500	27.411435	0.000337	20.906649
2270.606240	-3.032400	3.198900	-9.699100	27.417390	0.000337	20.906950
2271.602386	-3.014400	3.197800	-9.638000	27.454451	0.000337	20.892079
2272.604086	-3.023700	3.197200	-9.665600	27.486821	0.000336	20.894774
2273.606290	-2.996800	3.198500	-9.584300	27.480423	0.000335	20.907776
2274.603677	-2.991900	3.199100	-9.570800	27.440364	0.000333	20.915363
2275.606363	-3.024600	3.196200	-9.666300	27.423521	0.000333	20.891308
2276.601887	-3.019000	3.194700	-9.643900	27.435453	0.000331	20.911845
2277.604456	-2.994800	3.196300	-9.570100	27.404199	0.000332	20.889888
2278.604099	-2.986900	3.194300	-9.539700	27.368180	0.000331	20.908653
2279.606134	-3.002000	3.194300	-9.588500	27.365898	0.000330	20.889764
2280.604724	-2.997900	3.193300	-9.573100	27.381850	0.000329	20.894905
2281.604317	-2.968400	3.194400	-9.481400	27.338116	0.000328	20.885998
2282.604732	-3.026100	3.194100	-9.663400	27.309165	0.000329	20.898126
2283.611881	-2.977400	3.193200	-9.506500	27.251409	0.000328	20.910678
2284.613431	-3.004200	3.191400	-9.586400	27.236623	0.000331	20.869730
2285.602562	-2.987200	3.191800	-9.533600	27.216825	0.000327	20.889170
2286.606127	-3.013100	3.191500	-9.615400	27.252404	0.000327	20.905989
2287.606722	-3.010200	3.190300	-9.602600	27.225932	0.000327	20.887899
2288.603623	-3.009900	3.190200	-9.601700	27.210748	0.000327	20.908185
2289.601343	-3.015400	3.189700	-9.617500	27.217051	0.000324	20.911206
2290.606770	-3.025400	3.188700	-9.645300	27.275975	0.000322	20.880389
2291.604367	-2.976700	3.189300	-9.492500	27.298131	0.000322	20.897458
2292.606564	-3.031200	3.187200	-9.659300	27.365014	0.000319	20.895987
2293.609118	-3.003000	3.188100	-9.572700	27.399123	0.000319	20.890945
2294.603571	-3.021600	3.186000	-9.626400	27.423757	0.000321	20.871633
2295.604698	-3.013600	3.185500	-9.598200	27.452208	0.000321	20.900728
2296.609319	-3.005300	3.186400	-9.574600	27.469672	0.000318	20.898383
2297.607399	-2.986500	3.186100	-9.514500	27.436037	0.000320	20.878296
2298.603731	-3.005100	3.185100	-9.570100	27.432044	0.000318	20.899407
2299.610385	-3.021700	3.183500	-9.618300	27.445810	0.000316	20.883861
2300.608948	-3.002700	3.184300	-9.560900	27.441619	0.000317	20.871585
2301.605430	-3.009500	3.183200	-9.579100	27.460967	0.000317	20.879196
2302.610251	-2.988600	3.183300	-9.512100	27.490957	0.000316	20.878073
2303.610573	-2.986100	3.181900	-9.500400	27.468310	0.000315	20.888005
2304.610653	-2.995200	3.183500	-9.534400	27.440529	0.000314	20.884238
2305.607922	-3.008700	3.181300	-9.570400	27.401236	0.000313	20.888330
2306.609386	-3.005900	3.179900	-9.557500	27.415030	0.000315	20.906472
2307.605582	-2.974400	3.180700	-9.459700	27.446160	0.000312	20.878523
2308.610386	-2.974300	3.181500	-9.461200	27.473448	0.000316	20.880846
2309.608791	-3.009300	3.178900	-9.565200	27.513728	0.000310	20.873957
2310.606828	-2.942900	3.180000	-9.356600	27.519533	0.000310	20.864625
2311.614676	-2.984700	3.178700	-9.486100	27.500558	0.000310	20.878725
2312.610175	-2.987600	3.178900	-9.495500	27.500931	0.000311	20.886686
2313.606317	-3.016900	3.177600	-9.584900	27.517202	0.000310	20.883142
2314.612956	-2.978600	3.180000	-9.471100	27.502146	0.000310	20.873684
2315.613123	-3.012200	3.175800	-9.564900	27.511448	0.000307	20.866922
2316.610232	-2.989700	3.178600	-9.502100	27.496987	0.000309	20.863279
2317.611391	-3.036700	3.174800	-9.639600	27.526381	0.000309	20.884790
2318.611440	-2.999000	3.174900	-9.520500	27.533177	0.000306	20.872188
2319.612916	-3.004200	3.173300	-9.532700	27.531441	0.000306	20.881820
2320.611935	-2.991000	3.175300	-9.496500	27.541090	0.000305	20.865925
2321.615248	-2.981000	3.174800	-9.462300	27.519089	0.000304	20.880773
2322.610589	-3.002400	3.171800	-9.522500	27.511052	0.000304	20.885014
2323.612987	-3.021700	3.172100	-9.584400	27.506564	0.000304	20.880499
2324.608900	-3.000300	3.171300	-9.513900	27.486919	0.000304	20.875908
2325.612348	-3.010100	3.170600	-9.543500	27.464695	0.000303	20.889584
2326.616953	-3.006400	3.169900	-9.528700	27.448274	0.000300	20.879228
2327.609341	-3.024300	3.169600	-9.585000	27.462166	0.000302	20.865704
2328.609718	-2.997600	3.169700	-9.500900	27.492303	0.000301	20.859041
2329.618912	-3.024500	3.168400	-9.581600	27.524277	0.000302	20.889311
2330.610604	-2.997900	3.168800	-9.499500	27.534372	0.000299	20.875287
2331.610289	-3.000400	3.168000	-9.504300	27.543649	0.000299	20.877035
2332.616716	-2.994400	3.167500	-9.483900	27.503963	0.000299	20.860814
2333.610442	-2.993900	3.165900	-9.477600	27.488039	0.000300	20.869923
2334.610858	-3.002700	3.164600	-9.501100	27.412930	0.000299	20.875914
2335.613440	-3.002200	3.166400	-9.504800	27.361084	0.000298	20.862164
2336.611988	-3.015100	3.164300	-9.540000	27.327642	0.000296	20.861240
2337.610429	-3.007300	3.164000	-9.513700	27.280160	0.000299	20.884124
2338.615286	-3.007500	3.162700	-9.509600	27.316604	0.000297	20.869102
2339.612095	-2.991800	3.163300	-9.462300	27.347837	0.000296	20.877286
2340.611861	-3.015700	3.162700	-9.536600	27.359126	0.000296	20.851186
2341.615932	-3.011900	3.161200	-9.519700	27.392219	0.000294	20.859821
2342.617455	-3.014500	3.163000	-9.533900	27.423103	0.000296	20.888991
2343.612336	-2.988000	3.161000	-9.443400	27.463810	0.000293	20.870202
2344.617059	-3.026400	3.158900	-9.559000	27.474600	0.000291	20.850239
2345.612157	-2.994800	3.159100	-9.459300	27.451111	0.000292	20.871651
2346.614062	-2.969600	3.159400	-9.380300	27.425412	0.000293	20.868082
2347.616515	-3.012000	3.158500	-9.512000	27.468748	0.000294	20.861894
2348.616601	-2.974800	3.158600	-9.394200	27.497694	0.000290	20.865412
2349.612854	-2.993200	3.157200	-9.449300	27.530659	0.000291	20.849268
2350.620842	-2.995900	3.157000	-9.457000	27.517811	0.000290	20.869056
2351.618731	-2.980700	3.156800	-9.408400	27.547774	0.000290	20.850840
2352.613269	-2.994600	3.157400	-9.455000	27.553032	0.000291	20.869881
2353.620089	-3.011300	3.154100	-9.497400	27.607969	0.000286	20.865413
2354.617867	-3.011700	3.154500	-9.498800	27.631481	0.000287	20.848295
2355.616082	-3.014400	3.154900	-9.508900	27.626770	0.000289	20.871054
2356.619419	-3.017600	3.154200	-9.517200	27.672476	0.000287	20.861096
2357.617480	-3.007400	3.152900	-9.480600	27.666228	0.000286	20.874723
2358.614066	-2.998400	3.152500	-9.451300	27.693160	0.000287	20.844453
2359.620339	-3.016100	3.151500	-9.504500	27.682844	0.000286	20.857778
2360.618689	-2.974300	3.151700	-9.373000	27.714886	0.000287	20.864891
2361.615217	-3.008400	3.150000	-9.475700	27.700329	0.000287	20.865416
2362.620549	-2.982300	3.150900	-9.396900	27.616826	0.000287	20.854886
2363.619107	-3.002500	3.148400	-9.451500	27.562311	0.000283	20.846026
2364.615248	-3.002100	3.147500	-9.447500	27.536268	0.000285	20.862497
2365.623308	-2.979600	3.148700	-9.380900	27.542618	0.000284	20.842809
2366.621418	-3.016700	3.146000	-9.489800	27.562287	0.000281	20.859752
2367.617530	-3.003100	3.147200	-9.449200	27.531854	0.000281	20.849047
2368.620435	-3.008600	3.146300	-9.465500	27.518163	0.000281	20.865618
2369.617435	-2.998300	3.144100	-9.425700	27.501074	0.000283	20.831831
2370.618289	-3.005000	3.143800	-9.445900	27.502960	0.000281	20.873554
2371.621362	-2.996600	3.142200	-9.414800	27.517173	0.000279	20.843760
2372.622904	-2.987400	3.142700	-9.387700	27.516405	0.000281	20.846306
2373.619837	-2.993100	3.142100	-9.402700	27.510428	0.000282	20.819904
2374.620763	-3.000600	3.141600	-9.425600	27.463548	0.000280	20.841491
2375.621110	-3.005800	3.139900	-9.436300	27.440060	0.000279	20.860533
2376.624920	-2.986400	3.140300	-9.376500	27.412352	0.000277	20.827918
2377.625018	-2.986400	3.139700	-9.374700	27.437208	0.000278	20.838700
2378.621085	-2.992700	3.139200	-9.393400	27.495152	0.000277	20.854795
2379.620584	-2.950300	3.138900	-9.260000	27.534989	0.000276	20.876382
2380.623733	-3.012100	3.136200	-9.444500	27.517503	0.000278	20.840772
2381.621712	-2.971500	3.136900	-9.320100	27.546896	0.000276	20.838104
2382.621648	-3.004400	3.135900	-9.420100	27.574179	0.000276	20.837580
2383.623905	-3.043700	3.132600	-9.534200	27.666764	0.000277	20.861513
2384.625177	-3.030600	3.132500	-9.490900	27.648485	0.000275	20.840750
2385.620982	-3.001400	3.133400	-9.404000	27.643650	0.000277	20.863384
2386.624498	-3.024100	3.132200	-9.471000	27.656374	0.000274	20.845368
2387.622112	-3.022800	3.131600	-9.465400	27.652233	0.000276	20.839779
2388.622078	-3.023900	3.130800	-9.466700	27.680010	0.000275	20.834065
2389.621862	-3.001000	3.130200	-9.391800	27.704710	0.000275	20.831420
2390.621716	-3.019500	3.130500	-9.450400	27.722591	0.000275	20.839930
2391.623709	-3.020900	3.129100	-9.451800	27.736406	0.000275	20.817797
2392.622066	-3.009400	3.128400	-9.412300	27.710020	0.000275	20.837711
2393.626941	-2.986800	3.127300	-9.339800	27.693380	0.000276	20.831872
2394.623452	-2.975100	3.128200	-9.305700	27.719892	0.000273	20.839111
2395.626689	-2.981000	3.126100	-9.317800	27.740649	0.000273	20.814480
2396.624264	-3.013100	3.126200	-9.418600	27.761158	0.000272	20.820894
2397.624097	-3.012900	3.123700	-9.409200	27.740376	0.000272	20.817051
2398.624385	-2.988700	3.125300	-9.337800	27.719597	0.000271	20.808943
2399.627867	-2.995200	3.123400	-9.354300	27.650827	0.000273	20.816555
2400.633840	-2.991100	3.121200	-9.334900	27.631559	0.000270	20.831778
2401.626866	-2.998100	3.120800	-9.354000	27.629675	0.000273	20.824193
2402.629437	-3.034300	3.121300	-9.469900	27.669653	0.000269	20.827437
2403.628050	-3.016200	3.118900	-9.404600	27.673127	0.000271	20.818605
2404.626027	-3.036100	3.118300	-9.466300	27.681881	0.000269	20.848750
2405.628623	-3.024900	3.118200	-9.431500	27.710154	0.000269	20.850647
2406.627768	-2.999700	3.116900	-9.348500	27.698672	0.000267	20.822025
2407.625730	-3.026500	3.117000	-9.433400	27.726497	0.000270	20.827266
2408.629691	-2.997500	3.116100	-9.339100	27.750306	0.000270	20.828940
2409.629635	-3.009900	3.115100	-9.375500	27.778154	0.000267	20.833731
2410.627259	-2.997600	3.115700	-9.338700	27.757498	0.000266	20.840918
2411.629679	-3.036000	3.112200	-9.447800	27.763029	0.000266	20.821829
2412.632126	-3.017700	3.112300	-9.390600	27.787927	0.000267	20.832186
2413.626900	-3.002300	3.111100	-9.338000	27.760997	0.000267	20.822630
2414.629426	-2.990000	3.111300	-9.301600	27.758022	0.000268	20.826274
2415.632771	-3.013500	3.109700	-9.368900	27.810718	0.000267	20.816243
2416.627688	-2.988700	3.110600	-9.294400	27.833953	0.000264	20.809281
2417.632454	-3.008500	3.106800	-9.344900	27.792743	0.000267	20.819964
2418.631695	-2.997400	3.108200	-9.315400	27.782006	0.000265	20.808684
2419.632485	-3.001800	3.107500	-9.326600	27.780320	0.000264	20.803669
2420.632474	-2.989300	3.108100	-9.290100	27.787190	0.000264	20.816746
2421.635071	-2.992000	3.105000	-9.288200	27.766659	0.000265	20.826431
2422.630024	-3.010600	3.104100	-9.344100	27.743027	0.000267	20.817348
2423.635507	-3.012200	3.104400	-9.350000	27.726735	0.000265	20.815178
2424.633800	-3.003700	3.103200	-9.320600	27.729539	0.000264	20.803300
2425.633578	-3.018100	3.101100	-9.358600	27.753842	0.000261	20.821593
2426.632822	-3.024600	3.101500	-9.379100	27.805795	0.000264	20.804650
2427.634003	-3.002100	3.099600	-9.304700	27.796224	0.000263	20.803553
2428.631132	-3.022600	3.098900	-9.365300	27.806864	0.000262	20.804304
2429.633642	-2.996200	3.098300	-9.282200	27.802300	0.000263	20.807297
2430.635119	-2.985900	3.098200	-9.249900	27.833000	0.000263	20.804055
2431.634084	-3.029200	3.095700	-9.375400	27.844532	0.000263	20.794798
2432.633273	-3.005100	3.095500	-9.300500	27.859731	0.000263	20.809147
2433.635633	-2.998400	3.095500	-9.280800	27.868138	0.000263	20.786788
2434.636219	-3.015100	3.093600	-9.327000	27.853933	0.000261	20.819906
2435.635562	-3.003200	3.093200	-9.288900	27.859215	0.000263	20.802463
2436.637589	-2.999300	3.093500	-9.276200	27.836378	0.000259	20.784221
2437.632784	-3.011300	3.090800	-9.306400	27.847240	0.000260	20.808903
2438.635099	-3.026600	3.090400	-9.353000	27.830925	0.000261	20.816191
2439.638918	-2.995200	3.088700	-9.249800	27.811559	0.000260	20.808554
2440.638357	-2.992900	3.089200	-9.244700	27.807444	0.000261	20.804413
2441.639365	-2.979400	3.087700	-9.198100	27.848507	0.000257	20.818239
2442.637894	-2.981600	3.088400	-9.207400	27.867154	0.000257	20.808557
2443.637063	-2.973300	3.085600	-9.173800	27.832986	0.000256	20.800722
2444.642182	-2.999500	3.085300	-9.253500	27.827679	0.000256	20.818614
2445.638706	-2.998900	3.082900	-9.242700	27.804272	0.000256	20.792686
2446.639251	-2.984600	3.082900	-9.199700	27.819499	0.000257	20.804691
2447.638016	-2.998200	3.082300	-9.240500	27.855578	0.000256	20.787897
2448.638892	-3.018900	3.081300	-9.301200	27.872165	0.000257	20.791789
2449.634795	-2.991300	3.080300	-9.212600	27.907252	0.000254	20.787274
2450.638073	-3.019600	3.078900	-9.296000	27.885631	0.000254	20.792066
2451.638561	-3.017100	3.077700	-9.284000	27.849282	0.000257	20.796734
2452.645906	-3.003800	3.077300	-9.242600	27.855730	0.000258	20.813180
2453.638221	-3.035500	3.075800	-9.334300	27.869119	0.000256	20.804844
2454.641802	-2.998500	3.074500	-9.217700	27.802270	0.000260	20.797309
2455.640085	-2.993500	3.074900	-9.204300	27.815661	0.000256	20.786604
2456.642777	-3.010700	3.072600	-9.249900	27.805221	0.000258	20.772778
2457.641180	-3.001500	3.073400	-9.223800	27.816876	0.000256	20.780715
2458.637972	-2.967200	3.072800	-9.116600	27.881147	0.000256	20.775698
2459.639939	-3.009100	3.069500	-9.234800	27.907505	0.000255	20.801279
2460.642116	-2.987400	3.069900	-9.170000	27.931159	0.000256	20.783362
2461.639213	-2.984100	3.068800	-9.156200	27.953302	0.000254	20.803752
2462.640150	-2.984900	3.067100	-9.153000	27.957986	0.000255	20.796613
2463.642017	-3.017900	3.066600	-9.253500	27.947773	0.000256	20.822368
2464.639760	-3.018800	3.065700	-9.252400	27.959525	0.000259	20.804800
2465.639091	-2.976300	3.065100	-9.121500	27.974278	0.000251	20.794993
2466.641230	-3.031000	3.063500	-9.283300	28.003707	0.000256	20.783839
2467.640016	-2.999200	3.063800	-9.186600	27.978444	0.000256	20.795393
2468.640272	-2.984300	3.063500	-9.141300	27.969321	0.000253	20.790478
2469.642684	-3.008500	3.060000	-9.204600	27.930817	0.000253	20.785388
2470.636401	-2.987900	3.060600	-9.143600	27.937338	0.000255	20.794796
2471.641075	-3.000500	3.059000	-9.177700	27.917059	0.000250	20.799041
2472.640882	-3.020600	3.057300	-9.233700	27.945745	0.000253	20.782395
2473.638404	-2.999800	3.056500	-9.168000	27.966275	0.000250	20.795947
2474.641127	-2.975500	3.057300	-9.095800	27.979714	0.000251	20.790507
2475.643229	-2.999000	3.055200	-9.161000	27.977979	0.000252	20.790184
2476.639331	-2.995100	3.053400	-9.144400	27.960673	0.000250	20.790309
2477.644505	-3.004900	3.053100	-9.173600	27.922889	0.000253	20.778830
2478.646158	-2.995900	3.052200	-9.143000	27.949195	0.000251	20.775436
2479.645139	-2.984100	3.050300	-9.101000	27.947460	0.000249	20.773690
2480.646909	-3.009700	3.048600	-9.174300	27.951255	0.000253	20.777983
2481.642231	-3.006800	3.047900	-9.163700	27.992634	0.000250	20.800668
2482.641848	-2.997400	3.047500	-9.131500	28.008997	0.000253	20.772567
2483.645043	-2.971600	3.047900	-9.056700	28.018020	0.000251	20.804884
2484.646056	-3.021300	3.042900	-9.193100	28.016187	0.000251	20.776012
2485.644336	-3.021700	3.043100	-9.194200	28.022559	0.000250	20.798547
2486.650455	-3.005900	3.042500	-9.143000	27.998536	0.000252	20.789064
2487.643704	-2.969500	3.042100	-9.032400	27.969477	0.000251	20.779730
2488.643593	-3.010600	3.039900	-9.149300	27.944263	0.000250	20.787068
2489.649111	-2.984500	3.039400	-9.070000	27.914140	0.000251	20.793732
2490.648681	-2.984200	3.038900	-9.067700	27.900602	0.000251	20.790064
2491.646257	-2.984600	3.036700	-9.062300	27.914511	0.000250	20.790787
2492.649252	-3.004900	3.034300	-9.116500	27.943074	0.000249	20.786819
2493.648483	-2.998800	3.034100	-9.097300	27.972678	0.000248	20.789590
2494.651689	-3.053100	3.031100	-9.251600	27.920561	0.000248	20.773642
2495.651861	-2.994400	3.033200	-9.081800	27.877815	0.000250	20.768078
2496.650631	-3.006700	3.029700	-9.108200	27.809948	0.000252	20.787019
2497.653106	-3.010900	3.029400	-9.120400	27.769776	0.000250	20.787842
2498.653822	-2.988200	3.029100	-9.050200	27.758294	0.000249	20.775813
2499.652904	-2.987600	3.027200	-9.043400	27.756087	0.000249	20.784498
2500.650222	-2.999500	3.025800	-9.074500	27.775231	0.000250	20.775314
2501.654140	-3.000400	3.024700	-9.073800	27.807269	0.000250	20.788116
2502.652370	-2.997100	3.023600	-9.061400	27.837596	0.000251	20.796826
2503.650130	-3.009700	3.022700	-9.096700	27.804267	0.000250	20.784146
2504.657896	-2.983600	3.023100	-9.019000	27.835584	0.000250	20.763033
2505.651500	-3.011300	3.019300	-9.091100	27.863405	0.000249	20.772541
2506.654279	-3.013000	3.018400	-9.094000	27.879076	0.000248	20.781201
2507.658992	-2.998400	3.017200	-9.046400	27.884529	0.000251	20.797121
2508.650723	-3.003800	3.016500	-9.060500	27.916267	0.000251	20.784019
2509.653021	-3.000700	3.015600	-9.047800	27.916513	0.000248	20.788534
2510.658943	-3.013600	3.014200	-9.082800	27.940366	0.000247	20.774136
2511.651814	-3.008700	3.012500	-9.063400	27.983753	0.000248	20.777978
2512.652547	-3.000200	3.012300	-9.036400	27.966347	0.000249	20.796019
2513.659906	-3.018600	3.009300	-9.082500	27.990396	0.000247	20.801260
2514.653636	-2.998500	3.008000	-9.018400	27.947551	0.000246	20.790851
2515.652714	-2.980300	3.009400	-8.967500	27.947649	0.000247	20.780992
2516.659168	-3.004300	3.006100	-9.029700	27.932871	0.000248	20.778446
2517.658735	-2.994300	3.006600	-9.001200	27.906265	0.000244	20.800979
2518.659541	-3.030600	3.003800	-9.102000	27.879933	0.000246	20.798658
2519.657384	-3.005800	3.002000	-9.023100	27.851812	0.000249	20.791693
2520.660193	-3.009700	3.001700	-9.033300	27.829767	0.000247	20.799378
2521.656361	-3.039600	2.999300	-9.115500	27.845363	0.000247	20.778090
2522.659100	-3.014600	2.998300	-9.037800	27.890266	0.000247	20.791515
2523.655534	-2.970600	2.998200	-8.905500	27.861453	0.000249	20.782430
2524.664513	-2.994100	2.995500	-8.967500	27.872733	0.000249	20.791412
2525.661710	-3.009200	2.994800	-9.010800	27.859592	0.000247	20.788143
2526.660533	-3.006900	2.993500	-9.000700	27.831671	0.000248	20.805562
2527.658712	-3.002800	2.993000	-8.986100	27.776472	0.000248	20.790788
2528.660452	-2.977000	2.991600	-8.904500	27.772379	0.000246	20.806583
2529.665683	-3.002400	2.988900	-8.972000	27.785125	0.000249	20.802340
2530.658869	-2.997600	2.989500	-8.959500	27.807763	0.000249	20.799519
2531.664932	-2.979500	2.987400	-8.900000	27.869977	0.000246	20.799544
2532.663507	-2.996100	2.986400	-8.945900	27.876919	0.000247	20.790410
2533.660117	-3.000400	2.983700	-8.950900	27.881853	0.000245	20.779728
2534.665805	-3.024800	2.982200	-9.019000	27.979614	0.000245	20.803209
2535.660231	-2.996800	2.981400	-8.933400	28.009019	0.000245	20.784918
2536.661332	-3.022200	2.979600	-9.003500	28.043007	0.000246	20.814863
2537.664902	-2.985300	2.979300	-8.893200	28.047520	0.000247	20.782896
2538.662829	-3.043000	2.975700	-9.054100	28.013950	0.000247	20.810744
2539.661934	-3.028200	2.976600	-9.012900	28.016901	0.000250	20.790007
2540.663903	-2.998100	2.974500	-8.916900	27.983728	0.000247	20.793600
2541.662132	-3.012000	2.972300	-8.951200	28.025577	0.000247	20.803008
2542.662627	-2.999400	2.971600	-8.911800	28.055054	0.000246	20.791902
2543.665956	-2.995200	2.972500	-8.901800	28.046055	0.000246	20.790904
2544.662399	-3.020500	2.968600	-8.965500	28.054732	0.000245	20.812915
2545.661098	-3.013400	2.967100	-8.940300	28.089860	0.000245	20.794697
2546.666160	-2.993400	2.965400	-8.875900	28.083017	0.000246	20.777377
2547.664968	-2.986500	2.965500	-8.855300	28.069406	0.000246	20.806349
2548.663228	-3.024600	2.962100	-8.958200	28.107138	0.000244	20.809245
2549.665647	-3.013300	2.960700	-8.920700	28.145908	0.000245	20.806075
2550.668647	-2.996500	2.961500	-8.873600	28.110930	0.000247	20.802631
2551.663474	-3.004800	2.958300	-8.888300	28.099155	0.000245	20.810217
2552.668309	-3.013100	2.958000	-8.911300	28.128035	0.000247	20.796143
2553.667135	-3.042400	2.954200	-8.986700	28.188149	0.000246	20.806875
2554.664351	-2.991800	2.954300	-8.836900	28.232839	0.000245	20.794970
2555.666967	-2.979100	2.954000	-8.799200	28.288609	0.000245	20.812239
2556.666806	-3.016600	2.949700	-8.897300	28.292500	0.000247	20.800509
2557.665454	-2.990400	2.950600	-8.821000	28.223792	0.000248	20.823793
2558.667979	-2.997500	2.948600	-8.837000	28.132694	0.000245	20.810316
2559.667686	-2.994400	2.946300	-8.821600	28.113630	0.000246	20.831427
2560.665116	-3.023100	2.944900	-8.901800	28.052992	0.000245	20.808792
2561.670253	-3.012900	2.942700	-8.864800	28.006111	0.000246	20.820871
2562.665899	-3.003900	2.942100	-8.836900	27.983698	0.000245	20.797837
2563.665060	-2.984900	2.940100	-8.774500	27.996937	0.000246	20.797413
2564.665663	-2.994000	2.938700	-8.797100	28.050512	0.000245	20.804400
2565.668666	-2.996300	2.937500	-8.799800	28.052519	0.000244	20.813533
2566.663989	-2.976500	2.936400	-8.739300	28.086186	0.000244	20.821818
2567.665967	-2.990600	2.933600	-8.771600	28.118859	0.000247	20.810613
2568.668907	-2.959300	2.931900	-8.674200	28.113603	0.000248	20.804374
2569.664324	-3.025600	2.928900	-8.860700	28.118437	0.000245	20.799757
2570.674751	-2.970700	2.931000	-8.705800	28.109488	0.000246	20.812559
2571.670755	-2.985200	2.928800	-8.741400	28.149176	0.000245	20.826909
2572.667563	-3.000700	2.926700	-8.781400	28.197885	0.000244	20.815254
2573.672332	-2.974100	2.925700	-8.699800	28.191910	0.000242	20.821092
2574.668162	-2.997400	2.923400	-8.761200	28.197661	0.000244	20.810761
2575.669963	-2.981800	2.922400	-8.712500	28.187300	0.000244	20.817874
2576.674118	-2.992700	2.920100	-8.737800	28.204502	0.000245	20.814803
2577.672743	-3.002200	2.918400	-8.760900	28.205815	0.000244	20.814703
2578.668880	-2.976400	2.917000	-8.680900	28.210971	0.000244	20.815627
2579.673535	-2.967600	2.916500	-8.653500	28.233651	0.000243	20.819494
2580.668551	-3.003100	2.913700	-8.749400	28.189355	0.000241	20.825158
2581.670335	-2.973000	2.912400	-8.657600	28.158964	0.000244	20.817322
2582.680516	-2.979200	2.912000	-8.673300	28.138313	0.000244	20.812654
2583.674175	-3.012700	2.907500	-8.758700	28.138784	0.000243	20.821663
2584.671638	-2.999900	2.907000	-8.719600	28.112531	0.000242	20.806140
2585.678251	-3.002100	2.904100	-8.717100	28.098276	0.000241	20.817393
2586.673174	-2.995100	2.903000	-8.693400	28.091458	0.000242	20.829970
2587.672852	-2.956700	2.901700	-8.577700	28.078616	0.000245	20.828422
2588.678379	-2.973200	2.901300	-8.623600	28.149191	0.000243	20.814595
2589.677156	-2.981400	2.899500	-8.643500	28.182059	0.000241	20.813072
2590.673502	-3.011400	2.895100	-8.716800	28.262046	0.000241	20.820582
2591.674445	-3.020200	2.892500	-8.733700	28.287080	0.000241	20.833933
2592.677950	-2.987600	2.892900	-8.641600	28.251386	0.000245	20.834504
2593.673506	-2.990400	2.892300	-8.647400	28.205405	0.000242	20.827566
2594.676334	-3.010000	2.888500	-8.692400	28.183964	0.000245	20.842964
2595.673440	-2.962700	2.887200	-8.552800	28.194324	0.000243	20.819730
2596.673730	-3.004800	2.884900	-8.667200	28.237527	0.000245	20.829560
2597.677066	-3.006600	2.882400	-8.664500	28.270294	0.000244	20.832679
2598.673427	-2.995900	2.882200	-8.633600	28.296220	0.000243	20.828911
2599.674238	-2.980200	2.879600	-8.580600	28.319591	0.000244	20.827786
2600.677043	-3.001000	2.877000	-8.632500	28.362890	0.000245	20.818278
2601.676669	-3.003200	2.875200	-8.633200	28.385715	0.000241	20.812338
2602.675521	-2.970500	2.875000	-8.539400	28.445813	0.000244	20.836819
2603.677511	-2.990700	2.872700	-8.590700	28.486727	0.000241	20.837717
2604.675774	-2.985100	2.869800	-8.566000	28.525856	0.000246	20.839664
2605.674375	-2.991700	2.868500	-8.581200	28.532693	0.000244	20.836118
2606.675016	-2.995300	2.866000	-8.583300	28.524393	0.000245	20.841984
2607.675092	-3.009100	2.865900	-8.622500	28.538368	0.000244	20.815281
2608.675071	-3.001200	2.863000	-8.591000	28.531007	0.000244	20.839636
2609.674656	-3.042500	2.859100	-8.696000	28.524714	0.000245	20.836617
2610.675045	-3.010500	2.857300	-8.601100	28.504717	0.000246	20.833074
2611.673982	-3.012700	2.857100	-8.606700	28.537697	0.000246	20.816976
2612.678459	-3.018900	2.854900	-8.617900	28.576157	0.000243	20.828208
2613.674646	-3.022400	2.851800	-8.618100	28.548205	0.000247	20.833248
2614.673916	-2.984600	2.850800	-8.507600	28.564585	0.000247	20.834572
2615.680363	-3.008500	2.848500	-8.568400	28.542829	0.000244	20.841584
2616.679487	-2.981500	2.845900	-8.484000	28.548553	0.000245	20.831702
2617.677745	-3.015800	2.842900	-8.572900	28.567484	0.000245	20.842232
2618.677423	-3.004300	2.842500	-8.539200	28.567782	0.000244	20.829730
2619.678002	-2.990600	2.840400	-8.494000	28.601705	0.000245	20.815058
2620.677146	-3.017400	2.837000	-8.559100	28.567907	0.000244	20.849770
2621.674899	-2.997000	2.836700	-8.500600	28.551056	0.000248	20.849869
2622.679639	-2.991000	2.834800	-8.477300	28.530169	0.000245	20.833102
2623.679880	-2.985400	2.830400	-8.449100	28.581091	0.000246	20.843608
2624.676575	-2.997400	2.829000	-8.478200	28.584189	0.000244	20.838194
2625.679336	-3.004700	2.826700	-8.492200	28.610256	0.000244	20.850696
2626.683320	-3.010100	2.824700	-8.501400	28.642493	0.000246	20.842387
2627.679322	-3.032900	2.822800	-8.560700	28.649802	0.000244	20.826989
2628.679476	-2.984400	2.820700	-8.416300	28.626785	0.000243	20.853118
2629.683506	-3.005500	2.819700	-8.473100	28.600174	0.000246	20.845757
2630.678928	-2.995300	2.816600	-8.435600	28.549526	0.000245	20.845483
2631.682579	-3.004000	2.813700	-8.451400	28.523087	0.000245	20.833556
2632.681026	-3.000400	2.812300	-8.435100	28.519792	0.000245	20.856790
2633.677552	-3.011600	2.808000	-8.455600	28.495506	0.000241	20.867420
2634.683327	-3.005300	2.805100	-8.428700	28.509508	0.000246	20.856391
2635.683459	-3.018800	2.804200	-8.464100	28.545515	0.000244	20.842392
2636.683660	-3.037300	2.799400	-8.501000	28.567866	0.000246	20.868694
2637.690978	-2.989800	2.800800	-8.372400	28.573343	0.000245	20.867098
2638.678760	-2.998800	2.797800	-8.388700	28.576294	0.000247	20.859164
2639.682503	-3.003000	2.793100	-8.386800	28.575674	0.000243	20.860911
2640.686511	-3.025700	2.790800	-8.443100	28.593539	0.000241	20.874161
2641.681813	-3.004900	2.789300	-8.380400	28.622555	0.000245	20.882522
2642.687114	-3.010800	2.786400	-8.388300	28.615544	0.000244	20.871194
2643.684462	-3.002300	2.783700	-8.356500	28.599589	0.000245	20.837108
2644.682992	-3.015500	2.779500	-8.381000	28.566409	0.000245	20.862012
2645.679451	-3.008800	2.777000	-8.354800	28.605313	0.000244	20.853778
2646.685763	-2.996100	2.775600	-8.315300	28.635542	0.000245	20.867153
2647.690987	-3.032400	2.770300	-8.398700	28.679844	0.000244	20.856773
2648.686770	-2.988500	2.769800	-8.276700	28.684626	0.000243	20.853055
2649.687200	-3.022000	2.765200	-8.355100	28.642826	0.000244	20.877334
2650.685173	-2.984400	2.763800	-8.247300	28.628059	0.000244	20.864833
2651.682582	-2.980100	2.762200	-8.230300	28.601151	0.000242	20.854328
2652.685998	-2.996200	2.758900	-8.265300	28.569681	0.000244	20.873841
2653.688649	-3.027000	2.754400	-8.336000	28.561356	0.000245	20.875888
2654.685421	-2.997400	2.751500	-8.245800	28.560340	0.000243	20.890510
2655.688269	-3.031700	2.748900	-8.331600	28.525226	0.000244	20.876486
2656.686785	-2.992200	2.746100	-8.215500	28.505600	0.000245	20.867153
2657.683597	-2.995400	2.745100	-8.221600	28.468031	0.000245	20.873416
2658.686501	-2.987000	2.740900	-8.185300	28.442830	0.000244	20.874116
2659.688650	-3.000400	2.736500	-8.209700	28.422111	0.000246	20.865107
2660.688883	-3.030600	2.732600	-8.280600	28.446497	0.000243	20.875439
2661.690537	-3.015500	2.729000	-8.227800	28.505055	0.000244	20.874190
2662.687995	-3.008900	2.725700	-8.200600	28.577537	0.000242	20.875589
2663.685435	-3.000400	2.723700	-8.171200	28.637228	0.000242	20.879756
2664.688794	-2.988900	2.721300	-8.132700	28.681108	0.000245	20.875589
2665.686338	-3.001800	2.717200	-8.154900	28.702887	0.000244	20.869076
2666.686815	-3.030600	2.712000	-8.217900	28.739109	0.000243	20.897972
2667.691888	-2.968800	2.709900	-8.043900	28.787420	0.000245	20.888316
2668.689520	-2.994500	2.706400	-8.103200	28.842914	0.000245	20.883052
2669.686755	-3.003800	2.701500	-8.114300	28.838776	0.000244	20.893582
2670.686857	-3.001700	2.698400	-8.098700	28.802557	0.000244	20.889340
2671.686342	-3.017200	2.694200	-8.127900	28.744636	0.000248	20.903539
2672.687933	-2.993900	2.692200	-8.058700	28.702891	0.000248	20.887571
2673.689439	-3.000800	2.687500	-8.063100	28.675439	0.000244	20.893585
2674.689356	-3.004500	2.685100	-8.066100	28.626901	0.000248	20.891639
2675.687900	-3.017200	2.679000	-8.082100	28.662209	0.000246	20.890691
2676.693785	-3.015500	2.677100	-8.071000	28.695907	0.000244	20.901872
2677.689555	-3.036200	2.671900	-8.110900	28.718478	0.000243	20.880512
2678.690217	-2.987600	2.667900	-7.968400	28.753559	0.000246	20.899251
2679.690558	-2.998300	2.665600	-7.991600	28.784553	0.000246	20.888747
2680.692381	-3.003400	2.660700	-7.990300	28.841730	0.000242	20.904618
2681.688722	-3.014400	2.656900	-8.008100	28.879707	0.000245	20.902573
2682.690121	-3.018700	2.653400	-8.008100	28.892316	0.000245	20.894887
2683.690258	-3.026700	2.647400	-8.012200	28.935344	0.000250	20.905991
2684.691856	-2.982400	2.643500	-7.883000	28.952833	0.000246	20.921713
2685.691103	-3.013600	2.638600	-7.950400	28.937897	0.000248	20.896237
2686.693036	-3.001900	2.635200	-7.909800	28.860760	0.000249	20.909089
2687.695388	-3.021700	2.629300	-7.944800	28.813693	0.000245	20.912883
2688.694214	-2.991200	2.625200	-7.851700	28.774922	0.000245	20.917449
2689.693755	-3.029100	2.619900	-7.935300	28.739743	0.000246	20.918524
2690.694322	-2.997400	2.617100	-7.844000	28.726216	0.000245	20.921019
2691.693542	-3.036500	2.611100	-7.927100	28.700971	0.000241	20.934471
2692.697288	-3.042300	2.605800	-7.926200	28.676716	0.000245	20.912887
2693.694483	-2.981300	2.602700	-7.759000	28.664130	0.000247	20.908745
2694.696885	-2.981800	2.597200	-7.743500	28.687842	0.000248	20.906550
2695.696927	-2.974600	2.591900	-7.709000	28.709769	0.000245	20.911092
2696.693865	-3.024000	2.584200	-7.813800	28.733704	0.000248	20.911019
2697.697969	-2.961600	2.582900	-7.648600	28.755160	0.000248	20.920302
2698.700095	-3.016800	2.574400	-7.765500	28.800001	0.000246	20.910945
2699.694157	-3.020700	2.568400	-7.757400	28.865626	0.000248	20.914464
2700.697093	-3.009800	2.562700	-7.711500	28.905610	0.000243	20.912545
2701.701467	-3.009400	2.559400	-7.701400	28.970732	0.000246	20.915565
2702.698955	-3.021900	2.552000	-7.711200	28.989532	0.000249	20.933556
2703.693681	-3.001400	2.545900	-7.640600	29.039443	0.000246	20.917463
2704.700917	-3.016400	2.540900	-7.663300	29.067431	0.000247	20.914369
2705.700326	-2.992300	2.534900	-7.584600	29.073031	0.000248	20.907211
2706.699347	-3.037100	2.527500	-7.674000	29.071719	0.000247	20.916319
2707.697629	-3.008900	2.522700	-7.589000	29.066295	0.000247	20.920811
2708.697767	-3.034900	2.515200	-7.632200	29.056366	0.000249	20.934513
2709.694559	-3.008300	2.512000	-7.555500	29.078657	0.000246	20.919991
2710.698634	-3.000700	2.504800	-7.515100	29.084528	0.000248	20.935387
2711.699926	-2.978500	2.498600	-7.440900	29.130075	0.000248	20.947141
