LabVIEW Measurement	
Writer_Version	2
Reader_Version	2
Separator	Tab
Decimal_Separator	.
Multi_Headings	No
X_Columns	One
Time_Pref	Absolute
Operator	admin
Description	Clolumns are: time, Current, Voltage, Power, Battery Temp, and Chamber Temp
Date	2024/08/16
Time	13:06:06.104549407958984375
***End_of_Header***	
	
Channels	6						
Samples	1	1	1	1	1	1	
Date	2024/08/30	2024/08/30	2024/08/30	2024/08/30	2024/08/30	2024/08/30	
Time	09:31:02.0912184715270996094	09:31:02.0962176322937011719	09:31:02.1046438217163085937	09:31:02.0740118026733398438	09:31:02.0740118026733398438	09:31:02.0740118026733398438	
X_Dimension	Time	Time	Time	Time	Time	Time	
X0	0.0000000000000000E+0	0.0000000000000000E+0	0.0000000000000000E+0	0.0000000000000000E+0	0.0000000000000000E+0	0.0000000000000000E+0	
Delta_X	1.000000	1.000000	1.000000	1.000000	1.000000	1.000000	
***End_of_Header***							
X_Value	Untitled	Untitled 1	Untitled 2	Untitled 3	Untitled 4	Untitled 5	Comment
0.000000	0.004576	4.102400	0.018642	21.015894	0.000945	20.755604
0.998482	-3.003900	3.941700	-11.839000	21.017069	0.000946	20.758201
1.999725	-2.997100	3.933800	-11.788000	21.011508	0.000946	20.772554
3.001762	-3.012100	3.927100	-11.827000	21.026328	0.000943	20.743754
3.999921	-3.001600	3.924000	-11.775000	21.017069	0.000940	20.737812
4.999277	-3.023200	3.921100	-11.853000	21.027305	0.000941	20.748524
6.004143	-2.987500	3.919500	-11.708000	21.013058	0.000940	20.743284
6.998584	-2.991900	3.916300	-11.715000	21.023883	0.000941	20.737041
8.002141	-3.019100	3.913400	-11.813000	21.018174	0.000940	20.735124
9.000798	-3.014000	3.911600	-11.788000	21.023038	0.000941	20.722919
10.004565	-2.984400	3.910400	-11.669000	21.020120	0.000938	20.760304
11.004812	-2.992300	3.908900	-11.696000	20.994668	0.000939	20.752392
12.000686	-2.970800	3.908300	-11.610000	21.027309	0.000938	20.758486
13.000575	-2.996100	3.905800	-11.701000	21.033373	0.000935	20.751275
14.001869	-3.008100	3.903800	-11.742000	21.053452	0.000937	20.752392
15.002805	-3.010500	3.903600	-11.750000	21.050637	0.000935	20.744834
16.004110	-2.994800	3.901500	-11.683000	21.055006	0.000933	20.725496
17.001269	-3.030800	3.899600	-11.817000	21.039511	0.000935	20.744137
18.004791	-3.001100	3.900200	-11.704000	21.039507	0.000933	20.717105
19.002721	-3.003000	3.897900	-11.703000	21.056078	0.000933	20.727042
20.001932	-3.023700	3.896900	-11.782000	21.055826	0.000931	20.739593
21.004590	-3.002500	3.896900	-11.700000	21.080263	0.000931	20.736534
22.002841	-3.017500	3.896100	-11.756000	21.068580	0.000932	20.740497
23.002449	-3.014700	3.895200	-11.742000	21.064912	0.000931	20.730662
24.002796	-2.949200	3.896200	-11.489000	21.068428	0.000930	20.742241
25.004742	-3.004800	3.893000	-11.697000	21.088461	0.000931	20.747580
26.003044	-2.978700	3.893400	-11.596000	21.078185	0.000931	20.740146
27.007001	-2.978500	3.892700	-11.593000	21.097319	0.000928	20.743164
28.002145	-2.982000	3.893000	-11.608000	21.110444	0.000928	20.746809
29.003599	-2.994800	3.892800	-11.657000	21.114314	0.000928	20.743094
30.008028	-2.996000	3.891800	-11.657000	21.124615	0.000928	20.727793
31.004561	-2.997600	3.888400	-11.654000	21.122294	0.000928	20.740171
32.007905	-3.012900	3.888900	-11.715000	21.111515	0.000926	20.727017
33.005228	-3.016000	3.888500	-11.726000	21.139009	0.000924	20.742191
34.003952	-2.987900	3.889100	-11.619000	21.148988	0.000921	20.735103
35.008012	-3.005300	3.887500	-11.682000	21.151679	0.000924	20.724993
36.004642	-2.972600	3.889300	-11.560000	21.124615	0.000925	20.760985
37.006353	-2.996500	3.886600	-11.645000	21.141181	0.000924	20.739622
38.007565	-2.979000	3.887500	-11.580000	21.159461	0.000924	20.723294
39.004960	-2.997600	3.887100	-11.651000	21.148934	0.000923	20.740266
40.010003	-2.984300	3.885500	-11.595000	21.165850	0.000923	20.736324
41.006316	-2.997600	3.885700	-11.647000	21.188132	0.000921	20.725896
42.007145	-3.023600	3.884300	-11.743000	21.173603	0.000924	20.727957
43.008244	-3.017000	3.882900	-11.714000	21.186380	0.000923	20.735050
44.007485	-2.995200	3.883600	-11.630000	21.218438	0.000921	20.724444
45.013410	-3.023900	3.882000	-11.738000	21.203093	0.000920	20.730431
46.009734	-3.019300	3.882000	-11.720000	21.218537	0.000921	20.732604
47.008929	-3.003200	3.881300	-11.655000	21.231961	0.000920	20.724222
48.010980	-3.004800	3.882200	-11.664000	21.222650	0.000919	20.742410
49.010472	-2.996400	3.882600	-11.633000	21.242186	0.000920	20.725442
50.010538	-3.008700	3.880400	-11.674000	21.240641	0.000919	20.722474
51.010159	-3.008700	3.880200	-11.673000	21.254963	0.000919	20.723999
52.009874	-2.989600	3.880800	-11.602000	21.236078	0.000919	20.722651
53.009199	-2.981500	3.881400	-11.571000	21.244012	0.000918	20.737701
54.012229	-2.981000	3.882000	-11.571000	21.271552	0.000921	20.717835
55.012582	-2.986400	3.881100	-11.590000	21.252169	0.000918	20.720729
56.009875	-2.995000	3.880100	-11.620000	21.263297	0.000919	20.704834
57.010640	-2.985000	3.879400	-11.579000	21.270855	0.000917	20.714767
58.011211	-3.002100	3.879400	-11.645000	21.293511	0.000917	20.709930
59.013701	-3.000300	3.878700	-11.636000	21.285631	0.000916	20.724808
60.012007	-3.010100	3.878400	-11.674000	21.284435	0.000917	20.705119
61.013529	-3.013500	3.877600	-11.684000	21.282795	0.000915	20.704426
62.012659	-2.988400	3.879100	-11.590000	21.284217	0.000918	20.716281
63.013669	-3.002400	3.876800	-11.637000	21.302281	0.000915	20.741466
64.015952	-2.993600	3.878100	-11.608000	21.311739	0.000915	20.714417
65.013745	-3.019200	3.876100	-11.701000	21.308871	0.000917	20.693054
66.016452	-2.987300	3.877300	-11.582000	21.325236	0.000915	20.708954
67.014307	-3.007100	3.875400	-11.652000	21.339562	0.000914	20.700052
68.013339	-2.981500	3.876900	-11.558000	21.335395	0.000916	20.701099
69.013334	-3.004500	3.875400	-11.643000	21.335049	0.000914	20.702649
70.014110	-2.968300	3.875400	-11.502000	21.349049	0.000916	20.727089
71.013587	-2.995200	3.875500	-11.606000	21.334534	0.000915	20.691228
72.016481	-3.001000	3.876400	-11.632000	21.370301	0.000914	20.718479
73.014369	-3.007200	3.874400	-11.650000	21.361829	0.000913	20.705260
74.014151	-2.989000	3.874300	-11.580000	21.373677	0.000915	20.686766
75.020450	-3.031900	3.873400	-11.742000	21.373182	0.000915	20.715198
76.013062	-2.999700	3.874200	-11.620000	21.354778	0.000917	20.714328
77.015160	-2.992600	3.873000	-11.589000	21.395193	0.000917	20.704976
78.012716	-3.027800	3.871800	-11.721000	21.388435	0.000916	20.690152
79.014710	-2.991500	3.872200	-11.582000	21.370554	0.000915	20.686961
80.015713	-3.002800	3.871300	-11.622000	21.391880	0.000915	20.702609
81.018803	-2.991500	3.871800	-11.580000	21.402393	0.000917	20.716448
82.016842	-3.006900	3.870600	-11.636000	21.423343	0.000916	20.672447
83.017179	-2.992200	3.871600	-11.584000	21.428907	0.000917	20.706465
84.017530	-2.990800	3.872100	-11.580000	21.416239	0.000914	20.722716
85.017048	-3.012700	3.870500	-11.659000	21.419264	0.000915	20.720052
86.021437	-3.007200	3.870400	-11.638000	21.439943	0.000913	20.689057
87.018541	-3.026900	3.869200	-11.711000	21.435781	0.000916	20.686789
88.018818	-3.010400	3.869900	-11.649000	21.459001	0.000915	20.687263
89.021791	-3.006900	3.870500	-11.636000	21.447632	0.000915	20.709555
90.018205	-3.006100	3.870200	-11.633000	21.475373	0.000918	20.680885
91.016810	-3.028800	3.868000	-11.715000	21.454799	0.000916	20.712932
92.017941	-2.996300	3.870200	-11.595000	21.490838	0.000915	20.706792
93.018842	-3.014200	3.868900	-11.661000	21.481513	0.000917	20.696987
94.017751	-3.015100	3.868100	-11.661000	21.491563	0.000915	20.703250
95.015522	-3.010800	3.868500	-11.646000	21.513568	0.000915	20.701560
96.017938	-2.994000	3.868300	-11.580000	21.481695	0.000916	20.691004
97.018346	-3.018500	3.868100	-11.674000	21.522897	0.000914	20.667744
98.023400	-3.005600	3.867200	-11.622000	21.529905	0.000916	20.676180
99.021302	-3.004300	3.868800	-11.622000	21.538035	0.000917	20.669142
100.021833	-3.012600	3.867300	-11.649000	21.547043	0.000915	20.672940
101.022707	-2.997400	3.866800	-11.588000	21.546445	0.000916	20.687990
102.025201	-3.001600	3.867700	-11.608000	21.543854	0.000919	20.695355
103.023194	-3.004100	3.868500	-11.620000	21.553532	0.000917	20.665683
104.023777	-3.011100	3.868000	-11.646000	21.581361	0.000916	20.676461
105.020829	-3.016100	3.866800	-11.661000	21.569841	0.000918	20.690539
106.021542	-3.016800	3.865200	-11.658000	21.584657	0.000917	20.694460
107.026402	-2.994600	3.867500	-11.581000	21.586627	0.000918	20.686947
108.026381	-3.004600	3.866700	-11.618000	21.573562	0.000916	20.648265
109.024679	-3.008900	3.865400	-11.630000	21.586355	0.000916	20.668656
110.024553	-3.010200	3.864900	-11.634000	21.601394	0.000917	20.678965
111.023942	-3.015600	3.864900	-11.654000	21.626354	0.000918	20.696831
112.024270	-2.987100	3.865400	-11.546000	21.626136	0.000916	20.678119
113.026443	-2.999400	3.866300	-11.594000	21.645508	0.000917	20.696559
114.023760	-2.997700	3.865300	-11.585000	21.633717	0.000917	20.671955
115.024573	-3.001400	3.865900	-11.602000	21.644614	0.000917	20.681913
116.024082	-3.000700	3.864600	-11.596000	21.639328	0.000919	20.682313
117.025859	-3.025300	3.864100	-11.689000	21.629486	0.000918	20.668669
118.026713	-2.994600	3.864000	-11.570000	21.638257	0.000916	20.692148
119.026317	-2.986000	3.863600	-11.535000	21.654667	0.000918	20.665419
120.026634	-2.985200	3.865600	-11.539000	21.634644	0.000918	20.674305
121.030508	-3.016600	3.862900	-11.652000	21.642921	0.000918	20.689702
122.029309	-2.995200	3.863300	-11.570000	21.648834	0.000917	20.683291
123.030393	-2.991900	3.862900	-11.556000	21.665215	0.000920	20.687356
124.029347	-3.016300	3.863100	-11.651000	21.677064	0.000918	20.675980
125.030622	-3.001600	3.861800	-11.591000	21.684570	0.000919	20.666896
126.028879	-2.987200	3.863600	-11.540000	21.670031	0.000919	20.690754
127.030162	-2.996700	3.862800	-11.575000	21.710381	0.000918	20.683720
128.030659	-3.017700	3.860700	-11.648000	21.680529	0.000920	20.693673
129.032339	-3.010400	3.861100	-11.623000	21.696765	0.000920	20.687637
130.030834	-2.999800	3.863500	-11.589000	21.710229	0.000919	20.676454
131.034037	-3.000100	3.860700	-11.581000	21.665372	0.000920	20.678503
132.033693	-3.012800	3.859900	-11.628000	21.702125	0.000920	20.674033
133.033102	-2.996500	3.862000	-11.571000	21.706715	0.000923	20.695698
134.034599	-2.972100	3.861900	-11.478000	21.716442	0.000921	20.687889
135.036071	-3.002900	3.859600	-11.589000	21.728735	0.000920	20.674112
136.041683	-3.011600	3.859800	-11.622000	21.716121	0.000922	20.658641
137.033439	-2.984300	3.861600	-11.523000	21.735269	0.000921	20.686342
138.032899	-3.016300	3.859300	-11.640000	21.725398	0.000924	20.685473
139.037385	-2.999200	3.859600	-11.574000	21.735994	0.000921	20.662410
140.035617	-2.984600	3.860500	-11.521000	21.754100	0.000922	20.677213
141.036973	-2.993900	3.861000	-11.558000	21.765920	0.000923	20.680982
142.037644	-3.014200	3.859200	-11.631000	21.786444	0.000921	20.678764
143.038489	-3.004600	3.858500	-11.591000	21.784129	0.000922	20.675024
144.041729	-3.011500	3.858100	-11.617000	21.780689	0.000922	20.703827
145.043859	-2.999100	3.859500	-11.574000	21.796100	0.000923	20.670884
146.039879	-2.991500	3.859200	-11.544000	21.810687	0.000924	20.694021
147.040307	-3.000100	3.857900	-11.573000	21.790992	0.000923	20.668142
148.040316	-2.989600	3.859200	-11.536000	21.810618	0.000923	20.675932
149.040115	-2.986300	3.857500	-11.519000	21.826049	0.000923	20.657236
150.042479	-3.012000	3.858300	-11.621000	21.840764	0.000924	20.678130
151.039955	-3.018700	3.857400	-11.643000	21.821020	0.000925	20.681602
152.041900	-2.986500	3.857600	-11.520000	21.840748	0.000927	20.675269
153.043734	-2.979000	3.857500	-11.490000	21.805040	0.000924	20.671298
154.041473	-3.021300	3.856400	-11.650000	21.827582	0.000922	20.685800
155.044670	-2.999000	3.855700	-11.562000	21.830853	0.000925	20.683384
156.040987	-2.995700	3.856500	-11.552000	21.833967	0.000925	20.668482
157.044486	-3.001500	3.855600	-11.571000	21.842997	0.000926	20.684634
158.041993	-2.998500	3.856400	-11.562000	21.849609	0.000927	20.657584
159.042090	-3.030100	3.854900	-11.679000	21.852674	0.000927	20.687681
160.042492	-3.011700	3.855500	-11.611000	21.863495	0.000927	20.694246
161.042380	-3.027000	3.854900	-11.667000	21.867161	0.000927	20.676577
162.041519	-2.991500	3.856900	-11.537000	21.889780	0.000928	20.677880
163.045495	-3.018200	3.854200	-11.632000	21.906710	0.000927	20.669695
164.043159	-3.001000	3.854300	-11.565000	21.904692	0.000928	20.682849
165.042319	-3.009000	3.854400	-11.596000	21.901849	0.000929	20.681426
166.045249	-2.995100	3.853800	-11.542000	21.920806	0.000927	20.685229
167.042806	-2.982500	3.855400	-11.498000	21.925790	0.000929	20.684528
168.043020	-3.019500	3.854400	-11.637000	21.912531	0.000931	20.670306
169.042994	-2.986700	3.856200	-11.516000	21.922676	0.000929	20.672401
170.044005	-2.997000	3.853700	-11.548000	21.932204	0.000928	20.678619
171.044429	-3.017900	3.852700	-11.626000	21.936620	0.000930	20.675453
172.043062	-3.004900	3.851900	-11.573000	21.963846	0.000930	20.686112
173.046502	-3.008100	3.852700	-11.588000	21.962598	0.000931	20.692450
174.046290	-3.021400	3.852200	-11.637000	21.974967	0.000930	20.670216
175.046694	-3.000600	3.853400	-11.562000	21.987810	0.000931	20.702041
176.046329	-3.005600	3.852100	-11.576000	21.988984	0.000933	20.683775
177.045405	-2.996900	3.853300	-11.545000	22.008276	0.000933	20.698821
178.044127	-3.012100	3.851400	-11.600000	22.022638	0.000932	20.712725
179.045210	-3.017700	3.851900	-11.623000	22.029570	0.000935	20.681255
180.044507	-2.996000	3.852700	-11.540000	22.027902	0.000936	20.718943
181.047943	-2.996600	3.851600	-11.540000	22.025934	0.000935	20.687098
182.049791	-3.024600	3.850700	-11.646000	22.029328	0.000935	20.690971
183.047865	-2.987800	3.852300	-11.508000	22.017112	0.000937	20.707666
184.049228	-2.980400	3.851900	-11.478000	22.011955	0.000935	20.703927
185.048591	-2.993600	3.849800	-11.524000	22.026017	0.000934	20.689553
186.047927	-2.993800	3.850800	-11.527000	22.053286	0.000936	20.686505
187.056636	-2.999000	3.850000	-11.545000	22.072833	0.000938	20.700385
188.050049	-3.001000	3.850100	-11.553000	22.074826	0.000936	20.697164
189.050498	-3.009000	3.849600	-11.582000	22.106287	0.000936	20.692151
190.050274	-3.004300	3.849700	-11.565000	22.092779	0.000939	20.705181
191.050585	-3.019300	3.848300	-11.619000	22.122345	0.000939	20.694951
192.050919	-3.003700	3.849500	-11.561000	22.117032	0.000937	20.681570
193.055135	-3.025600	3.849400	-11.645000	22.108886	0.000937	20.693330
194.050063	-2.974100	3.850800	-11.451000	22.091486	0.000939	20.707206
195.053983	-3.020900	3.847600	-11.622000	22.095077	0.000940	20.689463
196.052888	-3.012200	3.847100	-11.587000	22.097944	0.000940	20.717465
197.053625	-3.008500	3.849800	-11.580000	22.088274	0.000941	20.706835
198.055921	-2.990500	3.848000	-11.506000	22.114870	0.000941	20.706435
199.054014	-2.978600	3.848800	-11.463000	22.100740	0.000940	20.707462
200.053267	-2.991200	3.848500	-11.511000	22.113779	0.000942	20.696807
201.060091	-2.981300	3.847800	-11.470000	22.130030	0.000944	20.688420
202.053881	-2.990000	3.847600	-11.503000	22.138259	0.000942	20.697607
203.057887	-2.968800	3.848400	-11.424000	22.151692	0.000943	20.703470
204.054205	-2.995500	3.846900	-11.522000	22.171262	0.000944	20.700304
205.059865	-2.998500	3.846000	-11.531000	22.180186	0.000947	20.699281
206.055280	-2.979000	3.846900	-11.459000	22.156630	0.000947	20.698457
207.054735	-2.989400	3.846600	-11.498000	22.175726	0.000943	20.694342
208.060260	-3.009500	3.844900	-11.570000	22.204289	0.000946	20.724364
209.057162	-2.993000	3.846700	-11.512000	22.195864	0.000946	20.694115
210.057725	-2.997200	3.845300	-11.524000	22.203968	0.000947	20.704127
211.056575	-2.994100	3.845700	-11.513000	22.222438	0.000947	20.706972
212.057753	-2.978500	3.845500	-11.453000	22.233931	0.000947	20.717058
213.057773	-2.984900	3.845100	-11.476000	22.226074	0.000948	20.718674
214.062925	-2.990300	3.845100	-11.497000	22.232230	0.000948	20.710613
215.059673	-3.012800	3.843800	-11.580000	22.230735	0.000950	20.698684
216.060303	-2.990800	3.844900	-11.498000	22.264234	0.000950	20.696663
217.058930	-3.020200	3.844300	-11.609000	22.252366	0.000951	20.724611
218.063885	-2.977400	3.844400	-11.444000	22.270163	0.000949	20.710188
219.063814	-3.006800	3.844100	-11.557000	22.267298	0.000950	20.706370
220.061929	-2.996000	3.844400	-11.516000	22.254088	0.000951	20.712109
221.063549	-3.000900	3.842100	-11.529000	22.286614	0.000951	20.711013
222.061644	-2.969700	3.844300	-11.416000	22.292094	0.000952	20.713181
223.061791	-3.007500	3.842000	-11.553000	22.275146	0.000951	20.721341
224.063594	-3.000300	3.843100	-11.529000	22.306375	0.000952	20.728903
225.063569	-2.991500	3.843600	-11.497000	22.296406	0.000953	20.717024
226.061739	-3.005200	3.842000	-11.545000	22.306152	0.000954	20.710188
227.065139	-2.989900	3.840400	-11.480000	22.327733	0.000955	20.716150
228.063432	-3.009800	3.841200	-11.561000	22.338377	0.000952	20.713532
229.061530	-2.990300	3.842200	-11.488000	22.337755	0.000955	20.718600
230.066366	-3.016400	3.840500	-11.583000	22.358305	0.000957	20.725901
231.062979	-3.015500	3.840700	-11.580000	22.350367	0.000959	20.727436
232.065931	-2.986800	3.840800	-11.471000	22.363892	0.000958	20.712529
233.064950	-2.991000	3.841300	-11.488000	22.341144	0.000959	20.717725
234.065354	-2.987300	3.840200	-11.470000	22.371148	0.000959	20.715527
235.069308	-2.989800	3.840800	-11.481000	22.357667	0.000956	20.741859
236.066117	-3.001800	3.840000	-11.527000	22.374891	0.000958	20.717853
237.067150	-3.009700	3.839400	-11.555000	22.402551	0.000959	20.746976
238.063677	-2.986700	3.840200	-11.468000	22.399162	0.000961	20.714658
239.064692	-3.014900	3.839300	-11.574000	22.407434	0.000959	20.731477
240.067082	-2.985000	3.838700	-11.457000	22.398343	0.000962	20.759359
241.069371	-2.984200	3.839200	-11.456000	22.395103	0.000962	20.730508
242.068046	-3.010900	3.838200	-11.556000	22.421219	0.000964	20.712563
243.065241	-2.995900	3.839100	-11.500000	22.393885	0.000963	20.741142
244.065809	-2.996200	3.838400	-11.500000	22.442801	0.000962	20.728962
245.072727	-2.993700	3.839200	-11.492000	22.419177	0.000966	20.736124
246.063985	-2.992200	3.838100	-11.482000	22.412425	0.000964	20.712291
247.065766	-3.016400	3.835900	-11.570000	22.420198	0.000962	20.737147
248.065678	-3.023400	3.837800	-11.603000	22.442954	0.000964	20.725321
249.066117	-2.986100	3.837400	-11.457000	22.419478	0.000964	20.729312
250.065365	-2.982300	3.838400	-11.446000	22.436523	0.000966	20.725519
251.066130	-3.018100	3.837000	-11.578000	22.438915	0.000968	20.725070
252.069087	-3.011400	3.834300	-11.544000	22.434678	0.000965	20.742165
253.067362	-3.019800	3.835800	-11.581000	22.448611	0.000967	20.733832
254.067691	-3.010500	3.836000	-11.546000	22.446989	0.000967	20.750226
255.068592	-3.026200	3.833600	-11.600000	22.453943	0.000967	20.754345
256.070501	-3.005600	3.834600	-11.525000	22.464354	0.000969	20.723519
257.079241	-2.992200	3.835600	-11.474000	22.462667	0.000969	20.740796
258.070368	-3.000700	3.835800	-11.509000	22.475821	0.000970	20.750650
259.070866	-3.001700	3.834700	-11.510000	22.466558	0.000969	20.742322
260.070744	-2.997000	3.833600	-11.489000	22.491849	0.000971	20.742046
261.071990	-3.000500	3.834600	-11.504000	22.515945	0.000972	20.736306
262.069810	-2.996300	3.833300	-11.483000	22.524990	0.000971	20.738726
263.071449	-3.023700	3.833300	-11.590000	22.486291	0.000971	20.726047
264.070943	-2.996400	3.834700	-11.489000	22.464215	0.000972	20.747089
265.071309	-3.027500	3.832200	-11.602000	22.502042	0.000973	20.749410
266.074401	-3.012500	3.833300	-11.547000	22.485121	0.000974	20.765181
267.073041	-3.004900	3.832900	-11.515000	22.504282	0.000974	20.741221
268.070961	-3.010600	3.832200	-11.536000	22.510362	0.000973	20.762959
269.073510	-3.034800	3.831700	-11.625000	22.515373	0.000973	20.762761
270.072626	-3.002800	3.834100	-11.512000	22.520774	0.000972	20.757264
271.071298	-2.991600	3.831400	-11.461000	22.551823	0.000974	20.754696
272.072210	-2.990600	3.832100	-11.459000	22.551024	0.000977	20.762905
273.071669	-3.007600	3.831700	-11.522000	22.572155	0.000976	20.749455
274.072797	-3.011900	3.831800	-11.540000	22.555137	0.000976	20.766076
275.072125	-3.016500	3.830900	-11.554000	22.573625	0.000976	20.744288
276.071151	-2.982300	3.831400	-11.425000	22.565128	0.000977	20.760909
277.076420	-3.001000	3.830700	-11.494000	22.583143	0.000977	20.757141
278.073671	-3.013900	3.830600	-11.544000	22.612119	0.000978	20.742540
279.077730	-3.015400	3.830700	-11.550000	22.597868	0.000977	20.750552
280.075428	-3.022600	3.830100	-11.576000	22.604841	0.000979	20.771761
281.073924	-3.017700	3.827900	-11.550000	22.616384	0.000979	20.736380
282.074359	-3.005000	3.829400	-11.505000	22.608579	0.000978	20.756538
283.077340	-3.011600	3.828400	-11.529000	22.619418	0.000979	20.756963
284.073376	-3.011900	3.829800	-11.535000	22.611671	0.000982	20.754419
285.087449	-3.000300	3.829500	-11.489000	22.623678	0.000981	20.769291
286.077415	-3.004800	3.828700	-11.503000	22.602281	0.000981	20.757343
287.076728	-2.986800	3.829200	-11.436000	22.595925	0.000981	20.761408
288.082503	-2.999100	3.830100	-11.486000	22.598642	0.000984	20.757017
289.078919	-3.002800	3.829100	-11.496000	22.617401	0.000984	20.771064
290.079280	-3.008600	3.829000	-11.518000	22.592384	0.000985	20.773509
291.080074	-3.015800	3.828100	-11.544000	22.582348	0.000985	20.779579
292.079292	-3.014600	3.828600	-11.541000	22.585530	0.000986	20.771386
293.080073	-3.016000	3.827100	-11.542000	22.615458	0.000987	20.758687
294.081976	-3.008500	3.826400	-11.511000	22.609003	0.000986	20.770240
295.080049	-3.024300	3.825900	-11.569000	22.606961	0.000987	20.771040
296.079393	-3.013100	3.827100	-11.531000	22.653704	0.000988	20.776606
297.082729	-3.031200	3.825700	-11.596000	22.678044	0.000988	20.759734
298.080681	-3.009200	3.826400	-11.514000	22.658985	0.000987	20.803233
299.080827	-2.990300	3.825800	-11.439000	22.657841	0.000988	20.778379
300.080236	-2.994200	3.826800	-11.458000	22.688684	0.000990	20.793152
301.081512	-2.994400	3.826500	-11.457000	22.704379	0.000990	20.788959
302.080822	-3.000500	3.825300	-11.477000	22.686638	0.000989	20.786835
303.080125	-2.993400	3.824000	-11.446000	22.686968	0.000988	20.762035
304.086053	-3.027000	3.823100	-11.571000	22.677673	0.000992	20.784494
305.080993	-2.999000	3.824200	-11.468000	22.670820	0.000991	20.779525
306.079994	-2.992400	3.825400	-11.446000	22.676623	0.000990	20.779175
307.086737	-2.974200	3.825300	-11.376000	22.704803	0.000993	20.787013
308.080770	-3.003800	3.824000	-11.485000	22.707442	0.000995	20.798664
309.080245	-2.995000	3.823500	-11.451000	22.688837	0.000995	20.780503
310.084286	-3.009400	3.823100	-11.504000	22.695686	0.000992	20.804433
311.080264	-2.981800	3.824500	-11.403000	22.729517	0.000993	20.775258
312.079102	-2.993600	3.822200	-11.441000	22.720922	0.000994	20.780399
313.080006	-3.005300	3.822900	-11.488000	22.736568	0.000996	20.789907
314.081557	-2.980400	3.823700	-11.395000	22.748994	0.000996	20.781491
315.081212	-3.003100	3.822500	-11.479000	22.756922	0.000995	20.802235
316.080166	-3.000900	3.821800	-11.467000	22.771644	0.000994	20.798966
317.079831	-2.986400	3.823000	-11.416000	22.797599	0.000996	20.785611
318.079994	-3.014400	3.821600	-11.519000	22.805423	0.000996	20.779698
319.079949	-2.983700	3.821900	-11.402000	22.841218	0.000998	20.786159
320.083823	-3.010400	3.820900	-11.500000	22.852483	0.001000	20.795073
321.079726	-2.994500	3.820800	-11.439000	22.849811	0.000996	20.806147
322.083014	-3.007900	3.819800	-11.488000	22.856310	0.000998	20.798907
323.081616	-2.997300	3.820500	-11.451000	22.872480	0.001000	20.798986
324.080830	-2.988900	3.819600	-11.415000	22.872806	0.000998	20.800734
325.084888	-3.001700	3.818900	-11.462000	22.847721	0.000999	20.814484
326.083233	-3.001100	3.819700	-11.463000	22.857508	0.001001	20.809590
327.085742	-3.014200	3.819200	-11.510000	22.866949	0.001001	20.813833
328.085316	-3.004000	3.819000	-11.471000	22.834843	0.001001	20.800161
329.085662	-2.999200	3.819800	-11.455000	22.880901	0.001002	20.805525
330.084741	-3.009300	3.818500	-11.490000	22.897964	0.001003	20.794170
331.088295	-3.007100	3.819000	-11.483000	22.897416	0.001001	20.777975
332.083757	-3.024500	3.818500	-11.547000	22.896613	0.001004	20.815576
333.084834	-3.016600	3.817700	-11.515000	22.884884	0.001002	20.812361
334.084228	-3.027500	3.817600	-11.556000	22.905808	0.001002	20.798235
335.087044	-2.989600	3.817700	-11.412000	22.874068	0.001005	20.809111
336.091536	-3.006100	3.816600	-11.472000	22.879032	0.001004	20.784687
337.090378	-2.989400	3.818200	-11.414000	22.895844	0.001004	20.795366
338.086138	-3.005700	3.817400	-11.473000	22.903565	0.001005	20.815902
339.088141	-2.998200	3.816700	-11.442000	22.920105	0.001005	20.805446
340.087566	-3.005100	3.816200	-11.467000	22.911462	0.001007	20.810064
341.091387	-2.993300	3.817300	-11.426000	22.912656	0.001005	20.816001
342.089114	-2.969900	3.818600	-11.339000	22.907203	0.001010	20.807694
343.089138	-3.015000	3.815900	-11.502000	22.917240	0.001010	20.809689
344.089391	-2.989800	3.816700	-11.410000	22.918956	0.001011	20.820891
345.089602	-2.985900	3.816600	-11.394000	22.906676	0.001009	20.802898
346.091234	-3.009600	3.814400	-11.478000	22.919824	0.001011	20.820338
347.090080	-2.982500	3.814200	-11.374000	22.929945	0.001009	20.823839
348.091375	-3.014300	3.813200	-11.494000	22.935117	0.001010	20.815271
349.090030	-2.980600	3.814600	-11.368000	22.948619	0.001009	20.817893
350.090121	-3.014300	3.815000	-11.498000	22.958854	0.001011	20.833362
351.094180	-2.985000	3.814500	-11.384000	22.947200	0.001011	20.819316
352.091499	-3.018700	3.813400	-11.511000	22.967274	0.001011	20.830893
353.091736	-2.980300	3.814400	-11.365000	22.960426	0.001011	20.814075
354.091488	-2.992700	3.812600	-11.409000	22.963582	0.001014	20.833358
355.092557	-2.989200	3.812800	-11.397000	22.952228	0.001013	20.832414
356.094878	-2.992700	3.812300	-11.408000	22.959574	0.001015	20.838351
357.091986	-3.009200	3.811800	-11.469000	22.947561	0.001014	20.829160
358.093228	-2.988500	3.813400	-11.395000	22.961561	0.001014	20.819006
359.092845	-3.009600	3.811600	-11.470000	22.991647	0.001015	20.839666
360.094257	-2.992300	3.811100	-11.403000	22.997099	0.001014	20.831852
361.092746	-2.988100	3.810800	-11.386000	23.013638	0.001014	20.831828
362.094671	-3.012900	3.811700	-11.482000	23.010198	0.001016	20.817475
363.093935	-2.996400	3.811600	-11.421000	23.022152	0.001017	20.847470
364.098042	-2.999400	3.808900	-11.423000	23.034052	0.001016	20.831893
365.095556	-3.025200	3.808500	-11.519000	23.038957	0.001018	20.837756
366.095978	-3.005100	3.810200	-11.449000	23.043319	0.001018	20.825531
367.102492	-3.018700	3.809800	-11.499000	23.025855	0.001015	20.836482
368.095604	-3.010600	3.808700	-11.466000	23.043512	0.001018	20.838052
369.098478	-3.007500	3.809000	-11.455000	23.015143	0.001018	20.836180
370.096312	-2.973900	3.810200	-11.330000	23.043335	0.001019	20.837875
371.095531	-3.000500	3.809100	-11.427000	23.041013	0.001019	20.826540
372.099557	-2.999300	3.808300	-11.421000	23.050355	0.001019	20.829736
373.100185	-3.004600	3.808400	-11.442000	23.067390	0.001021	20.828787
374.098057	-3.000100	3.808500	-11.426000	23.086191	0.001020	20.819651
375.099307	-3.005100	3.807500	-11.441000	23.096123	0.001023	20.834345
376.098846	-3.004500	3.806800	-11.436000	23.098666	0.001023	20.842108
377.098333	-2.988400	3.806500	-11.375000	23.114401	0.001020	20.820891
378.099569	-2.994300	3.806400	-11.396000	23.114080	0.001022	20.830527
379.105341	-2.995900	3.806600	-11.404000	23.100230	0.001022	20.828028
380.099208	-2.998800	3.805100	-11.410000	23.106307	0.001024	20.819419
381.100486	-3.006300	3.804800	-11.436000	23.091963	0.001024	20.823064
382.106726	-2.994900	3.805200	-11.395000	23.089165	0.001023	20.810303
383.101342	-2.979000	3.805900	-11.336000	23.096789	0.001025	20.814150
384.099785	-2.998500	3.804700	-11.407000	23.081174	0.001025	20.807038
385.100796	-3.001100	3.805300	-11.418000	23.076565	0.001026	20.813325
386.101196	-2.974200	3.805800	-11.318000	23.100871	0.001025	20.809705
387.101233	-2.981200	3.805200	-11.343000	23.123358	0.001024	20.826547
388.102804	-3.011500	3.802100	-11.450000	23.140294	0.001027	20.816491
389.101054	-2.988800	3.803200	-11.365000	23.156003	0.001028	20.807577
390.101285	-2.982600	3.803800	-11.344000	23.161512	0.001026	20.812150
391.101783	-2.979200	3.803900	-11.331000	23.181953	0.001026	20.812244
392.111750	-2.987200	3.803800	-11.361000	23.179464	0.001028	20.799319
393.104861	-2.992700	3.802400	-11.378000	23.147535	0.001029	20.803359
394.100530	-2.999800	3.801700	-11.402000	23.142704	0.001029	20.794726
395.103408	-3.005400	3.801700	-11.424000	23.165314	0.001028	20.800786
396.101741	-2.982500	3.801900	-11.339000	23.183792	0.001028	20.802233
397.102626	-2.986800	3.803100	-11.358000	23.177542	0.001030	20.787436
398.110045	-2.984300	3.801100	-11.343000	23.185857	0.001029	20.800984
399.102171	-3.004000	3.799800	-11.414000	23.188774	0.001030	20.796321
400.102781	-3.000300	3.800300	-11.401000	23.198464	0.001029	20.808876
401.104183	-3.008500	3.800300	-11.432000	23.203216	0.001032	20.793249
402.103917	-3.009500	3.799800	-11.435000	23.198036	0.001031	20.819352
403.104707	-3.000000	3.798900	-11.395000	23.212733	0.001031	20.795674
404.104753	-2.996700	3.799700	-11.385000	23.198287	0.001031	20.797793
405.103869	-2.985700	3.800700	-11.346000	23.216892	0.001033	20.795575
406.111538	-2.996800	3.800800	-11.389000	23.236192	0.001033	20.805907
407.109511	-2.979000	3.799700	-11.318000	23.255414	0.001033	20.784867
408.106741	-3.012600	3.797800	-11.440000	23.267719	0.001033	20.807157
409.106517	-3.014300	3.797600	-11.446000	23.266497	0.001033	20.791708
410.103923	-3.006500	3.798700	-11.419000	23.270681	0.001037	20.780728
411.104900	-3.017000	3.798300	-11.458000	23.270085	0.001035	20.795303
412.108686	-3.000000	3.798000	-11.393000	23.244359	0.001034	20.797496
413.106850	-2.995700	3.798000	-11.376000	23.273841	0.001035	20.784368
414.109100	-3.015700	3.796800	-11.449000	23.249465	0.001033	20.789811
415.110352	-2.989500	3.796300	-11.348000	23.250835	0.001037	20.782175
416.106339	-3.006300	3.795400	-11.408000	23.252653	0.001036	20.788265
417.106461	-2.979700	3.796100	-11.311000	23.242166	0.001036	20.771591
418.107429	-2.989900	3.795700	-11.348000	23.240002	0.001035	20.794078
419.109193	-2.993400	3.795600	-11.360000	23.248370	0.001036	20.786818
420.115836	-3.009500	3.794800	-11.419000	23.258903	0.001035	20.771294
421.108950	-3.001300	3.796000	-11.391000	23.268966	0.001037	20.766206
422.110644	-3.005600	3.794600	-11.404000	23.279996	0.001039	20.799546
423.111197	-3.010300	3.793100	-11.418000	23.299048	0.001037	20.783552
424.115533	-2.989700	3.796000	-11.348000	23.289034	0.001038	20.767826
425.113101	-2.999100	3.794600	-11.379000	23.290232	0.001039	20.749586
426.112661	-3.005200	3.793900	-11.399000	23.336049	0.001041	20.765159
427.111663	-3.001400	3.793800	-11.385000	23.304430	0.001037	20.779937
428.113730	-2.996100	3.794200	-11.366000	23.307968	0.001038	20.783483
429.114474	-2.990900	3.793900	-11.347000	23.314961	0.001038	20.761094
430.119977	-3.013500	3.792600	-11.428000	23.318697	0.001041	20.775743
431.114285	-3.000700	3.793700	-11.382000	23.298781	0.001040	20.779017
432.113977	-3.008800	3.793000	-11.411000	23.301723	0.001038	20.757309
433.116697	-3.003200	3.790300	-11.382000	23.291142	0.001040	20.794121
434.116246	-3.013500	3.792200	-11.427000	23.293602	0.001040	20.792793
435.117665	-2.973500	3.792700	-11.276000	23.324062	0.001041	20.765948
436.119624	-3.001200	3.790600	-11.375000	23.334121	0.001041	20.765123
437.116394	-2.989000	3.790600	-11.329000	23.317410	0.001041	20.774453
438.120583	-3.021600	3.789600	-11.449000	23.330143	0.001041	20.772516
439.122647	-2.987900	3.789200	-11.321000	23.290949	0.001041	20.765952
440.121151	-2.982500	3.790500	-11.304000	23.328472	0.001044	20.773687
441.121697	-3.000400	3.789900	-11.370000	23.344410	0.001042	20.752675
442.124234	-2.999100	3.789400	-11.364000	23.310499	0.001042	20.767053
443.118294	-3.007600	3.787700	-11.391000	23.327506	0.001042	20.756123
444.120440	-3.001800	3.789200	-11.374000	23.330398	0.001040	20.764712
445.122774	-2.992500	3.789400	-11.339000	23.317423	0.001044	20.764983
446.126101	-2.994400	3.789500	-11.346000	23.298626	0.001044	20.755154
447.122766	-3.022400	3.787200	-11.446000	23.288449	0.001045	20.753489
448.122927	-3.007900	3.787100	-11.389000	23.324524	0.001043	20.740805
449.122213	-3.009500	3.786300	-11.395000	23.304086	0.001045	20.752091
450.122054	-3.014300	3.786000	-11.410000	23.359611	0.001046	20.753687
451.125196	-3.007900	3.786700	-11.387000	23.359891	0.001044	20.758709
452.121868	-3.035300	3.786200	-11.491000	23.386133	0.001047	20.744706
453.121959	-3.012200	3.786800	-11.406000	23.383324	0.001045	20.736200
454.123281	-2.995400	3.785500	-11.338000	23.404340	0.001046	20.771491
455.123114	-3.025200	3.785800	-11.451000	23.415196	0.001044	20.739697
456.122156	-3.006400	3.785400	-11.380000	23.409692	0.001047	20.769269
457.124840	-3.008400	3.784300	-11.383000	23.391119	0.001048	20.717460
458.121342	-2.991500	3.786100	-11.324000	23.387882	0.001047	20.760684
459.124269	-3.000800	3.785000	-11.357000	23.400255	0.001046	20.748430
460.131247	-3.011800	3.784400	-11.396000	23.404518	0.001046	20.738003
461.124912	-2.989500	3.784200	-11.313000	23.369983	0.001047	20.759815
462.125115	-3.012300	3.783000	-11.395000	23.389902	0.001048	20.748010
463.128296	-2.985600	3.785100	-11.300000	23.391177	0.001047	20.751659
464.125021	-2.976400	3.784100	-11.261000	23.409795	0.001046	20.751828
465.124765	-2.990900	3.783200	-11.314000	23.457849	0.001049	20.742621
466.125564	-3.016700	3.781400	-11.406000	23.444431	0.001048	20.750983
467.125887	-3.020200	3.781500	-11.419000	23.430634	0.001048	20.743792
468.127674	-2.981900	3.783200	-11.280000	23.446871	0.001049	20.747738
469.126714	-2.985500	3.782100	-11.289000	23.453419	0.001049	20.746715
470.129645	-3.011600	3.781000	-11.385000	23.490859	0.001049	20.753898
471.130293	-2.999800	3.781900	-11.344000	23.486729	0.001050	20.742171
472.128730	-2.999200	3.779700	-11.336000	23.463748	0.001051	20.749008
473.129100	-3.001500	3.779300	-11.342000	23.448738	0.001047	20.742497
474.129406	-2.993100	3.780000	-11.312000	23.458100	0.001050	20.747614
475.131713	-3.014700	3.778600	-11.391000	23.456011	0.001048	20.745520
476.129442	-3.001200	3.779300	-11.341000	23.479058	0.001048	20.744439
477.129208	-3.005400	3.778700	-11.355000	23.500974	0.001050	20.749812
478.133035	-2.996100	3.777900	-11.317000	23.497309	0.001049	20.745664
479.130751	-3.006100	3.779100	-11.360000	23.496786	0.001051	20.743243
480.134758	-3.015200	3.778800	-11.393000	23.481304	0.001053	20.736733
481.129078	-3.012100	3.777200	-11.377000	23.489518	0.001053	20.749235
482.131103	-2.981400	3.779100	-11.266000	23.483792	0.001051	20.749659
483.129828	-2.997000	3.776600	-11.318000	23.504059	0.001051	20.746740
484.132380	-2.995500	3.777500	-11.314000	23.513593	0.001052	20.748237
485.130905	-3.008300	3.777900	-11.364000	23.531839	0.001051	20.737603
486.131758	-2.983700	3.779200	-11.275000	23.558451	0.001053	20.749581
487.130713	-3.011100	3.775200	-11.367000	23.574035	0.001053	20.731063
488.133496	-2.999500	3.776100	-11.325000	23.586534	0.001051	20.732214
489.135573	-2.987600	3.776100	-11.281000	23.572838	0.001051	20.726070
490.131040	-3.014400	3.776800	-11.384000	23.572788	0.001052	20.746410
491.133440	-2.983400	3.774700	-11.260000	23.591062	0.001052	20.719209
492.129653	-2.991600	3.775900	-11.296000	23.601020	0.001054	20.747210
493.132452	-3.007800	3.774300	-11.351000	23.581002	0.001054	20.747531
494.132769	-3.007000	3.774400	-11.349000	23.579184	0.001054	20.737174
495.131224	-2.988900	3.774000	-11.279000	23.580307	0.001055	20.724548
496.131935	-3.024900	3.773500	-11.413000	23.587949	0.001052	20.709923
497.132625	-2.987200	3.775700	-11.277000	23.578612	0.001053	20.742291
498.132946	-2.998300	3.774000	-11.314000	23.567507	0.001054	20.715509
499.131433	-3.001700	3.773300	-11.326000	23.563176	0.001053	20.711168
500.135176	-2.984500	3.772900	-11.259000	23.538152	0.001054	20.726387
501.133112	-2.988100	3.771800	-11.270000	23.515402	0.001055	20.724919
502.135905	-2.998300	3.771500	-11.306000	23.512288	0.001058	20.727962
503.133687	-3.002800	3.770700	-11.322000	23.493737	0.001054	20.726436
504.133715	-2.988100	3.770800	-11.266000	23.500384	0.001057	20.745428
505.137650	-2.992300	3.770600	-11.281000	23.546892	0.001055	20.728984
506.133264	-3.010400	3.769600	-11.347000	23.537181	0.001054	20.736320
507.136048	-3.002500	3.770700	-11.321000	23.568424	0.001056	20.762898
508.135804	-2.991100	3.771400	-11.279000	23.572784	0.001056	20.743086
509.137722	-3.021700	3.769400	-11.389000	23.597774	0.001056	20.720247
510.137558	-2.972800	3.770800	-11.209000	23.607731	0.001057	20.729281
511.138237	-3.001300	3.768500	-11.309000	23.612190	0.001055	20.728061
512.136554	-2.987500	3.769700	-11.260000	23.631573	0.001054	20.725207
513.135893	-3.002200	3.769100	-11.315000	23.646613	0.001058	20.719422
514.134651	-3.013200	3.767700	-11.351000	23.657339	0.001054	20.729227
515.137333	-3.013300	3.768000	-11.351000	23.675459	0.001056	20.727953
516.138887	-2.998600	3.767300	-11.295000	23.645520	0.001055	20.729232
517.142313	-2.968700	3.769100	-11.188000	23.652634	0.001057	20.711707
518.138123	-3.000100	3.766300	-11.299000	23.652240	0.001058	20.722692
519.137642	-2.995700	3.767400	-11.285000	23.658088	0.001056	20.703423
520.138164	-2.998400	3.765900	-11.290000	23.666507	0.001055	20.709019
521.138395	-2.992900	3.766800	-11.273000	23.676109	0.001055	20.711534
522.139634	-3.005600	3.766500	-11.320000	23.692342	0.001056	20.724964
523.138906	-3.010000	3.764900	-11.332000	23.664586	0.001056	20.720370
524.139713	-2.999900	3.766700	-11.299000	23.671010	0.001056	20.733924
525.139221	-2.981500	3.765400	-11.225000	23.690051	0.001054	20.717925
526.142354	-3.002600	3.764500	-11.302000	23.702023	0.001058	20.702900
527.141980	-3.001500	3.765100	-11.299000	23.684528	0.001059	20.702430
528.141503	-3.000200	3.764100	-11.292000	23.686593	0.001054	20.696913
529.143643	-2.988800	3.763800	-11.247000	23.707303	0.001058	20.708669
530.142121	-3.027300	3.762400	-11.389000	23.715146	0.001055	20.710842
531.140378	-3.014300	3.762900	-11.341000	23.704441	0.001055	20.722395
532.145932	-2.989600	3.764100	-11.252000	23.741428	0.001057	20.708269
533.143718	-3.016800	3.762200	-11.349000	23.752877	0.001055	20.697461
534.145066	-2.998300	3.762700	-11.281000	23.774331	0.001056	20.730827
535.141850	-2.980400	3.761300	-11.208000	23.744763	0.001057	20.715880
536.143819	-2.990300	3.762000	-11.249000	23.730000	0.001060	20.702025
537.160094	-2.985500	3.761200	-11.228000	23.735856	0.001058	20.695095
538.147780	-3.001300	3.760500	-11.285000	23.740581	0.001057	20.707893
539.143599	-2.985300	3.760000	-11.224000	23.742999	0.001056	20.706525
540.144561	-3.000700	3.759500	-11.280000	23.699012	0.001058	20.712685
541.144197	-3.018500	3.758500	-11.344000	23.673227	0.001056	20.714808
542.143454	-3.003700	3.760100	-11.292000	23.672330	0.001058	20.704900
543.149465	-2.993400	3.758900	-11.250000	23.651623	0.001059	20.699313
544.144033	-2.966400	3.760000	-11.152000	23.655057	0.001056	20.706549
545.147440	-3.014700	3.758700	-11.330000	23.666059	0.001059	20.710941
546.145163	-2.989100	3.758200	-11.232000	23.662649	0.001059	20.715109
547.145661	-3.015900	3.756200	-11.326000	23.697475	0.001056	20.714462
548.148455	-3.021200	3.757100	-11.349000	23.710314	0.001057	20.719274
549.146433	-3.033200	3.756600	-11.394000	23.725181	0.001058	20.721377
550.146527	-3.004500	3.757000	-11.287000	23.730580	0.001057	20.711617
551.150160	-3.018700	3.756900	-11.340000	23.727940	0.001058	20.686208
552.144599	-3.003400	3.757300	-11.283000	23.726241	0.001057	20.708689
553.147840	-3.002100	3.756200	-11.276000	23.735305	0.001058	20.691697
554.146011	-2.985300	3.756400	-11.213000	23.745212	0.001059	20.689775
555.145163	-2.988900	3.757200	-11.229000	23.760497	0.001059	20.705576
556.145058	-3.000700	3.756100	-11.269000	23.774434	0.001061	20.693470
557.145549	-3.010600	3.755600	-11.306000	23.749168	0.001059	20.713184
558.144021	-2.998400	3.755300	-11.258000	23.734659	0.001059	20.699585
559.147893	-3.000200	3.753700	-11.260000	23.717284	0.001058	20.677421
560.145424	-3.000400	3.753700	-11.262000	23.722709	0.001057	20.688550
561.146318	-3.005500	3.753900	-11.281000	23.707407	0.001057	20.698814
562.146541	-2.993800	3.754600	-11.240000	23.697647	0.001058	20.680968
563.147571	-3.000900	3.754300	-11.266000	23.727039	0.001059	20.700953
564.149677	-3.003800	3.754300	-11.277000	23.725826	0.001059	20.682192
565.147956	-2.997300	3.753600	-11.250000	23.775758	0.001058	20.685788
566.151343	-2.973300	3.753900	-11.160000	23.769310	0.001058	20.677426
567.146962	-3.005900	3.752100	-11.278000	23.772094	0.001058	20.692546
568.146665	-2.988000	3.753300	-11.213000	23.747285	0.001058	20.701338
569.150413	-3.004600	3.750400	-11.265000	23.742280	0.001058	20.679248
570.148630	-2.994600	3.752500	-11.235000	23.733545	0.001060	20.667171
571.148437	-2.994800	3.750300	-11.230000	23.748128	0.001059	20.689854
572.149286	-2.987300	3.751200	-11.205000	23.746265	0.001059	20.670915
573.150337	-2.997800	3.750200	-11.241000	23.726048	0.001060	20.680518
574.151157	-2.994300	3.750200	-11.228000	23.731905	0.001058	20.694926
575.149137	-3.021000	3.749000	-11.324000	23.716471	0.001059	20.686089
576.147954	-2.990900	3.749800	-11.214000	23.719732	0.001058	20.689833
577.151044	-2.997600	3.749000	-11.237000	23.747782	0.001058	20.670540
578.148510	-3.008000	3.749200	-11.276000	23.753733	0.001059	20.678877
579.148301	-3.004200	3.749700	-11.263000	23.737304	0.001059	20.689433
580.153591	-2.993600	3.747900	-11.219000	23.727516	0.001060	20.681516
581.148705	-3.005000	3.749400	-11.265000	23.699593	0.001058	20.687660
582.146751	-3.001000	3.748400	-11.248000	23.688691	0.001057	20.675306
583.149882	-2.983200	3.749000	-11.183000	23.701583	0.001057	20.679698
584.149479	-3.017100	3.747200	-11.304000	23.733640	0.001058	20.674852
585.150167	-2.989800	3.747300	-11.203000	23.728984	0.001058	20.656432
586.155999	-3.006400	3.746100	-11.261000	23.744887	0.001057	20.668110
587.151730	-2.983900	3.746200	-11.178000	23.745187	0.001056	20.694018
588.150777	-2.981600	3.747800	-11.174000	23.762956	0.001056	20.680064
589.151619	-3.003200	3.746000	-11.249000	23.780779	0.001058	20.671854
590.150489	-2.997000	3.746000	-11.226000	23.775449	0.001058	20.663191
591.153821	-3.018400	3.744100	-11.299000	23.796281	0.001057	20.680287
592.151527	-2.990600	3.745200	-11.199000	23.795977	0.001056	20.692784
593.153225	-3.008900	3.745900	-11.270000	23.828187	0.001057	20.670077
594.151366	-2.980900	3.744800	-11.162000	23.834704	0.001057	20.683725
595.151543	-3.006800	3.742500	-11.252000	23.851699	0.001059	20.682748
596.152726	-2.990700	3.744200	-11.197000	23.880622	0.001056	20.685671
597.151148	-2.982900	3.743600	-11.165000	23.893611	0.001058	20.676410
598.151517	-3.008700	3.743100	-11.261000	23.891337	0.001058	20.687881
599.156339	-2.979900	3.742400	-11.151000	23.925292	0.001056	20.660287
600.155087	-2.994200	3.742600	-11.205000	23.940641	0.001059	20.676154
601.154247	-3.014400	3.741400	-11.277000	23.947059	0.001058	20.662200
602.157187	-3.003600	3.740900	-11.236000	23.932849	0.001060	20.663597
603.156315	-2.990400	3.742200	-11.190000	23.956939	0.001059	20.653614
604.156998	-2.996500	3.742500	-11.213000	23.969174	0.001058	20.680586
605.157028	-2.980000	3.741000	-11.146000	23.963948	0.001058	20.665861
606.163566	-3.003000	3.740900	-11.233000	23.979325	0.001058	20.684128
607.157886	-2.994100	3.741100	-11.200000	23.977557	0.001056	20.685200
608.156164	-3.015200	3.739200	-11.273000	23.933757	0.001058	20.677786
609.157958	-2.994900	3.739800	-11.199000	23.905534	0.001056	20.674140
610.156788	-2.998500	3.740300	-11.214000	23.894629	0.001058	20.672688
611.156460	-2.984900	3.740000	-11.162000	23.881118	0.001057	20.670994
612.155568	-2.998500	3.739500	-11.211000	23.867326	0.001058	20.691780
613.160861	-2.996300	3.738100	-11.200000	23.852569	0.001057	20.676033
614.158679	-2.996300	3.737700	-11.198000	23.830890	0.001057	20.650025
615.160350	-3.011000	3.737500	-11.253000	23.842033	0.001057	20.677797
616.159280	-2.963500	3.738100	-11.077000	23.862466	0.001057	20.675051
617.160141	-3.005300	3.737200	-11.231000	23.875529	0.001059	20.677244
618.169658	-3.002100	3.737400	-11.218000	23.898901	0.001055	20.694517
619.161372	-2.993300	3.738100	-11.188000	23.914899	0.001056	20.673574
620.165411	-2.986500	3.736900	-11.159000	23.933862	0.001056	20.667459
621.165177	-3.032200	3.735400	-11.325000	23.972861	0.001056	20.653934
622.162944	-3.004100	3.736700	-11.224000	23.934857	0.001055	20.687425
623.162335	-3.020400	3.734700	-11.279000	23.920076	0.001055	20.689672
624.161445	-3.001400	3.735600	-11.210000	23.934754	0.001057	20.660292
625.163608	-2.990900	3.734200	-11.167000	23.959391	0.001055	20.670774
626.168025	-2.992200	3.735000	-11.175000	23.922485	0.001054	20.677862
627.162279	-2.988400	3.735200	-11.162000	23.923702	0.001058	20.699947
628.169998	-2.996400	3.733400	-11.186000	23.929430	0.001056	20.678662
629.163217	-3.012200	3.732700	-11.243000	23.928854	0.001054	20.689466
630.168434	-3.013700	3.731700	-11.245000	23.916165	0.001055	20.672947
631.166139	-3.014300	3.733500	-11.253000	23.937710	0.001055	20.691709
632.168545	-2.977500	3.733100	-11.114000	23.967897	0.001057	20.688789
633.167671	-2.992900	3.731900	-11.169000	23.970837	0.001055	20.701222
634.168594	-2.991800	3.732200	-11.165000	23.968621	0.001056	20.685247
635.166955	-2.971900	3.733700	-11.095000	23.997060	0.001055	20.694801
636.167280	-2.984200	3.732300	-11.137000	24.010924	0.001055	20.682150
637.170601	-2.952400	3.732400	-11.018000	24.002836	0.001056	20.706759
638.166123	-2.986300	3.731300	-11.142000	23.979866	0.001056	20.686567
639.168910	-3.004400	3.729900	-11.205000	23.950822	0.001056	20.677355
640.168347	-2.992700	3.730200	-11.163000	23.916905	0.001053	20.681750
641.170588	-2.998900	3.731200	-11.189000	23.930342	0.001055	20.693803
642.168688	-2.987800	3.730700	-11.145000	23.904109	0.001053	20.704483
643.166873	-3.017200	3.729400	-11.251000	23.906818	0.001053	20.691077
644.171719	-3.013500	3.728300	-11.234000	23.926378	0.001055	20.677024
645.172556	-2.987000	3.728900	-11.137000	23.960964	0.001054	20.707443
646.169887	-2.997000	3.728500	-11.173000	23.942598	0.001053	20.680488
647.172448	-3.012100	3.728400	-11.228000	23.959526	0.001054	20.703155
648.170389	-3.012900	3.728600	-11.233000	23.971465	0.001052	20.686203
649.171021	-2.999400	3.728000	-11.180000	23.990004	0.001053	20.680611
650.172103	-2.996600	3.728200	-11.171000	23.989103	0.001053	20.670698
651.173879	-2.990200	3.726700	-11.143000	24.005528	0.001055	20.685275
652.174156	-2.992800	3.727200	-11.153000	24.022520	0.001052	20.681452
653.173503	-2.990200	3.727400	-11.145000	24.034064	0.001053	20.687340
654.175303	-2.988500	3.726300	-11.135000	24.038714	0.001052	20.694375
655.175004	-2.984200	3.726700	-11.120000	24.027322	0.001052	20.702865
656.174127	-3.000600	3.725800	-11.179000	24.014030	0.001052	20.684318
657.176949	-3.013700	3.725700	-11.227000	24.001264	0.001053	20.696172
658.176926	-2.988200	3.726200	-11.134000	24.015173	0.001050	20.692577
659.179858	-2.982300	3.725300	-11.110000	24.034430	0.001052	20.687707
660.178159	-3.019400	3.725100	-11.246000	24.039680	0.001052	20.696766
661.179484	-3.005100	3.724500	-11.190000	24.044482	0.001051	20.696840
662.177606	-3.021400	3.723400	-11.249000	24.040621	0.001052	20.687752
663.177405	-3.024600	3.722900	-11.260000	24.041410	0.001052	20.703717
664.182426	-3.016300	3.724100	-11.231000	24.050447	0.001052	20.690968
665.176787	-3.007800	3.722700	-11.196000	24.082148	0.001051	20.691467
666.179262	-3.005400	3.722900	-11.188000	24.093416	0.001050	20.708933
667.177501	-3.000500	3.722700	-11.168000	24.086448	0.001050	20.707160
668.182214	-3.002800	3.722400	-11.177000	24.109437	0.001051	20.709354
669.181073	-3.003600	3.723600	-11.182000	24.137601	0.001049	20.701565
670.182147	-2.996800	3.721100	-11.150000	24.134345	0.001052	20.698773
671.183394	-2.993700	3.721400	-11.140000	24.158874	0.001050	20.710574
672.183846	-3.004400	3.721200	-11.180000	24.180168	0.001050	20.708698
673.184637	-2.994500	3.722200	-11.145000	24.173574	0.001048	20.709671
674.181680	-3.025500	3.719700	-11.251000	24.175288	0.001047	20.717080
675.182044	-2.997200	3.722000	-11.154000	24.166154	0.001051	20.694641
676.181664	-2.999400	3.720700	-11.158000	24.126669	0.001048	20.700084
677.185614	-3.007800	3.719700	-11.188000	24.104745	0.001048	20.717926
678.182889	-3.006600	3.719900	-11.183000	24.074064	0.001051	20.712759
679.183080	-2.994500	3.721000	-11.142000	24.071548	0.001047	20.702648
680.183313	-3.014700	3.719100	-11.211000	24.086303	0.001048	20.706067
681.181281	-2.988900	3.718100	-11.112000	24.097616	0.001049	20.717414
682.185753	-2.995200	3.720200	-11.142000	24.079059	0.001048	20.715398
683.181760	-2.994600	3.718800	-11.136000	24.089185	0.001047	20.718915
684.183127	-2.989000	3.719200	-11.115000	24.104309	0.001046	20.696149
685.182871	-3.001100	3.717400	-11.155000	24.124214	0.001048	20.710425
686.182314	-2.997700	3.718400	-11.146000	24.132276	0.001047	20.725149
687.193495	-2.998600	3.718500	-11.149000	24.114533	0.001047	20.711620
688.188003	-2.994400	3.717800	-11.131000	24.108781	0.001046	20.729086
689.184303	-3.019300	3.715600	-11.217000	24.102089	0.001047	20.716209
690.187553	-2.998200	3.716300	-11.142000	24.120851	0.001046	20.709897
691.186022	-3.010000	3.717200	-11.188000	24.109801	0.001046	20.720151
692.186367	-2.989900	3.716300	-11.110000	24.094874	0.001047	20.706602
693.189830	-2.987100	3.715500	-11.098000	24.082479	0.001049	20.723569
694.185839	-2.997600	3.715500	-11.135000	24.081184	0.001044	20.716580
695.189918	-2.987200	3.715900	-11.098000	24.056274	0.001046	20.730480
696.187346	-3.000700	3.715500	-11.148000	24.070881	0.001046	20.731379
697.188200	-2.991200	3.714300	-11.108000	24.056398	0.001048	20.694565
698.189031	-3.012200	3.715100	-11.188000	24.085208	0.001047	20.723936
699.188385	-3.014300	3.714200	-11.193000	24.107383	0.001045	20.726262
700.189628	-3.036500	3.714200	-11.277000	24.113776	0.001045	20.708016
701.190657	-3.020600	3.712800	-11.214000	24.095786	0.001046	20.703723
702.191418	-3.001100	3.713400	-11.143000	24.050045	0.001045	20.740355
703.189183	-2.991600	3.712700	-11.106000	24.030262	0.001044	20.720039
704.189350	-3.006600	3.712900	-11.163000	24.057187	0.001044	20.729024
705.192549	-2.991000	3.713400	-11.104000	24.067740	0.001044	20.729177
706.188213	-2.988500	3.713300	-11.096000	24.111005	0.001045	20.726575
707.190018	-3.002700	3.712400	-11.146000	24.112123	0.001044	20.716316
708.188695	-3.016300	3.711100	-11.193000	24.115580	0.001043	20.723577
709.192374	-2.981400	3.711400	-11.065000	24.123173	0.001043	20.718390
710.190582	-2.984600	3.711900	-11.077000	24.136829	0.001042	20.734933
711.191354	-2.986000	3.711400	-11.080000	24.159073	0.001044	20.724999
712.189730	-3.021000	3.709200	-11.203000	24.195691	0.001044	20.749401
713.190411	-2.986700	3.709400	-11.078000	24.204772	0.001043	20.731007
714.192521	-3.000400	3.709300	-11.127000	24.202462	0.001041	20.726793
715.191122	-3.003700	3.708700	-11.139000	24.241048	0.001042	20.736099
716.191123	-3.011700	3.708900	-11.168000	24.231096	0.001042	20.741290
717.189960	-2.983500	3.709400	-11.067000	24.268883	0.001043	20.732726
718.190083	-2.994600	3.708900	-11.106000	24.256598	0.001043	20.755017
719.190409	-2.984000	3.708600	-11.066000	24.247784	0.001039	20.741434
720.191480	-3.014100	3.707500	-11.174000	24.228572	0.001040	20.729275
721.189303	-3.018800	3.707200	-11.190000	24.193866	0.001040	20.753260
722.191657	-3.001600	3.708600	-11.130000	24.170126	0.001040	20.739880
723.189750	-3.003000	3.707000	-11.130000	24.180231	0.001039	20.738635
724.192290	-2.984300	3.708400	-11.065000	24.209141	0.001039	20.750089
725.192372	-2.987800	3.707300	-11.075000	24.204911	0.001040	20.727353
726.190716	-2.992100	3.705200	-11.084000	24.207320	0.001039	20.752056
727.192084	-2.978300	3.706200	-11.037000	24.182635	0.001039	20.746262
728.192286	-2.959700	3.705900	-10.967000	24.186023	0.001038	20.767678
729.193443	-3.020400	3.705100	-11.190000	24.221847	0.001041	20.754299
730.194775	-2.993000	3.706100	-11.091000	24.207069	0.001038	20.743743
731.193114	-3.008200	3.705500	-11.146000	24.215775	0.001038	20.744415
732.195765	-3.000800	3.704200	-11.114000	24.189997	0.001039	20.744163
733.193362	-3.009600	3.703700	-11.146000	24.168572	0.001036	20.761555
734.195901	-3.016500	3.702500	-11.167000	24.140528	0.001037	20.741961
735.196224	-3.009300	3.703200	-11.143000	24.169070	0.001040	20.751622
736.197666	-3.012200	3.703100	-11.153000	24.185512	0.001037	20.740139
737.194636	-3.010600	3.702500	-11.146000	24.191013	0.001037	20.751820
738.195620	-2.991700	3.702900	-11.078000	24.229899	0.001036	20.733451
739.196851	-3.005100	3.702800	-11.126000	24.202732	0.001036	20.750299
740.197341	-2.999900	3.702500	-11.106000	24.202609	0.001036	20.733579
741.197673	-2.999100	3.702000	-11.101000	24.200196	0.001036	20.745384
742.198208	-2.997000	3.702000	-11.094000	24.217481	0.001037	20.737117
743.198381	-3.014900	3.700900	-11.156000	24.194351	0.001035	20.735727
744.198174	-3.008500	3.702100	-11.137000	24.180789	0.001036	20.753420
745.197341	-2.987800	3.702300	-11.061000	24.162698	0.001037	20.742860
746.201173	-2.998200	3.700000	-11.093000	24.168046	0.001034	20.760079
747.197289	-3.003300	3.701500	-11.116000	24.190042	0.001035	20.730932
748.199805	-2.996600	3.700000	-11.085000	24.215393	0.001033	20.753515
749.198726	-3.006800	3.698700	-11.121000	24.190092	0.001035	20.754690
750.198377	-3.005400	3.698300	-11.114000	24.202929	0.001033	20.759032
751.202905	-2.996600	3.698200	-11.081000	24.226886	0.001034	20.745602
752.202929	-2.993100	3.699400	-11.071000	24.236813	0.001036	20.769785
753.203791	-3.015400	3.699100	-11.152000	24.296052	0.001034	20.730581
754.200340	-3.024800	3.698500	-11.186000	24.281571	0.001033	20.745928
755.199592	-2.997500	3.697700	-11.084000	24.303787	0.001034	20.768688
756.202958	-2.993300	3.698000	-11.068000	24.308111	0.001033	20.768284
757.200930	-2.980100	3.698700	-11.021000	24.273437	0.001033	20.766218
758.203454	-3.012900	3.697000	-11.137000	24.263707	0.001034	20.741759
759.201416	-2.988900	3.698200	-11.053000	24.269799	0.001032	20.779165
760.201009	-2.985700	3.698900	-11.043000	24.275895	0.001031	20.772477
761.204596	-2.990900	3.697200	-11.057000	24.314803	0.001033	20.765039
762.202411	-3.003500	3.696000	-11.099000	24.307832	0.001033	20.769426
763.202219	-2.991400	3.696300	-11.057000	24.284152	0.001032	20.760371
764.204505	-2.992800	3.695700	-11.060000	24.285221	0.001030	20.779936
765.201068	-2.992100	3.696700	-11.060000	24.286466	0.001033	20.763167
766.202881	-2.992300	3.696200	-11.059000	24.304252	0.001029	20.764886
767.203777	-3.011400	3.696200	-11.130000	24.291489	0.001032	20.766309
768.201461	-2.993800	3.696000	-11.064000	24.289500	0.001030	20.770952
769.204180	-2.983200	3.693600	-11.018000	24.300519	0.001031	20.784851
770.203790	-2.993300	3.695900	-11.060000	24.309303	0.001030	20.747194
771.207990	-2.984400	3.694400	-11.024000	24.289343	0.001028	20.776959
772.206434	-2.992500	3.694000	-11.052000	24.306208	0.001031	20.768745
773.204813	-3.003300	3.694400	-11.094000	24.301111	0.001028	20.779280
774.206196	-3.014900	3.692500	-11.132000	24.284740	0.001029	20.777557
775.206145	-3.003400	3.692800	-11.090000	24.300486	0.001029	20.768222
776.205608	-2.987800	3.692900	-11.033000	24.306681	0.001029	20.783444
777.204832	-3.002300	3.691800	-11.083000	24.339167	0.001028	20.775256
778.204647	-2.999300	3.691500	-11.071000	24.332176	0.001030	20.785312
779.209140	-3.023300	3.690500	-11.157000	24.371756	0.001029	20.769067
780.205411	-3.000100	3.691700	-11.074000	24.380362	0.001029	20.790503
781.202393	-3.002000	3.690400	-11.078000	24.424170	0.001027	20.769492
782.205510	-3.011600	3.689400	-11.109000	24.445582	0.001025	20.783386
783.206371	-3.003900	3.690500	-11.084000	24.456575	0.001027	20.774501
784.205245	-2.998500	3.690300	-11.065000	24.421478	0.001027	20.790025
785.205058	-2.997200	3.689100	-11.055000	24.442195	0.001026	20.764816
786.205026	-2.991200	3.690200	-11.037000	24.433412	0.001027	20.794886
787.205428	-2.986000	3.690700	-11.019000	24.404261	0.001025	20.775598
788.207994	-3.005800	3.688600	-11.087000	24.398881	0.001025	20.783951
789.210859	-2.998200	3.689600	-11.060000	24.400176	0.001024	20.775292
790.207313	-2.979000	3.690900	-10.994000	24.403287	0.001026	20.780310
791.206545	-3.006300	3.687400	-11.085000	24.432640	0.001025	20.784627
792.206550	-2.984400	3.688400	-11.005000	24.432118	0.001024	20.798328
793.206818	-2.973200	3.689000	-10.967000	24.484553	0.001025	20.801149
794.209744	-2.984600	3.688800	-11.008000	24.475993	0.001022	20.784974
795.208028	-2.980700	3.687200	-10.989000	24.485544	0.001026	20.785073
796.206907	-2.983900	3.688400	-11.005000	24.477711	0.001023	20.798551
797.207693	-2.980400	3.688400	-10.992000	24.467560	0.001023	20.800221
798.209378	-3.005900	3.685300	-11.077000	24.451614	0.001024	20.792758
799.211762	-3.003900	3.686100	-11.072000	24.462156	0.001022	20.803333
800.207597	-2.989600	3.686200	-11.019000	24.448331	0.001022	20.787093
801.208593	-2.974000	3.686600	-10.962000	24.448729	0.001023	20.802666
802.208780	-2.995200	3.685800	-11.039000	24.415198	0.001020	20.780879
803.210151	-3.008700	3.685200	-11.087000	24.446169	0.001021	20.822382
804.211041	-3.001900	3.685100	-11.062000	24.475294	0.001023	20.798971
805.212374	-3.010200	3.684400	-11.090000	24.492185	0.001021	20.809753
806.211740	-2.988200	3.684700	-11.009000	24.492411	0.001021	20.813773
807.210964	-3.002800	3.684800	-11.064000	24.506383	0.001019	20.795075
808.211410	-3.014300	3.684100	-11.104000	24.484500	0.001022	20.812474
809.211452	-2.990300	3.685800	-11.020000	24.481138	0.001019	20.785394
810.213054	-3.011600	3.683200	-11.091000	24.446042	0.001021	20.797598
811.211430	-3.014700	3.683000	-11.101000	24.423253	0.001020	20.807927
812.212947	-2.981400	3.684100	-10.983000	24.414577	0.001019	20.786421
813.213833	-3.012800	3.683600	-11.097000	24.427165	0.001018	20.805688
814.212009	-2.995900	3.683200	-11.034000	24.428752	0.001017	20.789736
815.216972	-3.011800	3.682000	-11.088000	24.442363	0.001018	20.805288
816.214402	-3.006300	3.682700	-11.071000	24.443703	0.001018	20.813744
817.217329	-2.973300	3.681100	-10.944000	24.461071	0.001018	20.814573
818.215073	-2.989500	3.681100	-11.003000	24.461145	0.001018	20.817966
819.215206	-3.015200	3.679800	-11.094000	24.457763	0.001018	20.807935
820.221328	-2.986100	3.682100	-10.995000	24.476268	0.001018	20.823182
821.219075	-2.982500	3.682100	-10.980000	24.474304	0.001017	20.811254
822.217153	-2.994100	3.681300	-11.021000	24.520368	0.001014	20.820960
823.216860	-3.006100	3.678600	-11.057000	24.541634	0.001015	20.818589
824.217557	-3.024500	3.679400	-11.127000	24.534697	0.001014	20.813052
825.217645	-2.975500	3.680000	-10.947000	24.536066	0.001014	20.802571
826.219241	-3.000900	3.679500	-11.042000	24.494129	0.001016	20.821186
827.218148	-3.004000	3.678900	-11.051000	24.487985	0.001016	20.818342
828.217341	-2.992100	3.678400	-11.005000	24.502183	0.001016	20.814569
829.217241	-2.991000	3.679400	-11.004000	24.484824	0.001014	20.823231
830.221890	-2.999100	3.678700	-11.031000	24.501468	0.001016	20.828550
831.219968	-2.974800	3.679800	-10.946000	24.495817	0.001012	20.816243
832.221889	-2.999000	3.679300	-11.033000	24.498205	0.001014	20.819112
833.218463	-3.008100	3.675500	-11.055000	24.508130	0.001013	20.821483
834.217479	-3.006400	3.677600	-11.055000	24.496911	0.001013	20.808331
835.218706	-2.984000	3.678000	-10.974000	24.521485	0.001012	20.834883
836.218111	-2.990400	3.676600	-10.994000	24.494420	0.001013	20.827169
837.217909	-2.999300	3.677400	-11.029000	24.480246	0.001011	20.816268
838.219143	-2.990600	3.676800	-10.994000	24.462830	0.001014	20.828191
839.218883	-2.999300	3.675200	-11.022000	24.448750	0.001013	20.833031
840.220068	-2.984600	3.676100	-10.970000	24.488621	0.001010	20.827989
841.219898	-3.000800	3.675000	-11.027000	24.514162	0.001015	20.817578
842.220410	-2.985900	3.674600	-10.970000	24.528718	0.001011	20.826967
843.220303	-2.982700	3.675200	-10.961000	24.533739	0.001012	20.834850
844.221826	-2.982800	3.675000	-10.961000	24.563688	0.001011	20.824122
845.222139	-2.982000	3.675900	-10.961000	24.577763	0.001009	20.806475
846.221425	-2.984300	3.674600	-10.965000	24.550506	0.001013	20.835076
847.223821	-2.994700	3.672500	-10.997000	24.592408	0.001010	20.841083
848.222043	-3.002400	3.673200	-11.028000	24.584699	0.001011	20.837142
849.224190	-3.003400	3.673100	-11.031000	24.599171	0.001011	20.837439
850.221563	-2.993700	3.673100	-10.995000	24.614790	0.001009	20.843627
851.224247	-2.978300	3.673200	-10.939000	24.616232	0.001008	20.846023
852.223487	-3.015200	3.671000	-11.067000	24.608893	0.001009	20.830599
853.227892	-3.016600	3.671400	-11.074000	24.654302	0.001008	20.858144
854.224386	-2.987900	3.672900	-10.973000	24.628432	0.001006	20.845462
855.224792	-3.010200	3.671200	-11.050000	24.641864	0.001008	20.836655
856.222917	-3.002800	3.670400	-11.019000	24.630967	0.001008	20.836152
857.224233	-2.994300	3.672000	-10.994000	24.653205	0.001007	20.843293
858.226843	-3.017100	3.670300	-11.072000	24.653300	0.001009	20.843388
859.223300	-2.976300	3.671000	-10.925000	24.639321	0.001007	20.849275
860.225421	-2.967600	3.671400	-10.894000	24.644046	0.001006	20.842163
861.225314	-2.992500	3.669100	-10.978000	24.604772	0.001007	20.827411
862.225572	-2.984000	3.671100	-10.953000	24.553263	0.001007	20.831204
863.226625	-2.992100	3.669200	-10.978000	24.543712	0.001006	20.844381
864.227859	-2.996600	3.669400	-10.995000	24.541621	0.001004	20.845602
865.225987	-2.998400	3.669200	-11.001000	24.546022	0.001004	20.844802
866.228738	-3.023500	3.668000	-11.090000	24.592954	0.001004	20.836416
867.226226	-3.004400	3.668100	-11.019000	24.575716	0.001002	20.833818
868.226634	-2.982400	3.668400	-10.940000	24.589888	0.001003	20.837607
869.229459	-2.990400	3.669800	-10.973000	24.622519	0.001002	20.845692
870.231991	-3.021000	3.667000	-11.077000	24.625502	0.001004	20.842996
871.227991	-2.990000	3.667300	-10.963000	24.621742	0.001002	20.833534
872.234478	-2.997500	3.666900	-10.990000	24.673174	0.001000	20.834408
873.229239	-2.989500	3.666500	-10.960000	24.678840	0.001001	20.836774
874.226969	-2.997600	3.666000	-10.988000	24.686524	0.001002	20.843062
875.229933	-2.989400	3.666100	-10.959000	24.693336	0.001003	20.845630
876.230070	-3.015500	3.665600	-11.052000	24.676375	0.001001	20.836197
877.227912	-2.996500	3.667100	-10.986000	24.703579	0.001002	20.837418
878.230458	-2.997800	3.665400	-10.986000	24.696935	0.001001	20.832173
879.233037	-2.995900	3.665700	-10.981000	24.685694	0.001000	20.830375
880.229407	-2.982100	3.666700	-10.934000	24.738092	0.001000	20.845973
881.232513	-3.012000	3.664600	-11.037000	24.716226	0.001002	20.812651
882.232205	-3.024900	3.664100	-11.082000	24.676835	0.001000	20.822435
883.230177	-2.995700	3.664700	-10.976000	24.662187	0.000999	20.790192
884.234380	-2.989200	3.665200	-10.955000	24.637262	0.001000	20.813545
885.233310	-3.004700	3.663200	-11.006000	24.640993	0.000998	20.820608
886.228399	-2.991500	3.664000	-10.960000	24.647908	0.000997	20.842245
887.231241	-3.015200	3.663400	-11.044000	24.659520	0.000999	20.824026
888.233891	-2.989800	3.664200	-10.954000	24.660297	0.000998	20.822909
889.231218	-3.000900	3.662400	-10.988000	24.668572	0.000998	20.833109
890.234317	-3.013000	3.661100	-11.030000	24.645644	0.000996	20.811525
891.231403	-3.007400	3.661400	-11.010000	24.670039	0.000999	20.798546
892.233866	-3.013000	3.661000	-11.029000	24.657955	0.000996	20.807283
893.235161	-3.004000	3.661100	-10.997000	24.699742	0.000998	20.813653
894.234090	-2.995200	3.661600	-10.967000	24.714410	0.000996	20.810828
895.235161	-3.012100	3.660600	-11.025000	24.703041	0.000998	20.816015
896.234770	-2.999200	3.660500	-10.977000	24.715080	0.000994	20.808181
897.234242	-3.030800	3.659400	-11.089000	24.697646	0.000997	20.816291
898.235359	-2.996800	3.660100	-10.968000	24.718391	0.000994	20.813875
899.235346	-3.017000	3.659100	-11.038000	24.764145	0.000993	20.824228
900.235958	-2.995300	3.659900	-10.961000	24.769642	0.000993	20.799873
901.235451	-2.993100	3.660600	-10.955000	24.761663	0.000993	20.829324
902.237209	-2.969100	3.659600	-10.864000	24.740968	0.000994	20.807134
903.235337	-2.997600	3.658500	-10.964000	24.718564	0.000994	20.805514
904.236127	-3.004600	3.658400	-10.991000	24.752357	0.000991	20.807658
905.236622	-2.995700	3.658900	-10.960000	24.738803	0.000992	20.804487
906.239544	-2.997900	3.656800	-10.962000	24.722319	0.000991	20.807860
907.238125	-3.006700	3.657500	-10.995000	24.727664	0.000990	20.808482
908.236911	-2.997200	3.658500	-10.964000	24.717422	0.000990	20.809109
909.237973	-3.005400	3.656200	-10.986000	24.722142	0.000991	20.809579
910.238987	-3.008400	3.657500	-11.002000	24.701903	0.000990	20.791166
911.238169	-2.985300	3.656700	-10.916000	24.665067	0.000989	20.799247
912.239290	-2.995600	3.656700	-10.952000	24.654774	0.000989	20.814523
913.240967	-3.016500	3.654800	-11.025000	24.599138	0.000988	20.790939
914.239909	-2.997900	3.655400	-10.957000	24.610105	0.000989	20.794831
915.238169	-2.995700	3.655500	-10.950000	24.592847	0.000988	20.803592
916.239686	-2.997600	3.656800	-10.961000	24.551084	0.000987	20.772595
917.238665	-2.992300	3.654200	-10.932000	24.561353	0.000989	20.777209
918.239493	-3.014700	3.654700	-11.017000	24.543371	0.000986	20.776236
919.240074	-2.988300	3.655700	-10.922000	24.571150	0.000987	20.797470
920.238441	-3.008400	3.654400	-10.994000	24.575156	0.000987	20.787739
921.241230	-3.018900	3.653400	-11.029000	24.572424	0.000986	20.785946
922.240529	-3.012600	3.653700	-11.006000	24.609127	0.000986	20.806178
923.239729	-3.013900	3.653900	-11.011000	24.624150	0.000986	20.788061
924.250337	-3.034600	3.651000	-11.077000	24.653127	0.000983	20.774937
925.240074	-3.009900	3.650700	-10.987000	24.699306	0.000985	20.779551
926.242095	-3.005600	3.653000	-10.979000	24.729669	0.000985	20.801960
927.243224	-2.990300	3.653300	-10.923000	24.765258	0.000983	20.782672
928.241314	-3.022100	3.652600	-11.036000	24.765952	0.000984	20.774360
929.242742	-2.996600	3.652800	-10.945000	24.768882	0.000984	20.786783
930.243671	-2.994200	3.651500	-10.932000	24.782859	0.000982	20.784688
931.243257	-2.985400	3.652100	-10.901000	24.805061	0.000984	20.782787
932.244246	-3.005200	3.650900	-10.970000	24.818113	0.000983	20.788774
933.248178	-3.004000	3.651800	-10.969000	24.807846	0.000983	20.770410
934.244637	-2.998900	3.650300	-10.946000	24.812172	0.000981	20.784709
935.243643	-2.998700	3.650700	-10.946000	24.794042	0.000981	20.793066
936.248978	-2.986400	3.650000	-10.899000	24.770570	0.000981	20.793219
937.246747	-2.994200	3.650900	-10.931000	24.796355	0.000981	20.779266
938.247342	-3.000500	3.650200	-10.951000	24.785858	0.000982	20.771102
939.252019	-3.020100	3.648900	-11.019000	24.780262	0.000981	20.783505
940.246407	-3.020600	3.647900	-11.017000	24.817213	0.000980	20.792139
941.249110	-2.996700	3.648600	-10.933000	24.790336	0.000979	20.790296
942.249383	-2.993500	3.648900	-10.922000	24.797941	0.000979	20.778013
943.246605	-3.000600	3.648100	-10.945000	24.825171	0.000979	20.787323
944.250120	-2.990200	3.648400	-10.908000	24.813208	0.000979	20.783851
945.251307	-2.991500	3.647000	-10.909000	24.794137	0.000978	20.789368
946.248182	-2.998700	3.647600	-10.937000	24.753824	0.000979	20.765981
947.247550	-2.990400	3.647600	-10.905000	24.709960	0.000979	20.791190
948.248630	-3.002800	3.645300	-10.944000	24.711747	0.000978	20.781604
949.248671	-3.013400	3.645500	-10.984000	24.751733	0.000977	20.777633
950.248158	-3.001900	3.645600	-10.942000	24.752604	0.000978	20.788939
951.254457	-2.998900	3.645900	-10.933000	24.760188	0.000977	20.794179
952.252186	-2.994800	3.647000	-10.920000	24.768520	0.000977	20.781678
953.248434	-2.982700	3.646200	-10.873000	24.727389	0.000977	20.771222
954.250263	-3.021600	3.644600	-11.012000	24.759814	0.000978	20.786218
955.252089	-3.052400	3.641800	-11.114000	24.797140	0.000977	20.769622
956.250628	-2.999000	3.643700	-10.926000	24.786495	0.000976	20.796872
957.255294	-2.984500	3.645300	-10.878000	24.829764	0.000975	20.775337
958.254425	-2.993100	3.644900	-10.909000	24.818622	0.000975	20.776009
959.249804	-2.981600	3.644100	-10.865000	24.783257	0.000974	20.779398
960.252034	-2.981300	3.643700	-10.862000	24.755057	0.000973	20.777650
961.251380	-2.996900	3.642700	-10.916000	24.698312	0.000974	20.764802
962.252213	-2.975900	3.644200	-10.843000	24.686076	0.000973	20.778602
963.258132	-2.966800	3.645500	-10.814000	24.637402	0.000972	20.778598
964.254705	-2.997400	3.642500	-10.916000	24.601686	0.000972	20.766942
965.252259	-2.992800	3.642100	-10.898000	24.617358	0.000970	20.767020
966.256808	-2.981800	3.642100	-10.859000	24.585171	0.000971	20.775976
967.253559	-3.011200	3.642100	-10.966000	24.561148	0.000973	20.766097
968.251039	-3.026000	3.641700	-11.019000	24.567115	0.000969	20.786783
969.255081	-3.016600	3.641400	-10.981000	24.570201	0.000971	20.753369
970.255786	-3.008300	3.640600	-10.950000	24.594051	0.000969	20.781567
971.252227	-3.015400	3.640100	-10.975000	24.593455	0.000971	20.773857
972.255415	-3.007200	3.640500	-10.946000	24.617801	0.000971	20.761776
973.256577	-2.995300	3.642100	-10.908000	24.627774	0.000971	20.775576
974.257661	-2.991000	3.640400	-10.887000	24.662894	0.000969	20.769564
975.263420	-2.992000	3.639500	-10.889000	24.725487	0.000971	20.783538
976.256437	-2.990700	3.639400	-10.882000	24.772908	0.000969	20.764270
977.255518	-2.970300	3.640100	-10.810000	24.783648	0.000968	20.739486
978.262698	-3.000900	3.638800	-10.918000	24.798619	0.000969	20.733173
979.259573	-2.965600	3.639600	-10.792000	24.828310	0.000967	20.780041
980.257024	-3.018300	3.637600	-10.977000	24.797473	0.000967	20.763318
981.259968	-2.992500	3.637800	-10.885000	24.805086	0.000966	20.764320
982.259904	-2.987700	3.637600	-10.867000	24.764227	0.000966	20.764567
983.256793	-2.996600	3.636400	-10.896000	24.776335	0.000965	20.779563
984.257116	-3.013800	3.636500	-10.959000	24.800205	0.000964	20.779336
985.258552	-2.983100	3.638200	-10.852000	24.809601	0.000964	20.756997
986.257425	-3.015700	3.635600	-10.963000	24.826638	0.000965	20.757026
987.258359	-3.008100	3.635900	-10.936000	24.858140	0.000962	20.748338
988.259548	-2.994000	3.635600	-10.884000	24.835265	0.000966	20.751460
989.259452	-3.010800	3.634100	-10.940000	24.862667	0.000965	20.747192
990.258924	-3.009300	3.635800	-10.940000	24.879502	0.000963	20.758399
991.260311	-2.984300	3.635800	-10.849000	24.907449	0.000963	20.746619
992.261230	-2.987600	3.634100	-10.855000	24.910456	0.000963	20.761491
993.260038	-3.004500	3.634100	-10.918000	24.938103	0.000964	20.756997
994.261759	-2.995000	3.633400	-10.881000	24.926021	0.000962	20.742974
995.258934	-3.015700	3.634600	-10.960000	24.902869	0.000962	20.740125
996.260107	-3.016300	3.634000	-10.960000	24.904709	0.000963	20.727747
997.260938	-3.002800	3.633800	-10.910000	24.873952	0.000961	20.748561
998.260285	-3.022400	3.632200	-10.977000	24.887501	0.000961	20.758840
999.263322	-2.988400	3.633900	-10.859000	24.879987	0.000960	20.748928
1000.264335	-2.988500	3.633500	-10.858000	24.863953	0.000957	20.747060
1001.262234	-3.016000	3.632000	-10.953000	24.887000	0.000959	20.737948
1002.260777	-2.984300	3.633500	-10.841000	24.880184	0.000958	20.755290
1003.261946	-3.015600	3.631500	-10.950000	24.893063	0.000957	20.744034
1004.268505	-3.012000	3.632900	-10.941000	24.832718	0.000959	20.743687
1005.262733	-3.004700	3.630800	-10.908000	24.845442	0.000957	20.756931
1006.262802	-3.030000	3.629300	-10.996000	24.860560	0.000958	20.750293
1007.263508	-2.997200	3.630800	-10.881000	24.866155	0.000958	20.756857
1008.263522	-3.001300	3.630000	-10.894000	24.885845	0.000957	20.732996
1009.267213	-2.992100	3.629900	-10.860000	24.901431	0.000956	20.746743
1010.265851	-2.998300	3.628500	-10.879000	24.930101	0.000954	20.738534
1011.264771	-3.011800	3.628800	-10.927000	24.897681	0.000955	20.745823
1012.264756	-3.006000	3.629600	-10.909000	24.875546	0.000954	20.720762
1013.264883	-3.003400	3.627800	-10.895000	24.840241	0.000955	20.737960
1014.265728	-3.014200	3.627500	-10.933000	24.860527	0.000953	20.755950
1015.265623	-2.981800	3.628700	-10.819000	24.847299	0.000954	20.731293
1016.265600	-3.000500	3.627600	-10.884000	24.883676	0.000953	20.740777
1017.266222	-2.999800	3.627200	-10.879000	24.862244	0.000951	20.711678
1018.266616	-3.011100	3.627300	-10.921000	24.836334	0.000952	20.734988
1019.267498	-3.002800	3.627300	-10.891000	24.867338	0.000951	20.739552
1020.270147	-3.022800	3.626300	-10.960000	24.871816	0.000949	20.759694
1021.266154	-3.012100	3.626900	-10.923000	24.839789	0.000950	20.751732
1022.267821	-3.005100	3.625000	-10.892000	24.832032	0.000949	20.726403
1023.268756	-3.021600	3.624800	-10.951000	24.791623	0.000949	20.722832
1024.268986	-2.987200	3.624900	-10.827000	24.790452	0.000950	20.739202
1025.269225	-3.000700	3.624600	-10.873000	24.747707	0.000949	20.730918
1026.267066	-2.992800	3.625600	-10.850000	24.753327	0.000947	20.731343
1027.270776	-3.027800	3.624100	-10.971000	24.732887	0.000948	20.744022
1028.268648	-2.979500	3.626200	-10.803000	24.743011	0.000947	20.721937
1029.269436	-3.007400	3.623700	-10.897000	24.790185	0.000946	20.742253
1030.271972	-2.992200	3.623900	-10.842000	24.821166	0.000946	20.740154
1031.271980	-3.003500	3.623600	-10.883000	24.868760	0.000946	20.733392
1032.271190	-2.995200	3.624100	-10.854000	24.855581	0.000943	20.726803
1033.272826	-3.009600	3.623000	-10.903000	24.867269	0.000944	20.737585
1034.271969	-2.988200	3.622700	-10.825000	24.857520	0.000942	20.740129
1035.275430	-2.982700	3.622900	-10.805000	24.885796	0.000947	20.714927
1036.271969	-3.002500	3.622200	-10.874000	24.904143	0.000944	20.742352
1037.272779	-2.986600	3.621800	-10.814000	24.863662	0.000945	20.737758
1038.272516	-2.993600	3.622300	-10.843000	24.896662	0.000945	20.730576
1039.270425	-2.997100	3.620400	-10.850000	24.924087	0.000944	20.719694
1040.271316	-2.999500	3.619400	-10.855000	24.909738	0.000942	20.716672
1041.273234	-2.997800	3.619600	-10.850000	24.913837	0.000944	20.708932
1042.275177	-2.983500	3.621400	-10.803000	24.932565	0.000943	20.720143
1043.273999	-3.007600	3.620800	-10.888000	24.950315	0.000940	20.722787
1044.273601	-2.987200	3.619700	-10.811000	24.986562	0.000941	20.718865
1045.272707	-3.024500	3.618700	-10.942000	24.951133	0.000940	20.732617
1046.273400	-3.004000	3.620700	-10.875000	24.937483	0.000940	20.713225
1047.273100	-3.008100	3.619100	-10.886000	24.904418	0.000940	20.721764
1048.273798	-2.986700	3.619200	-10.808000	24.931818	0.000941	20.723187
1049.275319	-2.994800	3.619400	-10.838000	24.924678	0.000938	20.718391
1050.275662	-2.988600	3.618800	-10.814000	24.945612	0.000939	20.734662
1051.275144	-2.997900	3.618200	-10.846000	24.909565	0.000937	20.710334
1052.275963	-2.976200	3.618700	-10.769000	24.933658	0.000938	20.739733
1053.277929	-2.999500	3.617400	-10.850000	24.947756	0.000938	20.724960
1054.280482	-2.991000	3.616300	-10.816000	24.980898	0.000937	20.722189
1055.275428	-3.004200	3.615600	-10.860000	24.979780	0.000934	20.701625
1056.278233	-2.977700	3.617400	-10.770000	24.952008	0.000937	20.729701
1057.279219	-2.977900	3.616700	-10.769000	24.933683	0.000938	20.720791
1058.279878	-2.987900	3.616500	-10.805000	24.910066	0.000935	20.705147
1059.280771	-3.002100	3.614900	-10.851000	24.869910	0.000935	20.712734
1060.279284	-3.007200	3.615400	-10.872000	24.889933	0.000935	20.686360
1061.281268	-3.008300	3.614800	-10.873000	24.896567	0.000933	20.724316
1062.281826	-2.992200	3.615100	-10.816000	24.901369	0.000935	20.706850
1063.280793	-3.005300	3.614200	-10.861000	24.921388	0.000933	20.695172
1064.281751	-3.000500	3.613700	-10.841000	24.895803	0.000935	20.687037
1065.281010	-3.013200	3.613800	-10.887000	24.868579	0.000934	20.701914
1066.281611	-3.010500	3.613900	-10.879000	24.910202	0.000933	20.699592
1067.282653	-3.029500	3.612200	-10.941000	24.907741	0.000933	20.694751
1068.284136	-2.983000	3.612900	-10.776000	24.866993	0.000933	20.718341
1069.283790	-2.995000	3.612800	-10.819000	24.868809	0.000931	20.701670
1070.284667	-2.997700	3.610900	-10.823000	24.883528	0.000933	20.708383
1071.284840	-2.986200	3.612600	-10.786000	24.866352	0.000930	20.700153
1072.284516	-2.975500	3.612700	-10.749000	24.889501	0.000930	20.693989
1073.285658	-2.990100	3.611200	-10.796000	24.877041	0.000930	20.699976
1074.286361	-3.025300	3.609900	-10.920000	24.908373	0.000931	20.684954
1075.285475	-2.996000	3.611700	-10.820000	24.917407	0.000929	20.679795
1076.286374	-3.023200	3.610400	-10.913000	24.916359	0.000930	20.688228
1077.288978	-3.004700	3.610600	-10.846000	24.898703	0.000927	20.698957
1078.290956	-3.013000	3.609800	-10.874000	24.869565	0.000926	20.710965
1079.289065	-3.019800	3.608300	-10.895000	24.863004	0.000929	20.704854
1080.290822	-2.999700	3.610300	-10.829000	24.846567	0.000927	20.706849
1081.288720	-3.005900	3.608600	-10.846000	24.864943	0.000927	20.706326
1082.287501	-3.013900	3.608500	-10.874000	24.826798	0.000926	20.694595
1083.289909	-2.998600	3.607100	-10.816000	24.834209	0.000925	20.706775
1084.293005	-2.994200	3.607900	-10.802000	24.816355	0.000925	20.696916
1085.290024	-3.000900	3.607500	-10.825000	24.813594	0.000925	20.685610
1086.288936	-2.992200	3.607400	-10.793000	24.829210	0.000923	20.700334
1087.293351	-2.974500	3.607900	-10.730000	24.889287	0.000925	20.698516
1088.290290	-3.016100	3.606200	-10.876000	24.909277	0.000924	20.696768
1089.290170	-2.997300	3.606900	-10.810000	24.931505	0.000925	20.677824
1090.291531	-3.010700	3.605900	-10.854000	24.985186	0.000924	20.698516
1091.289266	-2.981200	3.607900	-10.754000	25.030583	0.000921	20.699988
1092.290537	-2.981700	3.606100	-10.751000	25.043210	0.000924	20.681841
1093.291247	-2.993200	3.607000	-10.795000	25.063899	0.000921	20.689333
1094.289848	-3.011000	3.605500	-10.854000	25.064293	0.000920	20.671709
1095.288581	-3.006800	3.605200	-10.838000	25.073621	0.000920	20.721854
1096.293558	-2.995300	3.604900	-10.796000	25.069144	0.000920	20.699341
1097.294538	-3.016300	3.604400	-10.871000	25.048709	0.000919	20.694949
1098.290333	-2.985200	3.604500	-10.759000	25.004356	0.000919	20.708276
1099.293467	-2.989400	3.605000	-10.775000	24.959480	0.000918	20.684566
1100.290843	-2.997100	3.603300	-10.798000	24.980240	0.000920	20.685016
1101.292053	-3.003400	3.602100	-10.817000	25.001670	0.000918	20.697044
1102.293710	-2.993800	3.602400	-10.784000	25.018133	0.000915	20.687964
1103.293474	-2.987500	3.602900	-10.762000	25.021707	0.000918	20.674006
1104.289948	-2.964200	3.602700	-10.677000	25.039312	0.000916	20.691205
1105.294368	-3.017800	3.601400	-10.866000	25.082296	0.000916	20.696895
1106.291779	-2.988600	3.601800	-10.763000	25.071358	0.000916	20.681647
1107.293662	-3.010300	3.600600	-10.838000	25.110558	0.000915	20.701559
1108.295787	-3.023000	3.599000	-10.877000	25.105760	0.000915	20.680620
1109.293790	-2.977500	3.601400	-10.722000	25.096260	0.000913	20.697164
1110.293443	-2.974600	3.600000	-10.708000	25.077991	0.000916	20.702058
1111.295569	-3.017400	3.599500	-10.860000	25.073613	0.000913	20.680591
1112.294082	-2.997100	3.601800	-10.793000	25.091315	0.000915	20.701209
1113.293350	-3.005900	3.598600	-10.816000	25.070980	0.000915	20.690752
1114.295209	-2.985300	3.600500	-10.747000	25.049104	0.000912	20.684913
1115.294524	-3.007500	3.598100	-10.820000	25.049819	0.000911	20.692743
1116.295241	-3.009100	3.597500	-10.824000	25.005642	0.000910	20.685383
1117.299819	-3.014600	3.597900	-10.845000	24.974863	0.000909	20.698586
1118.296983	-2.997900	3.597600	-10.784000	24.964347	0.000911	20.701782
1119.305778	-3.006300	3.597700	-10.814000	24.956884	0.000911	20.707567
1120.299355	-3.009300	3.596100	-10.820000	24.995250	0.000908	20.689651
1121.297870	-3.014800	3.596200	-10.841000	25.027938	0.000908	20.678839
1122.298611	-2.993800	3.597000	-10.767000	25.055663	0.000909	20.704301
1123.305281	-2.996700	3.597100	-10.778000	25.070902	0.000909	20.696838
1124.298510	-3.008800	3.595700	-10.816000	25.098273	0.000907	20.678319
1125.301512	-3.001600	3.595600	-10.791000	25.101505	0.000908	20.694842
1126.300920	-3.013300	3.595400	-10.833000	25.109757	0.000908	20.712136
1127.301069	-3.006200	3.596000	-10.808000	25.060486	0.000905	20.693968
1128.301498	-3.003800	3.594400	-10.796000	25.055014	0.000906	20.709814
1129.303254	-3.006800	3.594400	-10.807000	25.067246	0.000906	20.712136
1130.300280	-3.029200	3.592600	-10.881000	25.088674	0.000906	20.690496
1131.303570	-3.018100	3.592400	-10.840000	25.094289	0.000904	20.700875
1132.303130	-3.005200	3.592800	-10.796000	25.064437	0.000907	20.679915
1133.303871	-2.975100	3.595500	-10.695000	25.078661	0.000904	20.690401
1134.301757	-3.012800	3.592800	-10.824000	25.101004	0.000903	20.706194
1135.302030	-3.010300	3.592000	-10.812000	25.102972	0.000901	20.712911
1136.303459	-3.026800	3.591200	-10.868000	25.114209	0.000902	20.697638
1137.303568	-3.003100	3.593500	-10.790000	25.122489	0.000903	20.695044
1138.303209	-2.998300	3.592500	-10.770000	25.135168	0.000902	20.714886
1139.305634	-2.998600	3.592100	-10.770000	25.141053	0.000900	20.707992
1140.303460	-3.011300	3.590400	-10.810000	25.170415	0.000901	20.683412
1141.302765	-2.981400	3.591500	-10.706000	25.186522	0.000901	20.711439
1142.302803	-2.991600	3.591600	-10.744000	25.170862	0.000899	20.693819
1143.301967	-2.982100	3.590300	-10.705000	25.178965	0.000900	20.712387
1144.305828	-2.978800	3.589900	-10.692000	25.156640	0.000898	20.721743
1145.304108	-2.992600	3.589100	-10.739000	25.126913	0.000900	20.716556
1146.302811	-2.970200	3.589700	-10.661000	25.119799	0.000899	20.713682
1147.304957	-2.991700	3.589200	-10.737000	25.099366	0.000896	20.713558
1148.304994	-2.975000	3.589200	-10.677000	25.101752	0.000897	20.718799
1149.304299	-2.978300	3.587400	-10.683000	25.106603	0.000897	20.704701
1150.305910	-2.970800	3.588400	-10.659000	25.109412	0.000897	20.720799
1151.304390	-3.018900	3.587500	-10.830000	25.126962	0.000896	20.720399
1152.303976	-2.980300	3.586500	-10.687000	25.134868	0.000894	20.722646
1153.304925	-3.000400	3.587400	-10.762000	25.110081	0.000893	20.707245
1154.305331	-3.016900	3.585400	-10.816000	25.111778	0.000894	20.682393
1155.303483	-2.978900	3.588300	-10.687000	25.085696	0.000895	20.717855
1156.310753	-3.001900	3.585800	-10.763000	25.073395	0.000894	20.724947
1157.310210	-2.993200	3.585900	-10.731000	25.062202	0.000891	20.696640
1158.306790	-3.012800	3.585000	-10.800000	25.055516	0.000893	20.718378
1159.308043	-2.991600	3.585400	-10.725000	25.046270	0.000893	20.718106
1160.305138	-2.990800	3.584100	-10.718000	25.056538	0.000890	20.699489
1161.307311	-3.009800	3.583500	-10.784000	25.097608	0.000892	20.712267
1162.309607	-3.005600	3.584000	-10.771000	25.113441	0.000893	20.714886
1163.307212	-2.992100	3.583900	-10.723000	25.132708	0.000890	20.700087
1164.311029	-3.005400	3.583500	-10.769000	25.137681	0.000891	20.734006
1165.309761	-2.993300	3.583800	-10.726000	25.151600	0.000888	20.728538
1166.308496	-3.012400	3.582600	-10.791000	25.174645	0.000887	20.729862
1167.309547	-3.001700	3.582400	-10.752000	25.169051	0.000890	20.693424
1168.312555	-3.008600	3.582000	-10.776000	25.186551	0.000888	20.722848
1169.309702	-3.029400	3.581600	-10.848000	25.159531	0.000888	20.731759
1170.310671	-3.015900	3.580500	-10.796000	25.189832	0.000885	20.714288
1171.312308	-3.015600	3.582400	-10.802000	25.212104	0.000885	20.725268
1172.311095	-3.007400	3.581700	-10.771000	25.220535	0.000886	20.736579
1173.310346	-3.011500	3.581000	-10.783000	25.232560	0.000886	20.726365
1174.313311	-3.023600	3.581100	-10.827000	25.197167	0.000884	20.702685
1175.310991	-2.989100	3.581300	-10.703000	25.217997	0.000885	20.710321
1176.312096	-3.001600	3.578600	-10.740000	25.217722	0.000885	20.740867
1177.318797	-2.994100	3.580300	-10.719000	25.232708	0.000887	20.700908
1178.317908	-3.010300	3.578700	-10.771000	25.241357	0.000884	20.716704
1179.313985	-3.009600	3.579200	-10.771000	25.256991	0.000883	20.719125
1180.315377	-2.989500	3.579500	-10.699000	25.240141	0.000885	20.724019
1181.315559	-3.002600	3.577400	-10.740000	25.231886	0.000881	20.726163
1182.315944	-3.013700	3.578400	-10.783000	25.229402	0.000882	20.722246
1183.318426	-2.981300	3.579700	-10.671000	25.259007	0.000882	20.725417
1184.315893	-2.997800	3.578000	-10.725000	25.278247	0.000880	20.737622
1185.317307	-3.004000	3.576800	-10.744000	25.285450	0.000879	20.717352
1186.321422	-2.997400	3.576800	-10.718000	25.280904	0.000879	20.726538
1187.318126	-3.018000	3.576200	-10.792000	25.282415	0.000879	20.730901
1188.319454	-3.000300	3.575800	-10.727000	25.258506	0.000876	20.736768
1189.321415	-3.016700	3.575700	-10.785000	25.253336	0.000878	20.742957
1190.318002	-3.012700	3.576000	-10.773000	25.213915	0.000878	20.736570
1191.318105	-3.003100	3.576700	-10.740000	25.216773	0.000876	20.721896
1192.321874	-3.005300	3.576300	-10.747000	25.250059	0.000876	20.736348
1193.324385	-3.007400	3.575100	-10.751000	25.250276	0.000875	20.721867
1194.319632	-3.015700	3.574000	-10.777000	25.261689	0.000875	20.740912
1195.324472	-3.000400	3.573500	-10.721000	25.240236	0.000876	20.751142
1196.321013	-2.997100	3.575500	-10.714000	25.262707	0.000875	20.713484
1197.322787	-2.999200	3.574500	-10.720000	25.267303	0.000875	20.733272
1198.325788	-3.016800	3.572100	-10.775000	25.296139	0.000872	20.746578
1199.324452	-3.018300	3.573500	-10.785000	25.287790	0.000872	20.730134
1200.323072	-3.007000	3.573800	-10.745000	25.305806	0.000871	20.746800
1201.324307	-3.009800	3.571600	-10.749000	25.297925	0.000874	20.736991
1202.324481	-3.008500	3.571600	-10.743000	25.283561	0.000873	20.727784
1203.324465	-2.989100	3.571900	-10.676000	25.312343	0.000871	20.748623
1204.327095	-3.018200	3.571400	-10.778000	25.319254	0.000871	20.743708
1205.328013	-2.998300	3.571000	-10.705000	25.331680	0.000870	20.725363
1206.322721	-3.002700	3.570700	-10.719000	25.293006	0.000869	20.722568
1207.330977	-3.007600	3.571100	-10.740000	25.270407	0.000867	20.752511
1208.327034	-3.006100	3.569600	-10.730000	25.244338	0.000867	20.743881
1209.323871	-2.997800	3.569700	-10.700000	25.246022	0.000871	20.747468
1210.332441	-2.984900	3.569100	-10.653000	25.225566	0.000867	20.730249
1211.328665	-2.989200	3.569700	-10.670000	25.199989	0.000866	20.766687
1212.325607	-3.038800	3.567000	-10.839000	25.203669	0.000866	20.727705
1213.330829	-2.993300	3.568400	-10.680000	25.198395	0.000865	20.745646
1214.331577	-3.013500	3.568200	-10.752000	25.219652	0.000864	20.765091
1215.326602	-3.012700	3.568600	-10.750000	25.257360	0.000865	20.762646
1216.330719	-2.987300	3.568700	-10.659000	25.272571	0.000865	20.754684
1217.331685	-2.988600	3.568000	-10.663000	25.285618	0.000862	20.761619
1218.328353	-2.976800	3.568900	-10.622000	25.291035	0.000863	20.727701
1219.333925	-3.002900	3.567800	-10.712000	25.291704	0.000863	20.754927
1220.334395	-3.011400	3.566400	-10.737000	25.282509	0.000861	20.767033
1221.328169	-3.022500	3.565700	-10.777000	25.291679	0.000864	20.756325
1222.333861	-2.995500	3.565500	-10.679000	25.284394	0.000863	20.741898
1223.333279	-2.985200	3.565900	-10.644000	25.322548	0.000860	20.758395
1224.333642	-3.004500	3.565500	-10.711000	25.328362	0.000860	20.746689
1225.334589	-2.993600	3.565500	-10.671000	25.294809	0.000860	20.748087
1226.332811	-2.972600	3.566300	-10.600000	25.278551	0.000858	20.759739
1227.331446	-3.020700	3.563600	-10.763000	25.256379	0.000858	20.753600
1228.337396	-2.992400	3.564900	-10.667000	25.252925	0.000860	20.771944
1229.334856	-3.004500	3.564500	-10.708000	25.203307	0.000859	20.774286
1230.331978	-3.041000	3.561500	-10.829000	25.186305	0.000857	20.770492
1231.336295	-2.991800	3.563300	-10.661000	25.166813	0.000857	20.763726
1232.335413	-2.998700	3.562000	-10.681000	25.167384	0.000856	20.753394
1233.333265	-3.006000	3.562000	-10.707000	25.176781	0.000858	20.780846
1234.336122	-3.002600	3.562300	-10.695000	25.156915	0.000855	20.759954
1235.333966	-3.006200	3.560700	-10.703000	25.185007	0.000856	20.764448
1236.334010	-2.987100	3.561800	-10.639000	25.184781	0.000857	20.745728
1237.336079	-2.976600	3.561100	-10.598000	25.220872	0.000854	20.772954
1238.334417	-2.994200	3.560300	-10.659000	25.251718	0.000854	20.772628
1239.334266	-2.999800	3.559300	-10.676000	25.287158	0.000853	20.764114
1240.338907	-2.973700	3.561400	-10.588000	25.298468	0.000853	20.761718
1241.338538	-2.997000	3.560100	-10.669000	25.299462	0.000853	20.766510
1242.337667	-3.012700	3.559400	-10.722000	25.290784	0.000853	20.795256
1243.341802	-2.994500	3.560100	-10.659000	25.285023	0.000853	20.783307
1244.338697	-2.999300	3.560200	-10.677000	25.284772	0.000853	20.767883
1245.338263	-3.004000	3.559200	-10.691000	25.241694	0.000851	20.776789
1246.341867	-3.016100	3.558700	-10.732000	25.239530	0.000853	20.788841
1247.342483	-3.005100	3.557900	-10.691000	25.243731	0.000850	20.767928
1248.340497	-3.024800	3.558000	-10.761000	25.280715	0.000849	20.778508
1249.343949	-3.017100	3.557300	-10.732000	25.274100	0.000851	20.774237
1250.343911	-3.009200	3.555000	-10.697000	25.263911	0.000852	20.770171
1251.338786	-3.025800	3.555700	-10.758000	25.285183	0.000851	20.765450
1252.343748	-3.009400	3.556200	-10.701000	25.299347	0.000848	20.791999
1253.342644	-3.018200	3.555200	-10.729000	25.281652	0.000845	20.776603
1254.340715	-3.016100	3.554800	-10.721000	25.251628	0.000847	20.776331
1255.344549	-2.974400	3.555900	-10.576000	25.248417	0.000846	20.778797
1256.344804	-2.986800	3.555900	-10.620000	25.253037	0.000847	20.782961
1257.348926	-3.001900	3.555400	-10.672000	25.273964	0.000845	20.795438
1258.345458	-2.989500	3.555000	-10.626000	25.281968	0.000845	20.778818
1259.344407	-3.015600	3.553700	-10.716000	25.304135	0.000844	20.790169
1260.341943	-3.024600	3.553000	-10.745000	25.275701	0.000841	20.770629
1261.346927	-2.978900	3.553500	-10.585000	25.265558	0.000843	20.797429
1262.344505	-2.973000	3.555600	-10.569000	25.293594	0.000841	20.787645
1263.342886	-3.006700	3.552100	-10.679000	25.290013	0.000845	20.782628
1264.347539	-2.993300	3.553700	-10.636000	25.314270	0.000842	20.787542
1265.346598	-3.007600	3.552500	-10.684000	25.318372	0.000841	20.778385
1266.341341	-3.003500	3.551600	-10.666000	25.326795	0.000841	20.814342
1267.350305	-2.987900	3.553900	-10.617000	25.312131	0.000839	20.808628
1268.346537	-3.014700	3.550500	-10.703000	25.318767	0.000842	20.783048
1269.341631	-3.014400	3.550500	-10.702000	25.282548	0.000839	20.799314
1270.347351	-2.964600	3.552800	-10.531000	25.270195	0.000837	20.783119
1271.345131	-3.016300	3.549600	-10.705000	25.248196	0.000838	20.763876
1272.343967	-3.027200	3.549400	-10.743000	25.287566	0.000838	20.804827
1273.347483	-3.024500	3.549300	-10.735000	25.288810	0.000837	20.795645
1274.347037	-3.006400	3.550100	-10.672000	25.309688	0.000837	20.794321
1275.343675	-3.015200	3.548400	-10.698000	25.346148	0.000836	20.811964
1276.352260	-2.973000	3.550900	-10.556000	25.371694	0.000834	20.806319
1277.349236	-2.996900	3.548900	-10.635000	25.377681	0.000835	20.804744
1278.346935	-2.989600	3.550500	-10.614000	25.389440	0.000834	20.798535
1279.351207	-2.993900	3.549400	-10.625000	25.385655	0.000833	20.799949
1280.349705	-2.991600	3.550000	-10.618000	25.368557	0.000833	20.806963
1281.346841	-2.986500	3.547800	-10.594000	25.343307	0.000834	20.786351
1282.351835	-3.018500	3.546400	-10.702000	25.331325	0.000833	20.820313
1283.350221	-2.996700	3.546500	-10.627000	25.301348	0.000833	20.795431
1284.348182	-3.002600	3.546300	-10.647000	25.306341	0.000833	20.801393
1285.352061	-3.021900	3.545800	-10.714000	25.303212	0.000832	20.817217
1286.351345	-2.970600	3.547300	-10.537000	25.319240	0.000831	20.805334
1287.350330	-2.993700	3.545800	-10.614000	25.333830	0.000830	20.810975
1288.353033	-2.986300	3.546500	-10.588000	25.356020	0.000828	20.804807
1289.351869	-2.985100	3.546300	-10.585000	25.358977	0.000829	20.804456
1290.351736	-2.996400	3.545100	-10.622000	25.386090	0.000828	20.817456
1291.354550	-3.003500	3.544500	-10.645000	25.400905	0.000830	20.818108
1292.350417	-2.979800	3.544300	-10.559000	25.403911	0.000828	20.811643
1293.347903	-2.978900	3.545200	-10.559000	25.419313	0.000823	20.818574
1294.350217	-3.005900	3.544100	-10.652000	25.408580	0.000827	20.815382
1295.353436	-3.021300	3.542900	-10.702000	25.400056	0.000827	20.813461
1296.350667	-3.012600	3.542600	-10.671000	25.386333	0.000825	20.816751
1297.352754	-3.011500	3.541900	-10.665000	25.375226	0.000826	20.822668
1298.353298	-3.005800	3.541900	-10.645000	25.346145	0.000824	20.826659
1299.352284	-2.985400	3.543300	-10.577000	25.302745	0.000824	20.825756
1300.355669	-2.998500	3.541300	-10.618000	25.278590	0.000823	20.826160
1301.354722	-2.995300	3.543400	-10.612000	25.276845	0.000823	20.827253
1302.351820	-3.002700	3.540400	-10.630000	25.278142	0.000823	20.827607
1303.354849	-2.990200	3.541500	-10.588000	25.293254	0.000822	20.838987
1304.357201	-2.988300	3.540200	-10.578000	25.335727	0.000823	20.828053
1305.355180	-2.996600	3.540600	-10.609000	25.318907	0.000820	20.830130
1306.356805	-2.996100	3.539500	-10.604000	25.313138	0.000819	20.824338
1307.354655	-3.006000	3.540300	-10.640000	25.299118	0.000820	20.826857
1308.354070	-3.021600	3.538600	-10.691000	25.275658	0.000819	20.809940
1309.356505	-2.994800	3.538600	-10.596000	25.250751	0.000820	20.809116
1310.355345	-3.001600	3.538000	-10.617000	25.276204	0.000819	20.828980
1311.354457	-2.990000	3.537900	-10.578000	25.299369	0.000819	20.815255
1312.360550	-2.999000	3.538800	-10.611000	25.318185	0.000819	20.844577
1313.353508	-3.007000	3.537300	-10.635000	25.332972	0.000817	20.824812
1314.356484	-2.998100	3.537600	-10.605000	25.364862	0.000817	20.827908
1315.360288	-2.986100	3.537300	-10.562000	25.404753	0.000818	20.831928
1316.360246	-2.991800	3.536700	-10.579000	25.398861	0.000814	20.838813
1317.358433	-3.017700	3.534500	-10.664000	25.429254	0.000816	20.821917
1318.363418	-3.003300	3.536500	-10.621000	25.397916	0.000813	20.822693
1319.359750	-2.976400	3.537100	-10.527000	25.437355	0.000813	20.824362
1320.358166	-3.014200	3.535000	-10.653000	25.425329	0.000812	20.821769
1321.360175	-3.001400	3.534600	-10.608000	25.442528	0.000812	20.851367
1322.363569	-3.027600	3.534100	-10.699000	25.444368	0.000813	20.843732
1323.357741	-3.011300	3.534400	-10.643000	25.445362	0.000812	20.840462
1324.362792	-3.005700	3.533700	-10.619000	25.442052	0.000811	20.843303
1325.361231	-2.996600	3.534700	-10.591000	25.429504	0.000811	20.862470
1326.358960	-3.038100	3.532200	-10.729000	25.458382	0.000810	20.832674
1327.365772	-3.007400	3.532600	-10.623000	25.473914	0.000810	20.841159
1328.367131	-2.997800	3.531600	-10.585000	25.498319	0.000810	20.848123
1329.361396	-2.977500	3.532900	-10.517000	25.500754	0.000809	20.857680
1330.366122	-2.987900	3.532500	-10.554000	25.545411	0.000809	20.845628
1331.364763	-2.997200	3.531000	-10.582000	25.547718	0.000807	20.867385
1332.362406	-3.005000	3.530600	-10.608000	25.564740	0.000806	20.854134
1333.364494	-2.991600	3.532300	-10.566000	25.542972	0.000809	20.855507
1334.364398	-3.000700	3.531100	-10.593000	25.541235	0.000808	20.854711
1335.362189	-3.009800	3.531100	-10.627000	25.538678	0.000806	20.841237
1336.365270	-2.985200	3.529900	-10.537000	25.574260	0.000804	20.848523
1337.373668	-3.009100	3.529800	-10.620000	25.575623	0.000803	20.855581
1338.363507	-2.991900	3.528600	-10.556000	25.590637	0.000806	20.855012
1339.370929	-2.983800	3.530200	-10.533000	25.580496	0.000803	20.850518
1340.370604	-3.001600	3.529200	-10.593000	25.589619	0.000804	20.846403
1341.365264	-2.989700	3.528400	-10.549000	25.602189	0.000804	20.851916
1342.368711	-3.002600	3.527900	-10.592000	25.599332	0.000802	20.857107
1343.368494	-3.000400	3.527900	-10.583000	25.625651	0.000799	20.831858
1344.366491	-2.954000	3.528900	-10.424000	25.599430	0.000800	20.853412
1345.368012	-3.033000	3.524400	-10.689000	25.587008	0.000801	20.853738
1346.366854	-3.007100	3.526100	-10.603000	25.549935	0.000801	20.844008
1347.365135	-2.986100	3.527200	-10.532000	25.480754	0.000798	20.831907
1348.367258	-2.993500	3.527100	-10.557000	25.468769	0.000799	20.837890
1349.368955	-3.012600	3.524300	-10.616000	25.485324	0.000800	20.827013
1350.368844	-3.008500	3.525000	-10.604000	25.474489	0.000798	20.836047
1351.369845	-2.992500	3.525200	-10.547000	25.492012	0.000798	20.849376
1352.369925	-3.009200	3.524200	-10.604000	25.471110	0.000798	20.826016
1353.369251	-3.007000	3.524100	-10.596000	25.427693	0.000796	20.817506
1354.369652	-3.004400	3.523800	-10.585000	25.396183	0.000796	20.835177
1355.368228	-3.009800	3.523400	-10.602000	25.337628	0.000795	20.821427
1356.371199	-2.991300	3.523200	-10.537000	25.346050	0.000794	20.830357
1357.368725	-3.010100	3.521400	-10.598000	25.377394	0.000793	20.833379
1358.370515	-3.005500	3.521900	-10.584000	25.387630	0.000795	20.829434
1359.370851	-2.999000	3.521900	-10.561000	25.398889	0.000793	20.807074
1360.373394	-2.986300	3.521500	-10.515000	25.425558	0.000794	20.834327
1361.370212	-3.003100	3.522800	-10.578000	25.430329	0.000794	20.841015
1362.371010	-3.005200	3.521300	-10.580000	25.444742	0.000793	20.807124
1363.371337	-2.981600	3.520900	-10.497000	25.490218	0.000792	20.816281
1364.370391	-2.976300	3.521200	-10.480000	25.493971	0.000792	20.845179
1365.376708	-2.981500	3.521200	-10.497000	25.490095	0.000790	20.824692
1366.371529	-2.998100	3.519800	-10.551000	25.458977	0.000793	20.828057
1367.372421	-2.993300	3.519300	-10.533000	25.459897	0.000789	20.832773
1368.372248	-3.007800	3.519100	-10.583000	25.498639	0.000791	20.820944
1369.373343	-2.996400	3.519100	-10.543000	25.480771	0.000790	20.819122
1370.373311	-2.985700	3.519800	-10.507000	25.480225	0.000788	20.819048
1371.373837	-3.019400	3.517700	-10.620000	25.477938	0.000789	20.803001
1372.372670	-2.967800	3.518900	-10.442000	25.508526	0.000788	20.813329
1373.374251	-3.023300	3.517600	-10.633000	25.481120	0.000786	20.801929
1374.371517	-2.986000	3.517600	-10.503000	25.490584	0.000787	20.799105
1375.374152	-3.004200	3.517400	-10.566000	25.480319	0.000786	20.805393
1376.374558	-3.022100	3.516200	-10.626000	25.478057	0.000785	20.796483
1377.373281	-3.013800	3.514700	-10.592000	25.444635	0.000783	20.807017
1378.374804	-3.001800	3.515800	-10.552000	25.459913	0.000785	20.791539
1379.372610	-3.020800	3.514500	-10.616000	25.463243	0.000785	20.813849
1380.374864	-3.003400	3.515900	-10.559000	25.475746	0.000784	20.808860
1381.374654	-2.996900	3.514900	-10.533000	25.483370	0.000783	20.796128
1382.374563	-3.012200	3.513900	-10.584000	25.517345	0.000783	20.790418
1383.374940	-3.016400	3.513000	-10.596000	25.507927	0.000784	20.803719
1384.374062	-2.995000	3.514700	-10.526000	25.494706	0.000782	20.804667
1385.374568	-3.015000	3.513800	-10.593000	25.465206	0.000780	20.789742
1386.374221	-3.002100	3.514000	-10.548000	25.464339	0.000781	20.802148
1387.374658	-3.002000	3.513400	-10.545000	25.452979	0.000781	20.792162
1388.374781	-3.010100	3.512800	-10.573000	25.503846	0.000781	20.786818
1389.374489	-3.001100	3.512600	-10.541000	25.486355	0.000781	20.786324
1390.374636	-2.993400	3.512500	-10.513000	25.463514	0.000780	20.781405
1391.374953	-3.020000	3.510200	-10.599000	25.464684	0.000777	20.789692
1392.374417	-3.017900	3.509500	-10.589000	25.431878	0.000777	20.793259
1393.374633	-3.006800	3.509900	-10.551000	25.403743	0.000778	20.808155
1394.374356	-3.019200	3.510200	-10.597000	25.389204	0.000777	20.785495
1395.375288	-3.011000	3.509000	-10.565000	25.340893	0.000777	20.791515
1396.374822	-3.008700	3.510000	-10.558000	25.374791	0.000776	20.777661
1397.374794	-3.007600	3.509100	-10.552000	25.386642	0.000775	20.793828
1398.374535	-3.004500	3.510000	-10.544000	25.400590	0.000776	20.795506
1399.375014	-2.992200	3.508600	-10.497000	25.402750	0.000776	20.778708
1400.374137	-2.999900	3.508800	-10.525000	25.361072	0.000775	20.801344
1401.375618	-3.017700	3.509100	-10.587000	25.349390	0.000776	20.791036
1402.374679	-3.039800	3.506500	-10.658000	25.379234	0.000774	20.793502
1403.376975	-2.977500	3.507900	-10.444000	25.414777	0.000774	20.802639
1404.375845	-2.990500	3.508500	-10.491000	25.435307	0.000774	20.786270
1405.376415	-2.974100	3.508000	-10.431000	25.445046	0.000774	20.793205
1406.377922	-2.970600	3.507200	-10.418000	25.459064	0.000773	20.779306
1407.377168	-2.986200	3.505700	-10.467000	25.483190	0.000772	20.767972
1408.381433	-2.980000	3.506200	-10.447000	25.517313	0.000770	20.777583
1409.376322	-3.027200	3.505000	-10.609000	25.537368	0.000768	20.802940
1410.377763	-2.980400	3.506700	-10.450000	25.579487	0.000769	20.778857
1411.376867	-2.992700	3.505800	-10.490000	25.558139	0.000770	20.758839
1412.377221	-2.997500	3.505100	-10.506000	25.534532	0.000769	20.781125
1413.377615	-3.007900	3.502600	-10.535000	25.566666	0.000767	20.787317
1414.376436	-2.984400	3.503500	-10.455000	25.561169	0.000766	20.788909
1415.382174	-3.032500	3.501700	-10.617000	25.566764	0.000768	20.766553
1416.378166	-3.004000	3.503300	-10.523000	25.611862	0.000767	20.789086
1417.377298	-2.993400	3.503300	-10.485000	25.631715	0.000764	20.782473
1418.377505	-3.020800	3.501800	-10.576000	25.651966	0.000764	20.781475
1419.379104	-3.023900	3.501600	-10.588000	25.663666	0.000765	20.784691
1420.377648	-2.989400	3.501800	-10.466000	25.614695	0.000764	20.778181
1421.378938	-3.004800	3.501400	-10.519000	25.620754	0.000766	20.779525
1422.377234	-3.007200	3.499300	-10.522000	25.560721	0.000761	20.749578
1423.378757	-2.992600	3.500800	-10.476000	25.549066	0.000761	20.769642
1424.378504	-2.982800	3.501600	-10.443000	25.549337	0.000763	20.776078
1425.378304	-2.994000	3.500400	-10.479000	25.557067	0.000763	20.761556
1426.381488	-3.003400	3.499000	-10.508000	25.568000	0.000761	20.772062
1427.378282	-3.001200	3.498900	-10.500000	25.568743	0.000760	20.784663
1428.378036	-2.998200	3.498600	-10.488000	25.516364	0.000760	20.766199
1429.382473	-2.990200	3.499400	-10.463000	25.492481	0.000759	20.781570
1430.380120	-2.996000	3.498700	-10.481000	25.482594	0.000759	20.755520
1431.378787	-3.000400	3.496600	-10.490000	25.491463	0.000761	20.752572
1432.379089	-2.976200	3.498800	-10.410000	25.508362	0.000759	20.783293
1433.378824	-2.993200	3.496000	-10.463000	25.530853	0.000759	20.772215
1434.377968	-2.974500	3.496400	-10.399000	25.547526	0.000758	20.790855
1435.396961	-2.980700	3.497100	-10.422000	25.584479	0.000759	20.778181
1436.378487	-2.999000	3.495100	-10.481000	25.600954	0.000755	20.756794
1437.378379	-2.987500	3.496100	-10.444000	25.591631	0.000755	20.769242
1438.382942	-2.978900	3.495100	-10.410000	25.618320	0.000756	20.758587
1439.379374	-2.985700	3.495900	-10.437000	25.624211	0.000755	20.780626
1440.380066	-2.985600	3.495000	-10.432000	25.627466	0.000756	20.754023
1441.382264	-3.003100	3.494000	-10.491000	25.615286	0.000755	20.759334
1442.384017	-2.979500	3.495800	-10.415000	25.609350	0.000755	20.760958
1443.382251	-2.980400	3.496000	-10.418000	25.617622	0.000754	20.750300
1444.382733	-2.994600	3.493100	-10.460000	25.583954	0.000752	20.771489
1445.383711	-3.021700	3.492500	-10.552000	25.551127	0.000753	20.769815
1446.382825	-3.003900	3.491700	-10.488000	25.514352	0.000753	20.771765
1447.384706	-3.005800	3.491000	-10.493000	25.507816	0.000751	20.767572
1448.381701	-3.011600	3.490600	-10.511000	25.511470	0.000751	20.746585
1449.384501	-2.981700	3.491500	-10.409000	25.490593	0.000751	20.760233
1450.383903	-2.997500	3.492400	-10.467000	25.483687	0.000751	20.742391
1451.382966	-3.004100	3.490000	-10.484000	25.465991	0.000750	20.752596
1452.386550	-2.985700	3.492500	-10.426000	25.479507	0.000749	20.755264
1453.385540	-2.998000	3.491400	-10.466000	25.517855	0.000749	20.775756
1454.385218	-2.988100	3.489500	-10.427000	25.533855	0.000749	20.755788
1455.387086	-2.988200	3.489600	-10.426000	25.555302	0.000747	20.762154
1456.388752	-3.005100	3.489100	-10.484000	25.575871	0.000748	20.739662
1457.386771	-2.995100	3.488700	-10.448000	25.560019	0.000746	20.767366
1458.386656	-3.002300	3.487900	-10.471000	25.565336	0.000745	20.738565
1459.386665	-3.006500	3.486600	-10.481000	25.563722	0.000744	20.763024
1460.386788	-3.005700	3.486700	-10.479000	25.585740	0.000745	20.749574
1461.386765	-3.012400	3.487500	-10.505000	25.581544	0.000745	20.759111
1462.387497	-3.028100	3.486400	-10.556000	25.589049	0.000745	20.759062
1463.388267	-2.982000	3.486400	-10.395000	25.581023	0.000745	20.741991
1464.389344	-2.985700	3.486500	-10.409000	25.560968	0.000744	20.722323
1465.387090	-2.995100	3.485000	-10.436000	25.524218	0.000743	20.765551
1466.389691	-2.984900	3.485300	-10.402000	25.506079	0.000744	20.741171
1467.390101	-3.004700	3.484600	-10.469000	25.517612	0.000742	20.753227
1468.389904	-2.993700	3.483800	-10.429000	25.536132	0.000741	20.764240
1469.391429	-3.007100	3.485100	-10.479000	25.554595	0.000742	20.752435
1470.391706	-2.992900	3.484100	-10.426000	25.537701	0.000741	20.755383
1471.390261	-3.022900	3.482800	-10.527000	25.536756	0.000740	20.745425
1472.391781	-3.002100	3.482400	-10.453000	25.512808	0.000740	20.730858
1473.389584	-2.977100	3.482700	-10.367000	25.502474	0.000740	20.760310
1474.391129	-2.989500	3.482100	-10.408000	25.509035	0.000739	20.731810
1475.392887	-2.996400	3.480800	-10.429000	25.514384	0.000737	20.739553
1476.391934	-2.992300	3.481200	-10.415000	25.496791	0.000737	20.728523
1477.391243	-2.988200	3.481100	-10.401000	25.452883	0.000739	20.744175
1478.394899	-2.991900	3.481700	-10.416000	25.445131	0.000738	20.716001
1479.391826	-2.992700	3.481800	-10.419000	25.386780	0.000736	20.744654
1480.391091	-2.999700	3.480300	-10.438000	25.396823	0.000735	20.738143
1481.393555	-3.009300	3.480200	-10.472000	25.409626	0.000736	20.746731
1482.392043	-3.008100	3.478600	-10.463000	25.395168	0.000734	20.733162
1483.393734	-2.975200	3.480200	-10.353000	25.435133	0.000735	20.733463
1484.396681	-3.014600	3.478200	-10.485000	25.437892	0.000732	20.751407
1485.396125	-3.020000	3.477300	-10.499000	25.449528	0.000734	20.738909
1486.394145	-2.994500	3.479300	-10.417000	25.445405	0.000732	20.734769
1487.393325	-2.978200	3.478200	-10.358000	25.442901	0.000734	20.734151
1488.396236	-2.993000	3.477000	-10.406000	25.455650	0.000734	20.730832
1489.394139	-2.995500	3.478000	-10.417000	25.465869	0.000730	20.707427
1490.395966	-3.001000	3.478600	-10.438000	25.489235	0.000730	20.714771
1491.396213	-2.980200	3.476300	-10.359000	25.539686	0.000731	20.732720
1492.397840	-2.979600	3.475700	-10.355000	25.528679	0.000733	20.735890
1493.399570	-2.985700	3.474600	-10.371000	25.500526	0.000730	20.713781
1494.402382	-3.014500	3.474300	-10.472000	25.488475	0.000728	20.705947
1495.399987	-2.995400	3.475500	-10.409000	25.499639	0.000728	20.727590
1496.398420	-3.006700	3.474100	-10.444000	25.525070	0.000729	20.715669
1497.399182	-2.981300	3.475200	-10.359000	25.544251	0.000729	20.719760
1498.399285	-2.990700	3.474000	-10.389000	25.591788	0.000729	20.723879
1499.401762	-3.006100	3.473600	-10.441000	25.586501	0.000728	20.717146
1500.400002	-2.983700	3.473600	-10.362000	25.617886	0.000728	20.722114
1501.399730	-3.012100	3.472600	-10.459000	25.602380	0.000730	20.717447
1502.402310	-3.006400	3.473100	-10.441000	25.591825	0.000727	20.719174
1503.399621	-2.994800	3.472800	-10.399000	25.606362	0.000725	20.720972
1504.397424	-2.997200	3.472000	-10.405000	25.594953	0.000726	20.727532
1505.400512	-3.014000	3.470300	-10.458000	25.621421	0.000727	20.710965
1506.399014	-3.038300	3.468600	-10.537000	25.618268	0.000725	20.725343
1507.397099	-3.004200	3.469100	-10.420000	25.597096	0.000727	20.718778
1508.402272	-3.005500	3.468900	-10.424000	25.537760	0.000726	20.728889
1509.398135	-2.990000	3.470000	-10.374000	25.538782	0.000725	20.707629
1510.399645	-3.008900	3.469100	-10.437000	25.518779	0.000724	20.715042
1511.400514	-2.991000	3.469900	-10.377000	25.468529	0.000724	20.702037
1512.400405	-3.000000	3.469100	-10.406000	25.444230	0.000724	20.707509
1513.405090	-2.986700	3.468500	-10.359000	25.419623	0.000722	20.703188
1514.405130	-3.005300	3.468200	-10.421000	25.383243	0.000723	20.715022
1515.402170	-3.009500	3.466500	-10.431000	25.360925	0.000721	20.686447
1516.401041	-3.012700	3.466300	-10.442000	25.367910	0.000722	20.715273
1517.403059	-3.007800	3.465700	-10.423000	25.409740	0.000722	20.716498
1518.401424	-3.002700	3.466600	-10.408000	25.426891	0.000720	20.710486
1519.401512	-3.012800	3.465200	-10.438000	25.458178	0.000719	20.705394
1520.403006	-3.026700	3.463700	-10.481000	25.498017	0.000716	20.707942
1521.403758	-3.004300	3.464500	-10.408000	25.512206	0.000718	20.691370
1522.401916	-3.006400	3.463900	-10.413000	25.484673	0.000718	20.700705
1523.405303	-3.019100	3.463300	-10.454000	25.485691	0.000718	20.709789
1524.403253	-3.013900	3.464000	-10.439000	25.462752	0.000716	20.718997
1525.402339	-2.980800	3.463700	-10.323000	25.465860	0.000718	20.711212
1526.412062	-2.990600	3.463800	-10.358000	25.437279	0.000716	20.707167
1527.401654	-3.003800	3.462800	-10.400000	25.421376	0.000715	20.704000
1528.402625	-2.988800	3.461800	-10.346000	25.416658	0.000715	20.684562
1529.405353	-2.971400	3.463200	-10.289000	25.416457	0.000714	20.703328
1530.404788	-2.998300	3.461500	-10.377000	25.465688	0.000716	20.682113
1531.403635	-2.983000	3.461400	-10.325000	25.510346	0.000714	20.719850
1532.403456	-2.970300	3.461200	-10.280000	25.537238	0.000715	20.698017
1533.406521	-3.007700	3.460300	-10.407000	25.584698	0.000714	20.694471
1534.404051	-2.974400	3.461800	-10.296000	25.631860	0.000712	20.683041
1535.408479	-2.984300	3.458700	-10.319000	25.598439	0.000713	20.688830
1536.406723	-2.997400	3.459300	-10.368000	25.625501	0.000712	20.714115
1537.405341	-3.002900	3.458600	-10.385000	25.639644	0.000712	20.674262
1538.407755	-3.003800	3.459400	-10.391000	25.607988	0.000713	20.688463
1539.408236	-2.999900	3.457600	-10.372000	25.598870	0.000712	20.697324
1540.406761	-2.988500	3.458400	-10.334000	25.607245	0.000712	20.666378
1541.406905	-2.982200	3.458700	-10.312000	25.603217	0.000712	20.689836
1542.408826	-3.033700	3.456700	-10.484000	25.595963	0.000710	20.711476
1543.408757	-2.994500	3.457300	-10.352000	25.553993	0.000710	20.704412
1544.408634	-2.999000	3.457500	-10.368000	25.524425	0.000710	20.680406
1545.408752	-3.010200	3.456000	-10.402000	25.544107	0.000710	20.679783
1546.409257	-3.003400	3.456300	-10.379000	25.553776	0.000708	20.673845
1547.410049	-2.994700	3.456100	-10.349000	25.545474	0.000709	20.691589
1548.416528	-2.982800	3.455000	-10.304000	25.533252	0.000706	20.693539
1549.410273	-3.024500	3.454100	-10.447000	25.512699	0.000707	20.691391
1550.409251	-3.018400	3.452500	-10.420000	25.555167	0.000706	20.681408
1551.410832	-3.013000	3.454500	-10.406000	25.564191	0.000707	20.678616
1552.411226	-2.997100	3.454200	-10.352000	25.578852	0.000704	20.679589
1553.410826	-2.997100	3.452500	-10.346000	25.564241	0.000704	20.700004
1554.413136	-2.989200	3.454300	-10.325000	25.577210	0.000704	20.686475
1555.410288	-3.038900	3.450500	-10.484000	25.590507	0.000704	20.680863
1556.411172	-3.024700	3.449800	-10.432000	25.601341	0.000705	20.677994
1557.409849	-3.011900	3.450900	-10.392000	25.621002	0.000705	20.671186
1558.426327	-2.994900	3.452200	-10.338000	25.670843	0.000702	20.687106
1559.411314	-2.998800	3.450700	-10.347000	25.683491	0.000703	20.685111
1560.410727	-2.990800	3.450900	-10.320000	25.660313	0.000703	20.698817
1561.413776	-2.993300	3.450500	-10.327000	25.639393	0.000701	20.692504
1562.413232	-3.000300	3.449900	-10.350000	25.639241	0.000702	20.671012
1563.413197	-2.986600	3.450900	-10.305000	25.641109	0.000698	20.675260
1564.412434	-3.003600	3.449800	-10.360000	25.621429	0.000700	20.685366
1565.412858	-2.995600	3.448400	-10.328000	25.564606	0.000699	20.693733
1566.412796	-2.991300	3.447900	-10.313000	25.542588	0.000699	20.676361
1567.413234	-2.996200	3.448900	-10.332000	25.545524	0.000699	20.689741
1568.413462	-3.010800	3.446100	-10.375000	25.564085	0.000696	20.682303
1569.416690	-3.018700	3.445700	-10.400000	25.594403	0.000698	20.678612
1570.416969	-3.027000	3.445700	-10.429000	25.610952	0.000697	20.665359
1571.414050	-2.997000	3.447300	-10.330000	25.671208	0.000695	20.670402
1572.418221	-2.981100	3.445800	-10.271000	25.676976	0.000697	20.692793
1573.419422	-2.994700	3.446600	-10.320000	25.683659	0.000696	20.681012
1574.414696	-3.019000	3.445300	-10.400000	25.709631	0.000696	20.680072
1575.422054	-3.011000	3.444000	-10.369000	25.692485	0.000694	20.671858
1576.415041	-3.000600	3.444500	-10.334000	25.705256	0.000694	20.677099
1577.413378	-3.018600	3.443700	-10.394000	25.724196	0.000692	20.697073
1578.415742	-3.019500	3.442800	-10.395000	25.719574	0.000692	20.681049
1579.414615	-3.003700	3.442200	-10.338000	25.706783	0.000692	20.686694
1580.414161	-3.007200	3.443400	-10.353000	25.720945	0.000694	20.659191
1581.416086	-2.989000	3.443700	-10.292000	25.702337	0.000692	20.693610
1582.414344	-3.009700	3.442000	-10.358000	25.712632	0.000691	20.677396
1583.413963	-3.032400	3.441300	-10.434000	25.726671	0.000692	20.660675
1584.420418	-2.993500	3.442400	-10.304000	25.728835	0.000691	20.674229
1585.414799	-2.998400	3.441000	-10.316000	25.718577	0.000691	20.665347
1586.416100	-2.993100	3.440900	-10.298000	25.705039	0.000690	20.690633
1587.417774	-3.013900	3.439300	-10.365000	25.738485	0.000690	20.686769
1588.415179	-3.029900	3.438800	-10.418000	25.739384	0.000687	20.679137
1589.414495	-3.006300	3.440100	-10.341000	25.748378	0.000689	20.681533
1590.416210	-2.995700	3.440900	-10.306000	25.706418	0.000687	20.693915
1591.419656	-2.993000	3.439800	-10.294000	25.685877	0.000688	20.671859
1592.414294	-2.999300	3.437000	-10.307000	25.687297	0.000687	20.690831
1593.420142	-2.998300	3.438400	-10.308000	25.641780	0.000686	20.684469
1594.415978	-3.008300	3.437800	-10.341000	25.603597	0.000684	20.682156
1595.415788	-3.008300	3.437000	-10.337000	25.612813	0.000684	20.689516
1596.418783	-3.024900	3.435500	-10.391000	25.617567	0.000685	20.694766
1597.417438	-3.029500	3.437500	-10.412000	25.612374	0.000683	20.685282
1598.416314	-3.018700	3.436100	-10.371000	25.631686	0.000683	20.672433
1599.417594	-3.005000	3.437100	-10.327000	25.682425	0.000683	20.672660
1600.419907	-3.000400	3.437000	-10.312000	25.667770	0.000682	20.681649
1601.420379	-2.993800	3.436100	-10.285000	25.701637	0.000682	20.682000
1602.419827	-2.981600	3.435800	-10.243000	25.742469	0.000682	20.689822
1603.420947	-2.993100	3.434400	-10.278000	25.747165	0.000681	20.666562
1604.422162	-2.994300	3.434600	-10.283000	25.762024	0.000682	20.677695
1605.423937	-2.973000	3.434400	-10.209000	25.778176	0.000682	20.674479
1606.422797	-2.986000	3.434600	-10.255000	25.778230	0.000680	20.686862
1607.422743	-2.993100	3.432500	-10.272000	25.762357	0.000680	20.688936
1608.425226	-3.009000	3.431500	-10.324000	25.752202	0.000677	20.669725
1609.422784	-3.003000	3.432500	-10.307000	25.771605	0.000678	20.674043
1610.422021	-2.970900	3.433500	-10.198000	25.774565	0.000678	20.694087
1611.425707	-3.004000	3.430900	-10.306000	25.763367	0.000676	20.688055
1612.423645	-2.995000	3.432200	-10.278000	25.716511	0.000678	20.706425
1613.423831	-2.989100	3.432300	-10.259000	25.666180	0.000676	20.685268
1614.426128	-3.005800	3.430500	-10.310000	25.658602	0.000675	20.689036
1615.424606	-2.992500	3.430500	-10.265000	25.645884	0.000674	20.672943
1616.424569	-2.969900	3.432300	-10.193000	25.676471	0.000676	20.678060
1617.426138	-2.991500	3.428700	-10.255000	25.625116	0.000674	20.690967
1618.422974	-2.972400	3.430100	-10.194000	25.619750	0.000675	20.691268
1619.425362	-3.002400	3.429800	-10.296000	25.576636	0.000675	20.688744
1620.428948	-2.995300	3.428700	-10.270000	25.565313	0.000674	20.695391
1621.426762	-2.999900	3.427900	-10.282000	25.539522	0.000672	20.669962
1622.427511	-2.993600	3.427700	-10.261000	25.516687	0.000672	20.677850
1623.430348	-2.991300	3.427900	-10.253000	25.529139	0.000674	20.676131
1624.428010	-2.993900	3.427500	-10.261000	25.526877	0.000671	20.672911
1625.428412	-3.018600	3.426100	-10.341000	25.527653	0.000673	20.714945
1626.429608	-2.978100	3.427400	-10.206000	25.566767	0.000669	20.682152
1627.427773	-2.988300	3.427700	-10.242000	25.575418	0.000671	20.680882
1628.427477	-2.991900	3.425800	-10.248000	25.629789	0.000671	20.689022
1629.431224	-2.993600	3.425600	-10.252000	25.646017	0.000670	20.704373
1630.429081	-2.985300	3.425400	-10.225000	25.637647	0.000670	20.702605
1631.428106	-2.968200	3.425300	-10.166000	25.651962	0.000669	20.686635
1632.430677	-3.001300	3.424600	-10.277000	25.645160	0.000668	20.694977
1633.431981	-2.971900	3.423900	-10.174000	25.595588	0.000668	20.703986
1634.427733	-3.003200	3.423900	-10.282000	25.576983	0.000667	20.697154
1635.430662	-2.966800	3.424700	-10.159000	25.606156	0.000667	20.675717
1636.433122	-2.981100	3.423300	-10.204000	25.618086	0.000667	20.693864
1637.430964	-3.000600	3.423000	-10.269000	25.672283	0.000666	20.683811
1638.430614	-2.988300	3.423100	-10.227000	25.705132	0.000667	20.687407
1639.435936	-2.986700	3.422300	-10.220000	25.726330	0.000667	20.694949
1640.430346	-3.009700	3.421500	-10.296000	25.773736	0.000664	20.703687
1641.431750	-2.989300	3.421600	-10.226000	25.806882	0.000664	20.678184
1642.436304	-2.973400	3.422500	-10.175000	25.805342	0.000665	20.698451
1643.431582	-2.972500	3.421200	-10.167000	25.776105	0.000663	20.691367
1644.431989	-2.991900	3.420100	-10.231000	25.739762	0.000663	20.691845
1645.435154	-2.978900	3.419800	-10.186000	25.709919	0.000661	20.690319
1646.433124	-2.988200	3.418800	-10.215000	25.687991	0.000662	20.699116
1647.433778	-2.981900	3.419400	-10.195000	25.715868	0.000661	20.696769
1648.442251	-3.002200	3.419700	-10.264000	25.740272	0.000664	20.713696
1649.437070	-3.008500	3.418300	-10.283000	25.779382	0.000660	20.703669
1650.435009	-2.988900	3.417900	-10.214000	25.775282	0.000660	20.695756
1651.438767	-3.003600	3.418000	-10.266000	25.810713	0.000661	20.710485
1652.435007	-2.981800	3.417400	-10.189000	25.812852	0.000662	20.686078
1653.435526	-2.978800	3.417400	-10.178000	25.821328	0.000661	20.694594
1654.437133	-3.012100	3.417100	-10.292000	25.822174	0.000660	20.722946
1655.434959	-2.997000	3.416100	-10.237000	25.803150	0.000658	20.690083
1656.436081	-2.993100	3.415300	-10.221000	25.825285	0.000656	20.707105
1657.439990	-2.997500	3.416300	-10.240000	25.801861	0.000659	20.724827
1658.437098	-2.993400	3.416200	-10.225000	25.784597	0.000657	20.698949
1659.437673	-2.968600	3.415100	-10.137000	25.726014	0.000659	20.706961
1660.440651	-2.982500	3.415000	-10.183000	25.745520	0.000656	20.672023
1661.437509	-3.008800	3.414200	-10.271000	25.756530	0.000654	20.709163
1662.439194	-3.007500	3.412700	-10.264000	25.748579	0.000656	20.715402
1663.439692	-3.006100	3.414200	-10.262000	25.732632	0.000655	20.706495
1664.439192	-2.992100	3.414400	-10.215000	25.713803	0.000654	20.705127
1665.439292	-2.994800	3.414100	-10.223000	25.700236	0.000655	20.714734
1666.441927	-3.002900	3.412300	-10.245000	25.668188	0.000656	20.698666
1667.440077	-3.001300	3.412500	-10.240000	25.638594	0.000655	20.697866
1668.441200	-2.992100	3.411300	-10.206000	25.644111	0.000651	20.723323
1669.444734	-2.977600	3.412200	-10.159000	25.624809	0.000651	20.706781
1670.442565	-3.018300	3.409700	-10.290000	25.644888	0.000653	20.697549
1671.443315	-2.997200	3.411200	-10.223000	25.619493	0.000650	20.722780
1672.446095	-2.999100	3.409900	-10.226000	25.637310	0.000652	20.699421
1673.443945	-3.003500	3.410900	-10.244000	25.645507	0.000650	20.715242
1674.443290	-3.006100	3.409900	-10.249000	25.675057	0.000650	20.727378
1675.444739	-2.978900	3.410400	-10.158000	25.710959	0.000651	20.732144
1676.443962	-3.000300	3.409000	-10.227000	25.744578	0.000649	20.711858
1677.445258	-2.997800	3.409600	-10.220000	25.762093	0.000649	20.735142
1678.450493	-3.000800	3.408300	-10.226000	25.813746	0.000648	20.709264
1679.442531	-2.992700	3.408400	-10.199000	25.848405	0.000649	20.711363
1680.444343	-2.998500	3.407900	-10.218000	25.861424	0.000648	20.714485
1681.446770	-3.006400	3.407500	-10.244000	25.858395	0.000648	20.737996
1682.444532	-2.976800	3.408900	-10.145000	25.862348	0.000647	20.731535
1683.448825	-3.002100	3.406400	-10.225000	25.850450	0.000648	20.743765
1684.450346	-3.002700	3.407000	-10.228000	25.819498	0.000645	20.733535
1685.449314	-3.003100	3.405200	-10.224000	25.796049	0.000643	20.716617
1686.445042	-3.017100	3.404600	-10.271000	25.758659	0.000647	20.715570
1687.449564	-2.995700	3.404800	-10.199000	25.713642	0.000645	20.737210
1688.449192	-3.003800	3.405600	-10.228000	25.731683	0.000645	20.716449
1689.446210	-3.014200	3.404000	-10.259000	25.748353	0.000643	20.728452
1690.450317	-3.016000	3.403400	-10.264000	25.747860	0.000643	20.735070
1691.455729	-3.000700	3.404000	-10.213000	25.737972	0.000642	20.735095
1692.446454	-2.995100	3.403500	-10.193000	25.737952	0.000643	20.694295
1693.449915	-2.993500	3.403000	-10.185000	25.755644	0.000641	20.725344
1694.451245	-3.002500	3.402900	-10.215000	25.774452	0.000641	20.739021
1695.447502	-2.996800	3.401700	-10.194000	25.765389	0.000641	20.744617
1696.450389	-2.975900	3.402100	-10.124000	25.748966	0.000640	20.738551
1697.450233	-2.983800	3.401700	-10.149000	25.747776	0.000640	20.750633
1698.447542	-3.014400	3.400400	-10.249000	25.761991	0.000640	20.733616
1699.451454	-3.006800	3.401500	-10.227000	25.785367	0.000641	20.727225
1700.452314	-3.004800	3.401900	-10.221000	25.791089	0.000638	20.752415
1701.449071	-2.990600	3.400400	-10.169000	25.779736	0.000637	20.722517
1702.453648	-3.012600	3.400600	-10.244000	25.797530	0.000638	20.753195
1703.449327	-3.013500	3.398900	-10.242000	25.802599	0.000638	20.729837
1704.446715	-3.004000	3.397900	-10.206000	25.793282	0.000636	20.746556
1705.451604	-3.008300	3.399300	-10.225000	25.791452	0.000638	20.722906
1706.449173	-3.000600	3.399300	-10.199000	25.816966	0.000637	20.722931
1707.448490	-3.002600	3.398700	-10.204000	25.803237	0.000636	20.739961
1708.451345	-2.988600	3.397400	-10.153000	25.788305	0.000635	20.720692
1709.448169	-3.022700	3.397400	-10.268000	25.774723	0.000635	20.739294
1710.449917	-3.034700	3.396400	-10.306000	25.775819	0.000633	20.737076
1711.453031	-2.981200	3.398200	-10.130000	25.775549	0.000633	20.742968
1712.450155	-3.006600	3.395400	-10.208000	25.767853	0.000635	20.739979
1713.451233	-2.993300	3.396800	-10.167000	25.739633	0.000632	20.747669
1714.452785	-2.983300	3.396300	-10.130000	25.727344	0.000634	20.743861
1715.451159	-2.995900	3.396200	-10.173000	25.743640	0.000633	20.742685
1716.450871	-2.976800	3.397900	-10.112000	25.759305	0.000634	20.758895
1717.454619	-2.977000	3.395800	-10.108000	25.783675	0.000631	20.742121
1718.451913	-3.005100	3.395200	-10.202000	25.816549	0.000632	20.777041
1719.451493	-2.979800	3.396400	-10.119000	25.848031	0.000630	20.756983
1720.453866	-2.976000	3.395300	-10.104000	25.860923	0.000631	20.752389
1721.450034	-3.013500	3.393300	-10.225000	25.881597	0.000629	20.759882
1722.452858	-2.996300	3.393300	-10.166000	25.908436	0.000629	20.762662
1723.454949	-2.991500	3.392900	-10.149000	25.928657	0.000629	20.738879
1724.454413	-3.014600	3.391600	-10.223000	25.962913	0.000629	20.749588
1725.453301	-2.967100	3.393600	-10.068000	25.992828	0.000628	20.755460
1726.457469	-3.005100	3.391600	-10.189000	26.033891	0.000628	20.757361
1727.454494	-3.006900	3.391400	-10.195000	26.018243	0.000627	20.753494
1728.453908	-2.990100	3.391500	-10.140000	26.039465	0.000626	20.725976
1729.458106	-3.006100	3.391100	-10.194000	26.016394	0.000626	20.764438
1730.455036	-2.991300	3.390200	-10.140000	26.006434	0.000625	20.762018
1731.455592	-2.999300	3.390000	-10.166000	26.032474	0.000624	20.744557
1732.459780	-2.989200	3.390700	-10.134000	26.001700	0.000624	20.742562
1733.460961	-2.999200	3.390600	-10.168000	25.933094	0.000625	20.743811
1734.458000	-3.006100	3.389500	-10.188000	25.918467	0.000623	20.752351
1735.461658	-3.010000	3.388900	-10.199000	25.929254	0.000624	20.767929
1736.460416	-3.019700	3.388600	-10.232000	25.930252	0.000622	20.750439
1737.459500	-3.016000	3.387600	-10.215000	25.944986	0.000622	20.764768
1738.462565	-2.997000	3.388900	-10.155000	25.945388	0.000624	20.737671
1739.464850	-3.008100	3.387800	-10.189000	25.958210	0.000621	20.769045
1740.460442	-2.988600	3.388800	-10.127000	25.954886	0.000621	20.743894
1741.463461	-2.992800	3.388200	-10.139000	25.966990	0.000620	20.747993
1742.464584	-3.011700	3.387300	-10.200000	25.945953	0.000622	20.757679
1743.460366	-2.999800	3.387200	-10.160000	25.898111	0.000618	20.766989
1744.462344	-2.989400	3.386900	-10.124000	25.882688	0.000618	20.757185
1745.465468	-2.997500	3.386000	-10.147000	25.900009	0.000619	20.791655
1746.462030	-2.992300	3.385700	-10.130000	25.916454	0.000620	20.760286
1747.464923	-3.007900	3.385000	-10.181000	25.908219	0.000619	20.761496
1748.464927	-2.985000	3.385800	-10.104000	25.891080	0.000617	20.772728
1749.465449	-2.998200	3.384700	-10.147000	25.839882	0.000618	20.783411
1750.467360	-2.997600	3.385200	-10.145000	25.811940	0.000616	20.768618
1751.470789	-3.005100	3.384700	-10.171000	25.796889	0.000617	20.764879
1752.465221	-3.005000	3.383100	-10.166000	25.768473	0.000617	20.776165
1753.470846	-3.005300	3.383400	-10.167000	25.777894	0.000616	20.770929
1754.467851	-2.999500	3.382900	-10.147000	25.776782	0.000614	20.774554
1755.465573	-2.999200	3.382800	-10.144000	25.774427	0.000615	20.780723
1756.467616	-2.973600	3.383600	-10.059000	25.751075	0.000614	20.767224
1757.473479	-2.992100	3.383300	-10.122000	25.743601	0.000614	20.771096
1758.464684	-2.962800	3.383300	-10.023000	25.780824	0.000615	20.764389
1759.468902	-3.007200	3.380500	-10.165000	25.811933	0.000612	20.771931
1760.468379	-3.010800	3.380500	-10.177000	25.815763	0.000612	20.773882
1761.463756	-3.006800	3.379900	-10.162000	25.800688	0.000611	20.777230
1762.468176	-3.010300	3.380800	-10.176000	25.804164	0.000611	20.782145
1763.469545	-2.981700	3.381200	-10.081000	25.774313	0.000609	20.784402
1764.468444	-2.993500	3.380100	-10.118000	25.751935	0.000612	20.756233
1765.469845	-2.993800	3.381000	-10.121000	25.704778	0.000609	20.796112
1766.478632	-3.004600	3.378900	-10.152000	25.731489	0.000609	20.803501
1767.468915	-2.982500	3.379400	-10.079000	25.778895	0.000609	20.770038
1768.474034	-3.001000	3.378700	-10.139000	25.809808	0.000607	20.784969
1769.469506	-3.000900	3.378800	-10.138000	25.823472	0.000608	20.772616
1770.468280	-3.007900	3.378800	-10.162000	25.841414	0.000608	20.789691
1771.470866	-3.008700	3.376700	-10.157000	25.832499	0.000610	20.779788
1772.472833	-3.017000	3.376800	-10.187000	25.859281	0.000609	20.807165
1773.469289	-3.015100	3.377600	-10.181000	25.886814	0.000605	20.792625
1774.472253	-3.000900	3.377300	-10.135000	25.894936	0.000606	20.758109
1775.474243	-3.005500	3.375600	-10.144000	25.913103	0.000606	20.780627
1776.470970	-2.991600	3.375300	-10.096000	25.924981	0.000605	20.791138
1777.473398	-2.984400	3.375300	-10.072000	25.925752	0.000604	20.795232
1778.476636	-2.972500	3.376400	-10.035000	25.964857	0.000602	20.796111
1779.471794	-3.008100	3.375000	-10.151000	25.988159	0.000603	20.789177
1780.477594	-2.996400	3.375200	-10.113000	26.001177	0.000601	20.786134
1781.475598	-3.006600	3.374200	-10.143000	25.999486	0.000605	20.782538
1782.472239	-2.974800	3.375500	-10.040000	25.996590	0.000601	20.783897
1783.482514	-2.975200	3.375700	-10.042000	26.044629	0.000602	20.791384
1784.479422	-2.997400	3.372700	-10.108000	26.022203	0.000602	20.814371
1785.474383	-3.016100	3.371800	-10.169000	26.006933	0.000600	20.767735
1786.478289	-3.002500	3.372400	-10.124000	25.998144	0.000602	20.803949
1787.480085	-2.988500	3.373800	-10.081000	26.011736	0.000602	20.802907
1788.476182	-3.026200	3.371700	-10.202000	26.023166	0.000600	20.800166
1789.478611	-3.003700	3.371700	-10.126000	26.008782	0.000600	20.804680
1790.478225	-3.001000	3.371800	-10.117000	25.991925	0.000597	20.808607
1791.475091	-3.024500	3.369200	-10.189000	25.976748	0.000598	20.799050
1792.478474	-2.994500	3.371700	-10.095000	25.962369	0.000597	20.795982
1793.478171	-2.973700	3.372200	-10.027000	25.916765	0.000596	20.816549
1794.475965	-2.982700	3.371100	-10.054000	25.901592	0.000598	20.797514
1795.478037	-2.996800	3.370400	-10.099000	25.865947	0.000598	20.800111
1796.478913	-2.995600	3.370000	-10.094000	25.835021	0.000598	20.831158
1797.476621	-3.007100	3.369000	-10.130000	25.823924	0.000594	20.793458
1798.481948	-3.003800	3.369100	-10.119000	25.807899	0.000596	20.811027
1799.484046	-2.984500	3.368100	-10.051000	25.788674	0.000593	20.806888
1800.484886	-3.010300	3.367800	-10.137000	25.770712	0.000593	20.811605
1801.485012	-3.000600	3.369100	-10.108000	25.773328	0.000590	20.807120
1802.483389	-2.999700	3.367500	-10.101000	25.736361	0.000594	20.801282
1803.480967	-3.011200	3.366600	-10.137000	25.711243	0.000593	20.809718
1804.480210	-3.015100	3.367000	-10.151000	25.731994	0.000592	20.812069
1805.483995	-2.998400	3.368100	-10.096000	25.714902	0.000592	20.797746
1806.483078	-2.993500	3.366400	-10.076000	25.724023	0.000591	20.814968
1807.483949	-3.017400	3.364700	-10.151000	25.734241	0.000590	20.801524
1808.484673	-3.013200	3.365600	-10.140000	25.682904	0.000587	20.807807
1809.481641	-2.987900	3.365500	-10.055000	25.702269	0.000591	20.813980
1810.486974	-2.997400	3.365900	-10.088000	25.715290	0.000590	20.802403
1811.484505	-3.004300	3.364300	-10.106000	25.745182	0.000589	20.817729
1812.485021	-3.003100	3.365800	-10.107000	25.779371	0.000587	20.807026
1813.486368	-2.999400	3.363700	-10.088000	25.832966	0.000589	20.805387
1814.491415	-3.003700	3.364000	-10.103000	25.872270	0.000586	20.807412
1815.486117	-2.991300	3.363100	-10.059000	25.914779	0.000583	20.810760
1816.487350	-3.009700	3.363100	-10.121000	25.936042	0.000586	20.770008
1817.486915	-3.001500	3.362600	-10.092000	25.971764	0.000584	20.812534
1818.486321	-3.020400	3.362200	-10.154000	25.996413	0.000586	20.790357
1819.484821	-2.993600	3.361900	-10.063000	26.033421	0.000585	20.790081
1820.487718	-2.989000	3.363300	-10.051000	26.011973	0.000584	20.796981
1821.486254	-2.998600	3.362100	-10.080000	26.011678	0.000582	20.792417
1822.489190	-3.013600	3.360900	-10.127000	26.014711	0.000582	20.775550
1823.487823	-3.015100	3.360600	-10.132000	25.993724	0.000580	20.794294
1824.487484	-2.983200	3.361400	-10.027000	25.981061	0.000579	20.777777
1825.487705	-3.008300	3.360900	-10.109000	26.001959	0.000582	20.803041
1826.489051	-2.983800	3.361200	-10.028000	26.010552	0.000582	20.791286
1827.489603	-2.984700	3.360100	-10.027000	26.044315	0.000580	20.783008
1828.490839	-2.992100	3.358300	-10.047000	26.034587	0.000578	20.777975
1829.491138	-3.012000	3.358300	-10.114000	26.050258	0.000579	20.789928
1830.492841	-3.007800	3.359200	-10.102000	26.030865	0.000579	20.782297
1831.491604	-3.010100	3.358300	-10.107000	25.992167	0.000578	20.766650
1832.491388	-3.000300	3.357400	-10.072000	25.951913	0.000575	20.783108
1833.492475	-3.003800	3.357300	-10.083000	25.926078	0.000577	20.765687
1834.493150	-3.015000	3.357700	-10.123000	25.941904	0.000579	20.760723
1835.493371	-3.004000	3.357500	-10.085000	25.962680	0.000576	20.766898
1836.493479	-3.005000	3.356100	-10.084000	25.959524	0.000576	20.771787
1837.494382	-3.001900	3.357300	-10.076000	25.934117	0.000575	20.783720
1838.498719	-3.005200	3.355500	-10.082000	25.943064	0.000577	20.772321
1839.493080	-3.031000	3.356200	-10.172000	25.984921	0.000576	20.784501
1840.495471	-3.027800	3.354500	-10.155000	26.013646	0.000574	20.751246
1841.497550	-2.980200	3.356200	-10.001000	26.007585	0.000572	20.792572
1842.495839	-3.016100	3.353900	-10.115000	26.032602	0.000575	20.779301
1843.496932	-2.994600	3.355100	-10.046000	26.024988	0.000573	20.763589
1844.498680	-2.994200	3.354100	-10.041000	26.035237	0.000573	20.766301
1845.495837	-2.986600	3.353900	-10.016000	26.052458	0.000571	20.777439
1846.497192	-3.004600	3.354200	-10.077000	26.024791	0.000572	20.773349
1847.496813	-3.009500	3.352700	-10.088000	25.992110	0.000573	20.752368
1848.497517	-2.990300	3.353500	-10.027000	25.963896	0.000572	20.754842
1849.498861	-2.986900	3.352400	-10.012000	25.923980	0.000571	20.769744
1850.496529	-3.000900	3.352400	-10.058000	25.894369	0.000570	20.762281
1851.499183	-3.010700	3.352600	-10.093000	25.832522	0.000568	20.756576
1852.498454	-2.992500	3.353700	-10.035000	25.818637	0.000567	20.755905
1853.497037	-3.008200	3.350600	-10.078000	25.811262	0.000569	20.756557
1854.502462	-3.014200	3.350600	-10.098000	25.808533	0.000566	20.757609
1855.501931	-2.977000	3.351300	-9.975800	25.815496	0.000568	20.761284
1856.502795	-3.031600	3.349500	-10.154000	25.839996	0.000568	20.747963
1857.499246	-3.012400	3.348800	-10.087000	25.834165	0.000564	20.742105
1858.501110	-2.999200	3.349100	-10.044000	25.847505	0.000564	20.743177
1859.501017	-3.011900	3.349100	-10.085000	25.843832	0.000567	20.761774
1860.503043	-3.024300	3.347900	-10.124000	25.887679	0.000565	20.768363
1861.502533	-2.991100	3.349300	-10.018000	25.907881	0.000564	20.741716
1862.499912	-3.011300	3.347600	-10.080000	25.925969	0.000564	20.739498
1863.501678	-3.005000	3.350000	-10.066000	25.966612	0.000565	20.758994
1864.503997	-3.000400	3.348200	-10.045000	25.970245	0.000563	20.742729
1865.500349	-2.984400	3.347400	-9.987900	25.958201	0.000563	20.743430
1866.500758	-2.989000	3.347700	-10.005000	25.978702	0.000561	20.757863
1867.501999	-3.002800	3.345600	-10.045000	25.960399	0.000562	20.735681
1868.499928	-3.020500	3.345200	-10.103000	25.953693	0.000561	20.730366
1869.498983	-3.003700	3.346500	-10.051000	25.941157	0.000562	20.744325
1870.502954	-2.980400	3.346900	-9.973200	25.971608	0.000558	20.748840
1871.501776	-2.993200	3.346300	-10.015000	25.999734	0.000560	20.747699
1872.503264	-2.982000	3.345100	-9.974200	25.984140	0.000560	20.749576
1873.505130	-2.970800	3.347100	-9.942200	26.004591	0.000560	20.733139
1874.503336	-3.006700	3.343500	-10.052000	26.024958	0.000558	20.735109
1875.502177	-3.010300	3.344000	-10.065000	26.036167	0.000559	20.733569
1876.506693	-3.034100	3.342300	-10.139000	26.075440	0.000558	20.735095
1877.503905	-2.976600	3.343500	-9.951200	26.073454	0.000557	20.742583
1878.505322	-2.986300	3.343300	-9.983700	26.054607	0.000555	20.731233
1879.506763	-3.002000	3.342600	-10.034000	26.042298	0.000557	20.730246
1880.503867	-3.000100	3.343200	-10.029000	26.015398	0.000555	20.715072
1881.507451	-3.007600	3.342000	-10.051000	25.962289	0.000556	20.737106
1882.508185	-2.990900	3.344000	-10.000000	25.910231	0.000556	20.758775
1883.505693	-3.007900	3.342200	-10.052000	25.915772	0.000554	20.728305
1884.503253	-3.001700	3.341400	-10.029000	25.880831	0.000555	20.740619
1885.504829	-3.017900	3.340600	-10.080000	25.868411	0.000551	20.717236
1886.504485	-2.996200	3.340700	-10.009000	25.858799	0.000552	20.747885
1887.505999	-3.006900	3.340500	-10.043000	25.915664	0.000553	20.753329
1888.506796	-2.993300	3.341600	-10.000000	25.961573	0.000552	20.723584
1889.504886	-3.001600	3.340600	-10.026000	25.987929	0.000550	20.749116
1890.504593	-3.005300	3.339900	-10.037000	25.978220	0.000552	20.726084
1891.514543	-2.991800	3.341000	-9.994800	25.950945	0.000549	20.726182
1892.505602	-3.018500	3.339600	-10.080000	25.939598	0.000550	20.738492
1893.504685	-3.000800	3.338800	-10.019000	25.932224	0.000549	20.728238
1894.508162	-3.005600	3.338400	-10.032000	25.898817	0.000548	20.723126
1895.504445	-3.005700	3.339300	-10.035000	25.909176	0.000547	20.737326
1896.506394	-3.003700	3.337400	-10.022000	25.899191	0.000547	20.759539
1897.510782	-2.993400	3.337600	-9.989400	25.946014	0.000547	20.730713
1898.506754	-2.987100	3.337600	-9.968200	25.978934	0.000547	20.737707
1899.508337	-3.005800	3.336300	-10.027000	25.995624	0.000546	20.716542
1900.512862	-2.997000	3.336500	-9.998400	25.971260	0.000545	20.741851
1901.510350	-2.974400	3.337200	-9.923900	26.010977	0.000547	20.732442
1902.511896	-3.007800	3.334900	-10.029000	26.027898	0.000542	20.730476
1903.515075	-2.984700	3.335700	-9.954400	26.041756	0.000544	20.710733
1904.513055	-3.016400	3.335500	-10.060000	26.029584	0.000545	20.743076
1905.512161	-2.976600	3.334600	-9.924500	26.043245	0.000543	20.736888
1906.512133	-3.023500	3.334200	-10.080000	26.050452	0.000543	20.707143
1907.512022	-3.012800	3.334100	-10.045000	26.030233	0.000543	20.738513
1908.510362	-3.007200	3.332900	-10.021000	26.014016	0.000542	20.725063
1909.516464	-3.011000	3.332700	-10.035000	26.019379	0.000542	20.733297
1910.512929	-3.008600	3.332600	-10.026000	25.978969	0.000541	20.740113
1911.514247	-2.997300	3.332300	-9.986600	25.945386	0.000540	20.729607
1912.516020	-2.976800	3.333300	-9.921800	25.925583	0.000541	20.734369
1913.513065	-2.983100	3.332400	-9.939700	25.887707	0.000540	20.728086
1914.511100	-3.008600	3.331700	-10.023000	25.857996	0.000538	20.707247
1915.517447	-2.987000	3.331600	-9.951000	25.879830	0.000537	20.723967
1916.512792	-2.986100	3.332100	-9.949100	25.938086	0.000538	20.729859
1917.513774	-3.013200	3.330300	-10.034000	25.949639	0.000538	20.736725
1918.516516	-2.993800	3.331500	-9.972900	25.969781	0.000536	20.723295
1919.513994	-3.005400	3.330600	-10.008000	25.948120	0.000535	20.744682
1920.513604	-3.000200	3.328600	-9.984800	25.953611	0.000539	20.726965
1921.517030	-3.018600	3.328800	-10.047000	25.947530	0.000537	20.727968
1922.514466	-3.015800	3.328300	-10.036000	25.962903	0.000535	20.716385
1923.512370	-2.989000	3.329000	-9.949900	25.989406	0.000533	20.729736
1924.521664	-2.996900	3.328600	-9.974600	26.036207	0.000533	20.710848
1925.516167	-3.009200	3.328600	-10.016000	26.054617	0.000533	20.726027
1926.515870	-2.987400	3.328900	-9.943000	26.110056	0.000533	20.718668
1927.519534	-2.985200	3.327600	-9.931900	26.096371	0.000533	20.703019
1928.518639	-2.982700	3.327200	-9.923100	26.103794	0.000533	20.722807
1929.516915	-3.007800	3.326800	-10.005000	26.111049	0.000533	20.733891
1930.521103	-2.983000	3.326900	-9.923800	26.139141	0.000530	20.732720
1931.519730	-2.982400	3.327900	-9.923700	26.120143	0.000531	20.722165
1932.519619	-3.013100	3.325800	-10.019000	26.112789	0.000529	20.719043
1933.522419	-3.011600	3.325500	-10.013000	26.080111	0.000529	20.750695
1934.518636	-2.994300	3.325700	-9.957000	26.076586	0.000530	20.713487
1935.521077	-2.999800	3.325700	-9.975200	26.074797	0.000529	20.706473
1936.525893	-2.983000	3.324500	-9.915100	26.028972	0.000528	20.730607
1937.522527	-2.999900	3.324700	-9.973700	26.015512	0.000527	20.731309
1938.520558	-2.999200	3.324400	-9.967800	25.975078	0.000528	20.709175
1939.522414	-3.007100	3.323500	-9.992400	25.950418	0.000527	20.707635
1940.520998	-3.018600	3.322400	-10.028000	25.927838	0.000525	20.704389
1941.519413	-3.021500	3.322400	-10.037000	25.894952	0.000524	20.716872
1942.525909	-2.988300	3.322200	-9.927100	25.922867	0.000523	20.692757
1943.524601	-2.997500	3.321100	-9.953200	25.933777	0.000525	20.714150
1944.522228	-2.984700	3.321900	-9.914100	25.999065	0.000523	20.683012
1945.525583	-2.997300	3.320400	-9.951600	26.006616	0.000523	20.699134
1946.525405	-2.991800	3.321800	-9.937600	25.986470	0.000521	20.702128
1947.522099	-2.981400	3.321500	-9.902300	25.986377	0.000523	20.710096
1948.532005	-3.001400	3.319300	-9.961700	25.992370	0.000521	20.699046
1949.529230	-3.003800	3.320500	-9.973700	26.025297	0.000521	20.701308
1950.525591	-3.006600	3.320100	-9.980400	25.982557	0.000520	20.717639
1951.528164	-3.009100	3.319400	-9.987900	25.952426	0.000519	20.697797
1952.528236	-2.995900	3.319600	-9.943500	25.966088	0.000520	20.698246
1953.524364	-3.017700	3.319200	-10.015000	25.986338	0.000518	20.712902
1954.527326	-3.010200	3.318300	-9.987900	26.022732	0.000519	20.684505
1955.526248	-3.007400	3.319200	-9.981600	26.064463	0.000519	20.701305
1956.525303	-2.995600	3.318600	-9.939700	26.079067	0.000518	20.680415
1957.528347	-3.002700	3.318000	-9.962600	26.057861	0.000517	20.679971
1958.527576	-2.999800	3.318600	-9.953900	26.083320	0.000518	20.693698
1959.527793	-2.990000	3.317500	-9.918300	26.097158	0.000516	20.688161
1960.529600	-2.995900	3.317500	-9.938200	26.119833	0.000518	20.691031
1961.531257	-2.997400	3.315700	-9.937300	26.152595	0.000514	20.698821
1962.528068	-3.000800	3.315100	-9.946400	26.175673	0.000514	20.700674
1963.531761	-2.993300	3.316100	-9.924600	26.207483	0.000513	20.698026
1964.527714	-2.979800	3.315900	-9.879800	26.198548	0.000512	20.693788
1965.529540	-2.997900	3.315500	-9.939100	26.216410	0.000514	20.675226
1966.530486	-2.998900	3.312800	-9.934100	26.246033	0.000512	20.705471
1967.529344	-2.993900	3.314800	-9.923400	26.281376	0.000512	20.690252
1968.529291	-2.999600	3.312900	-9.936000	26.269605	0.000514	20.685061
1969.528652	-2.988300	3.314700	-9.904600	26.216508	0.000510	20.693819
1970.528914	-2.978600	3.313300	-9.867600	26.191437	0.000510	20.705610
1971.530111	-2.974700	3.313500	-9.855700	26.181877	0.000509	20.694106
1972.530395	-2.992200	3.313600	-9.912900	26.195016	0.000508	20.685971
1973.533412	-2.969300	3.312900	-9.835600	26.203264	0.000509	20.689043
1974.530702	-2.990700	3.313000	-9.906500	26.186749	0.000508	20.700898
1975.531106	-2.986100	3.313300	-9.892700	26.170588	0.000509	20.691771
1976.532516	-2.978000	3.312100	-9.861700	26.159091	0.000510	20.689227
1977.532037	-3.009400	3.310600	-9.961200	26.176905	0.000508	20.688635
1978.532777	-3.002800	3.310600	-9.939100	26.245347	0.000507	20.692927
1979.532779	-3.011400	3.310900	-9.968500	26.251187	0.000506	20.699270
1980.533350	-2.997700	3.310800	-9.923300	26.285703	0.000504	20.686066
1981.533577	-2.983800	3.309400	-9.872000	26.279845	0.000505	20.684446
1982.533341	-3.010700	3.310400	-9.965800	26.308699	0.000503	20.672191
1983.540447	-3.004300	3.309200	-9.940200	26.315212	0.000503	20.693437
1984.532952	-2.991200	3.310100	-9.900100	26.331627	0.000503	20.692390
1985.534289	-2.995000	3.309500	-9.910300	26.321198	0.000500	20.664363
1986.541583	-3.005200	3.307800	-9.939900	26.327386	0.000501	20.694766
1987.534052	-2.988300	3.308300	-9.884100	26.325174	0.000498	20.671204
1988.534341	-3.007100	3.306500	-9.941400	26.304101	0.000500	20.666147
1989.534596	-2.998600	3.306700	-9.914800	26.330866	0.000500	20.683564
1990.535214	-3.010500	3.307300	-9.955900	26.293672	0.000499	20.695024
1991.534517	-2.996000	3.306200	-9.903700	26.274401	0.000499	20.677552
1992.533861	-3.011900	3.306000	-9.956000	26.245625	0.000498	20.687990
1993.535782	-3.000800	3.305700	-9.919200	26.246348	0.000499	20.665955
1994.536986	-2.990900	3.306300	-9.888100	26.261373	0.000496	20.673468
1995.535364	-3.003300	3.305200	-9.925900	26.258823	0.000496	20.678967
1996.535638	-2.991500	3.306600	-9.890200	26.295049	0.000496	20.673646
1997.534655	-2.998600	3.305100	-9.908100	26.297984	0.000495	20.677544
1998.539271	-2.998200	3.304600	-9.906900	26.287904	0.000496	20.675000
1999.537918	-3.015400	3.302700	-9.958100	26.291575	0.000494	20.669680
2000.536130	-2.998000	3.303300	-9.902800	26.323363	0.000494	20.682662
2001.537703	-2.999700	3.303300	-9.907700	26.309533	0.000494	20.664020
2002.537000	-2.987900	3.304600	-9.871700	26.299031	0.000492	20.681442
2003.538519	-2.989800	3.302700	-9.873000	26.281397	0.000492	20.673676
2004.541251	-2.994800	3.301500	-9.886000	26.290072	0.000493	20.678128
2005.538278	-2.964800	3.302000	-9.787200	26.279122	0.000492	20.656216
2006.542258	-2.990500	3.302900	-9.875900	26.313485	0.000493	20.660404
2007.540344	-3.014200	3.301200	-9.949900	26.353318	0.000490	20.663452
2008.540278	-2.994500	3.301000	-9.884200	26.346516	0.000491	20.664203
2009.541481	-2.993500	3.300900	-9.880400	26.326431	0.000491	20.676735
2010.539649	-3.005100	3.299000	-9.912100	26.304777	0.000490	20.676785
2011.539805	-2.999400	3.300000	-9.897300	26.275628	0.000490	20.647488
2012.541604	-3.024800	3.298200	-9.975500	26.261798	0.000489	20.649711
2013.541032	-2.999800	3.300000	-9.898900	26.275598	0.000487	20.660736
2014.542255	-3.005800	3.298100	-9.912300	26.279054	0.000489	20.639550
2015.541674	-3.016300	3.296800	-9.943200	26.295603	0.000487	20.654286
2016.542325	-2.998300	3.297700	-9.885600	26.264782	0.000487	20.673772
2017.540901	-3.019700	3.297100	-9.955100	26.212806	0.000486	20.676820
2018.541927	-2.990900	3.296100	-9.857000	26.168555	0.000485	20.644204
2019.541782	-2.988700	3.297100	-9.852400	26.179678	0.000487	20.656331
2020.541434	-3.000300	3.296200	-9.887500	26.209833	0.000483	20.660081
2021.541851	-3.021000	3.295600	-9.955200	26.231184	0.000483	20.649766
2022.545726	-3.006700	3.295900	-9.908700	26.250859	0.000481	20.673334
2023.543913	-2.993400	3.295800	-9.864300	26.268936	0.000481	20.655388
2024.546504	-2.996500	3.295600	-9.873000	26.242041	0.000482	20.665894
2025.546956	-2.979500	3.295600	-9.818200	26.243506	0.000482	20.663573
2026.545704	-2.990100	3.294400	-9.850300	26.268292	0.000482	20.666670
2027.548809	-2.997000	3.294800	-9.873900	26.287017	0.000479	20.669842
2028.546360	-3.003000	3.292800	-9.887000	26.311448	0.000479	20.649821
2029.548892	-3.006400	3.294000	-9.902100	26.343634	0.000479	20.656090
2030.550195	-3.018400	3.292900	-9.938300	26.327765	0.000480	20.659107
2031.548484	-3.018000	3.292200	-9.934200	26.355134	0.000479	20.666226
2032.548785	-2.982800	3.293200	-9.821600	26.341643	0.000478	20.664521
2033.562769	-2.990600	3.292700	-9.846000	26.343609	0.000479	20.645158
2034.553130	-3.014900	3.289800	-9.917900	26.365783	0.000477	20.631880
2035.549065	-2.979200	3.292200	-9.807000	26.403653	0.000478	20.657142
2036.551449	-3.000500	3.291100	-9.873200	26.391534	0.000478	20.648754
2037.548303	-3.003900	3.290100	-9.882100	26.367400	0.000474	20.660536
2038.549165	-3.006500	3.290300	-9.891500	26.316790	0.000475	20.643335
2039.551105	-2.999200	3.289800	-9.866200	26.275296	0.000476	20.649050
2040.552353	-2.992000	3.290600	-9.843600	26.280516	0.000473	20.657616
2041.549253	-2.999800	3.289600	-9.866700	26.306888	0.000470	20.632434
2042.550426	-3.014400	3.287500	-9.908800	26.290222	0.000470	20.671640
2043.550084	-2.995200	3.287700	-9.846200	26.251194	0.000470	20.665135
2044.549328	-3.011000	3.287800	-9.898900	26.228718	0.000471	20.667679
2045.551127	-3.015300	3.287500	-9.912300	26.218117	0.000469	20.652282
2046.548016	-2.993600	3.288000	-9.840500	26.229613	0.000470	20.684701
2047.554249	-3.007500	3.286600	-9.883900	26.250968	0.000468	20.657320
2048.549577	-3.000500	3.287200	-9.862600	26.291801	0.000468	20.670856
2049.548945	-2.969400	3.287900	-9.761700	26.252782	0.000469	20.647762
2050.548992	-2.984700	3.286700	-9.809100	26.252443	0.000465	20.645525
2051.551690	-2.969900	3.286400	-9.759400	26.244250	0.000467	20.654837
2052.551658	-2.989000	3.286000	-9.820100	26.236769	0.000466	20.646370
2053.549225	-2.982300	3.285400	-9.796800	26.231658	0.000466	20.640758
2054.551658	-3.019400	3.284200	-9.915200	26.310177	0.000465	20.647121
2055.552596	-2.993100	3.284600	-9.830100	26.342112	0.000464	20.632746
2056.550735	-3.008500	3.284700	-9.881400	26.360664	0.000462	20.646178
2057.551793	-3.001500	3.281600	-9.848900	26.437464	0.000462	20.664573
2058.553372	-2.998300	3.284200	-9.846100	26.457872	0.000461	20.643357
2059.554550	-2.991700	3.283500	-9.821900	26.490029	0.000461	20.654343
2060.555985	-2.984000	3.282500	-9.794500	26.506116	0.000460	20.668619
2061.553876	-2.990800	3.282800	-9.817000	26.491493	0.000459	20.643960
2062.554310	-3.004900	3.281800	-9.861100	26.499242	0.000459	20.653173
2063.559893	-3.007700	3.282300	-9.871200	26.506416	0.000458	20.654220
2064.559349	-2.995400	3.281900	-9.829700	26.529260	0.000457	20.640197
2065.556366	-2.998800	3.281000	-9.838400	26.568008	0.000458	20.642162
2066.559698	-2.983600	3.281200	-9.788700	26.575260	0.000455	20.676483
2067.558988	-2.993500	3.281600	-9.822400	26.557066	0.000454	20.638749
2068.556358	-3.001800	3.280000	-9.844900	26.563645	0.000456	20.654374
2069.562059	-3.019000	3.280700	-9.903100	26.573477	0.000454	20.662835
2070.557045	-2.992000	3.280000	-9.811700	26.601208	0.000455	20.659417
2071.557418	-2.995000	3.278800	-9.819500	26.609104	0.000452	20.658820
2072.559358	-2.993100	3.279200	-9.814100	26.642268	0.000452	20.649009
2073.557593	-2.996200	3.277900	-9.819900	26.652620	0.000453	20.662737
2074.560398	-2.999000	3.278500	-9.831700	26.619683	0.000453	20.649064
2075.561258	-2.994400	3.277300	-9.812300	26.626831	0.000452	20.661942
2076.559756	-3.006700	3.277000	-9.851800	26.557475	0.000452	20.661923
2077.555923	-2.994400	3.278200	-9.815000	26.546975	0.000450	20.638089
2078.560638	-3.019500	3.275400	-9.889600	26.520952	0.000449	20.664091
2079.559425	-3.023200	3.275900	-9.903000	26.507082	0.000448	20.663899
2080.557772	-2.991400	3.275900	-9.798800	26.493004	0.000449	20.638366
2081.560250	-2.983900	3.276400	-9.775500	26.521086	0.000450	20.678926
2082.561143	-2.990800	3.274600	-9.792900	26.523371	0.000448	20.658935
2083.558819	-3.001200	3.274700	-9.827100	26.527739	0.000449	20.660007
2084.567398	-2.985500	3.274200	-9.774200	26.577052	0.000445	20.651729
2085.562255	-2.985500	3.274900	-9.775800	26.612698	0.000444	20.656742
2086.562911	-3.002400	3.273800	-9.826700	26.638094	0.000445	20.656194
2087.567601	-3.013200	3.272200	-9.859100	26.646338	0.000444	20.651679
2088.564801	-3.031000	3.272100	-9.916000	26.644108	0.000443	20.655128
2089.561225	-3.013500	3.272400	-9.860500	26.656470	0.000443	20.671824
2090.565847	-3.022600	3.271700	-9.887700	26.667367	0.000442	20.660966
2091.573249	-2.991300	3.273000	-9.789800	26.636139	0.000441	20.666084
2092.562935	-2.988400	3.271500	-9.775400	26.556824	0.000440	20.678339
2093.568166	-2.988500	3.271800	-9.776700	26.526261	0.000441	20.671799
2094.567305	-2.999400	3.270900	-9.809900	26.536142	0.000439	20.654229
2095.564023	-3.004400	3.270200	-9.823200	26.511417	0.000439	20.664464
2096.566698	-3.000700	3.270700	-9.813800	26.503373	0.000440	20.649739
2097.564930	-2.988700	3.270000	-9.772000	26.499698	0.000436	20.656476
2098.564905	-2.995900	3.268800	-9.792000	26.464599	0.000435	20.658655
2099.565214	-2.974900	3.269400	-9.725700	26.422412	0.000434	20.669834
2100.564913	-2.983900	3.269300	-9.754800	26.382410	0.000436	20.677045
2101.566875	-2.986900	3.268000	-9.760200	26.392666	0.000433	20.678819
2102.566080	-2.985200	3.268300	-9.755700	26.428476	0.000433	20.658858
2103.566740	-3.000700	3.265700	-9.798200	26.423159	0.000433	20.677698
2104.567719	-3.006800	3.266400	-9.820100	26.449901	0.000433	20.678024
2105.567401	-3.003900	3.266600	-9.811500	26.440693	0.000433	20.680622
2106.566424	-2.996400	3.265900	-9.784100	26.496284	0.000434	20.669642
2107.567402	-2.972500	3.266300	-9.707900	26.486127	0.000433	20.675554
2108.573212	-3.004100	3.266100	-9.810400	26.480442	0.000431	20.673159
2109.569759	-3.032100	3.263300	-9.892600	26.471558	0.000430	20.682248
2110.569758	-3.016500	3.263300	-9.843000	26.509271	0.000431	20.680801
2111.571729	-2.985400	3.264700	-9.745100	26.548251	0.000431	20.685370
2112.570773	-2.973500	3.264700	-9.706700	26.546733	0.000427	20.662504
2113.571983	-2.986600	3.262400	-9.741900	26.566617	0.000428	20.666372
2114.571486	-3.009200	3.260900	-9.811800	26.564221	0.000426	20.681034
2115.573436	-2.986000	3.262300	-9.740100	26.562899	0.000426	20.679230
2116.570293	-2.996000	3.262100	-9.772300	26.572853	0.000425	20.676434
2117.572221	-3.005000	3.262600	-9.803000	26.527777	0.000425	20.680436
2118.573163	-2.985100	3.262500	-9.738200	26.513203	0.000422	20.683805
2119.571723	-3.006400	3.260800	-9.802200	26.542474	0.000422	20.664387
2120.571601	-3.002500	3.259800	-9.785900	26.590390	0.000425	20.678416
2121.575443	-3.011800	3.260800	-9.819900	26.629760	0.000424	20.652082
2122.573108	-2.999900	3.260400	-9.779600	26.620002	0.000420	20.681631
2123.571593	-2.996200	3.258900	-9.763200	26.659027	0.000423	20.677714
2124.571713	-2.987500	3.258600	-9.733500	26.647064	0.000421	20.679438
2125.572793	-2.977000	3.259800	-9.703400	26.652778	0.000423	20.679968
2126.573972	-2.999600	3.260000	-9.776200	26.658934	0.000421	20.681889
2127.573994	-3.006600	3.258600	-9.796800	26.655584	0.000419	20.693220
2128.573498	-3.002100	3.258700	-9.782100	26.625226	0.000420	20.693522
2129.573350	-3.014800	3.257500	-9.819700	26.592233	0.000418	20.687856
2130.574480	-3.011500	3.258400	-9.811200	26.573832	0.000418	20.691644
2131.572773	-3.011900	3.256500	-9.807600	26.542534	0.000416	20.674880
2132.573740	-3.002500	3.256700	-9.777200	26.544249	0.000415	20.691779
2133.574433	-3.004900	3.256300	-9.783500	26.571375	0.000414	20.693442
2134.573751	-2.984200	3.255500	-9.714100	26.575253	0.000417	20.690227
2135.572783	-3.018600	3.255900	-9.827100	26.585635	0.000416	20.689759
2136.574781	-3.022100	3.254200	-9.832500	26.648092	0.000413	20.684740
2137.574475	-2.988500	3.255400	-9.727600	26.651811	0.000413	20.664768
2138.574588	-2.977000	3.254600	-9.686000	26.622818	0.000414	20.705327
2139.574594	-3.006400	3.253300	-9.779700	26.607897	0.000411	20.686058
2140.575178	-2.964200	3.254300	-9.645100	26.615326	0.000413	20.671714
2141.575705	-3.002900	3.253700	-9.769900	26.587816	0.000411	20.691951
2142.578013	-2.987300	3.253200	-9.717600	26.586947	0.000412	20.707200
2143.576568	-3.000400	3.253100	-9.759800	26.587345	0.000409	20.686261
2144.578763	-3.010200	3.252800	-9.790900	26.609121	0.000409	20.685866
2145.580998	-2.995500	3.252300	-9.741300	26.618383	0.000411	20.709403
2146.581282	-2.990500	3.251200	-9.720200	26.646353	0.000408	20.687733
2147.580935	-2.982200	3.252000	-9.697100	26.663111	0.000407	20.698417
2148.583025	-2.998100	3.249400	-9.740400	26.668771	0.000405	20.686088
2149.579402	-3.011700	3.249300	-9.784700	26.678357	0.000404	20.708055
2150.581200	-3.012900	3.249000	-9.787200	26.687833	0.000406	20.718531
2151.584460	-3.002700	3.249500	-9.756100	26.666437	0.000404	20.692752
2152.582050	-3.011900	3.248200	-9.782800	26.680415	0.000402	20.730040
2153.582201	-2.993900	3.248200	-9.724300	26.687097	0.000402	20.714471
2154.589635	-3.005200	3.247100	-9.755900	26.700371	0.000402	20.715014
2155.588074	-2.983700	3.249100	-9.693200	26.709779	0.000402	20.719257
2156.584789	-3.014600	3.247000	-9.787300	26.696628	0.000400	20.720260
2157.589823	-2.984900	3.247700	-9.692200	26.695526	0.000399	20.718679
2158.597638	-3.022600	3.245000	-9.807300	26.645164	0.000397	20.712619
2159.586586	-3.028700	3.245900	-9.829900	26.607799	0.000399	20.712040
2160.586786	-2.981900	3.245600	-9.677200	26.644613	0.000396	20.703055
2161.590242	-2.994200	3.245100	-9.715300	26.646598	0.000396	20.702680
2162.587765	-3.003800	3.244400	-9.744300	26.707966	0.000396	20.711270
2163.595109	-3.016200	3.244400	-9.784700	26.727799	0.000396	20.712243
2164.593453	-3.002200	3.242600	-9.732900	26.770887	0.000395	20.726641
2165.590634	-3.007100	3.244200	-9.755000	26.803703	0.000396	20.718857
2166.590144	-3.001600	3.243400	-9.734300	26.787865	0.000393	20.709096
2167.591115	-2.991300	3.243000	-9.699400	26.764505	0.000393	20.711215
2168.589841	-2.995900	3.242500	-9.712800	26.788832	0.000392	20.718131
2169.592163	-2.989700	3.242200	-9.691800	26.796855	0.000391	20.715765
2170.590945	-3.000000	3.240900	-9.721900	26.833589	0.000390	20.710026
2171.589357	-3.001800	3.240200	-9.725100	26.872729	0.000390	20.738477
2172.592742	-3.003500	3.240600	-9.731400	26.898144	0.000389	20.720883
2173.590265	-3.002400	3.240300	-9.728100	26.884543	0.000388	20.717163
2174.591063	-2.988300	3.239700	-9.680500	26.862679	0.000388	20.735009
2175.598080	-2.995700	3.238400	-9.699000	26.885657	0.000390	20.722552
2176.590809	-3.003800	3.238600	-9.726300	26.865705	0.000387	20.715765
2177.590888	-2.969800	3.238300	-9.615900	26.812393	0.000387	20.705783
2178.594008	-2.987200	3.238100	-9.671300	26.778861	0.000387	20.716165
2179.590700	-3.002000	3.237700	-9.717600	26.797755	0.000388	20.720463
2180.601035	-3.007900	3.236900	-9.735500	26.787674	0.000384	20.724553
2181.591829	-3.014300	3.236000	-9.753100	26.782713	0.000385	20.714822
2182.593051	-2.992500	3.237000	-9.685900	26.780055	0.000384	20.724005
2183.591922	-3.018400	3.235100	-9.763200	26.822277	0.000384	20.747491
2184.593249	-3.011700	3.234800	-9.740800	26.811804	0.000383	20.737435
2185.595755	-3.012300	3.233500	-9.739300	26.799862	0.000382	20.738704
2186.596923	-3.009000	3.234900	-9.733000	26.804357	0.000382	20.728524
2187.592041	-3.009700	3.233200	-9.729400	26.834961	0.000380	20.734639
2188.592418	-3.025400	3.233700	-9.782300	26.847938	0.000381	20.720661
2189.596055	-2.994400	3.233200	-9.679900	26.857866	0.000380	20.710727
2190.591996	-3.024300	3.232200	-9.773900	26.855336	0.000380	20.736635
2191.592238	-3.020900	3.231800	-9.760500	26.858215	0.000378	20.735736
2192.594833	-2.994700	3.232200	-9.678500	26.865165	0.000377	20.737035
2193.592922	-2.983600	3.231300	-9.639500	26.852335	0.000376	20.737410
2194.593753	-3.008600	3.230100	-9.716300	26.850945	0.000376	20.736487
2195.597147	-2.999900	3.231100	-9.691900	26.881345	0.000378	20.739554
2196.595479	-3.012400	3.230200	-9.729500	26.909865	0.000377	20.743101
2197.594453	-3.005900	3.230600	-9.710200	26.930165	0.000374	20.735538
2198.596948	-3.007600	3.228900	-9.710400	26.929767	0.000374	20.732767
2199.597656	-3.011300	3.228000	-9.719300	26.935548	0.000371	20.741426
2200.593503	-3.002000	3.228900	-9.691500	26.955382	0.000372	20.743827
2201.595554	-3.009900	3.228300	-9.716000	26.969528	0.000372	20.741930
2202.594978	-3.008500	3.229000	-9.714100	27.024443	0.000373	20.732194
2203.595517	-2.994200	3.228100	-9.664000	27.028514	0.000370	20.735815
2204.594945	-2.987900	3.227500	-9.642000	26.998786	0.000370	20.721565
2205.597251	-2.994600	3.226900	-9.662200	27.018864	0.000368	20.757405
2206.597613	-2.946500	3.227600	-9.509200	27.036879	0.000370	20.738063
2207.596075	-2.971200	3.226200	-9.583700	27.074548	0.000370	20.751765
2208.598809	-3.002300	3.224900	-9.681500	27.114720	0.000367	20.752337
2209.596084	-3.003500	3.225800	-9.687200	27.113409	0.000366	20.742010
2210.598157	-2.983800	3.224800	-9.620000	27.139510	0.000366	20.755933
2211.598094	-3.017900	3.222200	-9.723300	27.139436	0.000367	20.744005
2212.596637	-3.016400	3.223200	-9.721900	27.174769	0.000366	20.761051
2213.596881	-2.981500	3.222500	-9.605400	27.164570	0.000363	20.746050
2214.598807	-2.989400	3.223300	-9.634400	27.136155	0.000364	20.762043
2215.601406	-2.992700	3.222200	-9.641900	27.059406	0.000362	20.763090
2216.599053	-3.015100	3.220300	-9.708800	27.040051	0.000362	20.759272
2217.598929	-3.026400	3.221100	-9.747200	27.024988	0.000361	20.757874
2218.600557	-3.002100	3.221300	-9.669300	27.037350	0.000361	20.740908
2219.600470	-2.987200	3.220900	-9.619300	27.053925	0.000360	20.756630
2220.600999	-2.999900	3.219800	-9.658600	27.038465	0.000360	20.766686
2221.603178	-2.958500	3.220000	-9.525800	27.020297	0.000360	20.746993
2222.600999	-3.012900	3.217900	-9.694000	26.951316	0.000359	20.744005
2223.602759	-2.990000	3.219200	-9.624600	26.934096	0.000357	20.766519
2224.601004	-2.976200	3.218900	-9.578700	26.878871	0.000359	20.771205
2225.604397	-2.986800	3.217700	-9.610200	26.860682	0.000354	20.735846
2226.602644	-2.998400	3.217400	-9.646100	26.840551	0.000355	20.758280
2227.602735	-3.000200	3.218400	-9.655000	26.811491	0.000356	20.748974
2228.605450	-3.009200	3.215900	-9.676100	26.785804	0.000354	20.760607
2229.604968	-2.996400	3.217900	-9.640600	26.799897	0.000353	20.759129
2230.605314	-2.979000	3.216900	-9.582700	26.794912	0.000355	20.751271
2231.604434	-2.990700	3.214700	-9.613200	26.840557	0.000351	20.771088
2232.605056	-2.974900	3.215200	-9.564800	26.866640	0.000351	20.780719
2233.605132	-2.996300	3.214200	-9.629000	26.888185	0.000350	20.754492
2234.605326	-3.001400	3.215300	-9.649700	26.895012	0.000350	20.770367
2235.606084	-2.989400	3.213500	-9.604900	26.923501	0.000350	20.758710
2236.604897	-2.978900	3.213100	-9.569700	26.942883	0.000350	20.768243
2237.606776	-3.007400	3.212400	-9.660000	26.938939	0.000349	20.782769
2238.605546	-3.005800	3.212100	-9.654400	26.992520	0.000350	20.784019
2239.605208	-2.980100	3.212300	-9.572500	26.997314	0.000348	20.785995
2240.611202	-2.978000	3.212400	-9.564900	27.022145	0.000347	20.780620
2241.609977	-2.981000	3.210000	-9.568400	27.037985	0.000348	20.774264
2242.605287	-2.996000	3.211200	-9.619800	27.043569	0.000345	20.770871
2243.610559	-2.977400	3.210600	-9.558300	27.032835	0.000344	20.776671
2244.605986	-3.002500	3.208900	-9.634100	27.064143	0.000344	20.788243
2245.606239	-3.012200	3.208200	-9.661600	27.084250	0.000342	20.788550
2246.609209	-3.000800	3.208000	-9.625400	27.121312	0.000342	20.765606
2247.606355	-3.009700	3.207400	-9.651900	27.123331	0.000341	20.770956
2248.606828	-2.981000	3.208700	-9.563800	27.121764	0.000342	20.787399
2249.608994	-2.998100	3.205400	-9.609600	27.176824	0.000341	20.774972
2250.607376	-3.005500	3.205800	-9.634300	27.215633	0.000340	20.800256
2251.608256	-2.995000	3.205500	-9.599200	27.242306	0.000341	20.795791
2252.610229	-3.006100	3.205400	-9.634400	27.174375	0.000339	20.775353
2253.610929	-3.015500	3.204400	-9.662100	27.148948	0.000339	20.779651
2254.610745	-3.020600	3.206700	-9.684900	27.137333	0.000337	20.779349
2255.610215	-2.990300	3.203300	-9.576600	27.147582	0.000338	20.777329
2256.608733	-3.006900	3.203000	-9.630500	27.136494	0.000336	20.772815
2257.610297	-3.008600	3.203400	-9.637200	27.123318	0.000337	20.785642
2258.611483	-3.019900	3.202600	-9.670800	27.102580	0.000334	20.780906
2259.615577	-3.003600	3.203000	-9.619500	27.082931	0.000335	20.780111
2260.612714	-3.005500	3.200900	-9.619700	27.122258	0.000335	20.776515
2261.615787	-3.007300	3.200300	-9.623400	27.124070	0.000334	20.792563
2262.612008	-3.014100	3.201700	-9.647800	27.140675	0.000333	20.789822
2263.610344	-3.015300	3.200900	-9.650900	27.151842	0.000333	20.799157
2264.611544	-3.006100	3.200100	-9.618400	27.141323	0.000331	20.787629
2265.611691	-3.011500	3.201200	-9.639400	27.099413	0.000332	20.798110
2266.615359	-3.012900	3.199600	-9.638900	27.078969	0.000332	20.792722
2267.613618	-3.017000	3.197300	-9.645500	27.093530	0.000331	20.784132
2268.615029	-2.988200	3.200500	-9.562100	27.089715	0.000332	20.776976
2269.615430	-3.017600	3.197600	-9.647800	27.119618	0.000329	20.809896
2270.617331	-2.987000	3.197500	-9.549700	27.165317	0.000330	20.807495
2271.612851	-2.999700	3.196800	-9.586800	27.181455	0.000331	20.800018
2272.617151	-2.987300	3.198400	-9.553000	27.197551	0.000327	20.812414
2273.618202	-3.020100	3.195800	-9.650500	27.194924	0.000327	20.787013
2274.616781	-2.992500	3.194600	-9.559100	27.181902	0.000326	20.799993
2275.617723	-3.005300	3.194200	-9.598200	27.146997	0.000325	20.800923
2276.620662	-2.958500	3.197000	-9.456900	27.146771	0.000325	20.803540
2277.617785	-2.987900	3.194300	-9.542800	27.126641	0.000324	20.816484
2278.618244	-3.009100	3.192100	-9.604100	27.161306	0.000327	20.804883
2279.616437	-3.014200	3.192300	-9.620900	27.168800	0.000323	20.812894
2280.618674	-2.995800	3.192500	-9.562300	27.210535	0.000323	20.829267
2281.619573	-2.976700	3.191400	-9.498400	27.243607	0.000320	20.820332
2282.617163	-2.979300	3.193800	-9.514700	27.268621	0.000323	20.790017
2283.618392	-2.985200	3.190900	-9.524300	27.343611	0.000321	20.791483
2284.619319	-3.005000	3.191700	-9.590500	27.373881	0.000321	20.790639
2285.619927	-3.017400	3.188500	-9.620000	27.406476	0.000323	20.805886
2286.619230	-3.012900	3.188500	-9.604600	27.415749	0.000319	20.787715
2287.618356	-3.015200	3.188500	-9.613200	27.429221	0.000319	20.772818
2288.618675	-2.985300	3.191000	-9.525400	27.404536	0.000318	20.813417
2289.616415	-3.004500	3.190100	-9.584200	27.432325	0.000316	20.799174
2290.618916	-3.008200	3.187800	-9.588400	27.449384	0.000316	20.820604
2291.620371	-3.005300	3.186100	-9.573900	27.448790	0.000315	20.804359
2292.618148	-3.013700	3.186600	-9.602400	27.473867	0.000315	20.800191
2293.618529	-2.999800	3.187700	-9.561600	27.482080	0.000314	20.797074
2294.620137	-3.013100	3.184500	-9.594300	27.487736	0.000315	20.776686
2295.618618	-3.006900	3.184800	-9.575500	27.511275	0.000314	20.815067
2296.621918	-2.987500	3.184000	-9.510600	27.508069	0.000314	20.789556
2297.619386	-3.022700	3.182900	-9.620000	27.486714	0.000313	20.778503
2298.618574	-3.020600	3.182700	-9.613100	27.433341	0.000310	20.789291
2299.618333	-3.033100	3.181600	-9.648400	27.378692	0.000313	20.802592
2300.620788	-3.019600	3.181700	-9.606300	27.346145	0.000313	20.800196
2301.617771	-3.004200	3.181600	-9.557400	27.276781	0.000312	20.774044
2302.619178	-3.005800	3.180800	-9.558700	27.211258	0.000311	20.784001
2303.624606	-3.014500	3.181300	-9.589600	27.165034	0.000311	20.776864
2304.623245	-2.996000	3.180000	-9.526200	27.129052	0.000308	20.791883
2305.619550	-2.996900	3.180100	-9.529400	27.158532	0.000310	20.781230
2306.625637	-2.989800	3.179300	-9.504300	27.149123	0.000309	20.812069
2307.621675	-3.004000	3.177800	-9.545000	27.131538	0.000308	20.769253
2308.622096	-3.000700	3.178400	-9.536900	27.132603	0.000307	20.765108
2309.624133	-2.996700	3.178400	-9.523500	27.150690	0.000304	20.777609
2310.620493	-2.998700	3.177000	-9.524400	27.171163	0.000306	20.769751
2311.620936	-3.015000	3.175500	-9.573000	27.156028	0.000304	20.774918
2312.620977	-2.991400	3.177300	-9.504000	27.193393	0.000305	20.780731
2313.625939	-2.992900	3.175700	-9.503600	27.258648	0.000304	20.786624
2314.625447	-3.008000	3.176300	-9.553600	27.252618	0.000303	20.787671
2315.622448	-2.997300	3.174400	-9.513300	27.233100	0.000305	20.757607
2316.624688	-2.979900	3.174400	-9.458500	27.272722	0.000304	20.775176
2317.627386	-3.003800	3.173100	-9.530000	27.302418	0.000302	20.755735
2318.625679	-2.968600	3.173900	-9.421000	27.346927	0.000300	20.774430
2319.626420	-3.030600	3.172400	-9.613400	27.388258	0.000301	20.767170
2320.625465	-3.016100	3.174000	-9.572400	27.406016	0.000301	20.758956
2321.624790	-3.005900	3.170600	-9.528800	27.437997	0.000300	20.771216
2322.628608	-2.979000	3.171000	-9.445800	27.466422	0.000300	20.768044
2323.625701	-3.023400	3.169500	-9.581300	27.483174	0.000298	20.752655
2324.626768	-3.014300	3.167400	-9.546800	27.444895	0.000299	20.747809
2325.629571	-3.000800	3.169000	-9.507700	27.466060	0.000299	20.760568
2326.627070	-2.996400	3.167700	-9.490700	27.485309	0.000297	20.785624
2327.627151	-2.987600	3.167300	-9.461300	27.528067	0.000297	20.746614
2328.627141	-2.979900	3.167300	-9.437000	27.524303	0.000297	20.769379
2329.629730	-3.010600	3.166900	-9.531400	27.508353	0.000296	20.761393
2330.627040	-2.965600	3.166400	-9.388500	27.544224	0.000296	20.752913
2331.627519	-2.997000	3.165200	-9.484600	27.540460	0.000295	20.757660
2332.628074	-2.988600	3.165200	-9.458300	27.565185	0.000295	20.738441
2333.627264	-3.006000	3.166500	-9.516600	27.553080	0.000295	20.757081
2334.626813	-3.006500	3.162600	-9.507800	27.542069	0.000293	20.757383
2335.632030	-2.980800	3.165000	-9.433100	27.527368	0.000293	20.743065
2336.631015	-3.006000	3.162400	-9.504100	27.492194	0.000293	20.757937
2337.628532	-3.004900	3.164000	-9.505000	27.441196	0.000292	20.743613
2338.633152	-3.003500	3.162300	-9.496900	27.379729	0.000293	20.746735
2339.630214	-2.982800	3.162800	-9.433000	27.385709	0.000290	20.743268
2340.629742	-2.990100	3.163300	-9.457600	27.378908	0.000293	20.749703
2341.632506	-2.981000	3.160200	-9.419100	27.420709	0.000290	20.747659
2342.630157	-3.005000	3.159300	-9.492800	27.427754	0.000289	20.757592
2343.629490	-2.964400	3.159600	-9.365300	27.441373	0.000289	20.733834
2344.633448	-3.004600	3.158800	-9.489600	27.418854	0.000289	20.732041
2345.636189	-2.983600	3.157000	-9.417100	27.395912	0.000286	20.740730
2346.630957	-2.987500	3.157400	-9.432100	27.337240	0.000288	20.745718
2347.632600	-2.990400	3.156900	-9.438300	27.312484	0.000286	20.738833
2348.629396	-2.963500	3.157200	-9.355200	27.313764	0.000288	20.741544
2349.630147	-2.982100	3.153700	-9.404300	27.325132	0.000288	20.748237
2350.631811	-2.980900	3.155100	-9.404700	27.334289	0.000285	20.720464
2351.634401	-2.989900	3.153800	-9.428000	27.366935	0.000286	20.740502
2352.634550	-2.979700	3.153000	-9.394000	27.377555	0.000284	20.754506
2353.632904	-2.987400	3.155200	-9.424900	27.373931	0.000284	20.736635
2354.633874	-2.998400	3.152700	-9.450600	27.377132	0.000284	20.739381
2355.632844	-2.998200	3.151100	-9.445100	27.386510	0.000282	20.746445
2356.632159	-2.989900	3.151500	-9.422100	27.411760	0.000282	20.741500
2357.632280	-2.987400	3.150000	-9.409600	27.429394	0.000284	20.733636
2358.633096	-2.991300	3.150800	-9.424200	27.431408	0.000282	20.729023
2359.633979	-2.993800	3.148900	-9.425800	27.456215	0.000281	20.731222
2360.633966	-2.965200	3.148400	-9.334800	27.492995	0.000281	20.726499
2361.639561	-2.973400	3.147900	-9.358600	27.455591	0.000282	20.740552
2362.639246	-2.993500	3.146600	-9.419100	27.438006	0.000281	20.718591
2363.638076	-3.018100	3.146100	-9.494100	27.436042	0.000279	20.750756
2364.637003	-3.000400	3.145000	-9.435200	27.406349	0.000278	20.743643
2365.637048	-3.028600	3.143500	-9.518300	27.394070	0.000280	20.723703
2366.637018	-3.011800	3.143700	-9.467200	27.401464	0.000279	20.720710
2367.637867	-2.979800	3.144500	-9.369100	27.378045	0.000282	20.723229
2368.636802	-3.007700	3.143400	-9.453700	27.364995	0.000278	20.730015
2369.636168	-3.002900	3.142400	-9.435200	27.369310	0.000278	20.738625
2370.638822	-2.998700	3.143100	-9.423600	27.382385	0.000278	20.723802
2371.640040	-3.002600	3.140000	-9.427700	27.377941	0.000275	20.715064
2372.636333	-2.991700	3.141100	-9.394800	27.433685	0.000275	20.723254
2373.638820	-3.015500	3.139100	-9.465100	27.479524	0.000276	20.721006
2374.637147	-2.986500	3.138200	-9.370700	27.503131	0.000275	20.724369
2375.636586	-3.008100	3.137100	-9.436300	27.541138	0.000277	20.732737
2376.642486	-2.979900	3.137900	-9.350300	27.553881	0.000276	20.731808
2377.638165	-2.995800	3.136100	-9.394200	27.586770	0.000275	20.720803
2378.639530	-2.995700	3.136800	-9.396300	27.646793	0.000275	20.721930
2379.639373	-2.988200	3.136200	-9.370300	27.623905	0.000273	20.732090
2380.640694	-3.021200	3.134600	-9.468600	27.626035	0.000274	20.731389
2381.644288	-2.978000	3.134800	-9.334400	27.649847	0.000272	20.708880
2382.641330	-2.998300	3.133500	-9.393200	27.674992	0.000273	20.700517
2383.646334	-2.984100	3.133500	-9.350000	27.649945	0.000272	20.731265
2384.645110	-3.003800	3.130200	-9.401500	27.594193	0.000272	20.695079
2385.643195	-3.011200	3.130900	-9.426700	27.558354	0.000273	20.721135
2386.644429	-2.981400	3.130700	-9.332700	27.527472	0.000272	20.728944
2387.644174	-3.026100	3.128800	-9.465600	27.478410	0.000272	20.707082
2388.642323	-3.011400	3.128800	-9.420700	27.478042	0.000271	20.718567
2389.642978	-3.014400	3.129400	-9.432600	27.521223	0.000275	20.711276
2390.644017	-3.008300	3.127900	-9.408700	27.523799	0.000272	20.731888
2391.643809	-2.993500	3.127200	-9.360500	27.499152	0.000270	20.717994
2392.645819	-3.008800	3.125300	-9.402400	27.480840	0.000271	20.722804
2393.648689	-3.008700	3.126100	-9.404500	27.468420	0.000270	20.715524
2394.644495	-3.001000	3.123700	-9.373700	27.487786	0.000270	20.696126
2395.645190	-3.000100	3.123700	-9.371100	27.539583	0.000269	20.710308
2396.647446	-3.020100	3.121500	-9.426600	27.564903	0.000269	20.732466
2397.644526	-2.994600	3.121800	-9.347800	27.525892	0.000267	20.705068
2398.645452	-2.998400	3.121600	-9.358100	27.552950	0.000270	20.718542
2399.650237	-3.034100	3.119200	-9.462800	27.555655	0.000270	20.707513
2400.648166	-3.019200	3.119000	-9.415400	27.589438	0.000268	20.701200
2401.648101	-3.028400	3.117700	-9.440300	27.608415	0.000269	20.713184
2402.655720	-2.980500	3.118000	-9.291800	27.639987	0.000269	20.715081
2403.652548	-2.973500	3.118500	-9.271900	27.676265	0.000266	20.703220
2404.651421	-2.986000	3.116500	-9.304400	27.710221	0.000267	20.695663
2405.649350	-3.021900	3.114900	-9.411200	27.710092	0.000267	20.690318
2406.650374	-2.996300	3.115000	-9.332300	27.703202	0.000267	20.703300
2407.650328	-3.004100	3.113800	-9.353200	27.693484	0.000265	20.715333
2408.650344	-3.012700	3.113500	-9.378700	27.714461	0.000266	20.707044
2409.652517	-2.983300	3.112500	-9.284200	27.742579	0.000266	20.700726
2410.649413	-3.007900	3.110600	-9.355100	27.737323	0.000265	20.709662
2411.652649	-2.957700	3.110800	-9.199200	27.757809	0.000262	20.690447
2412.658206	-2.976100	3.111500	-9.259200	27.734055	0.000265	20.703527
2413.658525	-3.021400	3.107700	-9.388700	27.732317	0.000263	20.715056
2414.656585	-3.022300	3.107000	-9.389200	27.705980	0.000262	20.690447
2415.662788	-3.022700	3.104600	-9.383300	27.674606	0.000263	20.682109
2416.655870	-3.015200	3.106800	-9.366400	27.611095	0.000263	20.698336
2417.656818	-2.996400	3.104700	-9.302400	27.586861	0.000262	20.709039
2418.655365	-2.975800	3.104400	-9.237500	27.562184	0.000262	20.685631
2419.660207	-3.011200	3.102700	-9.341300	27.551493	0.000262	20.703324
2420.658537	-3.015900	3.102000	-9.354400	27.580435	0.000261	20.709212
2421.656078	-2.990100	3.101700	-9.273100	27.548445	0.000261	20.701680
2422.656417	-2.998700	3.101100	-9.297800	27.554222	0.000263	20.687103
2423.659461	-2.994500	3.101100	-9.285600	27.573721	0.000261	20.691549
2424.671518	-3.010200	3.098600	-9.326200	27.539864	0.000261	20.697314
2425.659632	-3.009300	3.098800	-9.324500	27.550801	0.000260	20.708319
2426.657907	-2.996900	3.098400	-9.284700	27.554528	0.000259	20.693575
2427.658587	-2.993800	3.096900	-9.269600	27.510994	0.000259	20.682490
2428.658843	-2.985300	3.095300	-9.239400	27.517616	0.000259	20.678721
2429.661232	-3.009600	3.095000	-9.313700	27.476817	0.000259	20.715911
2430.660973	-2.987500	3.095100	-9.244400	27.494230	0.000259	20.691229
2431.659935	-2.997400	3.093400	-9.271600	27.547464	0.000257	20.701168
2432.662634	-2.990800	3.092600	-9.249200	27.579008	0.000259	20.694025
2433.661347	-3.041600	3.089900	-9.396800	27.585660	0.000257	20.682225
2434.661461	-3.014200	3.089100	-9.310700	27.585832	0.000258	20.710375
2435.664511	-2.977500	3.089000	-9.194400	27.610110	0.000257	20.688334
2436.661106	-2.989700	3.088600	-9.232500	27.630977	0.000257	20.700324
2437.661018	-2.997200	3.088000	-9.254500	27.676012	0.000257	20.693482
2438.660803	-2.982100	3.086500	-9.203500	27.688342	0.000258	20.682655
2439.660564	-3.001300	3.084900	-9.258300	27.701334	0.000257	20.669649
2440.663480	-3.018600	3.084300	-9.309300	27.708732	0.000256	20.681836
2441.662726	-2.992900	3.083200	-9.226700	27.670137	0.000256	20.688992
2442.664830	-2.987700	3.083900	-9.212300	27.632617	0.000258	20.685377
2443.663010	-3.027500	3.082500	-9.329700	27.587679	0.000255	20.673824
2444.661155	-3.001400	3.081600	-9.248300	27.531379	0.000255	20.696837
2445.663714	-3.000800	3.080000	-9.241300	27.527309	0.000256	20.663342
2446.662544	-3.018500	3.078700	-9.291600	27.489417	0.000256	20.680222
2447.663804	-3.017500	3.077000	-9.282900	27.499859	0.000256	20.676502
2448.663786	-2.995700	3.077600	-9.217600	27.502289	0.000254	20.669463
2449.661977	-2.975900	3.077100	-9.156500	27.480217	0.000255	20.677130
2450.664013	-2.987700	3.074700	-9.185200	27.467517	0.000254	20.663403
2451.664301	-3.001300	3.074700	-9.227500	27.433706	0.000254	20.666371
2452.663834	-2.999000	3.073900	-9.216900	27.495078	0.000252	20.672640
2453.663981	-2.997200	3.073500	-9.211100	27.530271	0.000254	20.674857
2454.664865	-2.981900	3.072400	-9.160000	27.623087	0.000255	20.673890
2455.665395	-2.982900	3.071400	-9.161300	27.689503	0.000254	20.679556
2456.665006	-3.016300	3.068600	-9.255000	27.714256	0.000252	20.681231
2457.666787	-2.984700	3.070000	-9.162400	27.729579	0.000253	20.670571
2458.666791	-3.013600	3.067600	-9.243700	27.763111	0.000254	20.662589
2459.665577	-3.031500	3.065300	-9.291200	27.797407	0.000255	20.662964
2460.667850	-2.998600	3.065300	-9.190900	27.801348	0.000252	20.686373
2461.669542	-2.990600	3.065600	-9.167000	27.807552	0.000250	20.684556
2462.670358	-3.016000	3.062900	-9.237100	27.763362	0.000253	20.663790
2463.672021	-2.984500	3.064200	-9.143600	27.742936	0.000251	20.684962
2464.669578	-2.995500	3.061200	-9.168500	27.690653	0.000252	20.680239
2465.669492	-3.017400	3.058700	-9.228000	27.632199	0.000251	20.685904
2466.673361	-3.009200	3.058400	-9.202500	27.632504	0.000251	20.674357
2467.670426	-2.971400	3.059100	-9.088800	27.603827	0.000251	20.688177
2468.671084	-3.035000	3.058000	-9.279900	27.602010	0.000251	20.661690
2469.670680	-3.024800	3.055700	-9.241900	27.672056	0.000252	20.658678
2470.671969	-3.004900	3.056100	-9.182700	27.692067	0.000251	20.679765
2471.668694	-2.997700	3.054600	-9.155500	27.689607	0.000251	20.667331
2472.672001	-3.005000	3.052900	-9.172900	27.673317	0.000250	20.664214
2473.672209	-3.003800	3.051600	-9.165300	27.677509	0.000250	20.651836
2474.676484	-3.028900	3.049500	-9.235700	27.725668	0.000249	20.685129
2475.671834	-2.999900	3.049800	-9.148500	27.720259	0.000252	20.669727
2476.675038	-3.012700	3.047100	-9.179200	27.723386	0.000250	20.654854
2477.672798	-2.969300	3.048300	-9.050200	27.681468	0.000250	20.679057
2478.672054	-2.970400	3.045500	-9.044800	27.717083	0.000250	20.672695
2479.675102	-2.954500	3.046700	-9.000500	27.760994	0.000251	20.670417
2480.672657	-2.981800	3.044000	-9.075800	27.789490	0.000251	20.659264
2481.673193	-3.010000	3.042700	-9.157300	27.810392	0.000250	20.649004
2482.674066	-3.007300	3.041000	-9.143600	27.851723	0.000250	20.656462
2483.674321	-2.976600	3.041500	-9.051100	27.854232	0.000249	20.672264
2484.674527	-2.998800	3.038800	-9.111700	27.843910	0.000251	20.649072
2485.675813	-3.001600	3.037300	-9.115900	27.836323	0.000249	20.680320
2486.675777	-3.012500	3.036400	-9.145900	27.823131	0.000250	20.676052
2487.674608	-2.978600	3.036800	-9.044500	27.843213	0.000249	20.667813
2488.674316	-2.995700	3.034900	-9.090600	27.842124	0.000248	20.663871
2489.675793	-2.999000	3.033900	-9.097600	27.825713	0.000248	20.663002
2490.675092	-2.987200	3.031800	-9.056100	27.738923	0.000250	20.648677
2491.677361	-2.983000	3.030800	-9.040500	27.726765	0.000250	20.669161
2492.676799	-3.009800	3.029200	-9.116000	27.658858	0.000248	20.658199
2493.679381	-2.991600	3.028800	-9.059100	27.654617	0.000247	20.666261
2494.678980	-3.002800	3.027200	-9.088900	27.707642	0.000247	20.660349
2495.677164	-2.959900	3.027600	-8.960600	27.727579	0.000248	20.653858
2496.677741	-2.989800	3.025700	-9.044200	27.768865	0.000247	20.656525
2497.679902	-2.963200	3.024500	-8.961300	27.775142	0.000248	20.669482
2498.683544	-2.964300	3.023000	-8.960400	27.748629	0.000248	20.657498
2499.681496	-3.012300	3.020400	-9.097500	27.736531	0.000246	20.648641
2500.679183	-2.981500	3.022000	-9.008200	27.697197	0.000248	20.663588
2501.680793	-3.008100	3.019900	-9.083300	27.689432	0.000246	20.647712
2502.680094	-2.987700	3.017700	-9.014600	27.679188	0.000249	20.668226
2503.680274	-3.007200	3.015800	-9.068500	27.646797	0.000246	20.683524
2504.680423	-3.034500	3.015200	-9.148200	27.652849	0.000246	20.656420
2505.681205	-3.002100	3.013500	-9.045300	27.691561	0.000248	20.661711
2506.679936	-3.013400	3.011700	-9.074500	27.706591	0.000249	20.656919
2507.681448	-2.993100	3.012300	-9.015700	27.704137	0.000249	20.657295
2508.687271	-2.998000	3.010000	-9.022800	27.703475	0.000247	20.657103
2509.681226	-3.015700	3.008300	-9.071300	27.714748	0.000246	20.672716
2510.681163	-3.019900	3.007900	-9.082900	27.753537	0.000247	20.659592
2511.683754	-3.018300	3.004700	-9.068300	27.784260	0.000250	20.660165
2512.682283	-3.029700	3.004800	-9.101500	27.832341	0.000249	20.665406
2513.681729	-2.999500	3.004400	-9.010300	27.818250	0.000246	20.655017
2514.682377	-2.992700	3.002900	-8.986200	27.888257	0.000246	20.661938
2515.681098	-3.007800	3.001100	-9.025800	27.928565	0.000246	20.666946
2516.682918	-3.008000	3.000500	-9.025000	27.982714	0.000246	20.659334
2517.683018	-3.005300	2.999100	-9.012000	27.989657	0.000246	20.649726
2518.682487	-3.020900	2.998600	-9.057800	27.989456	0.000247	20.663275
2519.684641	-2.987600	2.995900	-8.949800	27.977184	0.000248	20.673209
2520.683771	-3.001400	2.995200	-8.989100	27.985987	0.000248	20.660258
2521.682586	-2.976800	2.993400	-8.909000	27.936622	0.000246	20.678376
2522.683002	-3.002300	2.992000	-8.981900	27.879619	0.000246	20.651346
2523.687241	-2.998600	2.990800	-8.967400	27.866697	0.000245	20.669163
2524.682631	-2.965100	2.990300	-8.865400	27.884973	0.000246	20.679023
2525.688103	-3.023300	2.986700	-9.029000	27.931434	0.000245	20.683112
2526.683952	-3.002900	2.986500	-8.967100	27.988783	0.000247	20.672082
2527.684779	-2.989500	2.987200	-8.929000	28.009088	0.000247	20.687780
2528.683601	-2.987100	2.984200	-8.913600	28.048998	0.000247	20.678167
2529.684222	-2.974200	2.983200	-8.871100	28.021574	0.000247	20.665734
2530.684802	-2.986800	2.982000	-8.905600	28.019739	0.000246	20.655350
2531.684699	-3.006600	2.979800	-8.959000	28.045469	0.000246	20.659440
2532.682876	-3.011100	2.978500	-8.967300	28.051838	0.000244	20.681500
2533.686174	-3.006000	2.976500	-8.945900	28.067303	0.000244	20.686637
2534.688244	-2.983800	2.975000	-8.876300	28.092316	0.000245	20.669140
2535.685850	-3.009800	2.975100	-8.952800	28.118496	0.000246	20.677005
2536.685870	-3.006400	2.972700	-8.935900	28.139863	0.000247	20.664374
2537.683805	-3.035400	2.971600	-9.019000	28.073695	0.000248	20.689279
2538.687569	-2.989400	2.969500	-8.875800	28.061492	0.000246	20.678416
2539.688159	-3.009300	2.968600	-8.932400	28.068092	0.000246	20.698812
2540.687298	-2.984500	2.967300	-8.855500	28.039005	0.000245	20.679013
2541.687902	-2.977600	2.965300	-8.827800	28.053209	0.000246	20.695210
2542.688789	-2.975200	2.965000	-8.820200	28.076981	0.000246	20.691639
2543.692493	-3.023200	2.962600	-8.956200	28.116424	0.000244	20.673970
2544.691463	-2.980900	2.961200	-8.826400	28.143143	0.000244	20.676686
2545.689251	-3.027400	2.958500	-8.956800	28.151395	0.000246	20.681201
2546.691710	-2.992400	2.959400	-8.855200	28.132084	0.000247	20.668871
2547.695741	-2.981200	2.958900	-8.819200	28.104741	0.000247	20.681176
2548.690170	-3.020700	2.955600	-8.926600	28.088476	0.000245	20.682820
2549.690561	-2.971200	2.955000	-8.779000	28.104937	0.000246	20.669044
2550.693744	-2.981300	2.954000	-8.806100	28.144172	0.000245	20.692422
2551.690664	-2.992100	2.950800	-8.828700	28.186982	0.000246	20.671508
2552.693614	-2.991900	2.950600	-8.826800	28.183312	0.000245	20.680142
2553.700506	-3.007400	2.947300	-8.863100	28.182223	0.000248	20.671459
2554.691161	-3.002900	2.946200	-8.846200	28.174805	0.000246	20.689122
2555.693007	-3.002900	2.944400	-8.839700	28.174688	0.000245	20.691849
2556.695386	-3.005000	2.944300	-8.846100	28.157776	0.000246	20.688099
2557.694516	-2.998700	2.941200	-8.818400	28.078922	0.000245	20.680315
2558.696276	-3.008500	2.940700	-8.846500	28.088263	0.000246	20.693987
2559.694584	-3.012700	2.938300	-8.851100	28.109355	0.000244	20.693409
2560.695600	-3.026900	2.936400	-8.887700	28.086374	0.000245	20.695404
2561.694002	-3.031700	2.936400	-8.900500	28.082385	0.000245	20.682379
2562.700690	-3.014000	2.934600	-8.844100	28.052607	0.000244	20.698871
2563.698680	-2.987100	2.932300	-8.758100	28.065875	0.000245	20.687096
2564.695926	-2.979200	2.930400	-8.729800	28.056626	0.000245	20.701494
2565.699527	-2.995700	2.930900	-8.779100	28.049536	0.000245	20.698625
2566.699177	-2.996300	2.929000	-8.774800	28.058455	0.000247	20.712820
2567.700708	-3.025500	2.926400	-8.852500	28.054540	0.000245	20.692756
2568.700932	-3.027500	2.923900	-8.850400	28.110586	0.000245	20.713141
2569.700551	-2.997000	2.923400	-8.760300	28.104817	0.000246	20.680778
2570.698512	-3.010400	2.921900	-8.795500	28.094272	0.000244	20.689130
2571.702432	-2.976300	2.921100	-8.693000	28.090686	0.000245	20.723929
2572.700492	-2.993900	2.921000	-8.742200	28.134857	0.000244	20.712445
2573.701028	-3.017100	2.916100	-8.796900	28.168445	0.000244	20.685089
2574.705095	-3.008100	2.914700	-8.767300	28.209694	0.000244	20.677779
2575.703090	-2.995700	2.913900	-8.728400	28.218986	0.000245	20.689979
2576.701049	-2.991500	2.911500	-8.708800	28.246154	0.000245	20.707851
2577.701939	-2.987600	2.910200	-8.693800	28.273567	0.000244	20.707949
2578.701270	-3.007500	2.908600	-8.747100	28.312237	0.000242	20.699943
2579.710881	-2.990300	2.907600	-8.693500	28.343562	0.000242	20.713941
2580.702901	-2.988100	2.905400	-8.680400	28.364851	0.000243	20.708349
2581.710775	-2.993700	2.903800	-8.691700	28.364012	0.000243	20.710825
2582.703202	-2.997100	2.902000	-8.696700	28.375357	0.000245	20.715610
2583.703673	-3.001800	2.901300	-8.707800	28.328793	0.000244	20.708078
2584.701688	-2.990200	2.898100	-8.664900	28.285688	0.000244	20.708774
2585.702969	-2.977500	2.896400	-8.623600	28.269034	0.000243	20.711447
2586.702330	-2.990300	2.894300	-8.654100	28.210116	0.000244	20.701914
2587.702844	-2.990100	2.891800	-8.646400	28.173851	0.000244	20.719459
2588.703958	-2.995000	2.891300	-8.657400	28.180121	0.000243	20.709175
2589.703856	-2.999200	2.888400	-8.661800	28.183100	0.000245	20.712173
2590.704592	-2.999200	2.888000	-8.659600	28.212594	0.000243	20.711047
2591.704515	-3.018600	2.884700	-8.705500	28.195492	0.000243	20.713270
2592.704261	-2.990400	2.883900	-8.621600	28.143512	0.000243	20.712149
2593.704087	-3.008200	2.882100	-8.669100	28.133352	0.000243	20.711877
2594.702651	-3.031700	2.879100	-8.727800	28.101544	0.000244	20.725851
2595.704223	-3.008500	2.877100	-8.654400	28.051989	0.000244	20.703939
2596.706066	-2.978300	2.875100	-8.561600	28.047322	0.000242	20.717260
2597.703912	-2.974800	2.873100	-8.545900	28.014104	0.000243	20.701366
2598.704758	-3.022300	2.872500	-8.679600	28.004982	0.000244	20.708306
2599.705973	-2.996600	2.869900	-8.598600	28.005704	0.000244	20.705239
2600.708852	-2.999600	2.868300	-8.601500	28.067484	0.000243	20.724754
2601.705060	-2.985900	2.865600	-8.554900	28.078366	0.000242	20.708207
2602.708901	-2.989000	2.864600	-8.560500	28.086545	0.000243	20.717389
2603.706911	-3.012100	2.861600	-8.618300	28.126116	0.000243	20.718818
2604.709319	-3.023600	2.859500	-8.644600	28.179735	0.000243	20.714002
2605.710340	-3.013600	2.858600	-8.613300	28.192653	0.000243	20.728904
2606.710010	-3.005800	2.855800	-8.583100	28.222201	0.000242	20.718349
2607.708068	-3.003300	2.853800	-8.569100	28.216599	0.000243	20.727408
2608.710758	-3.018600	2.851600	-8.607200	28.207773	0.000243	20.728954
2609.710032	-3.007400	2.850800	-8.572700	28.195503	0.000241	20.698581
2610.710853	-3.001800	2.849500	-8.552200	28.230281	0.000242	20.723639
2611.711122	-3.009000	2.845500	-8.561500	28.240171	0.000243	20.728381
2612.711877	-3.017200	2.844000	-8.580000	28.296806	0.000243	20.717598
2613.708010	-2.997900	2.841700	-8.518600	28.262158	0.000244	20.714481
2614.709361	-2.987300	2.839400	-8.480600	28.216384	0.000244	20.740468
2615.711265	-2.998200	2.837500	-8.505700	28.162565	0.000242	20.716630
2616.709051	-2.983600	2.836100	-8.459700	28.180383	0.000243	20.726035
2617.711240	-3.016800	2.832600	-8.543900	28.217595	0.000242	20.726040
2618.709713	-2.978400	2.831700	-8.433200	28.258592	0.000244	20.738393
2619.709820	-2.977400	2.832000	-8.430500	28.234305	0.000244	20.713465
2620.710206	-2.980100	2.826200	-8.420300	28.206714	0.000244	20.728836
2621.712262	-3.016100	2.824300	-8.517300	28.215216	0.000243	20.733602
2622.711202	-2.983900	2.823500	-8.424000	28.221461	0.000241	20.739416
2623.712687	-3.006200	2.820000	-8.477000	28.200371	0.000242	20.719605
2624.710142	-2.983800	2.817300	-8.404800	28.268714	0.000244	20.722979
2625.710948	-2.995900	2.816000	-8.435500	28.315953	0.000244	20.729765
2626.713017	-3.000400	2.814000	-8.442300	28.289410	0.000243	20.729593
2627.711567	-3.008800	2.810700	-8.455200	28.255130	0.000242	20.731588
2628.712945	-2.987500	2.808600	-8.389900	28.268469	0.000244	20.738380
2629.715287	-2.990500	2.805800	-8.390000	28.280713	0.000243	20.734113
2630.714130	-2.963000	2.805600	-8.311900	28.330985	0.000243	20.758178
2631.720472	-2.998500	2.800400	-8.396500	28.379977	0.000245	20.749662
2632.716825	-2.980500	2.799600	-8.343600	28.405955	0.000243	20.735042
2633.715075	-3.009100	2.796200	-8.412500	28.440004	0.000244	20.759373
2634.715556	-2.987000	2.794100	-8.344900	28.453561	0.000244	20.749316
2635.718212	-3.013900	2.790100	-8.407600	28.496781	0.000244	20.753960
2636.714375	-2.996900	2.787600	-8.353400	28.526223	0.000242	20.748048
2637.717432	-2.991400	2.785100	-8.330500	28.603509	0.000244	20.756657
2638.715115	-2.989200	2.783400	-8.318900	28.631535	0.000244	20.748848
2639.716646	-3.012400	2.778000	-8.367900	28.645958	0.000242	20.756736
2640.715709	-3.018300	2.776100	-8.378000	28.707749	0.000243	20.767765
2641.718685	-3.006100	2.774500	-8.338900	28.713997	0.000243	20.756040
2642.714496	-2.979600	2.772900	-8.261300	28.739985	0.000243	20.739543
2643.715411	-2.989700	2.770300	-8.281100	28.715630	0.000243	20.752469
2644.720062	-3.006900	2.766900	-8.318500	28.757579	0.000244	20.743989
2645.714498	-2.961900	2.765500	-8.189200	28.793971	0.000246	20.761207
2646.716301	-3.011900	2.760600	-8.313000	28.776035	0.000243	20.771115
2647.717595	-3.007800	2.756900	-8.291600	28.726310	0.000242	20.742363
2648.716462	-3.017800	2.754700	-8.311900	28.698811	0.000242	20.757814
2649.719471	-3.006500	2.750600	-8.268100	28.701165	0.000241	20.771090
2650.719870	-2.989200	2.747000	-8.209500	28.677107	0.000243	20.750652
2651.720801	-3.009300	2.745000	-8.259400	28.679461	0.000243	20.762980
2652.719655	-3.000600	2.742600	-8.228400	28.663834	0.000239	20.771422
2653.722649	-3.002700	2.739000	-8.223400	28.695986	0.000243	20.759710
2654.720749	-3.022300	2.734700	-8.262600	28.703396	0.000244	20.771915
2655.720522	-3.004400	2.733000	-8.209900	28.721137	0.000242	20.753749
2656.719504	-3.022300	2.728700	-8.246400	28.747302	0.000244	20.760664
2657.719738	-3.016100	2.725100	-8.218400	28.784709	0.000241	20.759464
2658.719244	-3.010400	2.722300	-8.194400	28.771480	0.000243	20.750879
2659.721238	-3.001800	2.718400	-8.159100	28.717548	0.000244	20.762462
2660.721612	-3.016600	2.714600	-8.186400	28.694904	0.000244	20.752455
2661.721357	-2.999900	2.712100	-8.134600	28.589867	0.000244	20.763780
2662.720940	-2.996800	2.708100	-8.115000	28.570540	0.000245	20.757117
2663.722483	-2.985700	2.705700	-8.077000	28.544664	0.000243	20.779422
2664.721191	-3.001700	2.702000	-8.110200	28.545489	0.000243	20.782624
2665.722016	-2.990300	2.698600	-8.068600	28.595614	0.000243	20.786639
2666.723869	-2.980500	2.695300	-8.033100	28.623954	0.000243	20.745954
2667.720714	-3.013000	2.689400	-8.102200	28.661101	0.000242	20.762032
2668.722068	-2.992400	2.687400	-8.041100	28.666378	0.000242	20.771140
2669.724196	-2.982100	2.683700	-8.003000	28.659830	0.000244	20.785882
2670.723041	-3.000100	2.679600	-8.038000	28.620860	0.000244	20.781245
2671.723822	-2.982000	2.676300	-7.979600	28.595707	0.000243	20.787206
2672.723124	-2.983200	2.671500	-7.968100	28.555817	0.000244	20.769791
2673.730929	-2.997500	2.667600	-7.995100	28.515272	0.000241	20.784909
2674.729360	-3.011400	2.663800	-8.021200	28.533310	0.000243	20.764668
2675.723811	-3.010300	2.658200	-8.001200	28.589214	0.000243	20.769287
2676.727512	-2.991800	2.654000	-7.939400	28.593426	0.000242	20.776848
2677.728598	-2.965100	2.652300	-7.862500	28.614636	0.000242	20.801529
2678.725686	-3.007100	2.646800	-7.958700	28.621453	0.000244	20.777101
2679.727372	-2.982100	2.642600	-7.879400	28.615278	0.000243	20.760924
2680.730184	-3.024500	2.636800	-7.973300	28.580219	0.000242	20.770660
2681.726204	-3.005000	2.632200	-7.908800	28.590076	0.000243	20.776319
2682.728475	-2.970000	2.629900	-7.809000	28.598281	0.000245	20.776996
2683.730562	-2.977500	2.623900	-7.811200	28.656358	0.000242	20.795187
2684.725916	-3.001900	2.620200	-7.865100	28.669148	0.000242	20.793370
2685.729271	-2.974000	2.614100	-7.772300	28.663646	0.000242	20.796837
2686.737926	-2.982700	2.609400	-7.780800	28.670291	0.000243	20.782193
2687.726453	-3.010000	2.603600	-7.835600	28.667839	0.000243	20.804854
2688.732075	-3.014700	2.598600	-7.832600	28.683820	0.000242	20.793450
2689.729235	-3.012900	2.593000	-7.811900	28.679039	0.000243	20.796695
2690.727220	-3.026600	2.587500	-7.830100	28.712664	0.000245	20.798320
2691.729270	-2.998900	2.584000	-7.748000	28.715562	0.000243	20.811196
2692.728161	-3.018900	2.577400	-7.779700	28.692648	0.000241	20.786694
2693.727377	-2.989200	2.571700	-7.686600	28.704618	0.000243	20.782155
2694.728112	-3.002800	2.566200	-7.703700	28.734794	0.000242	20.796903
2695.735181	-3.003100	2.561000	-7.690100	28.739110	0.000245	20.790345
2696.729570	-3.001500	2.555700	-7.669700	28.732275	0.000245	20.799107
2697.732599	-3.027300	2.549400	-7.716800	28.706849	0.000244	20.806214
2698.731372	-3.047100	2.544100	-7.749100	28.663943	0.000242	20.788602
2699.735929	-3.000000	2.537300	-7.611100	28.705962	0.000243	20.775923
2700.730828	-3.036600	2.530200	-7.681200	28.730642	0.000245	20.806472
2701.734799	-3.005200	2.526500	-7.591600	28.731467	0.000246	20.825794
2702.737961	-2.988600	2.520800	-7.532700	28.731938	0.000242	20.799716
2703.734365	-3.011300	2.512600	-7.565100	28.725745	0.000243	20.796797
2704.735500	-2.959100	2.509200	-7.424400	28.724265	0.000244	20.809531
2705.739820	-3.021100	2.499800	-7.549800	28.744574	0.000243	20.812918
