LabVIEW Measurement	
Writer_Version	2
Reader_Version	2
Separator	Tab
Decimal_Separator	.
Multi_Headings	No
X_Columns	One
Time_Pref	Absolute
Operator	admin
Description	Clolumns are: time, Current, Voltage, Power, Battery Temp, and Chamber Temp
Date	2024/08/16
Time	13:06:06.104549407958984375
***End_of_Header***	
	
Channels	6						
Samples	1	1	1	1	1	1	
Date	2024/09/01	2024/09/01	2024/09/01	2024/09/01	2024/09/01	2024/09/01	
Time	00:18:45.6057071685791015625	00:18:45.6138391494750976562	00:18:45.6207175254821777344	00:18:45.5862183570861816406	00:18:45.5862183570861816406	00:18:45.5862183570861816406	
X_Dimension	Time	Time	Time	Time	Time	Time	
X0	0.0000000000000000E+0	0.0000000000000000E+0	0.0000000000000000E+0	0.0000000000000000E+0	0.0000000000000000E+0	0.0000000000000000E+0	
Delta_X	1.000000	1.000000	1.000000	1.000000	1.000000	1.000000	
***End_of_Header***							
X_Value	Untitled	Untitled 1	Untitled 2	Untitled 3	Untitled 4	Untitled 5	Comment
0.000000	0.027555	4.100300	0.112870	21.105850	0.000951	20.825192
1.001349	-3.046100	3.933000	-11.979000	21.119750	0.000948	20.848104
1.997710	-2.999000	3.929200	-11.782000	21.101365	0.000948	20.823550
2.997453	-3.026200	3.921700	-11.867000	21.110290	0.000948	20.826788
3.996195	-3.014100	3.919700	-11.813000	21.099668	0.000949	20.840344
4.997868	-3.017400	3.916600	-11.816000	21.100539	0.000947	20.839794
5.997023	-3.006800	3.912100	-11.762000	21.109852	0.000945	20.820186
6.997371	-3.004000	3.910100	-11.746000	21.104663	0.000947	20.834436
7.998127	-3.007900	3.908300	-11.755000	21.098919	0.000944	20.820630
8.998136	-3.021100	3.905700	-11.799000	21.100071	0.000944	20.817989
9.997081	-2.995900	3.905000	-11.698000	21.106208	0.000943	20.833610
10.995924	-2.991300	3.904000	-11.677000	21.115943	0.000941	20.836236
11.996875	-2.990200	3.904100	-11.673000	21.138028	0.000941	20.840309
12.999328	-2.983700	3.900800	-11.637000	21.126295	0.000939	20.799176
13.996721	-3.002500	3.901500	-11.714000	21.125408	0.000940	20.813462
14.997101	-2.993700	3.898000	-11.668000	21.133569	0.000941	20.832055
15.999647	-3.007600	3.897600	-11.721000	21.149619	0.000941	20.815394
16.997199	-2.983800	3.895500	-11.622000	21.151882	0.000939	20.824296
17.998557	-2.990100	3.893800	-11.643000	21.127325	0.000937	20.827707
18.997111	-2.980300	3.893900	-11.604000	21.153151	0.000938	20.828410
19.998854	-3.005000	3.892800	-11.696000	21.171225	0.000938	20.814722
20.999903	-2.983100	3.891500	-11.608000	21.149574	0.000935	20.830047
21.999085	-2.997100	3.889900	-11.656000	21.155583	0.000936	20.821360
22.999603	-3.009400	3.888200	-11.700000	21.153147	0.000936	20.834095
24.002587	-3.009300	3.889200	-11.703000	21.166189	0.000936	20.835288
24.999411	-2.982200	3.889200	-11.597000	21.176358	0.000933	20.844511
26.002114	-3.004500	3.887500	-11.680000	21.187244	0.000935	20.834065
27.000071	-3.008900	3.888200	-11.699000	21.179125	0.000932	20.830685
28.002625	-3.001400	3.888400	-11.669000	21.210429	0.000932	20.816007
29.002216	-2.990400	3.886000	-11.619000	21.205037	0.000932	20.837639
30.001233	-3.001800	3.884700	-11.660000	21.197591	0.000932	20.836354
31.004295	-3.010600	3.884400	-11.692000	21.214884	0.000933	20.843696
32.004203	-2.993000	3.884800	-11.626000	21.232956	0.000932	20.837119
33.006715	-2.991700	3.884000	-11.618000	21.226361	0.000933	20.819617
34.004820	-2.979700	3.884700	-11.574000	21.233328	0.000930	20.816629
35.002585	-3.002800	3.883300	-11.660000	21.238155	0.000929	20.829518
36.010338	-3.008300	3.882400	-11.678000	21.251426	0.000930	20.831889
37.005693	-2.999100	3.881300	-11.639000	21.258317	0.000930	20.831670
38.003824	-3.005800	3.882100	-11.667000	21.239689	0.000928	20.851441
39.004370	-2.997300	3.880800	-11.630000	21.256151	0.000929	20.824762
40.004521	-2.999400	3.879900	-11.637000	21.240943	0.000929	20.827566
41.003512	-3.002500	3.880900	-11.650000	21.276221	0.000928	20.838201
42.007410	-3.012000	3.878600	-11.681000	21.265355	0.000926	20.833495
43.003783	-2.987600	3.878900	-11.586000	21.285853	0.000928	20.813699
44.006077	-2.982000	3.878400	-11.564000	21.274601	0.000926	20.822356
45.005897	-2.990700	3.878000	-11.597000	21.313133	0.000927	20.819654
46.005694	-2.993300	3.878100	-11.608000	21.309943	0.000926	20.842540
47.005088	-3.007300	3.876200	-11.655000	21.308470	0.000925	20.840592
48.003880	-3.012000	3.875500	-11.671000	21.304307	0.000926	20.852074
49.006361	-2.987900	3.876200	-11.580000	21.341937	0.000925	20.825711
50.005662	-2.987100	3.875100	-11.574000	21.356282	0.000927	20.821571
51.005438	-2.987200	3.875400	-11.576000	21.346712	0.000924	20.843290
52.005605	-3.007800	3.875500	-11.656000	21.346416	0.000923	20.837779
53.007467	-2.997500	3.874900	-11.613000	21.338410	0.000926	20.837356
54.004237	-3.009500	3.873700	-11.656000	21.334120	0.000924	20.837330
55.005779	-3.023600	3.873500	-11.711000	21.356211	0.000926	20.837147
56.006145	-2.989500	3.873100	-11.578000	21.358836	0.000923	20.842143
57.005453	-2.994400	3.872700	-11.595000	21.363885	0.000924	20.827282
58.008714	-2.986300	3.872900	-11.564000	21.376728	0.000924	20.850087
59.008839	-2.974700	3.874500	-11.525000	21.382481	0.000925	20.841618
60.006570	-3.002000	3.871900	-11.623000	21.394736	0.000922	20.836811
61.010132	-2.997900	3.872300	-11.608000	21.397850	0.000922	20.834236
62.008382	-3.004000	3.871300	-11.627000	21.411848	0.000923	20.840181
63.009285	-2.999900	3.872600	-11.616000	21.418467	0.000924	20.826416
64.013287	-3.001100	3.870600	-11.614000	21.398319	0.000922	20.839921
65.011416	-2.998100	3.871500	-11.606000	21.421759	0.000923	20.837770
66.009526	-2.998900	3.870900	-11.606000	21.430738	0.000924	20.844382
67.016331	-3.013100	3.870700	-11.662000	21.427482	0.000923	20.841125
68.009314	-2.993100	3.869800	-11.581000	21.435447	0.000921	20.833921
69.015781	-3.011400	3.869000	-11.650000	21.460191	0.000923	20.858678
70.015382	-3.005200	3.869100	-11.627000	21.463146	0.000922	20.848834
71.015907	-3.033300	3.868200	-11.732000	21.454464	0.000924	20.857215
72.013919	-2.997500	3.869100	-11.597000	21.471202	0.000922	20.836506
73.015225	-3.000200	3.869400	-11.608000	21.456920	0.000921	20.830276
74.019516	-3.011400	3.867300	-11.645000	21.491604	0.000922	20.852178
75.013261	-2.992400	3.867800	-11.572000	21.494229	0.000921	20.849114
76.016948	-2.987500	3.869200	-11.559000	21.501755	0.000923	20.880825
77.017714	-3.003100	3.867700	-11.612000	21.503829	0.000922	20.839754
78.016755	-2.992800	3.867600	-11.573000	21.502841	0.000923	20.852990
79.022184	-3.013700	3.867100	-11.654000	21.530070	0.000922	20.844674
80.020113	-2.999000	3.867100	-11.596000	21.523614	0.000921	20.862870
81.017550	-2.985300	3.867600	-11.545000	21.543297	0.000920	20.864073
82.024594	-2.984000	3.868100	-11.540000	21.541117	0.000920	20.872796
83.022444	-3.000200	3.865400	-11.596000	21.561364	0.000921	20.854178
84.020903	-2.999900	3.866900	-11.598000	21.561120	0.000922	20.863890
85.022701	-3.019600	3.865200	-11.670000	21.568289	0.000924	20.862055
86.020468	-2.993400	3.863600	-11.564000	21.575947	0.000921	20.850753
87.032498	-3.007300	3.865000	-11.622000	21.599252	0.000923	20.870753
88.024775	-3.001800	3.866200	-11.605000	21.582117	0.000920	20.867832
89.026594	-3.003200	3.864700	-11.606000	21.577185	0.000922	20.864793
90.023338	-2.984300	3.865600	-11.533000	21.595920	0.000923	20.849876
91.026533	-3.008400	3.862400	-11.619000	21.610349	0.000923	20.863367
92.025146	-3.005600	3.864500	-11.614000	21.618888	0.000920	20.848205
93.022621	-2.982300	3.864600	-11.524000	21.618939	0.000923	20.864850
94.028495	-3.018900	3.864500	-11.665000	21.633383	0.000920	20.862709
95.028358	-3.000300	3.864800	-11.596000	21.635727	0.000923	20.861736
96.023472	-2.993200	3.862700	-11.560000	21.647888	0.000921	20.863475
97.027039	-3.009600	3.862500	-11.623000	21.648464	0.000922	20.864525
98.024672	-3.007300	3.862100	-11.614000	21.650181	0.000921	20.865769
99.024415	-2.981600	3.862900	-11.517000	21.646324	0.000922	20.864280
100.030196	-3.011500	3.861300	-11.627000	21.672179	0.000922	20.858861
101.025342	-2.982400	3.862500	-11.518000	21.671844	0.000922	20.868482
102.025658	-2.991100	3.861400	-11.548000	21.672791	0.000920	20.872275
103.029010	-3.007100	3.861400	-11.610000	21.698667	0.000922	20.872092
104.026979	-2.977500	3.862400	-11.499000	21.682303	0.000924	20.863302
105.026878	-2.992200	3.861500	-11.552000	21.707516	0.000923	20.882369
106.028839	-3.003000	3.861100	-11.593000	21.701407	0.000922	20.875308
107.030010	-3.002000	3.861800	-11.590000	21.715132	0.000922	20.868182
108.026877	-3.005300	3.859500	-11.596000	21.719345	0.000923	20.870975
109.027974	-2.984800	3.860900	-11.523000	21.709906	0.000923	20.869589
110.028623	-3.007100	3.861600	-11.611000	21.749280	0.000924	20.892398
111.028176	-2.980900	3.859900	-11.504000	21.753747	0.000924	20.862732
112.028056	-2.996200	3.860500	-11.566000	21.753080	0.000924	20.900942
113.032490	-3.001600	3.858600	-11.581000	21.772030	0.000924	20.882926
114.028443	-2.987200	3.859700	-11.529000	21.798174	0.000925	20.870212
115.031060	-2.991700	3.858800	-11.543000	21.772759	0.000925	20.875121
116.028566	-2.969700	3.858500	-11.458000	21.792769	0.000925	20.897043
117.028745	-2.995300	3.857800	-11.554000	21.783141	0.000925	20.884089
118.030631	-2.994100	3.858900	-11.553000	21.803640	0.000926	20.892751
119.029198	-2.984100	3.857200	-11.510000	21.820027	0.000924	20.870273
120.028749	-2.989500	3.857300	-11.530000	21.813100	0.000925	20.887994
121.031176	-3.003900	3.857500	-11.586000	21.824815	0.000926	20.876488
122.031866	-2.978200	3.857300	-11.486000	21.824210	0.000925	20.882994
123.029987	-2.989000	3.857200	-11.529000	21.826630	0.000925	20.895372
124.032118	-2.998600	3.857300	-11.565000	21.820955	0.000927	20.880685
125.030130	-2.995100	3.857500	-11.553000	21.859801	0.000926	20.880685
126.030470	-2.988700	3.856700	-11.525000	21.861594	0.000926	20.874419
127.032503	-3.019800	3.855700	-11.643000	21.870707	0.000926	20.896341
128.029553	-3.001400	3.856100	-11.573000	21.854600	0.000929	20.879273
129.030180	-3.020400	3.856600	-11.646000	21.868221	0.000926	20.904284
130.031142	-3.015500	3.855200	-11.625000	21.881587	0.000926	20.888741
131.032122	-2.999400	3.855900	-11.562000	21.877976	0.000927	20.887971
132.029924	-3.020800	3.854800	-11.643000	21.891943	0.000927	20.891519
133.034695	-2.995500	3.854800	-11.546000	21.905181	0.000928	20.881537
134.033615	-3.018200	3.853500	-11.629000	21.901606	0.000928	20.904035
135.030923	-3.015700	3.854700	-11.623000	21.930593	0.000928	20.899386
136.032828	-3.000500	3.855300	-11.566000	21.949551	0.000927	20.908879
137.032606	-2.993800	3.854800	-11.539000	21.937362	0.000930	20.906162
138.032291	-3.000300	3.854700	-11.564000	21.957129	0.000930	20.905086
139.034064	-2.991200	3.853700	-11.526000	21.956987	0.000928	20.919166
140.033319	-3.003400	3.854100	-11.573000	21.967973	0.000928	20.920206
141.030790	-2.989200	3.854600	-11.521000	21.974371	0.000928	20.894844
142.040570	-2.997000	3.853600	-11.548000	21.981323	0.000929	20.889476
143.032954	-3.001500	3.852000	-11.560000	21.987211	0.000928	20.908171
144.031581	-2.986400	3.852400	-11.504000	21.995390	0.000930	20.919203
145.034280	-3.016500	3.852000	-11.618000	21.998859	0.000933	20.913666
146.032912	-2.984900	3.852000	-11.497000	22.015910	0.000932	20.888539
147.030946	-2.999000	3.852500	-11.553000	22.017200	0.000931	20.890777
148.036081	-3.000900	3.851100	-11.556000	22.022028	0.000932	20.909833
149.033737	-2.985800	3.852000	-11.499000	22.030502	0.000932	20.914523
150.032865	-2.990600	3.850100	-11.512000	22.035188	0.000932	20.917791
151.036201	-2.989200	3.853200	-11.518000	22.033074	0.000932	20.918046
152.036545	-3.021700	3.850900	-11.634000	22.038219	0.000932	20.897119
153.036077	-3.014700	3.850900	-11.609000	22.054093	0.000933	20.916802
154.038043	-3.018000	3.850900	-11.621000	22.055193	0.000933	20.923119
155.038698	-3.016600	3.849600	-11.611000	22.079246	0.000933	20.917802
156.035159	-3.010800	3.849000	-11.587000	22.049495	0.000932	20.918363
157.037917	-3.009200	3.849400	-11.582000	22.063281	0.000935	20.902768
158.038819	-2.992200	3.848400	-11.513000	22.098059	0.000935	20.919566
159.035497	-2.987700	3.849400	-11.500000	22.093221	0.000933	20.927050
160.038430	-2.990400	3.850000	-11.511000	22.096063	0.000934	20.946962
161.036663	-2.986300	3.850000	-11.496000	22.110924	0.000934	20.930547
162.035186	-3.001800	3.849400	-11.554000	22.110690	0.000935	20.930313
163.039872	-2.995100	3.849200	-11.527000	22.110563	0.000935	20.919281
164.038915	-2.989700	3.847700	-11.502000	22.125540	0.000936	20.922421
165.037313	-2.979000	3.850100	-11.467000	22.126075	0.000935	20.912527
166.039635	-2.999300	3.848500	-11.541000	22.129161	0.000939	20.917987
167.039093	-2.978100	3.849000	-11.461000	22.148436	0.000936	20.930645
168.037497	-3.017700	3.846900	-11.608000	22.118446	0.000937	20.935707
169.038482	-2.994500	3.847100	-11.519000	22.161646	0.000938	20.934387
170.037150	-2.996100	3.847500	-11.527000	22.153722	0.000938	20.934514
171.036890	-3.001700	3.846900	-11.544000	22.154491	0.000937	20.945240
172.040538	-3.004500	3.846900	-11.557000	22.173037	0.000939	20.931568
173.037677	-3.001700	3.848000	-11.550000	22.176108	0.000939	20.942227
174.037464	-3.002100	3.845000	-11.542000	22.170553	0.000940	20.912012
175.038715	-3.001000	3.846800	-11.543000	22.193091	0.000940	20.920827
176.041112	-3.003700	3.845800	-11.551000	22.190454	0.000939	20.929565
177.041224	-3.010100	3.845800	-11.575000	22.204315	0.000940	20.932537
178.040737	-2.989100	3.846500	-11.496000	22.179368	0.000940	20.931742
179.040409	-3.002800	3.845300	-11.546000	22.189237	0.000944	20.934510
180.038765	-2.986600	3.847400	-11.490000	22.199360	0.000940	20.957919
181.043013	-2.990700	3.845400	-11.499000	22.211811	0.000942	20.923923
182.038573	-2.996100	3.844900	-11.518000	22.227556	0.000941	20.924988
183.040802	-2.995300	3.845800	-11.518000	22.250414	0.000941	20.930330
184.044974	-2.987000	3.845800	-11.484000	22.272503	0.000942	20.941541
185.041667	-3.015100	3.844900	-11.591000	22.266077	0.000943	20.941745
186.041317	-3.001900	3.843900	-11.537000	22.281653	0.000945	20.945013
187.045893	-2.999500	3.842900	-11.526000	22.289627	0.000943	20.943988
188.043851	-2.998200	3.843700	-11.523000	22.290060	0.000944	20.927354
189.043959	-3.005600	3.842500	-11.548000	22.295203	0.000944	20.950993
190.049015	-3.020100	3.843100	-11.604000	22.280921	0.000946	20.942383
191.046498	-2.986600	3.844900	-11.482000	22.288345	0.000946	20.957875
192.043755	-2.995800	3.842400	-11.510000	22.312276	0.000948	20.966663
193.053066	-3.002300	3.843700	-11.539000	22.313336	0.000945	20.946390
194.049691	-3.001300	3.842900	-11.533000	22.318213	0.000947	20.943688
195.045794	-3.014900	3.842200	-11.583000	22.321757	0.000948	20.959089
196.046097	-2.992200	3.843600	-11.499000	22.319273	0.000947	20.960868
197.046270	-3.004700	3.842500	-11.544000	22.348361	0.000948	20.963443
198.046143	-3.004300	3.842700	-11.543000	22.336640	0.000950	20.965930
199.045781	-2.980900	3.842800	-11.453000	22.361915	0.000949	20.972746
200.046534	-3.001600	3.840900	-11.528000	22.350445	0.000948	20.960313
201.045118	-2.988600	3.841400	-11.479000	22.351585	0.000948	20.959085
202.046465	-3.006600	3.841200	-11.547000	22.373519	0.000951	20.949282
203.047508	-3.006600	3.841000	-11.548000	22.392444	0.000951	20.960171
204.046642	-2.976300	3.840600	-11.430000	22.381900	0.000952	20.955777
205.046711	-2.992900	3.841600	-11.497000	22.388091	0.000952	20.971458
206.046332	-3.002800	3.840500	-11.531000	22.390678	0.000952	20.972151
207.046818	-2.966500	3.840500	-11.391000	22.389283	0.000951	20.952739
208.046858	-2.998500	3.840400	-11.515000	22.392262	0.000954	20.962833
209.049327	-2.969400	3.841300	-11.406000	22.383036	0.000955	20.987255
210.048655	-2.990700	3.839700	-11.481000	22.390138	0.000955	20.968766
211.050534	-3.016100	3.837300	-11.572000	22.401116	0.000954	20.965061
212.051383	-2.990800	3.838700	-11.479000	22.412312	0.000954	20.961574
213.053689	-2.994000	3.839300	-11.493000	22.417724	0.000955	20.975053
214.052325	-3.000000	3.838100	-11.513000	22.425580	0.000955	20.971541
215.051776	-3.024500	3.838800	-11.609000	22.429536	0.000957	20.979768
216.052520	-3.001300	3.837000	-11.515000	22.440961	0.000958	20.964185
217.052144	-3.006400	3.837500	-11.535000	22.463560	0.000956	20.975436
218.053917	-2.978100	3.837500	-11.427000	22.480116	0.000958	20.975895
219.053367	-2.999200	3.837800	-11.509000	22.477876	0.000958	20.964645
220.054402	-2.988500	3.835600	-11.462000	22.448929	0.000958	20.965053
221.054009	-3.004600	3.836900	-11.528000	22.494050	0.000958	20.987003
222.054771	-2.996700	3.835600	-11.491000	22.495161	0.000956	20.978633
223.053444	-2.997100	3.836400	-11.496000	22.499702	0.000962	20.971329
224.055553	-2.995300	3.836100	-11.488000	22.489964	0.000959	21.003296
225.055932	-2.969400	3.836600	-11.391000	22.511411	0.000959	20.976890
226.055533	-3.011800	3.835300	-11.549000	22.490284	0.000959	20.975172
227.057330	-2.996500	3.834800	-11.488000	22.499535	0.000961	20.974479
228.056201	-3.008000	3.836800	-11.540000	22.520530	0.000963	20.963265
229.057137	-2.992700	3.834600	-11.475000	22.547119	0.000962	20.996053
230.057714	-3.013100	3.834100	-11.550000	22.530767	0.000963	20.978257
231.057844	-3.005400	3.834700	-11.524000	22.543102	0.000962	21.000090
232.057076	-2.994600	3.835300	-11.484000	22.541474	0.000962	20.979497
233.058803	-3.021100	3.832800	-11.578000	22.526990	0.000965	21.015720
234.059061	-3.019100	3.833400	-11.571000	22.526171	0.000964	20.997833
235.064327	-2.990900	3.834400	-11.467000	22.530905	0.000965	21.003522
236.064322	-3.014000	3.832900	-11.551000	22.550134	0.000965	20.988643
237.062110	-3.005700	3.832300	-11.517000	22.566423	0.000965	20.999740
238.062946	-2.981800	3.833900	-11.430000	22.584296	0.000965	21.010053
239.062299	-2.992500	3.833700	-11.470000	22.597282	0.000968	20.998879
240.062827	-2.988700	3.833200	-11.455000	22.599930	0.000968	21.004849
241.067427	-2.979800	3.834300	-11.424000	22.595847	0.000966	20.990331
242.063566	-2.989100	3.832600	-11.454000	22.613837	0.000968	21.003131
243.064320	-2.982900	3.831800	-11.429000	22.606965	0.000969	20.972546
244.063226	-3.008500	3.831700	-11.527000	22.627398	0.000968	21.001541
245.064448	-2.996100	3.832000	-11.479000	22.604456	0.000971	20.991367
246.064616	-3.008700	3.831300	-11.526000	22.616764	0.000970	21.001796
247.065502	-3.003200	3.832100	-11.507000	22.634728	0.000971	21.023104
248.063958	-2.971200	3.833100	-11.388000	22.640765	0.000969	21.013980
249.064487	-3.005600	3.831300	-11.514000	22.640558	0.000970	21.001446
250.063595	-3.000000	3.832100	-11.495000	22.650255	0.000972	21.025379
251.064241	-3.007700	3.830700	-11.520000	22.658277	0.000970	21.024879
252.067354	-2.991900	3.831800	-11.463000	22.653812	0.000971	21.009031
253.063899	-3.002200	3.830000	-11.498000	22.682969	0.000972	21.023533
254.063958	-3.015900	3.828500	-11.546000	22.695699	0.000973	21.016371
255.063121	-3.019200	3.828400	-11.558000	22.696387	0.000976	21.007105
256.065025	-3.002600	3.829300	-11.497000	22.698957	0.000976	21.027220
257.064618	-2.986500	3.830000	-11.437000	22.704754	0.000975	21.028285
258.066501	-3.019300	3.829300	-11.559000	22.688019	0.000976	21.013421
259.066947	-3.009400	3.828600	-11.521000	22.709371	0.000974	21.026272
260.067140	-2.999900	3.829500	-11.487000	22.712095	0.000975	21.003400
261.067077	-3.003300	3.827400	-11.494000	22.740751	0.000976	21.004129
262.068401	-3.012100	3.828200	-11.529000	22.699533	0.000977	21.018315
263.066422	-2.975900	3.829200	-11.395000	22.708293	0.000976	21.018081
264.067653	-2.998200	3.827700	-11.475000	22.716621	0.000978	21.002244
265.066700	-3.007500	3.826300	-11.507000	22.716071	0.000980	21.013545
266.066590	-2.997400	3.827400	-11.470000	22.717466	0.000980	21.023001
267.066638	-3.000900	3.827000	-11.483000	22.724347	0.000980	21.023730
268.066845	-2.977900	3.828500	-11.400000	22.729055	0.000980	21.048829
269.065595	-2.996200	3.828200	-11.468000	22.726714	0.000978	21.027996
270.066538	-3.003200	3.827000	-11.493000	22.749304	0.000980	21.039716
271.067550	-3.004900	3.825800	-11.495000	22.752606	0.000982	21.006995
272.068154	-2.991200	3.825500	-11.442000	22.780915	0.000982	21.047199
273.068519	-3.004000	3.825800	-11.491000	22.771627	0.000981	21.020831
274.068402	-3.005700	3.824800	-11.495000	22.772956	0.000983	21.017421
275.069690	-2.988800	3.826500	-11.434000	22.770502	0.000984	21.005956
276.071359	-3.001000	3.825800	-11.480000	22.770116	0.000985	21.023110
277.070928	-2.989000	3.824700	-11.430000	22.768951	0.000984	21.024313
278.070405	-3.000400	3.823100	-11.470000	22.777984	0.000984	21.021509
279.071754	-2.994500	3.823000	-11.447000	22.801010	0.000986	21.013756
280.071672	-3.008000	3.823400	-11.500000	22.797453	0.000987	21.016356
281.074139	-3.015500	3.823100	-11.528000	22.802761	0.000987	20.987540
282.074027	-3.003000	3.824300	-11.484000	22.812828	0.000985	21.012319
283.072270	-2.986900	3.825200	-11.425000	22.826835	0.000987	21.005015
284.074930	-2.997900	3.823500	-11.461000	22.857009	0.000989	20.991624
285.073358	-3.008200	3.822800	-11.499000	22.839818	0.000987	21.014700
286.071112	-2.999900	3.822500	-11.466000	22.843935	0.000989	21.005551
287.074808	-3.015100	3.823100	-11.525000	22.847340	0.000989	20.995686
288.073220	-3.007300	3.822000	-11.493000	22.852389	0.000990	20.997426
289.073502	-3.003700	3.822000	-11.478000	22.855204	0.000988	21.000245
290.074426	-3.004700	3.820900	-11.480000	22.864451	0.000989	21.014722
291.075546	-3.009900	3.821800	-11.502000	22.879163	0.000990	20.994377
292.072843	-2.985300	3.822000	-11.409000	22.874084	0.000990	21.001142
293.074879	-2.997000	3.822100	-11.453000	22.865092	0.000992	20.969853
294.076482	-2.996800	3.820500	-11.449000	22.895510	0.000992	20.982306
295.076438	-2.982400	3.820900	-11.395000	22.892502	0.000992	20.993042
296.077043	-3.014000	3.821100	-11.516000	22.904578	0.000994	20.996605
297.077151	-2.982300	3.820400	-11.392000	22.886248	0.000992	20.990570
298.076931	-2.992800	3.822000	-11.437000	22.908197	0.000991	20.975104
299.077000	-3.011900	3.819200	-11.502000	22.918467	0.000994	20.989184
300.077234	-3.002900	3.819100	-11.468000	22.932538	0.000996	20.979101
301.079026	-2.991800	3.820100	-11.428000	22.919465	0.000993	20.989709
302.077566	-3.001000	3.820800	-11.465000	22.919079	0.000995	20.982211
303.076325	-3.008100	3.818900	-11.487000	22.928253	0.000996	20.957268
304.076316	-2.999400	3.820500	-11.457000	22.932217	0.000996	20.990632
305.078741	-3.012100	3.818100	-11.499000	22.931195	0.000996	20.986289
306.076684	-2.964000	3.820300	-11.322000	22.942360	0.000998	20.969977
307.075496	-3.003800	3.818800	-11.470000	22.958593	0.000998	20.987186
308.078251	-3.001400	3.817900	-11.457000	22.965320	0.001000	20.965006
309.078339	-3.020000	3.817200	-11.527000	22.955753	0.000998	20.972963
310.080504	-3.025200	3.816100	-11.543000	22.947719	0.001001	20.968233
311.081696	-2.988000	3.818000	-11.408000	22.957504	0.001000	20.968080
312.084251	-2.988100	3.818100	-11.408000	22.936400	0.001002	20.964955
313.079927	-3.020100	3.815700	-11.522000	22.951290	0.001001	20.968018
314.081583	-2.992900	3.817100	-11.422000	22.931912	0.001002	20.968044
315.087064	-3.001200	3.817000	-11.454000	22.950787	0.001002	20.980315
316.081967	-3.013200	3.816600	-11.498000	22.944537	0.001002	20.964098
317.083075	-2.995900	3.816100	-11.431000	22.941195	0.001001	20.973076
318.081877	-3.009600	3.815400	-11.482000	22.948319	0.001004	20.961724
319.083825	-3.001300	3.814800	-11.448000	22.942258	0.001003	20.977934
320.090187	-2.992800	3.814700	-11.415000	22.940376	0.001004	20.972256
321.084432	-3.003300	3.813200	-11.450000	22.937908	0.001004	20.950820
322.085429	-2.987600	3.814000	-11.394000	22.953653	0.001005	20.952370
323.083477	-2.984700	3.814700	-11.385000	22.943099	0.001006	20.959339
324.086347	-2.989700	3.814600	-11.403000	22.937241	0.001005	20.966745
325.083802	-2.994700	3.813800	-11.421000	22.948854	0.001006	20.936659
326.089322	-2.982900	3.814400	-11.376000	22.947842	0.001006	20.967409
327.085125	-3.000600	3.813400	-11.441000	22.962488	0.001007	20.939412
328.085640	-3.008900	3.813400	-11.473000	22.983926	0.001007	20.981748
329.093282	-3.001900	3.813500	-11.447000	22.990475	0.001007	20.957493
330.085325	-2.992900	3.811700	-11.407000	23.013023	0.001007	20.971548
331.088139	-3.034800	3.811400	-11.564000	23.020300	0.001011	20.966038
332.089986	-3.007600	3.812200	-11.466000	23.027682	0.001010	20.933136
333.090030	-2.983600	3.813000	-11.376000	23.031082	0.001010	20.958824
334.088722	-3.012000	3.810300	-11.476000	23.016004	0.001010	20.944193
335.091123	-2.999600	3.811100	-11.431000	23.039331	0.001010	20.942910
336.089005	-3.003500	3.810000	-11.442000	23.032360	0.001009	20.971957
337.090928	-2.985900	3.810200	-11.376000	23.023842	0.001010	20.960579
338.092145	-2.987300	3.811000	-11.383000	23.051110	0.001013	20.954711
339.090808	-2.985700	3.810900	-11.377000	23.039534	0.001012	20.945010
340.097864	-3.003200	3.810700	-11.443000	23.056840	0.001011	20.966140
341.092879	-2.996700	3.810100	-11.417000	23.086266	0.001013	20.926878
342.094403	-2.991200	3.809000	-11.393000	23.051248	0.001013	20.951057
343.092478	-3.029200	3.807500	-11.532000	23.064859	0.001015	20.959477
344.093125	-3.014200	3.808500	-11.478000	23.088159	0.001014	20.969072
345.091682	-3.028100	3.808400	-11.530000	23.070625	0.001015	20.945342
346.092490	-2.993700	3.808500	-11.400000	23.092494	0.001016	20.947340
347.092317	-3.002400	3.808600	-11.433000	23.108018	0.001016	20.960524
348.092637	-2.987700	3.809800	-11.382000	23.103261	0.001017	20.960024
349.092616	-3.016200	3.806300	-11.479000	23.131281	0.001019	20.956334
350.092986	-3.000900	3.808600	-11.428000	23.111891	0.001019	20.961085
351.092371	-3.001900	3.806700	-11.426000	23.146830	0.001018	20.952949
352.091175	-3.023200	3.806300	-11.506000	23.118414	0.001018	20.945338
353.093304	-2.988900	3.807300	-11.378000	23.142866	0.001018	20.944711
354.093231	-2.996800	3.806700	-11.406000	23.142404	0.001019	20.947567
355.091171	-3.008900	3.805000	-11.447000	23.157546	0.001018	20.929551
356.094407	-3.030300	3.806100	-11.533000	23.172534	0.001019	20.956895
357.091619	-3.002500	3.806500	-11.426000	23.152224	0.001019	20.950294
358.097277	-2.993200	3.806900	-11.394000	23.154001	0.001020	20.940222
359.093357	-2.987800	3.804500	-11.366000	23.148195	0.001023	20.950998
360.094033	-3.008700	3.805400	-11.449000	23.156239	0.001021	20.943887
361.093153	-2.993200	3.805600	-11.389000	23.141159	0.001023	20.955801
362.092297	-2.992500	3.804700	-11.383000	23.135328	0.001021	20.940003
363.092720	-2.992300	3.804600	-11.384000	23.143078	0.001022	20.943974
364.092999	-3.000900	3.803000	-11.412000	23.114610	0.001021	20.932045
365.095438	-3.023800	3.802100	-11.495000	23.103789	0.001024	20.960553
366.096355	-3.007700	3.803500	-11.438000	23.102944	0.001023	20.955914
367.101110	-3.007200	3.804100	-11.438000	23.149636	0.001024	20.949598
368.093679	-3.010100	3.802300	-11.443000	23.131361	0.001023	20.940295
369.095912	-3.018600	3.802400	-11.477000	23.132562	0.001023	20.923482
370.094543	-3.012800	3.801900	-11.453000	23.146335	0.001025	20.918792
371.094866	-3.012900	3.802700	-11.457000	23.149698	0.001026	20.918369
372.094917	-3.018800	3.802200	-11.477000	23.162947	0.001024	20.915525
373.095882	-3.011700	3.799600	-11.442000	23.166514	0.001025	20.925262
374.096421	-2.991700	3.801200	-11.370000	23.166449	0.001026	20.926619
375.095808	-2.984400	3.801900	-11.345000	23.173815	0.001026	20.924518
376.095555	-2.994600	3.800800	-11.380000	23.167919	0.001026	20.938522
377.096204	-3.002100	3.801700	-11.412000	23.203213	0.001027	20.936432
378.097527	-2.990500	3.800700	-11.365000	23.202867	0.001028	20.940353
379.096515	-3.003500	3.800200	-11.413000	23.197164	0.001028	20.933690
380.098285	-3.009600	3.799200	-11.432000	23.220501	0.001027	20.923887
381.099545	-2.998900	3.799800	-11.394000	23.195781	0.001030	20.942260
382.098927	-3.007100	3.799000	-11.423000	23.206984	0.001029	20.938788
383.100469	-2.984500	3.798600	-11.335000	23.235343	0.001031	20.948241
384.102722	-3.004000	3.798600	-11.410000	23.242750	0.001031	20.927691
385.101118	-3.011200	3.798200	-11.435000	23.227122	0.001030	20.916772
386.099647	-2.980000	3.799400	-11.321000	23.239692	0.001030	20.939324
387.102021	-2.988500	3.799100	-11.352000	23.251725	0.001031	20.932417
388.101269	-2.988700	3.799100	-11.353000	23.260674	0.001033	20.943755
389.102735	-3.027000	3.797000	-11.492000	23.259870	0.001031	20.925882
390.103449	-2.998300	3.797000	-11.383000	23.277859	0.001032	20.906455
391.101852	-3.007500	3.798300	-11.422000	23.262516	0.001032	20.960298
392.104985	-2.997400	3.797500	-11.382000	23.290481	0.001033	20.932851
393.103931	-3.042100	3.793500	-11.540000	23.283395	0.001034	20.951352
394.102541	-3.001200	3.796200	-11.393000	23.331102	0.001033	20.925674
395.106143	-2.986600	3.797000	-11.340000	23.310719	0.001034	20.931323
396.105814	-2.991800	3.795500	-11.355000	23.334822	0.001034	20.925609
397.107108	-3.002900	3.795200	-11.396000	23.342595	0.001035	20.924865
398.107898	-3.008800	3.796500	-11.422000	23.357068	0.001034	20.924671
399.109662	-3.024300	3.794300	-11.474000	23.349728	0.001034	20.924427
400.108234	-3.018900	3.794000	-11.453000	23.355710	0.001035	20.929474
401.109226	-3.001600	3.795400	-11.390000	23.355878	0.001035	20.919686
402.108787	-2.997300	3.795800	-11.377000	23.362756	0.001035	20.926105
403.107508	-2.991300	3.794000	-11.349000	23.367858	0.001037	20.915098
404.108294	-2.997900	3.796000	-11.379000	23.386945	0.001038	20.922374
405.108241	-3.014900	3.792400	-11.432000	23.375373	0.001037	20.917888
406.109326	-3.002500	3.793500	-11.388000	23.382953	0.001036	20.919795
407.111393	-3.007200	3.793600	-11.407000	23.364106	0.001037	20.929828
408.108693	-3.003700	3.793100	-11.392000	23.362829	0.001038	20.942771
409.110650	-2.995800	3.792800	-11.361000	23.371737	0.001039	20.923253
410.110875	-2.996400	3.792200	-11.362000	23.374692	0.001037	20.912939
411.110855	-3.019400	3.791900	-11.449000	23.395507	0.001040	20.925740
412.110008	-3.016800	3.791000	-11.435000	23.383422	0.001040	20.914577
413.119422	-2.983400	3.792000	-11.311000	23.383539	0.001040	20.928442
414.110916	-2.994600	3.791100	-11.352000	23.377465	0.001040	20.909555
415.112565	-2.984800	3.791400	-11.315000	23.396195	0.001041	20.915525
416.112463	-3.015900	3.790300	-11.430000	23.399034	0.001041	20.916473
417.118726	-2.988100	3.791400	-11.327000	23.406308	0.001041	20.901955
418.113912	-2.988700	3.790600	-11.328000	23.417636	0.001042	20.908092
419.113348	-3.001600	3.789200	-11.372000	23.426355	0.001040	20.913986
420.113864	-3.000000	3.789200	-11.366000	23.405438	0.001042	20.911039
421.114526	-3.010500	3.788800	-11.405000	23.413466	0.001043	20.905335
422.114055	-3.005000	3.788000	-11.382000	23.414911	0.001043	20.912947
423.116005	-2.988600	3.788300	-11.321000	23.439357	0.001042	20.915638
424.112981	-2.994400	3.788000	-11.341000	23.449494	0.001041	20.895930
425.115769	-2.990600	3.787000	-11.324000	23.438512	0.001044	20.926645
426.113901	-3.012700	3.786400	-11.406000	23.454494	0.001043	20.917060
427.114907	-2.995000	3.786800	-11.341000	23.419616	0.001044	20.907232
428.113893	-2.997200	3.787300	-11.350000	23.464184	0.001043	20.912075
429.116115	-2.998400	3.787500	-11.356000	23.459134	0.001046	20.903694
430.114430	-2.988900	3.786700	-11.316000	23.454545	0.001046	20.922801
431.116608	-2.982200	3.788000	-11.294000	23.454199	0.001045	20.909653
432.116403	-2.987700	3.786500	-11.311000	23.494637	0.001047	20.910357
433.116685	-2.993100	3.786700	-11.333000	23.460043	0.001047	20.907451
434.116965	-3.009100	3.784100	-11.386000	23.456921	0.001046	20.918545
435.117897	-2.958200	3.787300	-11.202000	23.507037	0.001047	20.911408
436.122000	-3.017500	3.784900	-11.420000	23.477313	0.001047	20.898209
437.119914	-3.005900	3.785000	-11.376000	23.508456	0.001045	20.906667
438.119904	-2.969500	3.785600	-11.240000	23.526238	0.001047	20.913585
439.121512	-2.986000	3.785100	-11.301000	23.536197	0.001047	20.924515
440.124145	-2.981400	3.784400	-11.282000	23.540469	0.001047	20.896083
441.121182	-3.002100	3.783700	-11.357000	23.558570	0.001048	20.909012
442.122682	-3.010100	3.781800	-11.382000	23.563260	0.001047	20.912290
443.122690	-3.002100	3.782700	-11.355000	23.562467	0.001049	20.901065
444.123157	-3.027200	3.782400	-11.448000	23.547691	0.001047	20.899529
445.124035	-3.009900	3.781800	-11.382000	23.562965	0.001049	20.883548
446.128194	-2.968800	3.783900	-11.233000	23.571723	0.001050	20.896120
447.125282	-3.007700	3.781200	-11.371000	23.546589	0.001050	20.898425
448.126200	-3.009700	3.780700	-11.378000	23.520842	0.001050	20.899643
449.125771	-3.013800	3.780200	-11.391000	23.535007	0.001050	20.906729
450.126239	-3.007200	3.780800	-11.367000	23.533614	0.001049	20.883049
451.128371	-3.005000	3.778700	-11.354000	23.563871	0.001050	20.893465
452.126628	-3.013000	3.779500	-11.386000	23.578342	0.001049	20.892797
453.133209	-2.979000	3.780500	-11.260000	23.562976	0.001049	20.905843
454.131859	-3.007800	3.779700	-11.367000	23.571541	0.001049	20.896411
455.128687	-2.988100	3.780800	-11.297000	23.551264	0.001049	20.891258
456.130397	-3.008100	3.777800	-11.364000	23.580910	0.001052	20.896320
457.132904	-2.984600	3.780200	-11.281000	23.583275	0.001052	20.878778
458.130949	-2.993100	3.777700	-11.306000	23.586139	0.001050	20.878804
459.133934	-3.013000	3.778400	-11.384000	23.582890	0.001050	20.903520
460.133573	-3.014700	3.778000	-11.388000	23.564905	0.001051	20.893078
461.132568	-2.992200	3.776500	-11.298000	23.564814	0.001051	20.894883
462.133734	-3.007800	3.775800	-11.356000	23.601744	0.001053	20.884015
463.135726	-3.013400	3.776400	-11.378000	23.591967	0.001052	20.897447
464.136089	-3.005400	3.777400	-11.352000	23.619142	0.001052	20.898611
465.135576	-3.002100	3.775800	-11.333000	23.649910	0.001053	20.896266
466.137936	-2.991200	3.777200	-11.297000	23.656939	0.001054	20.890037
467.136487	-3.027500	3.773900	-11.423000	23.661120	0.001054	20.896598
468.141014	-2.993900	3.776000	-11.304000	23.674719	0.001054	20.886525
469.138530	-3.010000	3.774300	-11.358000	23.693637	0.001053	20.879887
470.136798	-2.986200	3.774800	-11.271000	23.678106	0.001052	20.900825
471.138051	-2.984100	3.774300	-11.262000	23.685288	0.001052	20.885267
472.137798	-3.006400	3.774500	-11.346000	23.682770	0.001054	20.868993
473.136475	-3.015000	3.774500	-11.379000	23.673398	0.001053	20.890416
474.138124	-3.005500	3.773600	-11.341000	23.656041	0.001055	20.875387
475.138489	-2.996400	3.774100	-11.307000	23.633797	0.001053	20.883432
476.137264	-3.009500	3.772400	-11.352000	23.645327	0.001054	20.870336
477.141025	-3.008100	3.772200	-11.346000	23.641096	0.001053	20.885533
478.139290	-2.997100	3.773300	-11.309000	23.661138	0.001056	20.858687
479.140635	-3.014100	3.772700	-11.370000	23.693783	0.001055	20.869603
480.142017	-3.026900	3.771100	-11.413000	23.696646	0.001055	20.868206
481.142109	-2.998900	3.772700	-11.312000	23.701746	0.001054	20.886594
482.141529	-2.998500	3.772200	-11.310000	23.688850	0.001055	20.891682
483.142631	-2.994100	3.770400	-11.288000	23.685652	0.001054	20.883261
484.140830	-2.998500	3.771700	-11.308000	23.695238	0.001057	20.868217
485.145329	-3.003000	3.770000	-11.320000	23.706101	0.001055	20.885271
486.143414	-3.000600	3.769400	-11.310000	23.708710	0.001054	20.869395
487.141485	-3.011300	3.770100	-11.351000	23.702303	0.001057	20.867714
488.141874	-3.000500	3.770600	-11.313000	23.712708	0.001058	20.880989
489.144971	-2.996600	3.770500	-11.297000	23.694442	0.001056	20.891125
490.142182	-2.987200	3.769600	-11.260000	23.688945	0.001058	20.871864
491.143252	-3.018000	3.768000	-11.370000	23.690771	0.001057	20.875592
492.147440	-2.987200	3.769200	-11.259000	23.727904	0.001060	20.869198
493.143715	-3.018100	3.768500	-11.373000	23.712730	0.001057	20.872003
494.145095	-3.000300	3.768700	-11.306000	23.690618	0.001057	20.897722
495.147503	-3.005300	3.767200	-11.320000	23.708692	0.001057	20.890239
496.143199	-3.004200	3.766700	-11.315000	23.689862	0.001056	20.856189
497.145717	-3.005100	3.767600	-11.321000	23.709405	0.001056	20.871041
498.147256	-2.988400	3.766600	-11.255000	23.719144	0.001057	20.860417
499.147458	-2.978000	3.766700	-11.216000	23.710580	0.001058	20.873641
500.146670	-3.002200	3.765400	-11.302000	23.698451	0.001059	20.863852
501.148053	-3.004200	3.765500	-11.312000	23.694438	0.001057	20.870260
502.147920	-2.989900	3.766500	-11.261000	23.674266	0.001058	20.870424
503.147344	-2.997800	3.765000	-11.286000	23.666815	0.001057	20.867222
504.149018	-2.999700	3.763700	-11.289000	23.676707	0.001056	20.861018
505.146478	-3.005000	3.764300	-11.311000	23.701107	0.001059	20.860825
506.146747	-3.004400	3.764700	-11.310000	23.697400	0.001058	20.864221
507.151565	-2.988700	3.765000	-11.251000	23.698051	0.001059	20.870563
508.148826	-3.003700	3.764800	-11.307000	23.703752	0.001059	20.846408
509.148807	-2.987900	3.764000	-11.246000	23.714219	0.001061	20.861642
510.152691	-3.030400	3.762800	-11.402000	23.723921	0.001061	20.871843
511.149146	-2.998400	3.762900	-11.281000	23.746494	0.001058	20.865078
512.150342	-3.006300	3.763300	-11.313000	23.750787	0.001059	20.851365
513.150434	-2.984300	3.763300	-11.230000	23.730208	0.001059	20.848750
514.150353	-2.981800	3.762200	-11.218000	23.728112	0.001061	20.861821
515.152162	-2.996900	3.761000	-11.269000	23.716467	0.001060	20.854414
516.155050	-2.964600	3.763000	-11.154000	23.708133	0.001059	20.866446
517.153744	-2.994800	3.761400	-11.262000	23.703134	0.001059	20.872340
518.153111	-2.963700	3.761700	-11.147000	23.704167	0.001063	20.844928
519.156259	-3.001900	3.760800	-11.288000	23.715863	0.001059	20.858550
520.154172	-2.985900	3.760900	-11.229000	23.729782	0.001060	20.856858
521.157635	-3.001200	3.759900	-11.283000	23.756033	0.001059	20.856625
522.156383	-2.994200	3.760000	-11.257000	23.795375	0.001059	20.852449
523.154360	-2.991000	3.759800	-11.245000	23.786350	0.001061	20.852883
524.154832	-3.009600	3.757200	-11.307000	23.798733	0.001059	20.857238
525.156242	-3.013600	3.758100	-11.324000	23.799668	0.001060	20.854382
526.156482	-3.012900	3.757600	-11.320000	23.810672	0.001059	20.852139
527.154011	-3.012200	3.757600	-11.317000	23.812487	0.001059	20.843054
528.158682	-2.998500	3.758500	-11.267000	23.783804	0.001060	20.848434
529.155435	-2.996200	3.756500	-11.254000	23.763571	0.001062	20.849010
530.157802	-2.998500	3.758100	-11.268000	23.747197	0.001061	20.825482
531.162399	-3.005100	3.756700	-11.288000	23.748245	0.001059	20.843127
532.158546	-3.001700	3.756600	-11.275000	23.779814	0.001060	20.853916
533.157202	-3.001000	3.756500	-11.272000	23.801007	0.001061	20.848138
534.160260	-3.009200	3.755000	-11.299000	23.801618	0.001061	20.844484
535.158469	-3.006000	3.753900	-11.283000	23.831716	0.001061	20.844316
536.159229	-3.022600	3.753800	-11.345000	23.810717	0.001061	20.837960
537.161978	-3.001500	3.754400	-11.268000	23.822666	0.001060	20.849941
538.160303	-2.977600	3.755100	-11.180000	23.825631	0.001061	20.854810
539.160801	-3.005300	3.754000	-11.281000	23.845415	0.001061	20.845724
540.161371	-3.007200	3.754400	-11.289000	23.848187	0.001061	20.845659
541.163567	-2.997500	3.753100	-11.248000	23.847369	0.001061	20.836778
542.164109	-2.993400	3.752300	-11.231000	23.838486	0.001062	20.844941
543.164340	-2.994200	3.753500	-11.238000	23.817476	0.001060	20.837150
544.166441	-2.994300	3.753600	-11.239000	23.849526	0.001062	20.854588
545.161240	-2.987800	3.753800	-11.215000	23.849144	0.001060	20.811058
546.169000	-2.992700	3.752700	-11.230000	23.864531	0.001060	20.835495
547.162701	-2.990600	3.750800	-11.216000	23.840949	0.001061	20.835557
548.162500	-3.011100	3.751900	-11.295000	23.852848	0.001060	20.857918
549.166281	-3.012100	3.751000	-11.297000	23.841921	0.001061	20.853125
550.163103	-3.000400	3.750400	-11.252000	23.864873	0.001061	20.842476
551.166018	-3.009200	3.750900	-11.286000	23.877346	0.001062	20.854982
552.166780	-2.998900	3.750700	-11.247000	23.888273	0.001062	20.848869
553.163685	-3.005900	3.749200	-11.269000	23.872694	0.001061	20.848421
554.161969	-3.027200	3.748600	-11.347000	23.886163	0.001061	20.845332
555.165211	-2.967300	3.750700	-11.128000	23.890405	0.001063	20.836783
556.162266	-2.966800	3.751400	-11.128000	23.893267	0.001061	20.829696
557.164261	-2.998700	3.749600	-11.243000	23.905012	0.001061	20.835309
558.168167	-2.981700	3.749500	-11.180000	23.894006	0.001062	20.855566
559.165111	-2.973900	3.748400	-11.146000	23.907042	0.001062	20.831655
560.164907	-2.993900	3.748500	-11.221000	23.915783	0.001062	20.853695
561.166950	-2.992500	3.747400	-11.213000	23.912408	0.001062	20.855052
562.164996	-2.992100	3.747400	-11.211000	23.936726	0.001061	20.843878
563.167087	-3.002100	3.746600	-11.246000	23.951181	0.001062	20.866906
564.169823	-2.995400	3.746400	-11.220000	23.968904	0.001062	20.851015
565.164398	-3.013600	3.747100	-11.291000	23.970181	0.001063	20.831433
566.165077	-3.009700	3.746500	-11.275000	23.972047	0.001062	20.857485
567.170559	-3.007600	3.746200	-11.266000	23.986806	0.001063	20.846208
568.167808	-3.013200	3.745100	-11.284000	23.942896	0.001062	20.856227
569.168647	-3.027600	3.744000	-11.334000	23.975994	0.001062	20.845322
570.173149	-3.015400	3.743700	-11.287000	23.991200	0.001062	20.839709
571.170105	-3.009400	3.744000	-11.266000	23.978049	0.001065	20.848806
572.170497	-3.000400	3.745200	-11.236000	23.966931	0.001062	20.849984
573.174065	-3.005700	3.743600	-11.250000	23.955787	0.001062	20.829801
574.169408	-3.007700	3.743500	-11.258000	23.950458	0.001060	20.857173
575.170343	-3.014500	3.742800	-11.282000	23.947530	0.001062	20.859452
576.174501	-3.006400	3.743500	-11.254000	23.967004	0.001062	20.844842
577.171855	-2.995300	3.743300	-11.211000	23.936884	0.001062	20.854941
578.172220	-2.998500	3.743100	-11.223000	23.931643	0.001063	20.866754
579.174658	-3.000500	3.742000	-11.227000	23.932447	0.001061	20.856181
580.173519	-3.002200	3.742300	-11.234000	23.905150	0.001062	20.857732
581.171564	-3.006100	3.742700	-11.249000	23.890044	0.001061	20.871981
582.173933	-2.996200	3.741300	-11.208000	23.929378	0.001064	20.842199
583.172458	-3.011600	3.740300	-11.264000	23.892496	0.001062	20.868276
584.171783	-2.988000	3.741000	-11.177000	23.926782	0.001062	20.847655
585.173436	-2.989500	3.741100	-11.183000	23.948456	0.001061	20.858010
586.172731	-3.009700	3.739000	-11.252000	23.943586	0.001061	20.850756
587.173309	-3.020000	3.739300	-11.292000	23.955061	0.001061	20.867952
588.175307	-2.996100	3.740800	-11.205000	23.948354	0.001061	20.854588
589.177967	-3.003900	3.739700	-11.232000	23.930321	0.001062	20.858790
590.172691	-3.001400	3.738600	-11.221000	23.960772	0.001061	20.871308
591.178265	-2.994400	3.739200	-11.196000	23.956324	0.001060	20.862580
592.171721	-2.989700	3.739900	-11.180000	23.963351	0.001060	20.851136
593.173536	-3.013200	3.738600	-11.264000	23.981114	0.001062	20.842397
594.180024	-3.016300	3.737300	-11.271000	23.996921	0.001061	20.883850
595.173666	-2.995700	3.737300	-11.195000	24.007731	0.001062	20.864820
596.172348	-2.992600	3.738300	-11.186000	24.024381	0.001062	20.858285
597.176095	-3.016300	3.735600	-11.267000	24.039674	0.001061	20.885000
598.175440	-2.994900	3.737300	-11.193000	24.034793	0.001063	20.878683
599.174300	-3.007400	3.736500	-11.236000	24.015969	0.001061	20.869763
600.177534	-2.995400	3.736300	-11.191000	23.989274	0.001062	20.874760
601.173528	-2.984800	3.735600	-11.149000	23.976944	0.001064	20.851490
602.175338	-3.011700	3.735600	-11.249000	23.966273	0.001064	20.873031
603.180605	-2.995700	3.735600	-11.190000	23.965964	0.001061	20.878885
604.174083	-2.995400	3.735300	-11.188000	23.984761	0.001063	20.877346
605.174410	-2.975200	3.735700	-11.113000	24.002280	0.001060	20.871682
606.176748	-2.992400	3.735700	-11.178000	24.062541	0.001062	20.870949
607.175973	-3.003600	3.733900	-11.214000	24.061391	0.001062	20.853202
608.179285	-2.980200	3.734300	-11.128000	24.082448	0.001060	20.884750
609.180545	-3.008300	3.732700	-11.227000	24.066195	0.001062	20.880304
610.175489	-3.000000	3.733200	-11.198000	24.054503	0.001060	20.869527
611.175911	-3.015000	3.732500	-11.251000	24.041276	0.001061	20.887555
612.180253	-2.965700	3.734000	-11.073000	24.014519	0.001059	20.868309
613.178141	-2.994400	3.733000	-11.177000	23.978829	0.001060	20.891785
614.179462	-2.998700	3.731500	-11.189000	23.968988	0.001060	20.874331
615.183234	-2.993100	3.731400	-11.168000	23.982074	0.001060	20.872755
616.181434	-3.017600	3.730200	-11.254000	23.977077	0.001060	20.894769
617.180861	-2.986900	3.731300	-11.145000	23.989534	0.001059	20.893511
618.184247	-3.017900	3.729700	-11.254000	24.021416	0.001060	20.887552
619.180442	-2.996300	3.730900	-11.178000	24.026220	0.001058	20.909912
620.181811	-3.010300	3.730700	-11.230000	24.020561	0.001059	20.890962
621.187856	-3.014400	3.730400	-11.244000	24.048442	0.001062	20.891896
622.184942	-2.996100	3.728300	-11.169000	24.099924	0.001060	20.898008
623.186505	-3.001400	3.728700	-11.190000	24.114107	0.001059	20.886629
624.188332	-2.979100	3.729900	-11.110000	24.149371	0.001058	20.874109
625.183372	-3.013500	3.727400	-11.231000	24.131803	0.001060	20.902479
626.185002	-3.004100	3.728400	-11.200000	24.161662	0.001061	20.875532
627.187139	-3.015100	3.727000	-11.236000	24.163131	0.001060	20.900711
628.185513	-2.993500	3.728100	-11.159000	24.160244	0.001058	20.896867
629.184159	-2.991100	3.728100	-11.150000	24.175179	0.001059	20.885769
630.188525	-2.990900	3.727500	-11.148000	24.179855	0.001060	20.892830
631.184878	-2.989600	3.727000	-11.141000	24.217314	0.001057	20.899107
632.184790	-2.989400	3.726000	-11.137000	24.198535	0.001058	20.874109
633.192918	-3.006800	3.725900	-11.202000	24.200157	0.001058	20.890908
634.185300	-3.025700	3.725200	-11.269000	24.200874	0.001058	20.911539
635.183709	-2.967600	3.726700	-11.058000	24.214197	0.001059	20.905937
636.188368	-2.999900	3.726300	-11.178000	24.217543	0.001057	20.892225
637.187254	-3.011600	3.725300	-11.218000	24.203554	0.001058	20.896685
638.188278	-3.022900	3.723400	-11.254000	24.184914	0.001059	20.881783
639.191507	-2.981600	3.724100	-11.102000	24.150633	0.001057	20.907615
640.188778	-3.005000	3.723100	-11.187000	24.147451	0.001057	20.902054
641.186500	-2.999200	3.724900	-11.171000	24.106092	0.001058	20.893764
642.192370	-2.994900	3.724400	-11.153000	24.107395	0.001058	20.907871
643.189496	-3.006900	3.723700	-11.196000	24.101645	0.001058	20.903053
644.189241	-3.023100	3.721600	-11.250000	24.137614	0.001057	20.910678
645.192502	-3.013400	3.722900	-11.217000	24.135134	0.001059	20.892546
646.190475	-2.956200	3.724200	-11.009000	24.153419	0.001058	20.910409
647.192159	-3.010400	3.721500	-11.202000	24.161110	0.001058	20.905321
648.194918	-3.007400	3.721900	-11.191000	24.157136	0.001056	20.917455
649.191623	-3.004300	3.721700	-11.181000	24.156318	0.001056	20.895300
650.190255	-3.004900	3.721900	-11.183000	24.155449	0.001056	20.893954
651.192885	-2.986700	3.721900	-11.115000	24.147259	0.001057	20.915610
652.204461	-2.993700	3.720300	-11.136000	24.147743	0.001055	20.911354
653.193347	-3.003900	3.720200	-11.173000	24.144550	0.001056	20.909100
654.200017	-3.010600	3.719600	-11.197000	24.176108	0.001056	20.911354
655.195143	-2.986300	3.720100	-11.109000	24.197278	0.001057	20.900821
656.193330	-2.997900	3.718500	-11.147000	24.187773	0.001055	20.892236
657.199389	-2.994200	3.719500	-11.136000	24.194148	0.001054	20.903845
658.193564	-2.989000	3.718500	-11.113000	24.211191	0.001054	20.913353
659.194861	-2.979800	3.718400	-11.079000	24.177486	0.001054	20.914633
660.198248	-3.012000	3.717100	-11.194000	24.220824	0.001056	20.923488
661.194028	-3.000100	3.717600	-11.152000	24.224759	0.001054	20.901832
662.195123	-3.007100	3.717600	-11.178000	24.244932	0.001057	20.916376
663.198726	-3.003300	3.717200	-11.162000	24.267724	0.001056	20.915056
664.193062	-2.985900	3.718100	-11.100000	24.268451	0.001056	20.920053
665.195461	-3.005800	3.716600	-11.170000	24.276858	0.001055	20.930381
666.198826	-3.004600	3.715400	-11.162000	24.263852	0.001055	20.909750
667.195326	-2.998900	3.716500	-11.144000	24.218472	0.001054	20.905483
668.195703	-3.004400	3.716300	-11.164000	24.218741	0.001053	20.919502
669.200753	-3.012800	3.714900	-11.192000	24.233137	0.001054	20.935363
670.196430	-2.992800	3.714900	-11.116000	24.235591	0.001054	20.918386
671.198259	-3.009100	3.714700	-11.177000	24.269000	0.001053	20.912544
672.198810	-3.000100	3.714700	-11.143000	24.283614	0.001053	20.935735
673.198081	-3.007900	3.713600	-11.169000	24.321440	0.001054	20.917730
674.197456	-3.000900	3.714200	-11.144000	24.313201	0.001054	20.930327
675.199592	-2.996900	3.713100	-11.127000	24.346160	0.001053	20.933044
676.198441	-2.986500	3.714900	-11.094000	24.303031	0.001052	20.930083
677.198627	-2.992600	3.713300	-11.111000	24.293323	0.001052	20.935990
678.201881	-2.994200	3.712800	-11.116000	24.270186	0.001053	20.942653
679.197987	-2.994900	3.712200	-11.116000	24.226876	0.001053	20.932876
680.200663	-2.997900	3.712400	-11.128000	24.200480	0.001052	20.950968
681.201097	-2.995700	3.711500	-11.117000	24.205233	0.001053	20.936297
682.199856	-3.009800	3.710700	-11.168000	24.204760	0.001053	20.937719
683.199634	-3.003800	3.712200	-11.150000	24.236392	0.001052	20.956169
684.202809	-2.998200	3.710900	-11.125000	24.243508	0.001051	20.924430
685.201540	-3.018200	3.710100	-11.196000	24.285284	0.001053	20.946418
686.204214	-3.014800	3.710200	-11.185000	24.294814	0.001051	20.941753
687.201740	-2.982200	3.712200	-11.070000	24.310769	0.001051	20.947326
688.201312	-3.004200	3.710800	-11.147000	24.345846	0.001051	20.927039
689.207185	-2.983800	3.711200	-11.071000	24.351430	0.001049	20.942597
690.201739	-3.002500	3.709800	-11.138000	24.351583	0.001052	20.939905
691.203164	-3.001400	3.708800	-11.130000	24.362683	0.001052	20.948669
692.206544	-3.013600	3.708400	-11.174000	24.406589	0.001053	20.954307
693.207015	-2.997300	3.708800	-11.114000	24.410791	0.001051	20.950937
694.211851	-2.991500	3.709000	-11.094000	24.399663	0.001049	20.954472
695.209963	-3.002100	3.708000	-11.131000	24.434612	0.001050	20.941646
696.205567	-3.001000	3.707700	-11.126000	24.454615	0.001050	20.963133
697.203922	-3.003400	3.707500	-11.134000	24.468743	0.001047	20.960711
698.205325	-2.987400	3.708200	-11.077000	24.490494	0.001050	20.954560
699.203843	-2.995600	3.706700	-11.102000	24.469750	0.001047	20.962196
700.204175	-3.010600	3.706700	-11.159000	24.451675	0.001049	20.960183
701.204606	-3.001800	3.706600	-11.125000	24.427342	0.001048	20.922500
702.209279	-2.999700	3.706700	-11.118000	24.431123	0.001050	20.956161
703.206620	-3.003900	3.706400	-11.134000	24.425720	0.001048	20.964016
704.205707	-2.987700	3.706000	-11.071000	24.427622	0.001050	20.951701
705.207975	-3.026700	3.704200	-11.211000	24.455838	0.001048	20.960567
706.209324	-3.011900	3.705300	-11.158000	24.433741	0.001048	20.974906
707.205257	-2.991100	3.705400	-11.082000	24.434839	0.001047	20.953725
708.209306	-3.002200	3.704300	-11.119000	24.444509	0.001046	20.953944
709.211031	-2.977600	3.706600	-11.036000	24.445542	0.001049	20.962565
710.206812	-2.999100	3.704900	-11.110000	24.432411	0.001047	20.983053
711.208631	-3.005900	3.704000	-11.133000	24.409393	0.001048	20.960913
712.209332	-3.000100	3.703500	-11.110000	24.430967	0.001047	20.955057
713.208965	-2.990600	3.704900	-11.079000	24.440380	0.001047	20.971136
714.212702	-3.006000	3.703500	-11.132000	24.427837	0.001045	20.972303
715.210559	-3.003100	3.702900	-11.119000	24.448186	0.001046	20.973276
716.208137	-3.012300	3.703100	-11.154000	24.458314	0.001046	20.983436
717.210104	-2.993000	3.702100	-11.080000	24.454559	0.001043	20.972084
718.208944	-2.996800	3.702200	-11.094000	24.438464	0.001044	20.970636
719.208668	-2.992600	3.701500	-11.076000	24.444275	0.001045	20.969827
720.211861	-3.006500	3.701000	-11.125000	24.422370	0.001045	20.990048
721.211364	-2.993600	3.700900	-11.077000	24.424337	0.001046	20.971161
722.209705	-2.993100	3.702400	-11.081000	24.373979	0.001046	20.971851
723.213994	-2.984200	3.700800	-11.043000	24.370020	0.001045	20.985895
724.212563	-2.995800	3.701600	-11.088000	24.342682	0.001044	20.982653
725.213062	-3.007100	3.699900	-11.125000	24.339668	0.001044	20.978681
726.222288	-2.997800	3.698700	-11.087000	24.359494	0.001043	20.988137
727.213399	-2.991000	3.701700	-11.071000	24.384596	0.001046	20.964959
728.213698	-3.012100	3.699200	-11.141000	24.361818	0.001041	20.983831
729.215725	-3.014900	3.700200	-11.155000	24.370017	0.001042	20.990633
730.213966	-2.993800	3.698300	-11.070000	24.356950	0.001042	20.998860
731.214940	-2.984800	3.699800	-11.041000	24.359095	0.001043	20.983471
732.217509	-2.997200	3.699200	-11.085000	24.353449	0.001039	20.999615
733.219478	-3.001000	3.698500	-11.098000	24.315253	0.001044	21.004446
734.217095	-2.996500	3.697500	-11.078000	24.346781	0.001041	20.988186
735.223465	-2.996900	3.696000	-11.075000	24.336917	0.001041	20.994411
736.227131	-3.014500	3.696400	-11.142000	24.336866	0.001042	20.984879
737.218453	-2.977600	3.697200	-11.008000	24.351366	0.001040	20.994207
738.220995	-2.994900	3.696500	-11.069000	24.349348	0.001042	20.986020
739.219454	-3.006200	3.695400	-11.108000	24.383455	0.001040	21.013119
740.217546	-2.996700	3.695500	-11.073000	24.420205	0.001039	20.990247
741.221885	-2.972600	3.696300	-10.986000	24.431177	0.001040	21.015475
742.220546	-2.984300	3.694700	-11.026000	24.444589	0.001040	21.004276
743.223990	-3.007400	3.694400	-11.109000	24.481758	0.001040	20.982775
744.224080	-3.011700	3.693700	-11.122000	24.490636	0.001039	20.989784
745.222106	-2.995600	3.694800	-11.067000	24.506730	0.001039	21.002136
746.222326	-2.979200	3.694100	-11.005000	24.527269	0.001037	21.002828
747.224569	-3.003700	3.694000	-11.094000	24.551087	0.001040	21.005389
748.222831	-3.003600	3.692500	-11.090000	24.582993	0.001039	21.015588
749.228310	-2.970600	3.694300	-10.974000	24.571535	0.001039	21.006939
750.224403	-2.989700	3.694100	-11.043000	24.578394	0.001037	21.000546
751.223706	-2.978500	3.694000	-11.001000	24.562109	0.001037	21.017394
752.220970	-3.008800	3.692000	-11.108000	24.541891	0.001037	21.004222
753.224386	-2.988100	3.692300	-11.032000	24.543755	0.001040	21.015100
754.223229	-2.990600	3.692300	-11.041000	24.504378	0.001038	21.030117
755.222870	-3.013000	3.690600	-11.118000	24.501478	0.001038	21.013934
756.224751	-3.015400	3.691000	-11.128000	24.519730	0.001040	21.006644
757.223424	-2.989200	3.692500	-11.036000	24.534061	0.001036	21.021493
758.223475	-3.001100	3.690500	-11.075000	24.534417	0.001035	21.022325
759.225809	-3.020500	3.690600	-11.147000	24.527827	0.001036	21.017136
760.222655	-3.022300	3.689600	-11.150000	24.522614	0.001036	21.027551
761.223787	-3.016300	3.690400	-11.130000	24.546334	0.001036	21.024797
762.225739	-3.003200	3.690200	-11.081000	24.555120	0.001036	21.023182
763.223168	-3.005100	3.689000	-11.084000	24.557265	0.001035	21.026282
764.222795	-3.001800	3.687800	-11.068000	24.540009	0.001036	21.023668
765.224514	-3.023100	3.688400	-11.150000	24.542398	0.001035	21.017531
766.222862	-2.984600	3.690300	-11.012000	24.529907	0.001034	21.031074
767.223412	-3.005600	3.687800	-11.083000	24.539805	0.001033	21.035315
768.226285	-2.980600	3.688600	-10.994000	24.536662	0.001036	21.036428
769.225293	-2.992000	3.688800	-11.036000	24.502381	0.001035	21.037594
770.224426	-3.009000	3.687300	-11.093000	24.531285	0.001034	21.028664
771.226330	-2.963200	3.689500	-10.932000	24.520925	0.001032	21.019694
772.223262	-2.979100	3.687800	-10.984000	24.528282	0.001033	21.022808
773.224100	-3.006200	3.685800	-11.078000	24.553456	0.001033	21.017247
774.230543	-2.999000	3.686200	-11.053000	24.567314	0.001033	21.028778
775.225022	-2.982600	3.686200	-10.994000	24.585809	0.001031	21.022680
776.231401	-2.995300	3.687300	-11.044000	24.605169	0.001033	21.028355
777.229394	-2.984600	3.687500	-11.005000	24.621044	0.001033	21.013940
778.225853	-3.009000	3.685000	-11.088000	24.585577	0.001033	21.003485
779.227157	-3.000100	3.685900	-11.057000	24.580851	0.001033	21.027188
780.228062	-2.980200	3.686100	-10.983000	24.562153	0.001032	21.030711
781.227121	-2.997000	3.683900	-11.040000	24.561680	0.001030	21.025022
782.225983	-3.001000	3.684300	-11.056000	24.540567	0.001032	21.021383
783.230656	-2.986300	3.684400	-11.001000	24.539214	0.001032	21.016708
784.227599	-2.989900	3.685100	-11.017000	24.534871	0.001031	21.037001
785.228269	-2.969800	3.683900	-10.939000	24.540847	0.001030	21.026405
786.228683	-2.979100	3.684600	-10.975000	24.555726	0.001032	21.011465
787.228682	-2.992700	3.683800	-11.023000	24.565995	0.001029	21.003278
788.232092	-3.005800	3.683100	-11.069000	24.576480	0.001028	21.010951
789.229314	-3.009100	3.681600	-11.078000	24.561448	0.001028	20.997294
790.231139	-3.008400	3.682300	-11.077000	24.572023	0.001029	21.013117
791.231302	-2.985700	3.682700	-10.994000	24.573248	0.001029	20.990169
792.232118	-3.002600	3.681400	-11.053000	24.539849	0.001030	21.007389
793.232265	-3.021100	3.681700	-11.122000	24.541931	0.001028	21.007107
794.235837	-2.992900	3.682200	-11.020000	24.553477	0.001030	20.995460
795.233534	-2.990700	3.680600	-11.006000	24.560220	0.001028	20.969988
796.233494	-2.978600	3.680200	-10.960000	24.555571	0.001028	20.976702
797.234338	-3.000200	3.679900	-11.040000	24.559479	0.001029	20.990578
798.237141	-3.002900	3.679400	-11.047000	24.572467	0.001026	21.005030
799.235286	-2.985700	3.678800	-10.983000	24.566426	0.001027	21.008450
800.235145	-3.002800	3.679100	-11.046000	24.539438	0.001025	20.975214
801.236627	-3.005200	3.677800	-11.051000	24.517801	0.001026	21.002339
802.235711	-2.984200	3.679600	-10.979000	24.568775	0.001024	20.963399
803.236504	-2.967500	3.679200	-10.916000	24.558353	0.001025	20.984707
804.239315	-3.029900	3.676900	-11.138000	24.575467	0.001024	20.990972
805.238291	-3.002800	3.677700	-11.042000	24.586936	0.001025	20.985411
806.239381	-3.019800	3.678000	-11.106000	24.601316	0.001022	20.994149
807.241104	-3.001300	3.677100	-11.034000	24.617907	0.001024	20.970022
808.238477	-2.998700	3.676400	-11.023000	24.619018	0.001024	20.989153
809.239555	-3.022900	3.675400	-11.108000	24.609056	0.001024	20.964461
810.241118	-3.007800	3.676100	-11.056000	24.610153	0.001022	20.974096
811.239344	-3.015300	3.675200	-11.081000	24.621418	0.001025	20.980656
812.239424	-2.973500	3.676200	-10.930000	24.581749	0.001023	20.973571
813.241509	-2.989400	3.675700	-10.987000	24.534555	0.001023	20.975056
814.239715	-2.980000	3.675600	-10.952000	24.526190	0.001022	20.977094
815.239598	-2.992100	3.675600	-10.997000	24.518028	0.001021	20.961321
816.240840	-2.998400	3.675500	-11.019000	24.539844	0.001022	20.966139
817.238954	-3.015500	3.675000	-11.080000	24.547493	0.001022	20.949160
818.243784	-3.007200	3.674300	-11.049000	24.542792	0.001021	20.960564
819.242141	-2.992500	3.675400	-10.998000	24.572601	0.001020	20.960601
820.241022	-3.014900	3.674500	-11.077000	24.568170	0.001022	20.990763
821.242162	-3.020100	3.674300	-11.096000	24.559267	0.001021	20.987047
822.244322	-2.991700	3.672900	-10.987000	24.545843	0.001020	20.983536
823.239022	-2.993300	3.674300	-10.997000	24.521396	0.001021	20.972285
824.241113	-3.004400	3.674700	-11.039000	24.564222	0.001021	20.965469
825.244015	-2.998700	3.671800	-11.009000	24.568207	0.001019	20.959511
826.241467	-2.988600	3.673000	-10.976000	24.552918	0.001021	20.963136
827.241628	-2.986100	3.672700	-10.966000	24.572868	0.001020	20.975564
828.244122	-3.008100	3.671200	-11.042000	24.597109	0.001020	20.961484
829.243157	-3.003500	3.672200	-11.027000	24.604950	0.001020	20.960343
830.242043	-3.003600	3.672600	-11.030000	24.611490	0.001019	20.960740
831.246357	-3.000200	3.672200	-11.017000	24.632383	0.001019	20.967954
832.242588	-3.013200	3.670200	-11.057000	24.645346	0.001018	20.953461
833.241988	-3.000200	3.670400	-11.011000	24.652688	0.001017	20.960354
834.244564	-3.015600	3.670400	-11.068000	24.649151	0.001019	20.979087
835.242882	-3.020500	3.669500	-11.083000	24.662037	0.001016	20.959304
836.245199	-2.992600	3.669800	-10.981000	24.698319	0.001017	20.961572
837.246443	-2.973800	3.669500	-10.912000	24.692890	0.001016	20.941902
838.243881	-2.998200	3.669100	-11.000000	24.684947	0.001016	20.970912
839.246474	-3.000100	3.669400	-11.008000	24.678561	0.001013	20.944593
840.248406	-2.978400	3.669800	-10.929000	24.662343	0.001015	20.958188
841.247821	-3.014300	3.667400	-11.054000	24.669278	0.001016	20.956613
842.250044	-3.004000	3.668700	-11.020000	24.687975	0.001015	20.958304
843.250052	-2.992800	3.668300	-10.977000	24.726630	0.001015	20.960584
844.249177	-2.982900	3.668900	-10.943000	24.722032	0.001012	20.943645
845.248440	-2.993300	3.667900	-10.978000	24.747278	0.001014	20.960442
846.250462	-3.009600	3.667000	-11.036000	24.758937	0.001013	20.953178
847.253325	-3.008300	3.667700	-11.032000	24.787759	0.001014	20.950807
848.250967	-2.996800	3.666700	-10.987000	24.807042	0.001013	20.953564
849.252412	-2.995800	3.666900	-10.983000	24.815699	0.001013	20.951346
850.251829	-2.985000	3.667100	-10.945000	24.839907	0.001011	20.950038
851.251209	-2.995300	3.665100	-10.977000	24.804589	0.001013	20.939724
852.253978	-2.999600	3.665100	-10.992000	24.758937	0.001012	20.969297
853.252767	-2.992300	3.665700	-10.968000	24.761082	0.001010	20.951063
854.251888	-2.998000	3.663800	-10.983000	24.755158	0.001012	20.949385
855.251534	-3.008400	3.664000	-11.022000	24.745682	0.001011	20.940352
856.254469	-2.985100	3.665300	-10.940000	24.747380	0.001010	20.963863
857.254258	-2.998700	3.663200	-10.984000	24.726590	0.001009	20.940633
858.252286	-3.013200	3.662900	-11.036000	24.727484	0.001010	20.940582
859.252007	-3.004800	3.663700	-11.007000	24.773251	0.001011	20.927716
860.252982	-3.001500	3.665200	-11.000000	24.752577	0.001010	20.933521
861.252950	-3.004100	3.662300	-11.001000	24.735081	0.001010	20.958634
862.253605	-2.998900	3.663500	-10.985000	24.729106	0.001011	20.949794
863.255934	-2.997400	3.662800	-10.978000	24.767210	0.001008	20.935404
864.256182	-3.005800	3.662600	-11.008000	24.819131	0.001009	20.930138
865.254971	-2.983900	3.664000	-10.931000	24.818709	0.001009	20.953893
866.253912	-2.999500	3.660900	-10.980000	24.812554	0.001011	20.943449
867.256653	-3.011400	3.661700	-11.025000	24.818147	0.001008	20.952380
868.256239	-3.016300	3.661500	-11.043000	24.819117	0.001006	20.933916
869.258009	-3.004100	3.662200	-11.000000	24.796388	0.001007	20.935762
870.257014	-3.013000	3.659200	-11.024000	24.800219	0.001007	20.935813
871.257885	-3.007900	3.660400	-11.009000	24.760978	0.001008	20.936735
872.258820	-3.012000	3.660200	-11.024000	24.748756	0.001006	20.935376
873.257575	-3.010700	3.658800	-11.014000	24.720137	0.001006	20.954544
874.259015	-2.990700	3.659900	-10.945000	24.698951	0.001004	20.948457
875.260301	-3.004600	3.659700	-10.994000	24.702131	0.001007	20.935529
876.259571	-3.001300	3.660100	-10.984000	24.725143	0.001003	20.933491
877.258610	-3.009100	3.658400	-11.007000	24.749508	0.001004	20.949406
878.259360	-2.994400	3.657500	-10.950000	24.754909	0.001002	20.932069
879.257486	-3.016100	3.657200	-11.030000	24.737504	0.001004	20.926930
880.264499	-3.003700	3.658900	-10.989000	24.717990	0.001001	20.953812
881.260307	-2.997500	3.659200	-10.968000	24.686383	0.001003	20.938692
882.260238	-2.995100	3.658900	-10.957000	24.716547	0.001002	20.940512
883.264424	-2.993200	3.657700	-10.947000	24.750414	0.001000	20.929454
884.260933	-3.008800	3.657000	-11.002000	24.753272	0.001003	20.948441
885.264735	-2.996300	3.657300	-10.956000	24.757869	0.001001	20.930772
886.263654	-3.006400	3.656200	-10.991000	24.774163	0.001001	20.933846
887.261095	-3.009200	3.657100	-11.004000	24.761432	0.001001	20.926760
888.261105	-2.991500	3.655600	-10.935000	24.741064	0.001002	20.922442
889.264406	-3.012600	3.654900	-11.010000	24.736543	0.001001	20.920276
890.260258	-2.998900	3.655500	-10.961000	24.731625	0.000999	20.923876
891.260354	-3.010500	3.654600	-11.001000	24.763653	0.000999	20.946057
892.262154	-3.000800	3.655100	-10.967000	24.771187	0.001001	20.909525
893.262210	-2.979100	3.654800	-10.886000	24.792448	0.001000	20.935601
894.260578	-2.997600	3.653900	-10.951000	24.793764	0.000998	20.921750
895.265167	-2.975100	3.655100	-10.873000	24.781658	0.000998	20.965545
896.267661	-3.013600	3.652800	-11.007000	24.778299	0.000998	20.931834
897.259793	-3.022700	3.652100	-11.038000	24.759910	0.000999	20.913855
898.265780	-3.014800	3.652700	-11.011000	24.756871	0.000998	20.929296
899.260406	-2.984800	3.654600	-10.907000	24.727079	0.000996	20.906039
900.261669	-2.986800	3.653100	-10.911000	24.748915	0.000997	20.925106
901.264477	-2.997800	3.653300	-10.951000	24.756871	0.000997	20.937830
902.260565	-2.995800	3.652400	-10.941000	24.745314	0.000996	20.924336
903.262040	-3.012700	3.652700	-11.003000	24.784286	0.000998	20.930256
904.264788	-2.998200	3.651100	-10.946000	24.802701	0.000996	20.909858
905.261539	-3.015100	3.651800	-11.010000	24.809225	0.000994	20.914508
906.262592	-3.008100	3.650900	-10.981000	24.792740	0.000997	20.912189
907.264302	-2.969500	3.651300	-10.841000	24.789789	0.000995	20.931511
908.267512	-2.994900	3.651300	-10.934000	24.818163	0.000995	20.918261
909.262979	-3.020100	3.649300	-11.020000	24.810490	0.000995	20.920044
910.263999	-2.997300	3.650300	-10.940000	24.818457	0.000993	20.930883
911.263980	-3.017800	3.648700	-11.010000	24.833524	0.000996	20.914239
912.262520	-2.995500	3.651100	-10.936000	24.818929	0.000993	20.904333
913.265471	-2.992300	3.650500	-10.923000	24.796698	0.000993	20.907627
914.262434	-2.990500	3.650100	-10.915000	24.799354	0.000993	20.926886
915.263387	-3.017000	3.648000	-11.005000	24.801128	0.000992	20.925347
916.267174	-3.008900	3.648300	-10.976000	24.800554	0.000993	20.922875
917.263562	-3.008000	3.648100	-10.972000	24.835389	0.000990	20.911842
918.262859	-2.997500	3.649100	-10.937000	24.874587	0.000991	20.921785
919.269724	-2.968500	3.650000	-10.834000	24.877730	0.000990	20.934420
920.264707	-3.015300	3.647600	-10.997000	24.860058	0.000992	20.910522
921.262081	-2.998300	3.647300	-10.934000	24.861744	0.000991	20.902732
922.265221	-2.998500	3.646700	-10.933000	24.871651	0.000989	20.897503
923.262883	-2.996700	3.647400	-10.928000	24.883283	0.000991	20.920555
924.263018	-2.998600	3.646100	-10.932000	24.875597	0.000990	20.900989
925.263969	-3.003100	3.645600	-10.947000	24.861206	0.000988	20.925898
926.263510	-2.989700	3.646300	-10.901000	24.844224	0.000987	20.906485
927.263020	-3.014500	3.644700	-10.985000	24.860095	0.000987	20.925257
928.265051	-3.002200	3.645600	-10.944000	24.858216	0.000988	20.911519
929.266606	-2.983900	3.645800	-10.878000	24.871957	0.000988	20.921515
930.263699	-2.997900	3.644800	-10.926000	24.871855	0.000988	20.905767
931.266659	-2.977800	3.644600	-10.852000	24.883691	0.000987	20.916223
932.266236	-2.996900	3.643900	-10.919000	24.893612	0.000986	20.909586
933.264591	-3.012500	3.642300	-10.971000	24.893892	0.000985	20.917927
934.267045	-2.997600	3.645000	-10.925000	24.886817	0.000986	20.912249
935.266441	-2.979800	3.644600	-10.859000	24.913007	0.000985	20.908663
936.264983	-3.009100	3.642500	-10.959000	24.912252	0.000986	20.896527
937.267930	-2.999700	3.641600	-10.922000	24.897697	0.000985	20.907996
938.266713	-3.008400	3.641300	-10.953000	24.922198	0.000985	20.911724
939.263703	-3.012800	3.641400	-10.969000	24.915264	0.000986	20.905714
940.267844	-2.985600	3.643500	-10.877000	24.871801	0.000983	20.904292
941.272992	-3.009200	3.641200	-10.956000	24.860092	0.000985	20.919091
942.265563	-2.996600	3.641700	-10.912000	24.858930	0.000982	20.902753
943.268904	-3.005800	3.639400	-10.937000	24.888119	0.000984	20.889850
944.268902	-2.999200	3.640000	-10.915000	24.885412	0.000984	20.896615
945.266678	-2.994700	3.641600	-10.905000	24.889522	0.000981	20.920653
946.270614	-3.005400	3.640100	-10.939000	24.858291	0.000981	20.900215
947.266926	-2.984400	3.640200	-10.863000	24.878733	0.000981	20.907455
948.265810	-2.983400	3.640800	-10.860000	24.849008	0.000981	20.902753
949.268426	-2.989700	3.639800	-10.880000	24.852021	0.000980	20.892501
950.265858	-3.018200	3.639700	-10.982000	24.877047	0.000979	20.901496
951.266072	-3.029400	3.638000	-11.019000	24.898026	0.000979	20.907378
952.266144	-2.988600	3.638300	-10.872000	24.899941	0.000978	20.895551
953.272119	-3.015000	3.638100	-10.967000	24.889534	0.000978	20.892692
954.265816	-3.010400	3.637300	-10.948000	24.876600	0.000980	20.887298
955.268393	-3.038200	3.636100	-11.047000	24.865581	0.000980	20.902790
956.271039	-3.003000	3.637700	-10.923000	24.878413	0.000979	20.892910
957.266576	-3.017000	3.636900	-10.972000	24.901229	0.000979	20.879301
958.266674	-3.016100	3.637200	-10.969000	24.908227	0.000978	20.899599
959.273946	-2.985800	3.637900	-10.861000	24.928923	0.000976	20.891449
960.267506	-3.014700	3.635500	-10.959000	24.926153	0.000976	20.882506
961.265222	-3.034700	3.635200	-11.031000	24.924224	0.000977	20.885785
962.266968	-3.011700	3.635400	-10.948000	24.944716	0.000980	20.906351
963.266598	-2.999800	3.636200	-10.907000	24.922691	0.000976	20.895151
964.266375	-3.028200	3.635700	-11.009000	24.958684	0.000976	20.882440
965.267109	-3.021400	3.633900	-10.978000	24.973314	0.000976	20.899021
966.266807	-3.025400	3.634000	-10.993000	24.968463	0.000973	20.880402
967.267735	-3.002200	3.634600	-10.911000	24.986273	0.000975	20.883105
968.272120	-2.972200	3.635800	-10.805000	24.974630	0.000975	20.896074
969.267384	-2.999500	3.634300	-10.900000	24.962857	0.000974	20.875724
970.268660	-2.989600	3.634800	-10.864000	24.991839	0.000973	20.884899
971.265751	-2.999000	3.633500	-10.896000	24.997788	0.000974	20.899878
972.268385	-2.995600	3.631800	-10.877000	24.976262	0.000974	20.909565
973.270552	-3.015700	3.633400	-10.956000	24.947587	0.000971	20.892164
974.268736	-3.002100	3.631300	-10.901000	24.924912	0.000972	20.898802
975.269139	-2.996300	3.632700	-10.883000	24.888485	0.000971	20.889743
976.270142	-2.986600	3.632300	-10.848000	24.895583	0.000970	20.885487
977.269666	-2.990700	3.633000	-10.863000	24.867647	0.000971	20.880209
978.274499	-3.007600	3.630900	-10.919000	24.872473	0.000970	20.880312
979.271151	-3.006500	3.630500	-10.914000	24.874541	0.000969	20.880491
980.272246	-2.983300	3.631900	-10.834000	24.885520	0.000967	20.869226
981.273216	-3.000800	3.630200	-10.892000	24.881741	0.000969	20.874915
982.270568	-3.012700	3.629300	-10.932000	24.911325	0.000968	20.888011
983.275097	-2.997800	3.629600	-10.880000	24.899323	0.000968	20.881181
984.271486	-2.989900	3.629400	-10.850000	24.907993	0.000967	20.883245
985.272616	-3.006300	3.630100	-10.911000	24.904417	0.000968	20.893880
986.273343	-2.963200	3.629400	-10.754000	24.889580	0.000968	20.868559
987.273630	-3.007800	3.629000	-10.914000	24.929787	0.000967	20.865765
988.272872	-3.004000	3.630000	-10.904000	24.950241	0.000966	20.867329
989.273614	-3.002100	3.629100	-10.894000	24.945746	0.000964	20.876093
990.276227	-2.992200	3.629000	-10.858000	24.969839	0.000966	20.885102
991.274058	-3.024800	3.626000	-10.967000	24.984508	0.000964	20.855732
992.273843	-3.007500	3.627200	-10.908000	24.951096	0.000967	20.867238
993.276813	-3.022000	3.627500	-10.961000	24.974180	0.000964	20.876184
994.275430	-2.991500	3.627200	-10.850000	24.938609	0.000965	20.864189
995.276386	-3.007600	3.627000	-10.906000	24.919623	0.000963	20.876426
996.276575	-3.001400	3.626800	-10.885000	24.937614	0.000962	20.859871
997.277359	-3.007300	3.625800	-10.902000	24.969276	0.000963	20.870787
998.278818	-3.015800	3.626300	-10.935000	24.979988	0.000962	20.856410
999.276935	-2.995500	3.627800	-10.866000	25.013221	0.000964	20.850414
1000.274937	-3.003200	3.624900	-10.885000	25.010922	0.000962	20.861382
1001.275826	-2.987900	3.626200	-10.834000	25.010464	0.000961	20.856180
1002.276809	-2.967800	3.625900	-10.760000	25.005573	0.000962	20.853168
1003.276544	-2.976700	3.626200	-10.793000	25.027978	0.000960	20.867596
1004.277617	-2.999900	3.626000	-10.876000	25.023292	0.000961	20.843453
1005.287323	-3.010700	3.623400	-10.907000	25.001116	0.000959	20.865289
1006.278309	-2.990400	3.625100	-10.839000	25.008750	0.000959	20.863943
1007.279417	-3.017800	3.624000	-10.936000	24.985833	0.000959	20.854690
1008.279203	-3.019500	3.621600	-10.934000	24.978224	0.000958	20.861277
1009.278914	-3.012800	3.622900	-10.914000	24.991055	0.000958	20.853768
1010.277454	-3.007600	3.622700	-10.894000	24.997029	0.000960	20.845540
1011.279125	-2.992000	3.621500	-10.835000	25.047827	0.000959	20.856227
1012.281363	-2.997400	3.622100	-10.856000	25.026661	0.000959	20.842093
1013.279177	-2.983000	3.622100	-10.804000	25.032686	0.000959	20.842451
1014.280096	-2.973400	3.621300	-10.767000	25.070129	0.000956	20.848743
1015.279573	-3.020300	3.619300	-10.931000	25.078567	0.000958	20.855790
1016.280642	-2.989300	3.621600	-10.826000	25.084529	0.000956	20.871731
1017.281926	-2.976700	3.621600	-10.778000	25.095303	0.000957	20.849831
1018.281161	-2.976800	3.619900	-10.775000	25.098776	0.000955	20.843360
1019.278633	-3.001600	3.619900	-10.865000	25.121445	0.000956	20.841936
1020.281851	-3.023700	3.618000	-10.939000	25.091383	0.000955	20.854904
1021.280966	-3.009800	3.618600	-10.890000	25.124522	0.000956	20.858774
1022.281486	-2.998000	3.618500	-10.848000	25.124995	0.000953	20.840757
1023.282793	-3.003200	3.619700	-10.869000	25.110454	0.000954	20.865988
1024.281534	-3.012000	3.617000	-10.893000	25.055598	0.000952	20.845062
1025.282495	-3.008600	3.618800	-10.886000	25.039577	0.000952	20.844153
1026.287502	-2.993100	3.617800	-10.827000	25.032976	0.000952	20.841320
1027.283406	-3.006200	3.618100	-10.876000	25.043469	0.000954	20.832413
1028.282395	-3.007600	3.619000	-10.884000	25.061954	0.000951	20.839114
1029.283688	-2.998200	3.617700	-10.846000	25.079023	0.000952	20.829696
1030.287409	-2.982000	3.617300	-10.786000	25.075346	0.000950	20.819842
1031.283892	-2.999400	3.617200	-10.848000	25.057575	0.000950	20.844202
1032.284403	-3.005800	3.616800	-10.870000	25.068632	0.000951	20.843920
1033.284367	-2.964700	3.618100	-10.725000	25.068261	0.000951	20.852557
1034.284097	-2.979200	3.615200	-10.768000	25.079660	0.000949	20.854517
1035.285526	-3.006800	3.615400	-10.869000	25.093958	0.000950	20.827619
1036.285398	-3.002100	3.616200	-10.856000	25.109443	0.000948	20.815663
1037.285965	-3.027000	3.614000	-10.939000	25.097889	0.000949	20.836307
1038.287122	-3.019500	3.612800	-10.908000	25.092450	0.000949	20.822787
1039.286966	-2.993200	3.615400	-10.820000	25.096586	0.000947	20.840688
1040.287912	-2.996500	3.613900	-10.829000	25.069688	0.000949	20.844032
1041.286100	-3.008800	3.612800	-10.868000	25.108061	0.000946	20.858370
1042.287968	-2.995400	3.613000	-10.821000	25.083589	0.000945	20.840444
1043.289030	-2.998800	3.612500	-10.833000	25.079771	0.000947	20.859370
1044.290546	-3.002700	3.612400	-10.846000	25.088758	0.000944	20.845157
1045.290032	-3.011700	3.611800	-10.876000	25.086357	0.000944	20.841325
1046.289822	-3.000200	3.612000	-10.836000	25.063710	0.000945	20.857945
1047.289311	-3.012200	3.611200	-10.876000	25.028984	0.000943	20.852960
1048.289868	-2.993400	3.610400	-10.808000	25.008047	0.000943	20.835263
1049.293549	-3.025400	3.611300	-10.925000	24.964995	0.000942	20.843259
1050.293422	-2.998300	3.611000	-10.826000	24.981951	0.000940	20.836570
1051.291368	-3.015900	3.609700	-10.886000	24.982831	0.000941	20.833660
1052.291002	-2.984300	3.610200	-10.772000	24.976268	0.000941	20.845090
1053.290975	-3.008800	3.610000	-10.859000	24.937673	0.000941	20.832430
1054.292595	-3.008300	3.610500	-10.860000	24.926513	0.000942	20.852523
1055.295308	-3.004300	3.609100	-10.842000	24.899917	0.000942	20.845269
1056.293577	-3.004500	3.608600	-10.842000	24.897145	0.000940	20.840591
1057.293847	-2.991900	3.610800	-10.801000	24.894910	0.000940	20.836926
1058.300865	-3.011200	3.607900	-10.863000	24.929295	0.000942	20.861952
1059.296541	-2.999300	3.608100	-10.820000	24.950067	0.000937	20.823534
1060.301091	-3.010100	3.607500	-10.858000	24.965899	0.000939	20.838476
1061.297297	-3.042000	3.607000	-10.971000	24.955800	0.000938	20.828340
1062.300580	-2.987700	3.607900	-10.779000	24.968337	0.000936	20.851354
1063.302480	-2.987700	3.608200	-10.779000	24.932868	0.000938	20.854160
1064.300132	-2.993600	3.605800	-10.793000	24.959795	0.000938	20.857479
1065.302714	-2.996300	3.606400	-10.804000	24.948254	0.000938	20.836412
1066.303753	-3.000300	3.606500	-10.820000	24.963880	0.000938	20.843561
1067.302677	-2.987300	3.607600	-10.775000	25.003956	0.000934	20.848700
1068.301559	-3.014900	3.603800	-10.864000	25.028941	0.000934	20.862873
1069.304078	-2.995300	3.605800	-10.800000	25.066984	0.000934	20.860284
1070.301992	-2.986600	3.605000	-10.765000	25.081449	0.000935	20.835450
1071.305204	-3.006500	3.603000	-10.832000	25.106290	0.000934	20.850904
1072.309005	-2.993200	3.605200	-10.790000	25.133009	0.000932	20.859233
1073.305254	-3.008800	3.603500	-10.840000	25.140029	0.000934	20.851108
1074.303547	-3.001400	3.604000	-10.816000	25.148186	0.000931	20.853607
1075.308015	-3.001300	3.604100	-10.815000	25.139288	0.000933	20.857002
1076.305507	-2.994500	3.602900	-10.787000	25.160823	0.000931	20.850172
1077.303707	-2.989500	3.603600	-10.772000	25.182563	0.000932	20.847341
1078.306514	-2.978600	3.603100	-10.729000	25.186633	0.000930	20.859013
1079.304071	-2.998800	3.602700	-10.802000	25.156329	0.000930	20.852773
1080.310597	-3.002500	3.601200	-10.812000	25.161638	0.000929	20.855257
1081.308843	-3.006000	3.601100	-10.823000	25.200290	0.000930	20.849965
1082.306692	-3.001900	3.601100	-10.810000	25.186415	0.000929	20.852157
1083.305603	-3.007900	3.600800	-10.828000	25.187052	0.000928	20.849951
1084.309552	-2.995200	3.601000	-10.783000	25.176803	0.000928	20.874748
1085.307351	-2.999800	3.600400	-10.799000	25.144353	0.000925	20.850707
1086.308588	-3.024000	3.600400	-10.886000	25.145029	0.000928	20.878411
1087.307549	-2.997700	3.601000	-10.794000	25.129391	0.000928	20.851334
1088.307567	-3.027400	3.599400	-10.895000	25.121272	0.000927	20.863571
1089.308577	-3.018800	3.599500	-10.865000	25.161789	0.000927	20.848771
1090.308434	-3.008100	3.600200	-10.828000	25.175421	0.000925	20.852499
1091.310519	-3.007500	3.598800	-10.822000	25.174259	0.000924	20.861289
1092.309345	-3.004600	3.598000	-10.810000	25.192322	0.000926	20.848129
1093.311133	-3.033400	3.596600	-10.909000	25.204370	0.000924	20.853113
1094.312222	-2.999600	3.598200	-10.792000	25.197823	0.000925	20.853178
1095.310536	-3.018000	3.597500	-10.855000	25.184879	0.000923	20.861993
1096.312225	-3.001000	3.597600	-10.796000	25.186398	0.000922	20.860199
1097.310862	-3.019600	3.596100	-10.858000	25.179746	0.000921	20.871539
1098.313603	-3.015300	3.596200	-10.843000	25.224524	0.000924	20.873345
1099.315490	-2.992200	3.597200	-10.761000	25.226183	0.000922	20.847512
1100.312695	-3.018800	3.596100	-10.855000	25.271457	0.000922	20.872101
1101.312503	-2.994300	3.595900	-10.766000	25.273653	0.000920	20.863402
1102.316128	-3.003900	3.595000	-10.798000	25.288777	0.000921	20.859147
1103.318539	-3.005100	3.596300	-10.806000	25.275427	0.000920	20.841950
1104.314745	-3.004400	3.595000	-10.800000	25.311177	0.000919	20.871204
1105.316478	-3.012400	3.594700	-10.827000	25.298095	0.000917	20.869450
1106.315123	-2.992900	3.595300	-10.760000	25.303570	0.000919	20.885851
1107.317173	-2.999000	3.595100	-10.781000	25.319677	0.000918	20.878790
1108.317291	-2.992200	3.593800	-10.752000	25.299345	0.000917	20.868334
1109.315366	-2.982700	3.593100	-10.717000	25.246337	0.000917	20.870589
1110.313978	-2.990700	3.592800	-10.745000	25.175494	0.000918	20.875804
1111.316255	-2.980100	3.593100	-10.707000	25.129360	0.000917	20.866475
1112.316149	-2.985000	3.593900	-10.727000	25.147690	0.000917	20.867333
1113.316157	-2.987100	3.593100	-10.732000	25.139533	0.000915	20.876687
1114.321580	-2.989100	3.592700	-10.738000	25.133458	0.000914	20.869640
1115.317493	-2.989600	3.592200	-10.738000	25.154124	0.000915	20.893704
1116.317955	-3.027800	3.590900	-10.870000	25.130189	0.000914	20.857825
1117.320630	-2.988100	3.590900	-10.729000	25.153805	0.000912	20.872522
1118.319780	-3.007500	3.590300	-10.797000	25.139036	0.000914	20.873343
1119.318666	-3.003500	3.590900	-10.785000	25.141830	0.000912	20.877096
1120.322523	-2.982900	3.591000	-10.710000	25.138524	0.000910	20.878993
1121.319695	-2.987500	3.591300	-10.727000	25.188832	0.000910	20.878763
1122.318927	-3.006700	3.590300	-10.793000	25.232090	0.000910	20.889949
1123.324711	-3.005500	3.590100	-10.789000	25.231159	0.000912	20.874791
1124.320765	-3.005600	3.588000	-10.783000	25.245441	0.000909	20.874431
1125.320776	-3.014100	3.588500	-10.815000	25.210786	0.000908	20.897009
1126.323429	-2.999800	3.587700	-10.761000	25.181338	0.000909	20.869343
1127.322746	-3.010000	3.588300	-10.800000	25.193974	0.000908	20.869701
1128.325315	-2.996500	3.588200	-10.751000	25.178759	0.000908	20.896624
1129.327128	-3.019500	3.587700	-10.832000	25.162624	0.000908	20.893228
1130.324006	-2.997500	3.586400	-10.749000	25.121405	0.000907	20.890256
1131.326231	-3.012900	3.585900	-10.803000	25.112162	0.000908	20.894253
1132.325529	-3.023500	3.586400	-10.842000	25.125566	0.000907	20.867408
1133.325444	-3.012100	3.586200	-10.800000	25.150152	0.000906	20.887346
1134.325656	-3.002100	3.586300	-10.765000	25.160670	0.000906	20.894112
1135.327307	-2.994900	3.585600	-10.737000	25.190578	0.000903	20.895687
1136.330535	-3.013600	3.585800	-10.805000	25.207120	0.000905	20.887639
1137.326229	-3.009700	3.584100	-10.786000	25.209150	0.000903	20.898686
1138.328342	-3.030200	3.583700	-10.858000	25.250773	0.000905	20.901119
1139.327346	-2.995400	3.586500	-10.741000	25.194201	0.000904	20.895058
1140.333752	-3.019700	3.583400	-10.819000	25.186033	0.000902	20.883065
1141.328155	-3.012900	3.584000	-10.797000	25.184385	0.000904	20.922184
1142.327713	-2.989000	3.583200	-10.709000	25.178590	0.000902	20.901670
1143.327262	-2.985300	3.584400	-10.699000	25.151986	0.000900	20.890610
1144.328522	-2.986900	3.582100	-10.699000	25.162518	0.000901	20.896915
1145.326842	-2.983700	3.584200	-10.693000	25.152433	0.000901	20.910023
1146.327346	-3.031100	3.581600	-10.855000	25.184575	0.000900	20.897722
1147.329967	-2.994300	3.582700	-10.727000	25.187231	0.000901	20.896120
1148.328258	-2.992100	3.582400	-10.718000	25.203416	0.000901	20.885344
1149.329516	-3.009600	3.580300	-10.774000	25.232786	0.000902	20.913879
1150.331110	-3.002500	3.580000	-10.747000	25.266190	0.000898	20.896683
1151.329117	-3.016000	3.578500	-10.792000	25.279374	0.000898	20.906126
1152.329910	-3.046200	3.580100	-10.904000	25.277855	0.000898	20.918350
1153.331771	-2.972500	3.582200	-10.646000	25.300549	0.000899	20.918850
1154.330385	-3.006200	3.579200	-10.759000	25.276911	0.000896	20.925462
1155.333028	-3.012200	3.578800	-10.779000	25.270554	0.000897	20.903909
1156.336843	-2.995300	3.577700	-10.714000	25.214990	0.000896	20.917349
1157.333381	-2.986200	3.578500	-10.686000	25.224028	0.000899	20.909828
1158.334022	-3.010300	3.578200	-10.770000	25.187713	0.000893	20.921732
1159.337698	-2.976900	3.579900	-10.655000	25.182390	0.000895	20.923027
1160.335899	-2.997700	3.578400	-10.725000	25.208149	0.000892	20.899103
1161.335820	-2.984000	3.578400	-10.676000	25.231444	0.000893	20.899256
1162.336233	-3.000500	3.575700	-10.726000	25.235502	0.000893	20.924191
1163.336137	-2.985900	3.576200	-10.676000	25.261350	0.000892	20.916952
1164.336465	-3.008700	3.576000	-10.758000	25.238489	0.000891	20.909648
1165.339622	-2.989500	3.576100	-10.690000	25.248751	0.000892	20.912838
1166.339606	-3.001300	3.576600	-10.733000	25.252427	0.000891	20.934545
1167.339548	-2.988800	3.575800	-10.686000	25.243313	0.000891	20.917810
1168.338982	-2.996500	3.576600	-10.717000	25.276932	0.000890	20.914579
1169.340232	-3.015000	3.573800	-10.774000	25.261987	0.000889	20.923281
1170.338553	-2.979500	3.575400	-10.652000	25.224830	0.000890	20.922486
1171.341652	-2.983700	3.575500	-10.667000	25.204624	0.000890	20.922114
1172.341026	-2.988700	3.572600	-10.677000	25.213724	0.000888	20.923664
1173.342746	-3.020200	3.573800	-10.792000	25.228557	0.000888	20.937606
1174.341434	-3.000500	3.573200	-10.720000	25.236521	0.000887	20.898664
1175.340882	-2.981500	3.573800	-10.655000	25.239943	0.000887	20.917745
1176.342134	-2.998500	3.574100	-10.716000	25.237683	0.000887	20.942974
1177.342890	-2.979800	3.572100	-10.643000	25.239482	0.000885	20.908275
1178.342086	-3.001000	3.572600	-10.720000	25.252412	0.000886	20.919358
1179.341771	-2.992600	3.572400	-10.690000	25.269388	0.000885	20.929340
1180.343924	-2.974200	3.571900	-10.623000	25.294327	0.000887	20.921138
1181.342038	-2.980300	3.572700	-10.646000	25.309567	0.000885	20.916244
1182.344295	-3.012700	3.570400	-10.755000	25.293318	0.000885	20.924866
1183.344011	-3.009400	3.569300	-10.741000	25.300390	0.000883	20.931018
1184.343092	-2.985700	3.571000	-10.661000	25.278857	0.000882	20.931209
1185.344418	-2.998900	3.570700	-10.706000	25.266502	0.000882	20.933977
1186.344355	-2.996900	3.569000	-10.694000	25.243999	0.000883	20.937346
1187.346767	-2.994500	3.570200	-10.689000	25.265800	0.000882	20.929479
1188.347099	-3.011100	3.569700	-10.747000	25.268685	0.000881	20.940909
1189.347437	-3.037500	3.568800	-10.839000	25.290638	0.000879	20.947302
1190.347772	-3.008400	3.567700	-10.732000	25.313560	0.000879	20.936180
1191.348759	-3.012400	3.568500	-10.747000	25.348366	0.000880	20.933196
1192.347430	-3.010100	3.567900	-10.738000	25.333267	0.000879	20.952171
1193.349314	-3.006700	3.568400	-10.728000	25.339533	0.000878	20.943765
1194.349547	-3.009700	3.567200	-10.734000	25.376864	0.000880	20.939524
1195.347391	-2.997200	3.567500	-10.691000	25.392001	0.000878	20.955669
1196.349098	-2.977000	3.566400	-10.616000	25.419580	0.000879	20.929786
1197.348626	-2.976200	3.566400	-10.614000	25.409000	0.000878	20.939550
1198.349054	-3.021300	3.565300	-10.770000	25.395128	0.000877	20.951223
1199.349308	-2.988100	3.567200	-10.657000	25.337454	0.000876	20.943574
1200.354638	-3.001900	3.566300	-10.705000	25.344013	0.000875	20.913653
1201.349092	-2.983200	3.567300	-10.641000	25.332450	0.000874	20.952299
1202.352572	-2.984800	3.565700	-10.641000	25.357172	0.000874	20.943933
1203.352015	-3.014800	3.563700	-10.742000	25.325762	0.000873	20.969289
1204.351021	-3.023000	3.564500	-10.775000	25.345265	0.000872	20.947149
1205.349724	-3.006100	3.565300	-10.716000	25.318896	0.000873	20.953863
1206.351794	-3.005200	3.563900	-10.710000	25.303694	0.000873	20.966099
1207.350329	-3.014900	3.563800	-10.744000	25.270280	0.000873	20.967163
1208.353671	-3.016200	3.562300	-10.744000	25.269692	0.000872	20.965625
1209.352829	-3.004400	3.562500	-10.702000	25.290573	0.000872	20.958616
1210.352142	-2.997000	3.561500	-10.673000	25.347191	0.000871	20.965202
1211.355197	-3.013400	3.561300	-10.730000	25.364013	0.000870	20.953645
1212.356500	-2.995900	3.560500	-10.665000	25.386411	0.000870	20.974235
1213.355042	-2.989000	3.562200	-10.646000	25.414627	0.000869	20.964637
1214.354554	-2.999500	3.560400	-10.679000	25.424187	0.000867	20.983717
1215.357524	-3.011000	3.560400	-10.718000	25.408961	0.000868	20.993082
1216.355994	-3.013600	3.561300	-10.731000	25.392255	0.000869	20.954976
1217.359286	-3.010000	3.560300	-10.715000	25.347879	0.000866	20.946455
1218.358179	-3.015300	3.559800	-10.732000	25.372434	0.000866	20.968737
1219.359205	-3.001100	3.558100	-10.677000	25.390327	0.000866	20.975323
1220.358114	-2.987200	3.558700	-10.629000	25.339034	0.000866	20.965546
1221.356337	-3.004800	3.557200	-10.688000	25.331363	0.000865	20.954526
1222.357392	-2.998800	3.558800	-10.671000	25.334745	0.000862	20.974989
1223.355827	-2.999000	3.557800	-10.669000	25.363372	0.000864	20.969121
1224.356346	-3.014500	3.556900	-10.721000	25.382900	0.000863	20.968340
1225.360747	-2.975100	3.558400	-10.586000	25.419297	0.000862	20.969799
1226.358717	-3.004100	3.557900	-10.687000	25.431905	0.000861	20.984828
1227.358231	-3.001900	3.557000	-10.676000	25.437557	0.000863	20.970118
1228.362570	-2.995400	3.556700	-10.652000	25.451264	0.000862	20.981036
1229.359438	-2.993800	3.555200	-10.642000	25.462865	0.000859	20.986994
1230.358507	-2.989100	3.556100	-10.629000	25.484111	0.000863	20.971822
1231.358842	-2.991700	3.556800	-10.639000	25.479505	0.000859	20.971464
1232.360045	-2.986000	3.557000	-10.620000	25.515554	0.000859	20.987748
1233.361545	-2.996900	3.555500	-10.654000	25.524768	0.000860	20.978984
1234.360862	-2.985900	3.555300	-10.615000	25.503329	0.000859	20.971680
1235.361659	-2.999800	3.555100	-10.664000	25.493184	0.000859	20.988991
1236.359812	-3.024900	3.552500	-10.744000	25.476122	0.000859	20.987504
1237.360041	-2.999200	3.553600	-10.658000	25.482859	0.000856	20.980521
1238.360535	-3.016900	3.552300	-10.716000	25.429464	0.000858	20.985222
1239.363491	-3.010100	3.553600	-10.695000	25.413358	0.000856	20.998919
1240.359729	-3.040400	3.550200	-10.792000	25.439482	0.000855	20.961620
1241.364199	-2.985200	3.553600	-10.606000	25.483496	0.000855	20.980212
1242.369757	-2.991600	3.553500	-10.629000	25.428187	0.000854	21.006695
1243.360301	-2.995300	3.553800	-10.643000	25.445352	0.000854	20.993114
1244.363526	-3.001400	3.551500	-10.659000	25.415820	0.000855	20.989538
1245.361242	-2.987000	3.551600	-10.609000	25.412783	0.000855	20.987911
1246.363207	-2.998800	3.550500	-10.647000	25.387934	0.000853	21.003735
1247.362275	-2.965200	3.551300	-10.529000	25.388432	0.000851	20.991435
1248.361215	-3.003700	3.550700	-10.665000	25.404728	0.000852	21.003529
1249.362422	-2.999000	3.551300	-10.650000	25.406413	0.000852	21.015650
1250.362871	-3.005600	3.549300	-10.667000	25.420030	0.000851	21.029321
1251.362376	-2.995100	3.549400	-10.629000	25.444036	0.000851	21.002222
1252.362529	-2.988400	3.549900	-10.607000	25.483072	0.000848	21.024348
1253.362954	-2.980900	3.551100	-10.584000	25.497862	0.000849	21.014546
1254.365159	-2.994200	3.549000	-10.624000	25.546660	0.000847	21.010447
1255.362125	-3.013000	3.547000	-10.686000	25.562902	0.000847	20.984090
1256.365284	-3.023100	3.547200	-10.723000	25.576441	0.000848	20.998633
1257.362800	-3.001800	3.547700	-10.648000	25.560375	0.000845	21.021848
1258.361997	-2.994600	3.547100	-10.621000	25.562838	0.000845	21.001092
1259.364081	-3.004700	3.547800	-10.659000	25.556714	0.000843	21.006320
1260.362071	-2.997500	3.546700	-10.630000	25.533654	0.000846	21.006869
1261.361883	-2.998400	3.545900	-10.630000	25.515547	0.000844	21.001015
1262.363986	-2.994300	3.546000	-10.617000	25.494784	0.000844	21.020938
1263.362860	-3.001000	3.545100	-10.637000	25.497592	0.000843	21.012853
1264.362841	-2.999500	3.544500	-10.631000	25.456372	0.000842	21.012238
1265.362825	-2.988600	3.546000	-10.597000	25.454675	0.000842	21.009112
1266.364320	-2.993200	3.544000	-10.606000	25.452926	0.000843	21.001192
1267.365034	-3.020600	3.544100	-10.704000	25.470422	0.000841	21.003588
1268.366495	-2.994500	3.545300	-10.616000	25.481078	0.000841	21.002910
1269.365108	-3.003300	3.542600	-10.639000	25.510033	0.000842	20.992160
1270.366229	-3.001400	3.543000	-10.632000	25.498330	0.000840	21.012173
1271.367857	-2.993800	3.544100	-10.608000	25.487815	0.000840	21.004460
1272.367743	-2.997400	3.543700	-10.621000	25.460097	0.000841	20.993696
1273.366673	-3.000800	3.542300	-10.629000	25.484344	0.000838	20.996708
1274.367074	-2.986500	3.542600	-10.579000	25.454035	0.000839	20.988558
1275.367423	-2.993700	3.541200	-10.601000	25.444834	0.000839	21.005394
1276.366603	-2.981300	3.542700	-10.560000	25.479481	0.000837	20.990403
1277.370474	-2.977000	3.541800	-10.543000	25.497743	0.000838	21.010161
1278.368659	-2.982900	3.542500	-10.566000	25.498738	0.000837	20.987456
1279.370779	-3.007100	3.540000	-10.645000	25.493889	0.000837	20.988277
1280.369665	-3.000600	3.540200	-10.622000	25.504569	0.000834	20.974822
1281.368877	-2.977600	3.539200	-10.537000	25.496352	0.000838	20.980320
1282.370799	-2.985600	3.540100	-10.568000	25.498993	0.000835	20.971119
1283.371135	-2.980800	3.540000	-10.550000	25.520992	0.000833	20.971401
1284.375073	-2.993800	3.539500	-10.596000	25.522205	0.000833	20.966929
1285.371198	-3.009700	3.538600	-10.649000	25.511996	0.000833	20.956204
1286.370842	-2.988400	3.539800	-10.578000	25.556977	0.000831	20.988096
1287.373539	-3.004200	3.538400	-10.629000	25.516398	0.000830	20.976744
1288.372496	-2.977200	3.538500	-10.533000	25.514382	0.000833	20.972823
1289.373017	-2.974100	3.537400	-10.519000	25.466846	0.000831	20.971080
1290.374165	-2.987400	3.538700	-10.571000	25.444450	0.000830	20.970401
1291.375760	-2.979900	3.538000	-10.542000	25.472640	0.000831	20.990645
1292.374115	-3.011900	3.536100	-10.649000	25.495559	0.000828	20.981420
1293.374838	-3.004400	3.535700	-10.621000	25.521004	0.000829	20.969516
1294.374593	-3.023300	3.536100	-10.691000	25.516104	0.000828	20.975975
1295.377540	-3.000400	3.535100	-10.606000	25.523837	0.000828	20.983265
1296.374589	-2.992600	3.536600	-10.581000	25.539175	0.000827	20.952680
1297.372920	-3.015900	3.534200	-10.657000	25.535666	0.000829	20.973335
1298.377468	-2.990900	3.535700	-10.574000	25.538895	0.000827	20.979895
1299.374221	-2.996200	3.534200	-10.587000	25.517750	0.000826	20.970990
1300.376469	-3.001500	3.534900	-10.608000	25.510783	0.000824	20.954039
1301.375731	-2.984400	3.534200	-10.546000	25.511038	0.000826	20.955717
1302.375981	-3.008500	3.533600	-10.630000	25.533866	0.000823	20.968209
1303.373962	-2.995900	3.533200	-10.584000	25.533778	0.000822	20.967172
1304.377278	-3.002500	3.532200	-10.604000	25.532220	0.000821	20.953282
1305.377197	-2.981700	3.533900	-10.536000	25.564046	0.000822	20.940674
1306.377498	-2.977500	3.533000	-10.518000	25.563254	0.000822	20.963584
1307.382491	-3.000500	3.531300	-10.595000	25.590522	0.000823	20.956356
1308.385725	-3.001600	3.530900	-10.597000	25.539583	0.000822	20.959252
1309.382950	-2.985900	3.531200	-10.542000	25.531276	0.000821	20.939533
1310.378986	-2.975000	3.531900	-10.506000	25.549051	0.000820	20.951218
1311.379339	-2.997200	3.529600	-10.578000	25.581360	0.000820	20.957586
1312.382185	-3.004600	3.530600	-10.607000	25.560855	0.000818	20.933203
1313.381498	-2.990600	3.529400	-10.554000	25.551220	0.000818	20.942018
1314.381229	-2.984800	3.530200	-10.535000	25.529617	0.000817	20.934548
1315.380855	-2.988200	3.528900	-10.543000	25.510398	0.000818	20.966452
1316.383039	-2.987200	3.528000	-10.537000	25.521473	0.000818	20.958609
1317.382851	-2.994300	3.527200	-10.561000	25.496782	0.000817	20.959892
1318.382967	-2.993200	3.526800	-10.556000	25.515196	0.000817	20.970322
1319.382454	-3.003900	3.527400	-10.595000	25.514162	0.000815	20.945105
1320.382154	-2.974100	3.528800	-10.494000	25.529488	0.000815	20.940108
1321.383859	-2.997400	3.527700	-10.573000	25.532333	0.000815	20.943913
1322.383958	-3.000800	3.526500	-10.581000	25.547378	0.000812	20.948116
1323.387451	-3.027000	3.525000	-10.667000	25.553082	0.000814	20.952895
1324.383301	-2.992300	3.526100	-10.550000	25.522596	0.000812	20.946462
1325.384802	-3.000100	3.525000	-10.573000	25.502013	0.000812	20.927691
1326.387471	-2.991300	3.523900	-10.540000	25.453035	0.000812	20.947257
1327.384696	-3.010500	3.523900	-10.607000	25.437899	0.000813	20.917837
1328.384666	-3.006700	3.523900	-10.595000	25.423618	0.000811	20.932418
1329.388071	-3.005400	3.522500	-10.585000	25.417544	0.000812	20.934379
1330.385650	-3.018300	3.523700	-10.633000	25.428009	0.000808	20.941568
1331.384654	-3.011200	3.522500	-10.606000	25.430102	0.000810	20.928972
1332.386474	-3.013100	3.522100	-10.612000	25.457335	0.000809	20.926922
1333.386428	-3.003200	3.522400	-10.578000	25.492300	0.000809	20.938798
1334.386877	-2.981900	3.522900	-10.504000	25.480292	0.000807	20.940016
1335.387874	-2.994600	3.522500	-10.548000	25.474677	0.000807	20.925844
1336.386665	-3.020400	3.521600	-10.636000	25.494496	0.000809	20.936262
1337.387063	-3.001700	3.524000	-10.576000	25.523948	0.000806	20.948294
1338.392799	-2.987500	3.521600	-10.520000	25.518792	0.000807	20.927945
1339.386199	-2.997300	3.520400	-10.550000	25.516495	0.000806	20.937018
1340.387424	-3.005200	3.521000	-10.580000	25.525798	0.000804	20.932609
1341.389285	-3.005600	3.520700	-10.581000	25.562765	0.000806	20.916157
1342.392283	-3.003700	3.519900	-10.572000	25.573433	0.000805	20.916913
1343.388607	-3.003200	3.520300	-10.571000	25.557839	0.000805	20.933493
1344.390970	-2.991500	3.519900	-10.527000	25.552990	0.000805	20.940951
1345.388544	-2.991400	3.519400	-10.527000	25.539770	0.000803	20.919142
1346.387668	-2.983800	3.519100	-10.499000	25.473923	0.000800	20.911338
1347.390681	-3.004600	3.517500	-10.567000	25.460702	0.000800	20.945947
1348.388853	-3.029000	3.518000	-10.654000	25.427075	0.000802	20.943475
1349.390774	-2.981600	3.517900	-10.488000	25.432295	0.000802	20.910787
1350.389877	-3.010200	3.515800	-10.583000	25.441699	0.000801	20.927816
1351.389501	-2.992100	3.517200	-10.523000	25.503975	0.000796	20.928239
1352.390227	-3.037800	3.516500	-10.681000	25.510956	0.000798	20.937618
1353.391755	-3.010200	3.516500	-10.585000	25.525451	0.000796	20.911401
1354.392048	-3.003400	3.516100	-10.559000	25.565035	0.000798	20.933607
1355.393200	-3.035900	3.513700	-10.666000	25.580742	0.000797	20.904815
1356.398289	-3.007800	3.514700	-10.570000	25.591907	0.000797	20.923612
1357.400688	-3.004800	3.515900	-10.563000	25.576352	0.000796	20.928853
1358.392663	-3.000000	3.515300	-10.545000	25.540151	0.000796	20.933747
1359.403563	-2.981500	3.516500	-10.483000	25.505913	0.000796	20.935400
1360.397112	-2.990800	3.515300	-10.512000	25.524901	0.000796	20.948777
1361.392841	-2.995500	3.514000	-10.525000	25.520677	0.000796	20.929839
1362.403618	-3.008500	3.512100	-10.566000	25.564318	0.000793	20.924828
1363.399247	-3.013900	3.512200	-10.584000	25.575483	0.000793	20.919920
1364.394450	-2.995100	3.513300	-10.522000	25.598605	0.000793	20.922753
1365.398428	-2.984100	3.513000	-10.482000	25.586828	0.000794	20.917563
1366.399320	-2.993800	3.511800	-10.513000	25.547690	0.000792	20.914294
1367.394223	-2.999800	3.512000	-10.534000	25.535824	0.000793	20.928454
1368.399239	-3.006300	3.510900	-10.554000	25.527031	0.000790	20.915832
1369.402359	-2.972800	3.512500	-10.442000	25.510876	0.000789	20.903403
1370.396726	-3.016000	3.510300	-10.586000	25.503449	0.000790	20.925340
1371.403489	-3.020400	3.509000	-10.598000	25.476880	0.000791	20.914782
1372.405639	-3.021000	3.510200	-10.603000	25.460762	0.000791	20.909502
1373.405296	-3.016600	3.509300	-10.584000	25.448677	0.000791	20.912539
1374.403127	-2.998000	3.510300	-10.523000	25.468738	0.000789	20.915614
1375.403200	-3.001700	3.509900	-10.534000	25.498038	0.000787	20.922751
1376.399775	-2.988600	3.511000	-10.492000	25.503257	0.000787	20.918036
1377.404021	-2.983700	3.509700	-10.470000	25.534304	0.000788	20.907964
1378.405566	-2.983000	3.508500	-10.465000	25.542369	0.000788	20.913218
1379.401627	-2.988200	3.508900	-10.484000	25.567647	0.000788	20.906836
1380.407811	-3.010500	3.506100	-10.554000	25.578289	0.000786	20.928427
1381.403270	-2.991500	3.508800	-10.495000	25.620052	0.000784	20.923904
1382.407477	-3.008300	3.507400	-10.551000	25.619032	0.000786	20.919560
1383.411284	-2.997800	3.506300	-10.510000	25.616237	0.000785	20.906797
1384.401905	-2.993000	3.505600	-10.491000	25.632161	0.000785	20.903351
1385.400637	-3.005600	3.506700	-10.537000	25.622233	0.000784	20.909975
1386.401639	-2.994300	3.507500	-10.501000	25.588266	0.000784	20.902414
1387.404630	-2.982900	3.504500	-10.452000	25.566766	0.000782	20.903107
1388.401280	-2.984100	3.503700	-10.455000	25.558994	0.000782	20.912845
1389.400109	-3.004100	3.503100	-10.523000	25.543273	0.000785	20.921237
1390.405750	-3.004000	3.503300	-10.523000	25.503791	0.000780	20.895814
1391.402956	-3.004900	3.503900	-10.528000	25.490226	0.000782	20.901632
1392.402433	-2.983900	3.503400	-10.453000	25.466758	0.000781	20.899877
1393.402286	-2.991700	3.503200	-10.480000	25.470496	0.000779	20.898889
1394.403224	-3.003700	3.502900	-10.520000	25.458641	0.000780	20.906898
1395.405441	-3.008300	3.501900	-10.533000	25.428600	0.000778	20.912292
1396.404549	-2.992100	3.503200	-10.481000	25.437877	0.000777	20.909281
1397.405709	-3.017600	3.500900	-10.563000	25.468020	0.000777	20.912523
1398.403874	-3.010500	3.500100	-10.536000	25.489242	0.000778	20.903963
1399.407228	-2.996200	3.500500	-10.486000	25.511651	0.000778	20.909871
1400.405450	-3.015200	3.499900	-10.552000	25.521208	0.000777	20.909985
1401.403752	-3.000900	3.500600	-10.503000	25.526083	0.000776	20.894019
1402.404925	-2.998400	3.500400	-10.494000	25.547010	0.000775	20.895121
1403.412167	-2.987500	3.500800	-10.457000	25.576882	0.000774	20.905679
1404.405253	-3.011600	3.499000	-10.536000	25.564326	0.000775	20.891174
1405.405356	-2.996400	3.498600	-10.483000	25.583989	0.000773	20.925143
1406.404438	-2.991100	3.498300	-10.463000	25.634709	0.000775	20.893108
1407.405853	-2.971000	3.499300	-10.396000	25.607926	0.000772	20.902719
1408.403931	-2.992200	3.497700	-10.465000	25.595345	0.000771	20.900041
1409.406208	-2.986200	3.497700	-10.443000	25.582483	0.000772	20.894710
1410.407489	-2.986100	3.496900	-10.441000	25.557587	0.000772	20.902898
1411.405016	-2.983400	3.496900	-10.430000	25.564542	0.000771	20.894236
1412.409041	-3.007500	3.495300	-10.511000	25.584371	0.000770	20.898503
1413.415218	-2.976500	3.497000	-10.408000	25.598764	0.000772	20.903474
1414.405427	-3.006100	3.495300	-10.505000	25.592576	0.000769	20.867390
1415.407711	-3.005500	3.494500	-10.501000	25.626031	0.000771	20.904307
1416.408433	-3.021400	3.495000	-10.558000	25.623173	0.000768	20.887687
1417.407087	-3.000600	3.494700	-10.485000	25.656195	0.000769	20.914212
1418.410164	-3.009200	3.492900	-10.510000	25.640449	0.000768	20.907881
1419.411901	-3.002300	3.494100	-10.490000	25.601889	0.000768	20.878640
1420.408389	-2.998500	3.495000	-10.479000	25.578998	0.000767	20.896426
1421.409753	-2.981600	3.494700	-10.418000	25.559512	0.000767	20.895822
1422.410389	-3.000300	3.494100	-10.483000	25.516216	0.000768	20.894067
1423.409097	-3.012300	3.491600	-10.517000	25.525314	0.000767	20.893721
1424.409970	-3.033700	3.489300	-10.583000	25.529538	0.000767	20.893696
1425.410499	-3.005500	3.490900	-10.490000	25.556297	0.000767	20.891172
1426.409694	-3.025100	3.491000	-10.560000	25.573306	0.000764	20.875064
1427.407661	-2.987800	3.489900	-10.426000	25.559563	0.000764	20.897770
1428.420070	-3.001500	3.489100	-10.471000	25.503799	0.000764	20.886340
1429.410331	-3.002500	3.488800	-10.474000	25.489595	0.000764	20.884405
1430.410387	-3.005200	3.489300	-10.485000	25.500186	0.000762	20.881290
1431.410625	-2.990000	3.490000	-10.434000	25.510127	0.000763	20.877049
1432.410084	-2.996000	3.487500	-10.447000	25.536568	0.000762	20.880368
1433.410138	-3.026400	3.487400	-10.553000	25.561820	0.000763	20.900037
1434.409365	-3.028500	3.486900	-10.559000	25.590416	0.000761	20.887505
1435.411096	-3.014500	3.487800	-10.513000	25.597459	0.000760	20.871346
1436.416187	-2.993600	3.487400	-10.439000	25.634807	0.000762	20.889414
1437.411124	-3.002300	3.486900	-10.467000	25.647987	0.000759	20.886530
1438.412120	-3.005300	3.487800	-10.481000	25.659534	0.000760	20.887696
1439.410313	-3.022500	3.485700	-10.535000	25.624062	0.000758	20.895218
1440.412015	-3.027200	3.486200	-10.552000	25.645550	0.000759	20.889772
1441.411199	-2.987900	3.487600	-10.420000	25.625300	0.000758	20.881763
1442.413014	-2.970700	3.487500	-10.359000	25.620017	0.000757	20.884992
1443.413355	-3.008700	3.484500	-10.483000	25.633415	0.000755	20.877111
1444.415363	-3.009400	3.485100	-10.486000	25.660606	0.000756	20.885928
1445.413949	-3.007500	3.482300	-10.473000	25.622556	0.000755	20.887067
1446.415432	-2.998700	3.483000	-10.444000	25.593769	0.000756	20.896562
1447.414373	-2.974000	3.485200	-10.363000	25.587032	0.000755	20.892167
1448.414334	-2.978600	3.484300	-10.377000	25.616086	0.000754	20.874880
1449.416628	-3.000800	3.482500	-10.448000	25.588410	0.000755	20.890231
1450.414129	-2.987000	3.483300	-10.403000	25.618012	0.000754	20.878237
1451.414279	-2.993700	3.482900	-10.424000	25.637943	0.000753	20.866486
1452.414899	-2.982300	3.482000	-10.383000	25.650587	0.000753	20.875392
1453.415118	-2.995100	3.481800	-10.427000	25.665681	0.000753	20.874905
1454.423877	-2.993800	3.482200	-10.425000	25.678427	0.000750	20.885810
1455.417173	-2.996600	3.481300	-10.432000	25.695128	0.000752	20.868920
1456.415334	-3.010400	3.481000	-10.476000	25.710566	0.000751	20.873994
1457.415847	-3.020800	3.479600	-10.510000	25.711038	0.000750	20.852184
1458.415905	-3.006000	3.479000	-10.457000	25.706100	0.000749	20.890844
1459.415541	-3.017000	3.478000	-10.492000	25.748891	0.000751	20.876928
1460.418106	-2.987400	3.478800	-10.392000	25.737217	0.000748	20.870892
1461.418398	-3.005100	3.478000	-10.451000	25.720121	0.000748	20.858937
1462.418311	-2.998500	3.477900	-10.427000	25.650636	0.000747	20.865958
1463.417221	-3.001000	3.478900	-10.439000	25.597619	0.000749	20.865817
1464.420734	-2.986000	3.477800	-10.383000	25.568398	0.000748	20.890997
1465.418885	-2.990100	3.476900	-10.395000	25.557743	0.000748	20.866547
1466.422884	-3.008200	3.475400	-10.453000	25.515913	0.000746	20.868635
1467.420962	-2.998500	3.477100	-10.424000	25.487660	0.000747	20.869186
1468.421526	-3.012100	3.474600	-10.465000	25.476813	0.000746	20.849760
1469.421106	-3.014200	3.475400	-10.474000	25.483908	0.000745	20.866841
1470.420922	-2.998700	3.476100	-10.422000	25.505704	0.000745	20.878297
1471.420277	-2.994200	3.474700	-10.402000	25.506750	0.000743	20.876028
1472.420058	-3.029000	3.472900	-10.517000	25.503674	0.000742	20.881474
1473.420480	-2.996800	3.475400	-10.414000	25.502373	0.000745	20.874004
1474.422940	-2.999400	3.474000	-10.419000	25.567018	0.000742	20.872543
1475.424020	-3.009100	3.473000	-10.448000	25.579613	0.000741	20.844415
1476.422804	-3.004700	3.474300	-10.439000	25.648668	0.000740	20.868724
1477.424670	-2.989700	3.473900	-10.386000	25.665460	0.000742	20.868045
1478.425561	-2.986900	3.473300	-10.374000	25.681000	0.000739	20.875118
1479.425013	-2.992300	3.472900	-10.392000	25.724213	0.000741	20.874900
1480.425214	-3.011000	3.471800	-10.453000	25.750061	0.000740	20.859138
1481.423517	-3.011300	3.470400	-10.450000	25.734598	0.000737	20.854512
1482.424398	-3.010000	3.469900	-10.443000	25.779353	0.000739	20.848733
1483.424131	-3.023400	3.470200	-10.490000	25.794981	0.000739	20.861111
1484.424336	-2.994000	3.469500	-10.386000	25.810533	0.000738	20.854448
1485.427307	-2.967400	3.471200	-10.299000	25.802827	0.000736	20.857613
1486.425676	-3.011700	3.470700	-10.452000	25.801717	0.000736	20.862662
1487.425356	-3.004200	3.469300	-10.422000	25.727363	0.000737	20.873797
1488.425114	-3.010800	3.468200	-10.440000	25.699831	0.000736	20.859894
1489.426284	-3.012700	3.468200	-10.448000	25.672527	0.000735	20.863289
1490.425344	-2.984700	3.468100	-10.351000	25.707116	0.000735	20.860572
1491.426186	-2.983800	3.469900	-10.352000	25.697521	0.000734	20.841928
1492.424797	-2.996500	3.465900	-10.384000	25.716531	0.000733	20.869081
1493.425475	-2.997700	3.467900	-10.394000	25.750392	0.000735	20.865160
1494.425849	-2.977400	3.466800	-10.321000	25.738374	0.000734	20.883433
1495.424690	-2.997900	3.465500	-10.388000	25.744612	0.000735	20.862200
1496.424667	-2.976300	3.466000	-10.314000	25.772463	0.000734	20.858881
1497.425960	-2.997500	3.465500	-10.385000	25.794841	0.000731	20.848168
1498.426201	-2.998800	3.465500	-10.392000	25.789903	0.000730	20.864545
1499.426522	-2.995200	3.464100	-10.374000	25.763379	0.000731	20.872515
1500.428435	-3.014700	3.462700	-10.438000	25.772935	0.000733	20.867889
1501.429009	-2.981400	3.464300	-10.328000	25.754397	0.000731	20.858277
1502.425217	-3.002000	3.463100	-10.395000	25.754334	0.000729	20.842568
1503.426558	-3.008300	3.462200	-10.414000	25.715204	0.000730	20.848308
1504.428314	-3.003700	3.462100	-10.398000	25.741665	0.000730	20.839800
1505.427352	-2.981900	3.462900	-10.325000	25.779211	0.000729	20.828202
1506.427503	-2.994100	3.460300	-10.358000	25.768214	0.000730	20.849397
1507.427515	-3.003200	3.461300	-10.393000	25.774031	0.000727	20.870886
1508.427660	-3.003500	3.460700	-10.393000	25.746410	0.000727	20.857367
1509.429273	-2.993800	3.462700	-10.365000	25.746627	0.000729	20.861852
1510.430074	-2.999500	3.459500	-10.375000	25.766619	0.000726	20.851114
1511.430277	-3.012700	3.458400	-10.418000	25.727374	0.000726	20.838248
1512.429667	-3.011400	3.459600	-10.417000	25.681035	0.000726	20.848602
1513.429106	-2.984600	3.459700	-10.325000	25.639619	0.000728	20.839722
1514.433604	-2.969900	3.459700	-10.274000	25.630253	0.000724	20.866350
1515.430166	-2.987800	3.458100	-10.331000	25.625097	0.000726	20.872077
1516.429401	-2.994100	3.458100	-10.352000	25.644084	0.000725	20.854163
1517.427798	-2.981900	3.458200	-10.311000	25.671784	0.000722	20.830777
1518.429189	-3.007400	3.456300	-10.393000	25.669424	0.000722	20.852587
1519.430565	-2.983200	3.458000	-10.316000	25.674552	0.000723	20.843040
1520.434044	-3.012300	3.455400	-10.407000	25.698730	0.000722	20.873012
1521.432884	-2.999900	3.456100	-10.367000	25.672574	0.000722	20.851010
1522.432813	-2.998700	3.455300	-10.361000	25.640076	0.000722	20.851561
1523.433430	-2.997100	3.457100	-10.360000	25.630979	0.000720	20.854277
1524.434828	-2.978900	3.455400	-10.292000	25.614953	0.000719	20.871372
1525.434496	-2.996800	3.455900	-10.356000	25.565725	0.000720	20.847537
1526.433608	-2.973600	3.455000	-10.273000	25.557787	0.000718	20.859479
1527.434739	-3.005400	3.452500	-10.374000	25.554737	0.000722	20.843615
1528.436035	-2.981800	3.453900	-10.298000	25.523652	0.000717	20.865976
1529.432947	-2.992400	3.454200	-10.336000	25.513992	0.000718	20.837784
1530.433988	-3.010500	3.451000	-10.388000	25.479818	0.000718	20.860837
1531.438889	-2.981400	3.452000	-10.291000	25.465447	0.000717	20.851149
1532.435378	-3.022500	3.453400	-10.436000	25.451129	0.000716	20.841987
1533.436383	-3.011400	3.451600	-10.392000	25.444008	0.000717	20.857120
1534.440534	-3.008600	3.450300	-10.379000	25.485406	0.000714	20.856018
1535.436430	-2.979300	3.450900	-10.280000	25.464273	0.000716	20.861822
1536.440756	-2.974300	3.451300	-10.263000	25.504522	0.000714	20.863834
1537.442364	-3.014200	3.450500	-10.399000	25.529660	0.000715	20.859208
1538.437778	-3.006600	3.450200	-10.372000	25.541337	0.000713	20.868088
1539.438102	-2.992500	3.450600	-10.325000	25.554097	0.000713	20.880902
1540.442573	-2.993100	3.450000	-10.324000	25.595810	0.000713	20.866845
1541.439798	-2.998900	3.450100	-10.346000	25.584211	0.000712	20.843818
1542.444710	-2.984400	3.448400	-10.291000	25.595223	0.000710	20.849187
1543.442149	-3.009600	3.447500	-10.374000	25.624966	0.000711	20.847290
1544.439176	-3.011800	3.446800	-10.380000	25.603694	0.000712	20.861013
1545.439722	-3.011500	3.447400	-10.379000	25.583062	0.000710	20.854043
1546.442695	-2.988800	3.447900	-10.304000	25.586927	0.000711	20.868830
1547.440273	-2.992400	3.447200	-10.314000	25.621111	0.000710	20.861436
1548.444969	-3.006000	3.445700	-10.356000	25.680314	0.000708	20.882015
1549.444149	-2.997200	3.446900	-10.330000	25.684231	0.000708	20.872200
1550.441812	-3.006600	3.446300	-10.361000	25.670247	0.000710	20.861948
1551.441461	-3.002300	3.445300	-10.343000	25.700141	0.000709	20.870636
1552.443917	-2.983100	3.444700	-10.274000	25.704147	0.000707	20.867548
1553.442426	-3.001500	3.445100	-10.339000	25.737319	0.000707	20.880477
1554.440287	-2.999200	3.443800	-10.328000	25.748456	0.000707	20.882181
1555.445066	-2.996900	3.443300	-10.317000	25.739577	0.000707	20.868047
1556.441840	-2.978500	3.444000	-10.257000	25.727316	0.000708	20.884654
1557.442910	-2.971000	3.444100	-10.231000	25.749554	0.000707	20.855783
1558.448740	-3.032300	3.442100	-10.436000	25.774674	0.000707	20.888126
1559.443948	-2.988900	3.443100	-10.290000	25.772173	0.000703	20.885614
1560.444879	-3.011600	3.442800	-10.368000	25.798262	0.000704	20.852080
1561.449345	-2.982400	3.442700	-10.266000	25.819950	0.000703	20.878131
1562.444744	-2.998300	3.441500	-10.317000	25.822986	0.000704	20.869801
1563.444830	-2.995600	3.441300	-10.308000	25.774967	0.000703	20.868981
1564.448406	-3.013400	3.439600	-10.363000	25.740954	0.000701	20.880335
1565.445918	-3.022900	3.440400	-10.398000	25.721037	0.000701	20.862228
1566.444436	-2.991200	3.439400	-10.287000	25.687482	0.000701	20.882102
1567.450416	-3.009200	3.438900	-10.347000	25.656835	0.000701	20.890201
1568.446645	-2.974800	3.439800	-10.232000	25.623749	0.000700	20.876413
1569.446861	-2.986000	3.440400	-10.272000	25.609241	0.000701	20.891712
1570.448799	-3.005000	3.437400	-10.328000	25.615710	0.000699	20.895838
1571.446691	-2.983900	3.437300	-10.256000	25.603384	0.000698	20.892942
1572.446434	-2.985200	3.436700	-10.258000	25.641178	0.000701	20.883011
1573.448997	-3.006900	3.436800	-10.333000	25.673191	0.000701	20.890507
1574.453457	-2.996300	3.436900	-10.297000	25.657867	0.000697	20.895030
1575.445901	-2.993600	3.437400	-10.288000	25.656106	0.000698	20.887572
1576.450260	-3.001400	3.435000	-10.308000	25.678880	0.000698	20.888635
1577.450086	-3.016100	3.434200	-10.357000	25.680463	0.000696	20.890225
1578.449717	-2.985400	3.435800	-10.256000	25.715714	0.000696	20.891492
1579.452614	-2.987600	3.433900	-10.257000	25.725258	0.000696	20.891595
1580.450035	-2.993000	3.434400	-10.277000	25.751399	0.000696	20.900782
1581.450089	-2.979700	3.433800	-10.231000	25.776545	0.000695	20.892850
1582.451569	-2.995300	3.434500	-10.287000	25.787797	0.000695	20.906049
1583.450104	-3.002600	3.433100	-10.305000	25.769196	0.000694	20.895426
1584.448433	-3.007200	3.432700	-10.322000	25.757203	0.000694	20.883854
1585.453302	-2.977000	3.433300	-10.220000	25.757574	0.000692	20.888019
1586.452802	-3.023100	3.432200	-10.374000	25.695274	0.000694	20.897514
1587.451838	-2.995000	3.431100	-10.275000	25.683242	0.000693	20.901076
1588.454266	-2.992000	3.431900	-10.267000	25.694406	0.000690	20.906599
1589.451891	-2.997300	3.431000	-10.283000	25.677985	0.000692	20.896745
1590.456275	-2.981300	3.430700	-10.227000	25.704677	0.000691	20.895578
1591.456879	-2.967300	3.431700	-10.181000	25.739992	0.000691	20.904022
1592.455149	-2.977400	3.430500	-10.214000	25.763492	0.000689	20.907713
1593.452157	-3.000100	3.428600	-10.285000	25.804151	0.000690	20.890234
1594.454411	-2.971000	3.430200	-10.190000	25.832867	0.000689	20.880675
1595.457010	-2.990100	3.427800	-10.248000	25.847308	0.000689	20.890439
1596.452254	-2.989400	3.429000	-10.249000	25.859542	0.000689	20.906047
1597.455576	-2.991200	3.429200	-10.257000	25.818707	0.000688	20.911492
1598.456218	-2.994900	3.427900	-10.265000	25.792158	0.000687	20.899050
1599.457515	-3.023500	3.427600	-10.362000	25.735487	0.000687	20.899972
1600.456381	-3.012300	3.427700	-10.324000	25.708145	0.000688	20.903803
1601.455637	-2.996600	3.428800	-10.274000	25.698628	0.000684	20.883814
1602.455765	-2.982500	3.426400	-10.218000	25.747965	0.000688	20.905393
1603.460804	-2.989600	3.427000	-10.244000	25.729273	0.000685	20.905584
1604.458537	-3.009200	3.425600	-10.307000	25.710467	0.000683	20.914195
1605.456832	-2.996800	3.426300	-10.267000	25.726734	0.000685	20.910146
1606.463965	-2.979700	3.426200	-10.208000	25.719462	0.000684	20.917539
1607.459502	-3.012700	3.424000	-10.314000	25.761015	0.000684	20.918026
1608.457098	-3.018000	3.423700	-10.332000	25.757953	0.000685	20.913528
1609.460573	-3.022400	3.422600	-10.343000	25.767228	0.000684	20.924266
1610.459284	-3.021800	3.423000	-10.341000	25.759675	0.000683	20.921895
1611.459763	-3.025700	3.421100	-10.350000	25.760249	0.000681	20.906352
1612.463102	-2.999600	3.422800	-10.266000	25.788431	0.000681	20.919012
1613.462002	-2.987900	3.422500	-10.225000	25.800882	0.000681	20.923932
1614.459254	-3.004700	3.421600	-10.280000	25.824497	0.000679	20.916834
1615.466949	-3.011500	3.420000	-10.298000	25.791684	0.000681	20.927495
1616.460289	-3.005900	3.422400	-10.286000	25.850049	0.000680	20.918794
1617.457986	-3.007800	3.420400	-10.286000	25.874312	0.000680	20.910452
1618.465497	-3.027500	3.420500	-10.355000	25.882425	0.000680	20.929032
1619.460537	-2.984700	3.420500	-10.209000	25.888855	0.000677	20.939757
1620.459290	-2.983600	3.420700	-10.205000	25.883331	0.000679	20.919512
1621.460186	-3.007500	3.420100	-10.285000	25.906446	0.000679	20.924239
1622.460630	-2.993700	3.420600	-10.238000	25.877246	0.000675	20.929993
1623.461393	-2.979600	3.420000	-10.189000	25.873738	0.000678	20.932158
1624.461998	-2.986100	3.418400	-10.207000	25.838235	0.000674	20.927789
1625.464341	-2.988000	3.418400	-10.213000	25.807963	0.000678	20.922510
1626.466293	-3.012800	3.418600	-10.298000	25.795652	0.000676	20.933375
1627.463839	-3.015400	3.418400	-10.307000	25.796889	0.000676	20.945997
1628.463571	-2.998600	3.417400	-10.246000	25.789860	0.000674	20.939885
1629.463913	-3.023600	3.416000	-10.327000	25.794656	0.000673	20.946599
1630.464926	-3.003900	3.415300	-10.258000	25.784004	0.000674	20.932107
1631.463295	-3.004100	3.415300	-10.258000	25.839460	0.000671	20.929493
1632.464257	-2.964900	3.416200	-10.128000	25.867079	0.000672	20.943485
1633.465631	-2.993300	3.414900	-10.221000	25.892477	0.000673	20.938654
1634.468955	-3.011200	3.415500	-10.284000	25.846183	0.000673	20.935297
1635.464876	-2.977900	3.414900	-10.168000	25.846093	0.000673	20.948008
1636.469040	-2.993300	3.413900	-10.218000	25.840480	0.000669	20.935733
1637.463978	-2.996900	3.414700	-10.232000	25.834867	0.000671	20.927250
1638.466003	-3.003800	3.412900	-10.251000	25.834370	0.000669	20.938129
1639.470331	-2.982700	3.412300	-10.177000	25.814800	0.000670	20.940281
1640.466058	-2.986600	3.412800	-10.191000	25.773886	0.000668	20.945176
1641.465831	-2.982500	3.413600	-10.180000	25.818729	0.000669	20.953709
1642.467615	-2.985300	3.412800	-10.188000	25.819125	0.000667	20.944151
1643.467709	-2.996400	3.411300	-10.219000	25.819379	0.000668	20.944881
1644.467198	-2.991800	3.412700	-10.209000	25.755604	0.000666	20.949096
1645.467863	-2.997000	3.411900	-10.224000	25.743789	0.000667	20.963306
1646.467099	-3.017900	3.409200	-10.287000	25.737704	0.000666	20.933489
1647.471353	-3.006400	3.410500	-10.252000	25.750806	0.000665	20.959449
1648.468715	-2.976200	3.411700	-10.153000	25.786120	0.000665	20.946559
1649.467741	-3.011100	3.408200	-10.261000	25.782433	0.000665	20.947597
1650.467307	-2.998300	3.410300	-10.224000	25.786656	0.000663	20.961794
1651.471613	-2.971300	3.410500	-10.131000	25.759430	0.000664	20.952940
1652.469656	-2.996600	3.408100	-10.211000	25.773936	0.000664	20.955182
1653.469462	-3.012000	3.407400	-10.262000	25.806264	0.000664	20.949249
1654.471502	-3.021000	3.406800	-10.290000	25.792537	0.000664	20.944944
1655.471494	-3.013600	3.408600	-10.270000	25.758205	0.000664	20.965932
1656.471010	-2.998100	3.408000	-10.216000	25.744465	0.000663	20.948339
1657.472646	-3.018000	3.406500	-10.279000	25.724791	0.000662	20.967456
1658.470476	-3.014700	3.406100	-10.268000	25.702042	0.000659	20.967366
1659.470057	-2.994000	3.407000	-10.200000	25.698011	0.000662	20.978014
1660.472033	-3.026200	3.404800	-10.303000	25.704734	0.000663	20.970544
1661.471459	-2.992200	3.406700	-10.193000	25.740738	0.000660	20.961190
1662.472063	-3.010400	3.405700	-10.252000	25.763882	0.000660	20.954566
1663.472402	-2.993800	3.405900	-10.195000	25.783197	0.000659	20.961164
1664.472135	-3.019800	3.405400	-10.282000	25.776818	0.000659	20.971825
1665.472979	-2.978500	3.406100	-10.144000	25.772838	0.000659	20.980627
1666.475921	-2.995900	3.405400	-10.201000	25.813738	0.000660	20.974298
1667.471899	-3.000300	3.403900	-10.212000	25.794092	0.000658	21.000077
1668.474044	-2.995900	3.402700	-10.193000	25.810319	0.000658	20.972760
1669.476511	-3.000200	3.403100	-10.209000	25.789231	0.000658	20.965328
1670.476961	-2.973700	3.403500	-10.120000	25.788823	0.000656	20.967763
1671.475721	-2.995000	3.403000	-10.191000	25.797140	0.000658	20.981331
1672.477736	-2.994300	3.401600	-10.184000	25.803379	0.000657	20.983330
1673.474411	-3.022300	3.401500	-10.279000	25.776728	0.000655	20.994490
1674.477297	-3.004400	3.400800	-10.217000	25.816531	0.000654	20.980895
1675.477053	-2.987500	3.401200	-10.160000	25.831904	0.000655	20.992068
1676.476007	-3.001700	3.400800	-10.207000	25.880086	0.000654	20.986891
1677.475590	-2.994600	3.402000	-10.185000	25.928650	0.000653	20.989685
1678.475609	-3.012400	3.399200	-10.239000	25.930052	0.000653	20.993938
1679.476677	-3.003200	3.399300	-10.208000	25.931621	0.000653	20.995988
1680.477325	-3.003000	3.399100	-10.206000	25.972018	0.000652	20.992477
1681.477498	-2.997500	3.398000	-10.184000	25.978996	0.000650	20.984790
1682.479235	-2.999100	3.399100	-10.192000	25.962988	0.000649	20.973925
1683.479893	-2.994800	3.398600	-10.178000	25.968676	0.000650	20.991016
1684.478491	-2.994700	3.397900	-10.175000	25.990526	0.000649	20.982150
1685.482077	-3.003600	3.397800	-10.205000	26.006432	0.000649	20.999075
1686.477574	-2.994300	3.397400	-10.172000	25.991598	0.000648	21.003611
1687.477197	-2.977700	3.396700	-10.113000	25.997248	0.000649	20.998858
1688.481110	-2.988800	3.397500	-10.154000	26.004455	0.000651	20.992349
1689.479085	-3.000600	3.396600	-10.190000	25.997082	0.000649	20.992528
1690.482072	-2.995900	3.396600	-10.176000	25.998676	0.000648	20.996974
1691.482083	-3.002500	3.394900	-10.192000	25.995245	0.000647	21.007275
1692.481638	-3.002300	3.396400	-10.196000	26.011368	0.000649	20.980804
1693.479645	-3.007500	3.394700	-10.208000	25.985321	0.000645	21.005840
1694.484398	-2.986100	3.394700	-10.136000	25.990321	0.000647	21.005647
1695.480891	-3.012200	3.394100	-10.222000	26.005844	0.000644	21.000856
1696.480894	-3.008400	3.394600	-10.212000	25.998076	0.000644	20.978830
1697.492209	-2.990800	3.393600	-10.148000	25.997681	0.000645	21.004033
1698.482211	-3.001400	3.393000	-10.183000	26.003102	0.000643	21.015167
1699.483930	-2.991400	3.393700	-10.150000	26.005997	0.000645	21.000060
1700.486283	-2.993100	3.394000	-10.158000	25.972285	0.000643	21.006967
1701.485135	-2.996900	3.392700	-10.166000	25.965014	0.000643	20.988760
1702.485122	-2.987300	3.393500	-10.136000	25.975741	0.000643	21.033194
1703.488491	-3.011200	3.390500	-10.208000	25.993484	0.000643	21.019254
1704.483346	-3.002400	3.391100	-10.181000	26.009951	0.000642	21.009721
1705.488311	-2.997600	3.391400	-10.165000	26.026647	0.000640	20.998997
1706.486898	-2.980800	3.390800	-10.107000	26.014108	0.000642	21.010105
1707.486983	-3.001600	3.390400	-10.176000	26.019427	0.000641	21.016396
1708.486085	-3.001100	3.389300	-10.171000	26.008917	0.000640	21.009631
1709.489724	-3.007300	3.389700	-10.192000	26.013024	0.000637	21.014231
1710.491075	-2.987900	3.390000	-10.128000	26.010460	0.000638	20.986530
1711.486192	-2.996700	3.389200	-10.155000	25.976544	0.000638	20.999393
1712.492336	-2.981700	3.388500	-10.102000	25.923952	0.000637	20.994922
1713.489390	-2.983300	3.388600	-10.108000	25.916757	0.000636	21.012347
1714.488817	-2.979500	3.389700	-10.099000	25.929462	0.000637	21.005197
1715.490633	-3.020400	3.387200	-10.229000	25.936491	0.000636	21.012731
1716.489900	-2.994600	3.387500	-10.143000	25.963214	0.000638	20.990745
1717.486650	-3.015300	3.386100	-10.209000	25.948047	0.000636	21.002532
1718.493141	-2.977500	3.387900	-10.087000	25.912969	0.000635	20.976304
1719.489861	-2.985600	3.386200	-10.108000	25.904026	0.000634	20.999560
1720.490713	-2.984900	3.385900	-10.106000	25.950956	0.000634	20.994550
1721.493729	-2.987400	3.386200	-10.115000	25.970306	0.000633	20.999290
1722.494014	-3.004600	3.384100	-10.166000	25.963214	0.000633	20.971781
1723.492720	-2.980300	3.385200	-10.087000	25.949182	0.000631	21.001302
1724.492996	-2.997100	3.385500	-10.144000	25.958175	0.000629	20.970512
1725.492777	-3.007700	3.383800	-10.176000	25.937613	0.000632	20.984940
1726.492511	-3.001500	3.383700	-10.155000	25.946631	0.000632	20.976457
1727.495499	-3.007900	3.383300	-10.175000	25.964336	0.000629	20.959160
1728.493829	-2.993200	3.383300	-10.126000	25.934768	0.000630	20.995356
1729.494649	-2.998600	3.382000	-10.141000	25.914715	0.000629	20.983274
1730.496788	-3.002300	3.383400	-10.157000	25.927408	0.000628	20.973267
1731.493921	-3.015000	3.382200	-10.197000	25.874099	0.000630	20.991307
1732.494577	-3.003500	3.383000	-10.160000	25.856788	0.000627	20.979135
1733.494138	-2.999200	3.381000	-10.140000	25.865807	0.000628	20.966860
1734.494125	-2.993500	3.381500	-10.121000	25.869238	0.000628	20.975996
1735.495297	-2.991300	3.381800	-10.113000	25.900683	0.000625	20.967283
1736.494234	-3.003600	3.380500	-10.151000	25.938250	0.000627	20.965668
1737.494878	-3.009800	3.379700	-10.171000	25.984298	0.000623	20.969256
1738.494719	-3.018900	3.378900	-10.200000	26.004694	0.000625	20.962721
1739.494364	-3.006100	3.379200	-10.156000	26.006211	0.000626	20.959979
1740.494042	-3.006400	3.378600	-10.156000	26.003482	0.000626	20.964349
1741.494018	-3.022200	3.378800	-10.211000	25.987563	0.000624	20.945987
1742.494544	-3.002600	3.378800	-10.144000	25.986798	0.000623	20.967026
1743.494007	-3.019500	3.376600	-10.195000	25.966670	0.000623	20.954393
1744.494410	-3.022400	3.375800	-10.201000	25.919779	0.000623	20.969397
1745.495044	-2.996900	3.379300	-10.127000	25.921820	0.000621	20.961965
1746.495131	-2.999800	3.378400	-10.133000	25.956210	0.000622	20.957634
1747.496173	-3.002700	3.376600	-10.137000	25.979284	0.000621	20.959005
1748.494881	-3.013100	3.376300	-10.171000	25.995127	0.000622	20.931777
1749.495954	-2.993400	3.378000	-10.111000	26.031083	0.000620	20.948460
1750.497086	-3.001900	3.376000	-10.134000	26.062013	0.000620	20.952983
1751.496699	-3.004200	3.377100	-10.144000	26.105798	0.000619	20.968051
1752.496491	-3.009000	3.374700	-10.154000	26.146163	0.000618	20.959773
1753.496945	-3.012500	3.375400	-10.167000	26.138001	0.000618	20.963425
1754.494619	-2.979700	3.375400	-10.057000	26.127249	0.000619	20.957838
1755.497910	-3.008100	3.374600	-10.151000	26.119865	0.000617	20.939516
1756.498194	-3.008700	3.373700	-10.150000	26.140245	0.000617	20.950035
1757.497612	-2.992700	3.374500	-10.098000	26.138077	0.000617	20.948805
1758.496985	-2.981400	3.373700	-10.057000	26.114636	0.000616	20.963656
1759.496794	-3.001500	3.372100	-10.121000	26.105886	0.000614	20.955339
1760.498333	-2.989100	3.374800	-10.087000	26.090161	0.000617	20.944756
1761.502688	-3.022300	3.373400	-10.195000	26.106652	0.000614	20.948523
1762.499405	-3.003200	3.372600	-10.127000	26.102596	0.000615	20.947293
1763.497839	-3.007900	3.372800	-10.144000	26.135883	0.000613	20.957979
1764.501081	-3.004300	3.370800	-10.125000	26.125604	0.000614	20.946229
1765.500681	-3.009100	3.372500	-10.147000	26.136075	0.000612	20.939208
1766.501447	-3.028800	3.370200	-10.207000	26.125285	0.000612	20.956339
1767.500615	-3.001800	3.370400	-10.117000	26.097558	0.000613	20.939387
1768.501376	-3.002900	3.370700	-10.121000	26.074983	0.000612	20.946575
1769.500293	-3.026500	3.369300	-10.196000	26.029679	0.000611	20.925241
1770.503915	-2.994700	3.368900	-10.087000	26.046719	0.000613	20.963694
1771.502869	-2.999500	3.368600	-10.103000	26.074792	0.000611	20.949228
1772.501631	-2.992100	3.369700	-10.082000	26.080404	0.000610	20.921205
1773.503541	-3.006700	3.369300	-10.130000	26.101563	0.000609	20.952418
1774.502338	-3.010000	3.367500	-10.135000	26.079932	0.000608	20.954391
1775.501670	-2.984700	3.368100	-10.051000	26.028888	0.000608	20.937721
1776.504076	-3.005300	3.368100	-10.121000	26.015610	0.000609	20.942398
1777.502643	-3.001100	3.366200	-10.102000	25.998952	0.000607	20.938938
1778.507289	-2.990400	3.367100	-10.068000	25.997778	0.000608	20.947715
1779.505310	-3.000000	3.366200	-10.098000	26.012804	0.000608	20.945742
1780.505444	-3.005300	3.365500	-10.114000	25.980125	0.000606	20.941360
1781.506077	-2.997600	3.365700	-10.088000	26.013761	0.000605	20.930110
1782.507058	-2.991200	3.366800	-10.070000	26.008314	0.000604	20.926061
1783.506073	-2.990100	3.364700	-10.060000	25.989092	0.000605	20.963642
1784.504135	-2.991400	3.366100	-10.067000	26.044665	0.000604	20.922754
1785.506839	-2.999900	3.363600	-10.089000	26.101907	0.000604	20.929059
1786.506330	-2.983900	3.365400	-10.041000	26.115515	0.000605	20.934671
1787.506389	-2.999900	3.364300	-10.092000	26.167434	0.000603	20.928995
1788.508333	-2.982600	3.364800	-10.034000	26.155892	0.000601	20.929725
1789.507655	-2.975300	3.364600	-10.010000	26.181297	0.000600	20.937234
1790.511282	-2.997900	3.363800	-10.083000	26.210526	0.000600	20.920614
1791.509899	-2.989300	3.362000	-10.048000	26.208626	0.000600	20.928187
1792.510511	-2.986300	3.362100	-10.039000	26.207899	0.000601	20.936465
1793.506592	-2.978100	3.361800	-10.011000	26.213855	0.000600	20.943871
1794.508975	-2.985100	3.363500	-10.039000	26.177547	0.000598	20.954801
1795.506915	-2.995500	3.362400	-10.072000	26.134938	0.000599	20.945178
1796.508089	-2.987700	3.362900	-10.047000	26.076500	0.000596	20.919653
1797.508694	-3.000100	3.361200	-10.083000	26.093909	0.000597	20.925765
1798.506118	-2.997900	3.359800	-10.071000	26.099177	0.000595	20.920627
1799.509561	-3.032100	3.359300	-10.185000	26.093833	0.000596	20.929955
1800.512241	-2.990900	3.359400	-10.046000	26.068439	0.000597	20.930519
1801.508473	-3.012700	3.359500	-10.120000	26.059702	0.000597	20.950187
1802.510532	-2.995100	3.360400	-10.064000	26.011591	0.000599	20.928405
1803.514345	-2.983600	3.360000	-10.024000	25.987816	0.000595	20.924432
1804.513628	-2.987200	3.359700	-10.034000	26.000545	0.000597	20.921575
1805.517509	-2.991300	3.359600	-10.049000	26.019946	0.000595	20.934901
1806.516026	-3.016400	3.357500	-10.127000	26.025392	0.000595	20.928046
1807.512521	-3.004600	3.358600	-10.090000	26.030927	0.000592	20.939296
1808.512536	-3.022000	3.357100	-10.144000	26.055977	0.000594	20.905673
1809.512221	-3.016000	3.356800	-10.123000	26.063350	0.000592	20.943896
1810.513890	-3.001800	3.355800	-10.072000	26.071958	0.000591	20.928840
1811.513571	-2.977800	3.357900	-9.997700	26.042445	0.000592	20.942806
1812.515728	-3.001600	3.355300	-10.071000	26.049778	0.000590	20.908927
1813.513158	-3.019200	3.353800	-10.125000	26.043682	0.000589	20.915603
1814.525093	-2.993800	3.355200	-10.042000	26.028146	0.000590	20.917538
1815.515407	-2.993400	3.355800	-10.044000	26.050135	0.000589	20.927302
1816.515553	-3.015900	3.356000	-10.120000	26.060352	0.000590	20.921446
1817.516242	-2.988200	3.355400	-10.026000	26.084993	0.000590	20.925341
1818.520234	-3.011900	3.353800	-10.100000	26.117681	0.000587	20.929736
1819.516189	-2.998700	3.353100	-10.053000	26.111253	0.000588	20.923752
1820.516372	-3.018800	3.352000	-10.118000	26.151019	0.000588	20.914398
1821.519318	-3.007000	3.351900	-10.078000	26.141556	0.000587	20.918165
1822.517365	-2.996800	3.352900	-10.047000	26.178336	0.000589	20.908658
1823.518177	-2.997100	3.351800	-10.044000	26.151644	0.000587	20.924982
1824.519269	-3.001900	3.350700	-10.057000	26.147155	0.000587	20.921420
1825.518720	-3.002500	3.351900	-10.063000	26.139209	0.000586	20.903481
1826.519697	-3.009600	3.350900	-10.084000	26.153378	0.000585	20.914398
1827.523764	-2.988700	3.353000	-10.020000	26.128623	0.000583	20.918447
1828.519245	-2.988800	3.351600	-10.016000	26.133980	0.000583	20.929518
1829.519298	-3.021500	3.349300	-10.118000	26.145331	0.000583	20.924803
1830.524320	-2.987800	3.349700	-10.007000	26.164983	0.000583	20.917524
1831.518863	-3.012200	3.349900	-10.089000	26.203294	0.000581	20.918562
1832.520257	-3.007100	3.349300	-10.071000	26.211570	0.000582	20.925456
1833.522670	-3.007200	3.349200	-10.071000	26.198460	0.000579	20.912284
1834.519392	-3.020500	3.348300	-10.111000	26.202171	0.000578	20.894677
1835.519971	-2.985700	3.350000	-10.000000	26.184904	0.000580	20.899611
1836.538949	-2.999200	3.347200	-10.038000	26.192441	0.000579	20.923777
1837.521696	-3.009400	3.348600	-10.076000	26.194940	0.000580	20.905428
1838.521430	-2.997200	3.347500	-10.032000	26.202133	0.000578	20.902699
1839.525658	-2.974200	3.348700	-9.958400	26.228913	0.000578	20.907325
1840.521753	-2.994400	3.347100	-10.022000	26.244662	0.000577	20.904659
1841.522731	-2.987900	3.349000	-10.004000	26.278672	0.000577	20.903750
1842.527542	-3.015000	3.344400	-10.082000	26.245377	0.000575	20.916755
1843.522760	-2.971700	3.347400	-9.946300	26.218903	0.000576	20.918601
1844.522174	-3.009900	3.345500	-10.068000	26.197975	0.000573	20.904685
1845.525587	-2.986000	3.345100	-9.987500	26.214146	0.000573	20.917614
1846.524184	-2.992300	3.344800	-10.007000	26.218405	0.000571	20.921894
1847.525342	-2.996200	3.345100	-10.022000	26.228786	0.000574	20.899137
1848.525919	-2.966400	3.346100	-9.923700	26.230392	0.000573	20.919241
1849.524403	-3.003600	3.342400	-10.038000	26.216072	0.000573	20.920497
1850.522515	-3.002600	3.343500	-10.038000	26.221325	0.000572	20.919613
1851.525763	-2.975300	3.344600	-9.950000	26.258498	0.000571	20.888693
1852.523523	-2.984700	3.342200	-9.973400	26.262413	0.000572	20.891205
1853.530896	-3.007100	3.342700	-10.052000	26.272602	0.000570	20.899546
1854.532301	-3.002400	3.342700	-10.035000	26.284347	0.000569	20.917037
1855.525846	-3.008200	3.341900	-10.052000	26.276466	0.000569	20.914807
1856.525461	-3.024600	3.341000	-10.104000	26.277244	0.000569	20.911796
1857.529995	-3.003300	3.342000	-10.035000	26.266022	0.000569	20.906684
1858.526976	-2.985800	3.340100	-9.971700	26.286859	0.000567	20.899175
1859.527409	-2.991000	3.341000	-9.992500	26.272832	0.000567	20.903096
1860.532006	-3.012400	3.340300	-10.061000	26.275790	0.000566	20.913654
1861.528618	-2.994700	3.342000	-10.007000	26.303372	0.000566	20.904390
1862.530426	-2.993400	3.339300	-9.995300	26.311278	0.000566	20.894792
1863.532615	-2.998300	3.339600	-10.012000	26.283900	0.000567	20.900943
1864.529905	-2.995500	3.339100	-10.002000	26.249942	0.000563	20.887207
1865.531381	-3.013600	3.338800	-10.061000	26.214464	0.000564	20.891858
1866.532326	-2.993600	3.338200	-9.991700	26.228135	0.000563	20.891371
1867.528827	-2.992600	3.337700	-9.986800	26.244739	0.000563	20.901891
1868.529792	-2.997500	3.338500	-10.006000	26.249916	0.000565	20.882914
1869.532985	-3.000100	3.338600	-10.015000	26.265321	0.000564	20.884644
1870.529699	-2.979100	3.338100	-9.943400	26.270906	0.000562	20.903531
1871.532526	-3.011900	3.336400	-10.049000	26.278978	0.000562	20.890781
1872.535635	-3.042900	3.336200	-10.150000	26.256164	0.000563	20.880184
1873.534609	-2.998300	3.337300	-10.005000	26.245809	0.000562	20.892537
1874.535729	-3.009000	3.334600	-10.033000	26.226910	0.000560	20.896304
1875.536768	-3.007800	3.334800	-10.029000	26.193894	0.000561	20.896317
1876.535325	-2.995700	3.336200	-9.993400	26.153505	0.000559	20.892716
1877.535970	-3.017000	3.334300	-10.058000	26.111112	0.000557	20.887103
1878.538095	-3.022200	3.333700	-10.073000	26.078882	0.000558	20.894074
1879.533857	-3.032100	3.333000	-10.104000	26.095845	0.000557	20.882196
1880.546501	-3.011200	3.333200	-10.035000	26.123559	0.000556	20.874956
1881.542705	-2.989200	3.334600	-9.965500	26.144807	0.000558	20.899148
1882.537466	-3.010700	3.332500	-10.032000	26.168337	0.000555	20.883913
1883.534831	-3.032800	3.330500	-10.099000	26.194569	0.000557	20.868549
1884.540143	-3.006000	3.331600	-10.014000	26.215790	0.000556	20.889397
1885.540936	-2.991900	3.333000	-9.971200	26.233656	0.000556	20.901660
1886.537754	-2.989000	3.332300	-9.958400	26.226731	0.000554	20.900391
1887.543027	-2.996000	3.332300	-9.981800	26.262833	0.000555	20.893049
1888.541512	-3.014200	3.331000	-10.039000	26.231195	0.000553	20.884963
1889.540582	-3.010800	3.331600	-10.030000	26.243832	0.000553	20.891972
1890.544664	-3.021400	3.330600	-10.062000	26.262361	0.000553	20.897790
1891.543663	-3.010900	3.328700	-10.022000	26.237788	0.000552	20.888269
1892.541002	-3.009300	3.329500	-10.018000	26.216797	0.000550	20.889461
1893.543941	-2.989700	3.329800	-9.954300	26.197808	0.000552	20.895983
1894.542978	-2.997900	3.328500	-9.976200	26.198854	0.000552	20.867639
1895.541099	-2.983500	3.328500	-9.929100	26.197464	0.000550	20.896111
1896.544254	-3.000000	3.328500	-9.984400	26.204605	0.000550	20.891434
1897.546617	-3.009400	3.327300	-10.012000	26.208788	0.000550	20.878569
1898.542278	-2.989100	3.329500	-9.950800	26.225010	0.000549	20.874955
1899.544575	-3.015300	3.327400	-10.032000	26.222357	0.000549	20.870393
1900.542165	-3.023500	3.326500	-10.055000	26.247683	0.000546	20.877351
1901.541139	-2.998000	3.327900	-9.976200	26.258931	0.000547	20.870637
1902.547130	-3.013300	3.325700	-10.020000	26.288592	0.000547	20.898071
1903.543168	-2.967900	3.327600	-9.874400	26.281502	0.000546	20.880042
1904.541101	-3.007100	3.324800	-9.997100	26.258166	0.000546	20.889781
1905.540015	-2.994900	3.326100	-9.961200	26.239917	0.000547	20.886142
1906.542467	-3.000300	3.324800	-9.974500	26.213022	0.000545	20.876659
1907.540773	-2.996800	3.324300	-9.961900	26.230914	0.000544	20.887526
1908.541802	-3.003200	3.324700	-9.983600	26.252440	0.000543	20.883079
1909.541597	-3.008000	3.324400	-9.999300	26.261468	0.000543	20.881247
1910.541939	-3.006200	3.323200	-9.989500	26.253753	0.000541	20.883925
1911.543448	-3.023800	3.323800	-10.049000	26.242225	0.000542	20.849583
1912.542438	-3.012400	3.322300	-10.007000	26.246510	0.000540	20.866690
1913.543074	-2.987100	3.323600	-9.926900	26.245107	0.000542	20.857694
1914.541987	-2.981600	3.323900	-9.908800	26.278632	0.000541	20.881426
1915.544562	-2.970400	3.323600	-9.872000	26.314044	0.000540	20.858220
1916.543029	-2.991300	3.322800	-9.938600	26.348638	0.000539	20.867382
1917.545098	-2.999700	3.320600	-9.959800	26.343219	0.000538	20.885642
1918.545383	-3.013600	3.321700	-10.010000	26.375287	0.000542	20.863345
1919.544551	-2.985500	3.321500	-9.914500	26.327484	0.000539	20.858450
1920.544885	-2.992900	3.321200	-9.939300	26.305947	0.000538	20.874263
1921.544482	-2.988000	3.321000	-9.922200	26.313279	0.000536	20.856028
1922.545502	-2.979200	3.320900	-9.892200	26.348702	0.000536	20.855119
1923.544930	-3.017500	3.319300	-10.014000	26.378577	0.000536	20.860014
1924.546506	-3.010400	3.320200	-9.994100	26.411907	0.000535	20.870752
1925.546811	-3.009600	3.318600	-9.987000	26.418601	0.000536	20.859463
1926.546421	-3.016600	3.317400	-10.006000	26.436259	0.000532	20.839280
1927.545949	-3.023400	3.317400	-10.028000	26.458100	0.000535	20.868817
1928.545415	-3.017000	3.317100	-10.006000	26.473068	0.000535	20.867741
1929.547626	-3.001100	3.317500	-9.955200	26.484989	0.000534	20.851749
1930.549634	-2.996700	3.317100	-9.938600	26.469868	0.000533	20.847930
1931.546899	-2.979500	3.318400	-9.884200	26.449507	0.000533	20.860655
1932.547439	-2.993500	3.316600	-9.927300	26.457450	0.000530	20.862948
1933.548819	-2.997500	3.316200	-9.939400	26.429476	0.000532	20.849058
1934.549650	-2.984100	3.317000	-9.897500	26.377621	0.000528	20.856208
1935.548942	-3.002000	3.316200	-9.953300	26.340235	0.000529	20.859412
1936.549167	-2.982900	3.316200	-9.891400	26.348128	0.000527	20.850275
1937.549933	-2.967300	3.316000	-9.838000	26.380413	0.000529	20.853325
1938.550596	-2.991100	3.314700	-9.913100	26.392360	0.000528	20.839254
1939.549222	-2.981000	3.314900	-9.880000	26.363059	0.000529	20.845367
1940.551003	-3.008800	3.313400	-9.968200	26.355396	0.000527	20.851415
1941.550601	-3.003200	3.314100	-9.951700	26.335798	0.000528	20.836935
1942.551160	-2.999200	3.313800	-9.937600	26.314618	0.000526	20.854055
1943.549985	-2.991600	3.314000	-9.912700	26.289612	0.000525	20.848365
1944.550541	-3.010700	3.311900	-9.968800	26.260882	0.000523	20.837038
1945.552344	-3.014000	3.312300	-9.981300	26.255131	0.000524	20.856387
1946.552117	-2.978100	3.311800	-9.861400	26.282993	0.000523	20.859732
1947.553963	-3.016000	3.312200	-9.988500	26.312985	0.000525	20.864268
1948.552827	-3.002900	3.311100	-9.941900	26.341255	0.000523	20.869445
1949.553622	-2.989500	3.311900	-9.900000	26.383970	0.000523	20.841727
1950.552644	-2.986400	3.310800	-9.885800	26.407304	0.000522	20.829144
1951.551277	-3.005500	3.309900	-9.947400	26.444878	0.000520	20.844623
1952.552700	-2.978700	3.310700	-9.860000	26.476803	0.000521	20.828823
1953.554104	-2.984300	3.310500	-9.878600	26.489030	0.000521	20.854388
1954.555344	-3.009800	3.307000	-9.951900	26.521655	0.000517	20.842137
1955.555445	-2.981400	3.309900	-9.865800	26.477747	0.000520	20.833564
1956.556043	-2.998800	3.307400	-9.917300	26.481049	0.000519	20.817444
1957.556025	-2.994800	3.307900	-9.906000	26.509186	0.000517	20.828182
1958.557302	-2.978200	3.308800	-9.853200	26.468988	0.000518	20.826183
1959.556428	-3.012300	3.306300	-9.958100	26.414928	0.000518	20.833962
1960.556906	-3.017100	3.306300	-9.974000	26.394617	0.000515	20.825875
1961.556881	-2.992600	3.307200	-9.896000	26.392704	0.000516	20.804039
1962.557063	-3.008500	3.305400	-9.942300	26.367050	0.000514	20.842265
1963.558490	-2.982800	3.306200	-9.860300	26.336690	0.000516	20.856797
1964.557515	-2.985200	3.307100	-9.871800	26.383995	0.000514	20.827054
1965.555623	-3.007000	3.304500	-9.934200	26.381063	0.000514	20.849710
1966.561517	-2.996800	3.304200	-9.901100	26.414214	0.000514	20.839408
1967.558189	-2.995100	3.305500	-9.899600	26.445910	0.000513	20.827170
1968.558964	-2.998000	3.303900	-9.904500	26.444253	0.000512	20.830719
1969.561845	-3.005100	3.303200	-9.924800	26.521731	0.000511	20.842214
1970.562213	-2.998000	3.305700	-9.908500	26.531216	0.000510	20.842739
1971.559590	-3.000900	3.302400	-9.909100	26.554878	0.000509	20.821954
1972.562806	-3.034900	3.302400	-10.022000	26.551436	0.000510	20.826080
1973.560081	-3.005200	3.302700	-9.924100	26.492280	0.000509	20.822095
1974.564065	-2.994400	3.303100	-9.889800	26.455753	0.000510	20.855554
1975.562482	-2.997300	3.302400	-9.897200	26.439497	0.000508	20.826888
1976.564173	-3.031700	3.301400	-10.007000	26.443437	0.000508	20.821364
1977.564257	-3.013000	3.301900	-9.947500	26.472736	0.000506	20.829950
1978.567115	-2.997200	3.299900	-9.889100	26.457959	0.000508	20.830271
1979.564389	-3.021100	3.299500	-9.967200	26.457806	0.000506	20.823005
1980.568079	-3.007800	3.300800	-9.926900	26.482055	0.000506	20.839792
1981.567263	-2.998100	3.301600	-9.897000	26.483330	0.000505	20.840599
1982.564994	-3.005700	3.299900	-9.917100	26.487206	0.000507	20.850658
1983.564047	-3.002300	3.300300	-9.907500	26.482336	0.000503	20.829169
1984.565270	-3.000500	3.299100	-9.897900	26.491732	0.000504	20.809690
1985.566757	-2.992000	3.299400	-9.870000	26.507860	0.000504	20.849608
1986.565472	-3.004600	3.298100	-9.907400	26.510371	0.000502	20.821313
1987.567924	-2.999700	3.299100	-9.895700	26.474954	0.000503	20.827438
1988.565401	-2.996100	3.299100	-9.882700	26.429781	0.000502	20.846993
1989.567396	-3.003100	3.295900	-9.896800	26.405301	0.000502	20.847993
1990.568335	-3.001000	3.296500	-9.890600	26.377441	0.000500	20.831847
1991.564686	-2.973200	3.296900	-9.801400	26.365277	0.000500	20.845699
1992.565618	-3.001900	3.295100	-9.890700	26.394731	0.000497	20.835947
1993.566309	-2.980500	3.297300	-9.826600	26.428302	0.000498	20.834602
1994.564011	-3.009800	3.295600	-9.917600	26.458086	0.000499	20.831821
1995.566640	-2.988300	3.295000	-9.845600	26.424006	0.000498	20.823645
1996.569385	-2.996300	3.295300	-9.873000	26.387310	0.000497	20.832756
1997.570643	-3.001000	3.295000	-9.887500	26.379838	0.000500	20.823351
1998.567816	-3.017200	3.294200	-9.937800	26.365812	0.000497	20.827272
1999.572491	-3.029200	3.293500	-9.975700	26.406550	0.000495	20.837395
2000.577531	-2.994600	3.294100	-9.863500	26.428404	0.000495	20.820006
2001.571345	-3.015700	3.292700	-9.928800	26.436003	0.000493	20.840919
2002.571582	-2.996500	3.292800	-9.865200	26.474291	0.000494	20.836729
2003.572706	-3.012900	3.293200	-9.921300	26.494460	0.000495	20.855579
2004.572071	-2.993800	3.291700	-9.853900	26.518454	0.000493	20.852196
2005.573394	-2.969000	3.292600	-9.774500	26.533358	0.000493	20.844418
2006.572563	-3.000000	3.292600	-9.877100	26.521846	0.000491	20.825734
2007.572933	-2.999300	3.291400	-9.870200	26.527264	0.000488	20.842560
2008.579021	-2.982000	3.292200	-9.815100	26.507337	0.000488	20.832013
2009.572558	-3.004200	3.291200	-9.886800	26.507312	0.000492	20.844315
2010.572383	-3.007100	3.289900	-9.891700	26.498986	0.000491	20.833103
2011.574699	-3.008400	3.289200	-9.894600	26.493632	0.000487	20.837203
2012.576341	-2.985800	3.290800	-9.824700	26.534021	0.000488	20.830860
2013.582623	-3.005300	3.289500	-9.885100	26.536456	0.000488	20.845161
2014.577885	-2.966700	3.288700	-9.754700	26.530910	0.000486	20.831526
2015.576658	-2.996000	3.287900	-9.848700	26.506674	0.000487	20.848416
2016.575318	-2.981200	3.289000	-9.803400	26.456097	0.000485	20.853529
2017.580197	-2.994600	3.289700	-9.850500	26.495417	0.000486	20.836152
2018.576466	-3.010300	3.287900	-9.895700	26.511289	0.000485	20.848313
2019.576047	-2.983200	3.287900	-9.807700	26.537858	0.000485	20.848941
2020.579466	-2.994100	3.288300	-9.843300	26.566236	0.000484	20.825785
2021.578608	-2.986100	3.287800	-9.816100	26.615954	0.000484	20.849684
2022.574896	-3.012800	3.285700	-9.897300	26.650768	0.000483	20.846750
2023.578038	-3.003300	3.285400	-9.865800	26.685134	0.000480	20.860435
2024.579125	-3.008700	3.285900	-9.886000	26.666167	0.000482	20.835204
2025.575571	-3.021600	3.282900	-9.918100	26.644139	0.000480	20.830604
2026.576936	-3.012600	3.283700	-9.891000	26.607094	0.000481	20.865433
2027.576069	-3.014400	3.284600	-9.900300	26.574077	0.000480	20.855950
2028.576421	-3.020000	3.283400	-9.914600	26.583332	0.000481	20.838702
2029.581139	-3.009400	3.284200	-9.881700	26.614654	0.000479	20.839843
2030.576254	-3.020200	3.281800	-9.908200	26.587488	0.000477	20.857104
2031.575965	-2.998200	3.282400	-9.840300	26.559862	0.000478	20.857309
2032.576247	-2.994800	3.283700	-9.832200	26.564222	0.000476	20.847941
2033.575350	-2.989600	3.283400	-9.813700	26.547993	0.000477	20.853439
2034.577038	-3.026400	3.280700	-9.926900	26.555069	0.000476	20.843956
2035.579477	-3.012200	3.281600	-9.882800	26.548376	0.000475	20.864254
2036.574466	-2.993100	3.281000	-9.819500	26.525453	0.000474	20.846903
2037.578006	-3.016300	3.280900	-9.894700	26.531292	0.000474	20.854195
2038.580002	-3.020400	3.279900	-9.905500	26.492089	0.000473	20.849402
2039.579585	-3.011200	3.279600	-9.873400	26.488379	0.000474	20.855630
2040.579622	-2.986800	3.281100	-9.799000	26.528322	0.000473	20.850735
2041.586246	-3.000500	3.280200	-9.841600	26.546999	0.000471	20.833948
2042.579640	-3.006800	3.279800	-9.861000	26.566861	0.000472	20.847749
2043.580295	-2.995600	3.280200	-9.824800	26.532784	0.000471	20.866125
2044.586428	-3.013900	3.277000	-9.875800	26.592217	0.000469	20.862332
2045.580139	-3.004300	3.278900	-9.849700	26.596335	0.000469	20.843713
2046.583406	-3.024800	3.276300	-9.909300	26.629224	0.000469	20.854015
2047.583379	-3.013300	3.277300	-9.874000	26.605309	0.000468	20.859372
2048.579455	-2.998100	3.276700	-9.822600	26.598158	0.000468	20.846019
2049.580471	-3.017400	3.277700	-9.889000	26.557529	0.000466	20.857808
2050.586511	-3.004000	3.275600	-9.839100	26.518110	0.000464	20.863229
2051.585517	-3.006200	3.275900	-9.847000	26.461490	0.000464	20.867009
2052.580707	-3.023500	3.275600	-9.903300	26.472263	0.000465	20.869303
2053.585133	-3.010500	3.274000	-9.855000	26.449403	0.000464	20.884257
2054.582873	-3.019100	3.274700	-9.885000	26.464677	0.000464	20.868790
2055.581304	-3.029600	3.273600	-9.916500	26.499585	0.000464	20.875902
2056.584209	-2.987600	3.273300	-9.777500	26.504902	0.000461	20.873185
2057.583939	-3.025500	3.271100	-9.895600	26.555974	0.000462	20.859564
2058.583505	-3.017100	3.272900	-9.874300	26.581305	0.000463	20.870802
2059.586134	-3.014100	3.272100	-9.861200	26.576244	0.000461	20.840112
2060.584669	-3.011100	3.272300	-9.852100	26.553806	0.000460	20.866394
2061.584744	-3.004100	3.273400	-9.832000	26.559467	0.000460	20.879669
2062.590313	-2.972800	3.273100	-9.729400	26.574994	0.000458	20.869200
2063.589269	-3.001800	3.271800	-9.819500	26.626445	0.000457	20.864023
2064.584219	-2.998500	3.272100	-9.810100	26.614858	0.000458	20.875607
2065.589632	-3.006500	3.271100	-9.833300	26.603181	0.000458	20.882834
2066.584859	-3.004900	3.270200	-9.824500	26.562679	0.000458	20.880054
2067.583716	-2.986300	3.270200	-9.764900	26.519079	0.000457	20.872263
2068.586537	-3.012100	3.269100	-9.845900	26.492713	0.000457	20.883693
2069.587525	-3.002700	3.270800	-9.820400	26.468222	0.000457	20.887998
2070.585160	-3.012500	3.268200	-9.844000	26.460636	0.000455	20.883219
2071.588899	-3.004800	3.268500	-9.819400	26.512296	0.000454	20.886781
2072.588503	-3.025900	3.267000	-9.884500	26.531624	0.000453	20.876812
2073.584896	-3.021300	3.269300	-9.876900	26.602467	0.000452	20.902030
2074.592179	-2.965900	3.269200	-9.696200	26.587781	0.000452	20.879208
2075.586818	-3.016600	3.268000	-9.858000	26.624342	0.000451	20.882296
2076.584914	-2.976200	3.267300	-9.723500	26.649366	0.000448	20.879951
2077.588938	-3.010300	3.266700	-9.833000	26.670169	0.000449	20.889011
2078.588747	-3.018400	3.265100	-9.854200	26.672081	0.000451	20.889985
2079.587759	-2.978000	3.266600	-9.726300	26.713522	0.000446	20.865741
2080.589474	-2.997700	3.264900	-9.786900	26.695600	0.000446	20.885654
2081.589251	-2.982800	3.265700	-9.739900	26.675472	0.000446	20.881540
2082.587823	-2.991500	3.264900	-9.765800	26.665134	0.000446	20.881579
2083.595089	-2.981900	3.267100	-9.741200	26.656555	0.000444	20.895238
2084.591555	-2.999900	3.264800	-9.793300	26.646956	0.000446	20.881797
2085.587951	-2.972300	3.265100	-9.703000	26.646459	0.000444	20.883193
2086.592326	-2.989600	3.263900	-9.756600	26.699895	0.000443	20.873852
2087.590670	-3.010100	3.263300	-9.821400	26.699742	0.000445	20.901197
2088.589499	-3.006700	3.262000	-9.807000	26.746828	0.000443	20.882155
2089.594313	-3.024100	3.261800	-9.863300	26.762442	0.000442	20.901645
2090.593789	-3.004800	3.261400	-9.798900	26.770358	0.000442	20.896802
2091.589169	-3.008300	3.262900	-9.815200	26.762799	0.000441	20.898211
2092.593688	-3.003900	3.261900	-9.796400	26.773684	0.000439	20.879285
2093.589741	-2.985200	3.262200	-9.737900	26.779025	0.000439	20.905041
2094.590099	-3.012700	3.259400	-9.818000	26.776157	0.000438	20.888409
2095.591106	-3.010700	3.260900	-9.816600	26.777253	0.000438	20.900889
2096.590564	-3.006600	3.260800	-9.802700	26.775125	0.000436	20.906809
2097.589484	-2.997900	3.260300	-9.773200	26.805179	0.000437	20.890562
2098.591102	-2.986000	3.260700	-9.736200	26.822437	0.000434	20.894636
2099.590824	-3.004100	3.258800	-9.788900	26.880439	0.000437	20.897007
2100.591043	-3.021200	3.257300	-9.838900	26.899569	0.000436	20.904862
2101.593695	-2.982600	3.258900	-9.719000	26.903927	0.000434	20.912563
2102.593484	-2.986200	3.259100	-9.731800	26.871352	0.000434	20.892138
2103.592123	-3.014500	3.257800	-9.818700	26.834851	0.000434	20.890049
2104.595864	-2.997200	3.258000	-9.763700	26.853051	0.000431	20.904080
2105.594071	-2.990800	3.257300	-9.741100	26.867350	0.000432	20.903760
2106.594373	-3.012300	3.256600	-9.809300	26.861016	0.000432	20.910192
2107.597871	-2.987700	3.256100	-9.728100	26.856428	0.000430	20.912691
2108.594032	-2.999300	3.256600	-9.766500	26.850196	0.000427	20.913063
2109.593669	-3.009600	3.254900	-9.794300	26.834290	0.000429	20.915087
2110.594888	-2.972400	3.256300	-9.678600	26.781472	0.000429	20.899442
2111.596651	-3.014000	3.254200	-9.805500	26.774934	0.000427	20.903299
2112.598246	-3.029500	3.252800	-9.853400	26.731915	0.000426	20.916471
2113.595417	-3.001700	3.251700	-9.758700	26.769491	0.000427	20.920110
2114.594940	-2.987800	3.253900	-9.720600	26.776769	0.000426	20.911781
2115.594975	-3.019000	3.252000	-9.816400	26.739142	0.000426	20.909987
2116.596165	-3.018700	3.252100	-9.815600	26.711712	0.000425	20.912755
2117.595817	-2.998700	3.251700	-9.749400	26.675804	0.000423	20.930707
2118.593597	-2.994900	3.250700	-9.734900	26.669520	0.000423	20.913012
2119.594862	-2.988300	3.252100	-9.717100	26.655192	0.000422	20.918522
2120.596129	-3.010700	3.250700	-9.784800	26.648525	0.000422	20.924621
2121.595953	-3.009200	3.250100	-9.779000	26.694899	0.000419	20.929041
2122.595650	-3.022300	3.247900	-9.814000	26.742202	0.000421	20.917804
2123.595135	-2.996900	3.250100	-9.739300	26.786074	0.000421	20.923506
2124.595781	-3.009500	3.251200	-9.783500	26.764061	0.000419	20.931245
2125.596879	-2.993000	3.249300	-9.723600	26.772257	0.000419	20.929054
2126.595624	-3.005200	3.248400	-9.760600	26.782722	0.000417	20.914921
2127.598324	-3.006800	3.248500	-9.767000	26.795990	0.000418	20.945801
2128.602507	-3.001100	3.246600	-9.742900	26.826413	0.000417	20.934192
2129.597617	-2.987900	3.248400	-9.705200	26.882836	0.000416	20.945404
2130.596141	-3.023300	3.245400	-9.809200	26.922038	0.000416	20.919393
2131.597883	-3.021000	3.245100	-9.801000	26.929404	0.000416	20.929644
2132.597651	-3.031700	3.244900	-9.836900	26.970796	0.000415	20.938549
2133.598800	-3.021000	3.244000	-9.799400	27.008363	0.000414	20.943610
2134.600858	-2.979600	3.245900	-9.671000	27.019093	0.000412	20.952029
2135.606507	-3.017200	3.242800	-9.782600	27.021425	0.000410	20.943944
2136.602127	-2.990800	3.244100	-9.702000	27.047688	0.000412	20.930528
2137.599092	-3.016700	3.243700	-9.782800	27.033607	0.000409	20.949556
2138.601447	-2.996300	3.243100	-9.716100	27.031135	0.000411	20.931425
2139.600466	-2.999800	3.244500	-9.730900	27.027962	0.000409	20.927760
2140.598451	-2.996000	3.243300	-9.716300	27.002374	0.000409	20.942803
2141.603446	-2.998000	3.242100	-9.719000	26.987005	0.000409	20.950107
2142.599562	-3.010600	3.241800	-9.758700	26.985272	0.000409	20.942201
2143.600198	-2.994600	3.241400	-9.706000	26.939688	0.000409	20.946622
2144.601365	-3.006800	3.242400	-9.748000	26.945028	0.000406	20.946301
2145.601800	-2.999500	3.242100	-9.723000	26.891999	0.000406	20.958410
2146.601146	-3.001300	3.239000	-9.720700	26.849878	0.000404	20.963471
2147.603515	-2.984800	3.239200	-9.666200	26.841797	0.000403	20.942073
2148.602248	-3.019900	3.237900	-9.776400	26.830569	0.000403	20.946904
2149.603447	-3.009300	3.238400	-9.744400	26.824273	0.000402	20.947685
2150.603103	-3.005200	3.239600	-9.735300	26.853637	0.000401	20.925531
2151.601948	-3.012500	3.237300	-9.751500	26.856645	0.000401	20.924762
2152.601620	-3.008700	3.238700	-9.742200	26.897913	0.000400	20.951555
2153.602582	-3.002800	3.236600	-9.717700	26.924497	0.000401	20.953157
2154.602323	-2.986900	3.238600	-9.671600	26.970681	0.000400	20.954079
2155.605286	-3.005600	3.235900	-9.725500	27.004388	0.000398	20.970429
2156.605375	-3.004100	3.235000	-9.717600	27.028459	0.000398	20.963343
2157.603466	-2.980500	3.237200	-9.647700	27.032932	0.000398	20.955514
2158.601063	-2.980700	3.236000	-9.645100	27.059258	0.000396	20.954963
2159.604915	-2.987600	3.235900	-9.665700	27.060494	0.000397	20.959999
2160.606455	-2.984400	3.234300	-9.651600	27.079583	0.000396	20.954541
2161.602115	-2.997000	3.233000	-9.687800	27.090719	0.000395	20.974273
2162.605901	-2.994300	3.234200	-9.683100	27.080742	0.000395	20.955232
2163.605224	-3.002600	3.233200	-9.707100	27.103105	0.000394	20.973453
2164.607176	-2.985600	3.233700	-9.653600	27.154008	0.000395	20.965855
2165.606672	-2.996800	3.233700	-9.689000	27.144566	0.000394	20.966790
2166.605296	-3.013200	3.233000	-9.739700	27.121874	0.000391	20.971941
2167.607205	-3.019100	3.231300	-9.754400	27.134692	0.000390	20.990519
2168.607634	-3.010400	3.231800	-9.728000	27.168915	0.000389	20.978949
2169.606081	-3.015300	3.231000	-9.742100	27.135813	0.000388	20.988329
2170.606940	-3.019300	3.230200	-9.752500	27.146490	0.000389	20.968251
2171.606066	-2.979900	3.230900	-9.626800	27.118127	0.000390	20.975759
2172.605178	-2.995900	3.229000	-9.672500	27.105194	0.000386	20.999732
2173.606100	-3.013400	3.229600	-9.731500	27.153218	0.000386	20.991609
2174.606606	-3.009400	3.228300	-9.714300	27.169094	0.000387	20.986714
2175.608314	-3.025100	3.227500	-9.762100	27.209253	0.000385	20.981115
2176.604417	-3.044400	3.227800	-9.825400	27.226733	0.000386	20.975939
2177.606131	-3.009100	3.226100	-9.705600	27.236722	0.000384	20.996887
2178.605986	-2.994500	3.228300	-9.665900	27.212133	0.000384	20.989699
2179.606239	-2.966500	3.227000	-9.571400	27.212922	0.000384	20.969634
2180.608187	-3.004300	3.226200	-9.691500	27.228160	0.000382	20.954143
2181.606194	-2.997500	3.225400	-9.667500	27.242379	0.000382	20.978399
2182.606905	-3.016300	3.224300	-9.724300	27.221217	0.000382	20.974183
2183.606394	-2.983300	3.226100	-9.623100	27.249348	0.000379	20.978296
2184.607723	-2.982900	3.224400	-9.616300	27.251437	0.000379	20.987034
2185.606549	-3.000800	3.224000	-9.674100	27.207571	0.000379	20.974683
2186.606531	-2.987500	3.224700	-9.632300	27.152237	0.000378	20.974503
2187.606733	-2.999700	3.224100	-9.671100	27.133290	0.000381	20.995747
2188.607776	-2.987800	3.223500	-9.630700	27.080704	0.000377	21.003076
2189.607482	-2.977600	3.223100	-9.596300	27.071249	0.000376	20.997362
2190.607955	-2.960500	3.222900	-9.540000	27.076983	0.000374	20.986061
2191.609730	-3.018300	3.220800	-9.719700	27.053066	0.000377	20.992352
2192.611569	-2.995900	3.222300	-9.651900	27.035442	0.000378	21.001180
2193.610403	-3.000900	3.222500	-9.667700	27.084705	0.000373	21.008996
2194.610931	-3.018500	3.219100	-9.716000	27.080627	0.000375	21.004421
2195.611863	-3.017700	3.219200	-9.713100	27.122077	0.000372	20.993479
2196.612856	-3.000700	3.220100	-9.660900	27.168125	0.000372	21.015607
2197.612597	-3.003100	3.219300	-9.666500	27.199991	0.000373	21.007356
2198.617876	-2.992400	3.219400	-9.633300	27.259145	0.000370	21.005690
2199.615993	-2.997300	3.219500	-9.648600	27.271133	0.000369	20.998784
2200.613938	-3.005700	3.217900	-9.669900	27.246328	0.000369	20.992326
2201.617270	-2.991600	3.217900	-9.626200	27.191391	0.000370	21.010085
2202.614235	-3.006400	3.219300	-9.677700	27.182778	0.000369	20.981038
2203.613068	-3.009000	3.216000	-9.676800	27.153091	0.000367	20.981051
2204.615998	-2.992000	3.216700	-9.624300	27.113885	0.000367	20.997567
2205.614945	-2.988100	3.215100	-9.606800	27.099168	0.000366	21.005523
2206.615339	-3.002700	3.213800	-9.649400	27.082119	0.000365	21.016350
2207.619431	-3.007700	3.214700	-9.667900	27.081673	0.000365	21.014954
2208.615476	-2.986300	3.214900	-9.599800	27.130755	0.000366	21.010738
2209.614536	-2.993900	3.214800	-9.623200	27.169451	0.000365	21.010777
2210.617400	-2.977000	3.214500	-9.569100	27.195442	0.000364	20.993300
2211.614685	-2.975700	3.214600	-9.563900	27.195137	0.000363	20.999156
2212.614607	-3.007700	3.212400	-9.660500	27.247284	0.000363	21.011302
2213.619169	-2.971800	3.212800	-9.545700	27.260801	0.000363	21.008304
2214.620989	-3.005900	3.212000	-9.653600	27.312678	0.000361	21.012122
2215.618105	-2.997900	3.210400	-9.623200	27.328386	0.000362	20.991417
2216.618582	-2.998800	3.211200	-9.627600	27.373087	0.000361	20.979962
2217.617827	-2.973900	3.211200	-9.547700	27.412462	0.000358	20.983063
2218.618362	-3.009400	3.209600	-9.658500	27.412284	0.000358	20.988098
2219.620394	-3.010800	3.208000	-9.657500	27.450625	0.000358	20.990161
2220.617085	-3.005900	3.209700	-9.647000	27.409061	0.000357	21.008560
2221.618272	-3.014400	3.208300	-9.669600	27.367507	0.000358	21.000898
2222.618004	-3.017800	3.209000	-9.682100	27.291925	0.000356	20.969917
2223.620222	-2.996200	3.207600	-9.609400	27.301760	0.000356	20.975542
2224.619925	-2.995500	3.205600	-9.601600	27.302079	0.000354	21.017580
2225.619678	-2.993400	3.208600	-9.603200	27.278370	0.000353	20.988995
2226.623745	-3.012400	3.206700	-9.658900	27.319838	0.000353	20.972390
2227.621456	-2.989700	3.205800	-9.583900	27.339711	0.000354	20.981474
2228.620810	-2.975000	3.207100	-9.540300	27.389673	0.000353	20.988585
2229.621598	-2.987000	3.207400	-9.579600	27.384221	0.000351	20.972672
2230.619905	-3.000500	3.203500	-9.611200	27.413290	0.000350	20.964933
2231.622974	-2.993600	3.205500	-9.595000	27.380196	0.000351	20.962934
2232.622147	-3.011700	3.203100	-9.645500	27.354985	0.000349	20.969340
2233.623194	-2.986500	3.205000	-9.571100	27.296384	0.000349	20.983883
2234.624005	-3.009200	3.203000	-9.638100	27.264242	0.000348	20.989957
2235.621004	-3.019600	3.202400	-9.668900	27.217204	0.000347	20.978207
2236.622403	-3.001200	3.201300	-9.605900	27.174828	0.000350	20.969251
2237.623899	-3.005600	3.202200	-9.622900	27.134845	0.000347	20.971711
2238.623194	-2.985500	3.201100	-9.556300	27.084336	0.000346	20.976388
2239.622545	-2.988100	3.200800	-9.563600	27.066433	0.000346	20.960756
2240.621581	-3.011600	3.200400	-9.636000	27.111146	0.000347	20.963524
2241.624216	-2.978100	3.200400	-9.529300	27.101589	0.000345	20.961025
2242.623619	-3.013000	3.199300	-9.638600	27.085815	0.000343	20.954170
2243.624110	-3.011900	3.200900	-9.639600	27.154646	0.000342	20.964600
2244.623813	-2.996300	3.199200	-9.585000	27.221294	0.000343	20.961935
2245.625275	-3.010400	3.196200	-9.620400	27.244609	0.000342	20.962153
2246.625749	-2.999300	3.197700	-9.589800	27.300614	0.000342	20.961115
2247.624611	-3.015400	3.197400	-9.640700	27.333087	0.000340	20.962012
2248.628511	-2.993200	3.199000	-9.574400	27.358413	0.000341	20.968047
2249.626083	-2.984700	3.197100	-9.542000	27.371177	0.000338	20.944855
2250.629199	-3.008300	3.194400	-9.609300	27.375534	0.000339	20.964882
2251.628310	-3.000900	3.194500	-9.585900	27.399406	0.000339	20.968034
2252.627774	-2.988900	3.194700	-9.546600	27.407801	0.000339	20.948033
2253.633342	-2.998300	3.194400	-9.576400	27.347992	0.000339	20.962781
2254.632183	-2.981400	3.194500	-9.523500	27.343839	0.000336	20.942959
2255.629790	-3.004600	3.192800	-9.592200	27.288868	0.000336	20.943612
2256.631761	-3.009000	3.192400	-9.604500	27.252126	0.000335	20.964972
2257.631000	-3.022800	3.192700	-9.650000	27.283263	0.000335	20.936552
2258.630470	-3.032100	3.191300	-9.674800	27.336221	0.000336	20.932926
2259.631295	-2.993200	3.191400	-9.551600	27.354005	0.000334	20.939435
2260.631487	-3.008200	3.190600	-9.596300	27.368120	0.000334	20.955529
2261.633239	-3.003500	3.189200	-9.577600	27.414208	0.000331	20.947367
2262.632916	-3.008400	3.188600	-9.591600	27.429341	0.000334	20.956900
2263.634497	-3.040600	3.187700	-9.691800	27.412603	0.000330	20.948123
2264.633748	-2.988600	3.189600	-9.531300	27.391954	0.000330	20.939678
2265.636400	-3.003700	3.187200	-9.572300	27.360859	0.000330	20.936847
2266.633433	-3.011400	3.188200	-9.599900	27.356298	0.000329	20.929889
2267.634523	-3.001300	3.186700	-9.563200	27.327024	0.000329	20.943113
2268.635571	-2.972500	3.187700	-9.474600	27.271186	0.000328	20.945265
2269.637495	-3.008100	3.185700	-9.581500	27.244712	0.000329	20.944714
2270.638544	-2.986100	3.189100	-9.522500	27.175071	0.000328	20.937257
2271.636830	-3.007400	3.184900	-9.577500	27.169758	0.000328	20.934758
2272.639312	-3.010700	3.185100	-9.588100	27.172943	0.000324	20.940806
2273.636966	-3.005000	3.183900	-9.566900	27.202375	0.000323	20.943856
2274.636734	-3.019200	3.183700	-9.610700	27.222722	0.000328	20.952467
2275.639703	-2.995400	3.182800	-9.533200	27.218403	0.000324	20.953338
2276.637137	-3.011500	3.182200	-9.582500	27.187863	0.000323	20.966241
2277.642257	-3.000400	3.183200	-9.549700	27.170204	0.000322	20.956067
2278.641352	-2.997500	3.181700	-9.535800	27.103604	0.000321	20.933183
2279.639839	-2.994500	3.181400	-9.525500	27.111618	0.000320	20.940294
2280.642849	-2.998500	3.180900	-9.537200	27.145690	0.000319	20.939000
2281.641022	-2.976200	3.180700	-9.466000	27.186857	0.000321	20.933939
2282.640031	-3.041400	3.179400	-9.669000	27.212109	0.000319	20.933260
2283.642370	-2.993500	3.182100	-9.523100	27.196807	0.000321	20.942050
2284.640484	-2.987200	3.179000	-9.494600	27.171364	0.000320	20.934951
2285.642468	-3.007600	3.177200	-9.555200	27.173988	0.000317	20.933324
2286.640972	-3.039700	3.175800	-9.651800	27.167286	0.000317	20.952185
2287.642325	-3.005700	3.179500	-9.556100	27.205675	0.000317	20.923470
2288.642328	-3.011800	3.175300	-9.562600	27.260115	0.000317	20.930813
2289.641805	-3.012000	3.176500	-9.566600	27.263351	0.000314	20.933119
2290.644653	-3.004400	3.175600	-9.539700	27.288220	0.000315	20.940589
2291.645199	-2.986500	3.174400	-9.479100	27.299927	0.000314	20.938142
2292.645682	-2.969900	3.174900	-9.428100	27.340859	0.000315	20.915782
2293.645975	-3.030400	3.173800	-9.615500	27.387853	0.000313	20.919434
2294.643211	-2.977400	3.173200	-9.447100	27.435291	0.000314	20.925431
2295.645766	-3.006200	3.172700	-9.536500	27.486382	0.000314	20.907133
2296.645030	-3.000900	3.173300	-9.521000	27.524262	0.000314	20.928173
2297.644263	-3.003300	3.170800	-9.522500	27.523473	0.000314	20.930223
2298.648209	-2.997500	3.171000	-9.503500	27.499540	0.000311	20.920844
2299.643750	-2.997000	3.170900	-9.502600	27.470766	0.000311	20.944523
2300.646273	-3.019400	3.170800	-9.573300	27.477593	0.000311	20.935746
2301.646650	-3.010700	3.170300	-9.544000	27.479491	0.000311	20.937655
2302.643523	-3.008400	3.169000	-9.532100	27.477657	0.000309	20.933913
2303.644813	-3.018000	3.167400	-9.556200	27.434769	0.000310	20.926802
2304.646166	-3.014100	3.167900	-9.547400	27.406248	0.000309	20.941256
2305.646063	-2.995700	3.169500	-9.494100	27.435393	0.000307	20.916051
2306.646393	-2.997300	3.165300	-9.485300	27.433138	0.000308	20.917576
2307.647548	-2.998400	3.166900	-9.494900	27.403687	0.000305	20.908338
2308.645787	-2.982000	3.166500	-9.442100	27.403636	0.000307	20.930569
2309.646995	-2.972100	3.167500	-9.412100	27.459404	0.000305	20.931197
2310.648233	-3.003600	3.164500	-9.503800	27.533942	0.000305	20.927481
2311.646040	-2.962200	3.165100	-9.374600	27.578482	0.000304	20.921561
2312.646657	-3.003800	3.166700	-9.511000	27.606655	0.000304	20.917666
2313.648084	-2.989600	3.164300	-9.458500	27.653802	0.000305	20.923855
2314.648129	-2.965600	3.164400	-9.383600	27.673377	0.000302	20.904199
2315.646602	-2.988000	3.162600	-9.448900	27.657827	0.000302	20.917000
2316.647091	-2.994100	3.161000	-9.463500	27.601102	0.000302	20.920139
2317.647429	-3.000400	3.164200	-9.492900	27.619085	0.000303	20.924009
2318.647042	-2.995900	3.161300	-9.468800	27.619645	0.000303	20.920779
2319.647635	-3.001600	3.159700	-9.483900	27.635973	0.000299	20.913976
2320.649400	-2.974200	3.161000	-9.398900	27.609355	0.000299	20.927968
2321.651355	-2.987200	3.159400	-9.436700	27.651815	0.000299	20.928493
2322.647826	-2.972400	3.158700	-9.387100	27.647180	0.000299	20.917666
2323.648578	-3.006400	3.155400	-9.485700	27.621314	0.000298	20.915821
2324.647526	-2.986100	3.155700	-9.422500	27.626803	0.000297	20.920869
2325.650547	-2.998100	3.157900	-9.466800	27.655471	0.000298	20.919844
2326.650201	-2.981500	3.156500	-9.409900	27.677668	0.000296	20.908517
2327.649283	-2.984300	3.155500	-9.416300	27.666780	0.000294	20.915577
2328.650693	-3.021400	3.153700	-9.526400	27.663990	0.000293	20.899496
2329.651657	-2.993100	3.155300	-9.442500	27.658527	0.000294	20.911067
2330.650197	-2.991900	3.153300	-9.433300	27.683335	0.000294	20.906633
2331.651340	-2.989000	3.152400	-9.420600	27.669530	0.000294	20.898907
2332.650059	-3.013800	3.153200	-9.502500	27.643537	0.000294	20.916372
2333.650552	-2.973400	3.153000	-9.374200	27.596440	0.000293	20.901700
2334.650765	-3.017300	3.149600	-9.501700	27.549138	0.000293	20.931390
2335.655190	-2.988800	3.150300	-9.414200	27.524097	0.000292	20.919947
2336.650957	-3.006400	3.149200	-9.466100	27.500266	0.000291	20.924419
2337.653146	-3.022900	3.148400	-9.516500	27.450093	0.000291	20.929890
2338.650641	-3.011900	3.146000	-9.474900	27.490229	0.000290	20.912425
2339.655106	-3.019300	3.145600	-9.496900	27.507246	0.000290	20.912003
2340.651144	-2.991700	3.148700	-9.419000	27.532262	0.000289	20.907300
2341.653085	-3.004200	3.146400	-9.450400	27.578062	0.000290	20.909286
2342.656029	-3.010600	3.145400	-9.468100	27.618614	0.000288	20.904097
2343.651051	-3.004200	3.144400	-9.445000	27.639322	0.000290	20.909286
2344.653965	-2.978600	3.144800	-9.366800	27.630726	0.000287	20.908223
2345.655226	-3.018000	3.143500	-9.485500	27.605050	0.000289	20.927430
2346.650715	-2.988100	3.144200	-9.394700	27.584724	0.000287	20.889438
2347.655525	-3.011000	3.141900	-9.458500	27.549902	0.000286	20.907031
2348.654499	-2.979000	3.141300	-9.357100	27.498508	0.000287	20.903213
2349.652645	-3.008500	3.140700	-9.447700	27.466461	0.000286	20.917910
2350.655076	-2.995000	3.141500	-9.407000	27.462869	0.000285	20.898651
2351.661477	-2.999500	3.140500	-9.418700	27.464856	0.000284	20.916296
2352.655703	-2.979900	3.139600	-9.354800	27.451953	0.000285	20.879135
2353.662279	-2.998900	3.139200	-9.413100	27.496904	0.000284	20.908710
2354.660440	-3.005700	3.136600	-9.426500	27.510010	0.000285	20.911465
2355.657743	-2.977500	3.135700	-9.334900	27.527791	0.000284	20.892847
2356.661234	-3.015400	3.135700	-9.454300	27.572395	0.000284	20.902636
2357.660491	-2.989000	3.136000	-9.372600	27.619595	0.000283	20.896076
2358.659466	-2.981600	3.136200	-9.349500	27.648760	0.000282	20.910248
2359.663298	-2.997200	3.133400	-9.390700	27.684355	0.000282	20.905763
2360.663113	-2.985300	3.134400	-9.354700	27.658146	0.000282	20.904520
2361.660990	-3.003100	3.134000	-9.409500	27.706030	0.000283	20.912401
2362.663116	-3.020600	3.130800	-9.455300	27.659191	0.000281	20.899408
2363.665577	-3.006300	3.132600	-9.415900	27.654619	0.000280	20.891015
2364.661028	-3.024800	3.129700	-9.464000	27.635655	0.000280	20.898485
2365.666255	-3.008700	3.129400	-9.413500	27.614552	0.000278	20.889105
2366.664046	-2.977000	3.130500	-9.318300	27.605981	0.000277	20.922678
2367.662082	-3.003200	3.129600	-9.397800	27.597830	0.000281	20.913054
2368.663679	-3.000100	3.127200	-9.380600	27.610401	0.000278	20.893936
2369.665335	-3.010700	3.125800	-9.409800	27.656682	0.000278	20.884557
2370.661901	-2.988100	3.127000	-9.343200	27.623862	0.000278	20.900369
2371.664288	-3.014800	3.124800	-9.419700	27.612184	0.000276	20.890515
2372.665129	-2.993700	3.123700	-9.350300	27.594162	0.000276	20.901305
2373.663187	-3.017300	3.124200	-9.425300	27.522506	0.000276	20.888952
2374.668226	-3.011400	3.122400	-9.402100	27.512177	0.000275	20.893258
2375.671058	-2.985200	3.124400	-9.326100	27.518953	0.000277	20.906238
2376.666408	-2.994900	3.121500	-9.347300	27.556373	0.000276	20.899792
2377.668395	-3.002900	3.120800	-9.370100	27.589768	0.000275	20.908262
2378.671790	-2.997500	3.121000	-9.354000	27.646023	0.000275	20.904649
2379.666904	-3.004300	3.119900	-9.370800	27.699027	0.000274	20.901561
2380.669986	-3.011000	3.119200	-9.391400	27.718447	0.000275	20.889337
2381.668175	-3.005000	3.118200	-9.368600	27.738224	0.000272	20.895013
2382.665913	-2.983300	3.118300	-9.301800	27.793044	0.000272	20.911774
2383.668104	-3.012200	3.116800	-9.386300	27.819950	0.000274	20.878163
2384.669718	-2.984200	3.117100	-9.301100	27.805396	0.000273	20.879636
2385.667346	-3.010200	3.115100	-9.376100	27.773230	0.000274	20.908903
2386.671020	-3.027200	3.113100	-9.422400	27.790090	0.000272	20.875613
2387.670843	-2.985300	3.114700	-9.296700	27.798341	0.000271	20.894347
2388.668050	-3.010000	3.112200	-9.365500	27.814577	0.000272	20.888875
2389.670624	-3.000800	3.113300	-9.340800	27.829602	0.000270	20.893091
2390.670515	-2.994200	3.111700	-9.316300	27.835014	0.000270	20.889055
2391.668601	-2.994300	3.110100	-9.311400	27.882661	0.000272	20.896705
2392.669422	-3.001900	3.110100	-9.334000	27.878281	0.000270	20.895142
2393.670105	-2.997100	3.109200	-9.317600	27.882101	0.000270	20.872435
2394.669626	-2.993000	3.107200	-9.298800	27.851847	0.000271	20.882289
2395.672226	-2.993200	3.107300	-9.299800	27.825770	0.000270	20.893976
2396.670529	-3.016000	3.106200	-9.366600	27.855184	0.000269	20.891336
2397.670312	-3.006500	3.105500	-9.335700	27.856941	0.000269	20.899268
2398.672813	-3.027700	3.103200	-9.393900	27.872169	0.000268	20.898473
2399.672345	-2.994600	3.103600	-9.292900	27.846856	0.000269	20.895757
2400.672285	-3.001600	3.102800	-9.311200	27.810069	0.000267	20.871538
2401.675046	-3.005600	3.101800	-9.321600	27.799055	0.000268	20.880368
2402.673259	-2.991700	3.101200	-9.276700	27.762534	0.000267	20.873486
2403.673508	-2.996300	3.100300	-9.288100	27.780973	0.000268	20.862171
2404.675115	-3.031200	3.097900	-9.389100	27.801997	0.000266	20.875267
2405.674263	-3.033800	3.096800	-9.393700	27.814450	0.000266	20.877843
2406.675227	-3.006700	3.096800	-9.310200	27.799577	0.000265	20.880419
2407.675694	-3.014000	3.096700	-9.332400	27.758103	0.000265	20.873768
2408.675231	-2.984700	3.097200	-9.243200	27.741052	0.000265	20.865144
2409.674019	-2.999000	3.095400	-9.281600	27.727388	0.000266	20.889799
2410.676308	-3.040100	3.092900	-9.402400	27.722077	0.000263	20.877343
2411.676991	-2.971700	3.094000	-9.193400	27.742644	0.000264	20.863427
2412.675741	-3.006100	3.092500	-9.295400	27.756155	0.000264	20.871334
2413.677734	-3.002300	3.090800	-9.278800	27.786564	0.000264	20.879650
2414.677195	-3.014800	3.089600	-9.314200	27.793758	0.000261	20.884994
2415.676137	-3.012700	3.090200	-9.307500	27.787965	0.000263	20.885327
2416.676891	-3.006000	3.089100	-9.283400	27.745814	0.000264	20.882738
2417.677659	-2.990100	3.088700	-9.234500	27.730954	0.000261	20.865414
2418.678874	-2.972100	3.087600	-9.175100	27.690750	0.000264	20.861941
2419.681561	-3.002100	3.086100	-9.264000	27.643502	0.000265	20.854701
2420.681499	-3.013100	3.084000	-9.292100	27.643158	0.000263	20.868579
2421.681144	-2.969500	3.085200	-9.160400	27.649297	0.000262	20.868592
2422.682585	-2.974600	3.084500	-9.173400	27.704033	0.000262	20.867246
2423.679158	-3.001300	3.081100	-9.246600	27.714654	0.000263	20.857546
2424.682409	-3.000600	3.080400	-9.241400	27.698965	0.000259	20.853612
2425.682422	-2.977900	3.080500	-9.171800	27.738977	0.000260	20.864004
2426.682540	-3.021400	3.078700	-9.300700	27.712056	0.000261	20.849243
2427.680938	-3.006700	3.077700	-9.252900	27.706593	0.000260	20.854650
2428.685153	-3.025900	3.075900	-9.306200	27.705459	0.000260	20.860622
2429.684003	-3.010500	3.076500	-9.261400	27.707675	0.000259	20.865222
2430.683515	-2.973900	3.076900	-9.148800	27.719277	0.000258	20.845129
2431.687760	-3.032800	3.073400	-9.319400	27.728509	0.000258	20.882393
2432.686363	-2.993300	3.074600	-9.202300	27.738251	0.000257	20.859007
2433.684692	-3.024300	3.072400	-9.291400	27.698175	0.000258	20.856611
2434.685771	-3.003700	3.071100	-9.224700	27.701538	0.000258	20.870899
2435.690006	-2.993300	3.071100	-9.192600	27.678373	0.000256	20.860392
2436.686578	-2.990600	3.071100	-9.184000	27.694100	0.000258	20.863416
2437.688993	-3.039000	3.067100	-9.320200	27.691413	0.000257	20.870194
2438.686331	-3.030500	3.067700	-9.295800	27.711521	0.000259	20.868618
2439.686240	-3.023900	3.065500	-9.268500	27.683416	0.000256	20.857880
2440.687317	-3.021900	3.065200	-9.262200	27.648941	0.000258	20.861122
2441.689631	-2.967800	3.065500	-9.096600	27.646356	0.000257	20.854253
2442.688181	-2.993000	3.065000	-9.173000	27.614046	0.000257	20.872001
2443.687350	-3.009400	3.063000	-9.217200	27.651718	0.000256	20.852536
2444.688877	-2.981700	3.062000	-9.128700	27.685746	0.000257	20.832725
2445.686816	-2.999600	3.061600	-9.183000	27.722321	0.000255	20.861468
2446.689032	-2.983300	3.061200	-9.131300	27.759072	0.000257	20.859097
2447.689305	-3.006200	3.057800	-9.191200	27.794702	0.000256	20.859867
2448.688136	-2.995900	3.057800	-9.160200	27.841434	0.000255	20.861853
2449.689253	-3.016200	3.056500	-9.218200	27.846463	0.000258	20.868811
2450.689285	-3.009400	3.056000	-9.196200	27.851429	0.000256	20.836352
2451.692053	-2.998600	3.055400	-9.160200	27.902692	0.000255	20.841478
2452.690142	-2.988000	3.053200	-9.121400	27.926412	0.000254	20.833584
2453.689666	-3.024900	3.052900	-9.233600	27.923980	0.000256	20.852473
2454.690022	-2.981200	3.052600	-9.098700	27.941665	0.000256	20.852729
2455.692866	-3.031700	3.050500	-9.247500	27.942607	0.000254	20.838979
2456.692186	-2.999000	3.049300	-9.143600	27.928182	0.000255	20.860021
2457.692876	-2.992600	3.047600	-9.118600	27.966084	0.000255	20.844118
2458.693472	-2.995000	3.047400	-9.126600	27.961577	0.000251	20.846694
2459.701482	-3.011000	3.044500	-9.166400	27.979580	0.000253	20.853434
2460.692856	-3.008900	3.044300	-9.159100	27.951430	0.000254	20.842170
2461.693274	-3.026400	3.042600	-9.205800	27.936572	0.000253	20.835276
2462.693548	-3.010200	3.043100	-9.158300	27.952780	0.000254	20.859175
2463.691011	-2.993700	3.042000	-9.105700	27.982419	0.000252	20.846335
2464.695430	-3.010400	3.039600	-9.148500	28.003719	0.000254	20.853076
2465.693375	-2.986300	3.039800	-9.076600	27.988047	0.000255	20.833982
2466.693967	-3.003800	3.038000	-9.124500	27.974869	0.000255	20.849641
2467.693572	-3.023300	3.037300	-9.181600	27.998053	0.000254	20.852588
2468.695417	-2.997700	3.036900	-9.101900	28.002051	0.000253	20.848078
2469.693024	-2.989600	3.035300	-9.073900	28.039175	0.000254	20.827600
2470.695115	-2.984600	3.033500	-9.053100	28.073598	0.000252	20.820052
2471.693516	-2.992700	3.033000	-9.076400	28.111458	0.000252	20.863378
2472.696298	-3.000900	3.031500	-9.096500	28.102407	0.000252	20.840043
2473.695289	-2.968600	3.031400	-8.998800	28.113597	0.000254	20.835661
2474.694850	-2.995500	3.029400	-9.073500	28.071129	0.000252	20.831317
2475.695239	-3.014600	3.027400	-9.124900	28.053599	0.000254	20.830266
2476.695671	-3.017800	3.027200	-9.134600	28.018844	0.000251	20.832265
2477.695827	-2.988900	3.025700	-9.042400	27.968224	0.000253	20.825883
2478.694303	-2.982000	3.023900	-9.015600	27.930576	0.000251	20.869542
2479.696498	-3.006900	3.024000	-9.092100	27.954767	0.000252	20.831304
2480.696536	-2.990600	3.021800	-9.036000	27.956422	0.000252	20.828228
2481.698516	-3.023500	3.021200	-9.133400	27.919041	0.000253	20.841812
2482.696261	-2.994300	3.019800	-9.040900	27.937452	0.000253	20.827153
2483.698870	-3.004500	3.018200	-9.066300	27.933785	0.000252	20.828678
2484.696992	-3.022800	3.016900	-9.118000	27.956053	0.000251	20.821694
2485.698146	-3.010900	3.015600	-9.077700	27.913910	0.000251	20.845657
2486.697454	-3.025300	3.015300	-9.121000	27.913783	0.000251	20.837469
2487.696966	-3.000400	3.013000	-9.038300	27.937019	0.000252	20.825295
2488.699058	-2.983200	3.012800	-8.986900	27.991142	0.000252	20.839468
2489.697528	-2.996800	3.011700	-9.024200	28.016082	0.000252	20.827114
2490.698050	-3.005800	3.010600	-9.048600	27.996285	0.000250	20.843697
2491.697068	-3.013000	3.008600	-9.063700	27.986087	0.000252	20.827742
2492.697441	-3.005300	3.008000	-9.038800	28.007642	0.000250	20.833317
2493.697528	-3.002900	3.005700	-9.024100	28.045287	0.000252	20.859830
2494.699015	-2.999900	3.005200	-9.014500	28.056987	0.000251	20.836995
2495.700357	-3.010200	3.003000	-9.036900	28.074708	0.000249	20.843453
2496.700484	-3.018600	3.002500	-9.062100	28.108519	0.000249	20.832920
2497.699613	-2.998600	2.999600	-8.993600	28.108608	0.000251	20.841544
2498.699401	-3.008500	3.000800	-9.026700	28.096133	0.000249	20.837046
2499.699683	-3.004100	2.998700	-9.006800	28.113026	0.000251	20.822284
2500.700208	-2.994500	2.996700	-8.972300	28.055981	0.000249	20.856845
2501.701453	-3.002900	2.996100	-8.995500	28.022016	0.000250	20.843992
2502.702498	-3.004200	2.994000	-8.993900	27.973726	0.000249	20.811033
2503.701289	-3.018600	2.994500	-9.037000	27.935301	0.000250	20.855807
2504.708483	-3.000600	2.990900	-8.973800	27.929037	0.000252	20.871313
2505.701690	-2.998000	2.989900	-8.961900	27.936193	0.000250	20.859075
2506.702770	-3.008600	2.988700	-8.990700	27.957264	0.000249	20.858947
2507.702081	-2.991600	2.988200	-8.939100	28.000055	0.000249	20.843224
2508.702564	-3.005500	2.986600	-8.975200	28.026905	0.000250	20.865982
2509.703429	-2.996000	2.984400	-8.939500	28.017038	0.000251	20.840879
2510.704071	-3.013900	2.982900	-8.989200	27.996465	0.000249	20.843403
2511.704043	-2.993300	2.983200	-8.928800	27.987477	0.000250	20.838150
2512.704411	-3.006400	2.981700	-8.963400	28.017790	0.000250	20.853963
2513.707611	-3.007400	2.980200	-8.962500	28.016835	0.000249	20.857269
2514.714460	-2.988600	2.979200	-8.902600	28.041037	0.000248	20.842276
2515.705573	-2.985100	2.977000	-8.885600	28.009285	0.000249	20.851092
2516.707074	-3.003700	2.975500	-8.936300	27.973855	0.000249	20.846723
2517.707107	-2.976800	2.974400	-8.852800	27.927561	0.000249	20.871724
2518.707026	-3.001500	2.972700	-8.920600	27.989807	0.000250	20.851401
2519.706863	-2.998800	2.971100	-8.909100	27.996084	0.000250	20.850606
2520.707072	-3.000500	2.970000	-8.910600	28.028854	0.000250	20.852772
2521.706802	-2.997500	2.969900	-8.901500	28.065328	0.000249	20.850606
2522.709804	-2.997000	2.968000	-8.894600	28.075690	0.000251	20.852977
2523.709054	-3.029300	2.965500	-8.982500	28.050929	0.000247	20.848915
2524.706709	-3.002500	2.964200	-8.899100	28.031923	0.000250	20.856809
2525.710050	-3.023200	2.963600	-8.958600	28.006613	0.000249	20.836075
2526.708271	-2.993700	2.962800	-8.868800	27.992163	0.000249	20.840496
2527.707896	-2.998300	2.961300	-8.877200	27.983290	0.000248	20.859064
2528.710921	-2.985900	2.960000	-8.836700	27.981011	0.000250	20.854400
2529.708376	-3.002000	2.957700	-8.876700	27.971195	0.000247	20.855899
2530.709488	-3.011200	2.957300	-8.903900	27.963950	0.000249	20.845289
2531.715881	-3.005100	2.953400	-8.873800	27.986613	0.000248	20.829220
2532.713451	-2.988700	2.953300	-8.825500	27.995372	0.000249	20.854631
2533.711294	-3.020900	2.950600	-8.913100	28.009160	0.000248	20.874198
2534.713917	-3.011500	2.949900	-8.883200	27.963072	0.000249	20.855310
2535.715079	-2.993900	2.949000	-8.827400	27.979904	0.000247	20.846648
2536.711782	-3.006000	2.944900	-8.851300	28.029110	0.000247	20.855874
2537.718205	-2.993600	2.944900	-8.815200	28.081242	0.000247	20.868048
2538.720306	-2.979100	2.945800	-8.775400	28.117663	0.000248	20.871046
2539.714082	-2.957300	2.944000	-8.704700	28.174806	0.000251	20.874993
2540.717186	-2.985300	2.941800	-8.780100	28.216811	0.000248	20.874134
2541.720053	-3.019900	2.938900	-8.873800	28.239124	0.000250	20.863409
2542.713344	-2.984200	2.938800	-8.768400	28.233078	0.000248	20.852107
2543.717001	-3.031600	2.934200	-8.894400	28.214469	0.000246	20.876518
2544.719800	-2.997800	2.934100	-8.794700	28.194943	0.000248	20.879619
2545.714789	-3.000600	2.933000	-8.799600	28.192614	0.000248	20.861154
2546.718479	-3.005900	2.931600	-8.811500	28.162128	0.000251	20.849903
2547.720654	-3.020600	2.928800	-8.845700	28.145351	0.000248	20.884220
2548.717093	-3.028100	2.927200	-8.863500	28.123838	0.000247	20.868254
2549.723542	-3.009700	2.925600	-8.803900	28.158564	0.000249	20.870970
2550.719723	-2.991900	2.924700	-8.749000	28.140450	0.000250	20.871701
2551.717051	-3.003200	2.924300	-8.781300	28.155318	0.000248	20.866754
2552.726330	-2.996300	2.921500	-8.752500	28.192958	0.000248	20.851544
2553.721038	-2.980100	2.919600	-8.699200	28.245477	0.000247	20.871227
2554.718558	-2.995600	2.918900	-8.742700	28.244038	0.000246	20.861244
2555.722176	-3.004100	2.916500	-8.760300	28.224958	0.000247	20.868113
2556.726946	-3.031100	2.914400	-8.833300	28.185156	0.000248	20.868344
2557.719089	-3.024700	2.913400	-8.810700	28.155293	0.000248	20.867678
2558.722388	-3.008100	2.911900	-8.758800	28.120910	0.000248	20.870048
2559.724133	-2.997100	2.909000	-8.717300	28.072192	0.000248	20.886912
2560.718381	-3.005600	2.907800	-8.738700	28.053237	0.000247	20.887745
2561.721706	-2.995000	2.908700	-8.710300	27.998621	0.000249	20.879710
2562.724739	-3.000300	2.905900	-8.717100	27.984120	0.000250	20.876020
2563.719407	-2.985300	2.904300	-8.669400	28.010219	0.000248	20.884746
2564.723838	-2.985400	2.902300	-8.663700	28.041830	0.000247	20.876737
2565.722947	-3.011800	2.898900	-8.728200	28.076725	0.000248	20.883888
2566.721020	-2.991800	2.897900	-8.669400	28.184584	0.000248	20.876776
2567.722352	-3.009600	2.896100	-8.715200	28.244166	0.000246	20.876545
2568.722570	-3.001500	2.894500	-8.687600	28.269203	0.000247	20.897009
2569.721471	-3.010600	2.892000	-8.704700	28.311841	0.000247	20.884939
2570.722297	-2.969000	2.893100	-8.587400	28.303199	0.000247	20.892833
2571.721854	-2.995700	2.889000	-8.653600	28.253573	0.000247	20.891231
2572.722187	-2.997800	2.887600	-8.655900	28.270362	0.000245	20.878263
2573.726515	-2.969000	2.886900	-8.570000	28.279424	0.000247	20.892602
2574.722542	-2.981300	2.884100	-8.597100	28.327445	0.000247	20.897330
2575.723791	-3.002100	2.881700	-8.649900	28.344487	0.000248	20.888886
2576.724540	-3.005000	2.881500	-8.657400	28.327942	0.000246	20.913476
2577.726735	-2.982200	2.878600	-8.583200	28.360867	0.000247	20.886413
2578.724319	-2.999600	2.877300	-8.630000	28.407994	0.000249	20.876495
2579.724422	-3.037800	2.874600	-8.731600	28.439224	0.000249	20.892295
2580.725183	-2.987300	2.872300	-8.578800	28.439236	0.000246	20.904634
2581.727730	-3.036200	2.868900	-8.709400	28.470733	0.000247	20.892730
2582.728526	-3.001700	2.869200	-8.611000	28.458974	0.000245	20.891321
2583.727698	-2.996100	2.865300	-8.583900	28.420376	0.000247	20.896549
2584.726223	-2.974900	2.866800	-8.527700	28.350749	0.000247	20.893768
2585.726786	-2.984900	2.863800	-8.547400	28.337029	0.000249	20.918832
2586.727503	-2.999300	2.859600	-8.574800	28.347555	0.000248	20.910939
2587.726442	-2.995800	2.857900	-8.561000	28.361452	0.000247	20.888899
2588.726707	-3.002900	2.858000	-8.581600	28.355305	0.000246	20.907838
2589.725624	-3.017000	2.854100	-8.610100	28.401885	0.000247	20.896895
2590.725912	-2.977500	2.852900	-8.493500	28.439338	0.000246	20.920856
2591.730742	-3.001100	2.849900	-8.550800	28.460324	0.000248	20.910222
2592.730004	-2.978800	2.850300	-8.489400	28.481893	0.000247	20.910131
2593.727290	-2.977400	2.848700	-8.479500	28.515730	0.000247	20.899637
2594.726834	-2.986300	2.846700	-8.500100	28.502839	0.000246	20.899932
2595.726970	-2.994800	2.843000	-8.513000	28.466165	0.000247	20.902354
2596.726749	-3.042400	2.840000	-8.639000	28.373276	0.000246	20.915975
2597.726846	-3.002000	2.838000	-8.518800	28.324888	0.000245	20.916090
2598.729893	-2.983300	2.837100	-8.462900	28.255573	0.000246	20.910786
2599.727304	-2.991300	2.835000	-8.479200	28.239229	0.000247	20.905237
2600.726063	-2.995100	2.833200	-8.484700	28.206644	0.000245	20.897088
2601.731415	-3.026900	2.828300	-8.559200	28.193546	0.000248	20.913297
2602.728147	-2.983300	2.830200	-8.442000	28.188251	0.000248	20.908441
2603.729457	-3.004100	2.826600	-8.490300	28.228576	0.000247	20.938130
2604.729649	-3.027100	2.823600	-8.546500	28.243506	0.000247	20.916475
2605.729110	-3.027100	2.821300	-8.539300	28.309883	0.000247	20.932749
2606.728866	-3.008600	2.818000	-8.476800	28.384158	0.000245	20.897536
2607.731753	-2.985700	2.816900	-8.409900	28.447433	0.000246	20.915258
2608.731030	-3.008900	2.813500	-8.464800	28.504953	0.000245	20.934773
2609.729167	-2.988300	2.813800	-8.408000	28.540265	0.000246	20.927662
2610.732896	-3.006900	2.811000	-8.451700	28.614804	0.000246	20.927341
2611.730073	-2.984700	2.809600	-8.384300	28.636727	0.000247	20.923343
2612.731597	-2.987000	2.807300	-8.384200	28.706018	0.000246	20.918693
2613.733578	-2.985400	2.803800	-8.369100	28.699275	0.000244	20.929917
2614.732015	-2.984000	2.801200	-8.358200	28.662683	0.000247	20.899703
2615.732585	-2.995300	2.798400	-8.380800	28.603047	0.000246	20.924510
2616.737031	-2.983600	2.795800	-8.340400	28.573018	0.000246	20.929828
2617.733666	-3.025900	2.790800	-8.443900	28.609181	0.000246	20.927842
2618.734455	-2.996900	2.789900	-8.358900	28.633140	0.000246	20.944384
2619.736177	-2.994700	2.787500	-8.346900	28.674720	0.000246	20.927945
2620.735116	-3.002700	2.784400	-8.359600	28.691781	0.000245	20.929008
2621.733904	-3.003200	2.782700	-8.355100	28.755318	0.000247	20.943693
2622.734287	-2.973200	2.780000	-8.265000	28.785915	0.000246	20.926625
2623.737354	-3.010800	2.775400	-8.355500	28.822540	0.000247	20.936018
2624.740201	-3.017500	2.773300	-8.367600	28.797797	0.000246	20.919629
2625.738094	-3.016600	2.770700	-8.357000	28.758117	0.000247	20.927548
2626.736392	-2.987100	2.768100	-8.266800	28.723678	0.000247	20.965399
2627.737005	-2.974200	2.766300	-8.225900	28.729810	0.000247	20.914683
2628.738210	-2.991700	2.762600	-8.263800	28.716655	0.000246	20.944577
2629.737226	-3.008800	2.759800	-8.302600	28.719022	0.000245	20.949331
2630.736609	-3.018300	2.756300	-8.317700	28.735790	0.000246	20.933507
2631.740623	-3.008500	2.753800	-8.283800	28.726554	0.000246	20.951228
2632.738877	-3.001900	2.752100	-8.259800	28.723615	0.000247	20.947320
2633.735619	-3.018000	2.748700	-8.293700	28.738730	0.000245	20.923666
2634.741230	-2.990500	2.746400	-8.210900	28.764276	0.000247	20.941336
2635.739412	-3.004200	2.740900	-8.233600	28.763258	0.000246	20.938415
2636.737822	-2.976900	2.740200	-8.155300	28.794058	0.000245	20.944309
2637.748641	-2.991200	2.736500	-8.184300	28.774721	0.000247	20.939056
2638.739814	-2.999400	2.732100	-8.192600	28.713056	0.000246	20.933367
2639.742156	-2.994100	2.730800	-8.175500	28.697534	0.000247	20.944283
2640.744288	-3.020900	2.724700	-8.229500	28.669671	0.000248	20.951305
2641.743285	-3.008200	2.721800	-8.186900	28.679239	0.000246	20.948615
2642.741383	-3.024400	2.718200	-8.219700	28.709201	0.000246	20.960301
2643.744092	-2.995500	2.716200	-8.136200	28.770167	0.000246	20.941106
2644.744414	-3.010600	2.711900	-8.162100	28.805203	0.000247	20.951267
2645.741829	-2.988800	2.708900	-8.094500	28.787647	0.000245	20.929318
2646.747529	-2.986000	2.707000	-8.082000	28.785026	0.000245	20.965554
2647.746603	-2.986400	2.703800	-8.073800	28.766096	0.000244	20.971141
2648.744931	-2.980200	2.697800	-8.039200	28.775701	0.000246	20.944784
2649.746346	-3.014200	2.695300	-8.122600	28.802710	0.000247	20.949230
2650.745923	-2.982700	2.692000	-8.027500	28.805814	0.000246	20.946194
2651.743266	-2.999300	2.687000	-8.057700	28.769111	0.000245	20.970859
2652.746297	-3.017500	2.683900	-8.098000	28.713833	0.000247	20.949795
2653.744075	-3.001700	2.680100	-8.043000	28.666351	0.000248	20.967400
2654.744818	-2.976000	2.677200	-7.966300	28.679583	0.000246	20.960814
2655.745775	-3.013000	2.672500	-8.051700	28.723592	0.000248	20.966260
2656.747061	-2.983600	2.670100	-7.966100	28.730907	0.000245	20.969835
2657.746039	-2.992400	2.665600	-7.975800	28.776630	0.000247	20.972269
2658.749509	-3.007700	2.659900	-7.999100	28.848126	0.000246	20.971270
2659.746479	-3.006500	2.656600	-7.986600	28.843584	0.000245	20.978548
2660.745642	-2.999000	2.653200	-7.955900	28.885106	0.000245	20.979124
2661.750333	-3.029900	2.647900	-8.022100	28.923662	0.000247	20.982879
2662.748634	-2.986400	2.644900	-7.897800	28.918955	0.000248	20.973397
2663.748792	-3.007200	2.638500	-7.933500	28.960079	0.000247	20.970258
2664.749059	-3.051600	2.633600	-8.035200	28.980520	0.000248	20.978049
2665.750333	-2.983500	2.630700	-7.848000	28.923408	0.000247	20.981675
2666.751128	-2.998000	2.625100	-7.868700	28.909365	0.000249	21.000715
2667.752880	-3.002700	2.622100	-7.872800	28.910904	0.000248	20.993732
2668.753580	-2.975700	2.616800	-7.784600	28.965828	0.000247	20.972731
2669.749194	-2.969900	2.612700	-7.758900	29.008884	0.000246	20.973910
2670.753958	-3.004600	2.605800	-7.827800	29.026284	0.000246	20.971528
2671.752258	-2.976300	2.602800	-7.746000	29.065737	0.000246	20.970977
2672.749681	-2.985200	2.597200	-7.751300	29.051569	0.000247	20.973296
2673.754859	-2.990700	2.591900	-7.750300	29.075289	0.000249	20.983918
2674.752289	-3.019500	2.585600	-7.805900	29.144208	0.000247	20.994566
2675.751005	-3.019100	2.581200	-7.791900	29.148938	0.000248	20.990325
2676.755240	-2.961600	2.575600	-7.626800	29.170749	0.000246	20.990018
2677.752909	-3.016100	2.569900	-7.750000	29.206357	0.000248	20.994131
2678.752493	-2.988200	2.564200	-7.661700	29.217700	0.000248	20.984700
2679.750461	-3.000400	2.557500	-7.672500	29.213898	0.000246	20.992722
2680.752121	-3.007500	2.552600	-7.676000	29.174425	0.000246	20.988980
2681.754945	-2.988100	2.547900	-7.612500	29.131720	0.000247	20.990992
2682.754835	-2.982700	2.541700	-7.580000	29.084231	0.000246	21.011890
2683.758155	-3.018600	2.535500	-7.652500	29.090527	0.000248	20.996899
2684.758018	-2.998200	2.529900	-7.584400	29.123263	0.000247	20.998590
2685.759369	-2.998500	2.524000	-7.567100	29.127168	0.000248	20.990672
2686.760327	-3.004200	2.518100	-7.564400	29.135981	0.000248	21.016144
2687.759191	-2.995300	2.511000	-7.519800	29.107137	0.000248	21.001781
2688.759317	-2.996700	2.506300	-7.510000	29.092601	0.000249	20.999936
2689.760502	-3.002300	2.498100	-7.499100	29.018299	0.000247	21.004254
