LabVIEW Measurement	
Writer_Version	2
Reader_Version	2
Separator	Tab
Decimal_Separator	.
Multi_Headings	No
X_Columns	One
Time_Pref	Absolute
Operator	admin
Description	Clolumns are: time, Current, Voltage, Power, Battery Temp, and Chamber Temp
Date	2024/08/16
Time	13:06:06.104549407958984375
***End_of_Header***	
	
Channels	6						
Samples	1	1	1	1	1	1	
Date	2024/09/17	2024/09/17	2024/09/17	2024/09/17	2024/09/17	2024/09/17	
Time	15:34:15.7466921806335449219	15:34:15.7526888847351074219	15:34:15.757686614990234375	15:34:15.7313079833984375	15:34:15.7313079833984375	15:34:15.7313079833984375	
X_Dimension	Time	Time	Time	Time	Time	Time	
X0	0.0000000000000000E+0	0.0000000000000000E+0	0.0000000000000000E+0	0.0000000000000000E+0	0.0000000000000000E+0	0.0000000000000000E+0	
Delta_X	1.000000	1.000000	1.000000	1.000000	1.000000	1.000000	
***End_of_Header***							
X_Value	Untitled	Untitled 1	Untitled 2	Untitled 3	Untitled 4	Untitled 5	Comment
0.000000	0.032452	4.095600	0.132940	21.037780	0.000972	20.861418
1.002060	-2.980100	3.910100	-11.650000	21.010438	0.000973	20.842607
2.004171	-3.005500	3.903200	-11.730000	21.035040	0.000970	20.830704
3.003120	-3.001800	3.896900	-11.697000	21.005648	0.000969	20.843980
4.002253	-2.999000	3.892800	-11.673000	21.037416	0.000968	20.845882
5.005166	-2.979900	3.890800	-11.593000	21.020103	0.000968	20.847058
6.003625	-2.975500	3.887600	-11.567000	21.041954	0.000967	20.870334
7.007179	-2.978900	3.886800	-11.577000	21.031653	0.000966	20.856239
8.002058	-2.998900	3.882400	-11.642000	21.029006	0.000965	20.873505
9.003087	-2.969700	3.881000	-11.524000	21.029985	0.000965	20.846984
10.004014	-2.990100	3.879200	-11.598000	21.038068	0.000963	20.863129
11.002389	-2.968300	3.877200	-11.507000	21.036092	0.000963	20.846455
12.003710	-2.998400	3.875000	-11.618000	21.036523	0.000962	20.836928
13.003313	-2.971400	3.875500	-11.515000	21.063760	0.000962	20.838567
14.004148	-2.987000	3.872300	-11.566000	21.058348	0.000962	20.831732
15.008313	-3.002100	3.869500	-11.616000	21.067374	0.000959	20.855458
16.007738	-2.999000	3.869200	-11.602000	21.075715	0.000960	20.835826
17.005573	-3.002400	3.868600	-11.613000	21.063305	0.000960	20.838112
18.006145	-2.994400	3.867800	-11.580000	21.092498	0.000959	20.843130
19.010883	-3.011500	3.866000	-11.641000	21.086256	0.000958	20.838783
20.008873	-3.011500	3.865200	-11.637000	21.087925	0.000957	20.830970
21.007735	-3.003100	3.863400	-11.601000	21.095060	0.000958	20.857072
22.011266	-3.005800	3.863600	-11.612000	21.111473	0.000956	20.840773
23.011664	-3.022700	3.862000	-11.673000	21.107177	0.000955	20.819407
24.006845	-3.010400	3.860900	-11.622000	21.131672	0.000955	20.825417
25.011188	-3.023100	3.859900	-11.668000	21.119101	0.000955	20.839395
26.010758	-3.010200	3.860400	-11.620000	21.121249	0.000957	20.829216
27.007732	-3.000600	3.860200	-11.582000	21.118307	0.000955	20.834807
28.011704	-3.003800	3.859100	-11.590000	21.135593	0.000954	20.828391
29.012228	-3.003100	3.857300	-11.581000	21.145523	0.000957	20.831685
30.011920	-3.005500	3.857200	-11.591000	21.151353	0.000955	20.853638
31.013030	-2.989400	3.856400	-11.526000	21.141621	0.000954	20.840584
32.010246	-3.006000	3.855900	-11.589000	21.154592	0.000954	20.843601
33.011937	-3.020600	3.855500	-11.644000	21.170462	0.000955	20.833872
34.008329	-3.015700	3.855500	-11.624000	21.181660	0.000953	20.803823
35.018494	-2.994600	3.856400	-11.547000	21.200515	0.000956	20.828848
36.012364	-3.006500	3.854800	-11.588000	21.177972	0.000953	20.844229
37.011714	-3.006900	3.852200	-11.582000	21.182627	0.000954	20.842248
38.013973	-2.981700	3.853500	-11.489000	21.204658	0.000954	20.823510
39.014680	-3.016300	3.851600	-11.615000	21.209767	0.000953	20.817716
40.011083	-3.024600	3.849700	-11.643000	21.227003	0.000954	20.845863
41.015117	-2.980400	3.851400	-11.477000	21.217992	0.000952	20.801288
42.016250	-2.970900	3.852600	-11.444000	21.220288	0.000953	20.827292
43.013436	-3.016000	3.850200	-11.611000	21.253349	0.000953	20.819588
44.014465	-3.010600	3.850400	-11.592000	21.244091	0.000952	20.820284
45.015229	-3.010400	3.849600	-11.587000	21.248524	0.000954	20.818080
46.017898	-3.008900	3.848800	-11.579000	21.270376	0.000953	20.802957
47.015537	-2.977500	3.850200	-11.463000	21.250820	0.000952	20.814687
48.015337	-2.990000	3.848100	-11.505000	21.264392	0.000952	20.821627
49.014132	-3.026300	3.845700	-11.637000	21.265611	0.000952	20.832803
50.015924	-3.000400	3.846000	-11.537000	21.279677	0.000950	20.830279
51.013273	-3.029000	3.846100	-11.648000	21.309160	0.000952	20.828007
52.015056	-3.004200	3.845500	-11.552000	21.293372	0.000950	20.819324
53.019276	-2.999900	3.846800	-11.538000	21.308064	0.000953	20.823592
54.014821	-3.014400	3.846400	-11.594000	21.326696	0.000952	20.814257
55.015557	-3.012900	3.844300	-11.580000	21.335252	0.000952	20.819971
56.013790	-2.999800	3.845800	-11.535000	21.330063	0.000951	20.832798
57.016846	-3.008300	3.845200	-11.567000	21.358641	0.000951	20.837208
58.012544	-3.009800	3.844800	-11.571000	21.350215	0.000950	20.808389
59.013144	-3.010900	3.843100	-11.570000	21.354984	0.000951	20.812212
60.012259	-2.999600	3.842700	-11.525000	21.371270	0.000951	20.810962
61.012993	-2.994900	3.843400	-11.510000	21.380348	0.000951	20.819097
62.013221	-3.008000	3.843600	-11.561000	21.374963	0.000951	20.820821
63.014827	-2.995200	3.843600	-11.511000	21.388134	0.000950	20.831153
64.021142	-2.994700	3.841800	-11.504000	21.399833	0.000950	20.825790
65.015621	-3.004100	3.841700	-11.539000	21.412703	0.000951	20.824441
66.016014	-3.022300	3.841000	-11.607000	21.435806	0.000953	20.811996
67.018524	-2.997800	3.841000	-11.511000	21.444336	0.000950	20.824798
68.021877	-3.006000	3.841800	-11.546000	21.397568	0.000950	20.820204
69.018225	-3.021400	3.839400	-11.600000	21.465685	0.000951	20.811072
70.018932	-3.004400	3.839600	-11.535000	21.455216	0.000950	20.802968
71.019936	-2.991600	3.839400	-11.485000	21.450877	0.000952	20.803368
72.018761	-2.970600	3.840500	-11.407000	21.478209	0.000952	20.786619
73.020945	-2.977000	3.840900	-11.434000	21.437411	0.000950	20.805541
74.022172	-3.006700	3.839100	-11.542000	21.476897	0.000949	20.809488
75.023217	-3.005400	3.837800	-11.533000	21.470939	0.000951	20.801630
76.018783	-2.989200	3.839500	-11.475000	21.489519	0.000950	20.800781
77.024844	-2.988300	3.838800	-11.470000	21.468520	0.000951	20.805374
78.021641	-2.999100	3.838400	-11.511000	21.498035	0.000952	20.803138
79.025015	-2.996100	3.838400	-11.500000	21.496786	0.000950	20.776283
80.025650	-2.998900	3.836600	-11.504000	21.516595	0.000951	20.813174
81.022633	-2.996900	3.836700	-11.498000	21.521777	0.000953	20.810773
82.022020	-3.000500	3.837400	-11.514000	21.524226	0.000952	20.808956
83.022626	-2.985300	3.837600	-11.455000	21.527948	0.000952	20.815526
84.023194	-2.994000	3.837100	-11.487000	21.522736	0.000952	20.800827
85.022168	-2.986600	3.835900	-11.454000	21.549751	0.000952	20.794195
86.026311	-3.027600	3.834300	-11.607000	21.544785	0.000953	20.801554
87.026509	-3.012400	3.834900	-11.551000	21.553018	0.000951	20.799361
88.023100	-2.989800	3.834100	-11.462000	21.580476	0.000954	20.803604
89.028248	-2.978700	3.835900	-11.422000	21.590630	0.000952	20.806177
90.026136	-2.997800	3.834000	-11.493000	21.604549	0.000954	20.785967
91.025615	-3.001300	3.833200	-11.503000	21.588937	0.000953	20.777457
92.026641	-2.996600	3.832900	-11.485000	21.613581	0.000955	20.788842
93.024559	-3.002500	3.833800	-11.511000	21.621809	0.000953	20.785695
94.025891	-2.988900	3.833700	-11.458000	21.632928	0.000952	20.790659
95.024878	-2.997700	3.833000	-11.489000	21.621894	0.000954	20.796686
96.028843	-2.988300	3.833800	-11.455000	21.610996	0.000954	20.790522
97.027326	-2.996900	3.832900	-11.486000	21.620743	0.000953	20.777043
98.024349	-2.983000	3.834100	-11.436000	21.622496	0.000954	20.774055
99.025369	-2.992200	3.832900	-11.468000	21.645910	0.000954	20.786107
100.027117	-3.012600	3.831400	-11.540000	21.638206	0.000954	20.776026
101.026722	-3.026100	3.829500	-11.588000	21.633547	0.000955	20.792701
102.026905	-2.990800	3.831800	-11.459000	21.675568	0.000955	20.788760
103.028624	-3.011600	3.829800	-11.533000	21.682034	0.000956	20.780532
104.026317	-2.993300	3.830700	-11.465000	21.705342	0.000955	20.776358
105.026934	-3.019000	3.829900	-11.562000	21.708511	0.000956	20.770046
106.029156	-3.003500	3.829100	-11.500000	21.708122	0.000956	20.781985
107.027936	-3.013500	3.829800	-11.540000	21.721443	0.000956	20.781565
108.029880	-3.010500	3.830500	-11.531000	21.737102	0.000958	20.765943
109.030500	-2.993800	3.829600	-11.464000	21.754557	0.000957	20.777249
110.026341	-2.984300	3.829400	-11.428000	21.774480	0.000955	20.777748
111.027090	-2.998200	3.829100	-11.479000	21.755825	0.000958	20.790846
112.027964	-3.003700	3.828800	-11.499000	21.773888	0.000956	20.779526
113.026187	-3.006000	3.828100	-11.506000	21.762973	0.000956	20.795154
114.027455	-3.001000	3.827200	-11.484000	21.772325	0.000957	20.774642
115.028871	-3.009300	3.829400	-11.522000	21.789804	0.000958	20.775541
116.027909	-2.998700	3.827600	-11.476000	21.794917	0.000958	20.763589
117.030700	-2.975500	3.828100	-11.389000	21.805468	0.000958	20.771778
118.032620	-2.979500	3.827700	-11.403000	21.808217	0.000957	20.774056
119.032152	-2.994300	3.827500	-11.460000	21.848558	0.000959	20.782665
120.033811	-2.984600	3.825700	-11.417000	21.845746	0.000959	20.757090
121.032644	-3.013500	3.825200	-11.525000	21.854974	0.000962	20.770594
122.031932	-3.004300	3.825400	-11.491000	21.855946	0.000963	20.771567
123.034021	-3.007600	3.825800	-11.505000	21.854906	0.000957	20.758198
124.032278	-3.019100	3.824500	-11.545000	21.868989	0.000960	20.772768
125.033576	-2.996200	3.826600	-11.464000	21.864632	0.000960	20.760347
126.034769	-2.990700	3.824600	-11.436000	21.876560	0.000960	20.774657
127.038311	-2.997600	3.825200	-11.466000	21.884287	0.000959	20.767218
128.036093	-3.012300	3.823700	-11.518000	21.874739	0.000960	20.756712
129.039946	-2.969700	3.824700	-11.355000	21.873151	0.000962	20.774564
130.038574	-2.997600	3.823500	-11.458000	21.883357	0.000961	20.762493
131.041391	-2.990700	3.823600	-11.435000	21.911078	0.000962	20.785500
132.041215	-3.002500	3.824300	-11.479000	21.892239	0.000963	20.764746
133.036921	-2.983700	3.824200	-11.410000	21.899548	0.000964	20.766372
134.044007	-3.011600	3.822900	-11.512000	21.908934	0.000964	20.744473
135.041595	-3.015000	3.819900	-11.515000	21.918304	0.000963	20.772818
136.039078	-2.977000	3.822800	-11.378000	21.892508	0.000965	20.741307
137.043587	-2.983100	3.823300	-11.405000	21.915443	0.000965	20.750513
138.042376	-2.979800	3.824000	-11.393000	21.930963	0.000964	20.760359
139.043370	-2.980400	3.823100	-11.393000	21.928323	0.000966	20.731637
140.045069	-2.993900	3.822900	-11.444000	21.922965	0.000965	20.768001
141.043437	-2.984400	3.823300	-11.409000	21.948968	0.000965	20.764158
142.042949	-3.013200	3.820900	-11.512000	21.924392	0.000966	20.745720
143.044405	-3.004500	3.820800	-11.480000	21.950228	0.000967	20.771583
144.045473	-2.994300	3.820500	-11.438000	21.950351	0.000965	20.748947
145.041914	-2.998200	3.821300	-11.456000	21.960882	0.000965	20.757117
146.043127	-2.995900	3.819900	-11.443000	21.963379	0.000966	20.761040
147.047432	-2.994900	3.820400	-11.441000	21.988281	0.000966	20.757518
148.045600	-2.993600	3.820500	-11.434000	21.973406	0.000966	20.750688
149.042367	-2.977000	3.821300	-11.375000	22.012074	0.000967	20.736290
150.044258	-2.993000	3.819200	-11.430000	22.008093	0.000968	20.760281
151.045747	-2.998200	3.819000	-11.449000	22.006702	0.000968	20.752725
152.045761	-2.996300	3.820200	-11.445000	22.027918	0.000971	20.748358
153.046190	-3.001400	3.819600	-11.463000	22.027721	0.000971	20.758119
154.045283	-2.991300	3.820000	-11.425000	22.023513	0.000972	20.758648
155.049996	-3.009500	3.818100	-11.489000	22.033164	0.000969	20.734643
156.045752	-3.002500	3.817900	-11.462000	22.059669	0.000968	20.753117
157.048329	-3.013800	3.818900	-11.508000	22.057055	0.000971	20.762828
158.047795	-3.009400	3.816200	-11.484000	22.060967	0.000971	20.753468
159.049510	-2.987400	3.818900	-11.407000	22.083707	0.000972	20.723126
160.053127	-3.003200	3.817600	-11.464000	22.085563	0.000971	20.724985
161.052427	-3.008100	3.817600	-11.482000	22.070081	0.000971	20.739359
162.049898	-2.987000	3.817500	-11.402000	22.069515	0.000973	20.733101
163.054233	-3.001000	3.816700	-11.452000	22.105122	0.000974	20.745990
164.050545	-3.009800	3.814400	-11.480000	22.105546	0.000975	20.728396
165.051835	-2.995100	3.816600	-11.431000	22.129706	0.000973	20.729824
166.050778	-2.996800	3.815700	-11.434000	22.132228	0.000975	20.734245
167.048615	-2.984700	3.817000	-11.392000	22.151024	0.000975	20.724614
168.049690	-2.988900	3.814900	-11.401000	22.147320	0.000975	20.713319
169.050470	-2.997300	3.814800	-11.433000	22.178731	0.000975	20.740501
170.053531	-2.984000	3.816400	-11.387000	22.180182	0.000976	20.725832
171.052142	-2.991800	3.813600	-11.408000	22.161460	0.000976	20.744072
172.050630	-2.985000	3.814300	-11.385000	22.191080	0.000979	20.732002
173.052091	-2.993700	3.814600	-11.419000	22.186504	0.000978	20.715091
174.052799	-2.993100	3.814700	-11.417000	22.188226	0.000977	20.714918
175.051020	-2.981700	3.814300	-11.372000	22.209413	0.000979	20.730443
176.052181	-3.004400	3.812900	-11.453000	22.203367	0.000980	20.722492
177.050814	-3.005600	3.812100	-11.457000	22.210427	0.000979	20.738096
178.051596	-3.007200	3.811800	-11.462000	22.225655	0.000981	20.726316
179.058449	-3.008600	3.810700	-11.464000	22.211134	0.000981	20.718414
180.057481	-3.002700	3.811700	-11.444000	22.229326	0.000980	20.740424
181.057702	-3.008900	3.811500	-11.468000	22.210173	0.000979	20.715082
182.051731	-3.003100	3.811400	-11.445000	22.245316	0.000982	20.713758
183.055283	-3.010000	3.810900	-11.468000	22.250709	0.000984	20.720581
184.055168	-3.014200	3.810000	-11.483000	22.223765	0.000982	20.723949
185.052971	-2.991100	3.811000	-11.398000	22.227879	0.000985	20.728543
186.060833	-2.995500	3.810500	-11.414000	22.244140	0.000983	20.716374
187.054768	-3.003000	3.810600	-11.442000	22.260197	0.000984	20.721072
188.051909	-2.994200	3.809400	-11.405000	22.292847	0.000984	20.721522
189.055869	-3.001200	3.809700	-11.432000	22.274803	0.000985	20.702505
190.060112	-3.005000	3.810000	-11.448000	22.305841	0.000986	20.730740
191.057357	-3.000800	3.809600	-11.430000	22.292859	0.000986	20.712050
192.054343	-3.004600	3.808500	-11.442000	22.310305	0.000986	20.728572
193.056288	-3.005100	3.808800	-11.445000	22.297299	0.000988	20.704641
194.055392	-3.004700	3.809000	-11.444000	22.291321	0.000985	20.716200
195.055527	-2.993800	3.808700	-11.401000	22.281930	0.000990	20.711064
196.060157	-3.009000	3.808000	-11.457000	22.287839	0.000988	20.715085
197.056180	-3.002000	3.806800	-11.427000	22.304493	0.000987	20.706629
198.056656	-3.018900	3.806300	-11.490000	22.312746	0.000988	20.709677
199.057186	-2.984900	3.808100	-11.366000	22.331963	0.000990	20.711377
200.058278	-3.021100	3.807400	-11.500000	22.356143	0.000991	20.703346
201.064161	-2.997500	3.808800	-11.416000	22.364647	0.000990	20.711863
202.066343	-3.018000	3.805100	-11.483000	22.358196	0.000990	20.717257
203.061362	-3.000700	3.806800	-11.422000	22.362162	0.000990	20.707478
204.062483	-3.011400	3.806600	-11.462000	22.351795	0.000992	20.725072
205.058443	-2.994900	3.807400	-11.402000	22.350484	0.000993	20.686299
206.058845	-2.988700	3.806300	-11.375000	22.336353	0.000994	20.697279
207.058964	-2.983200	3.806500	-11.355000	22.337730	0.000994	20.715729
208.059484	-2.981500	3.805200	-11.343000	22.343166	0.000994	20.713112
209.058846	-3.002700	3.805200	-11.425000	22.362457	0.000995	20.711566
210.060460	-3.018500	3.803800	-11.481000	22.379958	0.000995	20.701589
211.063444	-2.989500	3.804100	-11.370000	22.401966	0.000995	20.707981
212.060487	-2.998400	3.803100	-11.402000	22.419066	0.000995	20.709459
213.060172	-3.003800	3.802800	-11.422000	22.430153	0.000998	20.712976
214.060862	-2.990500	3.804800	-11.377000	22.453009	0.000997	20.687498
215.060463	-3.000700	3.804200	-11.413000	22.471001	0.001000	20.695560
216.060993	-2.983300	3.804500	-11.348000	22.470656	0.000999	20.686679
217.061780	-3.009400	3.803400	-11.445000	22.482868	0.000999	20.706497
218.062538	-3.005600	3.803100	-11.429000	22.501308	0.000999	20.709791
219.061157	-3.003800	3.802200	-11.420000	22.466696	0.001001	20.699784
220.065660	-3.009100	3.801900	-11.439000	22.474874	0.001002	20.694697
221.066713	-2.992400	3.802100	-11.375000	22.504953	0.001001	20.692104
222.064322	-3.030100	3.801500	-11.518000	22.507493	0.001000	20.703183
223.062726	-3.018800	3.801500	-11.474000	22.519310	0.001002	20.718338
224.065337	-2.987100	3.801800	-11.355000	22.526738	0.001004	20.696378
225.064674	-3.009100	3.801700	-11.438000	22.529105	0.001002	20.699697
226.067802	-3.006700	3.800900	-11.426000	22.529879	0.001004	20.709957
227.064486	-3.024200	3.801200	-11.495000	22.563591	0.001003	20.708159
228.066535	-2.987200	3.800700	-11.353000	22.570145	0.001003	20.686746
229.064047	-2.998100	3.799100	-11.389000	22.585571	0.001004	20.687023
230.063774	-3.008500	3.800300	-11.432000	22.583819	0.001006	20.713720
231.065733	-2.988800	3.800900	-11.359000	22.606272	0.001005	20.692110
232.067216	-3.003800	3.799100	-11.411000	22.600696	0.001004	20.692215
233.065588	-3.005400	3.798100	-11.413000	22.607551	0.001008	20.710462
234.067848	-2.988200	3.800200	-11.355000	22.613183	0.001009	20.704722
235.066977	-2.994400	3.798600	-11.373000	22.628282	0.001007	20.702302
236.068723	-2.974500	3.800800	-11.305000	22.651306	0.001008	20.695965
237.068924	-2.992500	3.798700	-11.367000	22.646197	0.001009	20.708867
238.066433	-2.985100	3.798300	-11.335000	22.655985	0.001008	20.701600
239.066208	-3.016200	3.796700	-11.450000	22.658456	0.001008	20.693169
240.066005	-3.005100	3.797600	-11.411000	22.652775	0.001008	20.718775
241.071833	-3.000300	3.797500	-11.393000	22.680735	0.001010	20.703632
242.066889	-2.990400	3.797500	-11.354000	22.688610	0.001009	20.708201
243.069751	-2.995800	3.797100	-11.374000	22.686194	0.001010	20.720006
244.071775	-2.999200	3.797800	-11.389000	22.697008	0.001011	20.719458
245.068241	-3.011100	3.795300	-11.426000	22.693848	0.001014	20.691161
246.067871	-3.008800	3.795800	-11.419000	22.720706	0.001011	20.714273
247.070221	-3.010400	3.795500	-11.425000	22.700573	0.001011	20.712598
248.069847	-3.005000	3.796100	-11.406000	22.715530	0.001013	20.727581
249.068908	-3.023900	3.794100	-11.473000	22.710501	0.001014	20.702627
250.067129	-3.002600	3.794700	-11.393000	22.745056	0.001016	20.699782
251.073363	-3.005200	3.794900	-11.403000	22.730511	0.001016	20.713189
252.070458	-3.002400	3.795800	-11.395000	22.707341	0.001016	20.715584
253.073040	-3.010600	3.795000	-11.424000	22.729620	0.001016	20.701863
254.069220	-2.991800	3.796000	-11.355000	22.727154	0.001015	20.699868
255.072452	-3.004000	3.794100	-11.397000	22.766571	0.001016	20.715645
256.070702	-2.990500	3.793200	-11.342000	22.767351	0.001017	20.705995
257.072604	-3.016500	3.792700	-11.438000	22.762077	0.001019	20.710195
258.072138	-3.012400	3.793400	-11.425000	22.788055	0.001018	20.697810
259.067873	-3.005400	3.792100	-11.395000	22.799568	0.001020	20.695593
260.075470	-3.031000	3.791700	-11.489000	22.792419	0.001019	20.721624
261.069801	-3.007500	3.792300	-11.404000	22.786217	0.001018	20.730585
262.069970	-3.009700	3.791200	-11.409000	22.782436	0.001020	20.706881
263.070501	-3.022200	3.790400	-11.453000	22.793519	0.001022	20.714191
264.076807	-3.001900	3.791600	-11.381000	22.814677	0.001023	20.723533
265.073025	-2.980800	3.793700	-11.305000	22.847858	0.001023	20.715521
266.072166	-2.980700	3.792200	-11.302000	22.877952	0.001025	20.696356
267.071945	-3.024400	3.788800	-11.457000	22.861412	0.001024	20.711081
268.073333	-2.996200	3.789900	-11.355000	22.869335	0.001023	20.720916
269.073793	-2.975900	3.791700	-11.283000	22.846192	0.001025	20.714326
270.085725	-2.993600	3.790500	-11.346000	22.812870	0.001027	20.724567
271.072255	-3.002700	3.790300	-11.380000	22.801904	0.001025	20.716900
272.075163	-3.002200	3.789400	-11.376000	22.783094	0.001026	20.725559
273.077646	-3.006700	3.789300	-11.392000	22.797527	0.001028	20.713464
274.076518	-2.994200	3.788200	-11.342000	22.829411	0.001028	20.718852
275.077019	-3.019400	3.787800	-11.433000	22.819220	0.001027	20.696313
276.075291	-3.010000	3.788500	-11.401000	22.846198	0.001028	20.715281
277.077420	-3.026400	3.786900	-11.459000	22.850507	0.001029	20.712011
278.075792	-3.000500	3.788900	-11.368000	22.868074	0.001029	20.731033
279.078551	-3.034300	3.785900	-11.487000	22.873409	0.001030	20.724998
280.077469	-3.002800	3.787000	-11.371000	22.901309	0.001030	20.715016
281.076680	-3.021800	3.786400	-11.440000	22.924247	0.001032	20.716186
282.075743	-3.004200	3.786800	-11.375000	22.918771	0.001031	20.716389
283.078652	-3.011700	3.785800	-11.400000	22.950135	0.001030	20.716044
284.077740	-3.007800	3.786200	-11.387000	22.924032	0.001031	20.714547
285.077388	-3.003600	3.785600	-11.369000	22.914646	0.001033	20.722214
286.076820	-3.013200	3.784400	-11.402000	22.913921	0.001032	20.737610
287.083650	-2.994900	3.784800	-11.334000	22.908869	0.001033	20.730177
288.080864	-3.012500	3.783000	-11.396000	22.914695	0.001036	20.739334
289.082372	-2.984600	3.786600	-11.299000	22.936693	0.001035	20.712534
290.078618	-3.006300	3.782900	-11.370000	22.938260	0.001035	20.719794
291.075714	-2.987000	3.786700	-11.310000	22.931039	0.001035	20.718248
292.083379	-3.013700	3.783900	-11.402000	22.940528	0.001036	20.738663
293.080457	-2.991400	3.784000	-11.317000	22.946859	0.001036	20.712761
294.082371	-2.989000	3.784600	-11.311000	22.978192	0.001037	20.718550
295.082769	-2.995200	3.783600	-11.332000	22.994061	0.001037	20.712164
296.078239	-2.989600	3.783200	-11.309000	23.006710	0.001036	20.733847
297.082745	-3.004900	3.782200	-11.364000	22.992592	0.001038	20.716382
298.079928	-3.014900	3.782400	-11.403000	22.998843	0.001039	20.748725
299.079746	-3.013900	3.782300	-11.397000	22.992795	0.001040	20.714689
300.083042	-3.007400	3.781600	-11.371000	23.010692	0.001040	20.745425
301.080329	-2.996700	3.781400	-11.331000	23.009149	0.001040	20.735344
302.086442	-2.993100	3.781400	-11.317000	22.976029	0.001039	20.719702
303.084183	-2.996600	3.781500	-11.331000	22.982230	0.001040	20.746305
304.088602	-2.986100	3.781000	-11.289000	22.987534	0.001043	20.730756
305.082893	-3.000100	3.780200	-11.340000	23.006888	0.001040	20.729284
306.083172	-3.005000	3.781000	-11.360000	23.009401	0.001044	20.726112
307.084283	-3.022000	3.779300	-11.420000	23.055654	0.001041	20.737844
308.087148	-3.011300	3.779100	-11.379000	23.065493	0.001042	20.719726
309.082527	-3.005700	3.779500	-11.359000	23.075769	0.001043	20.723859
310.084545	-3.000000	3.779400	-11.337000	23.070373	0.001045	20.760653
311.081008	-2.988800	3.779800	-11.295000	23.088902	0.001043	20.720896
312.080742	-2.995200	3.777900	-11.314000	23.067706	0.001045	20.730953
313.082912	-2.995400	3.778300	-11.316000	23.075824	0.001043	20.726759
314.087803	-3.006400	3.779000	-11.360000	23.048077	0.001046	20.726457
315.084226	-2.997200	3.777400	-11.320000	23.060036	0.001044	20.710464
316.083342	-3.007700	3.776500	-11.358000	23.069495	0.001045	20.743177
317.080161	-2.996800	3.777600	-11.320000	23.088128	0.001046	20.762322
318.087245	-3.002500	3.776700	-11.338000	23.072487	0.001045	20.756133
319.091698	-3.014400	3.776600	-11.383000	23.064197	0.001047	20.750197
320.083112	-3.019300	3.776500	-11.401000	23.086438	0.001047	20.733127
321.087281	-3.006400	3.776800	-11.354000	23.100480	0.001047	20.753362
322.082845	-2.975800	3.777200	-11.239000	23.104935	0.001046	20.741231
323.083336	-3.011000	3.775400	-11.366000	23.116992	0.001048	20.754735
324.093592	-3.002900	3.776700	-11.340000	23.112611	0.001047	20.738490
325.084603	-2.999100	3.775500	-11.322000	23.114006	0.001048	20.758855
326.087300	-2.987000	3.775100	-11.275000	23.160617	0.001049	20.742500
327.085679	-2.996800	3.775100	-11.312000	23.155818	0.001052	20.763295
328.091593	-3.006000	3.773600	-11.342000	23.200516	0.001050	20.725583
329.092723	-3.011000	3.773000	-11.359000	23.178954	0.001050	20.742857
330.086985	-2.990800	3.774300	-11.287000	23.187016	0.001051	20.769903
331.084889	-2.992100	3.774100	-11.290000	23.214183	0.001052	20.749711
332.086973	-3.008500	3.773400	-11.351000	23.181664	0.001050	20.747943
333.088068	-2.995500	3.772700	-11.300000	23.173215	0.001051	20.772194
334.089337	-3.003800	3.773100	-11.333000	23.195005	0.001053	20.748510
335.088974	-2.990700	3.773100	-11.283000	23.194181	0.001054	20.764755
336.090158	-2.989000	3.772500	-11.275000	23.213304	0.001055	20.757365
337.086565	-3.002400	3.772000	-11.324000	23.266418	0.001056	20.767920
338.089538	-2.998000	3.771700	-11.307000	23.263475	0.001054	20.767816
339.091618	-3.003600	3.771000	-11.326000	23.278412	0.001055	20.752439
340.088973	-3.004100	3.769600	-11.324000	23.292029	0.001056	20.788371
341.092413	-3.014000	3.770200	-11.361000	23.321011	0.001056	20.773321
342.093156	-2.996400	3.770100	-11.295000	23.333435	0.001057	20.750684
343.091791	-3.021300	3.768800	-11.386000	23.322025	0.001057	20.757268
344.093242	-3.002800	3.769300	-11.318000	23.334768	0.001058	20.770514
345.097620	-3.003600	3.767900	-11.316000	23.327715	0.001056	20.744952
346.098377	-2.997700	3.768400	-11.295000	23.351413	0.001058	20.771549
347.097650	-2.966000	3.769100	-11.176000	23.360918	0.001059	20.781075
348.094331	-3.013700	3.767100	-11.351000	23.345331	0.001058	20.792954
349.097905	-3.005100	3.767300	-11.320000	23.359720	0.001061	20.779875
350.096832	-3.015400	3.768100	-11.361000	23.352016	0.001059	20.768360
351.092996	-3.009600	3.766200	-11.334000	23.364482	0.001060	20.767104
352.098868	-3.007600	3.766500	-11.327000	23.385322	0.001060	20.790836
353.096140	-3.003600	3.766300	-11.311000	23.388456	0.001062	20.765527
354.091426	-2.990700	3.766800	-11.264000	23.375849	0.001060	20.779445
355.098030	-2.984600	3.766600	-11.240000	23.409677	0.001062	20.764986
356.093342	-2.996200	3.767000	-11.285000	23.387658	0.001061	20.788436
357.095354	-2.990600	3.765400	-11.260000	23.370621	0.001062	20.779895
358.097545	-2.970800	3.766500	-11.189000	23.373583	0.001061	20.780967
359.095292	-2.990500	3.765700	-11.260000	23.365455	0.001062	20.773769
360.096413	-3.017200	3.764700	-11.357000	23.346403	0.001062	20.783597
361.107276	-3.006300	3.764200	-11.315000	23.374328	0.001063	20.785981
362.097577	-2.996500	3.764300	-11.278000	23.367330	0.001065	20.807890
363.104737	-2.981000	3.765600	-11.224000	23.401508	0.001066	20.772446
364.100388	-3.002800	3.763100	-11.298000	23.390868	0.001062	20.788334
365.096462	-2.994300	3.763500	-11.268000	23.424572	0.001066	20.805046
366.103616	-3.013100	3.762900	-11.337000	23.436694	0.001064	20.790169
367.105065	-2.996200	3.762400	-11.272000	23.468308	0.001065	20.780132
368.101126	-3.017300	3.761800	-11.349000	23.469967	0.001066	20.799339
369.099673	-3.010100	3.761100	-11.319000	23.465010	0.001064	20.794844
370.098885	-3.016800	3.760300	-11.343000	23.478538	0.001067	20.794654
371.098501	-2.989000	3.763700	-11.249000	23.504328	0.001066	20.794900
372.101388	-3.008900	3.761400	-11.317000	23.488890	0.001064	20.797444
373.104756	-2.999200	3.760600	-11.278000	23.476334	0.001067	20.809514
374.101185	-2.992500	3.762400	-11.258000	23.475456	0.001066	20.815746
375.101991	-2.985800	3.760400	-11.227000	23.492676	0.001067	20.823523
376.100378	-3.001000	3.760300	-11.284000	23.474695	0.001067	20.818302
377.103796	-3.017100	3.760100	-11.344000	23.510959	0.001067	20.824780
378.100703	-3.033800	3.758200	-11.400000	23.510308	0.001068	20.809429
379.103780	-2.999200	3.759000	-11.273000	23.499428	0.001070	20.817964
380.105125	-3.003900	3.758900	-11.290000	23.514056	0.001067	20.815557
381.101893	-2.997500	3.759600	-11.268000	23.528812	0.001068	20.810909
382.101738	-2.996700	3.758800	-11.263000	23.538942	0.001068	20.796407
383.099896	-2.985200	3.757500	-11.216000	23.551338	0.001069	20.812627
384.099934	-3.004800	3.757300	-11.289000	23.567188	0.001072	20.807178
385.106340	-3.015600	3.757600	-11.330000	23.545055	0.001070	20.805854
386.102041	-2.992700	3.756100	-11.240000	23.559786	0.001070	20.834845
387.099992	-2.982200	3.757400	-11.204000	23.576538	0.001070	20.813232
388.107417	-2.989600	3.757500	-11.232000	23.582859	0.001070	20.830947
389.103886	-3.001500	3.756100	-11.273000	23.623529	0.001070	20.826674
390.105340	-3.003200	3.755900	-11.278000	23.619346	0.001071	20.813472
391.103956	-3.006900	3.755000	-11.289000	23.623321	0.001071	20.810819
392.103061	-3.004100	3.755300	-11.279000	23.612817	0.001074	20.831583
393.103014	-3.009000	3.754200	-11.295000	23.603978	0.001073	20.832205
394.109608	-2.989000	3.756000	-11.226000	23.581791	0.001074	20.816602
395.106097	-3.031800	3.754100	-11.380000	23.565157	0.001072	20.822212
396.102878	-3.011700	3.754200	-11.306000	23.568714	0.001073	20.820087
397.110844	-3.006300	3.753000	-11.281000	23.567467	0.001073	20.822157
398.105345	-3.005600	3.752200	-11.276000	23.586701	0.001073	20.826264
399.108391	-3.012600	3.752100	-11.301000	23.591609	0.001075	20.819805
400.106234	-2.997200	3.754000	-11.251000	23.635117	0.001075	20.831653
401.108694	-2.998100	3.751500	-11.245000	23.639324	0.001075	20.800310
402.110802	-2.992100	3.752700	-11.227000	23.658833	0.001076	20.822238
403.109493	-3.014400	3.750400	-11.303000	23.658453	0.001075	20.826124
404.108267	-3.011300	3.750700	-11.294000	23.654565	0.001076	20.828390
405.108257	-3.025800	3.750500	-11.347000	23.661137	0.001075	20.825496
406.108037	-3.015600	3.749200	-11.305000	23.658023	0.001076	20.829487
407.107996	-3.009700	3.750500	-11.287000	23.671058	0.001076	20.836390
408.111288	-3.016900	3.749800	-11.312000	23.679940	0.001075	20.843872
409.107218	-3.008600	3.749700	-11.281000	23.681255	0.001076	20.841871
410.108387	-2.997300	3.748700	-11.235000	23.681851	0.001076	20.840572
411.111134	-3.005100	3.749000	-11.265000	23.704024	0.001079	20.842414
412.110432	-2.998200	3.749700	-11.241000	23.687662	0.001080	20.855407
413.108818	-3.028400	3.747600	-11.349000	23.728906	0.001077	20.859772
414.112135	-3.001500	3.748100	-11.247000	23.722550	0.001079	20.850555
415.120804	-3.003900	3.747100	-11.255000	23.742842	0.001077	20.846245
416.109552	-3.006300	3.746200	-11.261000	23.747462	0.001077	20.846609
417.113345	-2.984600	3.747200	-11.184000	23.746013	0.001078	20.866966
418.108360	-3.009000	3.744700	-11.267000	23.740731	0.001077	20.831326
419.111933	-2.994700	3.746600	-11.219000	23.739884	0.001078	20.848494
420.111658	-2.982800	3.745800	-11.172000	23.719143	0.001079	20.844295
421.111157	-3.004900	3.745100	-11.252000	23.734050	0.001079	20.855447
422.108916	-3.031300	3.744100	-11.348000	23.718585	0.001079	20.854641
423.114061	-2.994000	3.745000	-11.211000	23.682488	0.001079	20.834099
424.109263	-3.013700	3.743700	-11.281000	23.696756	0.001079	20.857886
425.113315	-2.991900	3.744300	-11.202000	23.698544	0.001078	20.847351
426.110945	-2.993500	3.743900	-11.207000	23.689528	0.001078	20.854432
427.115128	-3.000000	3.743500	-11.230000	23.706302	0.001078	20.878360
428.114815	-2.999600	3.743700	-11.229000	23.734003	0.001080	20.854925
429.110941	-2.994600	3.743400	-11.209000	23.764939	0.001078	20.876458
430.122504	-2.988900	3.743800	-11.188000	23.784230	0.001078	20.852179
431.112420	-2.992500	3.741900	-11.197000	23.800800	0.001078	20.862629
432.113827	-2.993700	3.742000	-11.201000	23.840277	0.001080	20.867124
433.113656	-2.971200	3.743100	-11.119000	23.827755	0.001079	20.881594
434.116162	-2.999100	3.741800	-11.221000	23.825385	0.001079	20.861675
435.122662	-3.015300	3.740600	-11.277000	23.826957	0.001078	20.859458
436.114910	-3.021900	3.739500	-11.299000	23.811272	0.001079	20.863646
437.110788	-2.985700	3.740900	-11.168000	23.811100	0.001081	20.876274
438.116460	-2.976600	3.742200	-11.137000	23.780908	0.001080	20.851694
439.120533	-3.009200	3.740400	-11.255000	23.805469	0.001081	20.871577
440.111316	-3.001800	3.740700	-11.227000	23.825207	0.001080	20.880936
441.118978	-2.997300	3.740500	-11.211000	23.826577	0.001081	20.866189
442.112454	-3.000600	3.739600	-11.221000	23.871076	0.001082	20.879514
443.120033	-2.977500	3.740100	-11.135000	23.857615	0.001081	20.866965
444.122700	-3.023300	3.737400	-11.298000	23.902764	0.001082	20.886157
445.122325	-2.999800	3.738000	-11.212000	23.903704	0.001082	20.866238
446.122885	-3.001300	3.739900	-11.222000	23.889745	0.001081	20.882586
447.124491	-3.011600	3.738300	-11.258000	23.869786	0.001081	20.878220
448.118962	-3.000300	3.738500	-11.215000	23.879022	0.001082	20.884162
449.114821	-2.992100	3.735500	-11.176000	23.872703	0.001081	20.872136
450.121797	-3.009700	3.736500	-11.244000	23.877708	0.001083	20.882370
451.121542	-3.016400	3.734700	-11.264000	23.866979	0.001085	20.882992
452.122089	-2.995400	3.736700	-11.191000	23.866058	0.001082	20.881594
453.120010	-2.992500	3.736300	-11.179000	23.846443	0.001083	20.872832
454.118253	-2.996600	3.735100	-11.192000	23.858019	0.001082	20.893921
455.121141	-3.000800	3.734900	-11.206000	23.852222	0.001084	20.885738
456.119891	-3.011800	3.733400	-11.244000	23.864670	0.001083	20.866926
457.117931	-3.002000	3.734700	-11.210000	23.865807	0.001084	20.886557
458.122607	-3.000000	3.734000	-11.201000	23.886471	0.001083	20.892578
459.118286	-2.983600	3.733900	-11.139000	23.904089	0.001082	20.901236
460.117082	-2.982500	3.733500	-11.134000	23.903144	0.001084	20.903132
461.120807	-3.003300	3.732300	-11.210000	23.944981	0.001085	20.883447
462.118280	-2.999100	3.733500	-11.195000	23.949857	0.001085	20.878854
463.126430	-3.016900	3.731200	-11.255000	23.974345	0.001085	20.872591
464.120413	-3.040200	3.731300	-11.342000	23.971386	0.001081	20.895226
465.125095	-3.018200	3.730800	-11.259000	24.015185	0.001083	20.897898
466.120693	-3.007900	3.731100	-11.220000	23.995825	0.001084	20.878958
467.122624	-2.981400	3.732200	-11.126000	24.012422	0.001083	20.896075
468.125133	-3.004100	3.729400	-11.201000	23.996450	0.001082	20.894283
469.123579	-3.000700	3.730500	-11.193000	23.992766	0.001082	20.882055
470.131200	-3.019700	3.729200	-11.260000	23.988191	0.001083	20.900225
471.124143	-3.011600	3.728700	-11.227000	23.999189	0.001084	20.901296
472.126457	-3.005000	3.730000	-11.208000	24.041072	0.001084	20.881660
473.130932	-2.999800	3.730000	-11.188000	24.031916	0.001085	20.898556
474.124841	-3.011400	3.728200	-11.226000	24.020673	0.001085	20.877325
475.122371	-3.031200	3.726800	-11.295000	24.007558	0.001084	20.878870
476.128669	-2.988100	3.728000	-11.139000	24.037817	0.001085	20.873655
477.128084	-2.995600	3.727800	-11.165000	24.041378	0.001083	20.876278
478.130064	-3.001600	3.727900	-11.187000	24.049047	0.001086	20.878279
479.125729	-2.979400	3.728800	-11.108000	24.082117	0.001084	20.879676
480.124918	-2.986900	3.727100	-11.132000	24.082571	0.001084	20.869701
481.131752	-2.999900	3.726600	-11.178000	24.075301	0.001084	20.887539
482.124074	-2.998800	3.725400	-11.170000	24.114246	0.001083	20.860218
483.131101	-2.981200	3.726100	-11.107000	24.099940	0.001085	20.865310
484.128882	-2.986800	3.725200	-11.125000	24.110789	0.001085	20.885673
485.131514	-2.994000	3.725200	-11.152000	24.090239	0.001084	20.888770
486.131479	-2.981300	3.725100	-11.105000	24.120428	0.001083	20.873056
487.132530	-3.021900	3.724800	-11.254000	24.088728	0.001084	20.866867
488.130761	-3.021100	3.723100	-11.246000	24.058200	0.001085	20.885561
489.129842	-3.005300	3.725200	-11.194000	24.042199	0.001085	20.854817
490.134235	-3.008100	3.723800	-11.201000	24.084774	0.001085	20.873807
491.132653	-2.990400	3.724900	-11.137000	24.083509	0.001085	20.857840
492.135237	-2.993000	3.722900	-11.141000	24.084233	0.001086	20.860463
493.129436	-2.992100	3.724900	-11.143000	24.083883	0.001085	20.871965
494.135068	-3.003600	3.722200	-11.179000	24.088788	0.001083	20.883522
495.130049	-3.003300	3.723000	-11.179000	24.097777	0.001086	20.847969
496.131789	-3.009400	3.722000	-11.199000	24.087179	0.001084	20.846823
497.132488	-3.002800	3.721600	-11.175000	24.061311	0.001085	20.854070
498.127413	-2.995600	3.722700	-11.151000	24.097862	0.001086	20.834778
499.129853	-2.978100	3.720500	-11.079000	24.093459	0.001085	20.853121
500.130627	-3.014300	3.720200	-11.211000	24.086466	0.001084	20.849901
501.135773	-3.000100	3.721200	-11.163000	24.073185	0.001084	20.849383
502.135440	-3.002900	3.720000	-11.170000	24.071994	0.001085	20.860990
503.137069	-2.984300	3.719800	-11.100000	24.098543	0.001086	20.852056
504.142270	-2.984600	3.719900	-11.101000	24.074579	0.001085	20.836557
505.133805	-2.988200	3.719100	-11.112000	24.099549	0.001087	20.859702
506.137218	-2.984600	3.718900	-11.098000	24.123605	0.001087	20.856803
507.134011	-2.990100	3.718800	-11.117000	24.151650	0.001086	20.855060
508.138290	-3.018500	3.716800	-11.217000	24.142969	0.001087	20.852991
509.137353	-3.005000	3.717200	-11.170000	24.168994	0.001087	20.855386
510.138227	-3.016300	3.716900	-11.211000	24.157777	0.001086	20.848403
511.137879	-2.998700	3.717500	-11.147000	24.166562	0.001086	20.848680
512.139484	-3.019100	3.716000	-11.218000	24.184379	0.001087	20.846635
513.142548	-3.006500	3.716000	-11.171000	24.179873	0.001086	20.849702
514.136264	-3.025700	3.715200	-11.240000	24.206523	0.001086	20.825699
515.140752	-2.986500	3.716300	-11.097000	24.220926	0.001085	20.853895
516.142638	-2.995700	3.715200	-11.128000	24.223590	0.001084	20.834757
517.147232	-3.040600	3.713200	-11.289000	24.194754	0.001086	20.818636
518.147452	-2.996700	3.715500	-11.132000	24.188210	0.001087	20.834357
519.141512	-3.015600	3.714000	-11.200000	24.200777	0.001085	20.831789
520.144678	-2.996200	3.714000	-11.127000	24.183163	0.001087	20.822183
521.138648	-3.006100	3.713900	-11.164000	24.168503	0.001086	20.834979
522.147754	-3.012100	3.714700	-11.188000	24.174992	0.001084	20.813514
523.144537	-3.005000	3.713300	-11.157000	24.222172	0.001085	20.834283
524.143837	-2.998600	3.713600	-11.135000	24.212521	0.001086	20.816543
525.138196	-2.984400	3.712000	-11.077000	24.183710	0.001085	20.852128
526.143782	-2.984900	3.712800	-11.082000	24.190978	0.001083	20.835711
527.138801	-2.973200	3.711700	-11.034000	24.219366	0.001086	20.827201
528.141914	-2.986100	3.711500	-11.082000	24.203116	0.001084	20.836032
529.141880	-2.989200	3.711200	-11.092000	24.221828	0.001087	20.825403
530.139264	-2.991200	3.711800	-11.101000	24.240461	0.001085	20.833661
531.141844	-2.993400	3.711500	-11.109000	24.222547	0.001087	20.831814
532.140159	-3.016300	3.709400	-11.188000	24.214265	0.001086	20.823507
533.140406	-2.994100	3.710900	-11.110000	24.199419	0.001085	20.831376
534.139718	-2.983100	3.711100	-11.070000	24.220834	0.001085	20.818242
535.141631	-3.011900	3.708400	-11.168000	24.227881	0.001084	20.823888
536.141274	-2.995700	3.709300	-11.112000	24.222902	0.001085	20.839282
537.151067	-3.002200	3.709300	-11.135000	24.279006	0.001084	20.826807
538.141029	-3.013400	3.707800	-11.172000	24.259945	0.001084	20.815274
539.149490	-2.994200	3.708300	-11.102000	24.260749	0.001085	20.826037
540.146090	-3.004300	3.708300	-11.140000	24.287938	0.001083	20.828654
541.150486	-2.988700	3.708200	-11.080000	24.309755	0.001084	20.818297
542.148484	-3.009300	3.705800	-11.151000	24.317023	0.001084	20.809466
543.149157	-3.003800	3.705800	-11.130000	24.343419	0.001085	20.816979
544.158012	-3.002300	3.707200	-11.129000	24.354517	0.001084	20.806301
545.143829	-2.982100	3.706900	-11.053000	24.354861	0.001085	20.819448
546.152163	-3.000900	3.707100	-11.125000	24.329337	0.001087	20.815655
547.147041	-2.988400	3.706200	-11.075000	24.315783	0.001085	20.823395
548.147373	-2.997200	3.705400	-11.105000	24.355149	0.001083	20.813573
549.155041	-3.018800	3.704700	-11.183000	24.350441	0.001084	20.809324
550.150871	-3.006000	3.705000	-11.136000	24.359998	0.001084	20.799946
551.145162	-2.997200	3.703500	-11.100000	24.346469	0.001085	20.808184
552.148690	-3.002200	3.703200	-11.117000	24.372692	0.001082	20.814576
553.147046	-2.993000	3.704200	-11.086000	24.346297	0.001082	20.810383
554.145636	-2.994000	3.701700	-11.082000	24.351999	0.001083	20.816577
555.153796	-3.027900	3.701600	-11.206000	24.374244	0.001085	20.831780
556.147074	-3.011400	3.703000	-11.149000	24.386355	0.001082	20.799360
557.147155	-3.009000	3.703000	-11.142000	24.392087	0.001082	20.815541
558.149832	-3.025800	3.702000	-11.200000	24.403799	0.001081	20.805954
559.151361	-3.001800	3.700800	-11.107000	24.402761	0.001084	20.806810
560.148270	-3.016900	3.700900	-11.164000	24.435447	0.001082	20.800245
561.151358	-2.990400	3.702300	-11.071000	24.441474	0.001083	20.815775
562.152246	-3.009700	3.701100	-11.139000	24.457125	0.001083	20.811088
563.149782	-2.998700	3.700100	-11.095000	24.465706	0.001081	20.813533
564.154243	-2.996900	3.700300	-11.088000	24.467970	0.001084	20.820547
565.168771	-2.994200	3.699900	-11.077000	24.471309	0.001082	20.811568
566.152765	-2.999800	3.700100	-11.099000	24.480540	0.001081	20.803760
567.156724	-3.009000	3.698300	-11.127000	24.476213	0.001082	20.805109
568.156724	-3.010200	3.698600	-11.133000	24.482854	0.001084	20.807030
569.158706	-3.004400	3.698500	-11.110000	24.477710	0.001082	20.811352
570.153594	-2.999000	3.698400	-11.090000	24.439803	0.001082	20.792762
571.151740	-2.992400	3.698400	-11.066000	24.447985	0.001083	20.802393
572.158721	-3.008900	3.698000	-11.125000	24.438980	0.001082	20.808058
573.153030	-2.989900	3.698600	-11.057000	24.432216	0.001083	20.816919
574.158730	-2.996800	3.697100	-11.079000	24.449507	0.001082	20.805816
575.153841	-3.006200	3.697000	-11.113000	24.439281	0.001084	20.805515
576.153194	-3.005200	3.696600	-11.108000	24.440152	0.001084	20.786000
577.155559	-3.001300	3.696400	-11.093000	24.452741	0.001082	20.795311
578.156225	-2.987100	3.696800	-11.042000	24.459923	0.001083	20.787817
579.157508	-2.991100	3.696900	-11.056000	24.463931	0.001082	20.803218
580.159154	-3.013900	3.695200	-11.135000	24.485793	0.001082	20.798125
581.161016	-3.011200	3.694500	-11.124000	24.477759	0.001082	20.801444
582.159482	-3.011000	3.693900	-11.120000	24.482135	0.001081	20.790662
583.160013	-2.992700	3.693300	-11.051000	24.502304	0.001082	20.787189
584.161412	-2.986700	3.695100	-11.034000	24.466036	0.001082	20.793003
585.156730	-2.994700	3.693200	-11.060000	24.455866	0.001080	20.805084
586.159044	-3.009200	3.691500	-11.108000	24.447654	0.001081	20.779775
587.160038	-3.005000	3.692900	-11.095000	24.440258	0.001080	20.788951
588.162840	-2.993800	3.692800	-11.054000	24.427626	0.001080	20.790977
589.160878	-2.992500	3.691400	-11.046000	24.414834	0.001080	20.773403
590.163113	-2.988100	3.691400	-11.029000	24.422918	0.001082	20.783883
591.163626	-3.005100	3.690400	-11.089000	24.426577	0.001079	20.786131
592.160728	-3.020500	3.691900	-11.150000	24.454658	0.001079	20.787276
593.162428	-3.003200	3.689700	-11.077000	24.462637	0.001079	20.789118
594.164816	-3.008600	3.689400	-11.099000	24.465976	0.001079	20.776820
595.166645	-2.971000	3.691200	-10.965000	24.478381	0.001078	20.788792
596.161225	-3.006600	3.689200	-11.090000	24.459826	0.001078	20.781556
597.163913	-3.014400	3.688000	-11.116000	24.453406	0.001079	20.786969
598.166276	-2.998200	3.689000	-11.060000	24.467241	0.001077	20.771451
599.165065	-3.014000	3.686500	-11.110000	24.496266	0.001078	20.776390
600.167470	-3.012200	3.689800	-11.111000	24.516391	0.001077	20.805590
601.169841	-3.006600	3.686500	-11.083000	24.534043	0.001078	20.768773
602.164315	-3.000900	3.688100	-11.065000	24.544046	0.001078	20.764111
603.168702	-2.998100	3.686700	-11.051000	24.533324	0.001078	20.783699
604.167264	-3.021800	3.686600	-11.138000	24.521829	0.001078	20.760312
605.168243	-3.002300	3.685700	-11.064000	24.484224	0.001077	20.772369
606.168731	-3.015000	3.685800	-11.111000	24.438356	0.001078	20.786095
607.170338	-3.024100	3.685600	-11.144000	24.441714	0.001079	20.776187
608.169455	-3.005800	3.685900	-11.078000	24.464479	0.001078	20.778637
609.171578	-3.005200	3.685100	-11.073000	24.487808	0.001076	20.784026
610.168828	-3.002800	3.684600	-11.062000	24.505239	0.001078	20.768323
611.167867	-3.000600	3.685400	-11.057000	24.518079	0.001078	20.752755
612.171559	-3.002100	3.685100	-11.062000	24.532876	0.001077	20.769025
613.166897	-3.000100	3.684400	-11.053000	24.542923	0.001075	20.788589
614.174565	-3.024500	3.683900	-11.141000	24.525094	0.001077	20.758846
615.174977	-2.996900	3.684500	-11.041000	24.504546	0.001077	20.765256
616.166380	-3.005700	3.683700	-11.071000	24.499593	0.001077	20.760287
617.168292	-3.031600	3.682200	-11.160000	24.457892	0.001077	20.773926
618.173082	-2.998100	3.684200	-11.044000	24.469628	0.001076	20.751086
619.171352	-3.020100	3.682200	-11.119000	24.456690	0.001077	20.754227
620.169675	-3.021800	3.681100	-11.122000	24.480247	0.001074	20.762688
621.171921	-3.004500	3.682200	-11.061000	24.503085	0.001075	20.767109
622.174704	-3.009700	3.681400	-11.079000	24.539946	0.001075	20.770903
623.175140	-3.004100	3.680700	-11.056000	24.576181	0.001077	20.760792
624.171131	-3.016700	3.680400	-11.101000	24.576684	0.001076	20.759874
625.175139	-2.994300	3.681100	-11.022000	24.617821	0.001076	20.784081
626.175205	-3.019000	3.678500	-11.105000	24.573302	0.001075	20.776870
627.170865	-3.022900	3.678100	-11.116000	24.577899	0.001074	20.764412
628.177065	-2.997700	3.680300	-11.032000	24.596261	0.001074	20.764344
629.178787	-3.013600	3.680100	-11.090000	24.589369	0.001073	20.764067
630.177625	-3.033400	3.678400	-11.156000	24.572087	0.001072	20.765693
631.178417	-3.006100	3.677400	-11.053000	24.600017	0.001074	20.744878
632.172364	-2.997500	3.678600	-11.025000	24.607995	0.001073	20.765687
633.174677	-3.010800	3.676600	-11.068000	24.623319	0.001074	20.752139
634.175513	-3.011400	3.677200	-11.072000	24.652715	0.001075	20.753186
635.173137	-3.001900	3.678000	-11.039000	24.608799	0.001073	20.757958
636.172434	-3.000900	3.676200	-11.031000	24.574026	0.001072	20.764319
637.176159	-2.983800	3.677300	-10.971000	24.569902	0.001073	20.771087
638.180870	-3.027700	3.675900	-11.127000	24.570123	0.001072	20.761351
639.177061	-3.002700	3.676000	-11.037000	24.592983	0.001071	20.766745
640.173561	-3.006900	3.674600	-11.048000	24.614248	0.001070	20.762004
641.181705	-2.974100	3.676500	-10.932000	24.636605	0.001070	20.749823
642.182425	-2.971400	3.675200	-10.919000	24.678622	0.001070	20.752156
643.176261	-2.988300	3.673800	-10.977000	24.692049	0.001069	20.751879
644.174798	-2.991600	3.674100	-10.990000	24.713509	0.001069	20.739748
645.171566	-2.997500	3.673900	-11.011000	24.723063	0.001071	20.756923
646.180091	-2.965300	3.675200	-10.897000	24.713834	0.001070	20.753825
647.177628	-2.977000	3.674000	-10.936000	24.730524	0.001070	20.749237
648.174271	-2.989000	3.673200	-10.977000	24.732893	0.001072	20.754933
649.177864	-2.998600	3.673300	-11.014000	24.732046	0.001069	20.755506
650.175403	-2.969400	3.673600	-10.907000	24.751817	0.001070	20.749268
651.175335	-2.997800	3.672500	-11.007000	24.751503	0.001071	20.742789
652.177157	-3.022100	3.671600	-11.095000	24.758241	0.001069	20.743860
653.175205	-3.004400	3.671600	-11.030000	24.766470	0.001072	20.750222
654.176436	-3.017900	3.670800	-11.077000	24.780251	0.001070	20.739396
655.173598	-2.996800	3.672200	-11.004000	24.778312	0.001069	20.755468
656.181973	-3.011700	3.670800	-11.054000	24.775900	0.001069	20.751625
657.182776	-3.004700	3.671700	-11.032000	24.734180	0.001069	20.760018
658.174298	-3.027200	3.669500	-11.106000	24.701001	0.001070	20.735257
659.178041	-3.024200	3.669400	-11.096000	24.677700	0.001068	20.745067
660.182560	-3.016500	3.667800	-11.062000	24.684119	0.001068	20.737757
661.180401	-2.996700	3.670400	-10.998000	24.703915	0.001066	20.731543
662.179840	-2.991600	3.669300	-10.975000	24.684512	0.001067	20.730565
663.178021	-3.009700	3.667500	-11.037000	24.653159	0.001066	20.751736
664.174848	-2.994800	3.670400	-10.991000	24.664273	0.001067	20.728748
665.178349	-3.004200	3.668500	-11.019000	24.632221	0.001067	20.735466
666.179243	-2.986800	3.667900	-10.955000	24.649907	0.001066	20.734720
667.177178	-2.997600	3.667900	-10.994000	24.667543	0.001063	20.740564
668.184864	-3.001800	3.667300	-11.008000	24.676521	0.001066	20.711165
669.183055	-3.009000	3.667500	-11.034000	24.679853	0.001066	20.722096
670.184424	-3.011900	3.666500	-11.042000	24.691593	0.001066	20.712064
671.183672	-2.963400	3.667500	-10.865000	24.688463	0.001063	20.745909
672.182933	-3.008500	3.666400	-11.029000	24.687119	0.001066	20.750251
673.182007	-2.973900	3.667100	-10.905000	24.687419	0.001064	20.745811
674.182336	-3.007100	3.667000	-11.026000	24.698367	0.001065	20.727872
675.181223	-2.998800	3.666400	-10.993000	24.725127	0.001065	20.748089
676.187449	-3.001500	3.664700	-10.999000	24.714052	0.001064	20.722274
677.184709	-2.976600	3.665200	-10.908000	24.752734	0.001065	20.730273
678.188208	-3.020500	3.663200	-11.063000	24.760668	0.001064	20.722113
679.182186	-2.993300	3.664900	-10.970000	24.776536	0.001064	20.736616
680.185902	-2.979100	3.664300	-10.914000	24.794840	0.001062	20.725112
681.180080	-2.997700	3.663300	-10.980000	24.779770	0.001062	20.736542
682.193162	-3.005900	3.663800	-11.012000	24.818389	0.001063	20.724090
683.185869	-3.002300	3.662700	-10.996000	24.813247	0.001062	20.724145
684.189870	-2.976400	3.663700	-10.903000	24.776701	0.001062	20.712598
685.182036	-3.009100	3.662500	-11.019000	24.793562	0.001062	20.726201
686.182367	-3.014600	3.660100	-11.032000	24.825758	0.001062	20.721528
687.187253	-2.972000	3.661400	-10.881000	24.826954	0.001061	20.732686
688.188913	-2.998000	3.661100	-10.974000	24.828519	0.001060	20.727144
689.185201	-2.993800	3.661400	-10.960000	24.835434	0.001063	20.723178
690.186433	-2.985300	3.661000	-10.927000	24.820720	0.001061	20.720739
691.187704	-3.029600	3.659100	-11.084000	24.807840	0.001061	20.727254
692.190018	-2.990100	3.660700	-10.945000	24.783045	0.001061	20.716594
693.190174	-2.990100	3.659400	-10.939000	24.774522	0.001061	20.717524
694.186786	-2.997800	3.659100	-10.969000	24.818609	0.001062	20.722888
695.185782	-3.015300	3.659400	-11.032000	24.782008	0.001061	20.730253
696.186416	-2.981700	3.660500	-10.914000	24.793942	0.001062	20.746498
697.186687	-3.001300	3.657800	-10.978000	24.795212	0.001060	20.751566
698.186649	-2.999600	3.658400	-10.973000	24.801183	0.001059	20.726262
699.194051	-2.990600	3.658400	-10.940000	24.796286	0.001058	20.737944
700.197902	-3.005800	3.657300	-10.992000	24.805061	0.001061	20.720196
701.188087	-3.008400	3.656700	-11.000000	24.820879	0.001060	20.734175
702.192853	-3.002400	3.657100	-10.979000	24.827247	0.001062	20.703107
703.188557	-2.999900	3.656100	-10.967000	24.821572	0.001060	20.730130
704.193722	-3.012300	3.655400	-11.010000	24.813816	0.001058	20.729458
705.190096	-3.000800	3.655000	-10.967000	24.797685	0.001061	20.723700
706.189686	-3.004200	3.655800	-10.981000	24.786296	0.001058	20.709899
707.196693	-3.002100	3.654600	-10.970000	24.815442	0.001057	20.710226
708.192809	-2.999300	3.656500	-10.967000	24.828444	0.001055	20.721852
709.200937	-2.992600	3.653500	-10.933000	24.815767	0.001057	20.706284
710.194843	-3.003200	3.653500	-10.970000	24.818657	0.001058	20.720091
711.195213	-2.997200	3.654900	-10.953000	24.825241	0.001056	20.714844
712.191645	-2.991800	3.654400	-10.932000	24.860975	0.001056	20.714197
713.197390	-3.026200	3.652700	-11.053000	24.875429	0.001056	20.730128
714.195686	-2.969000	3.654200	-10.849000	24.840911	0.001057	20.723459
715.196022	-3.002900	3.650900	-10.962000	24.822068	0.001057	20.717824
716.199962	-2.981800	3.653000	-10.892000	24.807372	0.001057	20.704972
717.194125	-3.031200	3.651100	-11.066000	24.797199	0.001056	20.737438
718.195401	-3.008600	3.652300	-10.987000	24.830774	0.001054	20.715656
719.193257	-2.993300	3.652000	-10.931000	24.806532	0.001056	20.711715
720.195634	-2.995300	3.650800	-10.933000	24.769427	0.001055	20.717153
721.196148	-3.013500	3.651300	-11.001000	24.809618	0.001055	20.720977
722.193925	-2.993100	3.651000	-10.927000	24.822540	0.001054	20.720669
723.193273	-2.998000	3.649600	-10.939000	24.836848	0.001054	20.708950
724.199110	-2.999800	3.650200	-10.948000	24.817950	0.001054	20.713692
725.195258	-3.002000	3.650000	-10.956000	24.792511	0.001055	20.718033
726.197836	-3.013700	3.649500	-10.998000	24.799291	0.001054	20.741435
727.209896	-2.992900	3.650700	-10.925000	24.824712	0.001054	20.712417
728.206004	-3.018700	3.647900	-11.010000	24.858311	0.001053	20.726698
729.201016	-3.004100	3.649400	-10.962000	24.864796	0.001052	20.744113
730.210298	-2.997800	3.648200	-10.936000	24.862262	0.001053	20.715964
731.202336	-3.004800	3.648400	-10.962000	24.926064	0.001050	20.704134
732.202108	-2.995600	3.648300	-10.928000	24.935414	0.001053	20.719683
733.204574	-3.026100	3.646100	-11.032000	24.914327	0.001051	20.718433
734.199667	-3.020800	3.646600	-11.014000	24.891829	0.001050	20.713396
735.202422	-2.965800	3.646500	-10.813000	24.893467	0.001052	20.730688
736.205149	-3.000600	3.645200	-10.937000	24.856102	0.001049	20.713100
737.202547	-2.996500	3.645900	-10.924000	24.835456	0.001050	20.729364
738.208313	-2.994000	3.647800	-10.920000	24.841928	0.001049	20.733490
739.201437	-3.005600	3.645900	-10.957000	24.848162	0.001049	20.739747
740.216198	-3.033400	3.644300	-11.052000	24.834615	0.001049	20.729469
741.205628	-3.017300	3.644500	-10.994000	24.854004	0.001048	20.729013
742.205093	-2.995200	3.644200	-10.914000	24.894265	0.001048	20.719160
743.209244	-3.014600	3.644300	-10.985000	24.915395	0.001047	20.719505
744.209168	-2.998000	3.644300	-10.924000	24.930935	0.001049	20.720878
745.206784	-3.000500	3.642700	-10.929000	24.913849	0.001049	20.733601
746.210107	-2.982600	3.644400	-10.868000	24.917573	0.001046	20.725485
747.214760	-3.003700	3.643400	-10.943000	24.899346	0.001048	20.730424
748.203745	-2.985200	3.643100	-10.874000	24.911855	0.001047	20.729229
749.206458	-3.004400	3.642000	-10.941000	24.937862	0.001047	20.724986
750.214435	-2.987500	3.643100	-10.883000	24.983231	0.001048	20.737334
751.205634	-3.005400	3.641700	-10.944000	24.994869	0.001044	20.737635
752.209062	-2.979100	3.643000	-10.852000	25.003249	0.001043	20.725183
753.210584	-3.001800	3.642100	-10.931000	24.992354	0.001045	20.715195
754.207672	-3.000100	3.641000	-10.922000	24.979802	0.001045	20.747168
755.207005	-2.984000	3.640800	-10.862000	24.987035	0.001046	20.719814
756.207903	-3.011000	3.639800	-10.957000	24.999415	0.001044	20.732241
757.205947	-2.968800	3.641100	-10.808000	25.005869	0.001044	20.739668
758.214042	-2.981500	3.640700	-10.853000	25.004630	0.001045	20.748856
759.217104	-3.005900	3.638500	-10.936000	25.011740	0.001042	20.755993
760.214893	-3.003800	3.638900	-10.930000	24.955827	0.001043	20.735905
761.210869	-2.983000	3.640000	-10.857000	24.938072	0.001043	20.735628
762.213652	-3.024200	3.638300	-11.000000	24.959630	0.001043	20.726446
763.209782	-3.006200	3.637800	-10.935000	24.966416	0.001042	20.705281
764.221108	-3.013000	3.638100	-10.960000	24.979146	0.001041	20.736552
765.219297	-2.983200	3.639000	-10.855000	24.984575	0.001042	20.733466
766.213512	-2.994500	3.636900	-10.888000	25.003016	0.001040	20.747236
767.214396	-2.978300	3.638100	-10.834000	24.989189	0.001040	20.738098
768.212538	-2.990300	3.637800	-10.877000	24.981710	0.001042	20.749558
769.212622	-2.994700	3.637500	-10.891000	24.940207	0.001040	20.732556
770.216399	-2.993500	3.637700	-10.888000	24.958593	0.001040	20.718767
771.215689	-2.993100	3.635900	-10.882000	24.934937	0.001038	20.768045
772.215642	-2.986900	3.636000	-10.860000	24.943471	0.001038	20.723029
773.214170	-2.990300	3.636000	-10.871000	24.979526	0.001038	20.754478
774.221659	-2.990200	3.635400	-10.870000	24.995685	0.001040	20.754102
775.216131	-3.010500	3.634300	-10.940000	25.029696	0.001036	20.745567
776.220662	-3.014900	3.634100	-10.955000	25.033199	0.001036	20.745764
777.214532	-2.999700	3.633400	-10.898000	25.014389	0.001039	20.715028
778.221942	-3.010600	3.633200	-10.937000	25.026745	0.001037	20.762046
779.215182	-3.002300	3.633200	-10.906000	25.051780	0.001035	20.753985
780.221150	-3.016500	3.633200	-10.958000	25.059332	0.001036	20.750660
781.219212	-3.016100	3.632700	-10.955000	25.060853	0.001036	20.761670
782.219963	-2.991600	3.631700	-10.863000	25.084599	0.001035	20.749471
783.215352	-2.984200	3.632900	-10.841000	25.111325	0.001035	20.745006
784.220242	-2.996500	3.633200	-10.886000	25.158502	0.001035	20.752064
785.220603	-2.998500	3.631900	-10.889000	25.146596	0.001033	20.738688
786.223005	-2.997200	3.631200	-10.882000	25.182620	0.001033	20.754939
787.221054	-2.957100	3.632900	-10.742000	25.193336	0.001035	20.760007
788.217128	-3.008200	3.630900	-10.922000	25.212503	0.001033	20.747007
789.217340	-2.981100	3.631700	-10.826000	25.222206	0.001035	20.733989
790.231306	-2.997800	3.630200	-10.882000	25.225616	0.001033	20.756379
791.218268	-3.012200	3.629500	-10.931000	25.218704	0.001032	20.755129
792.219999	-3.000400	3.629500	-10.889000	25.202873	0.001034	20.755831
793.224258	-3.030800	3.629400	-10.998000	25.176400	0.001030	20.735417
794.218503	-3.017800	3.627200	-10.945000	25.183662	0.001030	20.737018
795.222104	-2.973100	3.629700	-10.790000	25.202590	0.001031	20.747960
796.221650	-2.998700	3.629900	-10.884000	25.203535	0.001031	20.776411
797.221625	-2.993200	3.629000	-10.861000	25.193671	0.001031	20.745171
798.226333	-2.988200	3.629800	-10.845000	25.196652	0.001030	20.752431
799.220876	-2.979800	3.628300	-10.811000	25.199093	0.001029	20.761046
800.234766	-3.008500	3.629100	-10.917000	25.188512	0.001029	20.751845
801.225098	-2.987000	3.627800	-10.835000	25.182765	0.001028	20.751766
802.226687	-2.998100	3.627900	-10.876000	25.188837	0.001027	20.755017
803.221841	-2.975300	3.627900	-10.793000	25.180986	0.001026	20.746660
804.233713	-3.010900	3.625500	-10.915000	25.170301	0.001028	20.771495
805.225997	-3.024200	3.623800	-10.957000	25.190763	0.001027	20.756950
806.226085	-3.014800	3.625800	-10.930000	25.203742	0.001029	20.743901
807.226379	-3.019500	3.624400	-10.943000	25.209237	0.001027	20.780239
808.228434	-3.015400	3.623600	-10.926000	25.209715	0.001026	20.771236
809.231107	-3.033200	3.623500	-10.990000	25.236163	0.001028	20.753218
810.225292	-3.005100	3.624600	-10.892000	25.174471	0.001028	20.784217
811.232028	-3.027300	3.623100	-10.966000	25.139698	0.001027	20.756420
812.235917	-3.000200	3.623800	-10.870000	25.141691	0.001029	20.754153
813.234630	-3.011200	3.624900	-10.914000	25.131208	0.001027	20.764492
814.227120	-3.002200	3.623200	-10.877000	25.126043	0.001025	20.739392
815.229252	-3.006100	3.624200	-10.893000	25.119627	0.001024	20.768039
816.225504	-3.003700	3.623500	-10.883000	25.083220	0.001024	20.758044
817.225819	-3.004100	3.622400	-10.881000	25.078147	0.001024	20.770496
818.234932	-3.002900	3.622200	-10.876000	25.064946	0.001026	20.784745
819.228952	-2.999300	3.621500	-10.860000	25.087452	0.001022	20.773199
820.236123	-2.997700	3.622300	-10.857000	25.116393	0.001024	20.789924
821.226614	-2.988200	3.621000	-10.819000	25.119454	0.001023	20.772133
822.232525	-3.014400	3.619700	-10.910000	25.153584	0.001021	20.768937
823.233394	-2.999700	3.621000	-10.861000	25.170844	0.001023	20.759712
824.228888	-2.995500	3.620700	-10.845000	25.206739	0.001022	20.770618
825.229735	-2.970800	3.621700	-10.758000	25.215516	0.001022	20.776585
826.232708	-3.020900	3.618100	-10.929000	25.228476	0.001022	20.760198
827.240159	-2.978000	3.619600	-10.778000	25.246624	0.001021	20.763247
828.232746	-3.000900	3.619900	-10.862000	25.246078	0.001018	20.774553
829.232621	-2.997100	3.620200	-10.848000	25.286098	0.001017	20.763998
830.238182	-2.988600	3.619900	-10.818000	25.305687	0.001019	20.762329
831.237582	-2.997400	3.617700	-10.842000	25.308674	0.001018	20.775759
832.233158	-2.992300	3.618500	-10.827000	25.351653	0.001018	20.767704
833.239773	-3.002800	3.617600	-10.861000	25.358761	0.001017	20.762513
834.231832	-2.983100	3.618900	-10.794000	25.374148	0.001017	20.765635
835.238576	-3.015600	3.618000	-10.910000	25.382580	0.001017	20.779318
836.235859	-3.000200	3.617300	-10.851000	25.356608	0.001017	20.774577
837.235173	-3.002400	3.616500	-10.857000	25.319584	0.001018	20.765850
838.236920	-2.989000	3.616500	-10.808000	25.294236	0.001016	20.774539
839.240260	-2.981800	3.618200	-10.787000	25.311169	0.001014	20.773997
840.238333	-3.015600	3.616600	-10.905000	25.298768	0.001014	20.777667
841.234612	-3.017800	3.616300	-10.912000	25.297155	0.001016	20.767039
842.241759	-2.995600	3.615800	-10.831000	25.308973	0.001014	20.772741
843.241255	-3.004300	3.615200	-10.860000	25.324232	0.001015	20.784268
844.239310	-3.005300	3.614800	-10.862000	25.323882	0.001013	20.789607
845.237468	-3.008100	3.614600	-10.872000	25.343452	0.001013	20.787446
846.241426	-2.997300	3.613200	-10.828000	25.380469	0.001016	20.797113
847.244739	-2.995100	3.613200	-10.821000	25.376017	0.001014	20.782685
848.241324	-2.989700	3.613500	-10.802000	25.389220	0.001013	20.786934
849.247334	-3.026400	3.611500	-10.929000	25.403018	0.001013	20.776607
850.243666	-3.029600	3.611200	-10.938000	25.366413	0.001011	20.791534
851.242871	-2.993800	3.613400	-10.817000	25.374766	0.001012	20.777161
852.245214	-3.012100	3.611600	-10.877000	25.408685	0.001011	20.806005
853.249488	-3.009700	3.612200	-10.870000	25.402313	0.001010	20.759303
854.241374	-2.996500	3.612200	-10.822000	25.437378	0.001010	20.793092
855.252389	-2.999000	3.610500	-10.826000	25.450648	0.001010	20.798831
856.245873	-3.039000	3.609500	-10.968000	25.451574	0.001010	20.775579
857.250442	-2.995200	3.612200	-10.818000	25.429216	0.001012	20.788689
858.254311	-2.993900	3.610900	-10.809000	25.414332	0.001009	20.782752
859.243042	-2.999900	3.609600	-10.827000	25.413161	0.001008	20.772093
860.248007	-2.992600	3.609800	-10.801000	25.384737	0.001007	20.789544
861.242211	-2.998000	3.608000	-10.815000	25.376991	0.001006	20.787457
862.249670	-2.987100	3.609700	-10.781000	25.371177	0.001006	20.777826
863.242681	-3.002900	3.608700	-10.835000	25.386687	0.001007	20.783916
864.244594	-3.000000	3.608700	-10.825000	25.419072	0.001005	20.782296
865.245336	-3.011900	3.607500	-10.864000	25.432686	0.001008	20.789329
866.246292	-3.018800	3.607700	-10.890000	25.427382	0.001006	20.785899
867.246859	-3.025000	3.607100	-10.911000	25.402478	0.001005	20.793134
868.249141	-3.011700	3.607500	-10.864000	25.421200	0.001006	20.797709
869.245928	-2.991700	3.607500	-10.792000	25.451948	0.001004	20.796816
870.246124	-3.000700	3.606800	-10.822000	25.457742	0.001004	20.810222
871.250782	-2.986900	3.605700	-10.768000	25.497006	0.001006	20.782321
872.251121	-2.987000	3.607000	-10.773000	25.502874	0.001003	20.799594
873.247662	-3.019500	3.605500	-10.886000	25.512097	0.001003	20.788940
874.250285	-2.996100	3.604400	-10.797000	25.517045	0.001003	20.800548
875.251399	-2.967200	3.606000	-10.699000	25.505744	0.001002	20.798208
876.257724	-2.970700	3.606400	-10.711000	25.489838	0.001002	20.797407
877.252451	-2.994100	3.604100	-10.790000	25.464727	0.001002	20.811071
878.251976	-3.010300	3.604000	-10.848000	25.470644	0.000999	20.796625
879.250038	-2.987800	3.603700	-10.766000	25.469547	0.001000	20.805480
880.259066	-2.984700	3.604400	-10.757000	25.484785	0.001001	20.794704
881.250926	-2.986500	3.603800	-10.761000	25.486925	0.000999	20.812500
882.252990	-2.986500	3.602700	-10.759000	25.478683	0.001001	20.808491
883.253142	-3.006300	3.602000	-10.828000	25.482878	0.000999	20.804643
884.253212	-2.983500	3.602800	-10.747000	25.477071	0.000999	20.781267
885.252468	-3.010500	3.603100	-10.845000	25.483558	0.001000	20.795369
886.258065	-2.994900	3.602200	-10.787000	25.508240	0.000998	20.791231
887.251722	-2.987700	3.601800	-10.760000	25.497686	0.000999	20.812876
888.252870	-3.003700	3.601200	-10.816000	25.476807	0.000998	20.797598
889.260789	-3.000000	3.599700	-10.797000	25.465554	0.000998	20.808584
890.257127	-3.002700	3.601400	-10.813000	25.468762	0.000998	20.802795
891.256331	-2.989200	3.602300	-10.767000	25.453057	0.000996	20.839655
892.254815	-3.013000	3.600000	-10.846000	25.450322	0.000997	20.807038
893.262136	-3.000300	3.600600	-10.802000	25.471871	0.000995	20.797857
894.259192	-3.019800	3.599800	-10.868000	25.477113	0.000996	20.806441
895.259222	-3.003500	3.599500	-10.810000	25.449384	0.000995	20.821743
896.264385	-2.986400	3.598900	-10.745000	25.463991	0.000996	20.800375
897.259489	-3.000200	3.597600	-10.792000	25.467872	0.000994	20.812334
898.259849	-3.007700	3.598800	-10.822000	25.502359	0.000995	20.810456
899.256895	-3.008500	3.597000	-10.820000	25.500250	0.000993	20.794587
900.263196	-2.991600	3.597200	-10.760000	25.499968	0.000994	20.817063
901.257196	-3.000200	3.597600	-10.793000	25.519430	0.000993	20.825702
902.262672	-2.994500	3.598900	-10.776000	25.523998	0.000993	20.831238
903.264860	-3.006000	3.596500	-10.809000	25.521742	0.000992	20.828023
904.263298	-2.999500	3.595300	-10.783000	25.579662	0.000991	20.822180
905.260624	-2.987100	3.596700	-10.742000	25.582746	0.000992	20.821958
906.268090	-3.015900	3.595500	-10.843000	25.576302	0.000990	20.824495
907.263117	-2.999400	3.595500	-10.783000	25.580256	0.000990	20.820406
908.261637	-3.014400	3.593100	-10.829000	25.582237	0.000992	20.830456
909.267478	-3.016300	3.593700	-10.838000	25.589221	0.000989	20.814711
910.263237	-2.990500	3.594400	-10.749000	25.530602	0.000989	20.833602
911.262897	-2.999200	3.593400	-10.776000	25.511710	0.000989	20.822691
912.261907	-3.008800	3.593500	-10.809000	25.458975	0.000987	20.822839
913.261458	-3.003000	3.594100	-10.792000	25.429380	0.000988	20.822993
914.265661	-3.000300	3.593100	-10.779000	25.404047	0.000989	20.816521
915.262362	-2.980700	3.593700	-10.710000	25.440958	0.000987	20.839834
916.266564	-2.996800	3.592500	-10.765000	25.445257	0.000986	20.810486
917.272458	-3.022000	3.590600	-10.850000	25.477659	0.000985	20.823110
918.264321	-2.993200	3.591700	-10.750000	25.481167	0.000985	20.834218
919.263638	-3.000300	3.592300	-10.777000	25.492370	0.000986	20.839304
920.262011	-3.000300	3.590700	-10.772000	25.512918	0.000982	20.847137
921.268891	-3.011700	3.590800	-10.812000	25.513513	0.000984	20.846786
922.264105	-3.003800	3.590500	-10.784000	25.491591	0.000984	20.840893
923.271142	-2.993100	3.590800	-10.746000	25.499545	0.000983	20.852198
924.269524	-3.015900	3.589300	-10.824000	25.479867	0.000983	20.842870
925.272921	-2.992800	3.590200	-10.743000	25.497086	0.000982	20.845936
926.266666	-3.022600	3.589000	-10.847000	25.515494	0.000982	20.845930
927.266674	-2.991100	3.588600	-10.733000	25.543228	0.000981	20.858134
928.269586	-3.010600	3.588400	-10.801000	25.560421	0.000980	20.847900
929.270273	-2.997900	3.589400	-10.758000	25.584003	0.000981	20.843609
930.267296	-2.999700	3.587300	-10.760000	25.616058	0.000978	20.844508
931.272573	-3.024100	3.586600	-10.845000	25.642115	0.000981	20.855031
932.274193	-2.976500	3.586600	-10.673000	25.631607	0.000979	20.856330
933.270043	-2.979400	3.586800	-10.686000	25.677050	0.000977	20.853609
934.276435	-2.992200	3.587100	-10.732000	25.685627	0.000978	20.857007
935.270019	-3.001400	3.587000	-10.765000	25.673421	0.000979	20.861817
936.273061	-3.009400	3.586400	-10.792000	25.693843	0.000975	20.858621
937.273330	-2.979300	3.586400	-10.684000	25.696234	0.000976	20.861496
938.271666	-2.998000	3.584500	-10.744000	25.713418	0.000976	20.855998
939.269621	-2.993700	3.584600	-10.730000	25.715454	0.000978	20.868947
940.271765	-3.006200	3.585700	-10.779000	25.732025	0.000976	20.874212
941.272182	-3.005200	3.585200	-10.773000	25.730511	0.000973	20.861312
942.272392	-2.998600	3.584800	-10.748000	25.744599	0.000973	20.877358
943.273643	-2.979000	3.584600	-10.677000	25.718636	0.000974	20.874039
944.277516	-3.009600	3.583900	-10.785000	25.702358	0.000972	20.862907
945.274360	-3.004000	3.581400	-10.757000	25.654451	0.000970	20.870265
946.276130	-3.015700	3.583100	-10.804000	25.657633	0.000973	20.870142
947.275486	-2.999400	3.581500	-10.741000	25.616364	0.000971	20.853350
948.274485	-3.017900	3.580400	-10.804000	25.615065	0.000972	20.849200
949.275165	-2.985100	3.581500	-10.690000	25.593525	0.000972	20.874507
950.277597	-2.978500	3.582100	-10.667000	25.597823	0.000971	20.866970
951.277273	-3.005200	3.580600	-10.759000	25.620957	0.000970	20.880720
952.276476	-2.997100	3.580500	-10.731000	25.551978	0.000971	20.882093
953.278172	-2.974000	3.582300	-10.651000	25.543081	0.000967	20.857987
954.281794	-3.023500	3.580000	-10.823000	25.552107	0.000967	20.852827
955.277348	-3.011000	3.580700	-10.781000	25.563039	0.000967	20.875659
956.278429	-2.982500	3.580300	-10.677000	25.576756	0.000968	20.864304
957.279432	-3.008900	3.578400	-10.766000	25.596131	0.000965	20.863849
958.279957	-3.002300	3.579600	-10.746000	25.635028	0.000966	20.859766
959.277746	-2.978100	3.578400	-10.655000	25.637235	0.000966	20.856293
960.281897	-3.017400	3.577100	-10.793000	25.616665	0.000966	20.877832
961.278090	-3.008600	3.577900	-10.763000	25.598277	0.000965	20.841349
962.279218	-3.022700	3.576400	-10.810000	25.604782	0.000965	20.862580
963.279201	-3.005200	3.578400	-10.752000	25.621312	0.000963	20.855000
964.278789	-3.012100	3.575500	-10.768000	25.632765	0.000963	20.870295
965.275854	-2.995600	3.575200	-10.709000	25.684254	0.000963	20.886920
966.280283	-2.993000	3.576500	-10.703000	25.648142	0.000961	20.859187
967.278921	-2.983300	3.576500	-10.668000	25.641889	0.000961	20.852433
968.277170	-2.987900	3.575400	-10.682000	25.645390	0.000959	20.843621
969.276844	-2.982000	3.575700	-10.661000	25.629516	0.000961	20.856601
970.276433	-2.986200	3.576200	-10.678000	25.632722	0.000959	20.876890
971.277606	-2.991000	3.575800	-10.695000	25.660797	0.000962	20.846293
972.277771	-3.013300	3.573900	-10.768000	25.667958	0.000960	20.859175
973.277991	-2.989000	3.573300	-10.679000	25.640975	0.000960	20.861472
974.278174	-2.987700	3.573800	-10.675000	25.627805	0.000958	20.840185
975.277444	-2.992900	3.574700	-10.698000	25.625825	0.000958	20.847679
976.278302	-2.985200	3.572800	-10.664000	25.654175	0.000957	20.843910
977.283114	-3.017000	3.572400	-10.777000	25.689434	0.000956	20.863202
978.280574	-2.987000	3.573200	-10.672000	25.675297	0.000955	20.840468
979.282332	-2.988900	3.573200	-10.679000	25.660515	0.000957	20.815665
980.279151	-3.000700	3.572900	-10.719000	25.672666	0.000953	20.846835
981.281527	-2.993600	3.572300	-10.693000	25.651054	0.000956	20.850733
982.281856	-2.994600	3.571600	-10.694000	25.658853	0.000955	20.837229
983.282679	-2.995100	3.571100	-10.695000	25.649589	0.000953	20.825554
984.280652	-2.999300	3.571200	-10.711000	25.624844	0.000952	20.835788
985.279525	-3.003100	3.568900	-10.716000	25.625346	0.000952	20.843879
986.280875	-3.011600	3.569400	-10.748000	25.626487	0.000952	20.846447
987.282864	-2.985900	3.570300	-10.659000	25.678190	0.000951	20.827254
988.282197	-2.992900	3.568300	-10.678000	25.683812	0.000950	20.828159
989.281684	-2.991000	3.569300	-10.675000	25.712633	0.000949	20.822494
990.282899	-2.974100	3.570700	-10.619000	25.728432	0.000950	20.821767
991.280492	-3.009800	3.567500	-10.737000	25.723491	0.000949	20.824391
992.282477	-3.006500	3.566900	-10.723000	25.747566	0.000949	20.836244
993.280349	-3.000300	3.567500	-10.702000	25.749301	0.000947	20.835142
994.282037	-3.000300	3.568200	-10.704000	25.765056	0.000948	20.850493
995.283684	-3.015700	3.567000	-10.756000	25.802721	0.000946	20.820998
996.283678	-3.006800	3.566600	-10.722000	25.792483	0.000948	20.832999
997.286919	-3.013400	3.566000	-10.745000	25.829350	0.000946	20.832574
998.282320	-3.017900	3.566000	-10.760000	25.837129	0.000947	20.826638
999.282246	-2.973500	3.566900	-10.605000	25.851958	0.000944	20.819723
1000.283519	-2.981000	3.567300	-10.632000	25.856586	0.000945	20.827691
1001.284148	-3.001400	3.565400	-10.700000	25.869428	0.000945	20.832531
1002.283556	-3.001200	3.564600	-10.697000	25.849555	0.000945	20.824895
1003.285813	-2.998600	3.565400	-10.690000	25.862397	0.000944	20.830684
1004.289847	-2.991400	3.565000	-10.663000	25.848537	0.000942	20.805856
1005.287261	-3.000000	3.563300	-10.688000	25.839348	0.000942	20.830764
1006.286417	-3.001300	3.562100	-10.689000	25.794984	0.000942	20.822709
1007.287696	-2.997100	3.563000	-10.678000	25.738756	0.000940	20.814119
1008.287545	-3.006900	3.561900	-10.710000	25.746609	0.000940	20.811102
1009.287906	-2.998600	3.563500	-10.684000	25.724545	0.000939	20.817389
1010.286559	-3.003000	3.561900	-10.696000	25.713142	0.000940	20.805462
1011.290805	-3.013200	3.561700	-10.731000	25.724177	0.000940	20.839778
1012.292185	-3.000900	3.561800	-10.686000	25.704013	0.000940	20.819526
1013.286483	-3.001200	3.562700	-10.692000	25.704976	0.000939	20.810536
1014.291534	-3.003200	3.560400	-10.691000	25.676596	0.000939	20.804316
1015.291688	-3.010400	3.561100	-10.719000	25.694443	0.000938	20.799008
1016.289169	-3.014900	3.559500	-10.730000	25.746143	0.000938	20.820591
1017.290911	-3.017900	3.558400	-10.737000	25.751336	0.000937	20.809686
1018.290176	-2.992600	3.560300	-10.653000	25.757105	0.000936	20.808368
1019.290924	-2.996100	3.558200	-10.660000	25.746548	0.000935	20.820523
1020.289680	-3.018700	3.558300	-10.741000	25.745825	0.000934	20.806995
1021.291235	-2.998600	3.560800	-10.675000	25.736377	0.000935	20.802721
1022.292669	-2.983500	3.559300	-10.619000	25.708385	0.000932	20.815382
1023.295575	-2.990200	3.557400	-10.635000	25.680483	0.000934	20.825764
1024.293145	-2.995900	3.556700	-10.654000	25.697429	0.000931	20.808171
1025.293583	-2.996300	3.557600	-10.659000	25.700954	0.000934	20.798910
1026.292861	-3.008700	3.556300	-10.699000	25.721848	0.000931	20.809938
1027.295064	-2.979200	3.558100	-10.598000	25.707661	0.000932	20.791896
1028.291785	-3.010800	3.556100	-10.706000	25.740687	0.000930	20.792352
1029.292804	-3.001300	3.556000	-10.671000	25.714626	0.000932	20.809322
1030.296588	-3.015300	3.556500	-10.722000	25.681452	0.000928	20.790701
1031.293705	-2.982000	3.556200	-10.604000	25.694302	0.000929	20.788435
1032.294049	-2.995700	3.555300	-10.649000	25.685253	0.000929	20.793571
1033.294612	-3.008600	3.556000	-10.697000	25.693456	0.000929	20.793749
1034.294580	-3.001500	3.554200	-10.666000	25.742005	0.000927	20.797469
1035.294938	-3.018600	3.553900	-10.727000	25.759349	0.000927	20.802087
1036.296158	-3.005700	3.553800	-10.681000	25.755376	0.000926	20.794304
1037.294791	-2.992400	3.553000	-10.631000	25.747278	0.000926	20.795652
1038.296804	-2.983300	3.554400	-10.603000	25.751575	0.000925	20.792856
1039.299456	-3.017400	3.552300	-10.717000	25.787303	0.000924	20.786070
1040.298127	-3.009800	3.551200	-10.688000	25.809090	0.000926	20.804636
1041.300442	-3.021700	3.551300	-10.729000	25.805909	0.000925	20.804760
1042.298589	-3.039500	3.551700	-10.795000	25.804272	0.000925	20.803115
1043.298421	-3.027300	3.551300	-10.749000	25.846655	0.000926	20.773145
1044.297746	-3.005600	3.551400	-10.673000	25.846625	0.000923	20.789236
1045.298641	-2.989800	3.552100	-10.617000	25.886573	0.000924	20.803762
1046.299985	-2.994900	3.550700	-10.633000	25.863298	0.000923	20.780855
1047.299480	-3.013400	3.549700	-10.696000	25.823827	0.000922	20.809008
1048.296634	-2.995000	3.550200	-10.632000	25.818678	0.000921	20.790085
1049.301234	-2.997500	3.549300	-10.638000	25.814656	0.000924	20.769450
1050.303253	-3.009200	3.548700	-10.678000	25.817090	0.000920	20.782326
1051.298065	-3.022200	3.547900	-10.721000	25.797363	0.000920	20.795227
1052.300635	-2.981800	3.548900	-10.582000	25.802874	0.000918	20.787013
1053.296911	-2.989100	3.549100	-10.608000	25.785360	0.000920	20.783644
1054.300482	-2.995600	3.548200	-10.628000	25.742453	0.000921	20.783219
1055.299949	-3.007700	3.547500	-10.669000	25.740019	0.000918	20.796896
1056.301682	-3.003200	3.546500	-10.650000	25.752066	0.000917	20.781969
1057.299025	-2.998500	3.546500	-10.632000	25.797510	0.000916	20.807703
1058.299967	-2.984700	3.547600	-10.587000	25.801581	0.000917	20.786662
1059.301213	-2.994600	3.545900	-10.618000	25.836455	0.000916	20.791822
1060.304294	-2.985900	3.546700	-10.588000	25.837080	0.000915	20.782967
1061.304807	-3.000900	3.544600	-10.636000	25.866590	0.000915	20.794119
1062.304033	-3.009800	3.544300	-10.666000	25.894045	0.000913	20.788035
1063.303794	-3.000000	3.545500	-10.635000	25.849524	0.000914	20.789303
1064.310246	-3.013700	3.544900	-10.682000	25.819444	0.000912	20.779001
1065.301522	-2.992600	3.544700	-10.607000	25.787812	0.000913	20.772831
1066.300989	-2.981600	3.543500	-10.564000	25.797768	0.000909	20.794211
1067.306162	-3.007400	3.543200	-10.655000	25.815760	0.000910	20.787154
1068.302801	-3.000800	3.542500	-10.628000	25.809127	0.000909	20.770060
1069.303017	-2.997200	3.543500	-10.620000	25.793605	0.000909	20.793349
1070.302359	-2.997300	3.542700	-10.617000	25.812407	0.000909	20.773829
1071.304877	-3.005800	3.540500	-10.640000	25.839115	0.000908	20.772209
1072.307240	-2.995800	3.543100	-10.613000	25.842542	0.000906	20.773280
1073.305386	-2.999800	3.541700	-10.623000	25.886910	0.000905	20.792247
1074.305384	-2.984200	3.542000	-10.569000	25.840629	0.000907	20.786058
1075.306913	-3.012800	3.539100	-10.660000	25.837522	0.000904	20.777720
1076.304529	-2.994300	3.539800	-10.598000	25.836927	0.000905	20.779020
1077.303673	-2.999000	3.539600	-10.615000	25.822963	0.000907	20.767363
1078.304686	-2.985700	3.540200	-10.568000	25.762720	0.000905	20.787930
1079.307410	-3.018100	3.537900	-10.677000	25.760507	0.000902	20.758680
1080.306046	-3.007100	3.538900	-10.640000	25.744684	0.000905	20.777400
1081.305661	-2.987900	3.538800	-10.573000	25.769991	0.000902	20.788595
1082.311360	-3.025000	3.536900	-10.697000	25.799938	0.000900	20.771735
1083.307925	-2.989200	3.538900	-10.577000	25.772057	0.000899	20.776920
1084.306864	-2.998700	3.536100	-10.603000	25.760783	0.000901	20.776975
1085.309729	-2.991500	3.537300	-10.581000	25.741073	0.000900	20.761919
1086.310615	-2.990500	3.537000	-10.577000	25.753672	0.000899	20.797807
1087.309920	-3.003800	3.535300	-10.619000	25.713945	0.000899	20.784931
1088.313662	-3.031500	3.533800	-10.711000	25.706141	0.000900	20.773299
1089.310557	-2.989400	3.535900	-10.569000	25.691182	0.000898	20.776766
1090.309552	-3.013300	3.536100	-10.654000	25.654525	0.000896	20.772665
1091.316037	-3.019700	3.534000	-10.670000	25.679196	0.000895	20.759037
1092.315720	-3.026900	3.533900	-10.695000	25.690900	0.000895	20.770793
1093.311016	-3.004900	3.534400	-10.620000	25.709881	0.000896	20.789858
1094.312167	-2.988700	3.536200	-10.565000	25.759220	0.000896	20.764025
1095.315124	-3.006600	3.532900	-10.621000	25.755965	0.000895	20.768816
1096.312190	-2.990400	3.531900	-10.561000	25.736261	0.000894	20.766568
1097.312210	-3.002000	3.532600	-10.604000	25.729996	0.000894	20.759801
1098.316541	-3.008600	3.532500	-10.628000	25.739486	0.000893	20.783084
1099.314180	-2.990100	3.533500	-10.564000	25.771904	0.000891	20.767283
1100.313851	-2.963300	3.533900	-10.471000	25.787659	0.000893	20.752288
1101.320560	-3.032500	3.530600	-10.706000	25.801342	0.000893	20.764136
1102.315609	-2.995900	3.531300	-10.578000	25.836890	0.000890	20.765706
1103.318589	-3.005800	3.529500	-10.607000	25.849904	0.000889	20.770245
1104.314454	-2.997100	3.530100	-10.579000	25.877630	0.000891	20.757793
1105.315474	-3.007200	3.530000	-10.615000	25.896859	0.000888	20.770947
1106.313940	-3.000700	3.529200	-10.589000	25.899715	0.000888	20.775239
1107.311942	-2.992000	3.530100	-10.561000	25.914420	0.000887	20.750656
1108.314773	-3.015100	3.527700	-10.635000	25.912673	0.000887	20.765497
1109.314657	-2.999500	3.528000	-10.581000	25.922714	0.000888	20.772265
1110.314323	-2.992500	3.528300	-10.556000	25.933269	0.000886	20.752522
1111.315002	-2.993800	3.527400	-10.560000	25.875141	0.000886	20.768570
1112.318742	-3.000700	3.527700	-10.585000	25.830840	0.000883	20.748723
1113.315586	-2.984400	3.526900	-10.525000	25.776318	0.000885	20.748482
1114.319474	-2.978400	3.526900	-10.502000	25.767839	0.000882	20.757036
1115.313885	-2.994300	3.526400	-10.558000	25.772039	0.000881	20.750348
1116.316663	-3.012700	3.525500	-10.620000	25.806099	0.000882	20.755164
1117.318398	-2.984200	3.527500	-10.526000	25.836608	0.000883	20.753095
1118.319919	-2.988900	3.525400	-10.536000	25.862789	0.000881	20.750471
1119.317461	-2.998400	3.524400	-10.565000	25.893543	0.000879	20.755761
1120.318795	-2.995300	3.524900	-10.557000	25.895952	0.000880	20.766716
1121.317029	-2.991000	3.524000	-10.539000	25.893469	0.000879	20.741936
1122.321316	-2.989100	3.524300	-10.533000	25.887958	0.000878	20.753470
1123.320807	-3.014000	3.522700	-10.615000	25.894137	0.000878	20.746875
1124.320148	-2.996900	3.524200	-10.561000	25.875681	0.000876	20.780018
1125.321449	-2.988900	3.523200	-10.530000	25.864377	0.000876	20.776249
1126.320359	-2.987100	3.522100	-10.519000	25.849500	0.000876	20.732379
1127.322681	-3.006600	3.521200	-10.586000	25.858621	0.000876	20.737749
1128.323373	-2.995500	3.522500	-10.550000	25.888179	0.000874	20.766020
1129.327319	-2.990800	3.522800	-10.535000	25.889473	0.000874	20.741240
1130.323583	-3.004500	3.521400	-10.578000	25.852283	0.000875	20.752719
1131.325540	-2.965900	3.521400	-10.443000	25.883698	0.000873	20.741604
1132.325793	-3.011900	3.519400	-10.598000	25.869189	0.000872	20.754055
1133.324522	-2.996100	3.519300	-10.543000	25.892194	0.000872	20.733543
1134.326768	-3.004500	3.519400	-10.572000	25.925172	0.000873	20.736800
1135.325180	-3.015200	3.519500	-10.610000	25.913587	0.000871	20.756457
1136.325064	-3.000000	3.518800	-10.555000	25.905882	0.000872	20.745871
1137.324833	-2.995300	3.519500	-10.541000	25.919373	0.000870	20.752787
1138.326098	-2.999100	3.519000	-10.552000	25.923124	0.000871	20.749917
1139.326630	-3.024000	3.517200	-10.634000	25.973453	0.000869	20.753064
1140.329554	-3.008600	3.517800	-10.582000	25.958025	0.000869	20.743728
1141.325728	-3.013100	3.517400	-10.596000	25.934102	0.000869	20.747195
1142.333577	-2.991500	3.516300	-10.518000	25.898514	0.000868	20.739418
1143.331383	-3.042100	3.514400	-10.690000	25.893071	0.000868	20.745804
1144.327579	-3.004400	3.514900	-10.559000	25.912545	0.000866	20.748772
1145.330491	-3.006200	3.515600	-10.569000	25.910258	0.000866	20.746949
1146.332244	-2.990200	3.515000	-10.509000	25.967814	0.000866	20.740286
1147.326487	-3.004300	3.514500	-10.557000	25.981053	0.000865	20.748846
1148.329175	-3.014200	3.514400	-10.591000	26.017252	0.000866	20.747281
1149.329495	-3.004900	3.513800	-10.557000	26.026611	0.000865	20.736295
1150.326669	-2.978900	3.514200	-10.466000	26.045861	0.000864	20.736197
1151.329562	-3.004700	3.512900	-10.554000	26.047798	0.000863	20.741462
1152.330438	-3.021100	3.512100	-10.610000	26.082450	0.000864	20.759210
1153.331812	-3.001800	3.511600	-10.540000	26.095216	0.000861	20.730784
1154.336240	-3.014500	3.511300	-10.584000	26.118535	0.000863	20.733352
1155.330343	-2.987600	3.511800	-10.490000	26.102864	0.000860	20.725666
1156.332596	-3.011700	3.510900	-10.572000	26.081733	0.000859	20.734306
1157.329956	-3.004400	3.510800	-10.547000	26.092832	0.000861	20.735975
1158.332335	-3.005800	3.509300	-10.548000	26.072338	0.000860	20.734349
1159.336087	-3.002300	3.508500	-10.533000	26.052242	0.000857	20.727434
1160.332855	-2.990900	3.509800	-10.497000	26.011368	0.000857	20.723351
1161.329770	-3.019100	3.509500	-10.595000	26.003044	0.000858	20.750551
1162.336102	-2.987500	3.509900	-10.485000	25.986532	0.000858	20.736806
1163.343818	-3.001700	3.507800	-10.528000	25.986379	0.000857	20.748507
1164.332654	-2.994200	3.507900	-10.501000	25.988022	0.000857	20.726448
1165.338009	-2.994500	3.507000	-10.501000	25.988065	0.000856	20.729811
1166.335300	-2.985400	3.507800	-10.471000	26.031164	0.000854	20.727594
1167.335461	-2.980400	3.507700	-10.453000	26.008358	0.000855	20.737398
1168.337577	-2.999900	3.508600	-10.524000	25.990602	0.000855	20.722877
1169.337286	-3.007800	3.505900	-10.544000	26.002278	0.000853	20.722753
1170.336894	-2.992500	3.506400	-10.490000	25.978877	0.000852	20.726270
1171.342919	-2.996400	3.506700	-10.506000	25.947379	0.000851	20.719280
1172.339441	-3.011800	3.504300	-10.552000	25.937768	0.000852	20.724324
1173.337736	-2.998700	3.505200	-10.510000	25.902247	0.000851	20.715191
1174.338672	-3.001000	3.504500	-10.515000	25.858928	0.000852	20.728099
1175.338071	-2.983000	3.504000	-10.451000	25.841537	0.000850	20.734811
1176.340252	-3.015600	3.501900	-10.560000	25.801415	0.000849	20.710628
1177.338806	-3.012800	3.502300	-10.551000	25.779230	0.000849	20.728647
1178.339725	-3.015400	3.503000	-10.562000	25.793047	0.000850	20.735889
1179.341719	-2.993200	3.502800	-10.485000	25.823784	0.000848	20.735944
1180.339638	-3.017800	3.501500	-10.566000	25.839330	0.000847	20.732120
1181.339054	-3.014400	3.500800	-10.552000	25.829767	0.000846	20.721565
1182.340074	-3.011300	3.502200	-10.545000	25.883128	0.000845	20.714951
1183.339120	-2.985600	3.502600	-10.456000	25.857076	0.000845	20.722445
1184.338105	-2.997800	3.500400	-10.491000	25.889889	0.000844	20.705621
1185.346428	-3.023500	3.498200	-10.576000	25.933115	0.000843	20.727711
1186.341066	-3.010200	3.500100	-10.535000	25.963866	0.000844	20.727785
1187.341568	-3.003600	3.497800	-10.503000	25.992974	0.000843	20.723837
1188.346999	-3.021600	3.498000	-10.567000	26.026286	0.000841	20.751142
1189.346196	-2.991700	3.498400	-10.465000	26.054730	0.000840	20.728511
1190.342029	-3.010900	3.498000	-10.531000	26.090871	0.000840	20.747756
1191.344224	-3.011000	3.497000	-10.529000	26.096435	0.000839	20.727267
1192.342618	-3.006500	3.498000	-10.515000	26.106615	0.000840	20.714261
1193.342127	-3.007700	3.496700	-10.516000	26.096141	0.000838	20.731239
1194.343432	-2.998700	3.498000	-10.488000	26.073294	0.000837	20.710652
1195.342164	-2.998300	3.496500	-10.482000	26.073765	0.000842	20.722033
1196.343350	-2.990500	3.496300	-10.453000	26.079857	0.000839	20.721041
1197.343338	-2.999500	3.495000	-10.481000	26.086335	0.000838	20.721386
1198.347057	-3.002300	3.495200	-10.493000	26.090239	0.000836	20.728154
1199.345175	-2.982700	3.494900	-10.423000	26.118676	0.000837	20.722587
1200.345183	-3.007500	3.494600	-10.509000	26.081629	0.000837	20.725192
1201.349300	-2.987400	3.494100	-10.437000	26.051157	0.000837	20.731560
1202.347767	-2.994000	3.493100	-10.458000	26.035981	0.000835	20.719157
1203.345010	-2.996300	3.492800	-10.464000	26.021928	0.000835	20.729694
1204.348914	-2.993800	3.492800	-10.454000	26.022148	0.000834	20.720432
1205.348110	-2.972600	3.493300	-10.383000	26.024833	0.000834	20.740199
1206.347572	-2.988400	3.490400	-10.429000	26.044531	0.000832	20.726325
1207.348297	-2.977100	3.493200	-10.398000	26.055471	0.000833	20.720247
1208.350111	-3.011300	3.490300	-10.508000	26.023448	0.000832	20.723160
1209.347642	-3.009900	3.491600	-10.508000	25.971313	0.000831	20.745699
1210.348232	-2.995600	3.489300	-10.451000	25.953759	0.000830	20.735649
1211.347631	-2.991200	3.490400	-10.440000	25.919305	0.000831	20.746555
1212.348797	-2.994600	3.491400	-10.454000	25.928322	0.000829	20.720050
1213.351313	-2.991500	3.489600	-10.438000	25.930118	0.000828	20.732760
1214.349522	-2.992800	3.490200	-10.445000	25.937148	0.000828	20.745988
1215.348003	-2.995300	3.487800	-10.446000	25.977247	0.000829	20.731744
1216.354525	-3.000000	3.488200	-10.463000	25.983167	0.000828	20.737219
1217.350188	-3.004700	3.487800	-10.479000	26.000280	0.000827	20.733075
1218.352585	-2.980200	3.488500	-10.394000	26.029663	0.000826	20.737465
1219.351649	-3.002900	3.485900	-10.467000	26.067024	0.000826	20.707198
1220.351354	-3.007700	3.485400	-10.482000	26.045598	0.000826	20.744467
1221.350524	-3.027400	3.484800	-10.549000	26.030269	0.000825	20.743765
1222.352294	-3.007700	3.486700	-10.486000	26.028339	0.000824	20.747515
1223.348737	-2.959300	3.487100	-10.318000	26.044685	0.000823	20.745921
1224.349766	-3.015500	3.484800	-10.507000	26.066142	0.000822	20.732865
1225.353792	-3.016000	3.483200	-10.504000	26.092378	0.000824	20.729355
1226.350806	-3.003500	3.483600	-10.462000	26.122776	0.000821	20.728604
1227.354069	-3.011500	3.483200	-10.488000	26.147969	0.000821	20.744436
1228.355734	-3.023100	3.483100	-10.529000	26.131380	0.000821	20.708799
1229.350277	-2.991000	3.483600	-10.418000	26.101099	0.000821	20.732428
1230.353124	-3.014600	3.481800	-10.495000	26.109557	0.000820	20.749936
1231.354389	-3.017300	3.482300	-10.506000	26.071032	0.000819	20.722132
1232.357287	-3.026800	3.480800	-10.535000	26.097833	0.000819	20.731991
1233.354175	-2.992500	3.482500	-10.419000	26.134199	0.000819	20.755256
1234.352031	-2.991600	3.481300	-10.413000	26.160526	0.000817	20.741407
1235.356017	-3.014600	3.479800	-10.490000	26.157965	0.000817	20.747368
1236.355531	-3.002100	3.480200	-10.447000	26.104599	0.000816	20.728358
1237.358372	-2.991600	3.480100	-10.410000	26.100873	0.000816	20.732200
1238.354934	-3.043000	3.478100	-10.582000	26.091613	0.000815	20.729534
1239.356921	-2.979500	3.480100	-10.368000	26.046959	0.000816	20.740145
1240.355794	-2.975400	3.480900	-10.355000	26.001016	0.000815	20.741401
1241.357942	-2.978800	3.478400	-10.361000	25.999717	0.000814	20.747208
1242.356871	-3.002900	3.477300	-10.440000	25.975402	0.000814	20.728943
1243.353304	-2.986000	3.476600	-10.379000	25.941470	0.000813	20.749382
1244.353463	-2.995500	3.475500	-10.409000	25.932062	0.000813	20.738981
1245.352610	-2.990600	3.475900	-10.394000	25.946699	0.000811	20.749893
1246.355820	-2.998300	3.476400	-10.422000	25.958498	0.000811	20.738039
1247.354871	-2.991900	3.475600	-10.397000	25.951093	0.000811	20.735341
1248.359730	-3.018200	3.474900	-10.487000	25.946975	0.000810	20.744006
1249.360401	-3.013900	3.473600	-10.468000	25.938945	0.000811	20.753483
1250.359657	-3.007000	3.473800	-10.445000	25.943922	0.000808	20.720549
1251.359600	-3.000400	3.474100	-10.423000	25.966147	0.000809	20.752362
1252.359717	-3.020300	3.473100	-10.488000	26.000924	0.000807	20.763121
1253.357088	-3.001500	3.472700	-10.422000	26.011184	0.000808	20.738815
1254.358980	-3.005500	3.471800	-10.433000	26.032703	0.000808	20.750004
1255.363879	-2.998600	3.471500	-10.409000	26.042528	0.000807	20.742331
1256.364145	-3.003400	3.471100	-10.423000	26.105966	0.000806	20.734947
1257.362443	-3.025600	3.470200	-10.497000	26.068195	0.000806	20.741567
1258.365612	-2.981000	3.470300	-10.344000	26.084681	0.000803	20.749123
1259.366945	-3.011300	3.470100	-10.449000	26.094996	0.000806	20.758065
1260.368530	-3.005900	3.469800	-10.429000	26.074778	0.000803	20.747233
1261.368927	-2.995000	3.470100	-10.392000	26.038740	0.000803	20.748483
1262.368087	-3.000300	3.468700	-10.406000	26.012502	0.000803	20.744880
1263.364791	-2.986400	3.470100	-10.361000	26.002598	0.000802	20.749154
1264.364488	-2.981000	3.469300	-10.340000	25.968544	0.000803	20.750029
1265.365412	-3.005800	3.468600	-10.424000	25.959957	0.000803	20.746143
1266.366558	-2.981500	3.468400	-10.339000	25.977395	0.000801	20.757973
1267.365454	-3.013100	3.466700	-10.444000	25.985191	0.000801	20.743994
1268.366056	-2.980900	3.466800	-10.333000	25.984474	0.000802	20.768878
1269.367769	-2.977500	3.466500	-10.320000	25.984970	0.000799	20.765584
1270.367422	-2.980500	3.466600	-10.330000	25.989549	0.000802	20.738889
1271.375055	-3.008400	3.467400	-10.431000	26.007378	0.000800	20.757277
1272.368909	-3.004100	3.465500	-10.410000	25.954171	0.000799	20.765935
1273.375196	-2.989100	3.464900	-10.356000	25.939669	0.000796	20.742356
1274.368313	-3.001700	3.463900	-10.397000	25.965774	0.000797	20.748194
1275.372444	-3.014500	3.463500	-10.439000	25.959068	0.000795	20.747621
1276.378918	-2.991800	3.464300	-10.362000	25.984928	0.000796	20.757006
1277.369789	-2.990300	3.462500	-10.352000	25.993374	0.000797	20.762647
1278.372004	-2.970700	3.463800	-10.289000	26.012306	0.000796	20.771237
1279.369305	-2.983900	3.463900	-10.335000	26.037368	0.000794	20.775080
1280.370693	-2.983700	3.462000	-10.328000	26.060866	0.000793	20.759334
1281.375336	-3.018600	3.461100	-10.446000	26.089333	0.000791	20.779877
1282.372992	-3.015300	3.460700	-10.433000	26.078406	0.000793	20.760836
1283.375700	-3.014500	3.460500	-10.431000	26.091840	0.000792	20.755842
1284.376314	-3.022100	3.458700	-10.451000	26.107737	0.000792	20.780351
1285.375230	-3.026300	3.458900	-10.467000	26.119461	0.000790	20.772691
1286.376222	-2.984500	3.460100	-10.326000	26.132834	0.000790	20.748668
1287.383780	-3.000600	3.458800	-10.377000	26.160576	0.000789	20.769907
1288.378335	-3.010100	3.457700	-10.406000	26.183324	0.000789	20.759100
1289.379741	-2.983800	3.459300	-10.320000	26.221317	0.000788	20.772623
1290.374305	-3.007000	3.456900	-10.393000	26.242801	0.000788	20.759125
1291.376256	-3.025000	3.456400	-10.455000	26.232004	0.000788	20.752068
1292.382140	-3.018100	3.456500	-10.430000	26.187301	0.000786	20.764993
1293.378470	-2.999000	3.456800	-10.366000	26.171858	0.000788	20.752794
1294.376326	-3.011100	3.456700	-10.407000	26.162372	0.000785	20.770289
1295.381717	-3.010700	3.455300	-10.402000	26.195549	0.000787	20.765221
1296.376152	-3.006300	3.455700	-10.387000	26.241073	0.000783	20.759759
1297.378701	-2.991700	3.454300	-10.333000	26.246239	0.000783	20.754993
1298.380263	-3.010900	3.452800	-10.394000	26.251607	0.000784	20.775087
1299.376336	-3.005600	3.455000	-10.384000	26.295486	0.000782	20.787415
1300.377915	-3.001500	3.454000	-10.366000	26.298048	0.000782	20.767703
1301.382680	-3.013900	3.452700	-10.405000	26.302178	0.000783	20.779915
1302.379913	-2.993500	3.452400	-10.333000	26.291320	0.000783	20.775167
1303.381341	-3.002100	3.452100	-10.362000	26.288422	0.000782	20.777470
1304.378302	-2.985500	3.452400	-10.305000	26.307496	0.000782	20.781941
1305.379888	-2.968900	3.454000	-10.253000	26.306957	0.000779	20.780925
1306.381859	-3.013700	3.449900	-10.396000	26.269206	0.000781	20.779970
1307.380225	-2.988400	3.451200	-10.312000	26.256320	0.000780	20.775555
1308.382952	-2.977600	3.452700	-10.279000	26.224363	0.000780	20.785168
1309.384045	-2.970400	3.451800	-10.251000	26.177901	0.000781	20.787317
1310.382439	-3.007800	3.449300	-10.374000	26.174556	0.000777	20.794386
1311.383409	-2.993600	3.449500	-10.325000	26.160596	0.000778	20.782255
1312.380876	-3.007200	3.448000	-10.367000	26.215926	0.000779	20.779533
1313.382867	-2.981200	3.450300	-10.285000	26.221300	0.000778	20.775451
1314.392002	-3.004500	3.447800	-10.359000	26.220031	0.000776	20.776547
1315.383651	-3.006300	3.447100	-10.362000	26.244910	0.000775	20.765986
1316.383841	-3.001800	3.447000	-10.347000	26.265156	0.000775	20.794392
1317.383296	-3.020500	3.445300	-10.406000	26.287068	0.000774	20.779903
1318.382516	-3.011700	3.446000	-10.377000	26.301523	0.000775	20.776886
1319.384358	-3.005900	3.446900	-10.360000	26.289679	0.000774	20.779207
1320.382938	-3.017200	3.446500	-10.398000	26.288141	0.000772	20.811327
1321.383199	-3.006700	3.445200	-10.357000	26.318147	0.000772	20.804024
1322.383645	-3.006600	3.444800	-10.356000	26.320653	0.000772	20.803697
1323.383249	-2.987500	3.445600	-10.293000	26.288055	0.000771	20.790378
1324.383997	-3.000800	3.444900	-10.336000	26.271426	0.000771	20.786468
1325.382373	-3.003800	3.444300	-10.345000	26.246615	0.000769	20.774811
1326.386712	-2.987700	3.444800	-10.291000	26.202684	0.000771	20.796573
1327.384594	-3.015700	3.442700	-10.381000	26.192488	0.000771	20.792965
1328.380940	-3.006200	3.443200	-10.350000	26.197531	0.000767	20.792817
1329.385611	-3.025200	3.442200	-10.411000	26.199443	0.000767	20.804222
1330.389127	-3.006300	3.440800	-10.343000	26.214751	0.000768	20.788784
1331.382333	-2.992900	3.441400	-10.298000	26.214451	0.000767	20.798440
1332.383261	-3.001100	3.442100	-10.329000	26.223771	0.000767	20.795952
1333.383823	-2.979100	3.441400	-10.252000	26.186323	0.000766	20.798625
1334.391232	-3.003500	3.439600	-10.330000	26.182831	0.000766	20.777571
1335.389630	-3.007000	3.441100	-10.346000	26.163012	0.000764	20.795589
1336.383470	-2.987200	3.440100	-10.276000	26.164857	0.000766	20.783218
1337.386278	-2.976400	3.440500	-10.239000	26.164735	0.000764	20.776931
1338.396801	-2.993200	3.439000	-10.293000	26.154881	0.000764	20.803065
1339.384713	-3.004500	3.439200	-10.333000	26.177684	0.000764	20.786624
1340.389174	-3.014100	3.438000	-10.361000	26.152080	0.000763	20.791717
1341.391314	-3.011700	3.437100	-10.350000	26.170312	0.000763	20.808140
1342.387589	-2.992000	3.437100	-10.283000	26.217350	0.000760	20.803250
1343.390075	-3.002300	3.436800	-10.317000	26.207050	0.000760	20.793373
1344.388234	-2.990900	3.437300	-10.279000	26.235918	0.000760	20.806262
1345.390972	-3.002100	3.435300	-10.312000	26.246047	0.000760	20.795104
1346.394250	-3.004500	3.434900	-10.319000	26.252978	0.000759	20.822931
1347.388948	-2.980300	3.434700	-10.235000	26.274259	0.000760	20.816817
1348.396354	-2.999400	3.434700	-10.301000	26.322114	0.000760	20.801373
1349.396998	-3.017900	3.432900	-10.359000	26.337396	0.000759	20.818627
1350.388070	-2.997000	3.433000	-10.288000	26.372608	0.000759	20.795696
1351.387973	-2.992100	3.435000	-10.276000	26.393477	0.000758	20.835635
1352.395140	-3.046700	3.431700	-10.454000	26.385157	0.000758	20.823006
1353.392006	-2.990200	3.433100	-10.263000	26.408224	0.000756	20.818689
1354.390636	-3.005500	3.431200	-10.312000	26.362916	0.000756	20.815352
1355.392548	-3.000900	3.431600	-10.297000	26.335375	0.000756	20.816596
1356.389250	-2.995700	3.430600	-10.276000	26.308666	0.000755	20.817255
1357.396955	-3.007600	3.431700	-10.320000	26.333549	0.000754	20.817132
1358.390478	-3.000400	3.430900	-10.293000	26.327943	0.000753	20.825722
1359.394357	-2.997300	3.429600	-10.279000	26.319108	0.000754	20.803093
1360.391135	-3.004100	3.428700	-10.299000	26.319904	0.000753	20.807213
1361.396437	-2.997700	3.429600	-10.280000	26.311044	0.000753	20.813481
1362.397466	-2.985600	3.429000	-10.236000	26.346534	0.000753	20.812164
1363.397564	-3.000400	3.427000	-10.280000	26.368187	0.000752	20.813537
1364.391064	-2.975600	3.427800	-10.199000	26.387885	0.000749	20.819584
1365.395966	-3.015700	3.426100	-10.332000	26.395464	0.000749	20.840003
1366.396917	-2.973100	3.428700	-10.192000	26.364450	0.000750	20.815471
1367.399037	-3.011400	3.426100	-10.317000	26.323037	0.000750	20.829326
1368.400648	-3.008700	3.426800	-10.309000	26.298926	0.000748	20.822165
1369.402706	-2.991400	3.425200	-10.245000	26.263595	0.000749	20.815583
1370.398205	-2.984500	3.425900	-10.223000	26.290611	0.000747	20.812387
1371.400607	-3.005800	3.424500	-10.293000	26.317155	0.000745	20.819622
1372.404978	-3.022600	3.423700	-10.347000	26.328956	0.000744	20.815361
1373.400606	-3.001300	3.425300	-10.278000	26.382047	0.000743	20.805182
1374.403737	-3.006100	3.422700	-10.288000	26.401225	0.000747	20.845319
1375.404561	-3.005700	3.423400	-10.288000	26.427465	0.000744	20.828545
1376.406473	-2.988500	3.423100	-10.229000	26.444277	0.000742	20.827424
1377.401192	-2.994800	3.422400	-10.249000	26.458503	0.000743	20.835085
1378.400230	-2.983600	3.421900	-10.209000	26.461983	0.000741	20.812504
1379.400585	-2.985600	3.421100	-10.213000	26.497369	0.000743	20.832899
1380.397409	-3.004900	3.421400	-10.280000	26.539076	0.000740	20.839260
1381.399801	-2.995600	3.421000	-10.247000	26.522143	0.000740	20.836938
1382.401340	-2.991700	3.420700	-10.232000	26.533324	0.000741	20.826840
1383.404986	-3.012300	3.419400	-10.299000	26.506062	0.000740	20.821723
1384.404647	-2.991900	3.418600	-10.227000	26.488168	0.000739	20.817013
1385.402096	-2.988700	3.420300	-10.220000	26.446128	0.000739	20.826914
1386.400427	-3.000000	3.418200	-10.254000	26.434812	0.000739	20.829765
1387.399808	-3.014300	3.418500	-10.303000	26.457334	0.000739	20.820159
1388.400422	-2.993500	3.418500	-10.232000	26.477667	0.000737	20.824476
1389.401754	-2.995400	3.418000	-10.236000	26.478562	0.000736	20.842918
1390.400449	-2.995400	3.416700	-10.234000	26.500335	0.000735	20.837302
1391.408470	-3.023300	3.416100	-10.327000	26.524018	0.000735	20.841668
1392.406707	-3.003300	3.415900	-10.257000	26.557117	0.000737	20.843171
1393.404139	-2.995600	3.416800	-10.235000	26.588825	0.000734	20.835215
1394.410721	-3.014600	3.415400	-10.295000	26.579116	0.000733	20.822611
1395.407200	-3.010200	3.415100	-10.279000	26.571489	0.000733	20.844341
1396.406131	-3.002700	3.414100	-10.250000	26.595373	0.000734	20.847961
1397.409139	-3.022300	3.414500	-10.319000	26.556639	0.000732	20.854069
1398.402681	-3.014900	3.413500	-10.290000	26.545056	0.000733	20.854753
1399.402621	-2.998800	3.413800	-10.236000	26.544682	0.000731	20.878084
1400.404516	-3.018600	3.413100	-10.301000	26.556750	0.000730	20.838534
1401.405813	-3.002300	3.412600	-10.245000	26.573927	0.000731	20.828300
1402.408106	-3.005100	3.411700	-10.252000	26.600862	0.000731	20.844944
1403.406932	-3.001300	3.412000	-10.240000	26.605285	0.000731	20.850339
1404.405552	-2.991700	3.412200	-10.208000	26.591330	0.000729	20.861915
1405.410096	-3.011700	3.409800	-10.268000	26.559482	0.000730	20.848393
1406.413945	-3.010400	3.410100	-10.265000	26.490938	0.000729	20.852512
1407.406753	-3.004300	3.409600	-10.242000	26.413572	0.000728	20.841607
1408.402646	-2.993000	3.410100	-10.205000	26.364067	0.000729	20.865345
1409.403051	-3.008800	3.409900	-10.259000	26.337640	0.000728	20.864864
1410.405681	-3.026600	3.407700	-10.312000	26.336697	0.000726	20.849218
1411.406646	-3.007500	3.408200	-10.249000	26.354999	0.000726	20.854335
1412.407753	-3.019200	3.407500	-10.287000	26.347058	0.000726	20.850148
1413.405284	-3.015600	3.407600	-10.275000	26.308990	0.000725	20.850770
1414.407589	-3.007900	3.407600	-10.249000	26.327341	0.000726	20.875375
1415.414054	-3.008200	3.407200	-10.248000	26.341966	0.000723	20.872056
1416.411758	-2.975800	3.408200	-10.141000	26.360544	0.000723	20.853270
1417.409685	-2.996400	3.406800	-10.206000	26.380058	0.000724	20.870985
1418.409850	-2.991000	3.405700	-10.186000	26.387435	0.000722	20.866546
1419.405258	-3.012300	3.404600	-10.254000	26.439353	0.000721	20.847131
1420.409406	-3.005600	3.404800	-10.233000	26.439353	0.000721	20.874630
1421.409949	-3.011600	3.404500	-10.252000	26.443648	0.000722	20.878473
1422.408551	-2.996900	3.404800	-10.203000	26.456857	0.000720	20.865197
1423.411632	-3.012300	3.403500	-10.250000	26.487128	0.000720	20.864329
1424.403785	-2.988200	3.402300	-10.166000	26.494497	0.000719	20.875055
1425.412264	-3.005800	3.401900	-10.224000	26.476897	0.000718	20.870641
1426.410715	-2.992400	3.402700	-10.181000	26.471432	0.000719	20.873682
1427.417083	-3.005600	3.402100	-10.223000	26.481963	0.000718	20.881422
1428.408012	-2.992000	3.402500	-10.179000	26.494749	0.000717	20.875308
1429.410701	-2.992000	3.402400	-10.180000	26.526679	0.000718	20.870893
1430.412698	-2.996400	3.402900	-10.195000	26.534324	0.000717	20.879052
1431.412823	-3.001500	3.401000	-10.207000	26.517569	0.000715	20.894451
1432.413866	-3.010600	3.399800	-10.234000	26.502921	0.000716	20.845118
1433.413919	-3.011500	3.398600	-10.233000	26.509501	0.000713	20.846516
1434.417962	-2.982900	3.400600	-10.142000	26.499056	0.000713	20.873000
1435.414535	-2.996300	3.399600	-10.185000	26.515615	0.000714	20.871152
1436.415572	-3.003000	3.398800	-10.204000	26.532891	0.000713	20.852957
1437.413849	-2.974700	3.399400	-10.111000	26.577212	0.000714	20.858628
1438.412572	-3.007000	3.397600	-10.216000	26.585727	0.000713	20.860549
1439.412768	-2.990000	3.398400	-10.160000	26.561499	0.000712	20.843782
1440.412829	-3.004200	3.396700	-10.203000	26.507008	0.000710	20.865346
1441.414407	-2.995500	3.397100	-10.175000	26.466342	0.000710	20.836800
1442.415025	-2.995600	3.397700	-10.177000	26.490976	0.000710	20.859189
1443.419386	-3.025000	3.394400	-10.267000	26.499394	0.000709	20.846788
1444.417193	-3.007800	3.395600	-10.212000	26.506023	0.000706	20.862459
1445.416060	-2.996000	3.395700	-10.173000	26.519335	0.000708	20.837909
1446.416114	-3.014500	3.394500	-10.232000	26.527630	0.000708	20.866160
1447.423881	-2.995500	3.394400	-10.167000	26.509834	0.000706	20.840686
1448.418146	-3.016900	3.394400	-10.239000	26.526987	0.000706	20.864091
1449.419992	-3.000600	3.393200	-10.181000	26.541739	0.000707	20.840514
1450.419242	-3.006400	3.392900	-10.200000	26.585686	0.000705	20.870939
1451.417758	-2.988300	3.393800	-10.141000	26.556368	0.000707	20.840521
1452.421415	-3.000400	3.392800	-10.179000	26.546052	0.000704	20.838686
1453.419115	-2.978600	3.393400	-10.106000	26.510846	0.000705	20.841229
1454.420973	-3.008000	3.390400	-10.198000	26.447903	0.000704	20.840552
1455.419805	-3.003900	3.390900	-10.185000	26.449992	0.000703	20.863514
1456.418126	-2.989600	3.391500	-10.138000	26.380815	0.000702	20.834290
1457.420898	-2.972000	3.392000	-10.080000	26.398424	0.000703	20.825435
1458.427132	-2.990300	3.390400	-10.137000	26.390166	0.000701	20.837049
1459.423034	-2.996900	3.391400	-10.162000	26.402701	0.000703	20.846803
1460.421572	-2.994300	3.390700	-10.152000	26.389908	0.000703	20.830626
1461.428452	-3.006700	3.388700	-10.188000	26.404361	0.000702	20.829980
1462.421008	-3.023900	3.387600	-10.242000	26.396862	0.000701	20.825288
1463.420262	-2.997000	3.388600	-10.155000	26.407510	0.000701	20.822713
1464.426287	-2.968800	3.388900	-10.060000	26.354543	0.000699	20.822584
1465.427417	-3.007200	3.388000	-10.187000	26.337313	0.000699	20.832769
1466.428236	-3.008900	3.388600	-10.194000	26.335175	0.000699	20.821611
1467.424076	-2.994400	3.387300	-10.141000	26.376832	0.000697	20.824123
1468.424443	-3.007700	3.386300	-10.184000	26.412117	0.000697	20.833981
1469.424649	-3.019300	3.386100	-10.222000	26.419708	0.000697	20.827386
1470.423085	-3.023900	3.384200	-10.233000	26.436715	0.000696	20.826936
1471.423972	-2.998700	3.385900	-10.152000	26.479043	0.000696	20.824910
1472.423392	-3.020800	3.384500	-10.223000	26.509031	0.000697	20.821862
1473.421666	-2.977700	3.385000	-10.078000	26.520045	0.000695	20.845735
1474.424669	-3.021500	3.383600	-10.222000	26.517533	0.000693	20.825193
1475.426034	-2.989300	3.384000	-10.115000	26.480071	0.000695	20.827841
1476.423848	-3.009700	3.382600	-10.180000	26.495974	0.000697	20.834342
1477.426568	-2.995200	3.382300	-10.130000	26.544034	0.000694	20.819588
1478.425220	-3.014700	3.381700	-10.194000	26.561896	0.000694	20.837069
1479.422812	-3.035700	3.380500	-10.262000	26.534709	0.000691	20.819224
1480.429311	-3.004100	3.382600	-10.161000	26.499300	0.000690	20.852857
1481.439191	-3.020500	3.380100	-10.209000	26.514927	0.000692	20.821151
1482.424123	-2.998600	3.380200	-10.134000	26.548124	0.000692	20.852622
1483.428214	-2.994900	3.380500	-10.123000	26.556682	0.000688	20.817603
1484.425110	-2.988800	3.379300	-10.099000	26.586245	0.000688	20.821242
1485.428954	-2.991400	3.379800	-10.110000	26.598202	0.000689	20.822357
1486.430910	-3.015100	3.380200	-10.190000	26.621565	0.000688	20.815497
1487.429677	-2.982800	3.379500	-10.080000	26.614882	0.000688	20.820632
1488.432013	-2.994900	3.380100	-10.121000	26.589283	0.000690	20.831408
1489.430800	-2.994000	3.379100	-10.116000	26.568822	0.000688	20.834548
1490.427978	-3.013900	3.377600	-10.179000	26.557618	0.000686	20.841777
1491.435132	-2.994100	3.378800	-10.115000	26.577110	0.000687	20.819172
1492.430653	-3.010900	3.376700	-10.166000	26.570029	0.000684	20.832442
1493.433330	-3.002100	3.376400	-10.135000	26.529627	0.000685	20.831185
1494.435223	-3.025600	3.375200	-10.211000	26.467011	0.000682	20.808549
1495.433135	-3.009000	3.376600	-10.158000	26.465222	0.000685	20.827614
1496.433816	-3.009800	3.374600	-10.157000	26.457772	0.000683	20.820600
1497.434278	-2.991900	3.375100	-10.097000	26.471911	0.000681	20.822958
1498.431685	-3.003500	3.375900	-10.137000	26.440923	0.000682	20.831166
1499.431284	-2.997300	3.375100	-10.116000	26.463389	0.000683	20.824349
1500.439786	-3.002100	3.373300	-10.126000	26.485652	0.000681	20.841510
1501.432003	-3.010100	3.373600	-10.154000	26.542852	0.000681	20.845901
1502.435885	-3.023400	3.372300	-10.195000	26.559453	0.000680	20.823708
1503.433996	-2.998500	3.373500	-10.115000	26.576979	0.000681	20.828049
1504.432395	-3.004500	3.372200	-10.131000	26.594100	0.000677	20.824397
1505.436790	-2.986400	3.373900	-10.074000	26.591711	0.000678	20.849970
1506.438079	-2.996500	3.372800	-10.106000	26.605635	0.000679	20.819871
1507.438704	-3.011200	3.371500	-10.150000	26.613996	0.000676	20.822586
1508.436448	-2.997700	3.371500	-10.106000	26.584727	0.000679	20.809760
1509.436392	-3.014100	3.369700	-10.155000	26.578810	0.000675	20.827044
1510.435314	-3.005600	3.369900	-10.128000	26.569994	0.000673	20.836675
1511.439247	-3.004400	3.369600	-10.123000	26.539359	0.000674	20.836699
1512.437829	-2.987500	3.370200	-10.067000	26.534562	0.000674	20.814335
1513.442822	-3.015300	3.368200	-10.154000	26.527235	0.000673	20.813608
1514.441550	-3.022900	3.368300	-10.180000	26.540216	0.000675	20.820966
1515.437855	-3.008800	3.367100	-10.130000	26.522315	0.000671	20.811034
1516.439083	-3.016100	3.368800	-10.159000	26.501235	0.000672	20.826354
1517.445429	-2.997400	3.368500	-10.095000	26.463490	0.000673	20.812597
1518.439845	-2.986500	3.368400	-10.059000	26.447133	0.000673	20.822709
1519.443827	-3.017400	3.366100	-10.156000	26.477593	0.000670	20.829617
1520.440693	-3.001300	3.366500	-10.101000	26.504451	0.000671	20.805405
1521.437644	-3.025300	3.364700	-10.178000	26.535633	0.000671	20.812092
1522.445863	-2.995600	3.365200	-10.079000	26.588659	0.000669	20.817505
1523.448321	-3.008300	3.366400	-10.125000	26.610325	0.000669	20.801353
1524.447967	-3.001200	3.363600	-10.092000	26.593167	0.000670	20.817769
1525.439175	-2.998000	3.364700	-10.087000	26.554243	0.000667	20.823213
1526.437746	-2.998800	3.364100	-10.087000	26.544258	0.000666	20.818391
1527.440615	-3.017900	3.363400	-10.149000	26.534199	0.000665	20.814444
1528.443229	-3.000500	3.363500	-10.092000	26.530174	0.000666	20.825571
1529.439428	-3.008500	3.363600	-10.118000	26.509964	0.000665	20.815688
1530.438441	-2.990800	3.362500	-10.054000	26.532079	0.000664	20.825589
1531.440601	-3.009200	3.361800	-10.115000	26.536888	0.000662	20.800551
1532.440634	-3.017800	3.360600	-10.140000	26.548858	0.000662	20.812110
1533.437881	-2.985200	3.362200	-10.036000	26.599053	0.000664	20.798556
1534.440876	-3.009600	3.360500	-10.112000	26.609368	0.000662	20.808926
1535.437743	-3.007800	3.360800	-10.107000	26.629779	0.000662	20.800521
1536.441494	-3.000700	3.360300	-10.082000	26.614581	0.000659	20.827442
1537.441694	-2.966400	3.361100	-9.968600	26.631132	0.000661	20.823218
1538.441532	-3.007400	3.358800	-10.099000	26.639622	0.000661	20.819425
1539.438912	-2.994800	3.360200	-10.062000	26.676062	0.000660	20.813384
1540.442606	-3.018300	3.358600	-10.137000	26.703190	0.000659	20.817423
1541.438138	-3.002800	3.358600	-10.084000	26.725185	0.000660	20.812509
1542.440714	-2.998500	3.358400	-10.069000	26.698418	0.000659	20.805040
1543.440457	-3.002100	3.358400	-10.081000	26.676025	0.000656	20.808131
1544.437200	-3.037500	3.356000	-10.192000	26.639407	0.000657	20.813993
1545.441084	-2.993500	3.357000	-10.049000	26.596105	0.000657	20.801757
1546.442076	-3.007200	3.356700	-10.093000	26.552067	0.000656	20.795895
1547.448362	-3.004100	3.356000	-10.081000	26.563234	0.000657	20.799534
1548.441124	-2.988700	3.356300	-10.030000	26.583070	0.000655	20.814257
1549.440120	-3.000300	3.355800	-10.067000	26.627597	0.000654	20.807336
1550.438235	-3.010900	3.354200	-10.098000	26.666144	0.000653	20.801043
1551.442167	-2.991400	3.355800	-10.036000	26.704120	0.000652	20.812194
1552.442391	-2.992500	3.356200	-10.041000	26.705308	0.000653	20.796794
1553.438813	-2.998700	3.354200	-10.057000	26.722899	0.000652	20.791245
1554.438455	-2.978800	3.353800	-9.988500	26.713117	0.000651	20.803222
1555.442143	-2.986100	3.354200	-10.015000	26.674915	0.000651	20.809860
1556.448197	-2.993000	3.353200	-10.035000	26.680170	0.000649	20.791910
1557.437979	-3.003500	3.351400	-10.065000	26.663540	0.000649	20.815020
1558.438750	-3.006400	3.353000	-10.080000	26.616637	0.000648	20.806276
1559.445065	-3.019200	3.351500	-10.117000	26.614751	0.000648	20.806276
1560.440573	-3.021500	3.350400	-10.121000	26.547398	0.000648	20.816332
1561.438473	-3.004400	3.350700	-10.066000	26.540169	0.000647	20.783461
1562.439167	-2.988600	3.351800	-10.015000	26.546123	0.000648	20.789921
1563.439134	-3.013000	3.350200	-10.093000	26.579932	0.000645	20.799250
1564.438566	-3.007100	3.350600	-10.074000	26.600361	0.000646	20.789440
1565.443737	-2.982300	3.350700	-9.991700	26.573794	0.000643	20.787864
1566.437763	-3.020100	3.347500	-10.109000	26.560433	0.000645	20.819478
1567.441248	-2.991400	3.350700	-10.022000	26.533044	0.000644	20.794317
1568.439697	-3.029100	3.347000	-10.137000	26.509379	0.000642	20.781435
1569.442628	-2.987500	3.348800	-10.003000	26.457439	0.000644	20.791817
1570.440272	-2.995100	3.348300	-10.027000	26.456483	0.000643	20.795123
1571.442866	-3.010300	3.346700	-10.074000	26.461850	0.000643	20.800518
1572.443828	-2.992400	3.346500	-10.012000	26.478900	0.000643	20.791102
1573.443018	-3.003500	3.345600	-10.048000	26.528253	0.000643	20.789975
1574.444287	-2.992700	3.347800	-10.018000	26.556506	0.000642	20.792771
1575.445135	-3.009900	3.345900	-10.070000	26.575766	0.000641	20.788423
1576.451295	-3.005400	3.345800	-10.055000	26.634492	0.000640	20.790560
1577.442245	-2.981700	3.345400	-9.973900	26.678730	0.000639	20.804686
1578.450475	-3.009600	3.343700	-10.062000	26.738026	0.000640	20.804083
1579.443656	-3.000100	3.343400	-10.029000	26.781935	0.000638	20.783743
1580.445906	-2.946600	3.346400	-9.858400	26.813868	0.000639	20.806841
1581.447306	-2.982200	3.345300	-9.975100	26.807217	0.000638	20.792093
1582.449426	-3.006500	3.343800	-10.051000	26.759726	0.000637	20.803140
1583.444551	-2.984500	3.343600	-9.977300	26.736642	0.000635	20.793208
1584.452404	-2.988800	3.341600	-9.986200	26.760069	0.000635	20.778355
1585.447845	-3.000700	3.343100	-10.031000	26.770990	0.000636	20.775110
1586.445950	-3.018000	3.340000	-10.078000	26.775528	0.000635	20.799587
1587.450294	-3.006100	3.342700	-10.047000	26.797760	0.000634	20.795388
1588.446433	-3.000000	3.342300	-10.025000	26.807670	0.000634	20.789230
1589.452548	-2.985300	3.341900	-9.975300	26.803970	0.000633	20.790252
1590.448681	-2.996900	3.340400	-10.010000	26.787728	0.000632	20.802370
1591.449684	-2.982900	3.341700	-9.966500	26.742405	0.000630	20.785726
1592.451644	-3.008800	3.338500	-10.044000	26.730192	0.000630	20.780085
1593.449694	-2.995300	3.339000	-9.999600	26.695292	0.000627	20.787672
1594.445277	-3.007100	3.338400	-10.037000	26.697772	0.000628	20.796804
1595.447005	-3.019800	3.337600	-10.078000	26.708222	0.000628	20.790714
1596.460525	-2.986800	3.338900	-9.971900	26.731999	0.000629	20.794230
1597.449036	-3.000000	3.337700	-10.012000	26.728495	0.000627	20.765577
1598.459889	-3.020000	3.336400	-10.075000	26.720502	0.000627	20.772240
1599.450524	-3.020100	3.336900	-10.077000	26.751482	0.000627	20.783946
1600.450303	-3.004700	3.339200	-10.032000	26.735974	0.000626	20.785898
1601.453121	-3.000700	3.336300	-10.010000	26.740182	0.000623	20.765472
1602.452878	-3.012700	3.335100	-10.047000	26.712632	0.000626	20.780448
1603.455503	-3.000900	3.335100	-10.007000	26.701270	0.000624	20.779931
1604.448152	-3.008400	3.334200	-10.030000	26.679029	0.000623	20.769900
1605.454430	-2.979900	3.335000	-9.937200	26.709312	0.000624	20.769998
1606.450495	-2.990900	3.335400	-9.973600	26.758458	0.000621	20.779106
1607.454934	-3.001500	3.334300	-10.007000	26.781769	0.000620	20.785947
1608.456166	-2.993300	3.333000	-9.975900	26.801900	0.000622	20.774894
1609.457612	-2.981200	3.334900	-9.941100	26.770622	0.000618	20.776637
1610.454834	-2.986000	3.332400	-9.949600	26.793718	0.000620	20.768090
1611.458113	-2.988300	3.332600	-9.957800	26.797436	0.000617	20.776095
1612.454706	-2.970800	3.333900	-9.903600	26.855342	0.000618	20.763194
1613.456367	-2.989600	3.331400	-9.957900	26.813794	0.000617	20.774525
1614.458506	-2.982100	3.332100	-9.936600	26.843356	0.000617	20.773903
1615.451319	-3.004500	3.329800	-10.004000	26.834715	0.000616	20.769955
1616.456663	-2.978800	3.329900	-9.918500	26.856236	0.000616	20.768835
1617.451959	-2.966600	3.329700	-9.876500	26.896269	0.000615	20.783959
1618.450913	-3.008200	3.328500	-10.010000	26.906300	0.000612	20.776027
1619.456459	-3.018700	3.327900	-10.044000	26.913691	0.000614	20.751216
1620.451901	-3.026300	3.328100	-10.071000	26.901235	0.000614	20.773779
1621.452374	-3.015800	3.329000	-10.038000	26.893268	0.000614	20.758181
1622.452952	-3.001700	3.328200	-9.989000	26.922700	0.000614	20.773077
1623.452656	-3.005900	3.327600	-10.001000	26.938266	0.000610	20.764549
1624.456914	-3.008700	3.326100	-10.006000	26.935535	0.000609	20.765121
1625.461964	-2.996700	3.327900	-9.971900	26.954990	0.000608	20.760029
1626.451089	-2.973500	3.327200	-9.892400	26.969313	0.000610	20.758785
1627.455395	-3.008800	3.326100	-10.007000	26.958242	0.000607	20.751919
1628.453136	-2.988400	3.324700	-9.934300	27.002594	0.000608	20.751475
1629.456667	-2.978900	3.327100	-9.908600	27.001798	0.000606	20.743562
1630.456549	-2.984700	3.325400	-9.924600	26.945786	0.000608	20.758360
1631.457305	-2.990200	3.324500	-9.939300	26.940551	0.000607	20.736024
1632.457492	-3.005400	3.324600	-9.990800	26.932388	0.000606	20.757215
1633.452321	-2.981400	3.323800	-9.908800	26.910097	0.000606	20.774155
1634.458024	-2.997500	3.323700	-9.962000	26.927299	0.000605	20.737398
1635.455953	-2.999200	3.322600	-9.963400	26.950502	0.000603	20.766895
1636.459544	-2.992200	3.321900	-9.938100	26.963428	0.000605	20.747177
1637.457247	-2.972100	3.322800	-9.874100	26.940924	0.000604	20.749677
1638.459116	-3.003500	3.321200	-9.974000	26.900690	0.000601	20.751894
1639.462121	-2.981100	3.321000	-9.899100	26.930520	0.000603	20.765768
1640.462683	-2.993100	3.321000	-9.939000	26.931738	0.000600	20.757984
1641.461413	-3.031000	3.320200	-10.063000	26.935039	0.000600	20.752294
1642.459365	-2.996200	3.320000	-9.945900	26.928738	0.000601	20.726042
1643.462038	-3.000700	3.320000	-9.961600	26.940673	0.000600	20.732828
1644.460233	-2.990700	3.319900	-9.927300	26.987604	0.000598	20.750151
1645.470000	-2.996100	3.319300	-9.944000	27.006734	0.000597	20.743310
1646.459163	-2.997100	3.317100	-9.939800	27.010855	0.000599	20.749351
1647.461763	-2.998700	3.318000	-9.948800	27.000972	0.000596	20.742731
1648.463046	-2.989900	3.319000	-9.922000	26.976306	0.000595	20.733099
1649.463316	-3.025700	3.318000	-10.038000	26.955186	0.000597	20.746949
1650.463725	-2.990900	3.317000	-9.919900	26.903618	0.000597	20.736819
1651.462458	-3.019900	3.316100	-10.014000	26.877137	0.000596	20.750970
1652.468734	-3.007200	3.316900	-9.972500	26.885154	0.000594	20.739116
1653.459857	-3.004900	3.316000	-9.963300	26.901407	0.000593	20.745976
1654.464050	-2.995300	3.315800	-9.930300	26.904334	0.000595	20.729004
1655.461064	-3.007100	3.314900	-9.967700	26.900292	0.000594	20.723043
1656.462822	-3.004800	3.314100	-9.957400	26.888099	0.000594	20.728801
1657.467594	-2.994200	3.313600	-9.921200	26.837397	0.000592	20.739935
1658.462907	-2.993700	3.314600	-9.922500	26.850424	0.000592	20.724582
1659.465783	-3.019500	3.312600	-10.002000	26.858814	0.000590	20.729700
1660.471713	-3.007400	3.313100	-9.962400	26.856536	0.000589	20.740686
1661.466208	-2.999600	3.313800	-9.938700	26.881847	0.000589	20.737213
1662.467694	-2.993600	3.312600	-9.914900	26.918082	0.000589	20.747571
1663.468998	-3.014800	3.310900	-9.981200	26.921077	0.000588	20.732563
1664.462787	-3.027700	3.309800	-10.021000	26.935425	0.000585	20.714748
1665.468484	-3.008300	3.310400	-9.956900	26.952351	0.000586	20.736037
1666.465861	-3.013700	3.310000	-9.975000	26.982234	0.000586	20.719145
1667.473926	-2.995300	3.309800	-9.912900	26.998737	0.000585	20.753760
1668.470506	-3.001600	3.310200	-9.934400	26.985430	0.000584	20.736585
1669.469410	-2.965400	3.310700	-9.817000	26.971040	0.000583	20.735864
1670.472584	-2.998200	3.310300	-9.924500	26.947287	0.000584	20.738531
1671.471446	-3.016400	3.308700	-9.978200	26.984120	0.000584	20.736215
1672.472125	-2.999000	3.308700	-9.921700	26.983250	0.000581	20.736763
1673.475134	-2.994300	3.308300	-9.904700	27.007915	0.000581	20.725057
1674.474134	-2.970300	3.308900	-9.825800	27.004719	0.000583	20.730852
1675.476262	-2.982900	3.308500	-9.868300	26.981340	0.000580	20.741006
1676.472900	-2.992700	3.308500	-9.900800	26.940544	0.000580	20.726060
1677.472828	-3.001000	3.306200	-9.920500	26.937017	0.000581	20.722039
1678.478023	-2.991600	3.305500	-9.887500	26.900378	0.000577	20.721707
1679.477121	-2.999200	3.306800	-9.916900	26.888889	0.000579	20.738605
1680.469076	-2.990600	3.307600	-9.889800	26.847919	0.000578	20.736763
1681.470929	-3.006400	3.304400	-9.933200	26.821462	0.000578	20.739085
1682.470762	-3.013400	3.304300	-9.956300	26.818504	0.000576	20.733266
1683.472594	-3.029900	3.303000	-10.007000	26.795494	0.000576	20.728622
1684.476367	-2.971600	3.306300	-9.824300	26.797307	0.000577	20.739929
1685.473784	-2.988000	3.304300	-9.872600	26.781965	0.000574	20.746789
1686.477178	-3.007800	3.303200	-9.934900	26.796639	0.000576	20.731196
1687.477573	-3.014100	3.302100	-9.951800	26.799340	0.000574	20.727274
1688.477019	-3.026100	3.300500	-9.986800	26.804877	0.000574	20.731418
1689.477911	-2.999400	3.302300	-9.903100	26.802341	0.000576	20.727920
1690.476275	-3.011700	3.301900	-9.943200	26.799071	0.000571	20.728899
1691.480380	-3.018100	3.300400	-9.959800	26.819098	0.000573	20.743821
1692.480661	-3.006500	3.300400	-9.921100	26.805649	0.000570	20.726030
1693.474840	-3.010800	3.299900	-9.934600	26.776685	0.000571	20.711607
1694.478068	-3.003200	3.299800	-9.908400	26.792524	0.000570	20.730377
1695.480843	-3.011300	3.299000	-9.933500	26.797852	0.000570	20.715819
1696.479279	-3.015400	3.300100	-9.949300	26.817040	0.000568	20.718042
1697.481515	-2.995300	3.301200	-9.887200	26.850124	0.000570	20.720961
1698.480990	-2.994400	3.300200	-9.880900	26.830189	0.000566	20.732687
1699.480561	-3.000900	3.297600	-9.893100	26.818461	0.000566	20.735593
1700.483612	-3.001800	3.298800	-9.901500	26.827494	0.000567	20.720968
1701.481741	-3.008600	3.297000	-9.918700	26.837318	0.000567	20.743648
1702.478688	-2.956300	3.298800	-9.750100	26.883709	0.000564	20.731024
1703.483445	-3.036600	3.295500	-10.005000	26.908829	0.000564	20.731628
1704.479306	-2.985200	3.295900	-9.837200	26.914457	0.000563	20.739658
1705.484326	-3.003200	3.296100	-9.898000	26.958162	0.000563	20.727181
1706.491205	-3.005800	3.294500	-9.900500	26.982167	0.000563	20.730457
1707.478697	-3.014200	3.294800	-9.930100	27.011222	0.000562	20.742607
1708.482705	-3.002600	3.295500	-9.894200	26.978290	0.000561	20.719447
1709.482065	-3.004100	3.295300	-9.898600	26.947966	0.000560	20.748698
1710.482716	-2.983900	3.293600	-9.826400	26.902179	0.000559	20.733475
1711.486067	-3.014800	3.293000	-9.926800	26.866561	0.000559	20.734645
1712.483450	-3.003700	3.293000	-9.890400	26.917562	0.000558	20.729503
1713.481032	-3.002000	3.292600	-9.883200	26.943196	0.000557	20.723037
1714.482701	-3.009400	3.291400	-9.904200	26.994070	0.000557	20.753809
1715.480366	-3.009300	3.291700	-9.905000	27.001566	0.000557	20.730999
1716.481019	-2.965300	3.293600	-9.764600	26.963220	0.000556	20.741277
1717.481159	-3.002100	3.290900	-9.878300	26.939669	0.000556	20.735138
1718.483878	-2.966000	3.293000	-9.765500	26.910011	0.000554	20.732816
1719.483237	-3.007300	3.290000	-9.893700	26.919368	0.000554	20.726578
1720.483366	-2.995400	3.291900	-9.858400	26.949105	0.000550	20.726609
1721.485355	-3.012200	3.289000	-9.905700	26.991388	0.000551	20.755379
1722.480632	-3.010600	3.288900	-9.899900	27.014743	0.000553	20.753735
1723.482538	-2.996900	3.290900	-9.860400	27.065614	0.000551	20.742306
1724.480862	-3.002300	3.289000	-9.872700	27.063851	0.000550	20.738635
1725.480760	-3.015100	3.287700	-9.911600	27.073182	0.000551	20.751814
1726.483918	-3.013000	3.288900	-9.908000	27.089310	0.000550	20.739110
1727.483331	-2.997500	3.288500	-9.856300	27.112197	0.000548	20.753594
1728.484309	-2.999800	3.286300	-9.857200	27.138090	0.000547	20.733167
1729.485090	-2.979100	3.288500	-9.795700	27.117028	0.000548	20.747546
1730.483632	-3.000800	3.287500	-9.862900	27.059020	0.000546	20.761753
1731.481765	-3.004200	3.286100	-9.870900	27.031031	0.000547	20.753045
1732.485724	-2.987500	3.287200	-9.819600	27.020830	0.000545	20.745631
1733.491585	-2.998300	3.286600	-9.853100	27.042836	0.000546	20.740735
1734.487083	-2.995500	3.285300	-9.839900	27.072496	0.000547	20.731683
1735.486412	-3.014100	3.285600	-9.901300	27.101458	0.000544	20.725722
1736.488854	-3.003800	3.284300	-9.863700	27.077462	0.000544	20.747109
1737.487825	-3.018200	3.284900	-9.912900	27.098133	0.000540	20.755096
1738.490862	-2.989800	3.283500	-9.815700	27.074064	0.000544	20.756494
1739.487606	-2.998700	3.283000	-9.843800	27.103552	0.000545	20.761969
1740.490341	-2.993200	3.283100	-9.825200	27.128312	0.000542	20.744671
1741.486806	-3.003200	3.283100	-9.858800	27.166578	0.000538	20.760873
1742.486618	-3.006100	3.282800	-9.866600	27.160253	0.000540	20.737441
1743.487795	-3.022000	3.280300	-9.911300	27.174421	0.000538	20.731776
1744.486370	-3.005300	3.282100	-9.862100	27.179576	0.000538	20.760669
1745.487988	-2.978600	3.281600	-9.773400	27.174770	0.000539	20.752516
1746.489429	-2.992500	3.281200	-9.817700	27.208785	0.000537	20.751642
1747.489330	-3.000500	3.279800	-9.840500	27.196884	0.000538	20.722600
1748.490327	-3.007600	3.280700	-9.865500	27.192641	0.000535	20.758163
1749.493773	-3.016700	3.279700	-9.892700	27.169688	0.000535	20.758785
1750.489793	-3.000500	3.279000	-9.836800	27.133939	0.000535	20.740372
1751.491041	-3.005000	3.277400	-9.848000	27.122943	0.000534	20.762979
1752.492888	-2.984600	3.278800	-9.783600	27.116887	0.000534	20.748353
1753.489825	-3.002200	3.278900	-9.842800	27.169866	0.000534	20.752799
1754.490495	-3.010700	3.277400	-9.865800	27.154902	0.000533	20.759087
1755.489329	-2.992800	3.277300	-9.807300	27.153666	0.000532	20.751679
1756.491662	-2.997500	3.276700	-9.821600	27.190486	0.000533	20.755521
1757.500894	-3.004800	3.275300	-9.839300	27.207255	0.000531	20.762431
1758.494804	-3.023800	3.275100	-9.902200	27.174880	0.000531	20.767326
1759.490668	-3.001800	3.275400	-9.831200	27.158625	0.000530	20.748132
1760.493037	-2.986400	3.275000	-9.779500	27.112601	0.000529	20.751629
1761.493568	-2.999600	3.275400	-9.823700	27.093817	0.000528	20.773989
1762.490609	-2.982300	3.275900	-9.768600	27.110942	0.000527	20.754228
1763.494545	-2.992600	3.274100	-9.795900	27.171256	0.000526	20.787389
1764.491785	-2.968200	3.273500	-9.714800	27.194110	0.000526	20.748261
1765.494904	-3.005600	3.273700	-9.838800	27.182515	0.000527	20.786385
1766.491021	-3.013400	3.273000	-9.860200	27.175027	0.000525	20.767948
1767.493063	-2.995800	3.272900	-9.804500	27.176196	0.000526	20.759641
1768.495714	-3.013300	3.270700	-9.854300	27.170258	0.000523	20.765048
1769.493800	-2.990400	3.271400	-9.781500	27.135469	0.000522	20.779371
1770.496853	-2.986800	3.272300	-9.772300	27.140508	0.000523	20.774008
1771.490788	-3.025700	3.269700	-9.891500	27.139565	0.000520	20.757886
1772.497199	-3.014600	3.269000	-9.854000	27.120561	0.000523	20.784766
1773.495528	-2.970600	3.272000	-9.718900	27.077407	0.000521	20.759382
1774.490728	-3.018200	3.268400	-9.862700	27.051599	0.000521	20.764721
1775.506439	-2.980800	3.269200	-9.742400	27.046290	0.000520	20.763650
1776.506706	-2.986200	3.269400	-9.762300	27.049247	0.000519	20.777530
1777.491169	-3.029600	3.269000	-9.901600	27.069092	0.000518	20.769986
1778.498302	-2.985900	3.269000	-9.759800	27.069864	0.000517	20.763176
1779.496201	-3.011700	3.267600	-9.839900	27.084902	0.000516	20.771661
1780.495074	-2.990000	3.267800	-9.769900	27.112467	0.000516	20.775676
1781.504364	-2.992300	3.267600	-9.776300	27.096419	0.000515	20.770916
1782.492673	-3.010300	3.265700	-9.829700	27.121749	0.000517	20.793072
1783.496438	-2.991700	3.266800	-9.772200	27.118602	0.000517	20.762406
1784.493047	-3.013900	3.265300	-9.840000	27.147960	0.000514	20.776760
1785.501602	-3.013900	3.265300	-9.839800	27.163982	0.000514	20.763952
1786.501567	-2.994300	3.265300	-9.776300	27.173686	0.000514	20.794101
1787.495705	-2.999300	3.264900	-9.791300	27.190657	0.000512	20.774660
1788.504727	-3.005400	3.264000	-9.807800	27.177213	0.000511	20.777259
1789.495963	-2.991100	3.265500	-9.766000	27.204561	0.000512	20.799077
1790.497970	-3.001400	3.263300	-9.793600	27.228921	0.000510	20.763835
1791.502602	-2.987300	3.264200	-9.750000	27.228798	0.000508	20.786946
1792.497786	-3.023100	3.263600	-9.865600	27.216395	0.000509	20.773047
1793.496346	-2.991500	3.263000	-9.759800	27.194196	0.000509	20.780117
1794.500964	-3.013600	3.262400	-9.829200	27.178670	0.000509	20.770190
1795.500142	-2.971700	3.262900	-9.695900	27.131300	0.000506	20.773755
1796.501844	-3.009400	3.260900	-9.812700	27.133584	0.000506	20.787906
1797.502762	-3.003300	3.261200	-9.792400	27.108083	0.000504	20.760836
1798.498223	-3.007800	3.261600	-9.809600	27.127713	0.000506	20.769199
1799.500640	-3.002200	3.260300	-9.786800	27.158136	0.000505	20.782728
1800.498578	-3.007700	3.259500	-9.802800	27.183997	0.000504	20.763694
1801.501096	-3.012900	3.258000	-9.815200	27.196749	0.000504	20.783633
1802.503947	-2.996300	3.259100	-9.764900	27.151291	0.000503	20.795758
1803.502682	-2.983600	3.258700	-9.721500	27.135991	0.000502	20.777999
1804.503414	-2.982100	3.258900	-9.717500	27.126366	0.000502	20.785388
1805.506402	-2.982100	3.257400	-9.712700	27.111702	0.000500	20.767795
1806.506952	-3.005100	3.258000	-9.789200	27.147587	0.000499	20.789188
1807.501225	-3.014400	3.256300	-9.813600	27.228401	0.000499	20.773744
1808.505503	-3.001800	3.255800	-9.772300	27.222598	0.000499	20.787347
1809.501219	-2.994500	3.257300	-9.752400	27.233073	0.000498	20.780813
1810.503223	-2.989400	3.256200	-9.733500	27.223528	0.000499	20.768842
1811.501784	-2.976600	3.256700	-9.692800	27.209735	0.000498	20.779151
1812.507129	-2.980100	3.254900	-9.698100	27.217823	0.000497	20.765474
1813.508645	-2.967400	3.254700	-9.656300	27.251127	0.000494	20.803240
1814.506494	-3.030000	3.254000	-9.858700	27.265721	0.000495	20.775247
1815.505811	-2.994000	3.254100	-9.740500	27.272614	0.000493	20.774594
1816.502379	-3.002900	3.252600	-9.766500	27.298075	0.000492	20.792618
1817.506490	-3.006300	3.252400	-9.776400	27.322592	0.000492	20.791202
1818.503384	-2.984200	3.253600	-9.707200	27.336488	0.000492	20.786214
1819.510143	-3.014100	3.251700	-9.800500	27.348131	0.000491	20.796504
1820.509282	-3.009100	3.250900	-9.780900	27.404862	0.000492	20.799047
1821.511218	-2.985900	3.252500	-9.710500	27.425858	0.000490	20.810212
1822.509476	-3.007500	3.251300	-9.776800	27.405065	0.000490	20.802096
1823.508999	-2.984400	3.251900	-9.703900	27.388728	0.000489	20.786609
1824.508743	-2.979100	3.250600	-9.682100	27.377018	0.000488	20.786209
1825.505847	-3.004900	3.249500	-9.762500	27.340137	0.000490	20.793678
1826.508251	-2.981900	3.249700	-9.689400	27.331683	0.000487	20.790390
1827.508668	-3.009300	3.248900	-9.775300	27.307662	0.000487	20.794676
1828.509887	-2.991600	3.247700	-9.714900	27.267902	0.000485	20.776492
1829.510901	-3.010300	3.247200	-9.773800	27.228752	0.000484	20.791640
1830.510776	-3.012900	3.247900	-9.785200	27.248134	0.000483	20.796912
1831.514640	-2.974300	3.248600	-9.661400	27.239649	0.000483	20.802127
1832.511468	-3.021100	3.245800	-9.805100	27.233693	0.000483	20.797558
1833.514149	-3.014200	3.246900	-9.786300	27.254269	0.000483	20.786012
1834.511275	-3.015600	3.244000	-9.780900	27.232578	0.000481	20.798334
1835.514653	-3.018500	3.245900	-9.796600	27.278285	0.000481	20.800212
1836.512617	-3.000100	3.245100	-9.734000	27.286500	0.000481	20.802312
1837.512529	-3.018600	3.244200	-9.791700	27.321332	0.000481	20.805108
1838.509578	-2.977400	3.244700	-9.659400	27.317911	0.000478	20.809726
1839.513711	-3.006200	3.243200	-9.748700	27.366435	0.000479	20.795477
1840.516876	-2.994300	3.243300	-9.710300	27.403670	0.000477	20.797374
1841.514621	-3.009800	3.243700	-9.760900	27.434808	0.000478	20.798353
1842.519944	-3.014700	3.243500	-9.776900	27.455172	0.000476	20.787546
1843.513785	-2.991600	3.241800	-9.697200	27.462639	0.000477	20.795059
1844.513422	-3.013600	3.242200	-9.769100	27.418961	0.000475	20.816549
1845.513723	-3.008100	3.241300	-9.749500	27.361061	0.000475	20.794812
1846.513509	-3.000900	3.241300	-9.725300	27.363142	0.000471	20.793113
1847.514441	-3.004900	3.240600	-9.736000	27.336031	0.000474	20.804720
1848.515411	-2.996100	3.242200	-9.712500	27.312934	0.000472	20.815626
1849.512217	-2.997200	3.240400	-9.711100	27.326499	0.000470	20.795607
1850.516098	-3.000500	3.239300	-9.716400	27.333747	0.000470	20.820915
1851.516404	-3.010100	3.239600	-9.750200	27.346902	0.000470	20.807122
1852.514805	-2.994600	3.239600	-9.699200	27.341613	0.000468	20.842578
1853.514929	-2.997300	3.240700	-9.711700	27.372551	0.000468	20.803526
1854.520588	-2.987000	3.238100	-9.670700	27.376150	0.000467	20.812836
1855.512776	-3.001100	3.238300	-9.717600	27.412118	0.000468	20.820096
1856.516441	-3.018000	3.236400	-9.766500	27.374858	0.000467	20.827184
1857.523694	-3.002500	3.237100	-9.718300	27.370488	0.000467	20.827529
1858.514253	-3.016300	3.235600	-9.758400	27.320605	0.000465	20.798686
1859.515755	-3.013400	3.236300	-9.749900	27.325685	0.000465	20.815650
1860.515457	-3.009100	3.234700	-9.732200	27.311544	0.000463	20.815176
1861.516891	-3.020700	3.234600	-9.769800	27.321100	0.000462	20.813409
1862.518762	-3.005000	3.234400	-9.718400	27.313185	0.000461	20.818723
1863.514881	-3.013200	3.233700	-9.742000	27.310577	0.000460	20.827479
1864.517019	-3.013900	3.234800	-9.747800	27.345513	0.000460	20.815207
1865.513730	-2.975900	3.234600	-9.624200	27.377888	0.000459	20.800835
1866.521885	-2.986400	3.233600	-9.654300	27.350698	0.000460	20.810940
1867.519469	-2.999200	3.234000	-9.698300	27.399300	0.000457	20.810047
1868.519141	-2.997300	3.233200	-9.689800	27.434820	0.000457	20.827763
1869.519916	-2.985500	3.232000	-9.648100	27.482170	0.000458	20.818027
1870.519186	-3.018300	3.231500	-9.753100	27.531734	0.000456	20.823323
1871.523193	-2.993500	3.231700	-9.672800	27.511176	0.000456	20.809752
1872.520748	-3.012200	3.231500	-9.732200	27.526850	0.000453	20.834530
1873.520300	-2.994800	3.230000	-9.671900	27.569441	0.000454	20.813373
1874.522008	-3.011400	3.229500	-9.724100	27.559245	0.000454	20.815916
1875.522937	-2.996300	3.229900	-9.676100	27.564355	0.000453	20.822954
1876.519437	-2.983700	3.228100	-9.630000	27.594441	0.000451	20.829518
1877.519280	-3.010000	3.228400	-9.715000	27.625175	0.000451	20.837209
1878.520767	-2.996600	3.228600	-9.672600	27.652108	0.000450	20.827326
1879.523603	-2.987200	3.226800	-9.638100	27.670485	0.000449	20.825904
1880.523698	-3.025200	3.227000	-9.760000	27.686733	0.000449	20.831347
1881.524092	-3.000700	3.227400	-9.683300	27.691047	0.000449	20.832843
1882.524218	-2.998000	3.226800	-9.673300	27.726906	0.000446	20.837634
1883.521676	-3.004500	3.227100	-9.693600	27.727824	0.000447	20.839980
1884.527427	-2.986600	3.225200	-9.631500	27.731091	0.000447	20.843742
1885.523493	-2.984100	3.225900	-9.625300	27.709821	0.000446	20.822338
1886.523356	-2.980600	3.224700	-9.611000	27.708059	0.000445	20.839531
1887.529865	-2.992500	3.225500	-9.651600	27.701144	0.000444	20.854383
1888.523740	-2.998600	3.223800	-9.666000	27.716289	0.000444	20.849235
1889.527148	-2.988000	3.223700	-9.631600	27.730229	0.000445	20.843348
1890.524803	-3.003100	3.223200	-9.679000	27.749993	0.000440	20.819143
1891.526971	-3.005900	3.222300	-9.685100	27.720811	0.000441	20.842406
1892.529036	-2.978200	3.222300	-9.595400	27.751658	0.000440	20.839783
1893.525626	-2.985000	3.221900	-9.615400	27.790837	0.000438	20.848866
1894.527520	-2.996000	3.222200	-9.652100	27.766809	0.000439	20.827529
1895.525751	-2.997200	3.220000	-9.650500	27.702673	0.000437	20.854974
1896.525305	-2.982500	3.221600	-9.608100	27.627060	0.000438	20.839580
1897.526423	-2.990600	3.221900	-9.633900	27.592036	0.000437	20.854598
1898.528111	-2.991000	3.220800	-9.631800	27.547470	0.000436	20.853853
1899.525198	-2.988900	3.220200	-9.623700	27.594515	0.000435	20.847135
1900.524986	-2.993200	3.220800	-9.639500	27.614802	0.000432	20.838625
1901.526206	-3.017200	3.219400	-9.712300	27.667799	0.000430	20.852123
1902.528467	-3.011700	3.216900	-9.687400	27.742546	0.000433	20.857640
1903.531866	-2.995500	3.218100	-9.639600	27.793181	0.000432	20.847905
1904.528350	-2.993600	3.216100	-9.626400	27.815747	0.000431	20.863976
1905.535765	-2.987900	3.216700	-9.611000	27.852568	0.000431	20.870213
1906.532021	-2.986600	3.215800	-9.603100	27.848879	0.000429	20.853699
1907.530705	-2.978500	3.215600	-9.576900	27.814382	0.000428	20.845534
1908.530457	-2.989600	3.214700	-9.610000	27.760671	0.000429	20.855017
1909.532972	-3.006300	3.215400	-9.665700	27.743758	0.000426	20.857911
1910.529906	-3.009500	3.215600	-9.676000	27.746756	0.000427	20.875151
1911.534121	-3.009700	3.213200	-9.669200	27.725064	0.000425	20.869444
1912.537106	-2.996300	3.213500	-9.627300	27.659837	0.000424	20.879671
1913.538951	-3.019400	3.213400	-9.701000	27.628859	0.000423	20.841390
1914.538358	-2.999600	3.211800	-9.632300	27.600016	0.000423	20.876851
1915.535589	-3.004800	3.212800	-9.653000	27.604998	0.000422	20.855786
1916.538911	-3.004000	3.213100	-9.650800	27.647139	0.000421	20.853619
1917.535987	-3.030700	3.210700	-9.729100	27.711344	0.000422	20.861328
1918.541137	-2.993500	3.212000	-9.614100	27.801716	0.000421	20.884468
1919.542125	-2.980200	3.211300	-9.568800	27.797868	0.000421	20.867793
1920.538789	-2.992600	3.210100	-9.604600	27.792171	0.000419	20.857320
1921.536051	-2.985900	3.210400	-9.585200	27.770229	0.000418	20.883600
1922.538913	-2.987000	3.210100	-9.587500	27.766337	0.000415	20.861667
1923.557974	-2.998700	3.210300	-9.625000	27.791351	0.000416	20.896321
1924.546117	-3.020600	3.207800	-9.688700	27.852061	0.000414	20.874444
1925.549249	-2.992600	3.207000	-9.595100	27.877703	0.000413	20.877018
1926.539169	-3.016700	3.209100	-9.678100	27.920078	0.000414	20.866562
1927.540885	-3.004900	3.208000	-9.638600	27.921840	0.000412	20.877818
1928.546497	-3.004900	3.207600	-9.636800	27.965106	0.000414	20.893864
1929.542129	-2.991100	3.206200	-9.588400	27.988611	0.000411	20.878169
1930.540764	-2.971700	3.207200	-9.529100	28.010983	0.000411	20.873662
1931.543637	-2.998800	3.206300	-9.613800	27.984671	0.000409	20.891272
1932.558426	-2.999200	3.206400	-9.615900	27.957777	0.000410	20.883169
1933.543415	-3.022700	3.203400	-9.682300	27.956033	0.000408	20.880940
1934.548987	-2.989000	3.203900	-9.575200	27.979587	0.000407	20.895638
1935.549593	-2.996300	3.203300	-9.596800	27.937025	0.000408	20.880300
1936.545363	-3.048500	3.200900	-9.756000	27.909622	0.000406	20.870263
1937.545593	-3.007400	3.203800	-9.633500	27.873598	0.000405	20.868145
1938.545735	-3.022600	3.202100	-9.678100	27.907744	0.000405	20.890657
1939.541073	-2.999200	3.202500	-9.603900	27.909102	0.000404	20.876378
1940.542886	-2.997300	3.202600	-9.597900	27.918059	0.000402	20.858841
1941.542877	-3.015000	3.200700	-9.649300	27.941461	0.000402	20.872911
1942.545450	-3.003700	3.201200	-9.614700	27.912051	0.000401	20.875078
1943.548113	-2.994000	3.201200	-9.583500	27.858504	0.000402	20.865756
1944.545283	-3.003900	3.200300	-9.612000	27.777413	0.000400	20.871864
1945.548904	-3.002600	3.198900	-9.604100	27.744903	0.000400	20.879450
1946.548518	-3.006100	3.199100	-9.616000	27.717648	0.000398	20.878102
1947.546301	-3.004800	3.199100	-9.612300	27.731832	0.000397	20.843540
1948.543903	-2.988900	3.200700	-9.566000	27.747699	0.000397	20.862351
1949.548200	-2.993500	3.198400	-9.573200	27.787668	0.000395	20.861797
1950.548378	-2.987700	3.197800	-9.553800	27.820281	0.000393	20.863798
1951.548741	-3.014300	3.197200	-9.636600	27.826284	0.000396	20.849925
1952.547897	-2.995000	3.200000	-9.583600	27.834862	0.000394	20.849549
1953.549905	-2.992000	3.198000	-9.566100	27.862267	0.000392	20.838725
1954.547764	-3.006300	3.195000	-9.603700	27.873941	0.000391	20.876550
1955.549031	-2.991700	3.195800	-9.558800	27.892314	0.000394	20.851421
1956.549954	-2.983300	3.193900	-9.527800	27.921969	0.000391	20.854241
1957.546803	-3.022700	3.193500	-9.652200	27.958407	0.000390	20.839235
1958.550527	-3.017200	3.193000	-9.632500	27.960211	0.000389	20.856224
1959.552028	-3.017300	3.192200	-9.631500	27.952356	0.000388	20.843576
1960.553018	-2.993100	3.192400	-9.553600	27.916180	0.000388	20.868804
1961.556849	-2.993700	3.192200	-9.555600	27.911065	0.000386	20.864604
1962.550659	-3.007700	3.193000	-9.602800	27.959269	0.000387	20.835836
1963.552441	-3.028500	3.191000	-9.663000	27.966598	0.000386	20.845583
1964.549762	-3.015800	3.192400	-9.626100	27.987099	0.000386	20.850571
1965.552672	-3.041900	3.189900	-9.701100	27.997462	0.000382	20.845829
1966.556793	-2.969500	3.190000	-9.470000	27.941209	0.000381	20.851322
1967.552072	-3.027000	3.188900	-9.652400	27.887847	0.000382	20.872054
1968.554815	-2.970900	3.191400	-9.479500	27.900964	0.000380	20.844955
1969.552655	-3.005600	3.190100	-9.586300	27.882371	0.000381	20.850897
1970.553239	-2.995300	3.188100	-9.548500	27.924457	0.000378	20.820712
1971.549590	-2.986500	3.188600	-9.521800	27.935592	0.000378	20.854677
1972.555794	-3.002700	3.188000	-9.571600	27.939734	0.000378	20.828027
1973.548863	-3.006900	3.188900	-9.588100	27.926984	0.000378	20.849333
1974.552626	-3.006300	3.186700	-9.579800	27.926164	0.000375	20.837602
1975.557456	-3.023000	3.186000	-9.629700	27.940248	0.000375	20.823329
1976.553216	-2.997300	3.187700	-9.553900	27.947143	0.000373	20.842122
1977.553904	-3.014300	3.185000	-9.599200	27.985446	0.000374	20.845115
1978.554996	-2.987200	3.185000	-9.513000	27.962144	0.000372	20.842522
1979.551762	-2.997000	3.186300	-9.548900	27.937568	0.000371	20.837227
1980.553202	-2.979900	3.183000	-9.483600	27.965411	0.000371	20.823526
1981.555289	-3.006400	3.182200	-9.566100	27.997670	0.000371	20.837978
1982.552008	-3.024900	3.182700	-9.626800	28.011122	0.000368	20.847251
1983.552867	-3.023600	3.181500	-9.618800	28.005451	0.000369	20.850552
1984.554723	-2.972700	3.183200	-9.461100	27.982363	0.000368	20.832054
1985.551069	-2.996800	3.181900	-9.533100	27.971259	0.000368	20.823723
1986.553159	-3.010600	3.179700	-9.572000	28.000740	0.000368	20.814517
1987.557222	-3.014400	3.179900	-9.583900	28.010871	0.000365	20.845102
1988.562956	-3.007400	3.182100	-9.568300	27.979885	0.000366	20.833827
1989.556338	-2.992600	3.180500	-9.515500	28.009409	0.000364	20.839363
1990.549994	-2.992800	3.178800	-9.512500	28.016377	0.000363	20.836420
1991.553566	-3.025400	3.176900	-9.610200	27.993442	0.000362	20.818076
1992.555695	-3.003700	3.178000	-9.544700	27.997877	0.000363	20.833445
1993.556469	-2.959900	3.178700	-9.407700	28.021827	0.000361	20.799233
1994.553143	-2.977800	3.180300	-9.469400	28.067316	0.000361	20.827953
1995.555399	-2.995200	3.177200	-9.514900	28.078449	0.000359	20.815453
1996.551285	-2.999200	3.177500	-9.528600	28.066765	0.000357	20.799898
1997.552124	-3.003500	3.175800	-9.537200	28.083453	0.000359	20.816696
1998.551620	-2.990700	3.175400	-9.494900	28.093161	0.000356	20.822675
1999.551172	-2.975900	3.175800	-9.449800	28.127269	0.000356	20.831407
2000.550194	-3.008000	3.175500	-9.549900	28.131086	0.000356	20.829560
2001.551005	-2.998800	3.175100	-9.521000	28.192589	0.000355	20.801862
2002.551184	-3.007500	3.173600	-9.543600	28.209569	0.000354	20.825594
2003.551665	-2.988900	3.175300	-9.489200	28.203049	0.000353	20.837996
2004.553485	-2.966200	3.173300	-9.411400	28.208743	0.000354	20.800581
2005.550737	-2.990000	3.172900	-9.485000	28.230554	0.000353	20.824436
2006.552233	-3.018300	3.170600	-9.568000	28.188882	0.000353	20.834639
2007.552712	-3.006300	3.172200	-9.535600	28.168606	0.000349	20.814227
2008.553929	-3.024200	3.170500	-9.587100	28.144261	0.000352	20.821961
2009.556905	-2.987000	3.170500	-9.469500	28.148194	0.000349	20.818808
2010.554094	-3.011400	3.167700	-9.537000	28.168269	0.000348	20.818629
2011.556617	-3.000700	3.169100	-9.508900	28.164575	0.000346	20.814436
2012.557754	-3.010500	3.168000	-9.536900	28.146775	0.000347	20.810267
2013.558554	-3.002700	3.167400	-9.510000	28.136162	0.000344	20.827083
2014.561985	-3.010700	3.166900	-9.534100	28.113603	0.000342	20.832822
2015.563446	-3.004400	3.167300	-9.514700	28.103559	0.000342	20.832194
2016.558627	-3.008100	3.166400	-9.523500	28.142053	0.000343	20.820685
2017.561442	-2.989500	3.165800	-9.463000	28.134590	0.000342	20.809854
2018.555093	-2.986300	3.168100	-9.459900	28.133299	0.000340	20.804761
2019.560132	-3.009500	3.165800	-9.527400	28.097998	0.000338	20.810476
2020.558117	-3.005100	3.164400	-9.507300	28.074643	0.000338	20.807828
2021.557454	-2.997700	3.164000	-9.484700	28.064837	0.000340	20.803172
2022.561678	-2.989000	3.164300	-9.456900	28.087972	0.000337	20.813185
2023.559651	-2.990700	3.163600	-9.460400	28.098506	0.000336	20.809564
2024.557289	-3.008000	3.161800	-9.509200	28.095949	0.000334	20.791817
2025.561409	-2.978800	3.162400	-9.419300	28.079610	0.000335	20.813776
2026.561438	-2.991200	3.161400	-9.455300	28.073260	0.000334	20.805962
2027.558178	-3.004200	3.159700	-9.490800	28.064959	0.000332	20.806140
2028.558126	-3.008700	3.160100	-9.506100	28.076056	0.000335	20.805457
2029.559700	-3.034300	3.158700	-9.583000	28.120551	0.000331	20.799988
2030.564612	-2.988500	3.159700	-9.442000	28.167057	0.000334	20.809348
2031.560693	-3.012100	3.158500	-9.512900	28.184948	0.000331	20.802704
2032.562625	-3.028500	3.156400	-9.558300	28.200490	0.000331	20.810290
2033.562888	-2.997400	3.159800	-9.470000	28.172849	0.000328	20.823240
2034.563932	-2.992700	3.156300	-9.445000	28.146077	0.000328	20.804348
2035.566512	-2.996800	3.157100	-9.459500	28.167773	0.000327	20.811491
2036.564141	-3.001000	3.155300	-9.467800	28.164335	0.000326	20.807556
2037.559510	-3.010000	3.155600	-9.496400	28.140541	0.000327	20.812525
2038.574273	-2.990200	3.156800	-9.438800	28.114464	0.000327	20.813776
2039.564637	-3.002400	3.154200	-9.468900	28.067681	0.000325	20.787543
2040.565204	-2.982300	3.154000	-9.405300	28.059918	0.000323	20.787789
2041.567840	-2.996800	3.152400	-9.445000	28.065839	0.000324	20.831208
2042.567674	-3.014300	3.153200	-9.503200	28.066262	0.000321	20.812667
2043.567891	-2.979900	3.150700	-9.388000	28.111326	0.000321	20.821522
2044.564285	-2.982400	3.151400	-9.398200	28.112837	0.000321	20.796490
2045.560999	-3.009600	3.149800	-9.478300	28.134277	0.000321	20.812384
2046.564090	-2.993900	3.149500	-9.428400	28.170990	0.000318	20.791022
2047.564215	-2.984500	3.149200	-9.397100	28.190893	0.000321	20.789723
2048.564128	-2.999300	3.149500	-9.445300	28.211518	0.000318	20.809539
2049.565105	-3.004500	3.146800	-9.454300	28.274123	0.000317	20.801921
2050.568014	-2.990500	3.147700	-9.411600	28.308850	0.000315	20.803695
2051.565104	-2.983200	3.147500	-9.387900	28.346272	0.000316	20.808184
2052.569073	-2.997300	3.147400	-9.432800	28.414055	0.000315	20.795357
2053.567711	-2.997700	3.145700	-9.428400	28.428524	0.000313	20.792857
2054.562855	-3.001100	3.145800	-9.439900	28.464358	0.000313	20.804286
2055.566246	-3.017600	3.144500	-9.487200	28.403543	0.000311	20.808005
2056.564656	-3.004700	3.144800	-9.448500	28.350534	0.000311	20.805364
2057.570673	-3.022500	3.143300	-9.499700	28.289138	0.000311	20.798073
2058.568544	-2.990500	3.143400	-9.398300	28.269677	0.000309	20.792703
2059.570060	-2.997000	3.142300	-9.415500	28.300245	0.000310	20.810678
2060.567495	-2.958600	3.144100	-9.299700	28.290380	0.000308	20.790788
2061.571231	-3.031500	3.140500	-9.519700	28.297144	0.000308	20.804711
2062.571356	-2.996400	3.140400	-9.408500	28.284062	0.000307	20.789169
2063.569729	-3.009400	3.138800	-9.445000	28.288074	0.000305	20.784673
2064.570610	-2.994100	3.139300	-9.398000	28.234882	0.000306	20.788491
2065.578938	-3.010900	3.138400	-9.448700	28.147532	0.000305	20.799175
2066.571893	-3.002200	3.138400	-9.421600	28.118061	0.000304	20.783257
2067.580132	-2.993700	3.138400	-9.394200	28.121236	0.000303	20.791669
2068.573304	-3.017700	3.137400	-9.466000	28.134032	0.000301	20.786533
2069.571018	-2.999500	3.136600	-9.406100	28.171216	0.000302	20.795517
2070.575395	-3.035400	3.134000	-9.511300	28.211891	0.000300	20.777198
2071.570751	-3.016800	3.136800	-9.462100	28.266845	0.000300	20.776576
2072.569032	-3.019900	3.135300	-9.466700	28.317314	0.000298	20.780923
2073.576009	-2.999100	3.133400	-9.396500	28.302000	0.000298	20.781151
2074.568761	-2.994400	3.133100	-9.381100	28.296349	0.000298	20.768823
2075.571493	-3.003200	3.134000	-9.410000	28.272234	0.000298	20.782475
2076.572283	-2.946300	3.133900	-9.229800	28.225959	0.000295	20.768601
2077.571836	-2.971500	3.132700	-9.308000	28.175002	0.000294	20.787001
2078.577339	-2.993900	3.130900	-9.371900	28.145104	0.000293	20.780135
2079.571156	-2.995900	3.131700	-9.380300	28.184526	0.000294	20.786632
2080.577767	-3.002700	3.131800	-9.402700	28.228399	0.000294	20.775326
2081.575621	-3.017100	3.128700	-9.438600	28.255250	0.000293	20.773910
2082.573758	-3.015300	3.127700	-9.430200	28.240259	0.000291	20.794853
2083.573949	-2.991100	3.128300	-9.356100	28.195322	0.000290	20.778535
2084.575300	-3.020500	3.127200	-9.444000	28.146664	0.000288	20.770800
2085.571295	-3.025600	3.127000	-9.460100	28.121854	0.000288	20.767635
2086.574183	-2.986200	3.127700	-9.338800	28.153062	0.000288	20.772500
2087.575801	-2.989800	3.126900	-9.347700	28.222351	0.000287	20.757382
2088.571714	-2.986200	3.125300	-9.331400	28.245880	0.000286	20.751674
2089.576494	-2.993500	3.124400	-9.351700	28.263274	0.000287	20.777248
2090.574269	-2.989100	3.125000	-9.339200	28.200344	0.000288	20.779323
2091.582843	-3.025200	3.121200	-9.441200	28.171168	0.000286	20.761804
2092.570870	-2.999700	3.120700	-9.360500	28.153497	0.000284	20.762032
2093.573090	-3.018300	3.121300	-9.419500	28.190582	0.000284	20.769969
2094.573802	-3.000700	3.121000	-9.363800	28.203580	0.000285	20.774520
2095.577678	-3.029800	3.119600	-9.451100	28.249629	0.000282	20.754026
2096.576240	-3.000000	3.120300	-9.359900	28.327700	0.000283	20.766250
2097.577240	-2.984200	3.118100	-9.303600	28.370338	0.000281	20.783104
2098.582115	-2.997500	3.117700	-9.344000	28.386641	0.000281	20.751631
2099.579102	-2.978800	3.118100	-9.286500	28.382306	0.000281	20.756748
2100.576232	-2.993200	3.116700	-9.327500	28.336078	0.000280	20.762832
2101.574848	-2.982600	3.116700	-9.294700	28.312086	0.000281	20.758115
2102.574249	-2.985000	3.114900	-9.295700	28.231336	0.000279	20.751255
2103.574932	-3.008700	3.114400	-9.369400	28.224424	0.000278	20.746193
2104.576409	-2.995800	3.114300	-9.327700	28.209843	0.000278	20.764704
2105.574378	-3.001000	3.114200	-9.344500	28.235122	0.000276	20.751748
2106.574947	-2.986500	3.112900	-9.295900	28.241635	0.000276	20.757832
2107.574830	-3.019800	3.111700	-9.395600	28.244883	0.000277	20.769162
2108.574477	-3.022100	3.110900	-9.400900	28.266962	0.000274	20.759149
2109.575453	-2.965100	3.111200	-9.223000	28.307505	0.000276	20.744019
2110.578069	-2.998800	3.109600	-9.324400	28.331644	0.000275	20.750780
2111.578767	-3.004000	3.107700	-9.334200	28.297719	0.000274	20.761668
2112.575252	-3.005900	3.108700	-9.343900	28.312116	0.000274	20.747240
2113.578650	-2.973000	3.109200	-9.242500	28.338536	0.000272	20.764833
2114.578659	-2.988700	3.106800	-9.283900	28.380660	0.000270	20.769316
2115.578944	-2.967100	3.106900	-9.216600	28.356400	0.000270	20.756267
2116.577886	-2.974700	3.105800	-9.237900	28.358528	0.000269	20.756039
2117.581319	-3.011200	3.105300	-9.349200	28.379143	0.000269	20.759254
2118.578792	-2.999600	3.106000	-9.316200	28.454752	0.000266	20.750989
2119.579626	-3.024300	3.103400	-9.384100	28.433985	0.000268	20.752837
2120.579550	-2.983200	3.102200	-9.253000	28.428139	0.000269	20.755011
2121.578432	-2.978500	3.103100	-9.242100	28.438192	0.000266	20.758496
2122.584414	-3.014100	3.101400	-9.346800	28.429019	0.000265	20.730292
2123.578481	-2.985500	3.100400	-9.255000	28.445426	0.000265	20.752030
2124.584253	-3.003900	3.099900	-9.310600	28.436376	0.000263	20.748132
2125.586870	-2.980800	3.100000	-9.239700	28.397618	0.000263	20.742294
2126.578313	-3.004900	3.098600	-9.310400	28.378360	0.000262	20.759414
2127.587008	-3.018100	3.096200	-9.343400	28.359476	0.000265	20.749407
2128.582561	-2.980400	3.098100	-9.232300	28.319987	0.000262	20.731456
2129.582242	-2.995800	3.097000	-9.277000	28.317858	0.000261	20.756815
2130.584062	-3.006400	3.094600	-9.303100	28.334634	0.000261	20.734350
2131.581560	-2.980000	3.094600	-9.221300	28.333123	0.000260	20.748477
2132.580375	-2.987300	3.093600	-9.241000	28.329845	0.000261	20.745176
2133.581691	-2.992000	3.092800	-9.252500	28.324543	0.000258	20.761175
2134.584188	-3.013600	3.091500	-9.315800	28.324965	0.000259	20.736468
2135.587145	-3.014900	3.091300	-9.318100	28.370887	0.000258	20.749043
2136.585975	-3.027700	3.090900	-9.357000	28.415566	0.000257	20.731443
2137.586378	-2.990800	3.089400	-9.238700	28.470363	0.000258	20.735415
2138.586110	-3.016200	3.088400	-9.314200	28.547769	0.000256	20.728493
2139.584181	-2.995100	3.088600	-9.250000	28.561673	0.000256	20.749610
2140.583352	-3.021400	3.085900	-9.322300	28.542963	0.000256	20.754949
2141.585061	-3.008200	3.086900	-9.285400	28.534482	0.000254	20.759210
2142.582058	-3.013100	3.086200	-9.298500	28.554439	0.000254	20.729996
2143.588564	-2.998200	3.085200	-9.249300	28.531290	0.000254	20.752202
2144.583488	-2.974500	3.085500	-9.177000	28.536616	0.000254	20.749031
2145.586952	-3.009900	3.083100	-9.279300	28.560970	0.000252	20.741315
2146.583473	-2.987200	3.082900	-9.208900	28.580321	0.000254	20.765072
2147.597467	-2.996900	3.081800	-9.234500	28.568454	0.000251	20.742214
2148.593615	-3.026800	3.079500	-9.320400	28.570905	0.000252	20.754166
2149.588291	-2.993200	3.081200	-9.220300	28.593846	0.000252	20.744079
2150.586019	-3.024400	3.079400	-9.312300	28.590147	0.000250	20.740828
2151.586365	-2.989200	3.079100	-9.202900	28.624967	0.000249	20.738439
2152.588610	-2.999800	3.079100	-9.235600	28.594066	0.000249	20.756630
2153.589645	-2.994900	3.076500	-9.212900	28.627039	0.000246	20.749535
2154.594758	-3.011800	3.075800	-9.262900	28.635733	0.000248	20.749283
2155.589270	-3.005000	3.075400	-9.240900	28.669953	0.000248	20.744868
2156.590133	-3.003300	3.075700	-9.235000	28.655383	0.000247	20.744892
2157.591774	-2.993200	3.072600	-9.195900	28.612152	0.000247	20.742127
2158.591341	-2.991900	3.074100	-9.196600	28.542907	0.000247	20.749203
2159.589200	-2.999800	3.072500	-9.215500	28.518504	0.000245	20.743593
2160.591104	-2.980100	3.071800	-9.153300	28.477291	0.000243	20.761359
2161.586669	-3.001000	3.069600	-9.211500	28.491416	0.000243	20.755195
2162.590783	-2.988400	3.070200	-9.173400	28.534041	0.000241	20.746438
2163.597508	-3.038400	3.066300	-9.315100	28.581275	0.000244	20.753230
2164.594342	-3.007200	3.067000	-9.222200	28.643639	0.000246	20.741598
2165.591746	-3.010100	3.066100	-9.226800	28.670772	0.000243	20.750435
2166.592784	-3.019300	3.064400	-9.251300	28.638858	0.000240	20.752904
2167.594406	-3.015600	3.063800	-9.238100	28.591357	0.000242	20.744892
2168.591251	-2.975500	3.064400	-9.116100	28.561355	0.000242	20.756876
2169.593369	-2.987100	3.062600	-9.147300	28.522943	0.000241	20.741425
2170.593321	-3.020200	3.061300	-9.245000	28.517624	0.000240	20.761673
2171.592954	-3.001300	3.061100	-9.186300	28.529621	0.000240	20.759530
2172.592288	-3.015300	3.060900	-9.228700	28.578560	0.000239	20.751445
2173.593657	-2.992100	3.059700	-9.154300	28.583391	0.000238	20.739239
2174.596917	-2.997900	3.058700	-9.168500	28.616872	0.000241	20.746407
2175.592677	-3.010600	3.057600	-9.203900	28.581691	0.000237	20.755072
2176.590853	-2.987400	3.056700	-9.129800	28.582957	0.000238	20.740225
2177.599983	-2.997700	3.055800	-9.159300	28.575357	0.000238	20.753908
2178.595732	-3.029100	3.051900	-9.242300	28.565990	0.000237	20.753483
2179.598796	-3.006500	3.053900	-9.178800	28.624490	0.000238	20.741278
2180.592088	-3.021700	3.051400	-9.219400	28.646519	0.000236	20.752085
2181.597564	-3.035100	3.050300	-9.256900	28.716472	0.000237	20.722021
2182.593358	-3.030000	3.049600	-9.239200	28.772690	0.000235	20.726966
2183.598201	-3.027100	3.047700	-9.224200	28.811068	0.000236	20.741918
2184.599002	-2.978200	3.049600	-9.080800	28.827346	0.000235	20.750731
2185.595998	-2.992100	3.048300	-9.119900	28.875013	0.000236	20.750386
2186.596039	-2.992200	3.046400	-9.113700	28.878332	0.000234	20.730021
2187.596469	-2.973100	3.045700	-9.054300	28.862874	0.000234	20.746691
2188.599065	-2.978100	3.044300	-9.065200	28.813758	0.000234	20.746051
2189.598921	-2.985600	3.043900	-9.085800	28.781921	0.000234	20.744801
2190.611372	-2.997900	3.041800	-9.118100	28.721473	0.000236	20.758829
2191.595505	-2.978600	3.041500	-9.058900	28.658661	0.000233	20.742504
2192.598913	-2.992600	3.040100	-9.095700	28.600670	0.000233	20.741469
2193.599669	-3.007200	3.037800	-9.134300	28.538866	0.000231	20.734701
2194.600860	-3.000700	3.037900	-9.115100	28.584388	0.000234	20.754943
2195.601905	-3.004300	3.036000	-9.120500	28.634567	0.000233	20.772290
2196.595826	-2.996800	3.035500	-9.096100	28.694011	0.000233	20.734486
2197.601906	-3.030100	3.033600	-9.190300	28.762958	0.000232	20.745140
2198.609684	-2.993100	3.032600	-9.075800	28.795535	0.000232	20.745238
2199.599853	-2.996900	3.032900	-9.089100	28.821546	0.000230	20.742042
2200.602880	-2.982400	3.031800	-9.040800	28.794367	0.000231	20.770141
2201.605208	-2.977500	3.030400	-9.022800	28.742864	0.000231	20.733907
2202.598783	-3.005700	3.029100	-9.103300	28.664647	0.000231	20.757068
2203.597838	-3.030400	3.028100	-9.174600	28.675144	0.000232	20.740139
2204.599742	-2.994900	3.027200	-9.065700	28.659089	0.000230	20.772807
2205.601054	-2.994600	3.026200	-9.060700	28.646452	0.000230	20.758182
2206.604124	-2.993400	3.025000	-9.053700	28.641102	0.000230	20.773183
2207.601383	-3.001600	3.023200	-9.073300	28.642490	0.000230	20.749450
2208.604624	-3.006400	3.022700	-9.085600	28.657200	0.000229	20.765689
2209.599822	-2.999600	3.022800	-9.066800	28.671103	0.000228	20.774950
2210.599027	-2.991800	3.019900	-9.033900	28.685170	0.000229	20.758299
2211.600779	-2.983000	3.020700	-9.010500	28.725532	0.000228	20.762918
2212.599712	-3.000800	3.018900	-9.057800	28.756203	0.000227	20.772949
2213.599790	-3.027400	3.016300	-9.130500	28.823287	0.000229	20.746642
2214.601439	-3.016500	3.015200	-9.094700	28.812517	0.000227	20.785105
2215.603603	-3.012400	3.014000	-9.078100	28.815359	0.000226	20.725378
2216.602258	-3.007500	3.012300	-9.058800	28.821851	0.000226	20.758471
2217.603937	-2.983700	3.011300	-8.983900	28.864432	0.000227	20.774815
2218.604616	-2.988600	3.011200	-8.998700	28.839853	0.000227	20.771865
2219.607340	-3.027300	3.009000	-9.108600	28.767047	0.000226	20.773441
2220.602479	-3.014600	3.007300	-9.064600	28.699977	0.000227	20.755669
2221.607272	-2.981600	3.006900	-8.964400	28.702502	0.000227	20.755842
2222.608248	-2.992600	3.007100	-8.998300	28.703786	0.000226	20.782740
2223.604004	-2.975900	3.005900	-8.943300	28.643431	0.000227	20.763201
2224.603979	-2.986200	3.003700	-8.968200	28.648561	0.000225	20.770264
2225.605722	-2.990700	3.002200	-8.977500	28.653342	0.000226	20.762751
2226.605217	-3.006000	3.000300	-9.018500	28.712950	0.000225	20.771107
2227.604813	-3.023800	2.999000	-9.067400	28.762579	0.000225	20.782216
2228.606672	-3.002200	2.998600	-9.001300	28.800804	0.000225	20.752917
2229.602558	-3.001900	2.997500	-8.996300	28.797552	0.000225	20.786151
2230.610150	-2.994800	2.995500	-8.969800	28.815744	0.000224	20.767493
2231.607778	-2.997200	2.994700	-8.974800	28.857513	0.000224	20.767844
2232.607728	-2.988100	2.993100	-8.942500	28.880667	0.000224	20.753237
2233.612737	-2.991200	2.992000	-8.949300	28.940098	0.000223	20.777549
2234.609831	-2.971900	2.990400	-8.885400	28.976055	0.000223	20.760195
2235.611552	-3.002900	2.988800	-8.974200	29.040235	0.000224	20.774125
2236.604980	-3.014500	2.986700	-9.002500	29.040810	0.000224	20.775652
2237.608305	-2.978900	2.987600	-8.898700	29.028055	0.000224	20.766594
2238.614480	-3.015600	2.985100	-9.000800	28.954492	0.000224	20.782567
2239.608192	-3.030100	2.983200	-9.037500	28.901285	0.000223	20.757412
2240.609808	-2.998700	2.983100	-8.944400	28.816869	0.000224	20.794705
2241.612729	-3.012800	2.981100	-8.980400	28.771033	0.000223	20.779353
2242.611080	-2.987000	2.979900	-8.899900	28.747650	0.000224	20.787094
2243.611303	-2.998200	2.978500	-8.928800	28.766968	0.000222	20.777155
2244.616492	-3.011400	2.976500	-8.962300	28.835715	0.000223	20.779550
2245.610542	-2.996200	2.976500	-8.917100	28.851272	0.000223	20.793325
2246.612756	-2.986700	2.973100	-8.878800	28.833759	0.000223	20.783744
2247.611104	-2.985300	2.974000	-8.877300	28.804233	0.000222	20.755423
2248.612939	-2.989000	2.971500	-8.881200	28.846363	0.000223	20.778897
2249.612968	-3.019300	2.968700	-8.962400	28.892568	0.000223	20.791780
2250.614663	-3.028700	2.968200	-8.988400	28.952139	0.000221	20.778300
2251.614889	-3.006500	2.968200	-8.923000	29.001878	0.000222	20.767246
2252.613063	-2.998700	2.966700	-8.895100	29.063746	0.000222	20.780745
2253.615911	-3.022900	2.963500	-8.956700	29.082148	0.000222	20.772733
2254.614885	-3.006400	2.961900	-8.904000	29.113150	0.000223	20.788799
2255.619623	-2.988700	2.961000	-8.847600	29.156692	0.000221	20.791422
2256.616863	-2.965600	2.960900	-8.780300	29.147263	0.000221	20.775757
2257.619902	-3.000700	2.958000	-8.875800	29.113749	0.000221	20.794618
2258.624342	-3.021500	2.956300	-8.931200	29.087251	0.000220	20.772185
2259.618572	-2.974200	2.956200	-8.790900	29.109416	0.000220	20.789304
2260.618095	-2.993000	2.955400	-8.844100	29.154241	0.000220	20.798436
2261.620062	-3.008000	2.951500	-8.876100	29.168785	0.000220	20.775159
2262.625558	-2.978400	2.949800	-8.784500	29.167471	0.000221	20.792802
2263.619953	-2.980000	2.948500	-8.785700	29.232972	0.000220	20.796694
2264.619018	-3.006900	2.947000	-8.859900	29.252880	0.000221	20.774082
2265.628569	-2.989600	2.944800	-8.802500	29.254957	0.000221	20.789452
2266.623022	-3.005400	2.943100	-8.844300	29.271034	0.000220	20.771988
2267.619780	-3.001900	2.943600	-8.834800	29.225890	0.000218	20.801885
2268.624975	-2.985500	2.941300	-8.779500	29.190106	0.000220	20.789058
2269.625861	-3.040400	2.938500	-8.933100	29.201814	0.000221	20.799434
2270.629027	-3.012000	2.938300	-8.848100	29.220024	0.000219	20.792180
2271.623395	-3.019100	2.935300	-8.860700	29.289755	0.000219	20.790856
2272.620222	-2.989400	2.936000	-8.775500	29.248272	0.000219	20.803104
2273.624929	-3.021500	2.932700	-8.859300	29.252464	0.000219	20.792629
2274.622241	-3.015600	2.930500	-8.836400	29.284873	0.000219	20.803480
2275.628279	-2.967100	2.930100	-8.692900	29.302758	0.000219	20.807279
2276.623451	-3.002900	2.929300	-8.795800	29.308177	0.000218	20.810370
2277.627705	-3.001500	2.925300	-8.779000	29.328609	0.000216	20.826220
2278.626286	-2.981200	2.925800	-8.721600	29.356763	0.000217	20.794378
2279.626692	-2.984800	2.925000	-8.728900	29.350574	0.000217	20.794304
2280.623841	-3.001400	2.921900	-8.768100	29.328267	0.000218	20.796004
2281.625324	-2.972000	2.920900	-8.678200	29.324949	0.000219	20.808782
2282.625167	-2.955900	2.920000	-8.629700	29.352633	0.000217	20.815346
2283.622821	-3.003200	2.918300	-8.763000	29.362018	0.000218	20.823856
2284.631073	-2.983700	2.915100	-8.697100	29.382693	0.000217	20.799175
2285.626864	-2.993100	2.913300	-8.718700	29.392994	0.000216	20.821411
2286.628053	-3.018500	2.910100	-8.782800	29.404431	0.000216	20.815869
2287.630442	-3.004200	2.909400	-8.739100	29.418000	0.000219	20.810580
2288.631844	-2.989700	2.908900	-8.695100	29.367468	0.000218	20.797106
2289.628397	-3.028200	2.905200	-8.796700	29.325450	0.000217	20.793165
2290.633527	-3.014600	2.904600	-8.754600	29.336742	0.000218	20.819244
2291.630399	-3.032900	2.901800	-8.799600	29.353996	0.000217	20.809133
2292.632140	-3.001100	2.900300	-8.702500	29.360937	0.000216	20.813757
2293.633722	-2.982900	2.899700	-8.646700	29.324192	0.000218	20.851165
2294.633832	-2.975400	2.897100	-8.618500	29.292743	0.000217	20.810463
2295.633918	-3.007500	2.896200	-8.709500	29.249556	0.000217	20.792069
2296.629372	-2.977600	2.894000	-8.616100	29.187546	0.000216	20.803548
2297.632913	-2.972700	2.892600	-8.596600	29.140962	0.000217	20.812082
2298.639688	-2.978700	2.890700	-8.608300	29.114764	0.000214	20.819823
2299.632698	-2.999000	2.887200	-8.657600	29.106984	0.000217	20.816725
2300.633653	-2.985300	2.887400	-8.619000	29.146389	0.000217	20.823240
2301.634641	-2.993300	2.884900	-8.634800	29.182651	0.000218	20.797667
2302.636005	-3.002600	2.882200	-8.652700	29.170998	0.000216	20.827175
2303.638481	-3.002700	2.879700	-8.646000	29.171890	0.000215	20.825229
2304.638750	-3.010800	2.876900	-8.660200	29.160548	0.000219	20.815697
2305.634877	-2.998600	2.874300	-8.618100	29.147006	0.000217	20.817224
2306.642990	-2.992900	2.874300	-8.601900	29.166500	0.000217	20.814582
2307.636909	-3.026900	2.871900	-8.691200	29.211958	0.000217	20.818665
2308.641470	-3.015900	2.870000	-8.655100	29.255568	0.000217	20.831319
2309.643135	-3.002800	2.868100	-8.611700	29.251682	0.000215	20.812230
2310.635815	-3.038500	2.865700	-8.706100	29.277950	0.000215	20.820210
2311.641604	-3.031000	2.863800	-8.679400	29.331487	0.000215	20.808732
2312.639394	-3.030500	2.861400	-8.670400	29.351338	0.000218	20.825894
2313.639824	-3.019900	2.861000	-8.637800	29.312790	0.000217	20.831614
2314.635140	-2.971300	2.859200	-8.494600	29.291790	0.000216	20.806657
2315.640934	-3.018600	2.854900	-8.615800	29.280401	0.000218	20.816041
2316.636377	-3.002600	2.854000	-8.567700	29.307756	0.000217	20.821799
2317.642295	-3.010200	2.851400	-8.582300	29.297503	0.000217	20.829958
2318.639658	-3.003600	2.849900	-8.558900	29.300100	0.000214	20.816928
2319.640399	-3.007800	2.848900	-8.568200	29.289260	0.000214	20.820703
2320.641965	-3.001400	2.844800	-8.537600	29.297827	0.000216	20.810844
2321.640947	-2.967200	2.844700	-8.439400	29.298144	0.000216	20.840561
2322.648424	-3.005300	2.841900	-8.540200	29.255898	0.000215	20.827858
2323.638693	-2.975400	2.840500	-8.449500	29.245676	0.000215	20.827987
2324.641716	-3.008200	2.836400	-8.530600	29.238746	0.000218	20.831436
2325.638118	-2.991400	2.835700	-8.481900	29.253827	0.000216	20.844736
2326.641427	-3.001900	2.832100	-8.500900	29.313823	0.000215	20.846879
2327.641058	-2.999600	2.831500	-8.493200	29.335367	0.000215	20.837772
2328.644320	-2.970600	2.830600	-8.408100	29.368054	0.000218	20.841793
2329.642292	-3.001600	2.827200	-8.484600	29.343859	0.000218	20.838745
2330.642833	-3.001900	2.824400	-8.477800	29.352034	0.000216	20.852199
2331.644060	-3.001100	2.821900	-8.467200	29.363001	0.000216	20.840019
2332.639353	-2.992800	2.819300	-8.436600	29.367193	0.000216	20.825752
2333.647206	-2.975000	2.817800	-8.381800	29.409807	0.000216	20.857322
2334.640039	-3.025500	2.812800	-8.509600	29.394747	0.000215	20.842618
2335.649843	-2.987900	2.813000	-8.402000	29.338275	0.000216	20.837384
2336.641093	-2.983300	2.810700	-8.384000	29.311562	0.000216	20.843178
2337.641287	-2.988700	2.807200	-8.388800	29.257004	0.000215	20.853154
2338.644849	-3.004200	2.806100	-8.429100	29.205401	0.000216	20.845247
2339.643895	-2.995200	2.802700	-8.393700	29.162070	0.000216	20.855161
2340.644526	-3.021600	2.800100	-8.460400	29.123106	0.000213	20.862839
2341.642642	-3.029700	2.797400	-8.474100	29.117044	0.000216	20.836344
2342.642077	-3.011100	2.794800	-8.414600	29.108995	0.000215	20.845777
2343.642093	-2.992200	2.793700	-8.357300	29.073336	0.000215	20.839244
2344.645992	-3.040700	2.789000	-8.479100	29.057232	0.000217	20.849096
2345.645545	-3.002600	2.787200	-8.368000	29.040443	0.000215	20.850672
2346.650007	-3.000200	2.784900	-8.353900	29.057360	0.000215	20.846381
2347.644797	-2.999400	2.781800	-8.343000	29.144049	0.000215	20.845537
2348.647581	-3.023800	2.778500	-8.399900	29.187509	0.000215	20.863252
2349.652457	-2.994400	2.777400	-8.315500	29.202646	0.000215	20.852902
2350.652119	-2.981100	2.773800	-8.267900	29.260909	0.000214	20.856614
2351.650357	-2.999800	2.771800	-8.314700	29.299544	0.000215	20.853351
2352.652896	-3.008200	2.768500	-8.327500	29.322567	0.000216	20.860906
2353.649529	-3.023300	2.762700	-8.352000	29.371201	0.000215	20.845913
2354.647202	-3.010500	2.761200	-8.311500	29.409850	0.000214	20.872064
2355.656281	-3.027000	2.759500	-8.351600	29.420444	0.000214	20.856190
2356.650644	-3.002800	2.756800	-8.276300	29.435455	0.000214	20.848086
2357.655220	-3.041000	2.752400	-8.369200	29.476032	0.000215	20.862433
2358.647019	-2.995100	2.750500	-8.237200	29.516040	0.000216	20.863406
2359.658999	-3.008100	2.747100	-8.262300	29.572436	0.000216	20.875684
2360.653513	-2.979100	2.744400	-8.174200	29.559394	0.000216	20.848788
2361.648402	-2.975300	2.741800	-8.157400	29.538643	0.000216	20.869595
2362.655719	-2.968900	2.739400	-8.131300	29.600754	0.000215	20.863456
2363.649291	-3.029100	2.733800	-8.279600	29.599618	0.000215	20.883646
2364.651982	-3.031000	2.731500	-8.277700	29.586650	0.000215	20.873418
2365.650287	-2.976800	2.728100	-8.119400	29.500866	0.000215	20.868499
2366.653688	-3.006600	2.724400	-8.189500	29.516291	0.000215	20.848013
2367.653188	-2.993900	2.721100	-8.145600	29.507420	0.000214	20.866571
2368.650544	-2.985500	2.718100	-8.113900	29.466844	0.000216	20.867870
2369.649352	-3.000800	2.714800	-8.145700	29.440037	0.000216	20.882574
2370.651816	-2.989900	2.710900	-8.104600	29.395615	0.000216	20.869570
2371.653755	-3.017100	2.706700	-8.165300	29.349139	0.000215	20.861134
2372.652694	-3.008800	2.703300	-8.132800	29.362611	0.000215	20.875660
2373.655332	-2.986800	2.701300	-8.066500	29.372069	0.000215	20.859114
2374.652246	-2.995900	2.695300	-8.072900	29.387374	0.000214	20.890185
2375.649548	-2.996200	2.693900	-8.070300	29.398071	0.000213	20.888165
2376.654266	-3.002200	2.689000	-8.071400	29.437630	0.000215	20.885364
2377.650833	-3.018400	2.685100	-8.104200	29.482325	0.000215	20.882525
2378.649888	-3.026500	2.681100	-8.113300	29.540671	0.000216	20.875432
2379.653302	-3.022100	2.676800	-8.088400	29.613038	0.000217	20.882950
2380.649876	-3.026000	2.674300	-8.091400	29.633409	0.000214	20.873141
2381.660968	-2.992100	2.669700	-7.986700	29.626947	0.000216	20.888910
2382.658852	-3.015900	2.664900	-8.034500	29.633984	0.000217	20.882254
2383.655109	-3.017500	2.660300	-8.026600	29.624149	0.000216	20.889883
2384.655362	-3.004400	2.657800	-7.983500	29.661946	0.000215	20.890056
2385.651293	-2.997700	2.654200	-7.955300	29.719494	0.000215	20.862255
2386.651028	-3.023900	2.648300	-8.007900	29.767017	0.000215	20.890253
2387.657814	-2.980700	2.646600	-7.887100	29.764544	0.000213	20.873061
2388.655984	-3.002100	2.640400	-7.926000	29.739491	0.000215	20.853967
2389.653550	-3.016300	2.634900	-7.946600	29.720930	0.000215	20.879348
2390.655020	-3.001700	2.632900	-7.902600	29.753599	0.000215	20.877199
2391.655836	-2.984300	2.627300	-7.838600	29.761239	0.000215	20.863092
2392.655246	-2.999700	2.622700	-7.866600	29.702240	0.000212	20.869514
2393.656107	-2.991700	2.617400	-7.830000	29.650671	0.000214	20.865887
2394.656143	-2.976800	2.612400	-7.775100	29.648441	0.000214	20.865536
2395.653365	-3.013100	2.607400	-7.854500	29.683861	0.000213	20.866632
2396.653915	-3.039900	2.602000	-7.907300	29.698911	0.000214	20.874218
2397.658549	-2.956500	2.598600	-7.681300	29.679256	0.000214	20.874791
2398.661956	-2.947100	2.594100	-7.642500	29.622048	0.000214	20.868326
2399.660838	-3.000400	2.585600	-7.756100	29.606722	0.000214	20.859040
2400.657487	-3.008600	2.580000	-7.761300	29.656723	0.000214	20.869619
2401.656434	-2.983000	2.575800	-7.682900	29.693066	0.000214	20.843671
2402.659861	-3.017800	2.569300	-7.752700	29.700340	0.000215	20.860487
2403.666232	-3.025500	2.563300	-7.754100	29.758497	0.000214	20.863646
2404.661073	-3.000500	2.559100	-7.678000	29.800253	0.000217	20.867814
2405.659017	-3.020400	2.552000	-7.707300	29.817505	0.000215	20.849650
2406.655363	-3.001500	2.547300	-7.644300	29.879552	0.000215	20.876650
2407.660485	-3.000100	2.541300	-7.621900	29.886807	0.000215	20.862630
2408.663267	-3.011100	2.534400	-7.630300	29.800601	0.000215	20.843985
2409.661503	-2.979900	2.527900	-7.532500	29.747186	0.000214	20.872155
2410.659366	-3.011000	2.522000	-7.592700	29.676513	0.000213	20.870604
2411.660192	-2.985000	2.515200	-7.507000	29.695649	0.000214	20.856232
2412.660132	-2.994100	2.510200	-7.514900	29.745842	0.000217	20.874120
2413.663223	-3.004000	2.501200	-7.513200	29.803190	0.000214	20.852285
2414.661306	-2.987800	2.495800	-7.455600	29.815337	0.000216	20.857895
