LabVIEW Measurement	
Writer_Version	2
Reader_Version	2
Separator	Tab
Decimal_Separator	.
Multi_Headings	No
X_Columns	One
Time_Pref	Absolute
Operator	admin
Description	Clolumns are: time, Current, Voltage, Power, Battery Temp, and Chamber Temp
Date	2024/08/16
Time	13:06:06.104549407958984375
***End_of_Header***	
	
Channels	6						
Samples	1	1	1	1	1	1	
Date	2024/09/13	2024/09/13	2024/09/13	2024/09/13	2024/09/13	2024/09/13	
Time	06:34:28.3930382728576660156	06:34:28.4000382423400878907	06:34:28.4060382843017578125	06:34:28.3652167320251464844	06:34:28.3652167320251464844	06:34:28.3652167320251464844	
X_Dimension	Time	Time	Time	Time	Time	Time	
X0	0.0000000000000000E+0	0.0000000000000000E+0	0.0000000000000000E+0	0.0000000000000000E+0	0.0000000000000000E+0	0.0000000000000000E+0	
Delta_X	1.000000	1.000000	1.000000	1.000000	1.000000	1.000000	
***End_of_Header***							
X_Value	Untitled	Untitled 1	Untitled 2	Untitled 3	Untitled 4	Untitled 5	Comment
0.000000	0.000635	4.091800	0.002464	21.013460	0.000917	20.762179
0.989435	-3.026600	3.913400	-11.844000	21.016902	0.000917	20.753767
1.997752	-3.004400	3.908700	-11.742000	21.023163	0.000915	20.738692
2.992136	-3.001100	3.903600	-11.714000	21.027608	0.000917	20.738870
3.990429	-2.990600	3.899200	-11.660000	21.031554	0.000914	20.764155
4.993321	-2.999600	3.896400	-11.686000	21.036418	0.000911	20.755743
5.996045	-3.005800	3.893800	-11.703000	21.036399	0.000913	20.755250
6.994408	-3.011700	3.890200	-11.715000	21.036898	0.000911	20.752430
7.993430	-3.003700	3.888000	-11.677000	21.037723	0.000911	20.771273
8.993464	-2.996000	3.887400	-11.645000	21.041220	0.000912	20.758175
9.999997	-2.998900	3.883900	-11.647000	21.043313	0.000911	20.767382
10.995705	-3.000900	3.882300	-11.649000	21.048953	0.000909	20.751211
11.990510	-3.000500	3.881600	-11.646000	21.063974	0.000908	20.761969
12.993336	-2.988800	3.880800	-11.597000	21.068874	0.000908	20.765447
13.995022	-2.981000	3.878600	-11.560000	21.067033	0.000908	20.739897
14.996487	-2.981700	3.879700	-11.567000	21.041736	0.000906	20.741147
15.993471	-3.005500	3.875700	-11.647000	21.051845	0.000905	20.743672
17.011346	-3.005000	3.874300	-11.641000	21.055465	0.000905	20.752983
18.010799	-3.001500	3.874200	-11.628000	21.064977	0.000906	20.736892
19.005064	-2.997400	3.872400	-11.606000	21.088709	0.000902	20.755889
20.000173	-3.001100	3.872100	-11.620000	21.064662	0.000905	20.741319
21.001523	-2.995900	3.872000	-11.598000	21.073774	0.000904	20.746165
21.995440	-3.016000	3.869700	-11.670000	21.076538	0.000901	20.743240
22.994454	-3.005100	3.868600	-11.623000	21.098897	0.000902	20.745691
23.994792	-2.999200	3.869000	-11.604000	21.108889	0.000902	20.742408
25.000911	-3.001000	3.867600	-11.606000	21.093369	0.000901	20.730203
25.995501	-2.988600	3.868300	-11.560000	21.114583	0.000902	20.756640
26.993432	-3.009500	3.865500	-11.632000	21.123897	0.000901	20.737032
28.004696	-2.983300	3.865400	-11.530000	21.133525	0.000902	20.734335
28.998451	-2.993200	3.864200	-11.566000	21.132835	0.000901	20.736016
29.995832	-3.003000	3.863900	-11.602000	21.134356	0.000899	20.757926
31.000065	-3.012000	3.864800	-11.639000	21.133734	0.000901	20.733595
32.013511	-2.994500	3.864000	-11.569000	21.145492	0.000902	20.741564
32.997039	-3.027800	3.862900	-11.695000	21.153679	0.000900	20.743116
34.010503	-3.012900	3.860500	-11.630000	21.169968	0.000900	20.745185
34.998418	-2.987300	3.863500	-11.540000	21.174941	0.000900	20.733090
36.010369	-2.995600	3.861300	-11.565000	21.186588	0.000898	20.736680
37.004680	-3.011300	3.859600	-11.622000	21.200531	0.000899	20.746835
38.007126	-3.019200	3.860400	-11.654000	21.188712	0.000899	20.722208
39.004522	-3.021600	3.859600	-11.661000	21.223411	0.000898	20.760715
40.004894	-2.999300	3.859200	-11.574000	21.190608	0.000900	20.738331
40.999987	-3.008000	3.858100	-11.603000	21.209493	0.000898	20.732566
42.016433	-2.969300	3.859400	-11.459000	21.202205	0.000899	20.745191
43.019754	-3.008900	3.855700	-11.601000	21.233236	0.000899	20.744464
44.003300	-3.022200	3.855700	-11.650000	21.231943	0.000898	20.728946
45.008616	-2.993800	3.857300	-11.547000	21.230090	0.000898	20.737998
46.001408	-2.981300	3.856100	-11.495000	21.234227	0.000899	20.726015
47.004976	-3.013900	3.854400	-11.615000	21.236203	0.000896	20.721353
48.012430	-3.019100	3.854400	-11.636000	21.254638	0.000897	20.722726
49.020792	-2.981200	3.855300	-11.493000	21.276514	0.000897	20.726119
50.006954	-2.999900	3.853400	-11.558000	21.267146	0.000899	20.728127
51.023043	-2.999100	3.854000	-11.556000	21.287533	0.000896	20.721020
52.015658	-2.997800	3.853000	-11.548000	21.302521	0.000896	20.732696
53.005101	-3.011700	3.851500	-11.597000	21.317914	0.000897	20.733398
54.006394	-3.006500	3.853600	-11.585000	21.294340	0.000897	20.727831
55.009860	-3.010600	3.851900	-11.596000	21.317779	0.000897	20.716193
56.012958	-2.988500	3.853500	-11.515000	21.330699	0.000897	20.734335
57.016150	-3.007800	3.851800	-11.585000	21.348388	0.000898	20.738282
58.010409	-3.006400	3.851000	-11.576000	21.339907	0.000896	20.746392
59.010599	-2.990400	3.851300	-11.515000	21.344547	0.000895	20.731120
60.016617	-3.010900	3.851100	-11.594000	21.344843	0.000895	20.724303
61.007936	-3.020000	3.850100	-11.625000	21.361209	0.000895	20.710330
62.010674	-2.978600	3.850800	-11.469000	21.385428	0.000896	20.697576
63.011359	-3.009200	3.850000	-11.583000	21.372829	0.000895	20.727173
64.010625	-2.989200	3.849100	-11.504000	21.357540	0.000896	20.714721
65.015068	-3.002900	3.849700	-11.560000	21.365369	0.000894	20.726822
66.011328	-2.962800	3.850400	-11.406000	21.390290	0.000895	20.713822
67.021042	-3.016900	3.848100	-11.608000	21.406354	0.000895	20.715195
68.014931	-3.003700	3.848500	-11.557000	21.400599	0.000895	20.690943
69.017807	-3.009200	3.847700	-11.577000	21.412791	0.000897	20.696504
70.010215	-2.985600	3.847900	-11.487000	21.406938	0.000898	20.702028
71.011299	-3.005300	3.846600	-11.560000	21.405165	0.000897	20.721119
72.013456	-2.987300	3.846200	-11.489000	21.430516	0.000896	20.717559
73.022190	-3.010300	3.846600	-11.578000	21.426177	0.000896	20.715114
74.017803	-3.005500	3.847900	-11.563000	21.441766	0.000896	20.721229
75.009473	-3.003400	3.846100	-11.550000	21.442670	0.000896	20.702219
76.010461	-3.005600	3.846000	-11.556000	21.469325	0.000897	20.736003
77.010117	-3.012600	3.846600	-11.588000	21.482827	0.000897	20.701147
78.016084	-2.991500	3.844700	-11.501000	21.486169	0.000896	20.713975
79.009362	-2.984100	3.845500	-11.474000	21.503530	0.000897	20.709535
80.009187	-2.998800	3.846100	-11.533000	21.501886	0.000896	20.726858
81.016927	-3.007300	3.844500	-11.559000	21.497178	0.000896	20.721672
82.014235	-2.983800	3.844200	-11.468000	21.527081	0.000898	20.710815
83.014208	-3.004200	3.843800	-11.547000	21.500766	0.000898	20.716253
84.029424	-2.994300	3.843400	-11.506000	21.541204	0.000897	20.724948
85.015154	-3.001200	3.842900	-11.532000	21.535893	0.000895	20.704934
86.023940	-3.005200	3.841700	-11.543000	21.551585	0.000897	20.702144
87.016311	-3.011400	3.841500	-11.567000	21.548515	0.000897	20.706658
88.015690	-2.977200	3.844600	-11.445000	21.550367	0.000899	20.717521
89.014278	-2.988900	3.841500	-11.481000	21.559044	0.000897	20.706763
90.014618	-2.998200	3.840800	-11.514000	21.587597	0.000898	20.706412
91.025104	-2.998400	3.841600	-11.518000	21.593141	0.000900	20.702476
92.017241	-3.005700	3.843200	-11.550000	21.577234	0.000898	20.697463
93.014740	-2.978800	3.841500	-11.442000	21.600925	0.000897	20.713112
94.021541	-3.007000	3.841700	-11.552000	21.609829	0.000897	20.699262
95.031467	-3.001300	3.840900	-11.526000	21.601676	0.000897	20.706750
96.020810	-3.005100	3.839700	-11.539000	21.611177	0.000900	20.707723
97.029491	-3.015600	3.838800	-11.575000	21.621404	0.000901	20.732184
98.026331	-3.006200	3.838800	-11.539000	21.605946	0.000899	20.705334
99.030180	-3.001200	3.840700	-11.524000	21.601030	0.000899	20.690455
100.023992	-3.001600	3.840600	-11.526000	21.589916	0.000897	20.701146
101.019005	-2.994700	3.840600	-11.500000	21.619447	0.000899	20.719319
102.021457	-3.015100	3.838700	-11.571000	21.651691	0.000901	20.698479
103.018371	-3.003400	3.839300	-11.530000	21.674285	0.000900	20.702599
104.027577	-2.985200	3.838000	-11.454000	21.660447	0.000900	20.695862
105.021384	-3.003600	3.837300	-11.524000	21.658859	0.000901	20.705179
106.022758	-3.023600	3.836100	-11.597000	21.692326	0.000901	20.707852
107.035023	-3.006900	3.838600	-11.540000	21.690652	0.000900	20.720877
108.025513	-3.012100	3.837600	-11.558000	21.703924	0.000901	20.701915
109.020615	-2.992300	3.838000	-11.483000	21.692209	0.000900	20.709157
110.029959	-3.009300	3.836800	-11.545000	21.718242	0.000903	20.708658
111.026752	-3.010700	3.835400	-11.546000	21.693612	0.000901	20.689223
112.030558	-2.991300	3.836000	-11.472000	21.749794	0.000902	20.701354
113.028956	-3.015900	3.835600	-11.566000	21.748046	0.000904	20.691070
114.028266	-2.971800	3.838200	-11.406000	21.729047	0.000904	20.701927
115.023330	-3.007500	3.835900	-11.535000	21.742718	0.000902	20.688582
116.026419	-2.974800	3.835900	-11.410000	21.763471	0.000904	20.689912
117.027672	-2.981400	3.836400	-11.437000	21.744496	0.000905	20.698897
118.038633	-2.974500	3.836200	-11.409000	21.759133	0.000904	20.696003
119.027562	-2.981800	3.836000	-11.437000	21.758684	0.000904	20.690337
120.024500	-2.975500	3.834900	-11.410000	21.786568	0.000904	20.701176
121.033152	-3.028900	3.834300	-11.612000	21.770011	0.000906	20.701200
122.025555	-2.973900	3.835600	-11.405000	21.759644	0.000904	20.705049
123.030679	-3.002500	3.834000	-11.510000	21.795803	0.000906	20.702832
124.039188	-3.006300	3.834300	-11.527000	21.789989	0.000905	20.705548
125.043163	-2.974400	3.834400	-11.403000	21.816149	0.000907	20.694746
126.035244	-2.977300	3.834000	-11.413000	21.814260	0.000906	20.719884
127.036629	-2.987500	3.833500	-11.450000	21.821360	0.000907	20.699488
128.026999	-2.985200	3.834000	-11.445000	21.820019	0.000909	20.706207
129.035536	-3.015500	3.832000	-11.555000	21.841589	0.000907	20.696027
130.039436	-2.985400	3.833500	-11.444000	21.871359	0.000908	20.701643
131.037112	-2.994700	3.832000	-11.474000	21.868246	0.000907	20.705640
132.030479	-3.025400	3.829700	-11.584000	21.870885	0.000910	20.702592
133.032693	-2.979900	3.830900	-11.414000	21.898188	0.000908	20.706687
134.042055	-2.977700	3.832500	-11.410000	21.915813	0.000910	20.715795
135.033066	-2.994800	3.831500	-11.473000	21.913900	0.000908	20.693015
136.035580	-3.007300	3.830400	-11.517000	21.916115	0.000910	20.693810
137.038230	-3.030200	3.830700	-11.606000	21.912627	0.000911	20.706915
138.035245	-2.990900	3.831100	-11.458000	21.908019	0.000910	20.704199
139.037323	-2.999100	3.830200	-11.486000	21.940180	0.000911	20.705572
140.037430	-2.990100	3.830200	-11.451000	21.926191	0.000912	20.709113
141.036827	-3.032000	3.829000	-11.608000	21.929433	0.000911	20.719471
142.048784	-3.005300	3.828800	-11.506000	21.942850	0.000910	20.721522
143.036799	-3.005400	3.828700	-11.505000	21.957510	0.000911	20.710591
144.036586	-2.989300	3.830900	-11.450000	21.975103	0.000911	20.708762
145.055095	-3.000000	3.827700	-11.480000	21.966503	0.000915	20.721966
146.041422	-2.994000	3.827700	-11.459000	21.970200	0.000913	20.709544
147.039227	-2.995400	3.828800	-11.468000	21.968927	0.000913	20.702105
148.046575	-2.988900	3.828300	-11.441000	21.986674	0.000914	20.708017
149.050463	-3.002600	3.828300	-11.494000	21.983555	0.000917	20.706317
150.038843	-2.990500	3.827900	-11.445000	21.989418	0.000914	20.696538
151.044947	-3.004800	3.827400	-11.500000	21.978997	0.000915	20.717876
152.039310	-2.991800	3.827700	-11.451000	22.016687	0.000916	20.702973
153.045872	-2.985800	3.827700	-11.428000	22.019234	0.000914	20.709316
154.049031	-2.991600	3.827000	-11.448000	22.029777	0.000917	20.719872
155.040920	-2.996900	3.827000	-11.468000	22.029703	0.000917	20.714582
156.040385	-3.020500	3.825700	-11.554000	22.023269	0.000918	20.710037
157.048045	-2.987800	3.827300	-11.434000	22.033418	0.000917	20.692221
158.039979	-3.011600	3.824200	-11.515000	22.030250	0.000918	20.710388
159.048145	-2.996900	3.825800	-11.465000	22.039379	0.000920	20.710517
160.053131	-2.994700	3.825600	-11.456000	22.047302	0.000920	20.729830
161.050527	-2.977700	3.824500	-11.387000	22.052616	0.000919	20.708122
162.054738	-3.013200	3.825500	-11.526000	22.074649	0.000920	20.709316
163.053665	-3.014200	3.824000	-11.525000	22.055581	0.000920	20.714884
164.054249	-2.990800	3.825500	-11.440000	22.060545	0.000921	20.717956
165.048549	-3.011300	3.824200	-11.513000	22.068744	0.000921	20.715733
166.054895	-2.999800	3.825400	-11.474000	22.073130	0.000922	20.718702
167.043425	-3.011900	3.822600	-11.512000	22.070565	0.000923	20.720875
168.045801	-3.007700	3.823600	-11.500000	22.077073	0.000921	20.716485
169.044458	-2.981500	3.823100	-11.398000	22.113246	0.000923	20.717612
170.050665	-3.008900	3.823300	-11.503000	22.134731	0.000924	20.716361
171.051969	-3.024700	3.821600	-11.557000	22.112951	0.000924	20.716842
172.046931	-3.008600	3.822400	-11.499000	22.142240	0.000923	20.730519
173.064631	-2.999000	3.821700	-11.459000	22.152727	0.000923	20.707826
174.046370	-2.996600	3.823100	-11.456000	22.142597	0.000924	20.692941
175.050833	-2.991600	3.822200	-11.434000	22.184439	0.000925	20.744320
176.063346	-3.010700	3.822400	-11.507000	22.200252	0.000924	20.722692
177.049327	-2.995300	3.821000	-11.444000	22.203241	0.000926	20.729004
178.049933	-2.986400	3.821600	-11.411000	22.209151	0.000927	20.734922
179.052165	-2.982900	3.821300	-11.398000	22.211119	0.000928	20.713658
180.062162	-2.991900	3.820300	-11.427000	22.212368	0.000926	20.726763
181.049747	-3.001700	3.820800	-11.469000	22.202004	0.000926	20.740095
182.051665	-3.023000	3.819000	-11.544000	22.197589	0.000929	20.716706
183.058663	-3.008700	3.820300	-11.493000	22.227208	0.000929	20.725026
184.049300	-3.012700	3.819000	-11.505000	22.234004	0.000930	20.717605
185.056021	-3.000500	3.819400	-11.459000	22.250290	0.000932	20.714471
186.060153	-2.992900	3.820000	-11.432000	22.229275	0.000929	20.747010
187.050860	-3.022500	3.818100	-11.539000	22.244207	0.000931	20.724977
188.055134	-2.986800	3.818600	-11.404000	22.243604	0.000930	20.732908
189.068261	-2.995400	3.819300	-11.439000	22.248918	0.000932	20.739177
190.054823	-3.035300	3.817600	-11.586000	22.266292	0.000933	20.739030
191.056233	-3.022300	3.818200	-11.539000	22.295848	0.000932	20.752029
192.066865	-2.985000	3.817600	-11.394000	22.302637	0.000932	20.737490
193.057549	-2.999100	3.817900	-11.449000	22.299624	0.000934	20.740163
194.064810	-3.012100	3.817100	-11.496000	22.312108	0.000935	20.728955
195.058660	-3.010600	3.818300	-11.494000	22.349448	0.000934	20.739793
196.059623	-3.017900	3.816700	-11.517000	22.346896	0.000935	20.744824
197.062747	-2.998000	3.817400	-11.444000	22.354602	0.000935	20.740686
198.055199	-2.977100	3.818500	-11.367000	22.367485	0.000936	20.736043
199.061407	-3.004500	3.815000	-11.461000	22.368930	0.000938	20.746973
200.055769	-2.999300	3.817200	-11.448000	22.369551	0.000936	20.734319
201.053394	-2.988500	3.817000	-11.406000	22.388423	0.000935	20.752269
202.067293	-3.000300	3.814900	-11.445000	22.366821	0.000937	20.751025
203.065042	-2.996400	3.815000	-11.430000	22.345138	0.000939	20.751124
204.059218	-2.997000	3.815400	-11.434000	22.354110	0.000937	20.745409
205.063234	-3.016000	3.815100	-11.506000	22.381499	0.000940	20.746284
206.059084	-2.992600	3.815200	-11.416000	22.401755	0.000941	20.745231
207.057810	-2.995200	3.814200	-11.423000	22.401159	0.000939	20.725666
208.063195	-3.015300	3.813800	-11.499000	22.427477	0.000941	20.746807
209.067296	-2.983700	3.815600	-11.382000	22.435797	0.000940	20.748501
210.065321	-2.991700	3.814500	-11.411000	22.454317	0.000940	20.727218
211.058935	-2.965500	3.815500	-11.313000	22.435495	0.000942	20.750096
212.061860	-3.009500	3.812700	-11.473000	22.445561	0.000942	20.765866
213.064244	-2.986200	3.814200	-11.388000	22.454188	0.000943	20.748901
214.066983	-2.994300	3.812400	-11.415000	22.454114	0.000942	20.739344
215.067695	-2.997300	3.813600	-11.429000	22.491493	0.000943	20.775830
216.062826	-2.989500	3.813600	-11.400000	22.454041	0.000945	20.732631
217.060002	-2.989500	3.813100	-11.397000	22.480432	0.000944	20.756691
218.069681	-3.003400	3.813600	-11.453000	22.466080	0.000945	20.764604
219.074025	-3.017400	3.812500	-11.503000	22.501331	0.000944	20.755810
220.067595	-2.980800	3.812500	-11.364000	22.496400	0.000946	20.762252
221.066618	-2.969100	3.813000	-11.320000	22.521794	0.000946	20.758286
222.066185	-2.999000	3.812800	-11.433000	22.506724	0.000946	20.762159
223.065227	-3.012900	3.811800	-11.483000	22.513721	0.000948	20.762529
224.067517	-2.986300	3.810300	-11.378000	22.542059	0.000947	20.771944
225.063646	-2.989400	3.810600	-11.390000	22.525145	0.000949	20.761642
226.068922	-2.997000	3.809800	-11.418000	22.549056	0.000948	20.741019
227.060131	-2.983400	3.809900	-11.366000	22.566653	0.000949	20.759117
228.067127	-2.974200	3.810000	-11.331000	22.512067	0.000950	20.763243
229.074689	-3.018800	3.809400	-11.498000	22.535093	0.000950	20.747897
230.065111	-2.988200	3.808500	-11.379000	22.541420	0.000950	20.764665
231.074302	-3.021800	3.808800	-11.508000	22.559066	0.000953	20.759579
232.068918	-2.999500	3.810300	-11.427000	22.577554	0.000951	20.764819
233.066491	-3.018300	3.808000	-11.493000	22.593453	0.000952	20.763200
234.075026	-3.021000	3.808200	-11.503000	22.589094	0.000952	20.756463
235.073880	-2.991300	3.808600	-11.390000	22.619724	0.000954	20.768650
236.073487	-3.001000	3.806600	-11.422000	22.632450	0.000954	20.765275
237.066541	-2.997800	3.808800	-11.417000	22.619367	0.000953	20.759758
238.066443	-3.024100	3.807800	-11.513000	22.607834	0.000955	20.761956
239.061888	-3.008400	3.806100	-11.449000	22.625749	0.000956	20.759985
240.075567	-3.026000	3.806300	-11.517000	22.637289	0.000955	20.765380
241.063660	-2.967600	3.806600	-11.296000	22.653704	0.000957	20.742466
242.065890	-2.997800	3.805800	-11.408000	22.669749	0.000956	20.756167
243.062799	-3.006500	3.806600	-11.443000	22.680041	0.000958	20.787339
244.068383	-2.998000	3.806100	-11.410000	22.667536	0.000958	20.751580
245.069120	-3.001900	3.805300	-11.421000	22.669971	0.000960	20.774407
246.065241	-2.969700	3.805700	-11.301000	22.679967	0.000958	20.776834
247.061995	-2.986200	3.806500	-11.365000	22.675756	0.000960	20.783521
248.074614	-3.009700	3.804900	-11.450000	22.682653	0.000959	20.770041
249.063999	-2.986600	3.804100	-11.361000	22.689533	0.000961	20.765552
250.072746	-2.992400	3.805000	-11.385000	22.718900	0.000960	20.768416
251.074690	-3.004600	3.804300	-11.428000	22.703703	0.000963	20.788281
252.070803	-2.989800	3.805000	-11.375000	22.736266	0.000963	20.787234
253.072800	-3.002400	3.803600	-11.419000	22.727094	0.000961	20.765244
254.071430	-3.001900	3.803500	-11.417000	22.738873	0.000963	20.776095
255.077423	-2.993100	3.804300	-11.386000	22.736555	0.000962	20.788472
256.083438	-3.000400	3.802100	-11.406000	22.718217	0.000964	20.785276
257.076885	-3.018900	3.802300	-11.478000	22.748481	0.000964	20.773866
258.070774	-3.006100	3.803000	-11.431000	22.766271	0.000965	20.779833
259.078582	-3.014000	3.801800	-11.459000	22.767986	0.000964	20.783921
260.071516	-3.008500	3.801500	-11.436000	22.768380	0.000966	20.785738
261.072859	-2.986700	3.803200	-11.359000	22.798740	0.000966	20.791022
262.076131	-2.986500	3.802600	-11.356000	22.790602	0.000966	20.792826
263.080309	-2.997300	3.803100	-11.398000	22.788075	0.000967	20.784605
264.085114	-2.997800	3.801300	-11.394000	22.818792	0.000968	20.781711
265.082059	-3.020300	3.801300	-11.480000	22.826961	0.000969	20.790843
266.092938	-3.005800	3.800100	-11.422000	22.819511	0.000969	20.799501
267.077568	-3.004400	3.801000	-11.419000	22.839962	0.000969	20.792013
268.089253	-3.021800	3.798700	-11.478000	22.847387	0.000969	20.796607
269.077054	-3.007600	3.799500	-11.427000	22.879762	0.000970	20.812919
270.072854	-2.989400	3.800600	-11.361000	22.865815	0.000971	20.797998
271.075272	-2.999800	3.799900	-11.398000	22.878539	0.000971	20.772338
272.081110	-2.995200	3.798600	-11.376000	22.873535	0.000972	20.792456
273.085679	-3.034000	3.796500	-11.517000	22.895380	0.000971	20.820979
274.078943	-3.009500	3.798200	-11.431000	22.879707	0.000972	20.812389
275.082397	-3.009300	3.798000	-11.428000	22.897525	0.000972	20.807007
276.087758	-2.997700	3.797800	-11.382000	22.906739	0.000973	20.797272
277.082118	-2.998900	3.797500	-11.386000	22.926358	0.000974	20.785634
278.076820	-2.975500	3.797400	-11.297000	22.896997	0.000975	20.799365
279.079918	-2.977300	3.798400	-11.308000	22.899259	0.000975	20.805425
280.089514	-2.996300	3.797600	-11.378000	22.917077	0.000974	20.805258
281.079305	-2.977200	3.796400	-11.301000	22.913832	0.000975	20.820973
282.085475	-3.036700	3.795500	-11.525000	22.934158	0.000977	20.814785
283.081792	-3.002600	3.795800	-11.396000	22.930157	0.000976	20.801293
284.085694	-3.002600	3.795600	-11.395000	22.911945	0.000976	20.807229
285.083035	-3.036300	3.794700	-11.520000	22.913119	0.000978	20.784697
286.095177	-2.986100	3.795900	-11.334000	22.919468	0.000980	20.808602
287.082909	-3.010500	3.794100	-11.421000	22.937108	0.000977	20.812525
288.085912	-3.000700	3.793200	-11.381000	22.981017	0.000978	20.812420
289.086903	-3.010300	3.794500	-11.422000	22.969357	0.000979	20.802161
290.085872	-2.994800	3.795500	-11.366000	22.983635	0.000980	20.820733
291.092466	-2.996700	3.794500	-11.369000	22.993720	0.000982	20.818510
292.089540	-3.028700	3.792500	-11.486000	23.004408	0.000980	20.804088
293.103050	-3.025600	3.792800	-11.474000	23.033275	0.000980	20.818313
294.092460	-3.022900	3.792900	-11.465000	23.010357	0.000981	20.826170
295.087719	-2.979700	3.794100	-11.304000	23.005730	0.000981	20.823904
296.091506	-2.988700	3.794300	-11.338000	23.038714	0.000982	20.832771
297.086467	-2.999700	3.793600	-11.379000	23.031511	0.000982	20.830296
298.089813	-2.983600	3.791700	-11.312000	23.028697	0.000982	20.817993
299.086016	-2.993200	3.791900	-11.349000	23.051442	0.000985	20.818023
300.084843	-3.009000	3.791100	-11.407000	23.065817	0.000986	20.816305
301.090274	-3.012400	3.792300	-11.423000	23.079288	0.000986	20.828855
302.089113	-3.002400	3.792200	-11.385000	23.075410	0.000986	20.818331
303.087339	-2.980900	3.793300	-11.306000	23.084229	0.000987	20.816736
304.093603	-3.019900	3.790100	-11.445000	23.087916	0.000985	20.820905
305.085771	-3.005900	3.791300	-11.395000	23.080050	0.000987	20.811601
306.098371	-3.000600	3.790200	-11.372000	23.099254	0.000985	20.825628
307.087191	-2.992700	3.790400	-11.343000	23.108196	0.000987	20.837907
308.095043	-2.978300	3.791100	-11.290000	23.118483	0.000986	20.845844
309.098360	-3.002300	3.789900	-11.378000	23.105387	0.000986	20.825136
310.089736	-3.012500	3.787600	-11.409000	23.111864	0.000988	20.831626
311.090519	-3.008000	3.788800	-11.396000	23.128205	0.000989	20.840413
312.089646	-3.002700	3.788100	-11.374000	23.138141	0.000989	20.843732
313.088842	-2.993200	3.788100	-11.337000	23.166753	0.000991	20.844902
314.096864	-2.993600	3.787400	-11.337000	23.171239	0.000990	20.822845
315.092320	-2.980800	3.788800	-11.292000	23.168726	0.000991	20.837395
316.102576	-3.012000	3.788700	-11.410000	23.165696	0.000992	20.828670
317.111190	-2.999800	3.787000	-11.359000	23.199930	0.000991	20.838793
318.098675	-2.995100	3.787600	-11.343000	23.175952	0.000991	20.835628
319.096813	-2.994400	3.786400	-11.337000	23.199377	0.000993	20.836817
320.098300	-2.999600	3.786400	-11.355000	23.204839	0.000993	20.856041
321.091279	-3.002500	3.786900	-11.369000	23.196347	0.000994	20.827143
322.095378	-2.990800	3.786300	-11.322000	23.202498	0.000994	20.823350
323.095136	-3.009600	3.784900	-11.390000	23.203549	0.000994	20.831515
324.109373	-3.006300	3.785100	-11.378000	23.229775	0.000994	20.850683
325.104122	-3.001800	3.784700	-11.359000	23.228871	0.000996	20.830813
326.099152	-3.007500	3.785600	-11.385000	23.257782	0.000996	20.848405
327.099195	-3.010700	3.785400	-11.394000	23.252455	0.000996	20.825523
328.103415	-3.007300	3.783700	-11.377000	23.253407	0.000997	20.832642
329.103017	-3.004600	3.783900	-11.367000	23.246857	0.000996	20.847888
330.099684	-3.002400	3.784800	-11.361000	23.234506	0.000996	20.841201
331.095927	-2.993800	3.783900	-11.328000	23.242255	0.000999	20.837586
332.100551	-2.995600	3.783300	-11.332000	23.212023	0.000997	20.841429
333.100488	-2.997700	3.784400	-11.343000	23.213663	0.000999	20.837383
334.095927	-2.987200	3.783300	-11.300000	23.201189	0.000997	20.857598
335.106233	-3.008200	3.782200	-11.376000	23.186442	0.000999	20.831441
336.104753	-2.991400	3.784300	-11.319000	23.181667	0.000999	20.825708
337.099256	-3.013700	3.782600	-11.399000	23.183308	0.000999	20.824507
338.097538	-3.013100	3.780900	-11.390000	23.202308	0.001001	20.819840
339.106163	-3.006700	3.782400	-11.371000	23.209380	0.000999	20.834988
340.098539	-3.007100	3.780100	-11.366000	23.209755	0.001002	20.823036
341.106946	-2.997000	3.781100	-11.332000	23.224423	0.001001	20.839631
342.100658	-3.021600	3.779200	-11.418000	23.205792	0.001002	20.802943
343.104272	-2.985600	3.781400	-11.289000	23.225983	0.001001	20.841195
344.102295	-2.998000	3.779500	-11.329000	23.233406	0.001002	20.825400
345.106735	-3.014700	3.780600	-11.396000	23.252805	0.001001	20.846262
346.105205	-3.013200	3.778400	-11.384000	23.263115	0.001003	20.826724
347.096915	-3.010800	3.777600	-11.373000	23.283165	0.001004	20.837334
348.113210	-3.017100	3.778800	-11.400000	23.276535	0.001003	20.826897
349.106818	-2.973900	3.779300	-11.237000	23.270630	0.001003	20.824298
350.101186	-2.981400	3.779000	-11.265000	23.282040	0.001004	20.807284
351.103994	-3.008900	3.778400	-11.368000	23.283711	0.001004	20.818442
352.103020	-3.009400	3.778100	-11.369000	23.262071	0.001004	20.810979
353.105619	-2.989400	3.777800	-11.292000	23.246832	0.001006	20.820363
354.108191	-2.983600	3.777600	-11.270000	23.292400	0.001005	20.811028
355.111325	-3.020200	3.776400	-11.405000	23.287177	0.001006	20.829975
356.102930	-2.993600	3.777700	-11.306000	23.281346	0.001007	20.829347
357.111767	-2.988000	3.776100	-11.281000	23.284566	0.001008	20.812186
358.101736	-3.001100	3.776100	-11.332000	23.293358	0.001007	20.818153
359.112037	-2.987000	3.777400	-11.281000	23.285887	0.001006	20.815406
360.102347	-2.986200	3.777500	-11.279000	23.294231	0.001007	20.810018
361.101214	-2.982300	3.774500	-11.256000	23.315226	0.001007	20.824421
362.104370	-3.013500	3.775500	-11.376000	23.294138	0.001008	20.808029
363.111769	-2.994300	3.774700	-11.301000	23.322525	0.001007	20.836952
364.109940	-2.977700	3.774500	-11.238000	23.319041	0.001009	20.799322
365.110510	-2.987400	3.775100	-11.277000	23.331293	0.001009	20.809230
366.106366	-2.989500	3.774800	-11.283000	23.347034	0.001008	20.805092
367.104358	-2.990400	3.772900	-11.281000	23.354407	0.001010	20.802050
368.114710	-3.003800	3.773700	-11.335000	23.360139	0.001011	20.794045
369.109375	-3.001100	3.773000	-11.321000	23.375155	0.001010	20.801508
370.116697	-3.002800	3.772200	-11.326000	23.346524	0.001011	20.795098
371.115351	-2.996200	3.772300	-11.302000	23.362412	0.001010	20.789211
372.110530	-2.973000	3.772900	-11.215000	23.352656	0.001011	20.800295
373.105938	-2.987900	3.772700	-11.271000	23.378577	0.001010	20.807783
374.108739	-3.013000	3.772600	-11.366000	23.376046	0.001012	20.802875
375.125415	-2.992900	3.771200	-11.286000	23.392081	0.001012	20.776748
376.106270	-3.015700	3.770600	-11.369000	23.395417	0.001012	20.788626
377.110602	-3.013200	3.769900	-11.357000	23.403816	0.001013	20.797044
378.107561	-2.994600	3.770200	-11.290000	23.410408	0.001015	20.792272
379.107306	-3.015100	3.769300	-11.363000	23.435560	0.001014	20.794248
380.110878	-3.017800	3.768900	-11.373000	23.445328	0.001014	20.786970
381.109451	-2.998300	3.769200	-11.299000	23.435689	0.001014	20.788214
382.118196	-3.013300	3.769100	-11.357000	23.419734	0.001015	20.790714
383.108687	-2.988500	3.769800	-11.265000	23.443159	0.001016	20.785270
384.113048	-3.012900	3.768700	-11.353000	23.417123	0.001016	20.786674
385.115791	-3.001600	3.767600	-11.307000	23.444837	0.001016	20.789322
386.106759	-2.984100	3.768000	-11.243000	23.434313	0.001017	20.791576
387.105408	-2.989900	3.768100	-11.264000	23.435204	0.001016	20.786305
388.119787	-3.006300	3.766400	-11.322000	23.441083	0.001017	20.792672
389.116344	-3.005100	3.766700	-11.319000	23.430479	0.001018	20.786311
390.109289	-2.983200	3.766600	-11.234000	23.457099	0.001018	20.767948
391.108857	-3.007100	3.767400	-11.328000	23.459311	0.001018	20.784390
392.110264	-2.998600	3.765900	-11.291000	23.472513	0.001019	20.776286
393.109095	-3.001000	3.765200	-11.297000	23.469134	0.001017	20.761519
394.111163	-3.021900	3.765100	-11.376000	23.501644	0.001018	20.779408
395.113076	-2.996900	3.764900	-11.282000	23.499807	0.001016	20.783257
396.117334	-3.002500	3.766100	-11.305000	23.507554	0.001019	20.777746
397.114671	-2.992400	3.765700	-11.267000	23.522936	0.001018	20.788423
398.114233	-3.012900	3.763800	-11.339000	23.524632	0.001018	20.761673
399.121482	-2.998500	3.764400	-11.285000	23.510017	0.001020	20.768361
400.112581	-3.015300	3.762300	-11.343000	23.502154	0.001019	20.760953
401.112874	-3.000500	3.765500	-11.298000	23.495182	0.001020	20.781465
402.111562	-3.015800	3.762800	-11.348000	23.538681	0.001021	20.770067
403.112903	-2.992800	3.762100	-11.259000	23.507904	0.001020	20.788528
404.117879	-2.985800	3.762800	-11.234000	23.525713	0.001022	20.770818
405.114103	-3.001400	3.763600	-11.295000	23.503254	0.001021	20.777229
406.116112	-3.002800	3.762400	-11.297000	23.484788	0.001022	20.774365
407.120098	-3.013200	3.761700	-11.334000	23.493400	0.001021	20.775886
408.116409	-3.008900	3.762000	-11.319000	23.472513	0.001022	20.768700
409.120387	-2.991700	3.761700	-11.253000	23.498579	0.001021	20.779181
410.120261	-2.995500	3.762500	-11.270000	23.517549	0.001022	20.788713
411.125715	-3.013100	3.760000	-11.326000	23.531789	0.001023	20.771218
412.117269	-2.997100	3.760100	-11.267000	23.567909	0.001023	20.765701
413.115775	-2.988400	3.759800	-11.234000	23.564979	0.001021	20.782678
414.115942	-3.020400	3.759500	-11.354000	23.556244	0.001022	20.781034
415.124440	-3.022300	3.758000	-11.357000	23.581712	0.001023	20.774796
416.119349	-2.996100	3.759300	-11.262000	23.575766	0.001023	20.769310
417.114348	-2.997700	3.758800	-11.266000	23.598340	0.001025	20.772499
418.126266	-2.995200	3.758200	-11.256000	23.581945	0.001023	20.767444
419.117135	-3.001800	3.757500	-11.278000	23.580797	0.001024	20.775301
420.115681	-2.974200	3.759800	-11.181000	23.589839	0.001023	20.777254
421.117954	-3.003800	3.758700	-11.288000	23.624686	0.001024	20.766668
422.130457	-2.994200	3.757600	-11.250000	23.619938	0.001025	20.760011
423.131796	-3.028600	3.756000	-11.374000	23.636141	0.001026	20.763928
424.126453	-3.003900	3.756500	-11.283000	23.633678	0.001025	20.759088
425.136724	-3.008000	3.756600	-11.298000	23.635748	0.001025	20.767801
426.127722	-3.010500	3.756400	-11.308000	23.632364	0.001024	20.766779
427.122252	-2.994200	3.757000	-11.248000	23.653942	0.001023	20.772764
428.120217	-3.011300	3.754300	-11.304000	23.638064	0.001025	20.762062
429.134734	-2.990100	3.755600	-11.229000	23.657726	0.001026	20.762333
430.122810	-2.989100	3.754800	-11.222000	23.659870	0.001025	20.766379
431.124072	-3.000800	3.754600	-11.265000	23.694696	0.001026	20.754826
432.126372	-2.981300	3.754100	-11.190000	23.690464	0.001026	20.756273
433.128459	-2.997200	3.755800	-11.255000	23.723846	0.001025	20.750861
434.130476	-3.000000	3.753500	-11.260000	23.720812	0.001025	20.760621
435.124800	-2.991100	3.754200	-11.227000	23.727832	0.001026	20.788049
436.122774	-3.019000	3.752800	-11.328000	23.751552	0.001027	20.744499
437.121933	-2.994700	3.753100	-11.238000	23.770591	0.001027	20.781607
438.123898	-3.002400	3.751300	-11.262000	23.769130	0.001025	20.753115
439.127675	-3.015600	3.751100	-11.311000	23.745981	0.001028	20.776373
440.123203	-2.992600	3.753500	-11.232000	23.752228	0.001028	20.768411
441.121238	-3.003400	3.752200	-11.269000	23.745883	0.001029	20.744031
442.123592	-3.026700	3.750200	-11.350000	23.758007	0.001030	20.768042
443.119441	-3.020500	3.750100	-11.325000	23.749925	0.001027	20.758989
444.120833	-2.991300	3.750700	-11.218000	23.761870	0.001028	20.753423
445.127414	-3.017200	3.749100	-11.311000	23.732107	0.001028	20.756299
446.125718	-3.017600	3.749200	-11.313000	23.743850	0.001031	20.768073
447.121977	-2.994600	3.748900	-11.224000	23.755729	0.001028	20.752481
448.127499	-3.020200	3.747800	-11.318000	23.784951	0.001028	20.751908
449.134073	-2.986000	3.749700	-11.193000	23.769769	0.001029	20.739530
450.122427	-2.992600	3.748000	-11.215000	23.735154	0.001029	20.738015
451.126474	-2.986300	3.749200	-11.196000	23.726266	0.001027	20.768935
452.124694	-3.004100	3.747400	-11.256000	23.696717	0.001032	20.749740
453.125808	-2.993700	3.748000	-11.218000	23.701127	0.001030	20.725711
454.129411	-2.977600	3.747600	-11.158000	23.719197	0.001031	20.758528
455.126495	-2.989300	3.747200	-11.201000	23.739533	0.001029	20.746199
456.127370	-3.015000	3.745000	-11.290000	23.757854	0.001031	20.749870
457.129445	-2.997300	3.745600	-11.226000	23.748396	0.001030	20.721893
458.129956	-3.002200	3.746100	-11.245000	23.731727	0.001030	20.745011
459.133352	-3.003600	3.745500	-11.249000	23.727520	0.001031	20.761656
460.127025	-3.017900	3.745600	-11.304000	23.743175	0.001032	20.728513
461.136123	-3.032900	3.744300	-11.355000	23.762362	0.001031	20.752019
462.131494	-2.993700	3.746100	-11.214000	23.769382	0.001031	20.725865
463.136488	-3.024600	3.744100	-11.323000	23.776150	0.001031	20.739290
464.128866	-2.995400	3.744700	-11.216000	23.789643	0.001030	20.746181
465.137235	-2.985500	3.743800	-11.176000	23.801932	0.001030	20.752339
466.135189	-2.988000	3.744400	-11.187000	23.787598	0.001029	20.748398
467.133956	-2.995400	3.742400	-11.209000	23.798770	0.001031	20.750590
468.137053	-3.002100	3.743100	-11.236000	23.803750	0.001032	20.754636
469.129352	-3.009500	3.742200	-11.261000	23.818207	0.001033	20.765339
470.136490	-2.996600	3.742500	-11.215000	23.847631	0.001032	20.728932
471.136534	-3.006600	3.741100	-11.247000	23.847999	0.001032	20.753484
472.137722	-2.985900	3.742100	-11.173000	23.834384	0.001032	20.737935
473.133489	-3.008900	3.741200	-11.255000	23.811783	0.001032	20.728550
474.136431	-2.985000	3.740600	-11.165000	23.824158	0.001031	20.735269
475.153208	-2.981900	3.740800	-11.154000	23.813527	0.001033	20.741205
476.132003	-2.997000	3.741300	-11.211000	23.831767	0.001033	20.756175
477.133428	-3.026900	3.740300	-11.320000	23.812133	0.001036	20.742652
478.134735	-2.991900	3.739800	-11.189000	23.803425	0.001033	20.751465
479.134897	-2.973400	3.740900	-11.121000	23.863327	0.001033	20.741827
480.131249	-3.020400	3.738000	-11.289000	23.869082	0.001035	20.731001
481.134984	-2.981100	3.739000	-11.145000	23.880301	0.001034	20.746520
482.131779	-3.007800	3.739500	-11.247000	23.907954	0.001032	20.745799
483.134303	-3.005100	3.739200	-11.235000	23.915520	0.001035	20.721616
484.135824	-3.006400	3.739000	-11.240000	23.908519	0.001035	20.735459
485.138638	-2.987700	3.737500	-11.166000	23.909489	0.001035	20.744968
486.134121	-3.011900	3.736300	-11.253000	23.900382	0.001034	20.753854
487.132996	-3.006800	3.737300	-11.236000	23.922330	0.001037	20.717065
488.142796	-2.995100	3.737500	-11.193000	23.913770	0.001032	20.744992
489.138916	-2.998100	3.737600	-11.204000	23.917368	0.001035	20.737695
490.133819	-3.006400	3.736100	-11.231000	23.901543	0.001035	20.736051
491.138016	-3.008500	3.735400	-11.238000	23.939868	0.001037	20.724695
492.133863	-3.013300	3.735800	-11.255000	23.983540	0.001035	20.733877
493.134466	-3.005700	3.735700	-11.227000	23.990055	0.001034	20.738988
494.141539	-3.005000	3.734700	-11.222000	23.978357	0.001035	20.726308
495.136953	-2.977300	3.736300	-11.123000	23.961679	0.001035	20.744672
496.137090	-3.000200	3.734900	-11.205000	23.988157	0.001032	20.708634
497.143629	-3.023400	3.733200	-11.286000	23.988077	0.001033	20.713770
498.135386	-2.981200	3.734400	-11.131000	23.993923	0.001034	20.733858
499.133310	-2.972100	3.734900	-11.101000	23.971455	0.001033	20.737405
500.138775	-2.999500	3.733400	-11.198000	23.966573	0.001034	20.734880
501.143078	-3.001700	3.731000	-11.197000	23.955109	0.001034	20.720064
502.142070	-2.996100	3.733100	-11.183000	23.979788	0.001033	20.714940
503.134541	-2.983600	3.733200	-11.138000	23.970755	0.001033	20.744290
504.141248	-2.999800	3.731200	-11.192000	24.003435	0.001033	20.732491
505.152394	-3.010700	3.731300	-11.233000	24.030102	0.001033	20.724146
506.137820	-3.004900	3.729500	-11.204000	24.043211	0.001035	20.737768
507.141951	-3.027200	3.730500	-11.291000	24.022365	0.001034	20.706903
508.138484	-2.993500	3.729600	-11.163000	24.069829	0.001035	20.706140
509.139536	-3.004400	3.731100	-11.208000	24.048965	0.001033	20.731684
510.142131	-3.012500	3.729700	-11.234000	24.072733	0.001033	20.716165
511.133502	-2.992300	3.730800	-11.163000	24.062203	0.001034	20.733106
512.132951	-3.006200	3.728200	-11.207000	24.096967	0.001035	20.717711
513.147223	-2.995900	3.729200	-11.171000	24.051875	0.001034	20.723223
514.140000	-3.027100	3.728000	-11.284000	24.035604	0.001033	20.722551
515.140343	-3.000600	3.727800	-11.184000	24.024287	0.001035	20.714047
516.146491	-2.985000	3.727500	-11.125000	24.041185	0.001034	20.712501
517.138721	-3.008700	3.728400	-11.217000	24.043948	0.001034	20.718118
518.142286	-2.993300	3.727900	-11.158000	24.047927	0.001035	20.714047
519.146363	-3.000700	3.724800	-11.176000	24.021051	0.001035	20.696102
520.138950	-2.992100	3.726800	-11.150000	23.992910	0.001033	20.721461
521.145387	-3.005000	3.726200	-11.197000	23.988704	0.001035	20.696853
522.137314	-2.997200	3.726200	-11.167000	24.012498	0.001035	20.717397
523.138111	-2.997600	3.727300	-11.171000	24.036334	0.001034	20.704791
524.144045	-3.016600	3.724500	-11.234000	24.041732	0.001036	20.722533
525.150983	-2.984700	3.725100	-11.118000	24.020063	0.001035	20.713604
526.139754	-3.004500	3.723500	-11.186000	24.029322	0.001034	20.711510
527.147585	-2.997500	3.724900	-11.164000	24.035739	0.001034	20.705142
528.137650	-2.991900	3.725100	-11.144000	24.064112	0.001035	20.735022
529.141078	-3.011300	3.723800	-11.213000	24.024668	0.001032	20.716326
530.139990	-3.003900	3.722800	-11.182000	24.048062	0.001033	20.719873
531.142560	-3.023400	3.721600	-11.249000	24.057641	0.001034	20.702925
532.141428	-2.982600	3.724000	-11.106000	24.074286	0.001035	20.693540
533.142161	-2.987100	3.724000	-11.122000	24.074164	0.001033	20.701004
534.141418	-2.996300	3.723100	-11.154000	24.104126	0.001035	20.703553
535.145918	-2.979300	3.723300	-11.092000	24.120912	0.001034	20.703793
536.140716	-2.981700	3.722500	-11.099000	24.124173	0.001033	20.706115
537.144448	-3.005200	3.720700	-11.180000	24.112581	0.001034	20.705869
538.140471	-3.015800	3.720000	-11.217000	24.093817	0.001032	20.710758
539.142448	-2.976300	3.720300	-11.071000	24.075459	0.001033	20.704674
540.150486	-3.010300	3.719700	-11.197000	24.050328	0.001034	20.713136
541.147698	-2.968900	3.722000	-11.049000	24.056001	0.001034	20.697962
542.147643	-2.988400	3.720800	-11.116000	24.043457	0.001033	20.695338
543.151254	-3.004100	3.719000	-11.171000	24.081857	0.001031	20.700185
544.149806	-2.987500	3.721000	-11.115000	24.085037	0.001034	20.710962
545.165217	-3.013100	3.718000	-11.202000	24.103672	0.001035	20.692191
546.157203	-2.995400	3.717500	-11.133000	24.120771	0.001034	20.694168
547.146742	-2.974700	3.719500	-11.064000	24.136925	0.001033	20.694722
548.146369	-2.986800	3.718000	-11.104000	24.166720	0.001033	20.690467
549.157747	-2.986400	3.718000	-11.103000	24.175481	0.001034	20.700203
550.155708	-3.008900	3.717300	-11.184000	24.199989	0.001034	20.682110
551.152866	-3.003600	3.717100	-11.164000	24.231342	0.001033	20.701232
552.144207	-2.986000	3.716100	-11.095000	24.195385	0.001035	20.708314
553.146246	-3.001800	3.715200	-11.151000	24.184095	0.001033	20.690824
554.151155	-3.020500	3.714800	-11.219000	24.164510	0.001032	20.699630
555.152851	-3.002600	3.715800	-11.155000	24.159187	0.001034	20.695240
556.148490	-3.010800	3.716200	-11.188000	24.114079	0.001034	20.685559
557.174939	-2.995400	3.714900	-11.126000	24.104716	0.001031	20.689444
558.151434	-2.980400	3.715900	-11.074000	24.094567	0.001033	20.685429
559.154065	-3.009700	3.715500	-11.182000	24.084958	0.001034	20.687646
560.159817	-3.019000	3.712900	-11.207000	24.117849	0.001034	20.683175
561.146174	-3.000200	3.713400	-11.140000	24.119592	0.001032	20.721911
562.154080	-3.001700	3.712800	-11.143000	24.142530	0.001034	20.696551
563.157066	-3.029500	3.711400	-11.243000	24.162140	0.001034	20.683976
564.154603	-3.017900	3.711800	-11.201000	24.159647	0.001032	20.695227
565.144758	-3.006200	3.712300	-11.158000	24.158923	0.001033	20.708252
566.146571	-3.002400	3.711500	-11.141000	24.142874	0.001032	20.706854
567.149176	-3.009400	3.711600	-11.169000	24.133290	0.001031	20.669263
568.160393	-3.009800	3.711800	-11.171000	24.130619	0.001032	20.717323
569.152519	-3.019800	3.710400	-11.202000	24.104427	0.001033	20.693897
570.168405	-3.022000	3.710900	-11.213000	24.118745	0.001034	20.700671
571.169339	-3.006200	3.710600	-11.153000	24.105163	0.001034	20.683255
572.160757	-3.013700	3.710000	-11.180000	24.100681	0.001034	20.706262
573.154018	-2.998300	3.711200	-11.126000	24.131208	0.001032	20.697050
574.156048	-2.983300	3.709700	-11.066000	24.123441	0.001032	20.707753
575.156336	-2.990200	3.710100	-11.093000	24.122643	0.001033	20.689407
576.162071	-3.004300	3.710400	-11.146000	24.148442	0.001033	20.692049
577.160987	-3.012800	3.707800	-11.169000	24.122612	0.001033	20.678469
578.153109	-2.981300	3.708800	-11.057000	24.128353	0.001034	20.702247
579.157522	-3.001800	3.708700	-11.132000	24.108423	0.001033	20.698854
580.156946	-3.005300	3.709300	-11.147000	24.124227	0.001031	20.704747
581.161913	-2.996500	3.709100	-11.112000	24.110609	0.001032	20.710056
582.153263	-3.016400	3.706400	-11.179000	24.124411	0.001034	20.718683
583.162055	-3.019900	3.706100	-11.191000	24.172036	0.001031	20.686315
584.154725	-2.986800	3.707000	-11.071000	24.161359	0.001031	20.703583
585.164501	-2.981600	3.706000	-11.049000	24.173251	0.001029	20.707451
586.156024	-2.986500	3.706400	-11.068000	24.185463	0.001031	20.704525
587.157218	-2.991200	3.705600	-11.083000	24.213427	0.001031	20.699383
588.178691	-2.985800	3.706400	-11.066000	24.232655	0.001031	20.694961
589.164400	-3.005800	3.705100	-11.136000	24.262263	0.001032	20.713282
590.162304	-2.994100	3.705100	-11.092000	24.252330	0.001030	20.704741
591.156210	-2.999500	3.705800	-11.114000	24.264572	0.001033	20.690466
592.155463	-3.004900	3.704300	-11.129000	24.276862	0.001032	20.709433
593.160858	-2.963000	3.704400	-10.975000	24.242508	0.001032	20.696310
594.164490	-3.036400	3.703300	-11.243000	24.258549	0.001030	20.706237
595.177256	-2.965000	3.704000	-10.981000	24.255541	0.001031	20.699900
596.156245	-2.999000	3.702800	-11.103000	24.254019	0.001031	20.734885
597.157774	-3.023800	3.702000	-11.193000	24.271981	0.001032	20.705012
598.155686	-3.021000	3.702600	-11.184000	24.235958	0.001029	20.700171
599.160725	-2.989900	3.702400	-11.069000	24.272822	0.001030	20.699691
600.158012	-3.001000	3.702000	-11.109000	24.308869	0.001030	20.714040
601.156272	-3.012000	3.702000	-11.150000	24.318427	0.001029	20.725051
602.167577	-2.999600	3.700500	-11.098000	24.325965	0.001030	20.710326
603.171007	-3.006200	3.700600	-11.123000	24.361384	0.001028	20.705079
604.157234	-3.002600	3.699600	-11.107000	24.358824	0.001030	20.715314
605.156579	-2.976000	3.700600	-11.011000	24.378301	0.001028	20.705929
606.162654	-2.999400	3.699000	-11.094000	24.370610	0.001027	20.698687
607.164334	-3.002000	3.698800	-11.103000	24.383255	0.001029	20.710425
608.161280	-2.991700	3.699600	-11.067000	24.408250	0.001028	20.717482
609.165166	-3.005600	3.698400	-11.115000	24.395446	0.001032	20.722655
610.173698	-3.022100	3.696900	-11.171000	24.438995	0.001031	20.724145
611.157113	-2.998700	3.698200	-11.087000	24.432035	0.001028	20.703410
612.169910	-3.013800	3.695800	-11.137000	24.460465	0.001028	20.713442
613.161505	-2.992000	3.698700	-11.066000	24.437025	0.001028	20.722168
614.171884	-2.991300	3.696700	-11.057000	24.432655	0.001028	20.710671
615.162051	-2.977600	3.698000	-11.010000	24.438148	0.001028	20.732779
616.166194	-3.015100	3.695400	-11.141000	24.439173	0.001027	20.727169
617.166107	-2.995400	3.695900	-11.070000	24.407752	0.001027	20.717457
618.169449	-2.995700	3.695800	-11.070000	24.429690	0.001029	20.720025
619.162279	-2.976200	3.697200	-11.003000	24.424270	0.001028	20.711268
620.162748	-2.984600	3.697300	-11.034000	24.415118	0.001026	20.730538
621.164918	-3.023900	3.694400	-11.169000	24.419274	0.001029	20.703885
622.188199	-3.007800	3.694800	-11.112000	24.433274	0.001026	20.713664
623.173435	-2.998300	3.693900	-11.074000	24.457133	0.001026	20.713892
624.177264	-2.993300	3.694400	-11.058000	24.449270	0.001027	20.704581
625.169354	-3.009300	3.693400	-11.113000	24.471833	0.001026	20.705880
626.170060	-3.001800	3.694500	-11.089000	24.447330	0.001024	20.707851
627.181042	-2.993000	3.693100	-11.052000	24.448294	0.001026	20.723991
628.178730	-2.987100	3.693700	-11.032000	24.399319	0.001026	20.728438
629.165865	-3.015100	3.692600	-11.131000	24.415235	0.001027	20.721171
630.183525	-2.996200	3.692100	-11.061000	24.417469	0.001025	20.716774
631.163095	-3.017800	3.691100	-11.137000	24.414909	0.001025	20.729854
632.165009	-3.000400	3.690700	-11.073000	24.440130	0.001026	20.731449
633.161013	-3.006200	3.692300	-11.099000	24.491412	0.001024	20.724102
634.178171	-3.014900	3.691300	-11.128000	24.490190	0.001026	20.713867
635.168013	-2.989700	3.691400	-11.034000	24.501066	0.001025	20.720986
636.167608	-3.003200	3.689700	-11.079000	24.499569	0.001023	20.733235
637.193432	-2.960200	3.692300	-10.929000	24.503141	0.001024	20.726861
638.191655	-3.012300	3.689800	-11.114000	24.530974	0.001024	20.727760
639.167026	-3.012400	3.690700	-11.117000	24.545127	0.001023	20.728210
640.174972	-2.989400	3.689700	-11.029000	24.552805	0.001025	20.751561
641.173070	-2.993800	3.690000	-11.046000	24.558083	0.001024	20.756857
642.169096	-3.007100	3.688900	-11.091000	24.555837	0.001025	20.744171
643.174620	-2.988000	3.690100	-11.025000	24.550460	0.001022	20.735932
644.165495	-3.009400	3.687700	-11.097000	24.566055	0.001025	20.742096
645.166194	-3.013100	3.687100	-11.108000	24.525039	0.001021	20.736505
646.169309	-3.013300	3.687800	-11.111000	24.524168	0.001022	20.735156
647.180530	-2.983100	3.688200	-11.000000	24.525358	0.001021	20.715487
648.175724	-2.999800	3.685900	-11.056000	24.521351	0.001022	20.745132
649.170067	-3.002200	3.685300	-11.063000	24.496874	0.001023	20.723418
650.172712	-3.001600	3.686300	-11.064000	24.509978	0.001023	20.726134
651.177728	-2.986800	3.686100	-11.009000	24.481874	0.001022	20.746302
652.172504	-2.996400	3.686700	-11.046000	24.489932	0.001022	20.717876
653.176260	-3.013600	3.684700	-11.103000	24.492639	0.001020	20.755681
654.179197	-3.010700	3.684100	-11.090000	24.470801	0.001022	20.745151
655.186360	-3.023200	3.683900	-11.136000	24.435551	0.001019	20.733019
656.179436	-3.020300	3.684200	-11.126000	24.452069	0.001022	20.759074
657.183066	-2.992800	3.684700	-11.027000	24.465302	0.001022	20.755755
658.181378	-3.024100	3.682600	-11.135000	24.495524	0.001021	20.738186
659.175400	-3.013300	3.682000	-11.093000	24.530391	0.001021	20.751358
660.180450	-3.011100	3.682800	-11.088000	24.526144	0.001021	20.758477
661.179705	-2.996200	3.683800	-11.036000	24.558697	0.001021	20.748938
662.182803	-2.993400	3.682400	-11.022000	24.566080	0.001022	20.745440
663.176665	-2.991800	3.681700	-11.013000	24.539493	0.001019	20.745317
664.182323	-2.994600	3.681500	-11.023000	24.516115	0.001019	20.749837
665.179789	-2.995300	3.681800	-11.026000	24.477903	0.001020	20.743266
666.191660	-2.998100	3.682100	-11.039000	24.480941	0.001020	20.750108
667.186989	-2.986500	3.681600	-10.994000	24.467241	0.001021	20.747269
668.186298	-3.016700	3.680000	-11.100000	24.476816	0.001020	20.737434
669.177168	-2.995500	3.681800	-11.027000	24.526015	0.001019	20.752657
670.176295	-2.992900	3.679400	-11.011000	24.525315	0.001017	20.730617
671.205791	-2.988200	3.680500	-10.996000	24.520369	0.001018	20.762165
672.178587	-2.991100	3.680500	-11.007000	24.502465	0.001018	20.747996
673.182126	-3.002900	3.679000	-11.046000	24.482414	0.001020	20.745422
674.191777	-2.997500	3.679700	-11.028000	24.512789	0.001017	20.745077
675.181865	-3.022200	3.677700	-11.113000	24.534945	0.001019	20.753082
676.180971	-3.018800	3.678600	-11.104000	24.560912	0.001015	20.756851
677.184225	-2.999900	3.678800	-11.034000	24.589714	0.001018	20.761568
678.183195	-2.999200	3.678000	-11.031000	24.598846	0.001016	20.750342
679.182019	-2.986300	3.677500	-10.981000	24.567553	0.001016	20.755453
680.195979	-2.994500	3.676900	-11.010000	24.534626	0.001017	20.753236
681.185192	-2.997900	3.677800	-11.025000	24.548527	0.001015	20.777616
682.184774	-3.000400	3.676500	-11.030000	24.534577	0.001014	20.755084
683.182535	-2.984100	3.677500	-10.973000	24.576212	0.001018	20.750391
684.194880	-2.984700	3.676800	-10.973000	24.586388	0.001015	20.745902
685.190604	-2.980400	3.677500	-10.959000	24.598226	0.001016	20.757307
686.185226	-3.002800	3.676100	-11.038000	24.625984	0.001014	20.751019
687.187778	-3.000000	3.675300	-11.025000	24.625591	0.001015	20.769592
688.192763	-2.999100	3.676400	-11.024000	24.651151	0.001015	20.766790
689.181975	-2.987100	3.674000	-10.974000	24.637644	0.001015	20.764142
690.187635	-2.985100	3.674600	-10.968000	24.622430	0.001016	20.759782
691.188693	-2.976100	3.675000	-10.936000	24.599742	0.001014	20.758353
692.189599	-3.014000	3.674300	-11.073000	24.596231	0.001015	20.749615
693.186827	-3.020400	3.672600	-11.092000	24.602080	0.001014	20.772080
694.188171	-3.005300	3.672400	-11.035000	24.589640	0.001012	20.760546
695.180892	-3.007800	3.672300	-11.044000	24.643584	0.001013	20.770577
696.188319	-2.995500	3.673000	-11.001000	24.637171	0.001015	20.772203
697.179362	-3.009300	3.672600	-11.051000	24.633464	0.001014	20.764690
698.202706	-2.972000	3.672400	-10.914000	24.632249	0.001013	20.775799
699.182692	-3.000300	3.670800	-11.012000	24.641547	0.001014	20.787499
700.183493	-3.012900	3.670600	-11.058000	24.637981	0.001014	20.758317
701.183679	-3.005400	3.670800	-11.031000	24.626616	0.001012	20.766353
702.187470	-2.991100	3.671600	-10.981000	24.601448	0.001012	20.774290
703.181995	-3.010700	3.670500	-11.050000	24.624124	0.001012	20.788983
704.197900	-3.003300	3.669500	-11.019000	24.624044	0.001009	20.771359
705.191145	-3.007400	3.670800	-11.038000	24.602313	0.001010	20.762356
706.184186	-2.989200	3.669600	-10.969000	24.607432	0.001013	20.786933
707.184350	-2.987300	3.670400	-10.963000	24.598079	0.001011	20.757159
708.185627	-3.020400	3.668900	-11.079000	24.605419	0.001011	20.775430
709.183086	-3.010800	3.669200	-11.045000	24.618220	0.001009	20.784008
710.200856	-2.989800	3.668500	-10.967000	24.617797	0.001011	20.780738
711.192885	-3.004500	3.667700	-11.017000	24.626057	0.001008	20.780017
712.189121	-3.001100	3.667100	-11.005000	24.645953	0.001010	20.787179
713.190461	-3.000400	3.667300	-11.002000	24.655974	0.001009	20.774475
714.188759	-2.993700	3.668800	-10.983000	24.661921	0.001010	20.765743
715.211320	-2.988400	3.667900	-10.960000	24.643719	0.001008	20.790627
716.189702	-3.022200	3.665300	-11.076000	24.648119	0.001009	20.780344
717.187772	-3.002600	3.664800	-11.003000	24.630740	0.001008	20.776181
718.189826	-3.007600	3.665800	-11.024000	24.611163	0.001009	20.768865
719.199765	-2.991200	3.666800	-10.967000	24.572616	0.001006	20.792302
720.191958	-2.990600	3.666500	-10.964000	24.591518	0.001006	20.786612
721.200512	-2.981200	3.666200	-10.929000	24.613728	0.001007	20.788035
722.201361	-2.961100	3.666700	-10.857000	24.618306	0.001006	20.773662
723.202202	-2.991800	3.663200	-10.958000	24.640939	0.001008	20.785467
724.190913	-2.993600	3.665600	-10.970000	24.667529	0.001006	20.797450
725.210751	-3.012300	3.662800	-11.031000	24.706951	0.001006	20.785800
726.200234	-3.005200	3.663500	-11.008000	24.719678	0.001006	20.785769
727.195136	-2.993800	3.663400	-10.965000	24.737712	0.001006	20.780633
728.196203	-3.003900	3.663600	-11.003000	24.717149	0.001006	20.795560
729.199908	-2.997900	3.661300	-10.975000	24.720580	0.001005	20.783829
730.203112	-2.998300	3.662500	-10.981000	24.720561	0.001005	20.787130
731.196904	-3.002200	3.663800	-10.998000	24.741646	0.001005	20.788374
732.200884	-3.005900	3.661700	-11.006000	24.738590	0.001004	20.776772
733.202387	-3.024900	3.660500	-11.072000	24.782960	0.001003	20.801859
734.199250	-3.008200	3.662300	-11.016000	24.798846	0.001006	20.774654
735.195299	-3.001200	3.661700	-10.988000	24.795244	0.001004	20.781945
736.214649	-3.017200	3.661200	-11.046000	24.778855	0.001003	20.785412
737.196963	-2.999400	3.660700	-10.979000	24.755041	0.001004	20.805135
738.206311	-3.021400	3.659400	-11.055000	24.716794	0.001003	20.772917
739.218769	-2.997900	3.660500	-10.973000	24.760066	0.001002	20.806859
740.195806	-3.012800	3.658600	-11.021000	24.724906	0.001001	20.816619
741.208315	-3.009600	3.657800	-11.008000	24.740431	0.001004	20.803276
742.211859	-3.015500	3.659700	-11.035000	24.743707	0.001006	20.792339
743.209271	-3.008400	3.659200	-11.007000	24.778524	0.001003	20.818744
744.213671	-2.991100	3.658800	-10.943000	24.769479	0.001002	20.790701
745.214088	-3.018300	3.658800	-11.041000	24.801933	0.001002	20.790079
746.195584	-3.005300	3.659000	-10.995000	24.838508	0.001002	20.792647
747.202875	-3.006000	3.657900	-10.994000	24.836121	0.001002	20.788355
748.201030	-3.014100	3.656400	-11.019000	24.826402	0.001000	20.794248
749.203266	-2.987900	3.657500	-10.928000	24.832593	0.001000	20.798565
750.205304	-2.979500	3.656700	-10.894000	24.830464	0.001001	20.808756
751.203937	-2.971000	3.656500	-10.863000	24.841177	0.001000	20.795800
752.199940	-3.009900	3.655500	-11.001000	24.814425	0.001000	20.819686
753.208354	-2.988600	3.655500	-10.923000	24.823261	0.001000	20.795363
754.198988	-2.996900	3.656300	-10.956000	24.855406	0.000998	20.818615
755.198604	-2.996200	3.655200	-10.950000	24.857246	0.000999	20.802919
756.201751	-2.993400	3.655200	-10.941000	24.873714	0.001000	20.813756
757.198861	-3.023900	3.653600	-11.047000	24.903293	0.000999	20.807408
758.210431	-3.009500	3.654500	-10.997000	24.880242	0.000998	20.809403
759.206184	-2.993200	3.655300	-10.940000	24.882071	0.000998	20.799858
760.204559	-2.976000	3.654000	-10.873000	24.845742	0.000998	20.785683
761.203588	-2.980300	3.653700	-10.888000	24.812198	0.000997	20.818873
762.202031	-2.999000	3.653400	-10.954000	24.799914	0.000996	20.798959
763.211341	-2.997400	3.653700	-10.950000	24.797625	0.000996	20.814680
764.203701	-3.014400	3.653700	-11.013000	24.811701	0.000996	20.794193
765.212645	-2.991100	3.652100	-10.923000	24.786353	0.000997	20.810480
766.207606	-2.999600	3.651600	-10.953000	24.784022	0.000997	20.811934
767.206082	-2.990800	3.651100	-10.919000	24.800356	0.000996	20.822162
768.209575	-2.995300	3.652700	-10.940000	24.835845	0.000993	20.806096
769.209518	-3.002400	3.652200	-10.964000	24.859664	0.000995	20.816724
770.211290	-3.013700	3.650000	-10.999000	24.884457	0.000997	20.817426
771.211655	-3.007400	3.651300	-10.980000	24.902035	0.000995	20.818947
772.224524	-3.004300	3.650200	-10.966000	24.907876	0.000995	20.805844
773.212790	-3.026500	3.649800	-11.043000	24.923490	0.000994	20.801127
774.208127	-3.011300	3.649700	-10.989000	24.890519	0.000995	20.814501
775.209982	-2.984300	3.650000	-10.891000	24.875181	0.000993	20.809538
776.215470	-2.986900	3.649200	-10.899000	24.868192	0.000993	20.843775
777.211853	-3.014800	3.648400	-10.998000	24.840889	0.000993	20.814003
778.209505	-3.001700	3.649600	-10.953000	24.852577	0.000991	20.808190
779.222410	-2.996000	3.648600	-10.930000	24.850589	0.000993	20.818996
780.211725	-3.003800	3.647800	-10.955000	24.850062	0.000993	20.817993
781.217858	-2.985900	3.647700	-10.891000	24.868149	0.000991	20.835672
782.212549	-2.998900	3.648700	-10.941000	24.897133	0.000993	20.831570
783.206996	-3.002700	3.648100	-10.953000	24.925135	0.000990	20.830277
784.208355	-3.004500	3.646100	-10.953000	24.939184	0.000990	20.827309
785.213011	-2.986300	3.647800	-10.893000	24.950577	0.000991	20.837322
786.220191	-2.994400	3.646100	-10.917000	24.966510	0.000989	20.826287
787.211336	-2.998300	3.646600	-10.933000	24.943012	0.000990	20.844428
788.217111	-3.012900	3.646700	-10.986000	24.905471	0.000989	20.825240
789.218402	-2.981700	3.646200	-10.871000	24.892943	0.000990	20.827839
790.225179	-3.008300	3.645200	-10.964000	24.872702	0.000989	20.826965
791.216052	-2.987300	3.644400	-10.886000	24.896593	0.000989	20.827236
792.211450	-3.017200	3.643400	-10.991000	24.903011	0.000988	20.838418
793.217434	-3.009500	3.644300	-10.966000	24.912809	0.000988	20.848252
794.215979	-3.009800	3.644000	-10.966000	24.957411	0.000989	20.808621
795.220280	-3.011500	3.644100	-10.973000	24.947019	0.000987	20.843707
796.222901	-3.009200	3.642800	-10.961000	24.940761	0.000987	20.851176
797.216447	-3.005600	3.643100	-10.949000	24.966442	0.000986	20.840918
798.215626	-3.019300	3.643400	-10.999000	24.959951	0.000986	20.829188
799.221982	-2.999100	3.643100	-10.925000	24.984344	0.000987	20.832334
800.221420	-3.009000	3.642000	-10.957000	24.962142	0.000986	20.846558
801.229382	-3.004700	3.641700	-10.941000	24.960258	0.000986	20.828073
802.220420	-3.019400	3.642400	-10.996000	24.949957	0.000986	20.823898
803.226326	-3.015900	3.641200	-10.979000	24.983657	0.000986	20.851558
804.219368	-3.007500	3.641400	-10.950000	24.968412	0.000982	20.817291
805.228744	-2.994500	3.640900	-10.901000	24.989025	0.000986	20.831817
806.218131	-2.974700	3.641800	-10.832000	25.000792	0.000983	20.835567
807.216458	-3.016500	3.639000	-10.976000	24.987135	0.000983	20.840826
808.215048	-3.014500	3.640100	-10.972000	24.974485	0.000983	20.839982
809.223392	-3.011100	3.640400	-10.960000	24.965712	0.000984	20.836392
810.216356	-3.018900	3.638600	-10.983000	24.963921	0.000984	20.839335
811.223555	-3.028800	3.638100	-11.018000	24.991019	0.000982	20.822439
812.219457	-2.998000	3.638900	-10.908000	25.000491	0.000980	20.855179
813.220090	-3.010800	3.640400	-10.959000	24.973473	0.000981	20.838966
814.217452	-2.981500	3.639400	-10.850000	24.974387	0.000984	20.794366
815.222811	-2.997000	3.637800	-10.902000	24.986577	0.000981	20.825093
816.223384	-3.000100	3.637900	-10.914000	24.979289	0.000981	20.822519
817.221448	-3.001400	3.637200	-10.915000	24.992823	0.000979	20.814292
818.229518	-3.001700	3.637200	-10.918000	24.995755	0.000977	20.808701
819.219872	-2.979300	3.638500	-10.839000	25.023447	0.000980	20.811841
820.223248	-2.985300	3.637500	-10.859000	25.044783	0.000978	20.819508
821.221491	-2.986600	3.637700	-10.863000	25.043072	0.000979	20.808781
822.220448	-2.972500	3.636900	-10.811000	25.020049	0.000979	20.797051
823.221925	-2.981000	3.635900	-10.838000	25.044783	0.000978	20.826146
824.216246	-3.005900	3.635300	-10.926000	25.034152	0.000978	20.831596
825.224389	-2.991800	3.634900	-10.874000	25.042980	0.000979	20.819120
826.219173	-3.020000	3.634800	-10.976000	25.038011	0.000978	20.821719
827.222919	-3.010700	3.634600	-10.942000	25.045121	0.000977	20.815105
828.229825	-3.022600	3.633000	-10.980000	25.012528	0.000977	20.813209
829.225074	-3.004800	3.635500	-10.923000	25.006491	0.000977	20.807150
830.229062	-2.970800	3.635100	-10.798000	25.052409	0.000976	20.800610
831.219018	-3.001400	3.632800	-10.903000	25.052691	0.000974	20.798048
832.220000	-2.980400	3.633400	-10.828000	25.090902	0.000974	20.790887
833.226405	-3.019200	3.632800	-10.967000	25.095730	0.000976	20.807587
834.222399	-3.030700	3.630700	-11.002000	25.138215	0.000974	20.809933
835.223034	-3.000800	3.632300	-10.899000	25.147465	0.000974	20.782709
836.241771	-3.001300	3.633000	-10.902000	25.154599	0.000974	20.795087
837.228281	-2.993900	3.632400	-10.874000	25.135510	0.000972	20.792993
838.223233	-3.002500	3.631100	-10.901000	25.146379	0.000973	20.778775
839.227696	-2.988800	3.631000	-10.850000	25.137749	0.000973	20.805672
840.222675	-2.996500	3.631400	-10.881000	25.118960	0.000973	20.801984
841.226842	-2.996600	3.631000	-10.880000	25.106606	0.000970	20.783892
842.225586	-3.006300	3.631800	-10.917000	25.060292	0.000973	20.798092
843.222694	-3.006700	3.630100	-10.912000	25.036373	0.000971	20.775979
844.230031	-2.989400	3.630000	-10.850000	25.031331	0.000970	20.776133
845.229160	-2.997100	3.629900	-10.877000	25.025957	0.000971	20.773583
846.230784	-3.008500	3.628700	-10.916000	25.044612	0.000970	20.776663
847.229776	-2.995900	3.628500	-10.869000	25.028619	0.000969	20.786213
848.230374	-2.994000	3.630200	-10.868000	25.011369	0.000969	20.791657
849.229300	-2.991400	3.628300	-10.852000	25.022356	0.000970	20.783719
850.229016	-3.000100	3.629200	-10.885000	25.052495	0.000969	20.782679
851.234723	-3.012300	3.627200	-10.925000	25.058237	0.000968	20.787020
852.230176	-3.004000	3.625900	-10.891000	25.069573	0.000970	20.792710
853.230884	-3.005800	3.628000	-10.904000	25.085388	0.000967	20.777291
854.227399	-2.997600	3.625900	-10.868000	25.071543	0.000968	20.774772
855.230893	-2.982800	3.627900	-10.820000	25.105625	0.000969	20.773898
856.227554	-2.991600	3.626800	-10.849000	25.087946	0.000967	20.791712
857.229235	-3.001300	3.625000	-10.879000	25.114059	0.000968	20.765295
858.229339	-2.992100	3.624900	-10.845000	25.137326	0.000966	20.778221
859.235353	-3.012000	3.626200	-10.921000	25.156991	0.000967	20.785635
860.243828	-2.983200	3.625400	-10.813000	25.153605	0.000967	20.772752
861.233786	-2.993200	3.627000	-10.855000	25.177006	0.000966	20.778227
862.230197	-2.988600	3.624200	-10.830000	25.188065	0.000968	20.767044
863.229149	-3.015100	3.624300	-10.927000	25.167830	0.000966	20.776127
864.232370	-2.997700	3.624600	-10.865000	25.183048	0.000966	20.782396
865.231221	-3.011200	3.624300	-10.912000	25.196241	0.000965	20.777623
866.235554	-3.015700	3.621700	-10.921000	25.148815	0.000965	20.788332
867.238296	-3.007100	3.622900	-10.893000	25.156844	0.000965	20.777901
868.237516	-2.995500	3.623100	-10.852000	25.147772	0.000963	20.758361
869.238216	-2.996500	3.622300	-10.853000	25.157243	0.000964	20.776878
870.236381	-3.022500	3.621400	-10.945000	25.164248	0.000965	20.788178
871.235451	-2.991000	3.623400	-10.837000	25.157709	0.000964	20.774501
872.229123	-2.987300	3.622300	-10.819000	25.201038	0.000961	20.762524
873.236125	-3.009300	3.621400	-10.897000	25.198431	0.000962	20.768916
874.232409	-3.010600	3.620100	-10.897000	25.188065	0.000963	20.750448
875.229115	-3.014600	3.620500	-10.913000	25.168799	0.000960	20.753392
876.232057	-2.999700	3.620800	-10.860000	25.134240	0.000961	20.753786
877.238836	-2.973900	3.620900	-10.767000	25.156218	0.000962	20.753090
878.241749	-2.983900	3.619300	-10.799000	25.143411	0.000960	20.771053
879.237826	-3.009000	3.620600	-10.894000	25.141227	0.000961	20.781189
880.232589	-2.986400	3.620000	-10.809000	25.171651	0.000959	20.760048
881.246734	-3.009000	3.619600	-10.889000	25.165542	0.000958	20.763398
882.235495	-2.982000	3.619500	-10.792000	25.202424	0.000959	20.745897
883.244039	-3.000900	3.617400	-10.855000	25.192285	0.000956	20.785031
884.233135	-3.012000	3.616700	-10.892000	25.193303	0.000958	20.764242
885.234694	-3.000800	3.617600	-10.854000	25.149152	0.000958	20.756427
886.240174	-2.989100	3.618600	-10.815000	25.138320	0.000958	20.771632
887.240176	-3.015700	3.615900	-10.903000	25.129517	0.000956	20.767062
888.234819	-2.981400	3.617400	-10.785000	25.160868	0.000957	20.760603
889.244008	-3.005400	3.617500	-10.871000	25.167548	0.000958	20.773473
890.233021	-3.017600	3.615600	-10.910000	25.176503	0.000956	20.757807
891.234474	-2.997200	3.616100	-10.837000	25.132523	0.000955	20.748742
892.245241	-3.009400	3.615200	-10.878000	25.138743	0.000953	20.744555
893.239470	-3.003000	3.615200	-10.855000	25.109802	0.000955	20.762918
894.244941	-3.003000	3.614700	-10.854000	25.099313	0.000955	20.761397
895.240235	-2.983100	3.614600	-10.781000	25.141074	0.000953	20.754481
896.241821	-3.020700	3.613400	-10.914000	25.151820	0.000953	20.743459
897.243944	-3.001700	3.613100	-10.844000	25.157562	0.000952	20.768189
898.239703	-2.988200	3.613900	-10.798000	25.149931	0.000952	20.768116
899.251027	-2.990300	3.613600	-10.804000	25.162628	0.000953	20.777069
900.247626	-3.003200	3.614100	-10.853000	25.211208	0.000952	20.747129
901.246397	-2.993000	3.612000	-10.810000	25.223886	0.000952	20.744210
902.249804	-2.984700	3.613300	-10.783000	25.233632	0.000951	20.747357
903.246488	-2.985000	3.612200	-10.782000	25.275737	0.000951	20.748853
904.257205	-2.999900	3.612000	-10.834000	25.257650	0.000952	20.753928
905.238486	-3.002100	3.613100	-10.844000	25.303692	0.000950	20.746100
906.256581	-2.996600	3.611300	-10.821000	25.259337	0.000948	20.761785
907.238959	-3.007000	3.609900	-10.853000	25.269052	0.000950	20.737873
908.241283	-3.008400	3.611000	-10.862000	25.283300	0.000947	20.762610
909.249091	-3.027200	3.609000	-10.924000	25.284275	0.000949	20.755529
910.248804	-2.994100	3.611200	-10.810000	25.272990	0.000948	20.735663
911.242367	-3.004600	3.609800	-10.845000	25.254436	0.000947	20.736950
912.243840	-2.984600	3.610700	-10.776000	25.247211	0.000944	20.746766
913.241704	-2.994900	3.610500	-10.811000	25.231620	0.000946	20.743914
914.250213	-3.014100	3.608500	-10.876000	25.251910	0.000946	20.756225
915.253898	-3.008200	3.609800	-10.858000	25.249100	0.000945	20.747240
916.251303	-3.000500	3.608100	-10.826000	25.247359	0.000947	20.738378
917.253874	-3.001700	3.607400	-10.827000	25.240225	0.000945	20.735958
918.241566	-2.973600	3.608100	-10.728000	25.287826	0.000945	20.738231
919.245895	-3.003500	3.606400	-10.831000	25.307065	0.000944	20.757074
920.247804	-2.965600	3.608900	-10.701000	25.307611	0.000947	20.745768
921.244820	-3.031300	3.606000	-10.930000	25.345611	0.000944	20.727971
922.251985	-3.002800	3.607100	-10.830000	25.340318	0.000943	20.735934
923.243527	-3.021800	3.605300	-10.892000	25.373349	0.000944	20.744444
924.243939	-3.012000	3.606700	-10.863000	25.372932	0.000943	20.739758
925.251338	-3.025600	3.605100	-10.906000	25.364727	0.000941	20.732467
926.252047	-3.024400	3.604300	-10.900000	25.347328	0.000941	20.730644
927.254189	-3.003500	3.604300	-10.824000	25.312309	0.000940	20.730570
928.248031	-3.018200	3.604000	-10.875000	25.258521	0.000941	20.733464
929.253218	-2.986700	3.604900	-10.766000	25.260760	0.000940	20.731919
930.245206	-3.036000	3.603500	-10.939000	25.261152	0.000941	20.718561
931.249691	-3.007300	3.603800	-10.835000	25.273763	0.000938	20.735016
932.261128	-2.990500	3.603800	-10.776000	25.239980	0.000941	20.740928
933.250299	-3.004300	3.602300	-10.821000	25.247886	0.000937	20.749340
934.251209	-2.963100	3.604600	-10.680000	25.233197	0.000938	20.727004
935.261911	-2.998000	3.602300	-10.799000	25.201075	0.000939	20.745491
936.249780	-2.989400	3.602000	-10.767000	25.157771	0.000937	20.751329
937.254640	-2.974100	3.604500	-10.718000	25.170505	0.000937	20.724282
938.254580	-2.977100	3.603600	-10.728000	25.169854	0.000939	20.743071
939.253771	-3.017100	3.600900	-10.863000	25.158519	0.000936	20.732639
940.252229	-2.973900	3.602100	-10.711000	25.177135	0.000935	20.737104
941.259338	-3.004400	3.600500	-10.815000	25.211858	0.000935	20.733082
942.249061	-2.992000	3.602900	-10.779000	25.225529	0.000937	20.746335
943.263958	-2.994700	3.600000	-10.779000	25.259110	0.000936	20.725520
944.249799	-3.007000	3.600500	-10.826000	25.260324	0.000934	20.733852
945.262655	-3.002700	3.600200	-10.809000	25.254283	0.000934	20.727786
946.266811	-3.002900	3.598300	-10.804000	25.218838	0.000933	20.728710
947.250121	-2.987300	3.600700	-10.755000	25.204197	0.000932	20.738193
948.259615	-3.021700	3.598700	-10.873000	25.256963	0.000933	20.719097
949.252631	-2.986500	3.598200	-10.745000	25.270462	0.000931	20.709890
950.253714	-3.005400	3.598100	-10.811000	25.264617	0.000931	20.720144
951.248611	-3.015100	3.596200	-10.842000	25.270524	0.000930	20.717539
952.255556	-2.978600	3.597700	-10.715000	25.302796	0.000930	20.740934
953.252555	-2.984100	3.597900	-10.735000	25.294836	0.000931	20.717766
954.255216	-2.990100	3.597100	-10.755000	25.274406	0.000932	20.720488
955.257251	-3.003300	3.595900	-10.799000	25.267218	0.000930	20.714693
956.258978	-2.998600	3.597100	-10.785000	25.292002	0.000929	20.727724
957.260216	-3.011300	3.595200	-10.824000	25.320361	0.000928	20.728223
958.255654	-3.023900	3.595400	-10.871000	25.340796	0.000928	20.718869
959.251484	-2.998900	3.593800	-10.777000	25.334105	0.000929	20.693657
960.254980	-3.004900	3.594500	-10.800000	25.334903	0.000928	20.706786
961.253435	-2.991700	3.594200	-10.752000	25.324979	0.000925	20.705357
962.260887	-3.009300	3.593600	-10.813000	25.281662	0.000926	20.719712
963.258129	-3.012800	3.593500	-10.825000	25.251283	0.000925	20.721455
964.266869	-2.986300	3.593500	-10.730000	25.286709	0.000926	20.710081
965.276727	-3.004400	3.593000	-10.793000	25.295700	0.000924	20.735705
966.253624	-2.999900	3.591800	-10.774000	25.319441	0.000923	20.722083
967.257923	-2.986600	3.591800	-10.726000	25.352816	0.000925	20.707704
968.263050	-2.993300	3.593500	-10.755000	25.369847	0.000926	20.697777
969.277600	-3.000100	3.591800	-10.774000	25.386522	0.000923	20.718789
970.253855	-2.981400	3.592800	-10.710000	25.390894	0.000921	20.697099
971.264094	-3.002700	3.591900	-10.783000	25.405907	0.000922	20.701268
972.268328	-2.976500	3.591000	-10.686000	25.402601	0.000923	20.707907
973.257452	-3.032800	3.589600	-10.885000	25.362236	0.000922	20.715266
974.272872	-2.995500	3.591000	-10.756000	25.343544	0.000921	20.719257
975.257184	-2.995000	3.591500	-10.756000	25.343249	0.000920	20.713271
976.279138	-2.992900	3.591000	-10.746000	25.355349	0.000920	20.708825
977.257191	-3.007400	3.588600	-10.792000	25.349088	0.000920	20.715814
978.260917	-3.007600	3.589200	-10.794000	25.370215	0.000919	20.705733
979.258738	-2.998700	3.589900	-10.764000	25.390422	0.000919	20.707531
980.265666	-2.972200	3.589000	-10.667000	25.417215	0.000919	20.714047
981.263538	-3.018700	3.588200	-10.831000	25.415173	0.000918	20.708203
982.264261	-2.989600	3.588300	-10.726000	25.428020	0.000917	20.711146
983.262221	-2.996700	3.587600	-10.750000	25.434753	0.000919	20.703682
984.262941	-3.012200	3.586100	-10.800000	25.433858	0.000919	20.689980
985.257621	-3.005200	3.586800	-10.778000	25.429210	0.000915	20.713763
986.278780	-2.984200	3.588600	-10.708000	25.394316	0.000917	20.701010
987.264782	-3.007700	3.585600	-10.783000	25.373913	0.000916	20.699488
988.261291	-2.986200	3.586600	-10.708000	25.373539	0.000916	20.702432
989.271919	-2.999600	3.585600	-10.754000	25.414369	0.000913	20.692222
990.265759	-2.985100	3.587000	-10.707000	25.454334	0.000913	20.706749
991.263632	-3.020300	3.585400	-10.827000	25.477887	0.000914	20.707642
992.267544	-3.011200	3.586000	-10.797000	25.487061	0.000915	20.703103
993.262836	-3.000200	3.585500	-10.756000	25.490415	0.000914	20.692246
994.285896	-3.000600	3.583800	-10.752000	25.505224	0.000912	20.716128
995.261416	-2.994000	3.585000	-10.732000	25.488747	0.000913	20.697210
996.268606	-3.001700	3.584600	-10.759000	25.494388	0.000912	20.701453
997.267433	-2.994700	3.582700	-10.728000	25.502513	0.000911	20.700603
998.271991	-3.004700	3.582800	-10.764000	25.493021	0.000910	20.689173
999.269749	-2.992500	3.583700	-10.722000	25.438874	0.000911	20.711614
1000.270607	-2.996700	3.582200	-10.734000	25.395573	0.000909	20.681407
1001.271457	-3.003400	3.582900	-10.760000	25.414020	0.000909	20.703725
1002.274909	-2.982300	3.581400	-10.680000	25.449655	0.000909	20.685928
1003.273370	-3.010900	3.581200	-10.781000	25.427511	0.000908	20.686925
1004.285333	-2.989400	3.580800	-10.703000	25.426947	0.000907	20.705327
1005.270455	-2.985000	3.580400	-10.686000	25.419882	0.000907	20.690171
1006.266360	-2.998200	3.579600	-10.731000	25.444908	0.000907	20.692068
1007.291455	-3.009300	3.580600	-10.773000	25.456314	0.000906	20.691667
1008.275767	-3.019400	3.578700	-10.805000	25.450648	0.000904	20.693564
1009.267946	-3.005000	3.578100	-10.750000	25.505095	0.000905	20.700350
1010.266756	-2.989100	3.579400	-10.698000	25.528954	0.000906	20.689697
1011.274103	-2.987900	3.580000	-10.696000	25.533577	0.000904	20.710463
1012.265519	-3.001100	3.577400	-10.735000	25.536453	0.000903	20.685847
1013.269308	-3.003600	3.577800	-10.745000	25.543633	0.000904	20.710604
1014.269635	-2.992600	3.576800	-10.702000	25.527317	0.000903	20.693268
1015.272968	-2.972900	3.579200	-10.639000	25.555688	0.000902	20.677663
1016.284961	-3.011600	3.577800	-10.775000	25.591521	0.000903	20.703220
1017.275238	-2.998500	3.576800	-10.724000	25.562390	0.000901	20.695775
1018.284928	-2.987200	3.576600	-10.684000	25.540947	0.000902	20.671393
1019.271937	-2.997800	3.576900	-10.722000	25.487864	0.000900	20.698220
1020.275449	-2.982400	3.577400	-10.667000	25.470271	0.000901	20.687190
1021.280604	-3.014800	3.574800	-10.776000	25.493076	0.000899	20.681167
1022.270239	-2.989500	3.575500	-10.688000	25.530720	0.000903	20.681037
1023.282775	-2.990000	3.575000	-10.689000	25.513747	0.000901	20.698133
1024.281006	-2.992700	3.576200	-10.700000	25.485730	0.000899	20.669995
1025.274705	-3.014900	3.574200	-10.774000	25.446613	0.000897	20.700892
1026.271393	-3.039500	3.571500	-10.855000	25.442161	0.000897	20.691679
1027.284772	-2.996800	3.573500	-10.708000	25.438653	0.000896	20.666817
1028.275046	-3.002800	3.573100	-10.727000	25.452745	0.000897	20.692350
1029.278109	-3.001300	3.574000	-10.726000	25.477016	0.000896	20.696335
1030.281879	-2.977600	3.574400	-10.641000	25.514911	0.000895	20.699777
1031.280273	-2.999000	3.573100	-10.714000	25.514304	0.000894	20.679251
1032.290596	-3.030600	3.571200	-10.821000	25.477942	0.000897	20.690626
1033.275176	-2.998000	3.572100	-10.708000	25.432287	0.000895	20.680815
1034.282076	-3.005400	3.571900	-10.732000	25.431754	0.000894	20.682650
1035.280294	-3.004000	3.570400	-10.724000	25.404691	0.000894	20.686770
1036.275810	-2.985200	3.571100	-10.658000	25.380848	0.000894	20.695072
1037.274703	-2.992800	3.571000	-10.687000	25.377487	0.000891	20.702129
1038.276469	-3.000100	3.569000	-10.707000	25.363977	0.000894	20.680975
1039.281774	-3.020200	3.569100	-10.778000	25.399828	0.000891	20.697535
1040.277203	-2.988300	3.570000	-10.668000	25.372740	0.000891	20.699734
1041.286641	-3.001300	3.569600	-10.712000	25.394530	0.000890	20.698379
1042.281659	-2.993200	3.569500	-10.683000	25.365620	0.000890	20.699223
1043.275628	-2.983400	3.569800	-10.649000	25.330694	0.000888	20.696870
1044.278009	-2.994300	3.568700	-10.685000	25.319753	0.000889	20.705800
1045.279279	-2.983900	3.568900	-10.649000	25.327235	0.000887	20.707148
1046.282166	-3.005800	3.567200	-10.721000	25.327854	0.000887	20.707296
1047.278355	-3.018800	3.565700	-10.763000	25.312798	0.000887	20.687435
1048.292443	-2.979800	3.567700	-10.630000	25.298845	0.000886	20.686702
1049.276809	-3.027300	3.565500	-10.793000	25.308713	0.000886	20.696611
1050.285016	-2.997300	3.566200	-10.687000	25.256636	0.000885	20.717821
1051.292137	-3.019700	3.565400	-10.766000	25.276005	0.000882	20.688901
1052.276330	-2.991800	3.565100	-10.665000	25.261279	0.000884	20.708257
1053.283875	-3.008100	3.565200	-10.724000	25.231931	0.000884	20.693963
1054.287285	-2.994400	3.564400	-10.671000	25.250675	0.000883	20.705196
1055.284538	-2.980700	3.564600	-10.624000	25.248430	0.000882	20.695829
1056.279707	-2.992400	3.565100	-10.667000	25.284567	0.000881	20.681375
1057.282722	-3.012100	3.562700	-10.731000	25.302439	0.000882	20.695053
1058.279527	-2.987400	3.562000	-10.639000	25.335502	0.000879	20.712605
1059.285457	-3.020500	3.562600	-10.758000	25.395345	0.000881	20.677859
1060.286196	-2.995200	3.564000	-10.674000	25.448311	0.000879	20.708288
1061.279664	-2.990900	3.561700	-10.652000	25.477831	0.000877	20.685298
1062.284747	-3.000500	3.562500	-10.688000	25.465554	0.000879	20.702369
1063.287561	-2.994900	3.561600	-10.666000	25.472214	0.000878	20.684873
1064.298395	-2.978800	3.562600	-10.610000	25.474697	0.000878	20.685945
1065.292090	-2.996800	3.561500	-10.672000	25.467535	0.000876	20.711946
1066.283363	-3.020300	3.559400	-10.749000	25.427608	0.000877	20.700300
1067.286607	-3.010500	3.559300	-10.714000	25.418961	0.000876	20.717697
1068.282086	-3.010100	3.560500	-10.717000	25.425965	0.000879	20.719988
1069.287988	-3.001100	3.559100	-10.680000	25.483724	0.000876	20.702597
1070.282290	-2.969300	3.561000	-10.572000	25.508865	0.000875	20.706982
1071.297431	-3.011500	3.558000	-10.715000	25.512470	0.000876	20.709655
1072.291080	-3.001300	3.559000	-10.681000	25.528842	0.000872	20.707604
1073.292953	-2.993000	3.557500	-10.646000	25.578864	0.000873	20.711847
1074.282739	-3.011500	3.557300	-10.712000	25.584757	0.000873	20.716343
1075.289653	-3.002000	3.557600	-10.679000	25.601177	0.000873	20.702012
1076.282526	-3.007000	3.557600	-10.695000	25.606229	0.000873	20.715148
1077.309942	-2.987100	3.557400	-10.626000	25.606971	0.000872	20.707358
1078.287226	-2.993000	3.558100	-10.648000	25.623102	0.000871	20.707438
1079.294703	-2.989300	3.557500	-10.633000	25.600116	0.000871	20.720863
1080.293770	-2.990000	3.556600	-10.632000	25.618056	0.000871	20.717069
1081.289743	-3.008900	3.556200	-10.700000	25.609528	0.000868	20.732212
1082.297027	-2.979200	3.556700	-10.595000	25.639350	0.000868	20.702893
1083.288299	-2.983500	3.557100	-10.612000	25.638400	0.000869	20.718535
1084.306737	-3.001200	3.554800	-10.667000	25.640067	0.000869	20.723055
1085.298604	-2.988400	3.555200	-10.624000	25.652133	0.000866	20.729484
1086.286366	-2.989400	3.556000	-10.630000	25.644684	0.000869	20.703034
1087.285491	-3.014100	3.553700	-10.710000	25.649105	0.000866	20.721226
1088.285642	-2.994300	3.554400	-10.642000	25.677871	0.000866	20.716928
1089.285503	-2.979000	3.554300	-10.587000	25.716581	0.000866	20.719773
1090.293059	-2.991000	3.553900	-10.629000	25.743146	0.000867	20.727489
1091.288928	-3.006600	3.553500	-10.683000	25.732258	0.000866	20.725561
1092.288806	-2.990600	3.553300	-10.625000	25.753053	0.000863	20.718473
1093.296131	-3.000400	3.553100	-10.659000	25.772805	0.000863	20.729780
1094.293835	-3.006100	3.551300	-10.674000	25.764038	0.000863	20.719077
1095.308980	-2.999200	3.552000	-10.652000	25.737794	0.000862	20.719742
1096.291729	-2.988900	3.551100	-10.613000	25.685964	0.000862	20.722686
1097.293618	-2.981300	3.552100	-10.589000	25.672323	0.000862	20.718467
1098.293087	-2.969700	3.551400	-10.544000	25.672820	0.000859	20.719914
1099.303589	-2.988900	3.550800	-10.612000	25.682464	0.000861	20.735766
1100.290460	-3.005200	3.548900	-10.664000	25.680072	0.000860	20.730519
1101.294080	-2.992300	3.550200	-10.623000	25.675677	0.000858	20.725629
1102.295158	-3.010800	3.549400	-10.685000	25.655720	0.000860	20.725500
1103.302826	-3.016200	3.549300	-10.704000	25.623446	0.000859	20.722008
1104.295657	-3.000200	3.548700	-10.645000	25.603862	0.000856	20.710874
1105.301936	-2.992100	3.549800	-10.620000	25.618798	0.000859	20.728721
1106.292574	-2.989800	3.549300	-10.611000	25.658056	0.000855	20.730691
1107.301006	-3.001000	3.547300	-10.644000	25.694805	0.000857	20.731092
1108.309779	-2.987100	3.547200	-10.594000	25.710911	0.000857	20.730199
1109.301831	-3.016700	3.547100	-10.699000	25.721786	0.000855	20.737330
1110.300547	-3.040800	3.545200	-10.779000	25.693162	0.000855	20.735606
1111.299887	-3.011500	3.547200	-10.680000	25.687773	0.000854	20.733986
1112.310756	-3.005100	3.545300	-10.653000	25.676596	0.000854	20.728450
1113.300008	-2.989800	3.546100	-10.600000	25.653415	0.000855	20.716072
1114.293503	-2.994800	3.544300	-10.614000	25.636419	0.000853	20.726030
1115.316209	-2.990000	3.544800	-10.598000	25.649932	0.000851	20.742447
1116.298799	-2.995300	3.543800	-10.614000	25.650331	0.000851	20.738106
1117.299833	-2.972000	3.546100	-10.537000	25.650006	0.000851	20.720235
1118.297051	-2.990500	3.543100	-10.594000	25.652716	0.000850	20.741924
1119.297163	-3.010300	3.542400	-10.663000	25.613329	0.000851	20.714218
1120.295453	-2.994400	3.542500	-10.606000	25.603893	0.000849	20.743623
1121.297989	-2.991900	3.542500	-10.598000	25.596756	0.000848	20.736455
1122.296834	-2.999000	3.544100	-10.627000	25.650355	0.000848	20.734337
1123.298420	-2.995200	3.542500	-10.610000	25.654353	0.000847	20.720333
1124.299389	-3.007700	3.541100	-10.650000	25.690998	0.000847	20.732009
1125.315970	-2.989300	3.541900	-10.587000	25.667663	0.000845	20.737970
1126.299554	-3.000600	3.541700	-10.626000	25.691660	0.000845	20.745477
1127.298948	-3.011500	3.539400	-10.658000	25.667510	0.000845	20.749197
1128.318200	-2.994200	3.541700	-10.603000	25.674248	0.000844	20.741265
1129.303018	-2.993100	3.539500	-10.593000	25.678491	0.000844	20.742207
1130.303895	-2.981900	3.540700	-10.557000	25.701825	0.000844	20.746204
1131.316501	-2.997500	3.539400	-10.608000	25.675787	0.000844	20.741862
1132.302754	-3.007300	3.539200	-10.642000	25.693003	0.000844	20.744455
1133.311804	-2.969600	3.539600	-10.510000	25.677547	0.000841	20.740785
1134.298424	-3.004700	3.538300	-10.631000	25.668853	0.000841	20.754339
1135.309314	-3.005400	3.538400	-10.634000	25.698937	0.000842	20.745674
1136.302582	-3.011200	3.536900	-10.649000	25.719463	0.000841	20.750644
1137.317867	-3.000200	3.538200	-10.615000	25.741245	0.000841	20.763988
1138.306127	-3.011200	3.537100	-10.650000	25.770334	0.000841	20.751955
1139.310610	-2.999300	3.538100	-10.611000	25.793814	0.000840	20.763686
1140.319211	-3.013100	3.535600	-10.651000	25.788824	0.000840	20.752035
1141.305788	-3.008600	3.537000	-10.639000	25.815178	0.000837	20.747214
1142.313354	-3.009000	3.535700	-10.638000	25.832863	0.000837	20.751229
1143.311035	-3.009400	3.535000	-10.637000	25.851002	0.000835	20.758070
1144.306031	-2.990000	3.535800	-10.571000	25.831471	0.000837	20.761211
1145.316458	-3.025900	3.534100	-10.693000	25.828210	0.000836	20.773582
1146.312454	-3.002900	3.534400	-10.613000	25.841175	0.000835	20.770011
1147.313324	-2.999800	3.533700	-10.599000	25.837902	0.000836	20.746333
1148.304739	-2.994700	3.533400	-10.581000	25.837626	0.000833	20.756962
1149.308525	-3.036700	3.532100	-10.725000	25.846116	0.000833	20.765017
1150.309018	-2.994300	3.534000	-10.581000	25.818641	0.000833	20.741684
1151.312998	-3.003600	3.531600	-10.607000	25.823233	0.000832	20.753883
1152.311198	-3.023300	3.531800	-10.677000	25.806908	0.000832	20.773995
1153.309594	-2.998300	3.534000	-10.595000	25.802936	0.000830	20.792764
1154.309446	-2.987300	3.532700	-10.552000	25.814381	0.000830	20.763009
1155.314412	-2.976700	3.531400	-10.510000	25.805958	0.000829	20.766402
1156.308746	-2.991000	3.530000	-10.558000	25.802807	0.000829	20.762763
1157.307668	-3.020600	3.530400	-10.662000	25.789786	0.000828	20.760115
1158.311378	-2.991400	3.530800	-10.561000	25.766258	0.000828	20.767301
1159.312642	-2.984000	3.529900	-10.532000	25.756173	0.000827	20.761913
1160.312517	-3.006300	3.528900	-10.608000	25.711297	0.000827	20.769943
1161.321856	-2.980500	3.530700	-10.523000	25.719010	0.000827	20.775319
1162.311378	-3.001700	3.529200	-10.592000	25.701384	0.000825	20.765202
1163.310161	-3.024100	3.527400	-10.666000	25.708661	0.000825	20.765399
1164.323661	-3.017400	3.527900	-10.644000	25.690728	0.000825	20.789587
1165.315537	-3.028200	3.526900	-10.678000	25.718084	0.000827	20.759216
1166.313162	-3.031500	3.527600	-10.691000	25.729315	0.000824	20.751531
1167.311992	-3.020900	3.526900	-10.653000	25.719800	0.000825	20.782278
1168.311901	-2.980700	3.528100	-10.515000	25.721119	0.000824	20.787395
1169.315760	-3.009700	3.527000	-10.614000	25.729836	0.000822	20.784297
1170.312017	-3.028600	3.523600	-10.671000	25.742931	0.000823	20.766630
1171.314818	-3.008600	3.526200	-10.609000	25.743281	0.000822	20.777887
1172.311605	-3.017200	3.524100	-10.632000	25.755272	0.000822	20.773810
1173.321947	-3.026100	3.523700	-10.661000	25.739308	0.000822	20.786225
1174.310946	-3.002700	3.525200	-10.584000	25.755953	0.000820	20.774494
1175.315177	-2.999800	3.524900	-10.572000	25.771555	0.000819	20.793011
1176.314076	-3.003900	3.525500	-10.589000	25.764823	0.000819	20.794784
1177.314549	-2.985100	3.525400	-10.523000	25.843603	0.000818	20.770079
1178.313083	-2.991700	3.522300	-10.537000	25.825243	0.000818	20.786249
1179.314502	-2.966200	3.523600	-10.450000	25.861735	0.000817	20.806786
1180.315764	-2.987100	3.524100	-10.526000	25.886831	0.000816	20.788848
1181.319095	-2.980300	3.524300	-10.502000	25.882779	0.000817	20.793787
1182.316558	-3.007000	3.522300	-10.591000	25.898379	0.000817	20.784802
1183.319521	-3.012100	3.520800	-10.604000	25.931742	0.000816	20.783706
1184.317093	-3.013500	3.520600	-10.607000	25.948188	0.000814	20.776994
1185.327451	-3.007100	3.520400	-10.586000	25.950492	0.000817	20.799224
1186.321774	-2.982800	3.521300	-10.502000	25.946220	0.000813	20.756051
1187.321269	-2.983500	3.519700	-10.500000	25.913856	0.000814	20.784704
1188.319763	-2.989900	3.519000	-10.521000	25.893390	0.000812	20.793066
1189.319142	-3.037000	3.517800	-10.682000	25.882632	0.000812	20.783682
1190.320667	-2.990400	3.519300	-10.523000	25.876471	0.000812	20.802623
1191.321824	-3.027500	3.517300	-10.648000	25.868141	0.000812	20.787616
1192.321652	-3.011900	3.518100	-10.594000	25.854036	0.000811	20.793362
1193.321146	-3.014200	3.519200	-10.605000	25.859001	0.000810	20.780332
1194.331694	-2.993600	3.518100	-10.530000	25.879972	0.000809	20.790492
1195.322112	-3.000800	3.517600	-10.554000	25.896467	0.000808	20.789519
1196.321736	-2.983900	3.518000	-10.496000	25.866431	0.000809	20.802494
1197.322206	-2.980200	3.517000	-10.480000	25.848200	0.000808	20.805991
1198.323117	-2.988800	3.517300	-10.511000	25.844320	0.000806	20.803042
1199.325239	-3.012800	3.514300	-10.587000	25.804671	0.000808	20.816792
1200.322255	-3.009000	3.515600	-10.576000	25.782510	0.000807	20.776040
1201.323763	-2.979800	3.516900	-10.479000	25.838110	0.000805	20.807235
1202.328603	-2.974100	3.517300	-10.459000	25.828866	0.000806	20.800794
1203.323972	-2.996000	3.513300	-10.524000	25.822338	0.000807	20.801348
1204.325603	-3.012500	3.515100	-10.588000	25.815748	0.000804	20.814169
1205.327012	-3.024000	3.512300	-10.620000	25.828566	0.000804	20.823252
1206.322790	-3.006000	3.514000	-10.562000	25.815993	0.000803	20.800665
1207.325981	-2.988500	3.513700	-10.500000	25.816839	0.000803	20.813368
1208.327436	-2.989200	3.513000	-10.501000	25.852418	0.000802	20.819711
1209.324626	-2.991000	3.511800	-10.503000	25.846901	0.000801	20.808005
1210.326387	-2.961900	3.511900	-10.400000	25.842702	0.000801	20.811848
1211.325627	-2.984500	3.513000	-10.484000	25.872168	0.000800	20.797352
1212.325622	-3.002400	3.511500	-10.541000	25.887940	0.000801	20.814144
1213.329126	-2.989600	3.512600	-10.499000	25.912459	0.000800	20.816490
1214.327451	-2.996700	3.510200	-10.518000	25.945123	0.000799	20.810899
1215.332231	-2.992400	3.510600	-10.503000	25.895192	0.000800	20.807205
1216.330205	-3.014600	3.510500	-10.581000	25.909124	0.000799	20.809822
1217.331295	-2.974700	3.509700	-10.439000	25.903737	0.000798	20.832383
1218.329606	-2.981200	3.510400	-10.464000	25.871942	0.000797	20.808978
1219.333018	-2.984500	3.509200	-10.472000	25.875442	0.000797	20.829563
1220.330649	-2.994800	3.509200	-10.508000	25.882099	0.000796	20.828190
1221.335799	-2.991000	3.507300	-10.490000	25.901076	0.000796	20.823547
1222.331775	-2.971500	3.509400	-10.426000	25.893108	0.000793	20.835456
1223.331722	-3.001600	3.507400	-10.526000	25.875638	0.000795	20.816958
1224.333830	-3.031200	3.505100	-10.623000	25.861257	0.000795	20.818159
1225.333621	-3.037100	3.506000	-10.648000	25.879414	0.000792	20.842088
1226.335071	-3.006200	3.507800	-10.543000	25.904754	0.000792	20.816337
1227.333872	-3.019200	3.505000	-10.581000	25.940305	0.000792	20.813646
1228.333417	-2.996900	3.505700	-10.505000	25.972993	0.000792	20.818036
1229.337431	-3.010200	3.504600	-10.548000	25.965019	0.000792	20.825197
1230.333319	-2.995800	3.503700	-10.496000	25.967526	0.000791	20.840518
1231.335143	-3.004400	3.504300	-10.527000	25.940980	0.000791	20.830918
1232.336197	-2.998600	3.503400	-10.504000	25.924087	0.000792	20.831491
1233.333337	-2.995100	3.503700	-10.493000	25.934844	0.000790	20.818116
1234.336305	-2.997400	3.503400	-10.500000	25.979061	0.000790	20.827925
1235.340436	-2.993200	3.503800	-10.486000	26.016093	0.000788	20.834311
1236.334061	-2.997700	3.502200	-10.497000	26.045304	0.000788	20.834736
1237.335547	-2.973300	3.502200	-10.412000	26.028413	0.000788	20.834360
1238.335563	-2.986900	3.501000	-10.456000	26.000476	0.000787	20.826207
1239.339829	-2.985400	3.501100	-10.451000	26.005919	0.000788	20.842580
1240.339363	-3.023900	3.501600	-10.587000	25.994341	0.000786	20.823837
1241.336597	-3.000700	3.500000	-10.501000	25.983217	0.000787	20.824514
1242.336791	-3.008500	3.499500	-10.527000	25.941065	0.000784	20.828159
1243.337039	-3.022600	3.499600	-10.577000	25.975304	0.000784	20.837426
1244.337098	-3.018200	3.498500	-10.558000	25.949512	0.000784	20.823368
1245.340143	-2.992900	3.500300	-10.473000	25.935935	0.000782	20.845290
1246.337889	-3.020400	3.498600	-10.565000	25.937847	0.000783	20.821133
1247.337499	-3.014900	3.498600	-10.546000	25.926618	0.000782	20.840671
1248.337556	-3.030000	3.495500	-10.590000	25.947336	0.000781	20.834933
1249.337983	-2.993500	3.496800	-10.467000	25.951289	0.000782	20.840327
1250.341764	-2.963700	3.497700	-10.365000	25.919538	0.000780	20.847783
1251.345549	-2.997700	3.497600	-10.483000	25.885041	0.000780	20.847740
1252.345453	-3.004100	3.496700	-10.504000	25.921230	0.000780	20.842371
1253.339515	-2.998600	3.496700	-10.484000	25.874332	0.000778	20.844569
1254.340647	-2.991500	3.497400	-10.461000	25.899568	0.000779	20.848110
1255.340538	-2.985900	3.497500	-10.442000	25.899274	0.000777	20.866779
1256.341508	-2.997000	3.496300	-10.477000	25.899770	0.000776	20.848787
1257.339731	-2.986100	3.496200	-10.438000	25.912863	0.000777	20.854828
1258.341468	-2.995100	3.496100	-10.470000	25.920513	0.000777	20.858719
1259.344018	-2.987300	3.494800	-10.439000	25.909308	0.000777	20.850782
1260.340176	-3.002000	3.492600	-10.483000	25.936934	0.000775	20.837759
1261.342175	-2.993600	3.494600	-10.460000	25.935469	0.000774	20.862839
1262.340197	-3.009900	3.492000	-10.510000	25.945926	0.000776	20.871447
1263.342772	-3.001800	3.493500	-10.486000	25.965178	0.000772	20.852383
1264.343581	-2.976400	3.492400	-10.393000	25.993446	0.000775	20.857549
1265.342908	-2.982600	3.492900	-10.417000	25.995236	0.000772	20.847020
1266.348896	-3.019400	3.491800	-10.541000	25.969475	0.000772	20.850536
1267.342246	-2.996300	3.491600	-10.462000	25.939190	0.000771	20.854723
1268.343102	-2.997700	3.490200	-10.462000	25.927004	0.000773	20.855283
1269.343524	-3.010800	3.491600	-10.511000	25.936143	0.000772	20.857352
1270.343390	-2.995600	3.490300	-10.454000	25.957210	0.000772	20.850068
1271.344763	-3.002900	3.490300	-10.480000	25.971418	0.000768	20.861496
1272.347883	-3.000800	3.488900	-10.469000	25.975022	0.000769	20.848048
1273.345096	-3.008300	3.487700	-10.491000	25.985552	0.000769	20.845351
1274.345574	-2.987000	3.488300	-10.418000	25.984013	0.000768	20.854711
1275.345607	-2.982800	3.488400	-10.405000	25.972098	0.000768	20.856964
1276.346019	-3.003700	3.489300	-10.480000	26.014150	0.000768	20.845634
1277.350409	-2.995200	3.487500	-10.445000	26.039781	0.000768	20.838196
1278.349350	-2.999100	3.487800	-10.459000	26.067876	0.000767	20.837026
1279.345223	-2.998400	3.486700	-10.453000	26.078632	0.000764	20.862056
1280.345959	-2.996800	3.485500	-10.444000	26.016957	0.000764	20.856515
1281.346942	-3.014900	3.485100	-10.506000	26.009762	0.000765	20.848812
1282.347183	-3.006000	3.484900	-10.475000	26.007696	0.000764	20.857642
1283.348023	-3.015900	3.482700	-10.502000	26.013366	0.000764	20.837734
1284.345108	-3.016600	3.484300	-10.509000	25.991460	0.000765	20.844175
1285.346803	-2.993700	3.485000	-10.432000	26.021039	0.000765	20.836909
1286.345562	-2.978800	3.485300	-10.380000	26.031716	0.000763	20.842894
1287.350149	-2.997600	3.483600	-10.442000	26.033983	0.000763	20.842802
1288.348780	-2.976700	3.484400	-10.370000	26.007935	0.000761	20.841287
1289.347255	-3.007700	3.481300	-10.469000	25.971865	0.000763	20.834920
1290.348611	-2.987200	3.483200	-10.404000	25.953011	0.000761	20.826884
1291.349564	-3.000300	3.483000	-10.449000	25.942328	0.000760	20.845074
1292.347760	-2.997000	3.482000	-10.434000	25.903325	0.000759	20.832919
1293.349219	-3.006000	3.481200	-10.464000	25.901762	0.000759	20.827081
1294.349277	-2.981700	3.481700	-10.381000	25.908530	0.000759	20.828664
1295.352703	-2.984400	3.480400	-10.386000	25.893218	0.000758	20.834144
1296.352750	-2.993400	3.480500	-10.418000	25.932220	0.000756	20.846773
1297.354548	-3.002400	3.478900	-10.444000	25.952423	0.000757	20.804008
1298.357192	-2.992800	3.479000	-10.412000	25.975641	0.000758	20.838713
1299.353827	-2.976300	3.479700	-10.356000	25.973177	0.000756	20.830074
1300.353487	-3.007300	3.477800	-10.457000	26.001745	0.000755	20.821318
1301.352263	-2.983500	3.478600	-10.377000	26.033512	0.000754	20.820043
1302.354759	-2.999700	3.477700	-10.431000	26.015278	0.000754	20.821164
1303.353665	-2.997500	3.477800	-10.423000	26.035945	0.000754	20.824384
1304.358456	-3.033100	3.474400	-10.537000	26.035418	0.000752	20.817691
1305.354230	-3.001700	3.475400	-10.430000	26.060307	0.000753	20.831792
1306.354147	-3.012200	3.476100	-10.470000	26.061379	0.000752	20.832870
1307.353940	-2.997400	3.475500	-10.417000	26.071804	0.000752	20.820585
1308.358982	-3.002000	3.474400	-10.428000	26.046695	0.000752	20.815745
1309.355973	-2.990100	3.475100	-10.389000	26.015468	0.000752	20.807130
1310.354498	-2.997600	3.474300	-10.414000	25.984179	0.000750	20.808411
1311.356202	-3.001200	3.474500	-10.426000	25.940152	0.000752	20.820129
1312.355657	-2.982800	3.474900	-10.364000	25.894149	0.000749	20.819908
1313.357512	-3.001300	3.473100	-10.423000	25.886616	0.000749	20.821349
1314.361544	-2.984400	3.473700	-10.366000	25.886224	0.000748	20.824273
1315.358982	-2.997300	3.473500	-10.410000	25.911784	0.000747	20.808701
1316.354822	-2.989600	3.472900	-10.382000	25.953391	0.000747	20.795972
1317.356561	-3.008600	3.472000	-10.445000	26.001923	0.000746	20.814384
1318.367820	-2.978500	3.472300	-10.342000	26.010099	0.000746	20.795572
1319.356522	-2.990300	3.471700	-10.381000	25.987593	0.000746	20.817057
1320.358827	-2.981100	3.473000	-10.352000	25.924797	0.000745	20.804230
1321.356339	-3.009600	3.470700	-10.443000	25.866216	0.000745	20.810813
1322.360294	-2.975300	3.471500	-10.325000	25.830049	0.000743	20.774956
1323.356760	-2.999400	3.470700	-10.409000	25.830098	0.000744	20.825739
1324.359705	-2.985600	3.469200	-10.357000	25.817629	0.000743	20.810369
1325.360542	-2.987100	3.468300	-10.359000	25.790951	0.000742	20.811071
1326.358569	-3.019000	3.467700	-10.467000	25.800765	0.000743	20.827094
1327.363212	-3.004300	3.468300	-10.419000	25.787524	0.000742	20.803362
1328.360507	-2.997200	3.466800	-10.389000	25.783772	0.000742	20.815240
1329.361587	-2.981500	3.467300	-10.337000	25.814037	0.000741	20.785898
1330.362367	-2.992300	3.467100	-10.373000	25.843701	0.000739	20.800523
1331.363094	-2.999600	3.466500	-10.397000	25.865566	0.000738	20.791194
1332.363331	-2.985000	3.465700	-10.345000	25.892721	0.000740	20.796188
1333.361230	-2.991200	3.465200	-10.364000	25.924172	0.000739	20.809292
1334.360260	-3.020300	3.464300	-10.462000	25.956364	0.000739	20.792321
1335.360635	-2.982000	3.465600	-10.334000	25.957388	0.000738	20.790504
1336.363918	-2.975200	3.464700	-10.307000	25.987372	0.000737	20.780799
1337.361880	-2.983600	3.464700	-10.336000	25.999097	0.000735	20.780251
1338.366172	-3.013500	3.462600	-10.433000	26.016761	0.000737	20.786619
1339.362686	-3.030300	3.462400	-10.490000	26.015670	0.000734	20.788842
1340.362615	-3.000000	3.463700	-10.390000	26.024925	0.000737	20.782967
1341.362000	-2.995500	3.463500	-10.374000	26.002787	0.000736	20.783958
1342.363759	-3.021600	3.463200	-10.463000	26.032053	0.000734	20.791077
1343.362067	-2.995400	3.462600	-10.371000	26.019066	0.000733	20.793675
1344.365371	-2.996900	3.462300	-10.375000	26.005134	0.000734	20.791533
1345.362451	-3.016200	3.460800	-10.438000	25.975598	0.000732	20.803109
1346.362033	-3.012300	3.461200	-10.425000	25.971804	0.000733	20.782702
1347.364638	-3.008600	3.460300	-10.410000	26.023056	0.000732	20.790098
1348.362541	-2.989100	3.459700	-10.341000	26.007010	0.000731	20.770183
1349.362519	-3.013100	3.459100	-10.422000	26.011263	0.000729	20.790104
1350.364653	-2.996100	3.461000	-10.369000	26.042313	0.000730	20.795695
1351.365340	-3.039100	3.456600	-10.503000	26.006348	0.000730	20.783743
1352.365205	-2.998500	3.458300	-10.368000	25.995199	0.000729	20.777757
1353.366009	-3.017900	3.457900	-10.435000	25.969242	0.000729	20.786292
1354.363688	-3.001100	3.458500	-10.378000	25.992367	0.000727	20.775387
1355.362491	-2.989300	3.458200	-10.337000	25.982935	0.000729	20.765910
1356.366285	-3.000000	3.456200	-10.368000	25.996627	0.000727	20.773977
1357.367355	-2.989800	3.456800	-10.334000	26.017368	0.000727	20.776797
1358.366094	-2.978500	3.454900	-10.290000	26.047651	0.000726	20.770713
1359.365357	-3.022100	3.455400	-10.442000	26.063990	0.000726	20.774328
1360.367403	-3.014400	3.454100	-10.411000	26.069390	0.000725	20.793029
1361.366285	-2.980500	3.454700	-10.296000	26.079925	0.000725	20.765208
1362.369177	-2.975700	3.455300	-10.280000	26.101087	0.000724	20.778885
1363.363630	-3.006500	3.452300	-10.379000	26.077909	0.000725	20.788312
1364.366464	-2.985500	3.453500	-10.309000	26.043545	0.000722	20.783183
1365.364257	-2.975200	3.451900	-10.269000	26.024815	0.000722	20.775744
1366.366559	-3.017000	3.452500	-10.415000	25.985773	0.000721	20.779667
1367.370487	-2.986900	3.452100	-10.310000	25.962702	0.000721	20.778300
1368.366359	-3.015600	3.451600	-10.407000	25.956781	0.000721	20.778515
1369.370153	-2.988700	3.452100	-10.317000	25.938454	0.000719	20.774328
1370.365704	-2.995900	3.451200	-10.339000	25.951277	0.000721	20.776305
1371.366285	-3.001800	3.450100	-10.356000	25.984535	0.000720	20.767517
1372.370591	-2.984200	3.450100	-10.295000	25.992294	0.000718	20.779581
1373.369263	-2.997900	3.449300	-10.340000	25.974385	0.000718	20.785769
1374.368282	-2.986200	3.449500	-10.300000	25.953521	0.000720	20.769549
1375.366974	-2.996500	3.450100	-10.338000	25.933625	0.000718	20.767105
1376.367529	-2.992100	3.447900	-10.316000	25.945626	0.000716	20.786749
1377.370775	-2.975700	3.448200	-10.260000	25.985938	0.000717	20.759444
1378.374059	-2.997800	3.448100	-10.336000	26.008867	0.000716	20.781533
1379.371647	-2.979400	3.448200	-10.272000	25.996946	0.000715	20.759124
1380.375139	-3.037300	3.446100	-10.466000	25.997149	0.000715	20.762646
1381.374362	-2.990500	3.446900	-10.307000	25.972730	0.000717	20.772253
1382.370144	-3.000900	3.446300	-10.341000	25.992129	0.000714	20.768035
1383.374215	-2.998100	3.446800	-10.333000	26.033390	0.000713	20.761125
1384.370712	-2.985200	3.445600	-10.285000	26.044097	0.000713	20.754339
1385.374994	-3.006900	3.445800	-10.360000	26.010565	0.000713	20.762850
1386.372457	-3.024600	3.444900	-10.418000	25.977480	0.000714	20.776077
1387.372677	-3.004100	3.443200	-10.342000	25.979717	0.000714	20.758410
1388.376474	-2.999600	3.443500	-10.328000	25.999962	0.000711	20.752196
1389.374780	-3.006700	3.443800	-10.354000	26.003088	0.000711	20.778097
1390.376228	-2.983000	3.443100	-10.270000	26.033721	0.000712	20.750552
1391.376346	-3.011600	3.441900	-10.364000	26.031655	0.000711	20.768866
1392.373986	-3.031300	3.441400	-10.431000	26.040554	0.000711	20.779230
1393.377014	-3.014400	3.441000	-10.371000	26.080906	0.000709	20.764771
1394.377872	-2.997900	3.440700	-10.313000	26.045746	0.000709	20.757893
1395.374402	-3.004500	3.441100	-10.338000	26.015469	0.000710	20.759715
1396.377814	-2.996100	3.440300	-10.306000	26.021107	0.000709	20.753052
1397.373744	-2.987600	3.440500	-10.276000	26.038759	0.000708	20.757985
1398.373891	-3.009600	3.440100	-10.353000	26.022492	0.000708	20.779101
1399.376360	-3.000300	3.440100	-10.320000	26.077511	0.000707	20.754247
1400.377719	-3.019500	3.437500	-10.378000	26.092888	0.000707	20.757843
1401.377167	-2.990600	3.439200	-10.285000	26.050342	0.000706	20.759666
1402.376089	-2.992700	3.437800	-10.287000	26.036411	0.000706	20.769377
1403.378737	-3.000500	3.438600	-10.315000	25.985467	0.000705	20.743323
1404.375473	-3.022600	3.436800	-10.387000	25.971903	0.000703	20.765258
1405.382292	-3.023800	3.436500	-10.390000	25.897908	0.000704	20.739757
1406.378186	-3.017600	3.436500	-10.369000	25.898282	0.000701	20.763841
1407.384363	-2.978900	3.437300	-10.239000	25.921758	0.000703	20.746648
1408.379652	-3.007600	3.435800	-10.332000	25.976604	0.000702	20.740582
1409.382401	-3.010700	3.435900	-10.343000	25.986944	0.000702	20.748600
1410.384462	-2.984600	3.435400	-10.253000	26.011877	0.000701	20.729553
1411.379416	-2.984900	3.436300	-10.255000	26.042871	0.000701	20.744573
1412.381687	-2.997300	3.434600	-10.294000	26.047376	0.000702	20.728235
1413.381558	-3.001300	3.433700	-10.305000	26.018999	0.000701	20.762788
1414.384587	-3.012300	3.431900	-10.337000	26.034702	0.000701	20.755805
1415.383641	-3.006700	3.434300	-10.323000	26.034450	0.000700	20.755078
1416.383482	-2.989200	3.432400	-10.258000	26.088365	0.000698	20.732435
1417.384123	-2.994200	3.431000	-10.272000	26.105010	0.000700	20.735884
1418.381010	-3.027800	3.430200	-10.384000	26.103098	0.000698	20.738704
1419.381766	-3.001500	3.431300	-10.298000	26.120680	0.000695	20.751156
1420.381384	-3.001000	3.430600	-10.294000	26.164412	0.000698	20.749579
1421.384241	-2.989700	3.431800	-10.259000	26.179389	0.000697	20.734757
1422.381930	-2.989400	3.431000	-10.256000	26.160735	0.000696	20.744936
1423.383017	-3.001600	3.429300	-10.292000	26.153853	0.000696	20.752245
1424.381034	-2.989400	3.430200	-10.253000	26.141229	0.000696	20.768958
1425.383220	-2.981000	3.431000	-10.226000	26.129830	0.000695	20.748495
1426.383337	-2.999700	3.429600	-10.287000	26.140879	0.000694	20.741580
1427.383978	-2.978600	3.430700	-10.217000	26.140481	0.000693	20.761569
1428.384267	-2.999900	3.426800	-10.279000	26.142515	0.000692	20.753181
1429.381027	-2.990700	3.427700	-10.251000	26.164467	0.000690	20.733512
1430.381066	-2.977000	3.428300	-10.205000	26.159497	0.000691	20.752227
1431.385330	-3.002300	3.427100	-10.287000	26.183611	0.000691	20.732361
1432.385893	-3.009300	3.427200	-10.312000	26.202130	0.000692	20.745280
1433.381971	-2.992400	3.426500	-10.253000	26.188495	0.000691	20.751020
1434.386292	-2.991900	3.425700	-10.248000	26.233345	0.000692	20.746777
1435.383364	-3.014000	3.425600	-10.324000	26.237886	0.000689	20.739011
1436.386564	-3.008300	3.423600	-10.298000	26.208086	0.000689	20.752214
1437.386220	-3.019400	3.423600	-10.336000	26.185909	0.000689	20.737041
1438.382661	-2.998600	3.423800	-10.265000	26.159680	0.000688	20.735815
1439.386325	-3.000800	3.422700	-10.270000	26.170454	0.000687	20.749012
1440.382551	-3.000100	3.421900	-10.265000	26.176361	0.000687	20.746887
1441.385447	-3.004600	3.423500	-10.285000	26.167739	0.000687	20.744387
1442.386006	-3.010400	3.420800	-10.297000	26.129119	0.000687	20.735926
1443.385123	-2.988900	3.421300	-10.225000	26.110611	0.000686	20.751469
1444.384615	-2.987100	3.422400	-10.221000	26.113068	0.000686	20.736868
1445.384042	-3.004400	3.420100	-10.274000	26.096282	0.000685	20.729010
1446.384088	-2.996200	3.421400	-10.250000	26.130626	0.000685	20.737915
1447.387934	-2.989200	3.420300	-10.222000	26.142147	0.000684	20.742380
1448.388451	-2.981500	3.420400	-10.196000	26.122671	0.000682	20.727551
1449.386838	-3.009700	3.418200	-10.287000	26.130546	0.000681	20.746370
1450.392145	-2.980100	3.420500	-10.192000	26.085416	0.000682	20.747965
1451.392530	-2.993300	3.418700	-10.232000	26.065547	0.000681	20.734165
1452.390089	-2.983800	3.420000	-10.203000	26.002260	0.000681	20.720364
1453.393203	-3.000900	3.418600	-10.258000	26.029626	0.000682	20.736480
1454.391315	-3.015600	3.415800	-10.299000	25.997191	0.000679	20.724755
1455.395913	-3.017800	3.417500	-10.312000	26.008763	0.000681	20.725001
1456.388904	-3.006400	3.416800	-10.271000	26.029853	0.000679	20.738130
1457.388389	-3.004700	3.417400	-10.265000	26.012587	0.000680	20.731689
1458.390807	-2.995100	3.416100	-10.231000	26.016933	0.000679	20.737478
1459.394099	-2.974800	3.416700	-10.163000	26.034621	0.000678	20.742921
1460.394696	-2.979200	3.415600	-10.175000	26.084423	0.000677	20.731320
1461.392596	-2.957300	3.417300	-10.104000	26.062538	0.000678	20.726399
1462.390882	-3.004000	3.415500	-10.259000	26.060325	0.000678	20.736030
1463.390516	-3.005000	3.415000	-10.261000	26.045028	0.000676	20.715918
1464.394433	-3.014400	3.413600	-10.289000	26.010828	0.000675	20.735138
1465.391174	-2.995600	3.413500	-10.224000	26.026347	0.000677	20.726073
1466.393834	-3.000600	3.412700	-10.239000	26.037924	0.000676	20.721583
1467.391440	-2.992200	3.412800	-10.211000	26.056182	0.000675	20.710055
1468.392530	-2.987300	3.413100	-10.195000	26.103097	0.000675	20.741548
1469.395010	-3.001300	3.411100	-10.237000	26.116083	0.000674	20.734682
1470.398296	-2.991800	3.413800	-10.211000	26.154012	0.000673	20.724428
1471.395426	-3.015900	3.409800	-10.282000	26.161335	0.000671	20.722778
1472.394720	-3.002600	3.410900	-10.241000	26.124461	0.000673	20.717969
1473.395164	-2.993600	3.410400	-10.208000	26.133200	0.000672	20.722008
1474.395925	-3.012400	3.409600	-10.270000	26.106125	0.000671	20.723252
1475.407043	-3.007200	3.408900	-10.250000	26.090233	0.000669	20.727674
1476.394630	-2.989800	3.410000	-10.195000	26.101859	0.000671	20.718018
1477.397795	-2.999900	3.408400	-10.224000	26.105984	0.000670	20.741129
1478.395007	-2.989600	3.410600	-10.194000	26.102876	0.000668	20.706711
1479.397326	-3.005700	3.409100	-10.246000	26.136178	0.000667	20.742072
1480.396635	-2.995200	3.407900	-10.207000	26.121109	0.000668	20.721713
1481.395555	-3.008600	3.406700	-10.249000	26.104415	0.000667	20.712999
1482.397502	-3.025100	3.405700	-10.300000	26.093218	0.000666	20.712654
1483.394838	-2.980600	3.407500	-10.155000	26.054270	0.000665	20.726627
1484.396144	-2.984100	3.407400	-10.167000	26.016473	0.000666	20.719471
1485.399019	-2.991700	3.405300	-10.187000	26.021689	0.000666	20.716177
1486.403024	-3.005400	3.404200	-10.229000	26.034952	0.000663	20.724287
1487.399418	-2.999600	3.404800	-10.211000	26.076707	0.000665	20.708867
1488.400341	-2.994200	3.404000	-10.191000	26.113994	0.000665	20.692750
1489.396399	-2.993700	3.403200	-10.186000	26.127654	0.000663	20.726867
1490.397416	-2.988300	3.403800	-10.171000	26.127256	0.000662	20.708448
1491.400555	-3.019300	3.402400	-10.272000	26.136552	0.000660	20.718264
1492.397390	-2.986000	3.404500	-10.164000	26.136172	0.000663	20.714089
1493.400271	-2.990800	3.402200	-10.173000	26.152651	0.000663	20.715000
1494.398910	-2.986900	3.403400	-10.164000	26.181662	0.000659	20.727557
1495.398442	-2.990900	3.402000	-10.174000	26.181068	0.000661	20.702302
1496.400458	-2.972500	3.402600	-10.112000	26.212860	0.000659	20.711965
1497.401895	-3.013900	3.401700	-10.251000	26.224711	0.000658	20.705856
1498.399279	-2.991900	3.401700	-10.176000	26.230477	0.000657	20.696476
1499.396559	-3.003500	3.400700	-10.212000	26.215305	0.000656	20.708732
1500.397706	-2.985700	3.401200	-10.154000	26.183004	0.000658	20.700455
1501.396705	-2.981500	3.401800	-10.142000	26.233817	0.000657	20.695565
1502.404557	-3.005700	3.400600	-10.220000	26.237647	0.000656	20.717433
1503.400498	-2.981900	3.400300	-10.138000	26.198686	0.000655	20.690608
1504.404325	-2.973800	3.400900	-10.113000	26.176258	0.000656	20.706004
1505.397337	-2.989800	3.398600	-10.159000	26.164247	0.000655	20.704366
1506.401632	-3.002500	3.397400	-10.199000	26.193306	0.000654	20.684252
1507.400961	-3.007800	3.395700	-10.213000	26.199649	0.000652	20.711017
1508.400675	-3.011400	3.396300	-10.227000	26.193263	0.000654	20.716455
1509.417687	-3.005600	3.396200	-10.207000	26.164063	0.000652	20.719829
1510.405381	-2.987800	3.397900	-10.151000	26.199851	0.000654	20.696520
1511.401185	-3.027000	3.394700	-10.275000	26.209270	0.000653	20.715469
1512.407900	-2.997800	3.395400	-10.177000	26.235815	0.000653	20.693306
1513.401818	-2.995800	3.396400	-10.172000	26.211188	0.000652	20.704120
1514.401858	-2.992700	3.395000	-10.159000	26.186229	0.000651	20.713179
1515.405745	-2.986600	3.395300	-10.140000	26.176424	0.000648	20.692893
1516.402651	-2.998600	3.393700	-10.175000	26.143393	0.000652	20.694790
1517.402646	-2.992800	3.393100	-10.153000	26.173893	0.000649	20.708369
1518.410966	-3.020600	3.392700	-10.246000	26.199551	0.000651	20.711393
1519.403075	-2.988100	3.393000	-10.137000	26.243684	0.000648	20.696946
1520.404969	-3.005800	3.391000	-10.191000	26.261044	0.000649	20.694950
1521.401912	-3.001800	3.391400	-10.179000	26.254542	0.000647	20.709281
1522.415124	-3.008800	3.391500	-10.204000	26.235994	0.000647	20.700598
1523.407815	-3.006400	3.391000	-10.194000	26.223058	0.000647	20.701823
1524.404114	-2.988900	3.390400	-10.132000	26.217151	0.000645	20.702051
1525.404127	-3.001400	3.391600	-10.177000	26.211838	0.000645	20.692918
1526.408219	-2.973500	3.389700	-10.077000	26.195176	0.000643	20.695142
1527.404068	-2.977000	3.391000	-10.094000	26.157402	0.000646	20.698911
1528.404341	-2.981500	3.390000	-10.106000	26.157182	0.000644	20.682092
1529.404761	-2.998500	3.388200	-10.158000	26.181302	0.000643	20.704909
1530.404891	-3.024100	3.388100	-10.245000	26.196053	0.000643	20.721629
1531.405107	-2.989200	3.388300	-10.127000	26.234052	0.000642	20.700069
1532.409165	-3.005000	3.388200	-10.180000	26.271351	0.000641	20.696300
1533.407102	-2.984200	3.387900	-10.108000	26.279274	0.000643	20.706633
1534.410659	-2.984600	3.389200	-10.114000	26.265272	0.000643	20.693036
1535.407899	-3.011800	3.387000	-10.199000	26.291670	0.000640	20.694434
1536.409528	-3.013500	3.386600	-10.204000	26.309255	0.000642	20.694563
1537.407027	-3.014900	3.384700	-10.204000	26.337245	0.000640	20.708469
1538.410991	-2.989300	3.385600	-10.119000	26.359572	0.000639	20.704829
1539.410611	-2.968700	3.386000	-10.051000	26.386929	0.000638	20.693917
1540.410453	-2.983300	3.384500	-10.096000	26.390581	0.000638	20.700906
1541.410114	-3.017100	3.384400	-10.209000	26.411957	0.000639	20.695364
1542.411019	-3.017300	3.384100	-10.210000	26.421251	0.000637	20.703758
1543.410467	-2.993700	3.383600	-10.128000	26.430080	0.000636	20.696035
1544.410343	-2.987400	3.384200	-10.108000	26.434950	0.000637	20.699034
1545.413825	-2.991400	3.383400	-10.120000	26.438179	0.000636	20.723144
1546.409663	-3.018600	3.382200	-10.208000	26.444808	0.000637	20.693295
1547.413166	-2.997100	3.382300	-10.136000	26.394477	0.000634	20.695339
1548.411677	-2.989200	3.383200	-10.112000	26.348200	0.000635	20.711419
1549.415269	-2.990600	3.381500	-10.112000	26.277951	0.000634	20.710520
1550.416436	-2.999700	3.382000	-10.144000	26.269115	0.000633	20.716339
1551.412442	-2.982600	3.381500	-10.084000	26.251455	0.000632	20.696220
1552.417078	-3.000300	3.380600	-10.142000	26.249543	0.000633	20.707102
1553.412658	-3.017600	3.379900	-10.198000	26.289256	0.000630	20.708130
1554.413971	-3.002100	3.378900	-10.142000	26.309684	0.000631	20.716333
1555.418639	-3.003100	3.378900	-10.147000	26.322730	0.000630	20.713322
1556.415016	-3.003400	3.378400	-10.145000	26.333165	0.000631	20.706739
1557.412418	-3.021500	3.378800	-10.208000	26.352777	0.000631	20.700845
1558.418119	-3.005000	3.378500	-10.152000	26.339322	0.000629	20.708660
1559.412859	-3.019200	3.377600	-10.195000	26.300432	0.000628	20.698025
1560.412549	-2.999900	3.377500	-10.130000	26.271407	0.000628	20.710582
1561.421695	-2.973000	3.377400	-10.040000	26.253232	0.000627	20.707490
1562.413739	-2.976800	3.379000	-10.056000	26.256014	0.000627	20.709338
1563.414019	-3.009200	3.375800	-10.157000	26.257234	0.000627	20.694441
1564.415095	-3.007500	3.375500	-10.151000	26.264912	0.000626	20.721599
1565.420611	-3.001200	3.374500	-10.126000	26.308521	0.000626	20.701886
1566.417490	-3.013300	3.374600	-10.167000	26.334844	0.000624	20.724549
1567.420788	-2.996900	3.374100	-10.111000	26.347484	0.000624	20.710225
1568.422767	-3.005100	3.375100	-10.141000	26.318037	0.000625	20.730892
1569.419923	-3.020400	3.372500	-10.185000	26.279128	0.000623	20.723558
1570.418468	-3.011300	3.373900	-10.158000	26.290948	0.000623	20.713624
1571.419256	-2.985900	3.374700	-10.076000	26.308509	0.000621	20.720842
1572.417886	-3.011800	3.373500	-10.159000	26.268583	0.000622	20.710589
1573.417657	-3.006600	3.373400	-10.142000	26.257639	0.000621	20.739896
1574.418153	-3.006500	3.372100	-10.137000	26.244452	0.000622	20.741817
1575.420014	-3.008100	3.371800	-10.141000	26.226847	0.000618	20.711796
1576.423542	-3.013400	3.372400	-10.161000	26.206111	0.000620	20.728417
1577.422795	-3.019300	3.370300	-10.175000	26.189455	0.000619	20.711205
1578.421818	-3.022900	3.370300	-10.187000	26.220450	0.000619	20.714377
1579.420027	-3.020400	3.370400	-10.179000	26.268933	0.000618	20.715208
1580.422850	-3.005300	3.370100	-10.127000	26.273927	0.000615	20.737298
1581.421653	-2.984100	3.370100	-10.055000	26.285453	0.000616	20.722327
1582.424968	-3.006200	3.369400	-10.128000	26.266482	0.000616	20.721281
1583.423981	-3.022100	3.369100	-10.180000	26.232143	0.000617	20.723282
1584.424036	-3.000500	3.369800	-10.109000	26.247885	0.000616	20.715867
1585.423738	-3.022400	3.367200	-10.176000	26.266464	0.000614	20.722211
1586.423295	-2.985500	3.368100	-10.055000	26.261837	0.000614	20.722303
1587.425966	-2.988600	3.368300	-10.066000	26.293131	0.000612	20.723405
1588.429876	-2.953800	3.369100	-9.950500	26.265275	0.000614	20.716748
1589.425352	-2.985000	3.367300	-10.051000	26.237486	0.000613	20.710633
1590.424611	-3.003100	3.365900	-10.107000	26.249233	0.000613	20.722439
1591.425337	-2.992600	3.366400	-10.073000	26.310637	0.000610	20.729619
1592.425222	-2.972200	3.366400	-10.004000	26.307812	0.000613	20.737686
1593.426248	-3.007400	3.365800	-10.120000	26.309252	0.000611	20.729176
1594.425364	-2.987600	3.366700	-10.057000	26.319999	0.000610	20.757047
1595.430723	-3.019600	3.363700	-10.156000	26.332290	0.000610	20.723405
1596.424529	-2.989700	3.365000	-10.059000	26.362834	0.000610	20.726601
1597.425655	-3.005000	3.363600	-10.106000	26.373679	0.000609	20.730863
1598.427429	-3.018000	3.362700	-10.148000	26.380388	0.000610	20.746615
1599.425200	-2.989300	3.364700	-10.057000	26.389523	0.000605	20.725450
1600.428394	-3.006000	3.362200	-10.106000	26.397543	0.000608	20.740623
1601.424227	-2.998400	3.363200	-10.083000	26.399032	0.000606	20.735007
1602.425936	-2.996200	3.363100	-10.074000	26.363006	0.000606	20.728670
1603.427484	-3.002800	3.362300	-10.095000	26.364348	0.000608	20.727174
1604.425706	-3.002900	3.362500	-10.097000	26.373906	0.000606	20.750058
1605.428396	-3.005700	3.361500	-10.102000	26.390142	0.000604	20.732236
1606.426198	-2.984800	3.362800	-10.036000	26.369984	0.000605	20.734262
1607.425610	-3.004700	3.360200	-10.095000	26.411108	0.000602	20.729601
1608.426669	-2.995500	3.360500	-10.066000	26.437692	0.000602	20.735931
1609.431807	-2.992400	3.359400	-10.051000	26.448475	0.000602	20.746295
1610.427404	-3.012100	3.359300	-10.118000	26.466045	0.000604	20.726497
1611.430737	-3.008800	3.358400	-10.103000	26.468514	0.000602	20.719021
1612.430676	-3.014800	3.358900	-10.125000	26.476705	0.000602	20.735790
1613.433877	-3.008400	3.356900	-10.097000	26.473777	0.000600	20.757029
1614.434775	-2.981000	3.358200	-10.010000	26.493933	0.000601	20.736510
1615.434275	-3.000400	3.359100	-10.078000	26.456022	0.000600	20.725906
1616.433266	-2.998200	3.357600	-10.065000	26.475688	0.000600	20.738087
1617.430964	-2.970300	3.356900	-9.969900	26.471761	0.000599	20.751684
1618.431355	-2.989800	3.357700	-10.037000	26.486808	0.000599	20.752583
1619.433944	-2.980300	3.356900	-10.004000	26.486262	0.000598	20.745396
1620.433257	-2.996100	3.356500	-10.055000	26.525268	0.000598	20.747145
1621.430281	-2.986400	3.355100	-10.019000	26.509499	0.000598	20.746942
1622.431368	-2.995700	3.355700	-10.052000	26.478470	0.000595	20.755108
1623.434246	-3.000400	3.353800	-10.062000	26.448370	0.000595	20.762312
1624.432455	-3.000100	3.354600	-10.062000	26.411874	0.000596	20.748863
1625.434099	-3.001800	3.355400	-10.071000	26.361744	0.000596	20.748740
1626.433528	-2.997000	3.353600	-10.050000	26.359881	0.000595	20.738807
1627.441589	-3.006200	3.352800	-10.078000	26.354104	0.000592	20.772356
1628.433146	-3.033900	3.352500	-10.170000	26.374862	0.000591	20.759554
1629.432332	-2.989500	3.353300	-10.024000	26.442936	0.000590	20.758747
1630.436737	-2.979100	3.353000	-9.987400	26.433679	0.000592	20.737588
1631.432770	-3.011100	3.352600	-10.094000	26.449124	0.000592	20.752164
1632.434558	-3.007900	3.351800	-10.080000	26.421812	0.000589	20.751739
1633.439942	-2.974900	3.351100	-9.969000	26.371804	0.000592	20.749842
1634.435627	-2.979700	3.351600	-9.985600	26.339423	0.000590	20.743851
1635.435742	-3.017300	3.349900	-10.105000	26.304589	0.000590	20.752466
1636.438175	-2.998900	3.351000	-10.048000	26.298781	0.000589	20.751370
1637.437528	-3.003200	3.350100	-10.060000	26.267990	0.000589	20.753143
1638.437090	-3.015100	3.349100	-10.097000	26.282145	0.000588	20.749824
1639.434949	-2.995900	3.349100	-10.032000	26.302034	0.000588	20.753691
1640.436847	-3.009400	3.349800	-10.080000	26.318903	0.000586	20.763532
1641.438583	-3.013700	3.347900	-10.089000	26.306777	0.000586	20.756561
1642.435291	-3.015700	3.347700	-10.095000	26.324166	0.000586	20.753174
1643.434747	-2.982900	3.349600	-9.990500	26.327353	0.000586	20.753532
1644.435330	-3.006700	3.347500	-10.064000	26.297727	0.000585	20.761691
1645.434803	-3.001700	3.345700	-10.041000	26.313297	0.000585	20.763114
1646.437760	-3.010200	3.345100	-10.069000	26.325025	0.000584	20.766840
1647.434381	-3.005500	3.346300	-10.057000	26.378257	0.000583	20.766759
1648.438965	-3.001900	3.347200	-10.047000	26.411134	0.000584	20.754283
1649.435638	-2.990900	3.345400	-10.005000	26.427253	0.000582	20.761002
1650.442954	-2.982500	3.345300	-9.976400	26.473135	0.000583	20.770608
1651.440364	-3.008100	3.345700	-10.063000	26.494393	0.000580	20.764949
1652.437628	-3.001000	3.343900	-10.034000	26.541369	0.000582	20.742941
1653.441356	-2.990600	3.343900	-9.999000	26.575901	0.000581	20.784292
1654.439314	-2.981600	3.344900	-9.971800	26.531917	0.000580	20.766157
1655.436350	-2.988400	3.343700	-9.991300	26.538294	0.000580	20.765929
1656.441597	-3.003700	3.341400	-10.036000	26.543912	0.000580	20.754980
1657.439051	-3.011500	3.342900	-10.066000	26.544040	0.000579	20.776447
1658.436957	-3.003500	3.341700	-10.036000	26.566982	0.000577	20.789077
1659.449512	-2.989200	3.342300	-9.989900	26.578897	0.000577	20.782562
1660.441017	-2.992200	3.340700	-9.994900	26.592362	0.000577	20.778553
1661.439093	-2.989800	3.341700	-9.990400	26.602120	0.000576	20.773664
1662.441655	-2.998900	3.339300	-10.014000	26.595045	0.000575	20.767500
1663.438383	-2.986500	3.340200	-9.974100	26.622034	0.000575	20.781356
1664.439746	-2.996000	3.340100	-10.006000	26.629225	0.000576	20.789533
1665.440728	-3.006100	3.339000	-10.037000	26.581673	0.000574	20.760696
1666.439696	-2.988800	3.341100	-9.984400	26.542896	0.000574	20.775296
1667.442752	-3.000600	3.339300	-10.018000	26.487044	0.000574	20.775106
1668.440162	-2.995800	3.339600	-10.003000	26.455738	0.000571	20.777779
1669.439775	-2.998700	3.338000	-10.009000	26.422887	0.000572	20.768942
1670.442487	-3.013700	3.336800	-10.055000	26.456363	0.000571	20.759440
1671.441192	-3.011700	3.335700	-10.045000	26.457166	0.000569	20.798654
1672.440889	-3.012000	3.335600	-10.045000	26.429057	0.000568	20.757599
1673.444834	-3.018800	3.336800	-10.072000	26.399913	0.000568	20.770981
1674.441368	-2.990100	3.335300	-9.970800	26.419506	0.000570	20.775975
1675.446556	-3.007500	3.337000	-10.035000	26.451959	0.000568	20.775877
1676.445201	-3.017900	3.333800	-10.060000	26.463832	0.000568	20.767422
1677.444157	-3.015100	3.335600	-10.056000	26.513339	0.000568	20.783993
1678.445876	-2.998600	3.335300	-10.000000	26.547602	0.000571	20.766751
1679.445720	-3.027100	3.334000	-10.091000	26.536435	0.000568	20.785872
1680.445630	-3.039600	3.333200	-10.130000	26.529757	0.000566	20.781530
1681.449010	-3.021300	3.333300	-10.070000	26.541281	0.000565	20.776044
1682.448144	-3.006900	3.333900	-10.024000	26.571598	0.000565	20.762423
1683.450044	-2.969700	3.334500	-9.900900	26.588750	0.000564	20.762121
1684.447144	-2.988500	3.332300	-9.956500	26.559040	0.000561	20.776352
1685.454774	-2.992800	3.332300	-9.972000	26.550875	0.000563	20.792800
1686.450070	-2.967100	3.333500	-9.889400	26.546979	0.000561	20.774185
1687.446433	-3.011900	3.330300	-10.030000	26.572205	0.000562	20.788638
1688.451270	-2.988700	3.331800	-9.955500	26.602319	0.000562	20.768649
1689.447458	-2.988100	3.332100	-9.955500	26.615275	0.000562	20.811545
1690.450967	-3.000300	3.330900	-9.991900	26.595195	0.000558	20.815541
1691.448928	-2.984100	3.330300	-9.936800	26.630081	0.000560	20.782806
1692.451732	-2.988300	3.330400	-9.951400	26.653284	0.000559	20.803761
1693.447639	-2.993100	3.328800	-9.962600	26.677271	0.000558	20.807013
1694.453019	-2.979800	3.329300	-9.919500	26.684125	0.000558	20.789722
1695.449638	-3.008900	3.327900	-10.012000	26.693307	0.000560	20.802271
1696.450065	-2.989800	3.328500	-9.950700	26.708521	0.000558	20.797653
1697.451171	-2.991200	3.328000	-9.954000	26.707186	0.000557	20.802001
1698.451253	-3.004800	3.328200	-9.999600	26.749583	0.000555	20.808115
1699.460656	-3.000400	3.328200	-9.984300	26.729733	0.000556	20.807124
1700.450386	-2.980800	3.328300	-9.919600	26.679213	0.000557	20.785732
1701.455673	-2.988800	3.326800	-9.940100	26.626688	0.000555	20.799784
1702.454033	-2.998800	3.326900	-9.974700	26.560132	0.000554	20.788829
1703.452576	-2.969200	3.326600	-9.876100	26.560156	0.000553	20.808294
1704.456390	-2.992600	3.326600	-9.954500	26.595166	0.000553	20.786114
1705.456551	-2.983700	3.324600	-9.918700	26.623393	0.000553	20.814489
1706.455636	-3.015200	3.324300	-10.023000	26.625279	0.000553	20.790782
1707.454694	-3.017100	3.324100	-10.028000	26.637095	0.000553	20.795548
1708.456474	-2.990100	3.324900	-9.940300	26.661799	0.000553	20.798572
1709.454806	-2.978900	3.325600	-9.904600	26.700100	0.000550	20.797722
1710.458463	-2.995200	3.322800	-9.951700	26.724160	0.000551	20.793935
1711.454682	-3.004100	3.322000	-9.978700	26.736122	0.000551	20.810703
1712.458148	-3.030200	3.321900	-10.064000	26.711401	0.000551	20.800549
1713.457954	-2.974600	3.323000	-9.883300	26.683593	0.000548	20.802463
1714.458168	-2.993900	3.322200	-9.944900	26.699114	0.000548	20.805740
1715.459381	-3.002900	3.321400	-9.973500	26.679900	0.000547	20.804914
1716.460688	-3.008100	3.322100	-9.992200	26.696529	0.000546	20.791761
1717.459399	-3.008700	3.320500	-9.989600	26.703978	0.000548	20.815844
1718.457274	-3.003700	3.320600	-9.972800	26.758312	0.000546	20.824003
1719.459481	-2.987000	3.321500	-9.920000	26.764865	0.000544	20.822057
1720.461087	-3.030700	3.319000	-10.056000	26.787306	0.000545	20.805740
1721.460676	-2.993400	3.319400	-9.935400	26.790485	0.000543	20.816996
1722.460449	-2.992800	3.319600	-9.933900	26.766703	0.000543	20.799249
1723.458489	-2.988200	3.319300	-9.917000	26.795991	0.000542	20.814471
1724.461239	-2.987500	3.319900	-9.916700	26.805404	0.000544	20.801651
1725.462713	-2.992700	3.317700	-9.928500	26.743796	0.000542	20.815574
1726.463389	-2.993700	3.317700	-9.930200	26.724282	0.000540	20.819662
1727.462412	-2.985200	3.318400	-9.904500	26.686999	0.000539	20.803991
1728.464143	-2.994800	3.317800	-9.935900	26.635718	0.000539	20.830672
1729.463463	-2.991600	3.316100	-9.919400	26.613794	0.000538	20.817168
1730.463533	-3.007000	3.315500	-9.969200	26.577898	0.000539	20.814748
1731.463899	-2.999400	3.316600	-9.946600	26.570755	0.000538	20.819422
1732.464090	-3.004000	3.316200	-9.961300	26.593341	0.000537	20.804194
1733.466662	-3.007500	3.314700	-9.968700	26.602781	0.000537	20.812261
1734.461964	-2.996200	3.315000	-9.931800	26.600992	0.000537	20.810937
1735.466374	-3.008200	3.314500	-9.970400	26.638009	0.000537	20.824915
1736.468867	-3.007500	3.314100	-9.966900	26.670700	0.000537	20.826485
1737.465275	-3.007700	3.314600	-9.967600	26.719034	0.000537	20.824343
1738.466320	-2.985400	3.313000	-9.889400	26.763219	0.000534	20.808548
1739.465329	-3.002900	3.312900	-9.946600	26.790669	0.000532	20.822871
1740.464260	-3.002100	3.312600	-9.943600	26.787252	0.000533	20.820384
1741.465365	-3.029200	3.310400	-10.027000	26.760874	0.000531	20.846967
1742.467014	-3.007900	3.310200	-9.954800	26.706974	0.000531	20.842089
1743.464900	-3.025200	3.309500	-10.011000	26.679895	0.000533	20.832884
1744.467990	-3.006600	3.310900	-9.954300	26.693285	0.000532	20.815526
1745.467146	-2.974700	3.310500	-9.845900	26.708328	0.000530	20.825908
1746.467374	-3.012600	3.309000	-9.968000	26.704562	0.000531	20.842509
1747.468668	-3.020500	3.309300	-9.995100	26.750333	0.000530	20.804128
1748.469376	-3.025500	3.308500	-10.009000	26.766490	0.000526	20.834122
1749.470674	-2.983000	3.308700	-9.869100	26.726948	0.000529	20.825188
1750.466831	-2.992200	3.309100	-9.900900	26.709872	0.000527	20.823667
1751.465565	-3.003100	3.308000	-9.932900	26.709284	0.000526	20.833033
1752.467434	-2.995000	3.307800	-9.905800	26.746322	0.000527	20.829967
1753.467115	-2.999100	3.308000	-9.919500	26.762908	0.000525	20.842375
1754.471552	-3.014600	3.306400	-9.966100	26.770852	0.000524	20.810059
1755.469296	-2.977000	3.307000	-9.843400	26.781675	0.000524	20.829949
1756.469706	-3.012000	3.307700	-9.961700	26.828295	0.000524	20.822295
1757.468631	-3.001200	3.307000	-9.924200	26.830548	0.000525	20.828828
1758.471943	-2.992100	3.306000	-9.890700	26.843183	0.000523	20.841531
1759.471255	-2.997500	3.305500	-9.907800	26.848027	0.000523	20.835971
1760.471688	-3.011900	3.304300	-9.951200	26.873792	0.000523	20.810195
1761.468976	-2.982700	3.305100	-9.856400	26.880124	0.000523	20.807554
1762.470479	-2.974300	3.304900	-9.828800	26.849480	0.000521	20.809457
1763.472155	-2.988700	3.304400	-9.874600	26.778920	0.000521	20.802998
1764.473672	-2.998600	3.305000	-9.909200	26.790979	0.000520	20.823657
1765.474597	-2.986500	3.302600	-9.861300	26.773757	0.000519	20.811083
1766.471607	-3.009900	3.303900	-9.943500	26.817021	0.000521	20.821391
1767.475037	-3.002500	3.303000	-9.916100	26.839608	0.000520	20.821342
1768.474076	-3.016300	3.301900	-9.958000	26.864184	0.000516	20.796268
1769.474295	-3.000500	3.300500	-9.901200	26.887021	0.000517	20.805480
1770.473023	-3.027700	3.301600	-9.994400	26.899251	0.000518	20.813984
1771.475156	-2.992800	3.301700	-9.880800	26.865030	0.000514	20.803756
1772.474472	-3.007300	3.299200	-9.921700	26.832669	0.000515	20.817685
1773.473535	-2.996900	3.300200	-9.888700	26.822001	0.000515	20.818338
1774.478690	-3.005600	3.300900	-9.920200	26.816140	0.000516	20.796323
1775.476899	-3.003900	3.298700	-9.908400	26.828205	0.000513	20.789488
1776.481278	-3.007600	3.300400	-9.924400	26.849181	0.000514	20.812002
1777.477847	-3.022600	3.299300	-9.971400	26.850547	0.000512	20.808633
1778.479858	-3.020300	3.298400	-9.961400	26.817114	0.000514	20.787820
1779.481269	-3.001500	3.297000	-9.895000	26.794600	0.000512	20.796478
1780.483358	-2.993400	3.298100	-9.870900	26.782915	0.000512	20.788996
1781.481328	-3.034100	3.296000	-9.999100	26.792647	0.000510	20.807790
1782.486247	-3.005000	3.296200	-9.903400	26.805949	0.000511	20.804569
1783.482882	-3.016700	3.296800	-9.945500	26.800639	0.000510	20.774575
1784.481803	-2.993100	3.295800	-9.862800	26.834716	0.000509	20.802673
1785.482345	-3.004500	3.295200	-9.900200	26.861301	0.000508	20.805697
1786.481707	-3.011600	3.294400	-9.921000	26.844870	0.000506	20.799132
1787.486064	-3.004700	3.296400	-9.903600	26.866978	0.000505	20.778688
1788.482212	-2.999700	3.294400	-9.881800	26.897800	0.000506	20.784550
1789.483698	-2.999800	3.294900	-9.882200	26.918555	0.000504	20.784557
1790.487623	-3.006300	3.294000	-9.901800	26.936081	0.000506	20.795543
1791.484671	-2.985800	3.294200	-9.835400	26.970643	0.000504	20.782407
1792.484974	-2.985100	3.294500	-9.834000	26.990532	0.000504	20.759734
1793.484331	-3.000700	3.292900	-9.880700	26.997483	0.000503	20.790432
1794.490403	-3.025500	3.291000	-9.955900	26.976301	0.000502	20.799951
1795.493026	-2.987500	3.292600	-9.834700	26.952591	0.000502	20.792704
1796.490716	-2.977400	3.291200	-9.798000	26.941097	0.000499	20.790629
1797.486979	-3.019600	3.292700	-9.940900	26.920080	0.000501	20.778504
1798.486121	-3.013000	3.290200	-9.911200	26.872013	0.000500	20.786122
1799.491426	-3.012200	3.289400	-9.906100	26.846249	0.000502	20.778708
1800.486961	-2.992000	3.291300	-9.845900	26.813563	0.000500	20.775241
1801.491802	-2.980700	3.290300	-9.806400	26.808327	0.000499	20.757173
1802.488365	-2.987100	3.291000	-9.829000	26.847198	0.000499	20.784404
1803.489215	-3.001800	3.288800	-9.871400	26.892793	0.000499	20.790895
1804.488050	-2.996200	3.289800	-9.854200	26.913125	0.000496	20.785261
1805.489124	-2.988500	3.288300	-9.825600	26.918679	0.000497	20.772827
1806.494670	-3.042400	3.286700	-9.997700	26.957351	0.000495	20.789904
1807.493595	-2.999300	3.289400	-9.864500	26.999737	0.000495	20.785113
1808.490592	-2.979600	3.289600	-9.799400	26.987209	0.000495	20.767772
1809.495094	-3.010800	3.287900	-9.897300	26.975348	0.000495	20.772440
1810.492803	-3.020400	3.286400	-9.925100	26.982054	0.000495	20.759269
1811.501728	-3.002800	3.285800	-9.865600	27.019106	0.000495	20.767607
1812.492569	-2.995300	3.286200	-9.841600	26.976396	0.000495	20.774916
1813.496026	-2.999000	3.285800	-9.853300	26.937584	0.000493	20.757698
1814.492342	-3.011300	3.285100	-9.891400	26.906819	0.000491	20.765643
1815.496453	-2.982700	3.284600	-9.795400	26.948509	0.000490	20.778168
1816.495385	-2.999500	3.283400	-9.846500	26.977848	0.000491	20.777799
1817.496644	-3.003000	3.284000	-9.860400	26.960053	0.000489	20.780293
1818.495352	-3.002100	3.284800	-9.860100	26.963304	0.000488	20.756535
1819.495362	-2.997600	3.284900	-9.844600	26.922281	0.000489	20.767915
1820.498158	-3.008600	3.284100	-9.878900	26.892452	0.000487	20.776801
1821.494530	-3.012300	3.280800	-9.881900	26.884362	0.000487	20.772460
1822.497424	-3.002600	3.281600	-9.853100	26.859645	0.000490	20.762306
1823.494480	-2.987600	3.282500	-9.806200	26.906354	0.000486	20.758063
1824.501296	-2.993100	3.281800	-9.821700	26.943231	0.000486	20.764800
1825.494853	-2.969200	3.282600	-9.746100	27.005649	0.000486	20.754073
1826.497155	-3.009300	3.279900	-9.869300	27.028549	0.000486	20.766672
1827.497303	-2.978000	3.279500	-9.765300	27.036491	0.000486	20.770391
1828.499658	-2.968100	3.282300	-9.740900	27.062667	0.000481	20.766844
1829.497470	-3.008000	3.279700	-9.864700	27.069054	0.000484	20.764732
1830.495799	-2.990400	3.279200	-9.805600	27.083534	0.000483	20.735197
1831.495631	-2.985400	3.278400	-9.786300	27.081226	0.000480	20.754688
1832.495451	-3.012600	3.277500	-9.872300	27.083590	0.000482	20.751375
1833.498715	-3.003900	3.278400	-9.847100	27.065049	0.000479	20.759756
1834.500544	-2.991700	3.276900	-9.802300	27.030704	0.000479	20.761252
1835.498874	-2.990600	3.278000	-9.802400	27.002097	0.000479	20.747181
1836.501614	-3.017100	3.276300	-9.884500	27.023810	0.000478	20.741042
1837.498207	-2.993800	3.276900	-9.809800	27.041004	0.000477	20.760704
1838.499719	-2.992000	3.277400	-9.804800	27.059018	0.000476	20.749897
1839.503147	-3.011800	3.275400	-9.862400	27.034232	0.000476	20.737298
1840.501611	-3.010300	3.274500	-9.856800	27.035217	0.000475	20.743030
1841.500528	-2.980300	3.276000	-9.762000	27.060334	0.000476	20.752169
1842.500368	-3.022600	3.274400	-9.895500	27.071245	0.000476	20.747021
1843.503605	-3.015300	3.274000	-9.870200	27.101101	0.000473	20.742433
1844.501906	-2.991300	3.273900	-9.792400	27.117099	0.000473	20.747618
1845.500344	-3.023600	3.273600	-9.897400	27.143873	0.000471	20.738984
1846.501480	-2.996000	3.273900	-9.806800	27.134971	0.000472	20.741411
1847.502814	-3.015000	3.271700	-9.862300	27.077650	0.000472	20.743979
1848.502177	-2.990300	3.272500	-9.785300	27.018188	0.000471	20.746294
1849.502878	-2.967200	3.273600	-9.712700	27.039209	0.000470	20.729975
1850.501518	-2.998800	3.272500	-9.813300	27.049177	0.000470	20.734310
1851.503343	-2.979400	3.272400	-9.749100	27.077692	0.000467	20.739754
1852.507330	-2.990300	3.269700	-9.776100	27.098803	0.000467	20.742968
1853.503210	-2.980900	3.271000	-9.749100	27.114386	0.000467	20.741096
1854.503763	-3.004000	3.268700	-9.818200	27.135748	0.000466	20.760210
1855.506995	-3.021500	3.268900	-9.875300	27.119125	0.000468	20.751078
1856.502437	-2.989000	3.271000	-9.775700	27.112794	0.000466	20.747081
1857.502589	-2.981300	3.269800	-9.746700	27.122590	0.000467	20.737493
1858.504232	-2.984800	3.270600	-9.761200	27.132864	0.000465	20.755413
1859.503560	-2.979900	3.270800	-9.746500	27.119565	0.000465	20.754840
1860.506619	-3.004500	3.268900	-9.820400	27.136464	0.000464	20.741964
1861.504875	-3.000900	3.267300	-9.803100	27.139537	0.000463	20.728459
1862.504731	-2.989400	3.268900	-9.770500	27.103016	0.000464	20.744833
1863.504020	-3.021300	3.268000	-9.872500	27.067998	0.000461	20.736169
1864.503036	-2.992600	3.266600	-9.774800	26.992714	0.000461	20.750548
1865.509753	-2.977900	3.267400	-9.728600	26.953725	0.000461	20.746902
1866.503613	-2.966100	3.266600	-9.688600	26.926352	0.000460	20.739291
1867.505816	-2.990800	3.265000	-9.763900	26.926922	0.000459	20.755985
1868.504805	-3.012900	3.264600	-9.835000	26.919953	0.000458	20.738072
1869.503351	-2.991300	3.265700	-9.767500	26.886278	0.000458	20.730288
1870.506645	-3.004400	3.263600	-9.804200	26.896351	0.000456	20.740892
1871.507709	-2.974500	3.265100	-9.710300	26.874286	0.000456	20.734352
1872.503431	-2.994400	3.264200	-9.773300	26.884667	0.000456	20.752378
1873.503946	-2.980800	3.263300	-9.726000	26.900497	0.000456	20.728465
1874.504935	-2.986700	3.263600	-9.746600	26.907099	0.000455	20.733681
1875.505908	-3.021800	3.262500	-9.857400	26.893602	0.000453	20.724851
1876.505482	-2.987500	3.263800	-9.749500	26.910725	0.000454	20.746810
1877.507850	-2.993600	3.262000	-9.764100	26.954357	0.000453	20.733786
1878.508280	-3.019900	3.259800	-9.843200	26.989622	0.000453	20.741275
1879.506505	-2.985900	3.260100	-9.732400	27.036147	0.000451	20.743491
1880.506401	-3.021100	3.260200	-9.848000	27.080545	0.000450	20.735985
1881.508649	-3.006200	3.259900	-9.797500	27.075408	0.000449	20.736982
1882.504606	-2.983700	3.259800	-9.725200	27.106280	0.000449	20.741004
1883.507770	-3.009700	3.259400	-9.808500	27.138167	0.000450	20.727081
1884.505463	-2.991300	3.257800	-9.745000	27.153382	0.000450	20.748074
1885.508989	-2.987800	3.259700	-9.737700	27.162779	0.000448	20.750414
1886.509318	-2.996000	3.259000	-9.763000	27.167053	0.000445	20.724839
1887.508350	-2.963300	3.257500	-9.652100	27.158047	0.000446	20.736645
1888.511405	-2.985300	3.257700	-9.724200	27.165119	0.000444	20.741386
1889.504825	-3.012100	3.257700	-9.812400	27.143782	0.000445	20.729883
1890.508750	-3.016800	3.257300	-9.826100	27.152592	0.000444	20.724994
1891.505627	-2.982100	3.257200	-9.713000	27.160460	0.000443	20.729588
1892.508355	-2.969200	3.258900	-9.675800	27.205025	0.000443	20.728892
1893.508874	-3.002500	3.256300	-9.775000	27.189817	0.000443	20.709327
1894.508001	-2.994700	3.256500	-9.751500	27.133019	0.000441	20.740870
1895.507013	-2.982000	3.255500	-9.707100	27.134642	0.000441	20.729699
1896.507475	-2.983100	3.255400	-9.709900	27.120125	0.000439	20.733117
1897.508808	-3.023600	3.253300	-9.835800	27.147493	0.000440	20.722236
1898.509428	-3.010400	3.251900	-9.789200	27.144867	0.000438	20.734294
1899.506789	-3.005900	3.253700	-9.779300	27.162121	0.000438	20.711817
1900.508607	-2.992800	3.252800	-9.733300	27.184093	0.000437	20.732021
1901.509037	-2.996400	3.253300	-9.747200	27.184749	0.000436	20.736948
1902.506531	-2.974900	3.252700	-9.674800	27.213407	0.000437	20.709822
1903.507683	-2.987200	3.252100	-9.713900	27.236506	0.000437	20.716934
1904.510325	-2.996400	3.253700	-9.748100	27.283547	0.000435	20.726794
1905.514799	-2.994300	3.250000	-9.729500	27.313103	0.000434	20.715747
1906.507186	-3.006200	3.250000	-9.769600	27.320247	0.000434	20.730994
1907.510234	-3.014600	3.249100	-9.793800	27.318704	0.000433	20.687239
1908.510750	-2.998700	3.250100	-9.744800	27.258423	0.000434	20.717169
1909.506482	-3.009900	3.250400	-9.781500	27.202725	0.000432	20.727053
1910.511604	-3.040900	3.247500	-9.873900	27.220883	0.000432	20.719238
1911.507596	-2.982900	3.249700	-9.692500	27.176032	0.000430	20.743354
1912.508902	-3.013800	3.248500	-9.789500	27.214290	0.000429	20.713080
1913.512506	-3.011100	3.246700	-9.774500	27.205909	0.000429	20.699434
1914.511471	-2.979600	3.247900	-9.676700	27.246254	0.000429	20.736698
1915.512464	-3.003700	3.246800	-9.750700	27.267271	0.000426	20.725595
1916.508658	-3.009800	3.246700	-9.771100	27.259282	0.000426	20.711868
1917.508767	-3.010200	3.246700	-9.771000	27.213189	0.000425	20.723828
1918.509451	-2.977000	3.245500	-9.659500	27.158700	0.000426	20.702212
1919.513958	-3.001400	3.243600	-9.734100	27.119822	0.000424	20.724751
1920.511062	-3.011100	3.244500	-9.767800	27.103493	0.000426	20.720656
1921.516266	-3.006400	3.243900	-9.751300	27.101411	0.000421	20.717140
1922.512080	-3.021100	3.245000	-9.802800	27.159852	0.000422	20.700999
1923.510427	-2.981000	3.245000	-9.672700	27.150717	0.000420	20.699398
1924.517622	-3.001400	3.243000	-9.732700	27.150986	0.000422	20.687814
1925.512039	-3.011600	3.243100	-9.766200	27.159870	0.000422	20.717614
1926.515740	-2.981100	3.243300	-9.667800	27.151482	0.000419	20.709651
1927.513580	-3.012000	3.241300	-9.762200	27.149946	0.000421	20.691509
1928.512302	-3.017600	3.240600	-9.777600	27.117985	0.000419	20.706782
1929.515388	-3.029200	3.241300	-9.816100	27.146205	0.000419	20.692963
1930.513152	-3.002700	3.241300	-9.731600	27.097046	0.000418	20.694256
1931.522338	-3.002200	3.239600	-9.724700	27.046225	0.000416	20.713322
1932.515832	-2.989600	3.239800	-9.684400	27.008775	0.000414	20.709799
1933.520324	-2.986900	3.239100	-9.673300	27.000362	0.000415	20.714615
1934.521844	-2.987000	3.240700	-9.679100	27.024003	0.000414	20.704724
1935.519746	-2.993400	3.239100	-9.694800	27.030359	0.000415	20.692149
1936.517420	-2.981500	3.238900	-9.655500	27.039066	0.000413	20.717028
1937.521787	-3.006500	3.237600	-9.733200	27.076012	0.000413	20.692542
1938.517973	-2.995100	3.237200	-9.694600	27.103700	0.000411	20.672022
1939.518032	-2.997800	3.238300	-9.706400	27.102537	0.000413	20.698830
1940.527960	-2.993500	3.235900	-9.685000	27.095936	0.000411	20.702149
1941.524637	-3.018100	3.234300	-9.760000	27.117072	0.000411	20.705388
1942.522403	-2.978800	3.237000	-9.641300	27.147537	0.000409	20.698096
1943.519329	-3.019300	3.235800	-9.768300	27.193333	0.000407	20.710018
1944.522685	-3.000800	3.236400	-9.711100	27.189953	0.000408	20.701402
1945.524808	-3.024300	3.233200	-9.777200	27.195089	0.000406	20.709415
1946.523529	-3.027400	3.232100	-9.783500	27.223074	0.000406	20.710535
1947.523011	-2.995400	3.233000	-9.683100	27.259860	0.000404	20.711027
1948.522676	-3.004000	3.233600	-9.711800	27.285566	0.000404	20.709383
1949.524996	-3.010100	3.233500	-9.732200	27.304959	0.000402	20.693328
1950.531651	-3.020800	3.231800	-9.761200	27.303863	0.000403	20.722573
1951.523239	-2.996300	3.234200	-9.689600	27.353569	0.000402	20.704295
1952.522105	-2.991400	3.231300	-9.664800	27.368945	0.000401	20.702219
1953.527747	-3.015100	3.229900	-9.738300	27.399875	0.000401	20.689711
1954.522998	-3.008500	3.230000	-9.716600	27.360957	0.000400	20.697976
1955.523338	-3.008700	3.229800	-9.716200	27.340340	0.000400	20.701419
1956.526358	-3.005000	3.229700	-9.703700	27.338950	0.000399	20.702866
1957.524082	-3.008700	3.229800	-9.716800	27.357277	0.000398	20.689058
1958.527134	-3.003200	3.230400	-9.700200	27.404362	0.000396	20.698967
1959.524024	-2.992500	3.227800	-9.657800	27.419144	0.000397	20.704830
1960.523462	-2.998700	3.228400	-9.679600	27.437176	0.000396	20.707324
1961.527805	-3.008500	3.226100	-9.704700	27.435511	0.000394	20.684784
1962.524534	-3.022300	3.227700	-9.752900	27.456297	0.000395	20.697636
1963.527735	-3.029600	3.226000	-9.772400	27.420851	0.000393	20.679044
1964.526094	-2.993900	3.228200	-9.663700	27.405347	0.000393	20.697113
1965.529446	-2.998500	3.227200	-9.675700	27.369923	0.000393	20.696091
1966.530725	-3.016700	3.225700	-9.730100	27.323327	0.000393	20.703271
1967.527603	-2.990600	3.226700	-9.649200	27.299416	0.000392	20.687278
1968.527319	-2.990400	3.225800	-9.645800	27.288006	0.000390	20.691921
1969.526820	-2.985800	3.224600	-9.627300	27.340173	0.000390	20.707416
1970.527465	-2.987200	3.225000	-9.633000	27.368154	0.000389	20.681033
1971.530562	-2.969400	3.224400	-9.573800	27.399935	0.000387	20.696885
1972.530247	-2.973800	3.224800	-9.588500	27.420520	0.000387	20.681082
1973.530178	-2.997400	3.222800	-9.659000	27.374826	0.000386	20.691065
1974.531061	-2.988200	3.223600	-9.630200	27.335362	0.000387	20.722491
1975.528407	-2.989500	3.223900	-9.636000	27.284699	0.000383	20.697605
1976.531803	-3.018000	3.221200	-9.720300	27.302636	0.000385	20.683878
1977.534233	-2.994300	3.222000	-9.647000	27.341459	0.000383	20.698750
1978.532310	-3.010100	3.221000	-9.694700	27.371251	0.000384	20.700746
1979.532968	-3.002800	3.221700	-9.672800	27.379257	0.000381	20.703584
1980.530526	-3.016500	3.220200	-9.711600	27.407243	0.000381	20.716092
1981.532258	-3.024000	3.221600	-9.739300	27.453701	0.000379	20.709250
1982.532283	-2.986400	3.220400	-9.615900	27.491802	0.000381	20.696373
1983.535301	-3.014000	3.218000	-9.698000	27.516651	0.000379	20.680121
1984.534146	-3.001000	3.219000	-9.659000	27.531131	0.000378	20.695165
1985.531206	-3.014900	3.219200	-9.704600	27.553978	0.000379	20.684487
1986.533439	-2.999200	3.219300	-9.654600	27.583465	0.000377	20.703251
1987.535456	-3.008500	3.219100	-9.683300	27.610147	0.000376	20.722514
1988.530226	-3.017800	3.215500	-9.703100	27.598489	0.000376	20.706989
1989.537836	-2.980300	3.217000	-9.586800	27.610839	0.000375	20.710407
1990.530898	-3.011300	3.216400	-9.684700	27.609694	0.000375	20.714471
1991.530902	-3.010400	3.217100	-9.683400	27.618268	0.000374	20.707450
1992.532975	-2.984900	3.216400	-9.598900	27.580049	0.000373	20.687485
1993.531226	-2.992600	3.215200	-9.621100	27.555813	0.000373	20.686807
1994.531019	-3.001400	3.215600	-9.650300	27.498409	0.000372	20.700176
1995.537578	-3.033900	3.212900	-9.746300	27.484718	0.000373	20.702523
1996.531371	-3.005600	3.212900	-9.655900	27.452945	0.000371	20.709913
1997.534717	-2.990800	3.214800	-9.613900	27.410399	0.000369	20.724009
1998.534641	-3.000100	3.211700	-9.634600	27.459659	0.000367	20.721884
1999.533762	-3.001800	3.212500	-9.642000	27.454995	0.000367	20.728572
2000.535794	-2.989400	3.212600	-9.602800	27.507608	0.000366	20.713700
2001.532300	-3.008700	3.211700	-9.662000	27.519359	0.000365	20.721255
2002.535667	-2.994400	3.211400	-9.615300	27.564600	0.000365	20.693278
2003.536534	-2.975800	3.212100	-9.557400	27.599968	0.000364	20.713693
2004.536393	-3.008000	3.210100	-9.654300	27.614698	0.000364	20.710497
2005.537556	-2.991500	3.208300	-9.596100	27.593597	0.000363	20.712024
2006.532416	-2.991500	3.210000	-9.601000	27.570200	0.000363	20.701758
2007.534478	-2.989500	3.209200	-9.593600	27.606492	0.000362	20.725474
2008.536788	-2.982900	3.207800	-9.566500	27.614552	0.000361	20.708452
2009.542440	-3.015900	3.206600	-9.670500	27.574699	0.000361	20.709130
2010.533615	-2.981600	3.208500	-9.565100	27.574196	0.000359	20.688709
2011.535205	-3.014300	3.205300	-9.660100	27.592477	0.000359	20.727020
2012.533899	-3.018500	3.207800	-9.682400	27.614258	0.000359	20.702941
2013.536495	-3.009900	3.205700	-9.647500	27.590347	0.000356	20.717764
2014.539815	-3.002900	3.206400	-9.627100	27.601682	0.000355	20.713995
2015.542320	-3.013400	3.204400	-9.655100	27.581100	0.000354	20.707985
2016.540261	-2.997200	3.204400	-9.602700	27.543767	0.000357	20.723528
2017.539486	-2.976400	3.205800	-9.541100	27.536227	0.000352	20.700293
2018.537096	-3.010700	3.205000	-9.648400	27.518123	0.000353	20.705312
2019.546992	-2.980900	3.203200	-9.546600	27.481094	0.000352	20.729225
2020.547764	-2.992400	3.205900	-9.591800	27.445625	0.000353	20.717721
2021.546577	-3.002000	3.201900	-9.611500	27.442619	0.000352	20.706162
2022.547616	-2.987400	3.202200	-9.565300	27.441805	0.000351	20.711033
2023.547184	-2.989400	3.203800	-9.576000	27.435336	0.000349	20.715431
2024.547949	-2.983700	3.202100	-9.553500	27.471797	0.000348	20.740260
2025.551645	-3.016900	3.201000	-9.656200	27.451954	0.000349	20.729779
2026.550129	-2.996400	3.200700	-9.589300	27.488146	0.000349	20.718300
2027.551420	-3.010300	3.200800	-9.632800	27.531992	0.000346	20.733018
2028.548282	-3.008000	3.198800	-9.621100	27.579742	0.000345	20.707566
2029.550115	-2.998300	3.199800	-9.593000	27.613500	0.000345	20.726362
2030.551611	-2.993200	3.198700	-9.573400	27.659948	0.000345	20.739909
2031.549024	-3.021700	3.198500	-9.663700	27.679365	0.000344	20.709660
2032.551138	-2.998400	3.197900	-9.585900	27.680204	0.000343	20.721884
2033.550963	-2.986900	3.198700	-9.553300	27.708646	0.000342	20.738178
2034.554226	-2.991300	3.196600	-9.561100	27.677076	0.000341	20.734859
2035.554131	-3.016200	3.195400	-9.637000	27.674751	0.000341	20.714975
2036.553267	-2.998200	3.196800	-9.583500	27.667530	0.000339	20.721933
2037.553576	-2.997200	3.194700	-9.573900	27.600397	0.000337	20.742101
2038.551934	-3.023300	3.194000	-9.654000	27.579031	0.000338	20.750002
2039.552467	-2.984800	3.194800	-9.534600	27.611008	0.000336	20.725751
2040.555078	-2.972600	3.194500	-9.494500	27.639698	0.000337	20.733282
2041.556602	-2.963400	3.195800	-9.469800	27.697802	0.000336	20.743388
2042.551910	-3.000200	3.192700	-9.577600	27.745496	0.000336	20.711723
2043.554270	-2.990400	3.193200	-9.547100	27.731832	0.000335	20.716464
2044.554605	-2.983700	3.192500	-9.524900	27.761565	0.000334	20.725997
2045.554578	-2.974700	3.192800	-9.495900	27.753206	0.000333	20.716637
2046.558026	-3.002600	3.190500	-9.578800	27.771979	0.000333	20.744065
2047.553385	-2.996600	3.190800	-9.560700	27.780331	0.000332	20.727814
2048.555855	-2.998400	3.190300	-9.563700	27.796877	0.000331	20.734034
2049.558131	-3.020800	3.188500	-9.630600	27.793432	0.000332	20.729144
2050.555344	-3.005900	3.188400	-9.582700	27.814162	0.000331	20.741473
2051.556933	-3.009700	3.187600	-9.592600	27.836257	0.000328	20.734785
2052.558407	-3.017000	3.189500	-9.621800	27.841293	0.000328	20.743647
2053.556482	-3.042700	3.188000	-9.697900	27.825421	0.000328	20.730043
2054.556534	-3.015800	3.188600	-9.615700	27.777811	0.000327	20.748038
2055.555054	-2.992800	3.187600	-9.538100	27.775999	0.000327	20.732938
2056.556541	-3.012800	3.185300	-9.595900	27.800799	0.000324	20.724704
2057.561246	-3.006200	3.185800	-9.575700	27.793481	0.000323	20.751480
2058.560730	-3.001700	3.185300	-9.560200	27.804862	0.000324	20.743493
2059.557427	-2.999000	3.185300	-9.551100	27.752588	0.000325	20.735456
2060.555658	-2.990000	3.185500	-9.522900	27.747387	0.000322	20.762466
2061.557002	-2.987500	3.185900	-9.516600	27.688789	0.000323	20.728627
2062.559206	-2.987600	3.183300	-9.509400	27.665192	0.000323	20.742815
2063.560146	-2.985400	3.184400	-9.505600	27.675161	0.000320	20.740518
2064.558934	-3.002600	3.182600	-9.555300	27.680901	0.000320	20.764788
2065.556711	-3.017200	3.180800	-9.596500	27.690741	0.000319	20.735333
2066.556219	-2.995000	3.180700	-9.525100	27.722953	0.000320	20.745937
2067.559289	-3.003400	3.181500	-9.554300	27.687363	0.000320	20.730037
2068.559655	-2.998000	3.180500	-9.533800	27.657084	0.000318	20.751726
2069.561139	-3.025600	3.179100	-9.617800	27.661538	0.000317	20.756683
2070.561134	-2.999500	3.181600	-9.542500	27.724458	0.000315	20.740813
2071.558217	-2.999600	3.180600	-9.539900	27.754882	0.000316	20.743455
2072.560387	-2.988500	3.181000	-9.506000	27.730772	0.000316	20.750961
2073.561509	-2.997900	3.178100	-9.526300	27.709025	0.000315	20.747568
2074.557766	-2.986500	3.178600	-9.492500	27.618057	0.000316	20.735689
2075.560715	-2.993000	3.176300	-9.506000	27.592727	0.000312	20.766153
2076.557087	-2.972100	3.179900	-9.449600	27.539849	0.000314	20.762735
2077.558149	-3.005500	3.175200	-9.541000	27.509161	0.000310	20.754619
2078.560026	-2.968000	3.177100	-9.428400	27.491521	0.000312	20.781917
2079.560786	-2.988900	3.174700	-9.487800	27.556312	0.000312	20.760807
2080.560940	-3.024100	3.174400	-9.598400	27.608393	0.000308	20.751096
2081.558019	-3.004700	3.174100	-9.536400	27.688842	0.000309	20.763295
2082.559002	-2.992100	3.174900	-9.497500	27.686388	0.000308	20.755135
2083.559300	-2.997400	3.173600	-9.511700	27.661488	0.000308	20.756158
2084.560540	-3.014600	3.172000	-9.560900	27.664046	0.000307	20.762051
2085.559303	-3.015300	3.170800	-9.558200	27.673763	0.000306	20.752863
2086.565232	-2.989000	3.173700	-9.485000	27.725766	0.000305	20.768683
2087.560539	-3.010400	3.170300	-9.542500	27.694912	0.000302	20.775093
2088.573285	-2.981300	3.171600	-9.454200	27.681498	0.000303	20.771078
2089.566324	-2.970200	3.171100	-9.417400	27.642597	0.000301	20.758012
2090.563555	-3.001800	3.170200	-9.515200	27.630534	0.000303	20.767211
2091.564757	-3.016900	3.167200	-9.553800	27.652161	0.000302	20.774274
2092.563553	-3.006000	3.169100	-9.524300	27.655680	0.000298	20.779238
2093.564874	-2.985400	3.168400	-9.458200	27.681774	0.000300	20.789848
2094.567730	-3.001300	3.167500	-9.506500	27.723661	0.000299	20.761349
2095.569182	-2.997800	3.167800	-9.495700	27.754214	0.000299	20.759378
2096.567362	-2.999900	3.166300	-9.497700	27.782434	0.000298	20.785408
2097.568048	-3.019400	3.165600	-9.557100	27.783970	0.000298	20.770832
2098.568231	-2.998200	3.165000	-9.488700	27.742392	0.000296	20.780673
2099.573010	-2.998900	3.167600	-9.497300	27.733189	0.000295	20.762402
2100.567027	-3.009600	3.164100	-9.521000	27.734657	0.000295	20.763880
2101.568030	-3.025400	3.161700	-9.564800	27.785886	0.000295	20.766122
2102.570212	-3.013800	3.163600	-9.532300	27.813365	0.000292	20.777182
2103.565091	-3.009800	3.161600	-9.514500	27.845971	0.000293	20.784393
2104.568723	-2.997100	3.161900	-9.474900	27.858478	0.000292	20.774220
2105.567376	-2.998700	3.162100	-9.481400	27.890091	0.000291	20.791339
2106.568068	-3.010300	3.162000	-9.518300	27.914411	0.000290	20.758917
2107.570345	-3.013600	3.159300	-9.518600	27.917146	0.000290	20.788698
2108.570122	-2.997300	3.160900	-9.472700	27.949505	0.000289	20.775274
2109.571735	-2.994600	3.157900	-9.455700	27.948789	0.000288	20.766492
2110.565718	-2.981600	3.158600	-9.416700	27.924764	0.000286	20.777872
2111.571103	-2.989000	3.160100	-9.444200	27.908251	0.000285	20.768839
2112.567512	-2.999900	3.158600	-9.473600	27.946091	0.000286	20.791753
2113.566044	-3.016900	3.157300	-9.524300	27.972000	0.000285	20.777528
2114.568627	-2.997100	3.157700	-9.461500	27.966379	0.000285	20.777085
2115.571590	-2.996800	3.155500	-9.454500	27.947193	0.000283	20.780059
2116.566974	-2.980300	3.155200	-9.401400	27.916841	0.000283	20.776063
2117.568211	-3.016200	3.154100	-9.511300	27.882458	0.000282	20.773698
2118.572710	-3.013800	3.153000	-9.500700	27.860437	0.000280	20.772399
2119.568748	-2.993700	3.154200	-9.441000	27.846359	0.000280	20.804223
2120.575032	-3.009700	3.153800	-9.491300	27.838643	0.000280	20.772750
2121.568185	-3.010300	3.152400	-9.487500	27.876260	0.000280	20.786901
2122.568652	-3.019600	3.153700	-9.521700	27.856926	0.000277	20.791150
2123.570450	-3.012100	3.150500	-9.488700	27.916230	0.000277	20.777818
2124.572184	-3.004600	3.150800	-9.466500	27.908895	0.000278	20.783712
2125.572446	-2.987200	3.149200	-9.405400	27.906961	0.000277	20.781766
2126.572338	-2.966000	3.150800	-9.343200	27.883144	0.000276	20.790036
2127.571674	-2.970200	3.150000	-9.355800	27.896077	0.000276	20.785510
2128.574017	-3.012900	3.148100	-9.483600	27.828194	0.000277	20.793528
2129.571814	-2.994000	3.148900	-9.427300	27.877239	0.000274	20.790258
2130.577927	-2.974000	3.149800	-9.366700	27.896530	0.000274	20.796871
2131.573978	-3.019600	3.146300	-9.499900	27.904068	0.000273	20.785018
2132.574479	-3.010200	3.147300	-9.473500	27.838210	0.000273	20.796970
2133.575043	-2.998100	3.145200	-9.428400	27.831614	0.000272	20.789383
2134.578907	-2.972900	3.146000	-9.352000	27.872584	0.000272	20.766606
2135.580763	-3.028300	3.142800	-9.516600	27.895393	0.000272	20.799045
2136.581017	-3.008100	3.141900	-9.450200	27.916665	0.000269	20.791533
2137.579200	-3.011900	3.143300	-9.466200	27.899333	0.000268	20.796373
2138.578476	-2.988800	3.143300	-9.393600	27.877668	0.000269	20.799224
2139.579402	-3.007500	3.142100	-9.448900	27.897926	0.000268	20.786896
2140.578333	-3.005400	3.140600	-9.437800	27.896139	0.000268	20.810702
2141.581813	-3.021700	3.139700	-9.485900	27.932585	0.000265	20.774365
2142.580264	-3.002000	3.140200	-9.426300	27.993329	0.000267	20.798048
2143.584935	-3.003500	3.140900	-9.433000	28.049952	0.000264	20.804784
2144.582009	-3.000300	3.140400	-9.421200	28.099085	0.000263	20.794027
2145.582480	-2.985400	3.139400	-9.371600	28.139721	0.000265	20.803165
2146.585155	-2.990400	3.138600	-9.384700	28.123511	0.000263	20.804391
2147.583260	-3.008300	3.137400	-9.436900	28.155385	0.000264	20.805659
2148.581672	-2.987400	3.136100	-9.368200	28.117712	0.000261	20.804717
2149.581697	-3.010900	3.135700	-9.439900	28.116250	0.000262	20.821263
2150.581232	-2.999300	3.135700	-9.404200	28.155985	0.000260	20.786348
2151.585099	-2.997400	3.135200	-9.396000	28.166898	0.000262	20.797334
2152.584336	-3.010200	3.132500	-9.427800	28.207524	0.000262	20.807889
2153.583457	-3.000300	3.131600	-9.394000	28.233775	0.000260	20.806817
2154.583190	-2.987200	3.134000	-9.361600	28.208741	0.000258	20.799631
2155.582455	-3.012200	3.132000	-9.431900	28.180183	0.000259	20.801226
2156.585738	-2.985900	3.130400	-9.344900	28.169522	0.000257	20.799501
2157.583265	-3.005000	3.130500	-9.405800	28.195952	0.000258	20.829428
2158.584667	-2.999500	3.128900	-9.385000	28.239078	0.000257	20.818794
2159.586810	-3.014800	3.128400	-9.430400	28.226851	0.000258	20.816441
2160.584925	-3.010500	3.129800	-9.421000	28.222350	0.000254	20.826134
2161.583503	-2.991500	3.127300	-9.354800	28.242626	0.000255	20.825685
2162.591544	-2.997600	3.129000	-9.378200	28.231005	0.000254	20.814933
2163.586629	-2.988700	3.126400	-9.342700	28.234075	0.000254	20.806171
2164.585865	-3.006700	3.125200	-9.395400	28.262674	0.000254	20.813628
2165.591687	-3.013000	3.123900	-9.411500	28.285670	0.000253	20.824452
2166.588595	-3.011600	3.125500	-9.412100	28.268123	0.000250	20.813898
2167.587576	-2.980000	3.125400	-9.312700	28.237463	0.000252	20.818116
2168.590602	-2.999900	3.123100	-9.366700	28.197731	0.000251	20.836910
2169.586415	-3.001000	3.122300	-9.369400	28.178195	0.000249	20.822932
2170.588743	-3.037700	3.121600	-9.481300	28.200624	0.000248	20.837451
2171.592150	-3.011000	3.121100	-9.395600	28.221304	0.000248	20.808486
2172.592689	-3.009700	3.119500	-9.387700	28.230032	0.000249	20.836713
2173.591422	-2.992900	3.120200	-9.337400	28.243683	0.000246	20.820585
2174.593447	-2.973700	3.120700	-9.279000	28.209426	0.000246	20.810751
2175.592146	-3.012800	3.118600	-9.394200	28.191553	0.000246	20.840647
2176.590657	-2.989600	3.119100	-9.323900	28.176207	0.000247	20.838473
2177.595711	-3.023500	3.117000	-9.422100	28.135310	0.000244	20.821010
2178.591982	-3.029100	3.115800	-9.436300	28.138632	0.000244	20.823880
2179.593131	-2.972200	3.117800	-9.264200	28.131145	0.000244	20.834360
2180.597362	-3.001300	3.114700	-9.346900	28.117908	0.000244	20.824354
2181.593825	-2.996600	3.115400	-9.334700	28.127897	0.000245	20.833461
2182.593015	-2.978500	3.114900	-9.277200	28.110096	0.000243	20.834508
2183.599581	-2.981600	3.115400	-9.287500	28.142204	0.000242	20.839804
2184.593143	-2.990700	3.113200	-9.310100	28.167711	0.000242	20.840826
2185.593020	-3.007200	3.111300	-9.355300	28.206080	0.000240	20.840573
2186.595542	-3.001700	3.110700	-9.336300	28.216092	0.000240	20.849231
2187.593275	-3.001300	3.110500	-9.334200	28.179081	0.000240	20.822402
2188.600853	-3.013000	3.109900	-9.368900	28.184018	0.000241	20.856293
2189.597555	-3.001500	3.108500	-9.328800	28.192097	0.000240	20.845462
2190.595748	-3.016100	3.107200	-9.370500	28.187381	0.000238	20.839292
2191.595012	-3.014100	3.106600	-9.362300	28.162248	0.000239	20.841016
2192.597287	-2.992500	3.105500	-9.292400	28.141207	0.000237	20.862032
2193.594232	-3.020900	3.103800	-9.374900	28.108928	0.000238	20.839969
2194.603505	-3.024600	3.103600	-9.386200	28.092411	0.000236	20.836145
2195.598698	-2.989100	3.104200	-9.276900	28.113393	0.000235	20.845887
2196.595755	-2.995200	3.104500	-9.297600	28.119614	0.000234	20.852623
2197.595531	-3.005700	3.101500	-9.320900	28.088197	0.000236	20.848971
2198.602233	-2.992700	3.103000	-9.285300	28.093629	0.000234	20.841638
2199.603042	-2.986700	3.102800	-9.266200	28.104933	0.000232	20.837845
2200.600294	-2.981000	3.102000	-9.246000	28.101563	0.000235	20.845357
2201.605117	-3.011900	3.100600	-9.337400	28.116733	0.000232	20.838818
2202.600592	-2.997000	3.099100	-9.286900	28.129205	0.000231	20.817235
2203.600927	-3.004900	3.097900	-9.306000	28.159104	0.000232	20.853498
2204.601300	-2.982400	3.099400	-9.242700	28.194348	0.000231	20.828288
2205.599304	-3.009400	3.095100	-9.313200	28.200697	0.000232	20.835628
2206.600663	-3.018100	3.096000	-9.343400	28.196727	0.000230	20.847752
2207.601618	-3.011600	3.095100	-9.320000	28.183369	0.000230	20.839520
2208.605175	-3.016900	3.092700	-9.329100	28.139334	0.000230	20.852561
2209.604553	-3.010800	3.092200	-9.309100	28.154162	0.000229	20.853263
2210.604707	-3.002600	3.093900	-9.289100	28.176427	0.000228	20.870461
2211.605055	-2.983400	3.092100	-9.223100	28.209461	0.000227	20.835917
2212.609356	-2.990700	3.090900	-9.242200	28.193877	0.000227	20.815012
2213.601699	-2.983600	3.089900	-9.217700	28.194666	0.000228	20.822444
2214.609328	-3.009600	3.087400	-9.290800	28.165539	0.000227	20.824889
2215.603891	-2.999800	3.087700	-9.261700	28.135077	0.000228	20.854439
2216.603060	-3.002500	3.087000	-9.267600	28.152926	0.000226	20.821201
2217.603016	-3.004600	3.086900	-9.273500	28.202257	0.000227	20.836724
2218.604287	-2.985500	3.086400	-9.213300	28.215786	0.000225	20.818103
2219.604683	-2.989400	3.086900	-9.227600	28.212245	0.000225	20.809322
2220.604262	-3.004600	3.084700	-9.268300	28.175882	0.000224	20.819655
2221.607275	-3.019700	3.083300	-9.309800	28.107368	0.000222	20.824649
2222.620831	-3.019900	3.080700	-9.302100	28.096817	0.000223	20.814976
2223.604799	-3.009800	3.081800	-9.274900	28.126288	0.000223	20.825204
2224.606427	-2.999600	3.081400	-9.242500	28.198667	0.000223	20.803239
2225.604517	-2.981000	3.080000	-9.179200	28.261181	0.000223	20.807383
2226.603127	-3.017900	3.078000	-9.288000	28.316409	0.000221	20.813677
2227.606403	-2.997600	3.078400	-9.226700	28.366282	0.000222	20.822169
2228.607454	-3.020800	3.075400	-9.288700	28.390738	0.000222	20.812180
2229.608648	-3.009500	3.076300	-9.256900	28.393416	0.000222	20.799705
2230.603925	-3.007300	3.075500	-9.246300	28.423852	0.000221	20.812809
2231.605173	-2.999300	3.075500	-9.223700	28.457552	0.000221	20.809286
2232.610094	-2.996100	3.073300	-9.206900	28.461374	0.000221	20.813135
2233.610282	-3.000500	3.073800	-9.221000	28.497929	0.000218	20.818653
2234.606509	-2.993900	3.072000	-9.196600	28.479793	0.000220	20.811295
2235.613971	-2.990300	3.072000	-9.185000	28.494713	0.000218	20.807354
2236.611824	-2.969900	3.071000	-9.119100	28.525593	0.000219	20.801467
2237.616180	-3.017700	3.068700	-9.259600	28.527978	0.000218	20.807188
2238.609136	-2.998500	3.067100	-9.196100	28.548174	0.000222	20.794811
2239.608140	-2.990000	3.069600	-9.176500	28.539351	0.000219	20.797779
2240.608567	-2.999600	3.066700	-9.198400	28.500499	0.000219	20.813180
2241.612707	-2.992400	3.065900	-9.172800	28.448419	0.000219	20.794399
2242.612175	-2.999100	3.064400	-9.189600	28.381273	0.000219	20.811659
2243.617769	-2.995500	3.063900	-9.177000	28.343161	0.000217	20.806949
2244.617834	-3.004400	3.062200	-9.198900	28.360236	0.000218	20.807546
2245.615499	-2.997000	3.061100	-9.173200	28.389609	0.000217	20.815785
2246.615735	-3.001900	3.059800	-9.184300	28.423787	0.000216	20.813218
2247.616024	-3.014100	3.058500	-9.216900	28.474518	0.000219	20.797448
2248.616328	-2.983100	3.059200	-9.124200	28.511543	0.000219	20.808655
2249.614525	-3.014900	3.057600	-9.217300	28.544109	0.000216	20.792614
2250.620465	-3.008300	3.056100	-9.192000	28.567252	0.000217	20.787472
2251.614448	-3.027400	3.055800	-9.250200	28.604225	0.000215	20.791044
2252.614596	-3.010900	3.054300	-9.195400	28.611611	0.000215	20.796112
2253.617688	-3.031900	3.053000	-9.254900	28.645336	0.000214	20.801630
2254.615923	-3.004000	3.052600	-9.169200	28.660474	0.000214	20.773728
2255.618469	-2.972500	3.052300	-9.071300	28.617641	0.000214	20.782270
2256.619151	-2.995900	3.050100	-9.136500	28.567626	0.000214	20.790219
2257.617059	-2.994500	3.049300	-9.129900	28.544196	0.000213	20.790805
2258.618407	-2.988400	3.049600	-9.112300	28.538766	0.000214	20.788655
2259.622494	-3.006400	3.047900	-9.161800	28.555642	0.000213	20.792849
2260.619238	-3.022500	3.045900	-9.205700	28.507398	0.000213	20.788834
2261.621856	-2.985800	3.046000	-9.093800	28.441082	0.000213	20.785589
2262.621329	-2.996200	3.044400	-9.119900	28.337164	0.000213	20.785262
2263.619422	-2.995700	3.044500	-9.120100	28.292360	0.000213	20.791833
2264.622058	-2.991200	3.043500	-9.102300	28.204195	0.000212	20.778933
2265.625379	-2.989900	3.041100	-9.091900	28.194800	0.000210	20.779431
2266.623023	-2.994200	3.041300	-9.104700	28.197859	0.000210	20.775399
2267.621891	-3.009800	3.039000	-9.146100	28.240716	0.000212	20.777295
2268.625369	-2.983000	3.039200	-9.064600	28.261187	0.000212	20.772775
2269.623018	-2.993800	3.038300	-9.095300	28.282734	0.000211	20.790677
2270.621298	-2.977300	3.037900	-9.043600	28.298941	0.000212	20.787555
2271.623219	-3.029100	3.034200	-9.189300	28.331288	0.000211	20.794994
2272.622829	-2.995000	3.034500	-9.087200	28.386205	0.000211	20.778219
2273.632212	-3.014100	3.032700	-9.139700	28.445144	0.000210	20.771187
2274.624853	-2.985300	3.032300	-9.051700	28.486983	0.000210	20.782026
2275.624579	-2.999100	3.030700	-9.088200	28.493251	0.000212	20.803984
2276.625157	-2.989200	3.029600	-9.054800	28.536640	0.000211	20.773238
2277.627214	-2.977400	3.029800	-9.020200	28.574232	0.000212	20.777432
2278.634296	-2.998100	3.027200	-9.073600	28.558800	0.000211	20.779433
2279.626509	-2.988500	3.026700	-9.044600	28.519251	0.000212	20.782753
2280.625217	-3.022100	3.025300	-9.140800	28.493031	0.000209	20.777210
2281.625149	-3.013200	3.023100	-9.108100	28.472638	0.000211	20.761415
2282.628053	-2.961000	3.023600	-8.952400	28.486139	0.000210	20.767425
2283.631886	-3.005200	3.021500	-9.079400	28.542792	0.000213	20.779433
2284.629776	-2.993500	3.019700	-9.037100	28.539252	0.000210	20.768756
2285.625306	-2.991600	3.019200	-9.030100	28.517496	0.000210	20.774821
2286.627515	-2.980500	3.019200	-8.998200	28.493697	0.000208	20.780726
2287.627187	-3.002400	3.016400	-9.054000	28.488103	0.000209	20.761341
2288.628001	-2.982000	3.017000	-8.995700	28.473806	0.000209	20.767333
2289.628676	-2.997200	3.015200	-9.035700	28.479132	0.000211	20.782654
2290.628259	-3.007800	3.012100	-9.058700	28.471470	0.000208	20.759765
2291.629458	-3.019000	3.009400	-9.083000	28.487057	0.000210	20.758865
2292.631193	-2.999800	3.011900	-9.033700	28.518187	0.000207	20.772672
2293.629017	-2.995500	3.010300	-9.016500	28.548020	0.000208	20.785173
2294.631071	-3.022600	3.006800	-9.087400	28.491276	0.000209	20.774021
2295.634192	-2.999900	3.005600	-9.015500	28.417596	0.000208	20.775689
2296.630567	-3.040800	3.004000	-9.132800	28.357292	0.000208	20.771391
2297.630103	-2.981700	3.004400	-8.956700	28.306507	0.000207	20.772413
2298.634580	-3.003900	3.003700	-9.021800	28.266258	0.000208	20.772665
2299.630067	-2.999500	3.001500	-9.002100	28.277463	0.000207	20.768774
2300.629968	-2.994700	3.002000	-8.989600	28.288465	0.000205	20.763256
2301.636235	-3.011300	2.997400	-9.024000	28.328518	0.000207	20.758539
2302.630807	-3.003800	2.999500	-9.008200	28.387729	0.000207	20.755571
2303.630097	-2.968500	2.998000	-8.898300	28.436565	0.000208	20.753064
2304.633139	-3.005400	2.995100	-8.999500	28.502985	0.000207	20.758785
2305.630808	-2.988600	2.993900	-8.947300	28.560021	0.000208	20.780664
2306.633760	-3.012400	2.992600	-9.014500	28.558884	0.000209	20.749646
2307.636802	-2.995800	2.989900	-8.955500	28.541733	0.000206	20.767461
2308.633263	-3.015100	2.990400	-9.015300	28.504402	0.000207	20.771592
2309.632291	-2.991500	2.990400	-8.944500	28.437102	0.000208	20.770675
2310.637409	-3.008000	2.987600	-8.985800	28.412861	0.000207	20.751006
2311.636064	-3.015100	2.986200	-9.003300	28.448616	0.000207	20.761881
2312.633359	-2.998300	2.984800	-8.948400	28.508584	0.000209	20.768217
2313.636331	-2.996700	2.984200	-8.942100	28.553783	0.000208	20.772959
2314.633175	-3.019700	2.982100	-9.003800	28.591288	0.000206	20.773272
2315.633979	-3.000500	2.982300	-8.947000	28.665315	0.000208	20.769595
2316.640797	-3.000600	2.980100	-8.941000	28.676289	0.000208	20.754095
2317.633467	-2.993700	2.978700	-8.916500	28.662289	0.000206	20.753270
2318.632510	-2.995400	2.975400	-8.911600	28.614166	0.000205	20.760278
2319.638036	-2.999200	2.975500	-8.922900	28.555756	0.000207	20.753134
2320.637032	-3.001300	2.972800	-8.920200	28.508025	0.000206	20.763387
2321.635589	-3.005300	2.972000	-8.930700	28.448521	0.000207	20.732861
2322.638234	-3.015500	2.969800	-8.954400	28.429558	0.000203	20.762604
2323.637405	-3.026800	2.968600	-8.983800	28.487497	0.000205	20.746507
2324.635016	-2.996200	2.969200	-8.895900	28.527585	0.000205	20.781188
2325.642356	-3.007300	2.965500	-8.917600	28.550429	0.000205	20.782383
2326.638244	-3.006600	2.965300	-8.914400	28.565317	0.000203	20.754702
2327.637829	-3.007900	2.962000	-8.908300	28.618186	0.000205	20.749153
2328.642362	-2.990100	2.962900	-8.858000	28.636504	0.000203	20.761439
2329.639548	-3.002700	2.959900	-8.886400	28.628623	0.000205	20.751130
2330.638836	-2.982200	2.960300	-8.826800	28.614151	0.000204	20.770694
2331.639155	-2.989200	2.958100	-8.840900	28.583127	0.000203	20.751777
2332.644211	-3.014200	2.956100	-8.909100	28.543793	0.000204	20.761949
2333.640679	-3.022300	2.953500	-8.925800	28.593154	0.000202	20.754763
2334.643429	-3.018200	2.951400	-8.906900	28.618748	0.000203	20.753987
2335.639417	-2.990900	2.951600	-8.827300	28.635671	0.000205	20.741160
2336.639462	-3.000400	2.950500	-8.851600	28.679006	0.000204	20.755884
2337.641896	-2.990800	2.949100	-8.818300	28.714257	0.000203	20.743499
2338.640288	-3.006200	2.945900	-8.854600	28.748303	0.000205	20.754085
2339.640286	-3.016000	2.943900	-8.877600	28.687351	0.000205	20.745322
2340.644502	-2.982600	2.944200	-8.780600	28.672782	0.000203	20.747243
2341.640353	-2.968800	2.942100	-8.732700	28.606048	0.000203	20.735506
2342.641174	-3.014400	2.940500	-8.862900	28.561629	0.000204	20.742927
2343.642436	-2.985000	2.939300	-8.772900	28.557953	0.000203	20.755347
2344.641919	-3.014900	2.936200	-8.851200	28.550054	0.000203	20.742649
2345.644240	-3.005700	2.934700	-8.820000	28.606226	0.000204	20.779308
2346.645802	-2.971900	2.933700	-8.716700	28.626096	0.000202	20.737205
2347.646173	-2.999500	2.932800	-8.796200	28.662517	0.000204	20.739749
2348.645093	-2.986400	2.930700	-8.750700	28.710882	0.000203	20.729668
2349.646308	-3.014600	2.929300	-8.829200	28.751695	0.000202	20.746123
2350.647279	-3.015200	2.926700	-8.824100	28.755186	0.000204	20.748691
2351.646318	-2.975500	2.926600	-8.706600	28.697579	0.000202	20.750408
2352.646699	-2.970100	2.925500	-8.687200	28.683829	0.000203	20.759319
2353.647388	-3.007400	2.922600	-8.788300	28.657442	0.000203	20.749811
2354.648187	-2.991500	2.919600	-8.732500	28.666931	0.000203	20.737556
2355.651229	-3.006200	2.918600	-8.772300	28.647801	0.000202	20.766179
2356.648805	-2.997800	2.918900	-8.749300	28.607460	0.000203	20.744041
2357.648877	-3.003800	2.914600	-8.754100	28.630700	0.000202	20.747532
2358.651326	-3.011100	2.914100	-8.773600	28.670611	0.000200	20.749324
2359.649872	-3.022400	2.912700	-8.802200	28.724576	0.000202	20.747255
2360.650001	-3.023300	2.909400	-8.795400	28.782945	0.000203	20.745832
2361.654212	-2.983200	2.909000	-8.676800	28.817355	0.000200	20.728337
2362.650572	-3.019600	2.907400	-8.778200	28.863806	0.000202	20.725344
2363.651550	-2.986800	2.905200	-8.676600	28.872132	0.000202	20.743215
2364.654459	-3.009800	2.902300	-8.734300	28.938457	0.000201	20.723736
2365.652107	-3.011400	2.901900	-8.736900	28.962581	0.000201	20.712953
2366.652400	-2.992800	2.899900	-8.677900	28.970484	0.000203	20.744625
2367.658883	-3.030300	2.897500	-8.779200	28.964195	0.000204	20.744453
2368.655877	-2.983400	2.896600	-8.641100	28.957202	0.000203	20.721285
2369.655365	-3.013800	2.894600	-8.722600	28.969268	0.000202	20.734390
2370.658477	-3.022100	2.891900	-8.738800	28.913952	0.000202	20.729870
2371.662048	-3.004600	2.891000	-8.683900	28.943376	0.000200	20.716364
2372.654648	-3.008100	2.887900	-8.685900	28.955222	0.000201	20.730196
2373.657372	-2.993600	2.887700	-8.641700	28.958730	0.000202	20.743688
2374.657162	-2.992300	2.886000	-8.635000	28.953351	0.000202	20.725466
2375.656533	-3.014800	2.880800	-8.683700	28.925241	0.000203	20.736976
2376.661895	-3.015400	2.880400	-8.684900	28.886672	0.000202	20.723723
2377.660453	-2.993200	2.877800	-8.612700	28.815049	0.000201	20.722220
2378.658930	-3.024000	2.876100	-8.696500	28.752494	0.000200	20.708992
2379.663393	-3.014900	2.875400	-8.668300	28.747487	0.000198	20.739987
2380.663221	-3.026800	2.873400	-8.696200	28.789258	0.000199	20.736070
2381.661294	-2.995400	2.871600	-8.600300	28.828888	0.000199	20.715298
2382.676202	-2.999700	2.871100	-8.611000	28.872472	0.000201	20.707521
2383.661612	-3.030700	2.868000	-8.691000	28.909550	0.000201	20.740608
2384.660931	-2.996200	2.866700	-8.587600	28.931200	0.000200	20.732073
2385.661595	-3.030800	2.862600	-8.675400	28.918859	0.000201	20.739081
2386.662063	-2.999200	2.864000	-8.588300	28.906029	0.000200	20.733268
2387.663765	-2.985700	2.859800	-8.537800	28.913706	0.000199	20.723932
2388.665561	-3.008300	2.857400	-8.594000	28.843100	0.000201	20.704484
2389.664446	-2.981100	2.856800	-8.515600	28.777680	0.000201	20.730570
2390.664847	-3.010100	2.854400	-8.591400	28.757181	0.000200	20.721302
2391.666324	-2.994300	2.851700	-8.538200	28.785724	0.000199	20.725397
2392.666291	-2.984800	2.851100	-8.509300	28.829102	0.000199	20.707926
2393.667293	-3.005600	2.847800	-8.557700	28.832592	0.000200	20.715710
2394.667385	-3.024000	2.845300	-8.602100	28.824242	0.000201	20.735274
2395.668709	-3.009800	2.842900	-8.555000	28.845245	0.000201	20.716128
2396.668875	-2.998100	2.841500	-8.518200	28.894470	0.000199	20.708819
2397.669906	-2.989500	2.838900	-8.485700	28.900338	0.000200	20.713308
2398.670815	-3.006400	2.837200	-8.527900	28.924714	0.000200	20.711787
2399.670219	-3.004600	2.834100	-8.513900	28.940960	0.000200	20.715826
2400.671263	-2.983700	2.834000	-8.454600	28.956387	0.000200	20.736111
2401.671367	-2.982700	2.831100	-8.443300	28.971269	0.000203	20.725975
2402.671588	-2.980500	2.829000	-8.430600	29.009371	0.000200	20.732121
2403.672670	-3.003100	2.827300	-8.490200	29.027712	0.000201	20.717882
2404.681556	-3.000000	2.822600	-8.466500	29.028629	0.000200	20.721177
2405.673091	-2.981500	2.822500	-8.414700	29.026105	0.000199	20.702511
2406.673019	-2.987100	2.819800	-8.422400	29.047080	0.000199	20.739294
2407.673460	-3.023400	2.816500	-8.514600	29.053870	0.000201	20.702511
2408.674389	-3.005900	2.814400	-8.459100	29.108377	0.000200	20.707647
2409.674316	-3.018200	2.811200	-8.483800	29.099137	0.000200	20.719200
2410.673845	-3.011400	2.810200	-8.461300	29.113846	0.000198	20.705572
2411.673980	-3.023200	2.806500	-8.483400	29.158200	0.000200	20.724188
2412.673500	-3.032100	2.804700	-8.503300	29.169377	0.000201	20.717907
2413.673738	-3.021300	2.802800	-8.467500	29.193637	0.000202	20.720542
2414.674398	-3.001400	2.800800	-8.405200	29.173752	0.000202	20.709039
2415.673605	-2.998000	2.797300	-8.385600	29.117513	0.000200	20.686505
2416.673556	-3.037300	2.794600	-8.487000	29.041060	0.000200	20.710468
2417.674837	-2.995200	2.792000	-8.360800	29.022431	0.000200	20.712561
2418.676234	-2.985300	2.790600	-8.330200	28.970162	0.000200	20.698305
2419.676771	-2.998500	2.788700	-8.361300	28.909572	0.000200	20.726405
2420.676115	-3.008900	2.784700	-8.377900	28.822773	0.000198	20.710086
2421.675771	-3.034300	2.779400	-8.432200	28.773043	0.000197	20.713571
2422.677715	-3.010000	2.778300	-8.362300	28.804580	0.000199	20.696026
2423.677824	-2.979800	2.778200	-8.278000	28.852291	0.000198	20.707104
2424.678247	-3.003200	2.774100	-8.329800	28.916521	0.000200	20.700213
2425.680869	-2.989800	2.770900	-8.283000	28.945352	0.000198	20.699862
2426.680893	-3.003100	2.767500	-8.309700	29.006380	0.000197	20.710614
2427.680616	-2.990700	2.766400	-8.272000	29.045984	0.000198	20.714481
2428.680390	-3.014500	2.762500	-8.326100	29.005959	0.000198	20.701654
2429.681388	-3.006400	2.758500	-8.292100	28.955816	0.000198	20.706611
2430.679406	-3.008400	2.756300	-8.291300	28.917223	0.000200	20.740752
2431.686293	-3.015900	2.755100	-8.307800	28.916135	0.000200	20.707886
2432.681184	-3.014800	2.749700	-8.288600	28.926765	0.000199	20.704369
2433.680125	-3.017800	2.746700	-8.287600	28.914632	0.000200	20.699732
2434.681222	-2.984900	2.746100	-8.196200	28.906172	0.000199	20.717763
2435.681097	-2.961500	2.743800	-8.123800	28.910707	0.000198	20.705736
2436.682318	-3.004600	2.737200	-8.223200	28.974488	0.000198	20.690334
2437.684079	-3.006500	2.735100	-8.222300	29.048300	0.000199	20.713021
2438.684071	-3.025700	2.732000	-8.265800	29.056074	0.000199	20.699516
2439.683338	-3.033900	2.728100	-8.275200	29.041168	0.000196	20.697773
2440.684664	-3.009700	2.724500	-8.198500	29.013531	0.000198	20.710232
2441.684207	-3.015900	2.721300	-8.206200	29.049498	0.000199	20.713280
2442.685278	-2.986800	2.719600	-8.122500	29.086350	0.000199	20.706315
2443.684603	-3.002700	2.715300	-8.151200	29.116020	0.000199	20.714875
2444.684223	-2.988700	2.712700	-8.106500	29.105619	0.000198	20.705342
2445.683368	-2.993500	2.708600	-8.107600	29.079438	0.000199	20.709782
2446.686063	-3.003100	2.705500	-8.124200	29.099826	0.000199	20.712307
2447.686048	-3.018200	2.702200	-8.154900	29.087389	0.000198	20.709259
2448.685227	-2.997300	2.699200	-8.089000	29.092987	0.000200	20.714426
2449.684337	-3.025800	2.693700	-8.148900	29.121691	0.000198	20.694036
2450.684598	-3.023300	2.689100	-8.128300	29.101133	0.000198	20.706512
2451.685364	-3.003100	2.686900	-8.068000	29.144480	0.000199	20.712732
2452.683961	-3.010800	2.683500	-8.077600	29.194332	0.000197	20.720769
2453.687909	-2.981100	2.681400	-7.992600	29.258884	0.000198	20.726551
2454.685336	-2.984200	2.674600	-7.980200	29.289918	0.000197	20.708988
2455.685824	-2.989600	2.670100	-7.981600	29.332933	0.000198	20.725788
2456.686222	-3.003300	2.666900	-8.008300	29.339391	0.000200	20.708588
2457.686187	-2.963200	2.664300	-7.894100	29.340833	0.000198	20.694867
2458.686656	-3.019900	2.658800	-8.028600	29.394928	0.000200	20.714777
2459.685872	-3.013900	2.655000	-8.000900	29.395374	0.000198	20.698156
2460.686039	-2.988900	2.650800	-7.921500	29.400134	0.000199	20.713860
2461.687226	-2.979600	2.645300	-7.880200	29.404905	0.000199	20.713927
2462.687363	-2.981100	2.643300	-7.878700	29.349894	0.000197	20.705423
2463.688305	-2.998500	2.637100	-7.906100	29.298289	0.000199	20.700828
2464.691198	-2.981900	2.633800	-7.852500	29.236557	0.000198	20.702153
2465.689601	-2.993300	2.629400	-7.869100	29.239648	0.000198	20.717123
2466.690403	-3.007600	2.623500	-7.889100	29.294678	0.000198	20.729434
2467.693233	-2.989300	2.620400	-7.831300	29.328357	0.000198	20.713589
2468.690906	-3.024000	2.613800	-7.903200	29.350786	0.000199	20.732876
2469.692111	-3.021500	2.609800	-7.884500	29.379080	0.000200	20.706863
2470.695607	-3.004300	2.603100	-7.819600	29.365022	0.000198	20.706919
2471.691561	-3.014600	2.598500	-7.832900	29.378267	0.000199	20.714106
2472.691759	-3.015600	2.592700	-7.817100	29.394384	0.000199	20.727506
2473.696386	-3.009700	2.588900	-7.791200	29.437517	0.000199	20.724039
2474.693502	-2.974700	2.584800	-7.688200	29.480495	0.000198	20.724686
2475.694631	-2.993200	2.578600	-7.717000	29.516666	0.000198	20.726059
2476.700592	-3.013500	2.572400	-7.751200	29.489286	0.000199	20.696086
2477.697493	-3.022900	2.566200	-7.756600	29.456926	0.000199	20.723214
2478.696239	-3.023900	2.560900	-7.743300	29.428952	0.000200	20.716354
2479.699470	-3.002500	2.556000	-7.673200	29.403354	0.000199	20.728960
2480.696208	-3.011200	2.548500	-7.673000	29.426178	0.000198	20.731577
2481.697994	-3.025800	2.542500	-7.690400	29.388526	0.000198	20.731084
2482.698189	-2.981500	2.536900	-7.561700	29.385703	0.000198	20.735826
2483.695436	-3.049600	2.531500	-7.718900	29.404294	0.000199	20.702879
2484.697920	-2.966500	2.526300	-7.492900	29.424847	0.000198	20.732131
2485.699471	-2.974400	2.520000	-7.494000	29.403256	0.000198	20.736922
2486.698633	-3.022400	2.511500	-7.589700	29.409201	0.000198	20.735802
2487.698822	-3.006800	2.505600	-7.532900	29.416013	0.000200	20.721804
2488.701777	-2.955600	2.501500	-7.392000	29.378201	0.000199	20.723522
2489.702200	-2.968000	2.493300	-7.399600	29.345593	0.000199	20.721003
