LabVIEW Measurement	
Writer_Version	2
Reader_Version	2
Separator	Tab
Decimal_Separator	.
Multi_Headings	No
X_Columns	One
Time_Pref	Absolute
Operator	admin
Description	Clolumns are: time, Current, Voltage, Power, Battery Temp, and Chamber Temp
Date	2024/08/16
Time	13:06:06.104549407958984375
***End_of_Header***	
	
Channels	6						
Samples	1	1	1	1	1	1	
Date	2024/09/19	2024/09/19	2024/09/19	2024/09/19	2024/09/19	2024/09/19	
Time	12:24:21.9235510826110839844	12:24:21.9315590858459472656	12:24:21.9376769065856933594	12:24:21.905521392822265625	12:24:21.905521392822265625	12:24:21.905521392822265625	
X_Dimension	Time	Time	Time	Time	Time	Time	
X0	0.0000000000000000E+0	0.0000000000000000E+0	0.0000000000000000E+0	0.0000000000000000E+0	0.0000000000000000E+0	0.0000000000000000E+0	
Delta_X	1.000000	1.000000	1.000000	1.000000	1.000000	1.000000	
***End_of_Header***							
X_Value	Untitled	Untitled 1	Untitled 2	Untitled 3	Untitled 4	Untitled 5	Comment
0.000000	0.013181	4.087900	0.053870	20.966191	0.001021	20.819215
1.004794	-3.021600	3.901100	-11.787000	20.956529	0.001022	20.794380
1.998287	-3.031400	3.893800	-11.803000	20.954212	0.001020	20.801545
3.002208	-3.010900	3.890300	-11.712000	20.979908	0.001019	20.821555
4.002070	-2.998000	3.885900	-11.649000	20.954782	0.001020	20.784097
5.000371	-3.008900	3.881900	-11.679000	20.977185	0.001017	20.807452
6.002937	-2.987400	3.878600	-11.586000	20.950261	0.001018	20.804232
7.010815	-3.000200	3.878000	-11.634000	20.967226	0.001015	20.791328
8.002638	-2.989300	3.873500	-11.577000	20.971168	0.001015	20.804279
9.004121	-3.008500	3.872700	-11.650000	20.963629	0.001013	20.791523
10.010180	-3.025500	3.868500	-11.703000	20.960310	0.001013	20.824240
11.001825	-3.010500	3.869000	-11.646000	20.974855	0.001011	20.809389
12.006558	-3.006800	3.866400	-11.624000	20.989450	0.001012	20.792218
13.006373	-3.015700	3.864700	-11.653000	20.991520	0.001011	20.802349
14.005789	-3.007200	3.864600	-11.620000	21.007988	0.001011	20.806966
15.005714	-2.988000	3.862100	-11.539000	20.989893	0.001010	20.789816
16.009417	-3.012600	3.862000	-11.633000	21.015468	0.001007	20.801645
17.011859	-3.005700	3.859500	-11.598000	21.001943	0.001008	20.800920
18.006498	-3.001500	3.859900	-11.585000	21.007180	0.001008	20.801891
19.008452	-2.993500	3.858500	-11.548000	21.010325	0.001008	20.809778
20.007996	-2.992900	3.857100	-11.543000	21.036073	0.001006	20.789538
21.009294	-3.013300	3.854600	-11.613000	21.020228	0.001007	20.802139
22.008854	-2.977100	3.855100	-11.476000	21.035423	0.001007	20.797896
23.010755	-2.993300	3.854700	-11.537000	21.050118	0.001004	20.799793
24.008118	-2.987700	3.853700	-11.511000	21.055355	0.001005	20.796496
25.025048	-3.003200	3.851700	-11.565000	21.052910	0.001005	20.796895
26.009415	-2.985200	3.852800	-11.500000	21.054682	0.001003	20.772115
27.010798	-2.998100	3.851300	-11.545000	21.083122	0.001000	20.790604
28.013769	-3.016100	3.850100	-11.610000	21.075664	0.001005	20.776507
29.020958	-2.979900	3.850600	-11.473000	21.088438	0.001005	20.780275
30.014167	-2.972600	3.851800	-11.447000	21.094300	0.001003	20.786139
31.019076	-3.009900	3.848300	-11.582000	21.117726	0.001003	20.779225
32.016174	-2.990900	3.847500	-11.506000	21.101956	0.001002	20.787633
33.009142	-2.980500	3.847800	-11.467000	21.099815	0.001004	20.807302
34.018876	-2.993700	3.847600	-11.517000	21.117798	0.001001	20.791624
35.013279	-3.014300	3.846100	-11.590000	21.115055	0.001003	20.798364
36.010900	-2.997300	3.846900	-11.528000	21.127206	0.001003	20.786811
37.014643	-2.995500	3.845700	-11.519000	21.126104	0.001004	20.776699
38.012916	-2.987000	3.846700	-11.487000	21.151326	0.001002	20.783437
39.012309	-2.995300	3.846000	-11.519000	21.148730	0.001002	20.771357
40.018554	-2.986100	3.845200	-11.481000	21.140771	0.001002	20.784732
41.017680	-3.007300	3.844600	-11.561000	21.160602	0.001002	20.777068
42.012374	-3.001000	3.843000	-11.533000	21.186198	0.001001	20.809311
43.010745	-2.981600	3.844000	-11.460000	21.184825	0.001003	20.805093
44.011892	-2.992900	3.842800	-11.499000	21.186895	0.001004	20.763541
45.009503	-2.997300	3.841400	-11.513000	21.202909	0.001002	20.787147
46.020030	-2.987700	3.842800	-11.480000	21.195697	0.001002	20.769501
47.017023	-3.001600	3.840400	-11.526000	21.210864	0.001001	20.786097
48.013965	-2.976400	3.843300	-11.438000	21.210840	0.000999	20.791287
49.015738	-2.988700	3.841200	-11.479000	21.228622	0.001003	20.773515
50.019322	-3.003100	3.839600	-11.530000	21.230617	0.001002	20.769346
51.014099	-3.017400	3.839500	-11.585000	21.214802	0.001002	20.775811
52.037160	-3.008100	3.839700	-11.547000	21.232687	0.001004	20.797495
53.020714	-2.995400	3.838600	-11.497000	21.235428	0.001003	20.770840
54.015852	-3.016500	3.837800	-11.576000	21.255357	0.001002	20.779872
55.020089	-3.000500	3.838800	-11.517000	21.244756	0.001001	20.765473
56.023911	-3.012600	3.837300	-11.559000	21.238669	0.001002	20.797316
57.018483	-2.990100	3.837600	-11.473000	21.251838	0.001002	20.786308
58.021609	-2.990200	3.836100	-11.470000	21.264908	0.001001	20.764296
59.022916	-3.009900	3.835100	-11.542000	21.274536	0.001002	20.774876
60.021955	-2.987300	3.836700	-11.460000	21.257322	0.001002	20.771880
61.023629	-3.030900	3.835500	-11.624000	21.284415	0.001003	20.773379
62.021235	-3.013300	3.835100	-11.555000	21.315618	0.001002	20.779940
63.023118	-3.019100	3.833800	-11.573000	21.301400	0.001001	20.751490
64.031833	-3.002300	3.834100	-11.510000	21.309206	0.001002	20.773051
65.026393	-3.012200	3.834200	-11.548000	21.329359	0.001001	20.774248
66.020582	-2.994800	3.835100	-11.485000	21.336397	0.001001	20.757106
67.023077	-2.997900	3.834000	-11.493000	21.366803	0.001001	20.784682
68.025041	-3.008500	3.832600	-11.529000	21.357222	0.001001	20.752337
69.025713	-3.008300	3.832600	-11.528000	21.372242	0.000998	20.761674
70.026513	-3.003800	3.832900	-11.512000	21.362287	0.001002	20.755507
71.024686	-2.991700	3.831800	-11.462000	21.396860	0.001002	20.771607
72.030127	-2.990000	3.833000	-11.459000	21.410532	0.001003	20.762526
73.023855	-3.010400	3.829800	-11.528000	21.421057	0.001002	20.773531
74.026782	-3.000500	3.830000	-11.490000	21.424399	0.001004	20.752218
75.026719	-3.015800	3.830300	-11.550000	21.444553	0.001002	20.770962
76.030735	-3.009400	3.831000	-11.528000	21.441536	0.001002	20.781220
77.022155	-3.001100	3.830400	-11.494000	21.433927	0.001003	20.760803
78.030291	-3.007000	3.828300	-11.510000	21.450314	0.001004	20.771036
79.027810	-2.993200	3.830000	-11.463000	21.476631	0.001001	20.770816
80.025469	-2.988900	3.829800	-11.446000	21.462638	0.001004	20.765349
81.023333	-2.977800	3.830100	-11.403000	21.489597	0.001002	20.756287
82.029386	-2.998500	3.828400	-11.478000	21.479100	0.001003	20.761432
83.024162	-3.009400	3.826700	-11.513000	21.531470	0.001004	20.741762
84.026617	-2.983200	3.827700	-11.417000	21.524963	0.001003	20.765123
85.027342	-3.014900	3.828200	-11.540000	21.517979	0.001005	20.755289
86.027730	-3.007600	3.828000	-11.512000	21.514163	0.001004	20.766645
87.026857	-3.004700	3.826500	-11.496000	21.526431	0.001002	20.739564
88.029684	-2.980900	3.828500	-11.411000	21.511940	0.001004	20.749721
89.027541	-3.022400	3.825700	-11.562000	21.550223	0.001004	20.725438
90.030456	-3.005400	3.825800	-11.496000	21.555760	0.001002	20.751369
91.027822	-2.998600	3.825400	-11.470000	21.558476	0.001006	20.739388
92.026339	-2.997800	3.825500	-11.466000	21.566532	0.001003	20.750294
93.029082	-3.011500	3.824800	-11.517000	21.576433	0.001004	20.765892
94.035327	-2.998200	3.824500	-11.466000	21.580347	0.001004	20.769335
95.028248	-3.020800	3.823600	-11.549000	21.605507	0.001004	20.744725
96.028832	-3.021500	3.822800	-11.549000	21.594435	0.001006	20.737439
97.033648	-2.987200	3.824500	-11.423000	21.609747	0.001005	20.750390
98.034372	-2.988100	3.824200	-11.425000	21.615956	0.001008	20.743802
99.029799	-2.993800	3.823100	-11.444000	21.634109	0.001007	20.741580
100.034356	-2.972900	3.826800	-11.375000	21.611044	0.001008	20.739360
101.033643	-2.996300	3.823500	-11.455000	21.635057	0.001005	20.763866
102.029053	-2.999300	3.823900	-11.467000	21.632413	0.001007	20.764064
103.028676	-3.020000	3.821500	-11.540000	21.641638	0.001006	20.757649
104.029307	-3.023500	3.821000	-11.552000	21.651662	0.001007	20.755827
105.029912	-2.982500	3.823500	-11.402000	21.666000	0.001010	20.745045
106.026903	-3.008200	3.821200	-11.493000	21.688715	0.001011	20.754026
107.031369	-2.981400	3.822800	-11.395000	21.681958	0.001009	20.756747
108.031734	-2.991400	3.822000	-11.432000	21.698714	0.001009	20.745067
109.029982	-2.992600	3.821000	-11.434000	21.701554	0.001009	20.767824
110.032367	-2.998800	3.821400	-11.459000	21.716343	0.001010	20.775987
111.035005	-3.003700	3.821300	-11.476000	21.733272	0.001010	20.788662
112.036462	-2.988000	3.821000	-11.415000	21.744042	0.001010	20.754396
113.031375	-3.002200	3.820100	-11.467000	21.738731	0.001012	20.751926
114.033670	-2.994700	3.820000	-11.439000	21.734291	0.001010	20.773087
115.031501	-3.004500	3.820200	-11.476000	21.750498	0.001012	20.764177
116.033159	-3.001700	3.819400	-11.464000	21.728454	0.001013	20.765823
117.030694	-2.996900	3.819700	-11.446000	21.741370	0.001012	20.747928
118.045613	-3.016100	3.817600	-11.513000	21.746529	0.001012	20.759256
119.030733	-3.006000	3.818600	-11.477000	21.762934	0.001011	20.741535
120.039002	-2.998700	3.818500	-11.449000	21.761987	0.001015	20.752915
121.039449	-3.010800	3.818600	-11.495000	21.776772	0.001016	20.741160
122.034446	-3.006400	3.816800	-11.473000	21.793078	0.001013	20.752265
123.032784	-3.013000	3.816900	-11.500000	21.811826	0.001014	20.747796
124.033857	-3.016600	3.816600	-11.513000	21.824342	0.001014	20.746098
125.032806	-2.996100	3.816800	-11.434000	21.828729	0.001015	20.762344
126.032311	-3.014500	3.817500	-11.507000	21.859392	0.001017	20.753679
127.033512	-2.998900	3.816300	-11.443000	21.854432	0.001017	20.766258
128.036535	-2.996200	3.817300	-11.437000	21.839344	0.001015	20.774391
129.038806	-2.999400	3.816900	-11.447000	21.883750	0.001016	20.757197
130.049020	-2.967500	3.817400	-11.327000	21.869015	0.001015	20.778484
131.039662	-2.993000	3.815800	-11.420000	21.874920	0.001016	20.761161
132.038149	-3.004300	3.814800	-11.459000	21.863947	0.001019	20.759187
133.036314	-3.014100	3.814300	-11.496000	21.891073	0.001017	20.755044
134.045194	-3.009600	3.815300	-11.482000	21.898500	0.001019	20.766746
135.037255	-3.015300	3.814400	-11.500000	21.907947	0.001019	20.768615
136.039323	-3.011000	3.815800	-11.488000	21.916223	0.001018	20.761252
137.041561	-2.997100	3.813400	-11.429000	21.920660	0.001019	20.742933
138.049940	-3.006500	3.812900	-11.463000	21.932673	0.001022	20.759700
139.042913	-2.978200	3.813800	-11.357000	21.925741	0.001019	20.750864
140.044106	-3.005800	3.812000	-11.456000	21.956329	0.001020	20.756827
141.039920	-3.016100	3.810400	-11.491000	21.940621	0.001019	20.775717
142.045958	-3.005600	3.812800	-11.459000	21.959568	0.001022	20.769553
143.043415	-2.991400	3.812500	-11.403000	21.970388	0.001021	20.768530
144.040460	-3.032700	3.810400	-11.555000	21.982948	0.001023	20.773043
145.040123	-3.011500	3.811700	-11.477000	22.021689	0.001022	20.793332
146.046737	-2.981300	3.812400	-11.365000	22.022234	0.001022	20.773015
147.042520	-3.000100	3.809900	-11.429000	22.029163	0.001022	20.786589
148.042274	-2.992400	3.812200	-11.407000	22.039233	0.001022	20.743564
149.044476	-2.982700	3.811300	-11.366000	22.020114	0.001023	20.769470
150.042943	-3.010100	3.810000	-11.467000	22.036191	0.001025	20.777503
151.043411	-3.008300	3.811200	-11.465000	22.049802	0.001022	20.778802
152.046399	-3.003200	3.810900	-11.443000	22.036061	0.001022	20.777848
153.042760	-3.005100	3.811100	-11.452000	22.042968	0.001024	20.779072
154.047678	-2.994200	3.810600	-11.409000	22.030876	0.001024	20.771235
155.050276	-2.991800	3.809300	-11.396000	22.059842	0.001026	20.766093
156.044432	-3.013300	3.808500	-11.475000	22.069161	0.001026	20.773051
157.049656	-2.973200	3.810100	-11.327000	22.049745	0.001028	20.789175
158.046887	-2.966800	3.811500	-11.306000	22.089152	0.001028	20.783582
159.049330	-2.986100	3.809600	-11.375000	22.111415	0.001027	20.783585
160.044633	-2.998500	3.808600	-11.418000	22.108347	0.001028	20.770556
161.051016	-2.995500	3.808800	-11.407000	22.103061	0.001029	20.801300
162.046005	-2.986300	3.808900	-11.374000	22.130103	0.001031	20.783329
163.044012	-3.026900	3.807600	-11.524000	22.123696	0.001031	20.788768
164.052607	-3.011600	3.806300	-11.462000	22.143067	0.001030	20.754581
165.046874	-3.024900	3.806000	-11.511000	22.135660	0.001030	20.781779
166.047235	-3.019400	3.805800	-11.491000	22.129528	0.001032	20.802193
167.047244	-2.995200	3.807300	-11.403000	22.154254	0.001032	20.792809
168.044566	-2.971000	3.807300	-11.310000	22.179776	0.001033	20.781851
169.052410	-3.002800	3.804900	-11.424000	22.192962	0.001032	20.786518
170.047014	-3.009700	3.804100	-11.448000	22.215517	0.001032	20.787290
171.047916	-3.008200	3.804500	-11.444000	22.203455	0.001033	20.760514
172.046033	-2.982300	3.805300	-11.346000	22.218658	0.001035	20.782375
173.051417	-2.990800	3.805100	-11.379000	22.221896	0.001035	20.787988
174.045675	-3.000100	3.806100	-11.418000	22.240343	0.001036	20.793656
175.050107	-3.011800	3.804300	-11.456000	22.252576	0.001035	20.796421
176.048550	-3.003700	3.803500	-11.423000	22.255420	0.001037	20.788837
177.047527	-2.973000	3.806200	-11.314000	22.282982	0.001037	20.782295
178.050158	-3.004000	3.803700	-11.425000	22.276752	0.001037	20.769893
179.053303	-3.014300	3.804100	-11.466000	22.275282	0.001038	20.791654
180.050442	-2.994300	3.804500	-11.390000	22.273462	0.001036	20.787935
181.049721	-3.018000	3.802800	-11.475000	22.284477	0.001038	20.771464
182.050487	-2.998600	3.802500	-11.400000	22.286793	0.001041	20.784214
183.052132	-2.996600	3.803300	-11.396000	22.316452	0.001040	20.776454
184.052178	-3.002300	3.803000	-11.417000	22.314904	0.001041	20.782017
185.056223	-2.991300	3.802500	-11.373000	22.327067	0.001039	20.801308
186.055396	-3.016000	3.802000	-11.465000	22.336711	0.001041	20.804801
187.057202	-2.999900	3.801200	-11.401000	22.326743	0.001041	20.788655
188.059997	-3.005900	3.803000	-11.429000	22.354231	0.001042	20.792947
189.059871	-2.985400	3.802100	-11.350000	22.371250	0.001041	20.795291
190.060354	-2.989600	3.801100	-11.363000	22.369108	0.001044	20.782714
191.054709	-2.997000	3.801500	-11.391000	22.382041	0.001043	20.799933
192.058260	-2.996700	3.801200	-11.388000	22.384134	0.001045	20.804399
193.055259	-2.984000	3.801400	-11.343000	22.395175	0.001044	20.800283
194.059323	-2.996900	3.801500	-11.391000	22.400433	0.001044	20.801755
195.058053	-3.005600	3.798700	-11.415000	22.395445	0.001046	20.800079
196.057250	-3.000600	3.799300	-11.399000	22.433822	0.001046	20.788250
197.061937	-3.017800	3.798300	-11.459000	22.435741	0.001045	20.815302
198.060967	-2.985000	3.798600	-11.338000	22.459759	0.001045	20.799051
199.057162	-3.003500	3.799000	-11.409000	22.445805	0.001047	20.809733
200.058433	-2.990100	3.798100	-11.355000	22.441269	0.001047	20.800449
201.064606	-2.979000	3.799900	-11.318000	22.475031	0.001046	20.781155
202.057762	-3.013500	3.796000	-11.437000	22.473688	0.001048	20.803517
203.059015	-2.994200	3.797200	-11.368000	22.485497	0.001049	20.799222
204.063967	-2.998100	3.798400	-11.387000	22.488759	0.001049	20.818610
205.058491	-2.992300	3.796800	-11.360000	22.505927	0.001050	20.785544
206.063908	-2.978500	3.798400	-11.313000	22.485246	0.001048	20.801816
207.061485	-3.022800	3.795400	-11.471000	22.480534	0.001048	20.796623
208.066180	-2.993800	3.797700	-11.368000	22.505005	0.001050	20.802164
209.061765	-3.007800	3.795000	-11.414000	22.515619	0.001051	20.809000
210.060641	-2.998200	3.796600	-11.382000	22.513747	0.001051	20.806652
211.063518	-3.029900	3.794200	-11.495000	22.508985	0.001051	20.825116
212.066747	-3.018600	3.795000	-11.454000	22.502184	0.001051	20.817830
213.062099	-3.002100	3.796000	-11.395000	22.538688	0.001050	20.803655
214.064841	-2.993800	3.794600	-11.359000	22.557400	0.001053	20.799162
215.065291	-2.990200	3.795100	-11.348000	22.549525	0.001054	20.800284
216.065532	-2.997300	3.793800	-11.370000	22.556879	0.001053	20.814288
217.062999	-2.977900	3.794500	-11.299000	22.535622	0.001056	20.811016
218.063501	-2.991000	3.794000	-11.347000	22.563802	0.001055	20.834971
219.065018	-2.997500	3.792800	-11.366000	22.561660	0.001056	20.810542
220.065979	-3.000500	3.792800	-11.380000	22.572871	0.001055	20.809442
221.064584	-3.000500	3.792900	-11.379000	22.591535	0.001055	20.806324
222.066659	-2.991400	3.793500	-11.347000	22.597337	0.001057	20.812609
223.067607	-2.999100	3.793500	-11.376000	22.583609	0.001057	20.804549
224.070654	-2.997300	3.793200	-11.368000	22.594965	0.001060	20.799328
225.066511	-3.003100	3.792900	-11.389000	22.607375	0.001059	20.814129
226.068311	-3.012800	3.790900	-11.419000	22.608895	0.001058	20.813754
227.069927	-3.006700	3.790100	-11.395000	22.605105	0.001058	20.824656
228.068515	-2.993200	3.792500	-11.350000	22.616467	0.001057	20.837932
229.069862	-2.985300	3.791200	-11.317000	22.623243	0.001062	20.838555
230.074156	-2.966000	3.793200	-11.249000	22.628101	0.001060	20.809757
231.070820	-3.022200	3.788700	-11.450000	22.622467	0.001060	20.826399
232.070294	-3.002000	3.789500	-11.374000	22.631313	0.001061	20.817715
233.072489	-2.993200	3.790100	-11.344000	22.669332	0.001062	20.834933
234.071151	-2.979800	3.790800	-11.295000	22.671226	0.001061	20.834459
235.070124	-3.012400	3.789600	-11.414000	22.682736	0.001063	20.818487
236.075861	-2.995200	3.789700	-11.348000	22.667414	0.001063	20.815469
237.073431	-2.987900	3.790300	-11.324000	22.703638	0.001064	20.832786
238.071547	-3.015800	3.787800	-11.423000	22.719633	0.001064	20.833161
239.075865	-2.993300	3.789000	-11.341000	22.717817	0.001065	20.821384
240.085214	-3.026600	3.788300	-11.464000	22.700250	0.001066	20.817065
241.076299	-2.990200	3.788500	-11.326000	22.724392	0.001065	20.824177
242.079213	-3.015400	3.787800	-11.421000	22.739712	0.001066	20.848532
243.078061	-3.003700	3.787200	-11.374000	22.743127	0.001068	20.854797
244.084565	-2.996000	3.787600	-11.346000	22.762061	0.001066	20.837729
245.085740	-3.005200	3.785500	-11.376000	22.776834	0.001068	20.832612
246.083690	-2.986400	3.786000	-11.305000	22.773694	0.001067	20.838002
247.086995	-2.995900	3.787700	-11.346000	22.785078	0.001068	20.830914
248.079066	-2.989500	3.787400	-11.321000	22.808645	0.001068	20.845039
249.084443	-3.006500	3.785300	-11.379000	22.800847	0.001070	20.837227
250.091248	-3.010200	3.784900	-11.392000	22.818632	0.001069	20.827543
251.086478	-3.012600	3.784000	-11.398000	22.830839	0.001070	20.835504
252.081492	-3.004500	3.785400	-11.372000	22.795489	0.001072	20.840869
253.081498	-3.007200	3.784300	-11.380000	22.827798	0.001072	20.850001
254.082218	-2.979000	3.785500	-11.276000	22.819155	0.001073	20.827593
255.086139	-2.996900	3.783600	-11.338000	22.835845	0.001073	20.837674
256.082914	-3.021700	3.783400	-11.431000	22.802162	0.001072	20.849924
257.082439	-2.998500	3.782900	-11.340000	22.816907	0.001073	20.841936
258.078874	-3.002900	3.782400	-11.357000	22.818278	0.001076	20.846628
259.080621	-3.002600	3.783600	-11.359000	22.808712	0.001075	20.818554
260.087150	-2.987900	3.784500	-11.306000	22.829335	0.001075	20.838264
261.081606	-3.002300	3.781800	-11.352000	22.822287	0.001076	20.839265
262.083043	-3.010300	3.780900	-11.380000	22.850011	0.001076	20.849969
263.082990	-3.003800	3.782600	-11.361000	22.836335	0.001077	20.861872
264.090412	-3.013200	3.780200	-11.390000	22.879802	0.001077	20.849941
265.087493	-2.999300	3.782400	-11.343000	22.878830	0.001075	20.835218
266.091518	-3.024800	3.780000	-11.432000	22.900723	0.001078	20.856202
267.086341	-3.007300	3.781600	-11.372000	22.879053	0.001080	20.840657
268.082142	-3.025000	3.779900	-11.433000	22.861737	0.001080	20.814776
269.088645	-3.005300	3.780200	-11.359000	22.893797	0.001079	20.855901
270.094459	-2.989200	3.781300	-11.301000	22.870680	0.001081	20.858821
271.089150	-3.015200	3.779400	-11.394000	22.912354	0.001082	20.860742
272.083985	-2.984500	3.781100	-11.283000	22.941521	0.001079	20.857247
273.093362	-3.003400	3.779000	-11.349000	22.922117	0.001082	20.850609
274.086402	-3.014600	3.777800	-11.388000	22.930487	0.001081	20.852831
275.092477	-2.991700	3.779400	-11.305000	22.918055	0.001084	20.834687
276.088058	-2.995400	3.778100	-11.315000	22.935643	0.001083	20.857048
277.096528	-2.972000	3.780200	-11.234000	22.923537	0.001082	20.857247
278.100330	-3.014800	3.776800	-11.386000	22.934320	0.001083	20.860464
279.091719	-2.990800	3.778000	-11.298000	22.921443	0.001082	20.880752
280.085639	-2.991300	3.776500	-11.296000	22.946677	0.001083	20.864309
281.085159	-2.995400	3.777300	-11.313000	22.971286	0.001085	20.852456
282.088223	-3.006000	3.775900	-11.350000	22.978710	0.001085	20.880280
283.085046	-3.001600	3.776000	-11.333000	22.970590	0.001087	20.859344
284.085457	-2.983300	3.776300	-11.264000	22.965461	0.001086	20.873171
285.084467	-2.982600	3.776100	-11.262000	22.962173	0.001085	20.874618
286.085431	-3.015200	3.775100	-11.380000	22.957914	0.001088	20.867506
287.095149	-2.989200	3.776500	-11.288000	22.987459	0.001087	20.869607
288.089060	-2.989400	3.775400	-11.286000	22.966784	0.001087	20.873074
289.086591	-2.997600	3.774300	-11.312000	22.985095	0.001087	20.863446
290.090267	-2.990700	3.775100	-11.289000	22.989379	0.001087	20.863470
291.092499	-2.980800	3.776700	-11.257000	23.013492	0.001089	20.860603
292.094078	-3.014400	3.773100	-11.372000	22.986768	0.001088	20.870811
293.099548	-3.024400	3.771900	-11.407000	22.990284	0.001088	20.865325
294.091339	-2.993100	3.774100	-11.295000	22.988765	0.001090	20.874708
295.092399	-3.018200	3.773200	-11.386000	23.004186	0.001088	20.868823
296.092711	-3.015100	3.772700	-11.373000	22.988173	0.001091	20.865107
297.092198	-3.022700	3.772900	-11.403000	23.012561	0.001090	20.878636
298.095750	-3.001800	3.773200	-11.326000	23.014206	0.001089	20.858948
299.099461	-2.993100	3.772200	-11.289000	23.017799	0.001091	20.889573
300.093611	-2.978400	3.773200	-11.237000	23.024972	0.001091	20.866890
301.091892	-3.000100	3.772400	-11.316000	23.054344	0.001089	20.864077
302.095924	-3.027100	3.769900	-11.411000	23.069811	0.001093	20.884316
303.095333	-3.019200	3.771800	-11.386000	23.095890	0.001090	20.851179
304.095222	-2.986200	3.771800	-11.261000	23.118184	0.001092	20.861665
305.094532	-3.016400	3.770600	-11.372000	23.115972	0.001094	20.882681
306.094854	-3.025400	3.770500	-11.407000	23.131912	0.001094	20.855507
307.096648	-3.033200	3.769400	-11.431000	23.130201	0.001095	20.874653
308.095479	-3.010100	3.769000	-11.343000	23.140715	0.001094	20.875232
309.095423	-3.002900	3.769000	-11.317000	23.176230	0.001094	20.880949
310.098152	-3.037600	3.766600	-11.440000	23.136264	0.001095	20.879780
311.096426	-3.020000	3.767400	-11.376000	23.141100	0.001095	20.879885
312.100512	-2.996100	3.768800	-11.291000	23.146907	0.001096	20.882385
313.101068	-2.987600	3.767100	-11.254000	23.174029	0.001098	20.862623
314.097838	-2.985000	3.766900	-11.244000	23.155831	0.001098	20.889430
315.102841	-3.001200	3.768200	-11.308000	23.139895	0.001099	20.866824
316.097285	-2.988100	3.767500	-11.257000	23.157782	0.001098	20.872894
317.104372	-2.993000	3.766600	-11.271000	23.156786	0.001100	20.859569
318.097685	-2.997200	3.766200	-11.286000	23.168199	0.001096	20.881436
319.100022	-2.996600	3.766100	-11.284000	23.205857	0.001099	20.880292
320.103049	-2.992200	3.765400	-11.265000	23.206036	0.001098	20.866248
321.100542	-3.010900	3.764500	-11.333000	23.213535	0.001099	20.865702
322.100876	-2.997700	3.766000	-11.289000	23.252087	0.001099	20.884421
323.103524	-2.987200	3.766000	-11.249000	23.238397	0.001100	20.888245
324.104558	-3.013600	3.765300	-11.347000	23.241337	0.001102	20.868908
325.102284	-2.995600	3.765500	-11.279000	23.235016	0.001100	20.872056
326.106122	-3.013700	3.765300	-11.345000	23.252404	0.001102	20.888057
327.107127	-2.996400	3.764900	-11.280000	23.256915	0.001100	20.882148
328.103850	-2.997900	3.765200	-11.286000	23.278811	0.001101	20.884651
329.105901	-3.000100	3.763000	-11.288000	23.280332	0.001102	20.874322
330.105326	-2.990500	3.762600	-11.252000	23.270155	0.001104	20.890200
331.113569	-2.987500	3.764500	-11.244000	23.278228	0.001104	20.878377
332.105391	-2.996400	3.763800	-11.277000	23.293420	0.001105	20.885067
333.104780	-2.993500	3.764200	-11.268000	23.279034	0.001106	20.881082
334.105806	-3.023000	3.762600	-11.374000	23.284715	0.001105	20.893886
335.106980	-3.003800	3.764000	-11.304000	23.296474	0.001104	20.870585
336.113356	-2.999000	3.761700	-11.279000	23.302284	0.001108	20.865028
337.107919	-3.000400	3.761500	-11.284000	23.332989	0.001104	20.884895
338.124570	-3.001900	3.761800	-11.291000	23.349077	0.001106	20.860243
339.109759	-2.994300	3.760700	-11.260000	23.326151	0.001107	20.874724
340.109223	-2.978600	3.761500	-11.202000	23.323340	0.001105	20.874751
341.108935	-3.000400	3.760100	-11.281000	23.316698	0.001108	20.871414
342.110521	-3.003000	3.759600	-11.289000	23.357016	0.001108	20.883846
343.109033	-3.019800	3.759800	-11.353000	23.345244	0.001108	20.866833
344.112432	-3.014600	3.759400	-11.332000	23.383492	0.001107	20.871029
345.112097	-3.004900	3.758800	-11.294000	23.392861	0.001108	20.875676
346.110795	-3.005400	3.759700	-11.298000	23.423566	0.001108	20.890330
347.111856	-3.016500	3.758700	-11.336000	23.411693	0.001109	20.868948
348.111287	-3.009300	3.757200	-11.306000	23.392004	0.001111	20.892360
349.113244	-3.010400	3.757300	-11.309000	23.402519	0.001110	20.893890
350.112473	-2.993400	3.758600	-11.250000	23.433469	0.001109	20.886032
351.113842	-2.995200	3.758300	-11.255000	23.447391	0.001111	20.881021
352.113614	-3.005300	3.756700	-11.289000	23.434325	0.001112	20.877882
353.116306	-2.991000	3.756700	-11.236000	23.428231	0.001112	20.880308
354.114603	-2.988200	3.756000	-11.222000	23.417456	0.001113	20.881361
355.115412	-3.003700	3.755000	-11.277000	23.402398	0.001114	20.872907
356.117344	-2.988200	3.755300	-11.221000	23.373568	0.001112	20.881469
357.117014	-3.001300	3.756400	-11.272000	23.375936	0.001112	20.871042
358.117087	-2.984700	3.755100	-11.207000	23.356123	0.001113	20.881054
359.116385	-2.992500	3.755600	-11.237000	23.382491	0.001114	20.884723
360.117620	-2.989400	3.755100	-11.225000	23.388793	0.001116	20.875392
361.117581	-2.987900	3.754400	-11.216000	23.426595	0.001116	20.866341
362.119674	-2.999100	3.753400	-11.256000	23.442110	0.001116	20.860555
363.119531	-2.999900	3.752000	-11.255000	23.470495	0.001115	20.861506
364.120119	-3.016600	3.751800	-11.317000	23.466065	0.001116	20.853747
365.122190	-3.006700	3.752700	-11.282000	23.492586	0.001118	20.869898
366.122718	-3.001400	3.751900	-11.260000	23.487481	0.001119	20.865256
367.122231	-2.986900	3.752700	-11.208000	23.494153	0.001118	20.883322
368.121647	-2.991600	3.751700	-11.223000	23.494057	0.001119	20.857149
369.121642	-3.018600	3.751000	-11.321000	23.480788	0.001118	20.852857
370.121327	-3.012600	3.750200	-11.297000	23.476336	0.001122	20.852188
371.121666	-2.999600	3.752100	-11.254000	23.508477	0.001118	20.847896
372.123670	-2.999400	3.749900	-11.246000	23.504943	0.001121	20.839613
373.125655	-3.013200	3.749000	-11.295000	23.537083	0.001119	20.848122
374.124882	-2.982500	3.749800	-11.183000	23.560737	0.001118	20.827263
375.126559	-2.994400	3.748700	-11.224000	23.584436	0.001121	20.832528
376.127110	-3.000900	3.749300	-11.250000	23.570648	0.001120	20.872284
377.126168	-3.015200	3.748600	-11.301000	23.586405	0.001120	20.852994
378.125498	-3.004800	3.747700	-11.259000	23.576624	0.001122	20.857887
379.127049	-2.998400	3.748000	-11.237000	23.583097	0.001123	20.835454
380.127054	-2.988900	3.748500	-11.203000	23.599955	0.001121	20.844766
381.126476	-2.976800	3.749700	-11.160000	23.573767	0.001125	20.824679
382.128597	-2.987100	3.747200	-11.191000	23.571402	0.001124	20.838903
383.129014	-2.980200	3.747400	-11.167000	23.596499	0.001124	20.852681
384.127524	-2.965300	3.748600	-11.115000	23.602873	0.001124	20.842476
385.128837	-2.994400	3.746800	-11.218000	23.622117	0.001126	20.839483
386.128493	-3.010800	3.745400	-11.276000	23.631876	0.001124	20.832197
387.128807	-2.991900	3.746000	-11.206000	23.656121	0.001125	20.835640
388.128061	-2.993300	3.746900	-11.215000	23.678177	0.001125	20.830251
389.128793	-3.008000	3.745600	-11.265000	23.681889	0.001125	20.844878
390.130774	-2.991700	3.745700	-11.205000	23.685948	0.001125	20.837568
391.130475	-3.005100	3.744700	-11.252000	23.711536	0.001126	20.869384
392.131100	-3.015800	3.744700	-11.292000	23.703846	0.001125	20.824691
393.132210	-3.012400	3.744400	-11.278000	23.704371	0.001126	20.836124
394.133346	-3.000500	3.744700	-11.235000	23.702603	0.001128	20.826291
395.131431	-2.994600	3.743500	-11.209000	23.708454	0.001129	20.843536
396.133049	-2.972100	3.744200	-11.126000	23.687197	0.001127	20.817009
397.133049	-2.996700	3.743200	-11.215000	23.674155	0.001127	20.841866
398.132192	-2.994500	3.742300	-11.206000	23.675225	0.001128	20.824447
399.133255	-3.008900	3.742800	-11.261000	23.678959	0.001129	20.848578
400.133903	-2.983600	3.741300	-11.161000	23.685209	0.001129	20.817387
401.135728	-3.007800	3.743200	-11.258000	23.680826	0.001129	20.824846
402.132589	-2.978500	3.743200	-11.148000	23.676498	0.001130	20.832362
403.134064	-2.994200	3.741600	-11.202000	23.671293	0.001129	20.835677
404.133235	-2.989500	3.740400	-11.180000	23.642495	0.001129	20.821032
405.133963	-3.010000	3.739700	-11.256000	23.644062	0.001128	20.835879
406.133739	-3.000900	3.739500	-11.221000	23.664919	0.001128	20.838296
407.136595	-3.005100	3.738700	-11.234000	23.670418	0.001129	20.810619
408.133777	-3.004600	3.739000	-11.233000	23.651775	0.001128	20.817059
409.133845	-2.973300	3.740000	-11.119000	23.649759	0.001128	20.841590
410.135405	-3.009700	3.738300	-11.250000	23.675945	0.001128	20.818531
411.135110	-3.006600	3.738400	-11.238000	23.656752	0.001130	20.831057
412.134894	-3.016200	3.737900	-11.273000	23.608534	0.001130	20.812590
413.136244	-2.988300	3.737600	-11.167000	23.608982	0.001130	20.821574
414.138301	-2.991300	3.738000	-11.180000	23.620302	0.001133	20.827233
415.135241	-2.992900	3.737100	-11.184000	23.641042	0.001132	20.810092
416.139690	-2.975300	3.737800	-11.119000	23.641162	0.001132	20.814954
417.134367	-2.978000	3.737300	-11.128000	23.647385	0.001130	20.819770
418.135134	-2.984200	3.736300	-11.148000	23.687237	0.001133	20.830799
419.134726	-2.990400	3.736000	-11.171000	23.702046	0.001131	20.822888
420.136337	-3.002200	3.736300	-11.215000	23.713669	0.001132	20.805143
421.135218	-2.982600	3.736300	-11.143000	23.739627	0.001133	20.809832
422.139423	-2.981700	3.734600	-11.134000	23.766757	0.001132	20.825652
423.136657	-2.989200	3.733700	-11.160000	23.782236	0.001133	20.792335
424.136822	-3.012600	3.732300	-11.242000	23.770364	0.001132	20.800346
425.137195	-2.996100	3.734100	-11.185000	23.761026	0.001133	20.804260
426.137575	-3.018700	3.733000	-11.266000	23.767749	0.001134	20.828069
427.137494	-3.002500	3.733200	-11.208000	23.790220	0.001133	20.818357
428.138075	-2.993500	3.732300	-11.171000	23.779318	0.001133	20.827341
429.139224	-3.026900	3.732400	-11.296000	23.801940	0.001131	20.815410
430.138066	-3.009500	3.731500	-11.229000	23.808833	0.001134	20.824217
431.136250	-3.005600	3.732000	-11.216000	23.833175	0.001133	20.795520
432.137091	-3.008100	3.731700	-11.224000	23.844769	0.001132	20.792920
433.138414	-3.020800	3.729500	-11.265000	23.826969	0.001134	20.812057
434.140498	-3.017500	3.730400	-11.256000	23.817289	0.001133	20.827006
435.138402	-3.021700	3.729500	-11.267000	23.790356	0.001133	20.804269
436.140858	-3.004200	3.730400	-11.207000	23.806629	0.001133	20.813473
437.138665	-2.995500	3.729900	-11.172000	23.797866	0.001133	20.798049
438.140643	-2.983400	3.730600	-11.129000	23.817403	0.001134	20.817164
439.139596	-2.981200	3.729200	-11.117000	23.809188	0.001134	20.791383
440.139159	-2.986200	3.729100	-11.135000	23.822179	0.001134	20.806305
441.140359	-3.018900	3.728300	-11.254000	23.803538	0.001133	20.808003
442.139308	-2.997200	3.728700	-11.175000	23.802466	0.001133	20.808350
443.141249	-3.003900	3.728500	-11.199000	23.795245	0.001133	20.830982
444.139873	-2.994100	3.729100	-11.164000	23.774911	0.001134	20.786412
445.145427	-2.979300	3.727200	-11.103000	23.793774	0.001135	20.827611
446.140382	-3.035200	3.726000	-11.307000	23.808134	0.001134	20.805025
447.142053	-2.996900	3.726900	-11.168000	23.833797	0.001134	20.819377
448.141115	-3.011100	3.725700	-11.218000	23.867096	0.001136	20.808195
449.141595	-2.988100	3.726800	-11.135000	23.862862	0.001133	20.806795
450.147510	-3.002500	3.726500	-11.187000	23.888297	0.001135	20.802428
451.141688	-2.994900	3.726200	-11.158000	23.924732	0.001135	20.796289
452.142743	-2.990400	3.726300	-11.142000	23.928190	0.001133	20.810662
453.139747	-2.980100	3.725700	-11.101000	23.944838	0.001136	20.798908
454.142914	-2.976800	3.724800	-11.087000	23.914725	0.001135	20.813281
455.141127	-2.993900	3.723600	-11.146000	23.896256	0.001136	20.803296
456.140642	-3.007000	3.722400	-11.192000	23.918081	0.001137	20.814750
457.143679	-2.986600	3.723700	-11.120000	23.954564	0.001135	20.805341
458.148751	-2.986800	3.724100	-11.122000	23.964740	0.001136	20.809382
459.139963	-2.990000	3.723500	-11.130000	23.955655	0.001137	20.801694
460.140894	-3.003000	3.722300	-11.177000	23.951647	0.001135	20.805261
461.140991	-2.970200	3.722900	-11.056000	23.949931	0.001135	20.796903
462.141030	-2.998800	3.723800	-11.166000	23.937978	0.001136	20.808149
463.144077	-3.011300	3.721500	-11.206000	23.936092	0.001136	20.801517
464.139936	-3.018500	3.722000	-11.232000	23.907991	0.001135	20.801787
465.140534	-3.003900	3.722200	-11.180000	23.884697	0.001137	20.816362
466.141532	-3.018200	3.720500	-11.228000	23.884796	0.001135	20.805555
467.141373	-3.003400	3.720500	-11.173000	23.889175	0.001135	20.817533
468.142564	-2.969000	3.720100	-11.045000	23.906124	0.001137	20.798019
469.143030	-2.987700	3.720000	-11.113000	23.935712	0.001135	20.805404
470.142353	-3.008300	3.717400	-11.183000	23.918839	0.001135	20.827837
471.142416	-3.009100	3.719400	-11.191000	23.931380	0.001136	20.806749
472.142211	-2.999000	3.718800	-11.152000	23.914533	0.001135	20.784640
473.143241	-2.993000	3.718500	-11.127000	23.933818	0.001136	20.791176
474.143909	-2.999200	3.718600	-11.151000	23.933868	0.001136	20.792648
475.142651	-3.002400	3.717400	-11.159000	23.958056	0.001136	20.813585
476.144111	-3.026800	3.717700	-11.251000	23.982523	0.001137	20.785963
477.144295	-3.023300	3.715800	-11.233000	24.008601	0.001137	20.810219
478.144843	-3.000900	3.715900	-11.150000	23.986327	0.001136	20.814908
479.147474	-2.980900	3.716700	-11.077000	23.987745	0.001136	20.806848
480.144124	-3.013200	3.715800	-11.195000	23.965201	0.001138	20.785663
481.143895	-2.991800	3.715800	-11.116000	23.940611	0.001139	20.771909
482.147579	-2.976200	3.717200	-11.061000	23.960244	0.001139	20.793968
483.146107	-3.015700	3.714100	-11.199000	23.979831	0.001137	20.805075
484.146252	-2.982500	3.715000	-11.077000	24.001256	0.001139	20.776300
485.147247	-3.006100	3.715100	-11.166000	24.028354	0.001138	20.791148
486.148496	-3.013300	3.714600	-11.192000	24.044380	0.001136	20.784934
487.147006	-2.995700	3.714100	-11.125000	24.031784	0.001138	20.780363
488.150052	-3.003800	3.714300	-11.156000	24.055004	0.001139	20.788951
489.147187	-2.994000	3.712700	-11.114000	24.056397	0.001138	20.800780
490.146238	-3.018300	3.712100	-11.203000	24.082295	0.001138	20.793562
491.146495	-3.010700	3.713300	-11.179000	24.077221	0.001138	20.799853
492.148320	-2.986200	3.712700	-11.084000	24.097498	0.001139	20.794111
493.148087	-2.986400	3.711800	-11.083000	24.094214	0.001139	20.785127
494.155148	-3.000800	3.712200	-11.139000	24.095357	0.001140	20.781058
495.150399	-2.993400	3.711100	-11.107000	24.076001	0.001139	20.811906
496.151461	-3.016400	3.710300	-11.191000	24.072889	0.001137	20.784603
497.150405	-2.982400	3.711600	-11.069000	24.098320	0.001138	20.790668
498.150713	-2.996800	3.709500	-11.116000	24.110835	0.001138	20.793736
499.149078	-3.002600	3.710200	-11.139000	24.124495	0.001138	20.779462
500.154062	-3.015100	3.709700	-11.184000	24.151937	0.001137	20.779483
501.151681	-2.998300	3.709400	-11.121000	24.163755	0.001139	20.797501
502.151906	-3.030200	3.707300	-11.233000	24.129071	0.001138	20.791164
503.150424	-3.016400	3.707100	-11.182000	24.139472	0.001138	20.793535
504.150116	-2.995800	3.708800	-11.111000	24.149125	0.001138	20.778560
505.151792	-3.017500	3.706900	-11.184000	24.151464	0.001139	20.766207
506.154508	-2.997100	3.707800	-11.111000	24.178608	0.001137	20.799122
507.151927	-3.004700	3.706500	-11.136000	24.170645	0.001138	20.794929
508.151327	-3.010500	3.707700	-11.161000	24.208662	0.001138	20.795128
509.155969	-3.008100	3.706100	-11.147000	24.220331	0.001137	20.788341
510.152047	-2.993400	3.707200	-11.096000	24.205328	0.001136	20.777559
511.152329	-2.988100	3.706600	-11.075000	24.251203	0.001139	20.774736
512.155159	-2.992200	3.705000	-11.085000	24.216546	0.001136	20.812994
513.156535	-2.996700	3.705300	-11.102000	24.224780	0.001136	20.795648
514.152300	-2.988600	3.705100	-11.072000	24.232242	0.001137	20.787011
515.157989	-2.986300	3.705500	-11.065000	24.240105	0.001136	20.790157
516.157955	-3.004000	3.703700	-11.125000	24.245530	0.001137	20.773788
517.154082	-2.994300	3.703700	-11.089000	24.246522	0.001137	20.800861
518.163027	-3.001400	3.703100	-11.113000	24.221471	0.001137	20.779053
519.155142	-2.987900	3.705000	-11.069000	24.193426	0.001137	20.780795
520.152239	-2.971400	3.703000	-11.001000	24.183827	0.001137	20.773537
521.155565	-2.981700	3.702100	-11.037000	24.203928	0.001137	20.773785
522.157892	-2.989800	3.704700	-11.075000	24.210744	0.001138	20.785837
523.154259	-2.999100	3.701500	-11.100000	24.224780	0.001137	20.773363
524.156147	-2.996200	3.701600	-11.090000	24.241844	0.001135	20.772461
525.155313	-3.014400	3.700200	-11.152000	24.205495	0.001139	20.791003
526.154561	-2.992200	3.700700	-11.073000	24.170513	0.001137	20.794796
527.157913	-3.000500	3.699500	-11.099000	24.154069	0.001135	20.753646
528.159023	-2.993900	3.701600	-11.081000	24.121872	0.001136	20.768296
529.156416	-2.993300	3.700200	-11.075000	24.134634	0.001137	20.772560
530.161510	-2.997700	3.699600	-11.088000	24.099773	0.001137	20.761779
531.157493	-2.997600	3.699300	-11.088000	24.098432	0.001135	20.772288
532.154611	-3.010500	3.698900	-11.135000	24.115995	0.001136	20.759557
533.158089	-3.002200	3.698600	-11.103000	24.128834	0.001135	20.793771
534.159094	-3.016200	3.697600	-11.151000	24.105644	0.001138	20.777150
535.155119	-2.997900	3.699200	-11.089000	24.156204	0.001138	20.783290
536.157541	-2.989900	3.698800	-11.056000	24.174489	0.001137	20.766068
537.158815	-2.985400	3.698400	-11.040000	24.210590	0.001137	20.763871
538.157953	-2.999900	3.697300	-11.090000	24.198797	0.001136	20.779543
539.156518	-3.015100	3.697000	-11.146000	24.260719	0.001137	20.772427
540.160071	-3.013500	3.696600	-11.138000	24.262010	0.001135	20.753334
541.160030	-2.999700	3.697200	-11.089000	24.239395	0.001136	20.769056
542.158275	-3.007900	3.695100	-11.113000	24.241783	0.001137	20.755330
543.160146	-3.004300	3.694600	-11.099000	24.230111	0.001136	20.762588
544.159779	-3.001800	3.694400	-11.089000	24.217496	0.001134	20.767004
545.160474	-2.985900	3.694900	-11.031000	24.196996	0.001135	20.768727
546.160780	-2.977600	3.694200	-10.999000	24.184328	0.001135	20.783048
547.159616	-2.988100	3.694700	-11.039000	24.187983	0.001137	20.763007
548.159981	-3.002700	3.693100	-11.088000	24.217440	0.001136	20.758888
549.162098	-2.985100	3.693800	-11.025000	24.234782	0.001135	20.765378
550.159819	-2.993400	3.693700	-11.055000	24.226468	0.001135	20.767944
551.160957	-2.983800	3.693200	-11.018000	24.237739	0.001137	20.773559
552.162395	-3.032900	3.692600	-11.198000	24.253787	0.001137	20.756939
553.161945	-3.026200	3.691300	-11.169000	24.260448	0.001136	20.765043
554.164218	-2.990000	3.692300	-11.039000	24.243258	0.001139	20.769611
555.164071	-2.980600	3.691300	-11.001000	24.266840	0.001135	20.754860
556.164265	-3.005600	3.690500	-11.092000	24.302539	0.001134	20.763168
557.162934	-3.003300	3.691300	-11.085000	24.307118	0.001137	20.754485
558.166780	-3.016400	3.689200	-11.127000	24.305820	0.001135	20.752235
559.166248	-3.010400	3.689500	-11.104000	24.313405	0.001134	20.761740
560.169595	-2.994500	3.689500	-11.048000	24.313751	0.001134	20.753078
561.169745	-3.025400	3.688500	-11.158000	24.313331	0.001134	20.760243
562.169466	-3.007000	3.689500	-11.092000	24.326041	0.001135	20.757346
563.168707	-2.993000	3.688500	-11.038000	24.328126	0.001132	20.748058
564.172958	-3.008800	3.686800	-11.091000	24.358250	0.001136	20.762156
565.169436	-2.991300	3.687200	-11.028000	24.367326	0.001135	20.759881
566.171418	-2.996000	3.686900	-11.045000	24.402203	0.001134	20.765472
567.174160	-3.000000	3.686200	-11.058000	24.404097	0.001133	20.772588
568.170557	-2.987100	3.687900	-11.014000	24.404292	0.001134	20.751446
569.174873	-2.990700	3.687600	-11.027000	24.422601	0.001133	20.759857
570.173313	-2.983600	3.687300	-11.000000	24.440928	0.001135	20.758803
571.168115	-3.011700	3.685600	-11.100000	24.468244	0.001134	20.752543
572.169987	-3.008200	3.684600	-11.082000	24.480056	0.001132	20.765817
573.171612	-3.001400	3.684500	-11.059000	24.478262	0.001133	20.764964
574.172809	-2.977100	3.685900	-10.971000	24.506296	0.001131	20.752314
575.169231	-2.992600	3.685500	-11.028000	24.497141	0.001133	20.746447
576.175358	-2.990600	3.684700	-11.019000	24.464507	0.001133	20.763492
577.175682	-2.988400	3.684200	-11.009000	24.458014	0.001131	20.759349
578.170000	-3.013400	3.681800	-11.093000	24.446748	0.001132	20.750891
579.177167	-3.006200	3.683600	-11.073000	24.429286	0.001131	20.758977
580.175678	-2.986900	3.683600	-11.002000	24.407869	0.001132	20.771631
581.172650	-3.002200	3.682600	-11.055000	24.401552	0.001131	20.760077
582.177764	-3.002300	3.681500	-11.052000	24.358291	0.001131	20.751291
583.182566	-3.009100	3.680800	-11.075000	24.360654	0.001131	20.753662
584.173810	-3.018700	3.680800	-11.109000	24.356202	0.001131	20.761524
585.176088	-2.981200	3.682900	-10.978000	24.349909	0.001132	20.772281
586.182765	-3.006900	3.680400	-11.065000	24.365535	0.001131	20.754765
587.174757	-2.997400	3.680600	-11.032000	24.397897	0.001133	20.765894
588.185093	-3.002300	3.681100	-11.051000	24.417251	0.001131	20.755437
589.177468	-2.998400	3.679600	-11.031000	24.452351	0.001130	20.759832
590.174778	-3.002400	3.679300	-11.046000	24.478669	0.001133	20.745932
591.181274	-2.996000	3.678100	-11.017000	24.492424	0.001130	20.762103
592.180043	-3.001700	3.679700	-11.045000	24.520035	0.001132	20.740493
593.175623	-2.998300	3.678900	-11.030000	24.509314	0.001129	20.764350
594.182252	-3.000100	3.678900	-11.036000	24.492897	0.001129	20.754043
595.180882	-2.984200	3.678500	-10.976000	24.506302	0.001129	20.755164
596.178444	-2.983400	3.678300	-10.973000	24.466582	0.001130	20.763203
597.181605	-2.983400	3.678700	-10.973000	24.452379	0.001128	20.742315
598.177176	-3.004000	3.676000	-11.042000	24.421408	0.001129	20.735426
599.179280	-2.991300	3.676600	-10.997000	24.396284	0.001129	20.768069
600.178532	-2.982600	3.677100	-10.966000	24.432452	0.001130	20.757411
601.178753	-2.995500	3.676500	-11.012000	24.447677	0.001129	20.744711
602.178247	-2.991700	3.675900	-10.997000	24.458047	0.001128	20.757960
603.180411	-2.975400	3.676300	-10.938000	24.456833	0.001129	20.758164
604.186759	-3.010700	3.674200	-11.061000	24.461828	0.001129	20.765547
605.179153	-2.981300	3.676400	-10.958000	24.470085	0.001129	20.758657
606.185374	-2.982300	3.676200	-10.962000	24.500505	0.001129	20.756934
607.180614	-2.984700	3.674100	-10.965000	24.516375	0.001129	20.761952
608.185068	-2.986800	3.675500	-10.977000	24.522420	0.001127	20.749998
609.182108	-3.011200	3.672000	-11.056000	24.536449	0.001128	20.756014
610.181013	-3.005400	3.672900	-11.037000	24.524434	0.001126	20.765296
611.182697	-2.980900	3.673200	-10.947000	24.493317	0.001127	20.759206
612.184226	-3.007700	3.671100	-11.041000	24.521175	0.001126	20.768664
613.188152	-3.018500	3.671700	-11.080000	24.529058	0.001129	20.741485
614.187136	-3.013300	3.671700	-11.062000	24.490253	0.001126	20.766564
615.188394	-2.993300	3.672000	-10.991000	24.486648	0.001128	20.752515
616.184776	-3.002300	3.672400	-11.024000	24.497814	0.001126	20.768934
617.186466	-3.006500	3.671000	-11.035000	24.524329	0.001126	20.760449
618.184603	-3.002600	3.671500	-11.022000	24.522788	0.001126	20.755109
619.184811	-2.994500	3.671300	-10.992000	24.507365	0.001124	20.757654
620.184970	-2.993600	3.670200	-10.984000	24.495103	0.001124	20.740608
621.187419	-2.981900	3.669800	-10.942000	24.500375	0.001124	20.766288
622.186690	-3.021600	3.667600	-11.081000	24.528014	0.001126	20.751343
623.189168	-2.981300	3.670000	-10.939000	24.547884	0.001124	20.753736
624.190113	-2.984900	3.670000	-10.953000	24.574023	0.001122	20.756256
625.189344	-2.997900	3.669000	-10.999000	24.599146	0.001125	20.776248
626.198373	-3.002300	3.669000	-11.013000	24.625982	0.001123	20.769985
627.185727	-3.000200	3.668200	-11.004000	24.625908	0.001125	20.768962
628.190178	-2.982200	3.668900	-10.940000	24.666920	0.001125	20.773130
629.188160	-2.995900	3.668600	-10.988000	24.663834	0.001123	20.769560
630.190435	-3.009200	3.666900	-11.034000	24.706932	0.001125	20.772979
631.195277	-3.003000	3.667100	-11.012000	24.670030	0.001123	20.763923
632.192472	-3.007600	3.666900	-11.027000	24.654387	0.001123	20.775253
633.193379	-3.005000	3.666200	-11.016000	24.621455	0.001123	20.770657
634.191545	-2.998100	3.665800	-10.988000	24.597509	0.001122	20.769390
635.192335	-3.001200	3.665700	-11.001000	24.597605	0.001123	20.797461
636.190550	-3.011400	3.664200	-11.032000	24.638716	0.001123	20.753364
637.198273	-3.004700	3.664400	-11.010000	24.653639	0.001122	20.785883
638.196869	-2.994600	3.664400	-10.973000	24.630933	0.001119	20.779694
639.192396	-2.995100	3.663800	-10.972000	24.625908	0.001121	20.769910
640.194646	-3.011600	3.663100	-11.031000	24.639513	0.001120	20.761276
641.192311	-2.983300	3.664200	-10.930000	24.660881	0.001120	20.751898
642.191206	-2.996500	3.662300	-10.973000	24.701197	0.001121	20.778129
643.194216	-3.014800	3.662700	-11.040000	24.687840	0.001120	20.773734
644.203314	-3.004700	3.662100	-11.002000	24.695653	0.001116	20.785368
645.191086	-2.997100	3.661700	-10.973000	24.687892	0.001119	20.762881
646.194204	-2.993500	3.660900	-10.958000	24.728756	0.001118	20.782077
647.191425	-3.009000	3.661700	-11.015000	24.727341	0.001119	20.775915
648.198139	-2.995200	3.660600	-10.963000	24.767206	0.001120	20.762341
649.191464	-3.025900	3.660200	-11.075000	24.787726	0.001119	20.763968
650.194996	-3.014000	3.659400	-11.028000	24.788127	0.001120	20.771009
651.197920	-2.986000	3.660200	-10.928000	24.818516	0.001118	20.768316
652.198042	-2.977200	3.660300	-10.896000	24.818096	0.001119	20.773584
653.197283	-2.996900	3.659300	-10.966000	24.812306	0.001117	20.765876
654.192259	-3.008500	3.658400	-11.005000	24.818599	0.001118	20.776460
655.200364	-2.967900	3.658800	-10.858000	24.807241	0.001118	20.772648
656.194958	-3.002400	3.657700	-10.981000	24.774669	0.001118	20.794487
657.201334	-2.990800	3.658800	-10.943000	24.801701	0.001117	20.773726
658.197589	-3.001900	3.657500	-10.979000	24.794939	0.001118	20.779267
659.197209	-2.986400	3.657800	-10.922000	24.781067	0.001117	20.772932
660.196723	-3.022100	3.656300	-11.048000	24.819438	0.001116	20.797217
661.196443	-2.985600	3.658800	-10.922000	24.786440	0.001117	20.782118
662.195968	-2.995800	3.657900	-10.957000	24.751751	0.001118	20.798041
663.199608	-2.993300	3.656900	-10.944000	24.780227	0.001117	20.778728
664.195769	-3.033400	3.655400	-11.087000	24.788064	0.001115	20.778532
665.198442	-2.994200	3.654600	-10.941000	24.770558	0.001117	20.773766
666.196328	-2.998600	3.654200	-10.957000	24.749772	0.001115	20.789890
667.201254	-2.982800	3.655800	-10.903000	24.758628	0.001114	20.785976
668.199687	-3.041900	3.653100	-11.110000	24.753057	0.001117	20.786549
669.197807	-3.011900	3.653200	-11.002000	24.743487	0.001115	20.793541
670.200054	-2.985300	3.654800	-10.910000	24.745899	0.001113	20.789323
671.198400	-3.002200	3.653800	-10.969000	24.698624	0.001113	20.776022
672.203426	-3.019900	3.650300	-11.023000	24.707979	0.001116	20.792521
673.200973	-2.978200	3.652400	-10.876000	24.723423	0.001115	20.771035
674.203079	-2.996100	3.652600	-10.943000	24.758063	0.001114	20.771658
675.204252	-2.985500	3.652700	-10.903000	24.754533	0.001114	20.787082
676.201140	-3.003700	3.652300	-10.968000	24.778133	0.001113	20.776152
677.200353	-2.977300	3.653100	-10.875000	24.789722	0.001115	20.780670
678.201278	-3.002900	3.650600	-10.961000	24.828072	0.001113	20.794501
679.207697	-2.988400	3.653600	-10.916000	24.840028	0.001113	20.772361
680.207777	-3.015700	3.650700	-11.009000	24.815834	0.001113	20.774159
681.203060	-2.991200	3.651000	-10.920000	24.837570	0.001115	20.783645
682.212286	-2.992900	3.651900	-10.928000	24.839608	0.001114	20.796122
683.211074	-2.981400	3.651700	-10.886000	24.856069	0.001113	20.783245
684.213315	-2.996300	3.649800	-10.935000	24.875788	0.001113	20.793553
685.206185	-2.991100	3.648200	-10.911000	24.844085	0.001112	20.804883
686.207215	-2.989900	3.649300	-10.910000	24.843465	0.001112	20.799518
687.206041	-2.973200	3.649500	-10.848000	24.850128	0.001111	20.801939
688.210425	-3.000700	3.648000	-10.944000	24.878450	0.001111	20.791008
689.205459	-3.004900	3.647800	-10.960000	24.871737	0.001111	20.790435
690.206134	-2.981900	3.648800	-10.879000	24.863107	0.001112	20.796472
691.210213	-2.970300	3.649300	-10.839000	24.865373	0.001112	20.808230
692.207649	-2.998100	3.647800	-10.936000	24.899934	0.001109	20.792183
693.209291	-2.997800	3.647500	-10.933000	24.912066	0.001110	20.783496
694.210757	-2.965000	3.648400	-10.816000	24.900503	0.001113	20.775684
695.209001	-3.012600	3.646100	-10.984000	24.906968	0.001110	20.798294
696.207299	-2.966900	3.647100	-10.819000	24.891678	0.001110	20.780103
697.210663	-3.004000	3.645700	-10.949000	24.918754	0.001109	20.793054
698.207963	-3.008800	3.645300	-10.967000	24.930166	0.001110	20.794076
699.207808	-3.015300	3.644100	-10.986000	24.914379	0.001110	20.806206
700.212533	-2.991100	3.645400	-10.903000	24.944483	0.001107	20.783317
701.211591	-2.989500	3.645700	-10.898000	24.943640	0.001109	20.798592
702.207232	-2.988700	3.644600	-10.893000	24.950128	0.001108	20.815534
703.215796	-2.979500	3.644800	-10.859000	24.947664	0.001108	20.804052
704.212422	-2.993400	3.643100	-10.905000	24.977002	0.001108	20.803154
705.209305	-2.987000	3.644200	-10.883000	24.995650	0.001107	20.819501
706.219552	-3.011200	3.643700	-10.971000	24.977727	0.001106	20.801985
707.215214	-3.011900	3.642700	-10.970000	24.974566	0.001106	20.799286
708.215194	-3.008400	3.642500	-10.956000	24.963077	0.001106	20.805772
709.219258	-3.004800	3.642300	-10.943000	24.936647	0.001106	20.814332
710.213197	-2.996800	3.642400	-10.915000	24.927394	0.001107	20.820217
711.212336	-2.987400	3.641700	-10.878000	24.924612	0.001104	20.804623
712.215631	-3.003200	3.642200	-10.937000	24.884132	0.001104	20.818522
713.220685	-3.013400	3.639600	-10.966000	24.871101	0.001106	20.819668
714.224015	-2.987400	3.639500	-10.871000	24.875674	0.001103	20.801499
715.215873	-2.989300	3.640600	-10.882000	24.872966	0.001105	20.812057
716.213054	-2.965900	3.639800	-10.795000	24.856879	0.001106	20.817722
717.216828	-2.986000	3.639300	-10.866000	24.911779	0.001103	20.820192
718.220982	-3.008500	3.638800	-10.946000	24.896764	0.001104	20.816027
719.215556	-2.990800	3.639800	-10.885000	24.908695	0.001102	20.791018
720.219364	-3.020800	3.637800	-10.988000	24.957526	0.001104	20.803520
721.221638	-2.988100	3.639100	-10.872000	24.957800	0.001104	20.815649
722.223142	-3.018000	3.638000	-10.978000	24.958322	0.001101	20.807164
723.218650	-3.031900	3.636800	-11.025000	24.947330	0.001102	20.821261
724.219917	-3.004300	3.636500	-10.924000	24.943851	0.001102	20.824407
725.217482	-3.023800	3.637200	-10.997000	24.964037	0.001101	20.822383
726.220070	-3.001100	3.635700	-10.910000	24.994023	0.001100	20.836360
727.224418	-2.973700	3.637800	-10.817000	25.010877	0.001100	20.812975
728.219566	-2.989600	3.638200	-10.875000	25.032384	0.001100	20.834088
729.219965	-3.000000	3.635500	-10.906000	25.002304	0.001098	20.829498
730.223838	-2.999500	3.635100	-10.902000	24.954518	0.001099	20.805243
731.223260	-3.004700	3.635800	-10.923000	24.938907	0.001100	20.840307
732.220760	-2.997000	3.634700	-10.892000	24.939997	0.001098	20.838083
733.224952	-2.996700	3.634700	-10.891000	24.951489	0.001098	20.805521
734.222629	-2.995800	3.634600	-10.888000	24.984977	0.001098	20.824909
735.225732	-3.002100	3.633700	-10.908000	24.996116	0.001099	20.820917
736.224437	-3.015200	3.633000	-10.953000	25.008373	0.001097	20.821841
737.221654	-2.993500	3.633700	-10.876000	25.017697	0.001097	20.835467
738.223567	-2.994800	3.632600	-10.878000	25.028290	0.001097	20.835668
739.225937	-3.005800	3.632800	-10.919000	25.023045	0.001095	20.836093
740.222401	-3.003100	3.633400	-10.910000	25.037240	0.001097	20.839437
741.224198	-2.999700	3.632900	-10.896000	25.049278	0.001096	20.819752
742.226225	-2.990900	3.632600	-10.864000	25.037765	0.001096	20.839963
743.231229	-2.993700	3.631500	-10.869000	25.020961	0.001094	20.838742
744.223143	-3.009600	3.630800	-10.926000	24.987471	0.001095	20.841163
745.222322	-2.996200	3.631300	-10.879000	24.954379	0.001097	20.816482
746.226766	-3.012400	3.631300	-10.938000	24.962533	0.001095	20.836995
747.233392	-3.003600	3.628900	-10.898000	24.954852	0.001093	20.829758
748.228312	-2.984100	3.631200	-10.835000	25.011763	0.001094	20.819554
749.228431	-2.997700	3.629600	-10.879000	24.986604	0.001093	20.818481
750.226919	-3.003400	3.629900	-10.900000	25.002217	0.001092	20.841739
751.227326	-3.024600	3.628800	-10.974000	24.985060	0.001091	20.838742
752.225043	-3.001700	3.628300	-10.889000	25.000401	0.001092	20.847029
753.222841	-2.977700	3.629700	-10.807000	25.038685	0.001094	20.846102
754.231257	-2.994300	3.628500	-10.862000	25.044403	0.001093	20.855160
755.228711	-2.975500	3.628300	-10.793000	25.053356	0.001090	20.841863
756.227223	-2.995400	3.627600	-10.864000	25.040327	0.001092	20.832579
757.231716	-2.999200	3.628100	-10.880000	25.059172	0.001092	20.842960
758.228559	-3.004700	3.626900	-10.895000	25.073667	0.001090	20.853242
759.227157	-3.013000	3.625700	-10.922000	25.095713	0.001090	20.853087
760.231487	-2.974400	3.626500	-10.785000	25.111525	0.001090	20.848572
761.226885	-2.990300	3.625300	-10.840000	25.102424	0.001088	20.851290
762.234906	-2.997600	3.626300	-10.868000	25.082089	0.001088	20.839886
763.223465	-2.995200	3.624600	-10.855000	25.039034	0.001088	20.858306
764.230623	-3.025800	3.624600	-10.964000	25.007308	0.001089	20.857280
765.230062	-2.992500	3.625800	-10.850000	25.043529	0.001086	20.859499
766.231709	-3.000800	3.624100	-10.874000	25.047410	0.001086	20.864817
767.230497	-2.999100	3.623900	-10.867000	25.114381	0.001089	20.830103
768.231287	-3.014600	3.622600	-10.919000	25.110676	0.001086	20.850091
769.233767	-3.009300	3.622200	-10.899000	25.107120	0.001088	20.845573
770.231144	-3.004600	3.624800	-10.890000	25.126235	0.001086	20.841054
771.227171	-2.999100	3.622600	-10.863000	25.140778	0.001086	20.858972
772.235965	-3.034900	3.622800	-10.993000	25.152188	0.001086	20.853831
773.230227	-3.008500	3.622100	-10.896000	25.166404	0.001086	20.855774
774.230991	-3.006200	3.623000	-10.890000	25.204314	0.001085	20.859220
775.231125	-3.012900	3.622400	-10.913000	25.189049	0.001085	20.859068
776.228832	-3.007600	3.621600	-10.891000	25.195461	0.001084	20.853177
777.231301	-2.991300	3.622200	-10.834000	25.164860	0.001085	20.870819
778.238080	-3.007500	3.620700	-10.888000	25.166675	0.001082	20.862211
779.231462	-3.003500	3.621700	-10.877000	25.141939	0.001085	20.859189
780.229392	-2.996000	3.621100	-10.847000	25.120262	0.001081	20.850705
781.232919	-2.985500	3.620400	-10.808000	25.110837	0.001082	20.845037
782.234745	-2.998000	3.620100	-10.852000	25.111806	0.001084	20.862604
783.236904	-2.976700	3.619300	-10.772000	25.112773	0.001081	20.863100
784.239614	-2.979500	3.618800	-10.780000	25.123164	0.001083	20.889177
785.234959	-3.019000	3.618400	-10.923000	25.137210	0.001083	20.865821
786.233602	-2.975100	3.618200	-10.762000	25.124853	0.001080	20.888501
787.239138	-3.024100	3.617700	-10.939000	25.129721	0.001081	20.877743
788.232562	-2.997300	3.618000	-10.843000	25.118657	0.001080	20.851464
789.231255	-2.986600	3.618500	-10.806000	25.127360	0.001081	20.887699
790.237163	-2.995300	3.617300	-10.833000	25.116891	0.001079	20.875295
791.232177	-2.984800	3.618200	-10.799000	25.128449	0.001082	20.891638
792.233987	-2.983900	3.617800	-10.795000	25.162277	0.001081	20.867278
793.243890	-2.976400	3.617300	-10.765000	25.172890	0.001079	20.875087
794.233789	-2.997100	3.616200	-10.837000	25.173585	0.001079	20.876733
795.231415	-2.983600	3.616000	-10.787000	25.184124	0.001079	20.908647
796.236319	-2.974300	3.616700	-10.755000	25.184744	0.001079	20.893624
797.236026	-2.998100	3.614700	-10.836000	25.231998	0.001077	20.892701
798.234766	-2.988800	3.615800	-10.805000	25.239798	0.001078	20.898635
799.238710	-2.981500	3.616100	-10.780000	25.217206	0.001076	20.899661
800.237627	-2.983700	3.614700	-10.784000	25.225161	0.001078	20.896742
801.234739	-3.013500	3.612900	-10.886000	25.248623	0.001076	20.873358
802.244520	-2.998200	3.615000	-10.837000	25.262146	0.001074	20.890253
803.235842	-2.990300	3.614600	-10.808000	25.258167	0.001074	20.886733
804.235707	-2.985100	3.613700	-10.787000	25.223914	0.001075	20.892646
805.241497	-2.999000	3.613900	-10.836000	25.199308	0.001074	20.893547
806.241448	-2.985100	3.612600	-10.783000	25.208158	0.001074	20.902905
807.242039	-2.992300	3.611900	-10.807000	25.189069	0.001073	20.885165
808.241422	-3.007500	3.613200	-10.866000	25.176144	0.001074	20.885465
809.239741	-3.016900	3.610700	-10.891000	25.204334	0.001071	20.898118
810.241652	-3.007200	3.611100	-10.858000	25.208760	0.001072	20.885967
811.241519	-3.026200	3.610600	-10.925000	25.193249	0.001073	20.892205
812.240908	-2.996200	3.610200	-10.815000	25.183157	0.001073	20.885394
813.236804	-2.995600	3.611600	-10.818000	25.160737	0.001073	20.905083
814.242078	-3.004900	3.610300	-10.848000	25.170754	0.001073	20.902812
815.240592	-2.991700	3.610700	-10.801000	25.155322	0.001071	20.897278
816.241071	-3.000000	3.610400	-10.830000	25.144061	0.001072	20.897826
817.245703	-3.003300	3.610400	-10.841000	25.149605	0.001072	20.900073
818.248940	-3.007000	3.609900	-10.854000	25.169050	0.001070	20.898257
819.241689	-2.995100	3.608400	-10.807000	25.151970	0.001069	20.893912
820.250626	-2.992300	3.608800	-10.798000	25.186127	0.001069	20.885530
821.241483	-2.996800	3.608700	-10.813000	25.204151	0.001070	20.886555
822.246079	-2.991900	3.608600	-10.796000	25.236717	0.001069	20.907395
823.247509	-3.013000	3.607600	-10.869000	25.247829	0.001069	20.902904
824.242731	-2.982700	3.607900	-10.761000	25.248625	0.001068	20.888058
825.244244	-2.994400	3.606900	-10.798000	25.259389	0.001067	20.883218
826.242613	-2.992400	3.605900	-10.788000	25.282829	0.001068	20.880200
827.243929	-3.002900	3.605000	-10.824000	25.306815	0.001068	20.880100
828.246279	-2.978900	3.607100	-10.744000	25.303163	0.001069	20.877857
829.245917	-2.983400	3.605000	-10.753000	25.317331	0.001066	20.894451
830.245852	-2.994500	3.604400	-10.792000	25.351881	0.001065	20.884572
831.242511	-2.991200	3.605100	-10.782000	25.391717	0.001065	20.881424
832.245692	-3.000900	3.605200	-10.817000	25.385806	0.001064	20.897773
833.244633	-2.984400	3.604800	-10.756000	25.384661	0.001065	20.883348
834.246878	-2.992400	3.603400	-10.782000	25.393883	0.001065	20.886443
835.251415	-2.997700	3.602500	-10.798000	25.403028	0.001061	20.878083
836.254766	-2.992000	3.605600	-10.787000	25.392170	0.001063	20.870500
837.247016	-2.993700	3.602900	-10.785000	25.360205	0.001063	20.871594
838.247593	-2.991000	3.603100	-10.775000	25.306867	0.001062	20.875886
839.245127	-2.979000	3.605200	-10.738000	25.306046	0.001061	20.863208
840.245095	-2.990600	3.604500	-10.778000	25.305997	0.001062	20.862211
841.251044	-3.005900	3.601900	-10.826000	25.269460	0.001061	20.869149
842.249020	-2.992400	3.602000	-10.776000	25.255042	0.001061	20.865105
843.244654	-2.988200	3.601100	-10.759000	25.248282	0.001060	20.866379
844.247193	-2.983000	3.603100	-10.747000	25.265605	0.001059	20.883769
845.247856	-3.005800	3.600400	-10.820000	25.290363	0.001060	20.871169
846.247934	-2.989500	3.602100	-10.768000	25.290857	0.001059	20.882096
847.250208	-2.990000	3.600600	-10.765000	25.317899	0.001058	20.878427
848.247550	-2.976300	3.600000	-10.714000	25.317948	0.001057	20.878477
849.246226	-2.959400	3.601000	-10.655000	25.359455	0.001057	20.867048
850.251332	-2.974700	3.600600	-10.709000	25.372202	0.001058	20.858037
851.249321	-2.988300	3.598400	-10.752000	25.384856	0.001056	20.875957
852.254497	-2.984600	3.597600	-10.736000	25.351946	0.001056	20.849552
853.248245	-3.016900	3.597400	-10.852000	25.313794	0.001055	20.849177
854.251400	-3.003800	3.597300	-10.805000	25.321646	0.001055	20.867491
855.246575	-2.985000	3.598200	-10.739000	25.302731	0.001055	20.856562
856.255384	-3.011500	3.595500	-10.826000	25.283295	0.001056	20.834677
857.257399	-2.997400	3.598000	-10.783000	25.282449	0.001054	20.854216
858.247507	-2.987200	3.597200	-10.744000	25.319951	0.001054	20.843506
859.250576	-2.988000	3.597200	-10.747000	25.316846	0.001053	20.870733
860.256647	-3.009600	3.595200	-10.818000	25.293280	0.001056	20.849918
861.246602	-3.009000	3.595200	-10.817000	25.275187	0.001053	20.847873
862.256094	-3.001500	3.596200	-10.792000	25.254978	0.001053	20.856032
863.254153	-2.997900	3.595800	-10.779000	25.232754	0.001052	20.840832
864.247875	-3.009000	3.595400	-10.818000	25.194699	0.001051	20.859999
865.259168	-2.979300	3.593700	-10.706000	25.187587	0.001052	20.832471
866.253490	-2.997800	3.593800	-10.772000	25.240480	0.001052	20.850485
867.249855	-2.996700	3.594400	-10.770000	25.270980	0.001051	20.828951
868.251235	-3.013100	3.592700	-10.824000	25.313479	0.001051	20.853129
869.269206	-3.011800	3.592400	-10.818000	25.316112	0.001052	20.852453
870.250405	-2.993500	3.593300	-10.755000	25.347280	0.001049	20.846764
871.252402	-3.007000	3.591200	-10.798000	25.341959	0.001048	20.861809
872.259306	-3.010900	3.591100	-10.811000	25.321449	0.001049	20.858760
873.258074	-3.010600	3.592400	-10.814000	25.329378	0.001048	20.840169
874.252546	-3.011400	3.590900	-10.813000	25.284762	0.001049	20.840417
875.257983	-3.000700	3.590000	-10.773000	25.281179	0.001048	20.851044
876.259622	-3.016900	3.589200	-10.826000	25.309242	0.001047	20.855986
877.254150	-3.013300	3.590200	-10.817000	25.311005	0.001045	20.864868
878.256275	-3.000400	3.590300	-10.771000	25.310008	0.001044	20.858652
879.254377	-2.998200	3.589500	-10.761000	25.286170	0.001046	20.837090
880.258692	-2.987100	3.589000	-10.719000	25.255424	0.001045	20.842255
881.255982	-3.001300	3.588500	-10.768000	25.247692	0.001046	20.825010
882.254126	-2.998400	3.589000	-10.761000	25.239512	0.001043	20.846669
883.264194	-2.988500	3.588000	-10.721000	25.202056	0.001041	20.850790
884.258407	-2.991000	3.588000	-10.731000	25.180704	0.001044	20.846423
885.255334	-3.015200	3.586400	-10.812000	25.196759	0.001041	20.837412
886.264756	-3.005600	3.587500	-10.782000	25.162927	0.001042	20.844698
887.259095	-2.996700	3.586400	-10.746000	25.137076	0.001040	20.834394
888.261138	-2.995500	3.587500	-10.745000	25.192212	0.001040	20.836640
889.261353	-2.996800	3.586800	-10.748000	25.213885	0.001041	20.821889
890.255079	-3.019600	3.585100	-10.824000	25.257930	0.001042	20.838608
891.257298	-2.994400	3.586800	-10.739000	25.293452	0.001040	20.845348
892.257923	-2.990700	3.587300	-10.728000	25.359490	0.001038	20.830576
893.261483	-2.983200	3.586800	-10.699000	25.386632	0.001038	20.832224
894.261841	-3.003000	3.584700	-10.764000	25.416677	0.001038	20.846746
895.263076	-3.010600	3.584300	-10.790000	25.450332	0.001037	20.844031
896.259769	-2.986200	3.584100	-10.702000	25.464964	0.001036	20.818896
897.262990	-3.016000	3.583100	-10.805000	25.451446	0.001036	20.831874
898.267655	-3.012400	3.582600	-10.791000	25.437506	0.001035	20.832100
899.263644	-3.017400	3.581700	-10.807000	25.408505	0.001034	20.838540
900.263439	-2.999100	3.583700	-10.747000	25.442253	0.001035	20.802254
901.264983	-3.017900	3.581700	-10.807000	25.459951	0.001036	20.856061
902.265347	-2.994900	3.582200	-10.728000	25.438750	0.001035	20.822444
903.268133	-2.993400	3.583400	-10.726000	25.445808	0.001034	20.826212
904.262173	-3.014100	3.581400	-10.793000	25.462883	0.001031	20.818703
905.263838	-2.999500	3.582600	-10.745000	25.478984	0.001033	20.819698
906.271119	-3.005700	3.583300	-10.769000	25.518275	0.001034	20.830231
907.268393	-2.975200	3.582400	-10.657000	25.548143	0.001033	20.812338
908.269087	-2.975100	3.580500	-10.651000	25.550578	0.001031	20.819999
909.271069	-3.012800	3.580600	-10.785000	25.532362	0.001031	20.801231
910.267921	-2.991300	3.579900	-10.708000	25.476848	0.001033	20.823717
911.269014	-3.009000	3.578400	-10.767000	25.492652	0.001030	20.810665
912.270527	-3.006900	3.579900	-10.763000	25.515142	0.001030	20.823293
913.269728	-2.997500	3.578800	-10.726000	25.506270	0.001029	20.822918
914.269752	-3.003900	3.579600	-10.750000	25.524311	0.001029	20.811638
915.268565	-2.983000	3.578200	-10.673000	25.526573	0.001029	20.807745
916.270027	-3.013500	3.578400	-10.781000	25.510915	0.001030	20.821892
917.271355	-3.016900	3.578900	-10.795000	25.528008	0.001028	20.840006
918.269570	-3.034800	3.577000	-10.853000	25.551270	0.001027	20.811210
919.277616	-3.004300	3.576500	-10.743000	25.568788	0.001029	20.814105
920.275232	-2.992600	3.576800	-10.703000	25.583347	0.001028	20.805493
921.278119	-3.002300	3.577700	-10.741000	25.582477	0.001025	20.830697
922.272714	-3.018400	3.576500	-10.793000	25.589259	0.001025	20.812853
923.272906	-3.018000	3.575500	-10.788000	25.548826	0.001029	20.819662
924.271325	-2.987400	3.576700	-10.684000	25.536600	0.001025	20.822082
925.271539	-3.021100	3.574300	-10.797000	25.506354	0.001022	20.806881
926.270997	-3.008400	3.575400	-10.755000	25.494526	0.001027	20.813495
927.273188	-2.994400	3.575200	-10.705000	25.441318	0.001024	20.818385
928.271576	-3.007100	3.573200	-10.745000	25.437563	0.001025	20.809398
929.273533	-3.001800	3.574500	-10.729000	25.438581	0.001023	20.805205
930.278578	-3.032400	3.573500	-10.834000	25.419965	0.001022	20.833452
931.275466	-3.008100	3.573500	-10.748000	25.402642	0.001022	20.824118
932.277728	-3.001600	3.571900	-10.721000	25.402741	0.001022	20.810942
933.272974	-3.000300	3.573800	-10.720000	25.465366	0.001020	20.821196
934.279703	-3.016200	3.571700	-10.771000	25.483630	0.001020	20.819148
935.278345	-2.964700	3.572600	-10.590000	25.523612	0.001020	20.814255
936.276930	-2.997900	3.572200	-10.707000	25.530222	0.001019	20.822315
937.274463	-2.988600	3.572900	-10.678000	25.475548	0.001018	20.829050
938.292696	-3.000400	3.570400	-10.712000	25.477436	0.001016	20.805816
939.276367	-3.012700	3.568700	-10.749000	25.454099	0.001015	20.807512
940.278805	-3.008400	3.570700	-10.741000	25.443360	0.001017	20.804314
941.281262	-2.999100	3.568900	-10.702000	25.417985	0.001014	20.821507
942.277694	-2.987600	3.569700	-10.664000	25.404291	0.001016	20.831464
943.280614	-3.003500	3.567700	-10.715000	25.416118	0.001016	20.803986
944.281233	-2.989200	3.568400	-10.665000	25.421608	0.001013	20.800016
945.281538	-3.002500	3.569200	-10.715000	25.402770	0.001014	20.814290
946.281238	-3.005500	3.569300	-10.727000	25.393351	0.001014	20.807203
947.279566	-2.996500	3.568300	-10.690000	25.394940	0.001011	20.802161
948.280096	-3.016500	3.568000	-10.760000	25.421482	0.001012	20.818381
949.280346	-2.996300	3.567600	-10.688000	25.404282	0.001012	20.814860
950.282259	-3.014300	3.565900	-10.747000	25.457615	0.001010	20.802508
951.284439	-2.990100	3.567500	-10.666000	25.479956	0.001009	20.817829
952.281561	-2.998100	3.566300	-10.690000	25.466411	0.001009	20.799961
953.282209	-3.003100	3.566300	-10.709000	25.443645	0.001010	20.778521
954.283700	-3.004700	3.566100	-10.714000	25.419066	0.001008	20.804101
955.283370	-3.002600	3.565400	-10.704000	25.430124	0.001011	20.798610
956.283687	-3.026200	3.563700	-10.784000	25.416903	0.001007	20.797187
957.283883	-3.010500	3.563500	-10.726000	25.412631	0.001007	20.809493
958.282351	-3.005000	3.563700	-10.708000	25.401518	0.001006	20.812084
959.287390	-3.016400	3.562700	-10.746000	25.430547	0.001006	20.806146
960.283529	-3.008000	3.563400	-10.718000	25.458554	0.001006	20.801554
961.286130	-2.988000	3.564100	-10.647000	25.480672	0.001007	20.813333
962.285567	-3.008200	3.563000	-10.717000	25.501472	0.001004	20.782064
963.283023	-3.001300	3.561100	-10.686000	25.496179	0.001001	20.798560
964.284860	-2.993100	3.561400	-10.657000	25.523688	0.001001	20.804848
965.287071	-3.006100	3.560700	-10.703000	25.537232	0.001001	20.787630
966.291306	-2.996900	3.561500	-10.672000	25.540932	0.001002	20.806993
967.285129	-3.007900	3.560700	-10.710000	25.543117	0.001003	20.783108
968.289414	-3.002900	3.561600	-10.693000	25.529977	0.001001	20.805000
969.283754	-3.027300	3.559700	-10.775000	25.528088	0.000998	20.807845
970.286665	-3.003500	3.560000	-10.691000	25.525653	0.000998	20.774579
971.287539	-2.974700	3.561200	-10.593000	25.567378	0.000997	20.792300
972.285217	-3.018700	3.558500	-10.741000	25.583776	0.000996	20.786957
973.285905	-3.003500	3.559100	-10.689000	25.581245	0.000998	20.771613
974.285014	-3.018700	3.558000	-10.739000	25.594291	0.000996	20.790406
975.287607	-2.999100	3.558400	-10.670000	25.573318	0.000992	20.802058
976.290734	-3.016400	3.556100	-10.726000	25.588228	0.000994	20.793325
977.290855	-2.982400	3.559600	-10.615000	25.593822	0.000993	20.784245
978.290499	-2.973300	3.557500	-10.577000	25.633754	0.000993	20.791159
979.291796	-2.993700	3.556800	-10.647000	25.648913	0.000990	20.786470
980.289353	-2.997400	3.557000	-10.661000	25.607915	0.000991	20.791286
981.285820	-3.003200	3.557200	-10.682000	25.598426	0.000992	20.803093
982.289857	-2.998600	3.556400	-10.663000	25.549599	0.000989	20.800049
983.290114	-2.980200	3.556300	-10.598000	25.511454	0.000991	20.788295
984.289787	-3.002600	3.556300	-10.678000	25.486158	0.000990	20.770004
985.291797	-2.995000	3.555300	-10.647000	25.486633	0.000988	20.781387
986.293921	-2.971900	3.556800	-10.569000	25.491308	0.000987	20.799358
987.288622	-3.006000	3.554500	-10.683000	25.511811	0.000987	20.773955
988.288191	-2.993400	3.553500	-10.636000	25.513329	0.000988	20.772160
989.287966	-2.990400	3.554000	-10.627000	25.529061	0.000985	20.771838
990.288533	-3.012000	3.554100	-10.704000	25.532070	0.000987	20.775333
991.293152	-2.982000	3.553300	-10.595000	25.549295	0.000986	20.785994
992.293078	-3.000200	3.553500	-10.660000	25.550141	0.000985	20.779731
993.294954	-3.017600	3.551100	-10.714000	25.583295	0.000986	20.774146
994.290044	-3.013400	3.551700	-10.701000	25.577209	0.000985	20.777517
995.295972	-3.029500	3.550700	-10.755000	25.614435	0.000983	20.782188
996.295044	-3.012800	3.549800	-10.693000	25.642092	0.000985	20.781989
997.291047	-3.004800	3.549800	-10.665000	25.663463	0.000982	20.787332
998.293018	-2.973000	3.550500	-10.554000	25.678449	0.000984	20.764925
999.298778	-3.010700	3.550100	-10.686000	25.667844	0.000981	20.769447
1000.296970	-3.020000	3.549300	-10.717000	25.637981	0.000980	20.785921
1001.294965	-2.998300	3.550900	-10.646000	25.594547	0.000980	20.753204
1002.296935	-3.009300	3.548300	-10.676000	25.562621	0.000981	20.758599
1003.296943	-3.013400	3.548800	-10.693000	25.545627	0.000981	20.760973
1004.299049	-2.998400	3.548100	-10.638000	25.575227	0.000980	20.774104
1005.294389	-3.012500	3.548500	-10.688000	25.596003	0.000978	20.746605
1006.297460	-3.022800	3.545400	-10.715000	25.572625	0.000979	20.760585
1007.299314	-2.983200	3.548800	-10.586000	25.583536	0.000977	20.777234
1008.296652	-2.997100	3.546600	-10.628000	25.579340	0.000976	20.734611
1009.300005	-3.006600	3.546000	-10.660000	25.568906	0.000978	20.745470
1010.294926	-2.993700	3.546600	-10.616000	25.560883	0.000976	20.771553
1011.295669	-2.988300	3.547000	-10.598000	25.555794	0.000975	20.712860
1012.296319	-2.994600	3.547100	-10.622000	25.538152	0.000976	20.762475
1013.298081	-3.011900	3.545300	-10.678000	25.574683	0.000974	20.735150
1014.296732	-3.008300	3.545100	-10.664000	25.563407	0.000975	20.752750
1015.300162	-3.035000	3.544200	-10.755000	25.535128	0.000975	20.741894
1016.299822	-2.999200	3.544700	-10.630000	25.560528	0.000974	20.744168
1017.295870	-3.012800	3.543900	-10.675000	25.606722	0.000973	20.729394
1018.299889	-2.985100	3.546400	-10.585000	25.624739	0.000974	20.746542
1019.296742	-3.002200	3.542300	-10.633000	25.656095	0.000973	20.757646
1020.302731	-3.007800	3.542300	-10.653000	25.679730	0.000972	20.733969
1021.301839	-2.988600	3.543100	-10.587000	25.644793	0.000971	20.734914
1022.298713	-3.018000	3.541600	-10.688000	25.669912	0.000971	20.751135
1023.302495	-2.972500	3.542500	-10.529000	25.711659	0.000969	20.737114
1024.301407	-2.996100	3.541500	-10.610000	25.715210	0.000970	20.753010
1025.299979	-3.010200	3.539800	-10.654000	25.706938	0.000968	20.767461
1026.303244	-3.000600	3.541300	-10.625000	25.670637	0.000968	20.751389
1027.303700	-3.021000	3.539300	-10.691000	25.654512	0.000967	20.730451
1028.307199	-3.007600	3.539600	-10.645000	25.604321	0.000968	20.758753
1029.305016	-2.998500	3.540200	-10.614000	25.596295	0.000967	20.745950
1030.303195	-3.011600	3.538400	-10.655000	25.612248	0.000967	20.738738
1031.304332	-3.016400	3.539300	-10.674000	25.663207	0.000965	20.740607
1032.305521	-3.011600	3.538400	-10.655000	25.681347	0.000965	20.746499
1033.306674	-3.011700	3.537700	-10.653000	25.700530	0.000965	20.750119
1034.302096	-3.003100	3.539200	-10.627000	25.694568	0.000964	20.732751
1035.302248	-3.011700	3.537400	-10.653000	25.714198	0.000963	20.730181
1036.305464	-2.983400	3.537800	-10.554000	25.716882	0.000963	20.753267
1037.304838	-3.009800	3.536900	-10.644000	25.687265	0.000964	20.740114
1038.301170	-2.992000	3.535000	-10.575000	25.685053	0.000961	20.739789
1039.304563	-3.002900	3.537100	-10.620000	25.698271	0.000962	20.735047
1040.305306	-2.999600	3.535800	-10.604000	25.693004	0.000960	20.750621
1041.303283	-3.009800	3.534700	-10.638000	25.722072	0.000960	20.742832
1042.305593	-2.997900	3.534600	-10.595000	25.752509	0.000960	20.731204
1043.306711	-3.000200	3.535400	-10.605000	25.736758	0.000959	20.743833
1044.304626	-3.019000	3.534100	-10.668000	25.759241	0.000960	20.736070
1045.307948	-2.996500	3.536200	-10.595000	25.772461	0.000958	20.734176
1046.307778	-3.003100	3.534300	-10.613000	25.802520	0.000959	20.739240
1047.305558	-3.011800	3.533200	-10.639000	25.822194	0.000957	20.733398
1048.308973	-2.981600	3.534700	-10.537000	25.834593	0.000955	20.720248
1049.304667	-3.005300	3.534900	-10.621000	25.885069	0.000956	20.709788
1050.307191	-3.013500	3.531700	-10.642000	25.894907	0.000956	20.733423
1051.305124	-3.004700	3.532700	-10.612000	25.897890	0.000954	20.734049
1052.304571	-3.009700	3.532500	-10.630000	25.907873	0.000954	20.739336
1053.308464	-3.004000	3.531600	-10.608000	25.893238	0.000955	20.738385
1054.304246	-3.016200	3.531200	-10.650000	25.842586	0.000952	20.730649
1055.309166	-3.001100	3.531700	-10.598000	25.823826	0.000952	20.756376
1056.310911	-2.999500	3.531700	-10.591000	25.804100	0.000953	20.738456
1057.306012	-2.984600	3.530900	-10.537000	25.797368	0.000951	20.748290
1058.306829	-2.994100	3.529500	-10.568000	25.802036	0.000950	20.732590
1059.306631	-3.000200	3.530200	-10.590000	25.824095	0.000950	20.728195
1060.307776	-3.007200	3.527600	-10.606000	25.822456	0.000949	20.719911
1061.310987	-3.019200	3.528100	-10.651000	25.810085	0.000950	20.716018
1062.308260	-3.005800	3.528000	-10.602000	25.804714	0.000948	20.745712
1063.309825	-3.008500	3.528500	-10.615000	25.846054	0.000948	20.737452
1064.313016	-3.012100	3.526800	-10.622000	25.799941	0.000946	20.745185
1065.314878	-3.009400	3.526500	-10.611000	25.768340	0.000946	20.735726
1066.314792	-3.022200	3.526700	-10.658000	25.731668	0.000946	20.746307
1067.309702	-3.004400	3.525300	-10.590000	25.740711	0.000945	20.734053
1068.314761	-2.992500	3.525400	-10.549000	25.731890	0.000946	20.734676
1069.312799	-3.004700	3.524500	-10.589000	25.720110	0.000945	20.725688
1070.312944	-2.995500	3.525700	-10.561000	25.725028	0.000943	20.741534
1071.319025	-2.997600	3.524600	-10.564000	25.747236	0.000943	20.713579
1072.313556	-3.006400	3.524200	-10.594000	25.726716	0.000942	20.735643
1073.316234	-3.010800	3.523400	-10.607000	25.709771	0.000941	20.733796
1074.316118	-3.001900	3.523900	-10.577000	25.696426	0.000942	20.747420
1075.313849	-3.000700	3.522800	-10.569000	25.740501	0.000940	20.734791
1076.314553	-3.006300	3.523600	-10.591000	25.744102	0.000939	20.753581
1077.320039	-3.003200	3.523200	-10.579000	25.785340	0.000941	20.738578
1078.319851	-2.989500	3.523200	-10.531000	25.808771	0.000941	20.730346
1079.319894	-2.991300	3.523600	-10.539000	25.874008	0.000941	20.744197
1080.315491	-3.014800	3.520100	-10.610000	25.868338	0.000937	20.736130
1081.316346	-3.007200	3.520700	-10.586000	25.858058	0.000937	20.756624
1082.320619	-3.005000	3.520100	-10.577000	25.862726	0.000935	20.749933
1083.319055	-3.033100	3.519900	-10.675000	25.863747	0.000933	20.750011
1084.319470	-3.013200	3.519300	-10.603000	25.899692	0.000933	20.764784
1085.321719	-2.995000	3.519700	-10.540000	25.887643	0.000935	20.757895
1086.317362	-2.996800	3.517900	-10.541000	25.895121	0.000935	20.746915
1087.321228	-2.995000	3.519600	-10.541000	25.905955	0.000932	20.766334
1088.325664	-2.997400	3.518700	-10.545000	25.897931	0.000930	20.760644
1089.322249	-2.986300	3.520400	-10.510000	25.881186	0.000931	20.751883
1090.325541	-2.975200	3.518000	-10.466000	25.903771	0.000932	20.736638
1091.318219	-2.983400	3.518400	-10.495000	25.884271	0.000929	20.763043
1092.324764	-2.963200	3.518100	-10.424000	25.894828	0.000928	20.756104
1093.322320	-2.985700	3.517100	-10.499000	25.917014	0.000928	20.747097
1094.320809	-2.993600	3.516900	-10.527000	25.950625	0.000928	20.766641
1095.323743	-2.984100	3.517000	-10.493000	25.970176	0.000928	20.753565
1096.325447	-3.002100	3.513800	-10.547000	25.995115	0.000928	20.764397
1097.322000	-2.985700	3.515400	-10.496000	26.015979	0.000926	20.755961
1098.328803	-3.007400	3.513900	-10.565000	26.006621	0.000927	20.753670
1099.324569	-2.981700	3.515800	-10.481000	25.987296	0.000924	20.751799
1100.324233	-2.984200	3.514300	-10.485000	25.929498	0.000926	20.754423
1101.321609	-2.984700	3.514600	-10.488000	25.921224	0.000924	20.771717
1102.324269	-2.996800	3.514200	-10.530000	25.931111	0.000922	20.751303
1103.326955	-3.020200	3.512200	-10.606000	25.943684	0.000925	20.758245
1104.325355	-3.011400	3.511700	-10.573000	25.908366	0.000923	20.759273
1105.321768	-2.986800	3.513200	-10.493000	25.894031	0.000923	20.765261
1106.331081	-3.005100	3.510700	-10.548000	25.865391	0.000923	20.754981
1107.325025	-3.014900	3.510900	-10.584000	25.833819	0.000922	20.747921
1108.326049	-3.023700	3.510600	-10.614000	25.831486	0.000922	20.754113
1109.328487	-3.016400	3.511000	-10.589000	25.884992	0.000922	20.766138
1110.328209	-3.001500	3.511000	-10.538000	25.897887	0.000920	20.760126
1111.325581	-3.005300	3.509700	-10.547000	25.952815	0.000921	20.767892
1112.324586	-3.002500	3.510400	-10.538000	25.982622	0.000920	20.768441
1113.327054	-3.004400	3.508600	-10.539000	25.974599	0.000919	20.776501
1114.328173	-2.974300	3.510700	-10.440000	25.933140	0.000920	20.763299
1115.328223	-3.000200	3.508700	-10.526000	25.921937	0.000918	20.765794
1116.328833	-3.007400	3.508600	-10.551000	25.898239	0.000916	20.768066
1117.324564	-2.994200	3.507400	-10.501000	25.925860	0.000917	20.746028
1118.323117	-2.997800	3.507500	-10.514000	25.963790	0.000917	20.782238
1119.326511	-3.010400	3.506200	-10.554000	25.962399	0.000915	20.740536
1120.324918	-2.975000	3.508200	-10.436000	25.976212	0.000915	20.768165
1121.325074	-2.992200	3.507100	-10.493000	25.950400	0.000915	20.762146
1122.328707	-3.005400	3.505200	-10.533000	25.890758	0.000916	20.765766
1123.327662	-3.008600	3.504900	-10.543000	25.870237	0.000916	20.768859
1124.326287	-3.000200	3.505300	-10.516000	25.812726	0.000915	20.769408
1125.326282	-3.029000	3.503600	-10.610000	25.794962	0.000913	20.763891
1126.328738	-3.014800	3.504900	-10.565000	25.771113	0.000913	20.765540
1127.328672	-2.992000	3.504000	-10.482000	25.808400	0.000912	20.774072
1128.328627	-3.002900	3.502800	-10.517000	25.846359	0.000911	20.788021
1129.326252	-2.973500	3.504800	-10.420000	25.886877	0.000911	20.771351
1130.329179	-3.007600	3.501900	-10.531000	25.909181	0.000910	20.795180
1131.326236	-2.998900	3.501900	-10.501000	25.964849	0.000912	20.787094
1132.330742	-2.965000	3.503500	-10.387000	25.973020	0.000909	20.784398
1133.330703	-3.008600	3.500800	-10.530000	25.990976	0.000912	20.783471
1134.328379	-2.997200	3.500900	-10.491000	25.969167	0.000909	20.774837
1135.332879	-3.001100	3.500700	-10.505000	25.992811	0.000908	20.788635
1136.334730	-2.996900	3.499600	-10.487000	25.995763	0.000909	20.775953
1137.332666	-3.008300	3.500100	-10.529000	25.989578	0.000909	20.799137
1138.329726	-3.005200	3.498900	-10.514000	26.021618	0.000907	20.773954
1139.333719	-2.996300	3.497700	-10.479000	25.983810	0.000905	20.772005
1140.334493	-2.977800	3.499100	-10.418000	26.007805	0.000905	20.785207
1141.331931	-2.968400	3.499600	-10.387000	25.973869	0.000906	20.791415
1142.335418	-3.000500	3.498600	-10.496000	26.006260	0.000904	20.782232
1143.335002	-3.005600	3.497100	-10.510000	26.011846	0.000904	20.773620
1144.332981	-3.024200	3.496300	-10.572000	26.043712	0.000904	20.789515
1145.336341	-2.992400	3.495400	-10.459000	26.041597	0.000905	20.790708
1146.334882	-3.015500	3.494900	-10.537000	26.066435	0.000903	20.796699
1147.338834	-3.002400	3.497400	-10.498000	26.042315	0.000902	20.781947
1148.335602	-3.018200	3.494000	-10.544000	25.990477	0.000900	20.789608
1149.338706	-2.997000	3.494900	-10.473000	25.989080	0.000901	20.777299
1150.338426	-3.013300	3.495100	-10.531000	25.986819	0.000900	20.793520
1151.336868	-2.996300	3.495000	-10.471000	25.989795	0.000899	20.787976
1152.337919	-2.980800	3.495000	-10.417000	26.008099	0.000900	20.803046
1153.335928	-2.991300	3.493600	-10.449000	26.052707	0.000899	20.807087
1154.336987	-2.974800	3.493700	-10.392000	26.070366	0.000900	20.794484
1155.334033	-2.994900	3.491900	-10.456000	26.079030	0.000897	20.794654
1156.336975	-2.976700	3.493500	-10.397000	26.072374	0.000896	20.811200
1157.337172	-2.980400	3.493500	-10.411000	26.069786	0.000897	20.809074
1158.336682	-2.980600	3.492500	-10.408000	26.037125	0.000896	20.796647
1159.335388	-2.986800	3.490900	-10.425000	26.015018	0.000898	20.803834
1160.340783	-2.997200	3.490600	-10.461000	25.992665	0.000895	20.788487
1161.338028	-3.011900	3.489800	-10.510000	26.008976	0.000893	20.801556
1162.336693	-3.001400	3.489100	-10.471000	26.039353	0.000892	20.800308
1163.336905	-3.037100	3.488500	-10.593000	26.066153	0.000894	20.801157
1164.342124	-3.010800	3.488900	-10.504000	26.072982	0.000890	20.805173
1165.338000	-2.996800	3.487900	-10.451000	26.052394	0.000891	20.817203
1166.338613	-2.997000	3.488300	-10.454000	26.056860	0.000892	20.806992
1167.343444	-3.007500	3.487700	-10.488000	26.062400	0.000892	20.820619
1168.341163	-2.984000	3.487700	-10.406000	26.100868	0.000889	20.831295
1169.342976	-2.996700	3.487000	-10.448000	26.091600	0.000892	20.797327
1170.346941	-2.980500	3.487600	-10.394000	26.115497	0.000889	20.827028
1171.345126	-3.008800	3.486200	-10.488000	26.138317	0.000888	20.826724
1172.346921	-3.012900	3.485000	-10.498000	26.172662	0.000887	20.819036
1173.347513	-3.003200	3.484300	-10.464000	26.172039	0.000888	20.842591
1174.347657	-2.999800	3.484300	-10.451000	26.208594	0.000888	20.830961
1175.346227	-2.996300	3.482800	-10.433000	26.221803	0.000886	20.830010
1176.351502	-3.018600	3.485000	-10.517000	26.212490	0.000884	20.816383
1177.350342	-2.999700	3.483700	-10.449000	26.235089	0.000885	20.803058
1178.345332	-3.000500	3.482600	-10.449000	26.224458	0.000885	20.853066
1179.348890	-3.009700	3.482100	-10.479000	26.218248	0.000884	20.829756
1180.349348	-2.996000	3.481400	-10.429000	26.223089	0.000882	20.830828
1181.349689	-2.986500	3.482600	-10.400000	26.222667	0.000882	20.832774
1182.346735	-3.014200	3.481100	-10.492000	26.205307	0.000879	20.838089
1183.350833	-2.996700	3.481500	-10.432000	26.233319	0.000880	20.834943
1184.350319	-2.966900	3.481900	-10.329000	26.219136	0.000878	20.841554
1185.348047	-2.980400	3.480700	-10.373000	26.191445	0.000879	20.827004
1186.349379	-3.022400	3.479000	-10.514000	26.232073	0.000878	20.828950
1187.351876	-2.992400	3.479300	-10.410000	26.223506	0.000877	20.824135
1188.347770	-3.001700	3.478500	-10.441000	26.268904	0.000877	20.836564
1189.352159	-2.993800	3.479600	-10.416000	26.271411	0.000876	20.821066
1190.352044	-3.000200	3.478500	-10.435000	26.274587	0.000878	20.836112
1191.355548	-2.995900	3.477800	-10.418000	26.255421	0.000875	20.831550
1192.353464	-3.008300	3.477300	-10.459000	26.269551	0.000874	20.856654
1193.350734	-3.003800	3.476000	-10.440000	26.221945	0.000875	20.837739
1194.351740	-3.005000	3.475900	-10.444000	26.201431	0.000874	20.851262
1195.354422	-2.987700	3.477400	-10.388000	26.187849	0.000874	20.830977
1196.352790	-2.999000	3.477100	-10.426000	26.186683	0.000872	20.829331
1197.351994	-3.027500	3.475300	-10.520000	26.161973	0.000872	20.833899
1198.354173	-2.999700	3.475000	-10.423000	26.112546	0.000874	20.848244
1199.354924	-2.986100	3.474700	-10.375000	26.070676	0.000870	20.826089
1200.355845	-2.998200	3.475100	-10.417000	26.044841	0.000869	20.839012
1201.358512	-3.003900	3.474200	-10.435000	26.028379	0.000870	20.839068
1202.359415	-3.010200	3.473800	-10.455000	25.985630	0.000869	20.839266
1203.353684	-3.043100	3.471900	-10.564000	25.988863	0.000868	20.840143
1204.354863	-3.016400	3.472700	-10.473000	25.992114	0.000869	20.839142
1205.362257	-2.996100	3.472200	-10.402000	25.978579	0.000867	20.856363
1206.355569	-3.019200	3.471300	-10.479000	26.003342	0.000866	20.842362
1207.357508	-2.991400	3.471500	-10.384000	26.024008	0.000866	20.841789
1208.356878	-2.993200	3.471500	-10.390000	26.030291	0.000866	20.865170
1209.355578	-2.984300	3.471100	-10.357000	26.028552	0.000863	20.855362
1210.357445	-2.994300	3.471000	-10.392000	26.024477	0.000864	20.860751
1211.363397	-2.987900	3.470200	-10.367000	26.052346	0.000865	20.843233
1212.357185	-2.999700	3.469300	-10.406000	26.053240	0.000862	20.842235
1213.354682	-3.000000	3.469400	-10.407000	26.066602	0.000863	20.845703
1214.358263	-2.991800	3.469500	-10.379000	26.041516	0.000863	20.832352
1215.355246	-2.955000	3.467900	-10.247000	26.041217	0.000863	20.854810
1216.358438	-3.006000	3.467200	-10.422000	26.054650	0.000861	20.875418
1217.355328	-2.988600	3.466300	-10.359000	26.070846	0.000861	20.863717
1218.366788	-2.996500	3.467400	-10.389000	26.094663	0.000862	20.858725
1219.362904	-3.007300	3.464700	-10.418000	26.125759	0.000862	20.864364
1220.356114	-2.969900	3.467100	-10.294000	26.132513	0.000858	20.852660
1221.364645	-2.980100	3.466300	-10.328000	26.148881	0.000858	20.862468
1222.359266	-2.991900	3.465700	-10.368000	26.116966	0.000857	20.837038
1223.359035	-2.990600	3.463800	-10.358000	26.116170	0.000854	20.862790
1224.364831	-3.019300	3.462900	-10.455000	26.128963	0.000856	20.869007
1225.359720	-2.996700	3.464000	-10.380000	26.129682	0.000855	20.855979
1226.359237	-2.999000	3.463300	-10.386000	26.100675	0.000853	20.864764
1227.362695	-3.007700	3.462400	-10.413000	26.054150	0.000855	20.865434
1228.360190	-3.009900	3.462800	-10.421000	26.044218	0.000854	20.848343
1229.362729	-3.012800	3.462500	-10.431000	26.035425	0.000852	20.865111
1230.364222	-2.998400	3.463100	-10.382000	25.988456	0.000854	20.866760
1231.367331	-3.015600	3.460500	-10.434000	26.013197	0.000851	20.850367
1232.361809	-3.010600	3.459000	-10.413000	26.033518	0.000851	20.875997
1233.372745	-3.006800	3.460000	-10.403000	26.019931	0.000849	20.850020
1234.362714	-3.014800	3.458900	-10.427000	26.039779	0.000850	20.874228
1235.362054	-3.001000	3.457900	-10.376000	26.063348	0.000851	20.862821
1236.366477	-3.000400	3.460500	-10.381000	26.048669	0.000850	20.869883
1237.370893	-3.006400	3.458300	-10.395000	26.053490	0.000849	20.864296
1238.363295	-3.012800	3.458900	-10.419000	26.087791	0.000847	20.877897
1239.368090	-3.006600	3.457500	-10.395000	26.115488	0.000849	20.880595
1240.372444	-3.006400	3.456800	-10.391000	26.127809	0.000847	20.870217
1241.367624	-2.998100	3.457300	-10.364000	26.156347	0.000846	20.883245
1242.371346	-3.011600	3.456800	-10.410000	26.150684	0.000846	20.868073
1243.368806	-3.022200	3.456700	-10.445000	26.182352	0.000844	20.881401
1244.366390	-3.010400	3.454700	-10.400000	26.212720	0.000845	20.881571
1245.367864	-3.022000	3.455600	-10.442000	26.196807	0.000844	20.860840
1246.370654	-3.015100	3.455300	-10.417000	26.228969	0.000843	20.866607
1247.370578	-3.027100	3.453400	-10.453000	26.233142	0.000844	20.903514
1248.368537	-3.005600	3.454600	-10.382000	26.224874	0.000842	20.888568
1249.367779	-3.003500	3.453900	-10.373000	26.235131	0.000841	20.888444
1250.377065	-3.014100	3.452500	-10.405000	26.210203	0.000841	20.881413
1251.371305	-3.015900	3.452100	-10.410000	26.195647	0.000841	20.870105
1252.372366	-2.988800	3.452800	-10.319000	26.145286	0.000840	20.888252
1253.372818	-3.007400	3.452500	-10.382000	26.168507	0.000841	20.887877
1254.371136	-3.005200	3.451600	-10.371000	26.139574	0.000838	20.885831
1255.371862	-3.001200	3.451200	-10.356000	26.151772	0.000841	20.892872
1256.372746	-3.008600	3.451300	-10.382000	26.157086	0.000838	20.877350
1257.374859	-3.000400	3.449400	-10.348000	26.199233	0.000839	20.897889
1258.372123	-3.004900	3.450900	-10.369000	26.201000	0.000839	20.885441
1259.376618	-3.001300	3.449800	-10.353000	26.227198	0.000837	20.889007
1260.380023	-2.990500	3.449900	-10.316000	26.249229	0.000838	20.873216
1261.379100	-2.999400	3.448700	-10.343000	26.259437	0.000836	20.889162
1262.378603	-3.011100	3.448000	-10.382000	26.271359	0.000835	20.893082
1263.374494	-3.020600	3.447300	-10.412000	26.299942	0.000835	20.877238
1264.377959	-3.012100	3.449000	-10.388000	26.326613	0.000832	20.901194
1265.376440	-3.005200	3.446600	-10.357000	26.294805	0.000836	20.880135
1266.377964	-3.013000	3.447000	-10.384000	26.300494	0.000833	20.890593
1267.377629	-3.029200	3.445200	-10.434000	26.297268	0.000832	20.904420
1268.380332	-2.995100	3.445200	-10.318000	26.323221	0.000831	20.890674
1269.385156	-3.007600	3.445400	-10.361000	26.300176	0.000831	20.887429
1270.378835	-3.003700	3.446600	-10.351000	26.286623	0.000831	20.894197
1271.379561	-3.017400	3.443100	-10.388000	26.277584	0.000830	20.881795
1272.379493	-3.031500	3.442000	-10.433000	26.308178	0.000831	20.880299
1273.378881	-3.005000	3.444400	-10.349000	26.289756	0.000831	20.899242
1274.380647	-3.013500	3.443000	-10.374000	26.259387	0.000829	20.881052
1275.378560	-3.000500	3.443900	-10.332000	26.268774	0.000829	20.891433
1276.380123	-3.029500	3.441900	-10.426000	26.288818	0.000829	20.900670
1277.381591	-2.994100	3.442500	-10.306000	26.289491	0.000827	20.885700
1278.384148	-3.023400	3.441800	-10.405000	26.307990	0.000828	20.884851
1279.385907	-2.988100	3.442200	-10.284000	26.317006	0.000825	20.887748
1280.383215	-2.983600	3.441500	-10.267000	26.340470	0.000826	20.916068
1281.387748	-2.997300	3.440100	-10.310000	26.384672	0.000824	20.898854
1282.383303	-2.985700	3.439700	-10.269000	26.399744	0.000824	20.864693
1283.383422	-3.000700	3.439500	-10.320000	26.401733	0.000825	20.885656
1284.386407	-3.003100	3.439100	-10.326000	26.402553	0.000822	20.904971
1285.383807	-2.994000	3.440500	-10.300000	26.319223	0.000824	20.880968
1286.383812	-2.985100	3.439700	-10.267000	26.305097	0.000822	20.882418
1287.389610	-2.982800	3.438600	-10.255000	26.279496	0.000822	20.903155
1288.385014	-2.996100	3.438100	-10.300000	26.288140	0.000820	20.888135
1289.386519	-3.003100	3.438400	-10.325000	26.319430	0.000821	20.886390
1290.388616	-2.999800	3.436600	-10.308000	26.323528	0.000822	20.897620
1291.386336	-2.994300	3.436800	-10.290000	26.316704	0.000820	20.877961
1292.387957	-2.996300	3.436000	-10.295000	26.366418	0.000819	20.867233
1293.384914	-2.984600	3.435700	-10.254000	26.391101	0.000819	20.895358
1294.388203	-3.003300	3.435100	-10.317000	26.376775	0.000818	20.869582
1295.387503	-2.984900	3.434200	-10.249000	26.364287	0.000816	20.885005
1296.386510	-2.986800	3.435500	-10.260000	26.387728	0.000817	20.874900
1297.389904	-3.010500	3.433800	-10.337000	26.392100	0.000814	20.883561
1298.389830	-2.996600	3.433800	-10.288000	26.418546	0.000814	20.889278
1299.388110	-3.003600	3.433300	-10.311000	26.395732	0.000815	20.896219
1300.389956	-3.001800	3.433100	-10.303000	26.365215	0.000814	20.861757
1301.393634	-2.993100	3.432500	-10.273000	26.368243	0.000812	20.867171
1302.389779	-2.997900	3.432200	-10.288000	26.372171	0.000817	20.871119
1303.392477	-2.981400	3.432800	-10.233000	26.390796	0.000814	20.876086
1304.389011	-2.977000	3.430800	-10.212000	26.411556	0.000810	20.876090
1305.390329	-3.002400	3.431900	-10.301000	26.423397	0.000812	20.864757
1306.389997	-3.010900	3.430500	-10.328000	26.428537	0.000811	20.845268
1307.391214	-2.984900	3.431500	-10.242000	26.439119	0.000811	20.875817
1308.390701	-3.022400	3.428400	-10.360000	26.477107	0.000810	20.848094
1309.391403	-3.013500	3.428700	-10.332000	26.452183	0.000808	20.851491
1310.395188	-2.988200	3.429400	-10.247000	26.471104	0.000808	20.858655
1311.392349	-3.004700	3.429700	-10.304000	26.462511	0.000808	20.846226
1312.393382	-2.988200	3.429300	-10.246000	26.454794	0.000807	20.866443
1313.397873	-2.999500	3.426800	-10.278000	26.463810	0.000808	20.842789
1314.395511	-2.993200	3.427600	-10.259000	26.459912	0.000806	20.845036
1315.395157	-3.031000	3.426100	-10.382000	26.478809	0.000806	20.833684
1316.398199	-3.005000	3.425000	-10.292000	26.462968	0.000803	20.859960
1317.395279	-2.983600	3.426100	-10.221000	26.415969	0.000802	20.846387
1318.394293	-3.002300	3.425300	-10.282000	26.359955	0.000804	20.852204
1319.399947	-3.008800	3.423400	-10.299000	26.303364	0.000803	20.868349
1320.401202	-3.000100	3.424600	-10.274000	26.278805	0.000801	20.882548
1321.397342	-2.991400	3.424300	-10.242000	26.261175	0.000802	20.833539
1322.396829	-2.968100	3.424800	-10.164000	26.265526	0.000801	20.846920
1323.400019	-2.980200	3.425300	-10.205000	26.255417	0.000801	20.838658
1324.397150	-3.003000	3.422600	-10.276000	26.279184	0.000800	20.844525
1325.397545	-3.003000	3.422900	-10.278000	26.295451	0.000802	20.847122
1326.402846	-2.990500	3.422800	-10.235000	26.247078	0.000801	20.839287
1327.396729	-2.986500	3.422600	-10.220000	26.238040	0.000798	20.839687
1328.401768	-2.987300	3.421400	-10.220000	26.235335	0.000799	20.860202
1329.402420	-3.009800	3.421100	-10.296000	26.246409	0.000799	20.824391
1330.396646	-2.972600	3.421900	-10.171000	26.254754	0.000796	20.844630
1331.397378	-2.989200	3.420300	-10.222000	26.293496	0.000797	20.854165
1332.402472	-3.005100	3.419100	-10.273000	26.296999	0.000796	20.856738
1333.399021	-3.003000	3.417600	-10.262000	26.357417	0.000797	20.857240
1334.399916	-3.025800	3.418700	-10.343000	26.382295	0.000794	20.833880
1335.403722	-3.005700	3.419100	-10.276000	26.382720	0.000794	20.833834
1336.403174	-3.015200	3.417700	-10.303000	26.425555	0.000794	20.828048
1337.401420	-3.019800	3.416100	-10.315000	26.433251	0.000796	20.844791
1338.404747	-3.008800	3.417400	-10.280000	26.417986	0.000792	20.841302
1339.401454	-2.989500	3.416600	-10.213000	26.370985	0.000793	20.830099
1340.401653	-2.999100	3.416200	-10.244000	26.334907	0.000792	20.825609
1341.401487	-2.986400	3.416800	-10.203000	26.307271	0.000790	20.824388
1342.402336	-2.981400	3.415000	-10.181000	26.310007	0.000789	20.829982
1343.414871	-3.000900	3.416500	-10.251000	26.313186	0.000789	20.840763
1344.408211	-3.013000	3.415700	-10.291000	26.355648	0.000788	20.823694
1345.405571	-3.001000	3.415100	-10.248000	26.338740	0.000790	20.830410
1346.404902	-2.993900	3.414100	-10.219000	26.367350	0.000787	20.828817
1347.405245	-3.017200	3.414500	-10.301000	26.379545	0.000786	20.836806
1348.406016	-3.016400	3.412300	-10.291000	26.397645	0.000786	20.838402
1349.406348	-2.987800	3.411700	-10.193000	26.383618	0.000787	20.843271
1350.405627	-2.994800	3.413700	-10.222000	26.408798	0.000786	20.816421
1351.406246	-3.015100	3.411200	-10.283000	26.433184	0.000785	20.809164
1352.407750	-3.000300	3.412200	-10.236000	26.378460	0.000785	20.819595
1353.406644	-2.998300	3.411200	-10.226000	26.411980	0.000785	20.816775
1354.404068	-2.993000	3.411000	-10.207000	26.399147	0.000785	20.814308
1355.404877	-3.011300	3.409400	-10.266000	26.365158	0.000783	20.838468
1356.408457	-3.016300	3.408800	-10.280000	26.360708	0.000783	20.838263
1357.407743	-2.983900	3.409000	-10.171000	26.318324	0.000783	20.816056
1358.406603	-3.004300	3.408300	-10.239000	26.278393	0.000783	20.828083
1359.411176	-3.018100	3.407900	-10.285000	26.281199	0.000781	20.803403
1360.406927	-2.999500	3.408700	-10.224000	26.301512	0.000782	20.816229
1361.417494	-3.003000	3.408600	-10.235000	26.299424	0.000778	20.812709
1362.412063	-2.992600	3.407800	-10.198000	26.326120	0.000781	20.807295
1363.410057	-3.038900	3.404400	-10.345000	26.336203	0.000780	20.825015
1364.412868	-2.992300	3.406600	-10.192000	26.374119	0.000778	20.819499
1365.410864	-2.992700	3.406200	-10.192000	26.394880	0.000778	20.812390
1366.408493	-2.996900	3.407000	-10.208000	26.432867	0.000777	20.806474
1367.409880	-3.028800	3.404800	-10.311000	26.431255	0.000777	20.835672
1368.409002	-2.986200	3.404800	-10.165000	26.450152	0.000777	20.806778
1369.411103	-3.011000	3.404700	-10.251000	26.416063	0.000776	20.817559
1370.413796	-3.026600	3.401600	-10.295000	26.376382	0.000774	20.807549
1371.412307	-3.040700	3.403800	-10.348000	26.378124	0.000776	20.814042
1372.411687	-3.003700	3.403600	-10.223000	26.388849	0.000776	20.795897
1373.411477	-2.997300	3.402100	-10.196000	26.392401	0.000773	20.817011
1374.413143	-3.017000	3.401400	-10.262000	26.346691	0.000773	20.809003
1375.409785	-3.005400	3.402700	-10.225000	26.359355	0.000774	20.803239
1376.411464	-3.018500	3.402000	-10.268000	26.377483	0.000772	20.819087
1377.412787	-3.020800	3.400300	-10.270000	26.394643	0.000772	20.821160
1378.412906	-2.988300	3.400000	-10.158000	26.390693	0.000771	20.810078
1379.420481	-2.996800	3.400900	-10.191000	26.415974	0.000771	20.815573
1380.413691	-2.982000	3.401000	-10.141000	26.404532	0.000769	20.791745
1381.415370	-3.000500	3.398800	-10.197000	26.435594	0.000773	20.806369
1382.414334	-2.973300	3.400300	-10.109000	26.516907	0.000769	20.826934
1383.413239	-2.997400	3.399200	-10.188000	26.500820	0.000771	20.799858
1384.414474	-3.004400	3.399800	-10.212000	26.504368	0.000772	20.787304
1385.412969	-2.980000	3.398500	-10.127000	26.492002	0.000768	20.783408
1386.415906	-3.010000	3.397900	-10.226000	26.440364	0.000768	20.784137
1387.417951	-2.970800	3.398900	-10.095000	26.405204	0.000768	20.793369
1388.417257	-2.980100	3.397500	-10.123000	26.334810	0.000768	20.784735
1389.416908	-3.012200	3.395700	-10.227000	26.287056	0.000766	20.779417
1390.419366	-2.969000	3.397800	-10.085000	26.266645	0.000766	20.799207
1391.418365	-2.989000	3.395400	-10.147000	26.230662	0.000765	20.808092
1392.419953	-2.990200	3.395900	-10.153000	26.214468	0.000765	20.791345
1393.419124	-2.991100	3.396000	-10.157000	26.214891	0.000766	20.803149
1394.427204	-2.965000	3.394200	-10.063000	26.196239	0.000764	20.792941
1395.421921	-2.979200	3.393900	-10.109000	26.250272	0.000763	20.799824
1396.419967	-3.015500	3.393500	-10.231000	26.271138	0.000761	20.795188
1397.424478	-2.989200	3.393600	-10.143000	26.342349	0.000763	20.789467
1398.424145	-3.007700	3.392500	-10.202000	26.415576	0.000761	20.794311
1399.421574	-3.018500	3.391000	-10.235000	26.421780	0.000759	20.805761
1400.424445	-2.996300	3.391200	-10.160000	26.408099	0.000759	20.800546
1401.425153	-3.035000	3.390700	-10.290000	26.394519	0.000759	20.781208
1402.423904	-2.998100	3.391700	-10.168000	26.391562	0.000760	20.818064
1403.424629	-2.979900	3.390700	-10.102000	26.418879	0.000757	20.782457
1404.425746	-2.976400	3.391500	-10.093000	26.435985	0.000757	20.799650
1405.423099	-2.969100	3.389700	-10.063000	26.443906	0.000757	20.783904
1406.423593	-3.008900	3.389400	-10.198000	26.429806	0.000756	20.789173
1407.423644	-2.986300	3.389800	-10.121000	26.449197	0.000754	20.784955
1408.424999	-2.994600	3.390000	-10.151000	26.428637	0.000755	20.784205
1409.428514	-3.012000	3.388500	-10.204000	26.432809	0.000753	20.788872
1410.426002	-2.993400	3.388700	-10.142000	26.423004	0.000755	20.804147
1411.425734	-3.003700	3.387800	-10.175000	26.427719	0.000753	20.799877
1412.428809	-2.981300	3.387800	-10.098000	26.444138	0.000752	20.784137
1413.427007	-2.980700	3.388000	-10.098000	26.431055	0.000752	20.788057
1414.427427	-2.982800	3.387100	-10.102000	26.418490	0.000751	20.778748
1415.427719	-2.982800	3.387100	-10.102000	26.400021	0.000750	20.776306
1416.430059	-3.011700	3.386500	-10.199000	26.415093	0.000750	20.797144
1417.427717	-3.011000	3.385200	-10.192000	26.440444	0.000749	20.796072
1418.427995	-3.016400	3.384300	-10.207000	26.468798	0.000749	20.792328
1419.429898	-3.008200	3.384300	-10.179000	26.479750	0.000747	20.772990
1420.426910	-2.988800	3.383500	-10.112000	26.547381	0.000749	20.802090
1421.426731	-3.014600	3.383400	-10.199000	26.538394	0.000747	20.779780
1422.428031	-3.006500	3.382900	-10.170000	26.559001	0.000747	20.762561
1423.428439	-3.008500	3.382200	-10.174000	26.555871	0.000746	20.812521
1424.431318	-3.009700	3.382800	-10.180000	26.573820	0.000747	20.784571
1425.430343	-3.010600	3.381400	-10.179000	26.577446	0.000746	20.799121
1426.431715	-2.980100	3.382500	-10.078000	26.563119	0.000744	20.778556
1427.429845	-2.978100	3.380900	-10.068000	26.587524	0.000744	20.787441
1428.430321	-2.988600	3.381500	-10.104000	26.589164	0.000745	20.795254
1429.433291	-2.986200	3.380100	-10.093000	26.596387	0.000742	20.771220
1430.435730	-3.017100	3.379300	-10.195000	26.602445	0.000743	20.785371
1431.431761	-3.016600	3.378200	-10.190000	26.593409	0.000741	20.768227
1432.432246	-3.009200	3.378500	-10.165000	26.583754	0.000741	20.777013
1433.433227	-2.997500	3.378500	-10.126000	26.587897	0.000740	20.793506
1434.434839	-3.015900	3.378500	-10.189000	26.556294	0.000740	20.764108
1435.432418	-3.009500	3.376900	-10.161000	26.510612	0.000738	20.768450
1436.434528	-2.980400	3.377600	-10.066000	26.524742	0.000736	20.781705
1437.435046	-3.024800	3.375700	-10.210000	26.540083	0.000738	20.762986
1438.432072	-3.018100	3.377100	-10.191000	26.530477	0.000737	20.768977
1439.435042	-3.013300	3.374800	-10.168000	26.560141	0.000737	20.757544
1440.442209	-3.029600	3.374900	-10.223000	26.590083	0.000735	20.763934
1441.434013	-2.998400	3.375800	-10.121000	26.583729	0.000735	20.764660
1442.433956	-2.978900	3.376300	-10.055000	26.627348	0.000735	20.781008
1443.433978	-2.990600	3.375600	-10.095000	26.613300	0.000735	20.791541
1444.434151	-2.979300	3.375700	-10.057000	26.588748	0.000734	20.774447
1445.433726	-2.974600	3.375800	-10.041000	26.563302	0.000730	20.757402
1446.434360	-3.014000	3.373200	-10.165000	26.561707	0.000733	20.782352
1447.434643	-2.978700	3.373900	-10.048000	26.590234	0.000732	20.781156
1448.436205	-2.975600	3.374800	-10.041000	26.606619	0.000731	20.772023
1449.440259	-2.986800	3.373500	-10.075000	26.637925	0.000730	20.779787
1450.437945	-2.993000	3.371600	-10.089000	26.645398	0.000729	20.779238
1451.435484	-3.021500	3.371100	-10.184000	26.678016	0.000728	20.766510
1452.439808	-2.999600	3.372000	-10.113000	26.676330	0.000729	20.778566
1453.438040	-3.010600	3.370300	-10.145000	26.669529	0.000729	20.775997
1454.436892	-2.971300	3.371400	-10.016000	26.622589	0.000727	20.769110
1455.441123	-2.982400	3.370000	-10.050000	26.651311	0.000726	20.764793
1456.443425	-3.017700	3.370600	-10.170000	26.655756	0.000725	20.766417
1457.441798	-2.999300	3.369600	-10.105000	26.645478	0.000725	20.766517
1458.441727	-2.992700	3.368400	-10.079000	26.628896	0.000724	20.751269
1459.440625	-2.986700	3.368800	-10.061000	26.595633	0.000725	20.752918
1460.438727	-2.997800	3.367900	-10.095000	26.553754	0.000724	20.761081
1461.438399	-3.035300	3.366100	-10.216000	26.504971	0.000724	20.767047
1462.438502	-2.978100	3.368800	-10.031000	26.509217	0.000721	20.758986
1463.441446	-2.984200	3.366700	-10.046000	26.469669	0.000722	20.748158
1464.439689	-2.985100	3.365400	-10.045000	26.499465	0.000721	20.759141
1465.441283	-3.009600	3.365700	-10.128000	26.512948	0.000722	20.756572
1466.439867	-3.020500	3.365100	-10.163000	26.509596	0.000721	20.742772
1467.441295	-2.992000	3.365500	-10.068000	26.503837	0.000722	20.775864
1468.441733	-2.989900	3.365300	-10.061000	26.487305	0.000719	20.767308
1469.441195	-2.999900	3.363600	-10.089000	26.492793	0.000719	20.769031
1470.441255	-3.034200	3.362000	-10.200000	26.546072	0.000719	20.751936
1471.444115	-3.003700	3.362900	-10.101000	26.536515	0.000716	20.761296
1472.440680	-3.006000	3.363100	-10.109000	26.567552	0.000716	20.740811
1473.442239	-3.008500	3.362600	-10.116000	26.588380	0.000717	20.744204
1474.441059	-2.989400	3.362800	-10.052000	26.613755	0.000717	20.759282
1475.441617	-3.000000	3.361900	-10.085000	26.597345	0.000715	20.752743
1476.441932	-3.005200	3.362600	-10.104000	26.570984	0.000716	20.754218
1477.445738	-3.007200	3.361200	-10.107000	26.593054	0.000715	20.745584
1478.441407	-3.001600	3.360400	-10.087000	26.604747	0.000713	20.754494
1479.444473	-2.998400	3.360800	-10.076000	26.607229	0.000714	20.741815
1480.443015	-3.009100	3.360400	-10.111000	26.602442	0.000712	20.750279
1481.442789	-3.001400	3.359700	-10.082000	26.589013	0.000713	20.736779
1482.442169	-3.012900	3.359400	-10.120000	26.580449	0.000711	20.761836
1483.441720	-2.982300	3.360400	-10.020000	26.549465	0.000712	20.735431
1484.443563	-3.001700	3.358400	-10.080000	26.510668	0.000711	20.746694
1485.443534	-3.001000	3.359800	-10.082000	26.500188	0.000710	20.756075
1486.443750	-3.011600	3.357700	-10.111000	26.493957	0.000709	20.725155
1487.445299	-3.001200	3.357500	-10.076000	26.487107	0.000709	20.747193
1488.447095	-3.009200	3.356000	-10.097000	26.476806	0.000708	20.737313
1489.448384	-3.002000	3.356500	-10.075000	26.461341	0.000708	20.747847
1490.445195	-3.011000	3.356000	-10.104000	26.458038	0.000705	20.751641
1491.444433	-3.010800	3.355800	-10.103000	26.484357	0.000707	20.739213
1492.446069	-3.006700	3.355800	-10.089000	26.535552	0.000708	20.733300
1493.446256	-2.982100	3.356500	-10.007000	26.565498	0.000705	20.738746
1494.447644	-3.012100	3.354000	-10.101000	26.565473	0.000704	20.738247
1495.450010	-2.991400	3.353900	-10.032000	26.591169	0.000704	20.727093
1496.448754	-3.036200	3.352500	-10.178000	26.592190	0.000704	20.730490
1497.454172	-3.013500	3.353500	-10.105000	26.606266	0.000702	20.752702
1498.450067	-2.982600	3.354100	-10.002000	26.601947	0.000702	20.727022
1499.451617	-3.011500	3.351400	-10.091000	26.621835	0.000703	20.741799
1500.450765	-3.013500	3.352700	-10.101000	26.628590	0.000701	20.731045
1501.451030	-2.976800	3.352500	-9.978700	26.667864	0.000701	20.728327
1502.451155	-2.998000	3.351200	-10.046000	26.655453	0.000698	20.717272
1503.454409	-3.010200	3.352000	-10.090000	26.593844	0.000699	20.731678
1504.451263	-2.990200	3.351400	-10.020000	26.590415	0.000698	20.734870
1505.451319	-2.993600	3.350900	-10.029000	26.545411	0.000698	20.724243
1506.450502	-3.001300	3.350000	-10.053000	26.529799	0.000697	20.738423
1507.452728	-3.005200	3.348800	-10.062000	26.565996	0.000697	20.724547
1508.452604	-3.018000	3.348900	-10.106000	26.610063	0.000697	20.728543
1509.452304	-2.999300	3.348700	-10.042000	26.643009	0.000695	20.731791
1510.458415	-3.013400	3.347400	-10.086000	26.677144	0.000695	20.730071
1511.453158	-3.013700	3.347400	-10.087000	26.701546	0.000694	20.746543
1512.454873	-2.986400	3.349600	-10.002000	26.699638	0.000694	20.713804
1513.455931	-2.975900	3.349700	-9.967500	26.735334	0.000693	20.724561
1514.455011	-3.005500	3.348200	-10.062000	26.711158	0.000693	20.730127
1515.456344	-3.007200	3.346200	-10.062000	26.711411	0.000694	20.747452
1516.457416	-3.027700	3.345800	-10.128000	26.704984	0.000693	20.717756
1517.456835	-2.981300	3.347500	-9.978400	26.708363	0.000691	20.724472
1518.458079	-2.984100	3.346100	-9.983900	26.709729	0.000691	20.727742
1519.458731	-3.002100	3.344700	-10.039000	26.711323	0.000689	20.727922
1520.462738	-3.008400	3.344800	-10.061000	26.773998	0.000690	20.718863
1521.460933	-2.994900	3.344800	-10.015000	26.770996	0.000689	20.717741
1522.460686	-2.988800	3.344400	-9.992600	26.814284	0.000690	20.718591
1523.465188	-2.981300	3.343800	-9.968000	26.807291	0.000688	20.717724
1524.461223	-2.985600	3.344000	-9.983000	26.831736	0.000688	20.716223
1525.462898	-2.977700	3.345400	-9.960300	26.853654	0.000685	20.728778
1526.465403	-3.005100	3.343300	-10.045000	26.824444	0.000686	20.721694
1527.467149	-2.988800	3.343600	-9.992300	26.786865	0.000687	20.715678
1528.463504	-3.021400	3.341400	-10.095000	26.815185	0.000686	20.731825
1529.466607	-3.019400	3.340600	-10.085000	26.830772	0.000685	20.731376
1530.465153	-3.029700	3.340900	-10.121000	26.805556	0.000685	20.715031
1531.465575	-2.998700	3.340400	-10.016000	26.776764	0.000683	20.715954
1532.467480	-2.999400	3.339700	-10.015000	26.775300	0.000684	20.724440
1533.465950	-3.008400	3.340800	-10.049000	26.811912	0.000683	20.730905
1534.468989	-2.988100	3.338400	-9.974300	26.811588	0.000684	20.739589
1535.468327	-3.006400	3.338200	-10.035000	26.789871	0.000683	20.722020
1536.467423	-3.012900	3.338400	-10.057000	26.787710	0.000682	20.724114
1537.468183	-3.010000	3.339300	-10.050000	26.764306	0.000681	20.712437
1538.470623	-3.005500	3.337900	-10.031000	26.699842	0.000680	20.719224
1539.468612	-3.017500	3.337300	-10.069000	26.680054	0.000680	20.716400
1540.469592	-3.027400	3.336900	-10.099000	26.680973	0.000678	20.711634
1541.470984	-3.008000	3.335900	-10.034000	26.715479	0.000678	20.718824
1542.469291	-3.014300	3.335700	-10.054000	26.705449	0.000677	20.725810
1543.469503	-2.995500	3.335200	-9.988700	26.691571	0.000678	20.741256
1544.470239	-2.989300	3.335300	-9.968800	26.703309	0.000674	20.743574
1545.470294	-3.015700	3.335000	-10.055000	26.730438	0.000675	20.716319
1546.469318	-3.012900	3.335000	-10.047000	26.756380	0.000674	20.733393
1547.469463	-3.006200	3.334400	-10.023000	26.773207	0.000675	20.733715
1548.468292	-2.994100	3.333300	-9.979300	26.793608	0.000673	20.713449
1549.473565	-2.996000	3.334100	-9.988000	26.814235	0.000671	20.717593
1550.469895	-2.979800	3.332900	-9.929600	26.834066	0.000671	20.733266
1551.472679	-3.007400	3.332600	-10.021000	26.833246	0.000670	20.739554
1552.471954	-2.990700	3.332300	-9.964700	26.877302	0.000671	20.726004
1553.471786	-3.002300	3.333100	-10.004000	26.916166	0.000669	20.748489
1554.474668	-2.999900	3.330900	-9.991000	26.902540	0.000669	20.716768
1555.476541	-3.031200	3.330900	-10.095000	26.863873	0.000667	20.752332
1556.473099	-3.006600	3.330400	-10.012000	26.792144	0.000669	20.719090
1557.475569	-3.008000	3.329300	-10.014000	26.743717	0.000668	20.735835
1558.474105	-2.985500	3.330500	-9.941900	26.703728	0.000664	20.738779
1559.475101	-2.977600	3.330100	-9.914300	26.676376	0.000667	20.731670
1560.481194	-3.009200	3.329600	-10.017000	26.682581	0.000666	20.730796
1561.475838	-3.018700	3.328200	-10.046000	26.685337	0.000664	20.743050
1562.476346	-3.000700	3.327700	-9.984400	26.690378	0.000664	20.728202
1563.478229	-3.000900	3.327800	-9.983600	26.715870	0.000665	20.746245
1564.482473	-2.985800	3.327700	-9.934600	26.698719	0.000661	20.737537
1565.479108	-2.998300	3.327700	-9.976200	26.666229	0.000661	20.744228
1566.478745	-3.027200	3.324600	-10.063000	26.644381	0.000661	20.745973
1567.480797	-2.987500	3.326600	-9.937300	26.649196	0.000662	20.740382
1568.481499	-3.004400	3.325100	-9.988000	26.650710	0.000658	20.720565
1569.479881	-2.998700	3.325000	-9.969800	26.633706	0.000662	20.747569
1570.483394	-2.988300	3.326100	-9.937600	26.658112	0.000659	20.745552
1571.481776	-2.996700	3.325600	-9.964700	26.692915	0.000660	20.757307
1572.481131	-3.008000	3.323100	-9.994300	26.743875	0.000658	20.738839
1573.481275	-2.995300	3.323300	-9.953700	26.765193	0.000659	20.739409
1574.481702	-3.004200	3.322600	-9.980100	26.793295	0.000657	20.743481
1575.482421	-3.033100	3.322300	-10.076000	26.815460	0.000656	20.732101
1576.481552	-3.011000	3.322600	-10.004000	26.859784	0.000656	20.752487
1577.484776	-3.009800	3.321000	-9.993500	26.895875	0.000656	20.753216
1578.483674	-3.009000	3.320900	-9.990900	26.876862	0.000655	20.762073
1579.485221	-3.013100	3.320100	-10.002000	26.855768	0.000654	20.765994
1580.485147	-2.997400	3.321800	-9.955200	26.877854	0.000653	20.744578
1581.487249	-2.987200	3.320300	-9.917100	26.885378	0.000653	20.745506
1582.486663	-2.989600	3.321400	-9.928300	26.866069	0.000653	20.747901
1583.486699	-3.002400	3.320400	-9.968400	26.890861	0.000653	20.736319
1584.489357	-3.013500	3.318500	-9.999800	26.899897	0.000653	20.761528
1585.488470	-2.970000	3.320100	-9.859000	26.901333	0.000651	20.764395
1586.488645	-2.995000	3.317900	-9.935500	26.912777	0.000649	20.758358
1587.489249	-3.002700	3.317600	-9.960700	26.911683	0.000650	20.765792
1588.489017	-2.991600	3.318500	-9.926900	26.878076	0.000650	20.756182
1589.489934	-2.991700	3.317000	-9.921200	26.895998	0.000649	20.758082
1590.490339	-2.985900	3.318100	-9.906400	26.922873	0.000648	20.771355
1591.497184	-3.002200	3.316400	-9.955700	26.930889	0.000646	20.761397
1592.491920	-3.011900	3.316200	-9.987100	26.901453	0.000646	20.763567
1593.494156	-2.966500	3.316200	-9.835400	26.935752	0.000646	20.766762
1594.496248	-3.002800	3.315000	-9.952900	26.930263	0.000646	20.771199
1595.491530	-2.964400	3.316300	-9.829400	26.944880	0.000645	20.768354
1596.494518	-2.996900	3.315200	-9.934300	26.937487	0.000643	20.765187
1597.498377	-2.990700	3.313600	-9.908700	26.935777	0.000644	20.750191
1598.493156	-2.967800	3.315300	-9.837500	26.882387	0.000645	20.768577
1599.495265	-3.005800	3.313000	-9.957700	26.860227	0.000642	20.765262
1600.494864	-3.022600	3.311000	-10.006000	26.838687	0.000641	20.770630
1601.492482	-3.006100	3.311400	-9.953500	26.823916	0.000640	20.772374
1602.494501	-3.029800	3.309900	-10.027000	26.858661	0.000638	20.756575
1603.498459	-3.010100	3.310900	-9.965500	26.852556	0.000639	20.759918
1604.493863	-3.002000	3.311700	-9.940400	26.863078	0.000637	20.774292
1605.494679	-3.007800	3.311200	-9.958200	26.803487	0.000638	20.766058
1606.496264	-2.987200	3.310600	-9.888100	26.785961	0.000639	20.762187
1607.495275	-2.983900	3.310100	-9.875700	26.811004	0.000637	20.756546
1608.495401	-2.974200	3.308800	-9.839800	26.794823	0.000636	20.778209
1609.496514	-2.984700	3.310100	-9.878800	26.780678	0.000634	20.768729
1610.495319	-2.983400	3.308700	-9.869800	26.763774	0.000635	20.764536
1611.495159	-3.005700	3.308400	-9.942800	26.743492	0.000635	20.772119
1612.498004	-2.983800	3.308400	-9.870600	26.780706	0.000633	20.775870
1613.496154	-3.021800	3.307000	-9.990800	26.833271	0.000633	20.782728
1614.496369	-3.021600	3.307500	-9.992400	26.869930	0.000632	20.772647
1615.497096	-3.002600	3.306600	-9.926500	26.909392	0.000633	20.756376
1616.499610	-3.009800	3.307400	-9.952300	26.926891	0.000631	20.789147
1617.497478	-3.005100	3.305300	-9.931700	26.899764	0.000629	20.795059
1618.496692	-2.998900	3.305700	-9.912100	26.895277	0.000629	20.763046
1619.501231	-2.991200	3.306600	-9.890600	26.888897	0.000630	20.782710
1620.498247	-2.986900	3.306500	-9.875100	26.902248	0.000626	20.756780
1621.499318	-3.001200	3.306000	-9.921000	26.940520	0.000628	20.775824
1622.503534	-3.006200	3.303400	-9.929700	26.933201	0.000626	20.796439
1623.500753	-2.990500	3.304600	-9.880100	26.939753	0.000625	20.770785
1624.499756	-2.976900	3.303900	-9.834400	26.950302	0.000626	20.768591
1625.499953	-3.010600	3.302700	-9.942600	26.972017	0.000623	20.773358
1626.501072	-2.993500	3.303600	-9.887800	26.971869	0.000625	20.764200
1627.501474	-3.015200	3.300800	-9.951900	26.953307	0.000622	20.795321
1628.501501	-2.995000	3.301400	-9.885600	26.939827	0.000622	20.785558
1629.504399	-3.001900	3.300900	-9.907500	26.959613	0.000621	20.773687
1630.504167	-3.000000	3.300900	-9.901400	26.966313	0.000622	20.789907
1631.503525	-3.005200	3.299900	-9.915600	26.980761	0.000622	20.768874
1632.506471	-3.018700	3.299500	-9.959100	27.004033	0.000620	20.784217
1633.503944	-2.997700	3.299300	-9.888900	27.014382	0.000620	20.786563
1634.506274	-3.022800	3.299800	-9.973300	27.051133	0.000619	20.787961
1635.505428	-3.028800	3.297100	-9.985200	27.080364	0.000620	20.780849
1636.506166	-2.988000	3.300000	-9.859500	27.098575	0.000621	20.781620
1637.506476	-2.995200	3.298500	-9.878700	27.112793	0.000618	20.785013
1638.507250	-2.997800	3.297400	-9.884500	27.128375	0.000617	20.784564
1639.505723	-2.987000	3.298500	-9.851400	27.102868	0.000616	20.801110
1640.505980	-2.985100	3.295900	-9.837000	27.048174	0.000615	20.798262
1641.507895	-3.013700	3.295400	-9.930400	27.043434	0.000614	20.791599
1642.506641	-2.978300	3.296400	-9.817000	27.008544	0.000614	20.806297
1643.507497	-3.008500	3.294500	-9.911000	26.982833	0.000614	20.786606
1644.507965	-3.003200	3.294400	-9.891800	27.023182	0.000614	20.803948
1645.507881	-2.996300	3.295600	-9.873400	27.028991	0.000611	20.799358
1646.510530	-2.981800	3.294100	-9.820800	27.042164	0.000613	20.818770
1647.509214	-3.026900	3.292400	-9.964000	27.071494	0.000611	20.807016
1648.507526	-3.007600	3.292700	-9.901400	27.119158	0.000611	20.789992
1649.508613	-3.006300	3.293200	-9.899500	27.131440	0.000611	20.792862
1650.509939	-3.007900	3.292900	-9.903700	27.160148	0.000612	20.808460
1651.509982	-3.018800	3.292600	-9.938000	27.116923	0.000609	20.799125
1652.509892	-2.981000	3.292800	-9.813200	27.081188	0.000608	20.811075
1653.509538	-2.979300	3.292700	-9.808100	27.035381	0.000610	20.807681
1654.509023	-2.995300	3.291100	-9.855900	27.048034	0.000608	20.807129
1655.513643	-3.009700	3.290200	-9.901700	27.072300	0.000607	20.808301
1656.510313	-3.018700	3.291300	-9.933900	27.078106	0.000608	20.799440
1657.511458	-2.969100	3.292600	-9.774600	27.093340	0.000607	20.802908
1658.510675	-3.000400	3.290500	-9.870000	27.110886	0.000605	20.799692
1659.511519	-2.998500	3.289000	-9.860400	27.133435	0.000603	20.808145
1660.511044	-2.987600	3.290000	-9.828400	27.149066	0.000604	20.827185
1661.514997	-3.019000	3.289500	-9.929600	27.191839	0.000601	20.805247
1662.510927	-2.995900	3.289100	-9.852500	27.216078	0.000603	20.833420
1663.512257	-3.005500	3.286900	-9.877800	27.236201	0.000603	20.816676
1664.514749	-2.992800	3.287500	-9.837500	27.241158	0.000599	20.809334
1665.513845	-2.971400	3.287000	-9.766400	27.226319	0.000601	20.819065
1666.514552	-3.012500	3.286000	-9.897500	27.160272	0.000599	20.798627
1667.514852	-3.015400	3.285800	-9.906400	27.134786	0.000598	20.807608
1668.517793	-3.033000	3.285400	-9.963900	27.126350	0.000598	20.828045
1669.518651	-2.996300	3.286600	-9.846600	27.143223	0.000595	20.810403
1670.515612	-3.030200	3.283500	-9.948100	27.170316	0.000597	20.829118
1671.516156	-2.996300	3.285900	-9.843800	27.149918	0.000597	20.830413
1672.517363	-2.983800	3.284500	-9.799100	27.141580	0.000595	20.840518
1673.520207	-3.014100	3.283000	-9.893700	27.155354	0.000594	20.818336
1674.517774	-3.009700	3.283300	-9.881400	27.168501	0.000591	20.847680
1675.521146	-3.036800	3.282400	-9.966800	27.175572	0.000592	20.808800
1676.518458	-3.000900	3.282800	-9.850000	27.160712	0.000591	20.821354
1677.519547	-3.018100	3.283100	-9.907700	27.180786	0.000590	20.821630
1678.520710	-3.021200	3.282100	-9.914900	27.189149	0.000590	20.832412
1679.520685	-3.006500	3.282400	-9.867300	27.159129	0.000588	20.839202
1680.520895	-3.005700	3.280400	-9.858200	27.136151	0.000587	20.815144
1681.519808	-3.015500	3.281100	-9.892700	27.074693	0.000589	20.842000
1682.523770	-2.996800	3.279800	-9.827400	27.067917	0.000587	20.834712
1683.521006	-3.003900	3.281200	-9.855600	27.058019	0.000586	20.814327
1684.521146	-2.990700	3.281200	-9.811700	27.089256	0.000584	20.825353
1685.520832	-2.996400	3.279900	-9.826500	27.092510	0.000586	20.852332
1686.520216	-3.008400	3.279100	-9.862700	27.093355	0.000584	20.831371
1687.520538	-2.990700	3.280000	-9.808300	27.104269	0.000582	20.819589
1688.524043	-3.007900	3.278800	-9.860900	27.157894	0.000581	20.822787
1689.522062	-3.010200	3.277900	-9.866600	27.181271	0.000581	20.835868
1690.521804	-3.009100	3.277600	-9.862000	27.222182	0.000582	20.852360
1691.523643	-3.000000	3.277100	-9.829700	27.243127	0.000581	20.834074
1692.522561	-3.018300	3.275500	-9.885200	27.291775	0.000581	20.815204
1693.522698	-2.995700	3.276300	-9.813700	27.336902	0.000581	20.853486
1694.525659	-3.007800	3.276100	-9.851600	27.377863	0.000579	20.833526
1695.524919	-2.997800	3.275200	-9.817400	27.360642	0.000581	20.853185
1696.522830	-3.009000	3.273500	-9.848600	27.342383	0.000579	20.867533
1697.523279	-3.005300	3.275000	-9.841200	27.368208	0.000577	20.850365
1698.523875	-2.994500	3.273700	-9.802000	27.381254	0.000576	20.830773
1699.523022	-2.990000	3.274000	-9.788300	27.382222	0.000578	20.817048
1700.523761	-2.994700	3.273800	-9.802500	27.355851	0.000578	20.844573
1701.526511	-3.010400	3.272800	-9.850500	27.401870	0.000577	20.831123
1702.524146	-3.009500	3.271800	-9.845300	27.350343	0.000576	20.840928
1703.524232	-3.018100	3.271300	-9.872400	27.331535	0.000574	20.846190
1704.528487	-2.993600	3.272400	-9.795100	27.331141	0.000577	20.834414
1705.525074	-3.000300	3.270100	-9.809100	27.338630	0.000575	20.837680
1706.524974	-2.999300	3.271200	-9.810700	27.312582	0.000574	20.856522
1707.528926	-2.986700	3.271500	-9.769800	27.279238	0.000573	20.844792
1708.529038	-2.990700	3.270000	-9.778300	27.264129	0.000573	20.855198
1709.524629	-2.998200	3.271000	-9.806400	27.235769	0.000573	20.864603
1710.530638	-3.010700	3.268900	-9.840200	27.265047	0.000569	20.845691
1711.530565	-3.014300	3.269700	-9.855100	27.252341	0.000570	20.846186
1712.528737	-3.003700	3.268800	-9.816500	27.244057	0.000569	20.846862
1713.531505	-2.993000	3.268200	-9.781300	27.263978	0.000570	20.857417
1714.530308	-3.012800	3.267100	-9.841500	27.308312	0.000567	20.844166
1715.530966	-2.972000	3.267400	-9.709300	27.302430	0.000569	20.851526
1716.539799	-2.993100	3.267600	-9.777700	27.294867	0.000567	20.858616
1717.531765	-2.989600	3.265900	-9.762800	27.272361	0.000565	20.869642
1718.532321	-3.009000	3.265500	-9.824500	27.280480	0.000563	20.847464
1719.534131	-3.016100	3.265500	-9.848200	27.280578	0.000564	20.862261
1720.532572	-3.018300	3.265300	-9.855000	27.313648	0.000563	20.875136
1721.532060	-2.987700	3.266100	-9.758000	27.344114	0.000563	20.861688
1722.536959	-3.000900	3.266400	-9.800400	27.405612	0.000560	20.870922
1723.531868	-2.998800	3.264600	-9.788000	27.400357	0.000560	20.858524
1724.532850	-3.005900	3.263100	-9.807600	27.420029	0.000559	20.852237
1725.531471	-2.990000	3.263100	-9.755700	27.436476	0.000559	20.856454
1726.532390	-2.989700	3.262500	-9.753200	27.466963	0.000557	20.862943
1727.533313	-3.023600	3.263700	-9.865500	27.487182	0.000557	20.876647
1728.533340	-2.997700	3.262300	-9.778100	27.493759	0.000557	20.842488
1729.532532	-2.996700	3.261900	-9.774000	27.497730	0.000557	20.842216
1730.532825	-3.002300	3.263000	-9.795300	27.503336	0.000554	20.862080
1731.532679	-2.982500	3.261700	-9.726800	27.520579	0.000554	20.874686
1732.535029	-2.997800	3.261700	-9.776800	27.557785	0.000554	20.871817
1733.545362	-2.998000	3.260700	-9.775100	27.559768	0.000553	20.874287
1734.534290	-2.989400	3.259900	-9.744000	27.567684	0.000553	20.865183
1735.536616	-3.003500	3.259200	-9.787800	27.552186	0.000551	20.874244
1736.535903	-3.003000	3.258600	-9.784900	27.523664	0.000551	20.879686
1737.536457	-2.984300	3.259200	-9.724800	27.507071	0.000551	20.863941
1738.535050	-2.990400	3.257800	-9.741200	27.508861	0.000549	20.867638
1739.538863	-2.990900	3.258600	-9.745100	27.499358	0.000549	20.869457
1740.536273	-3.019500	3.257300	-9.833700	27.439708	0.000547	20.895264
1741.536558	-3.002600	3.256600	-9.776900	27.395576	0.000547	20.892593
1742.540396	-3.007800	3.254900	-9.789500	27.371542	0.000544	20.881218
1743.538908	-3.029000	3.254100	-9.855100	27.380947	0.000547	20.896368
1744.536894	-3.013900	3.256200	-9.812800	27.398809	0.000544	20.869294
1745.539925	-2.999900	3.255900	-9.766700	27.452542	0.000544	20.872616
1746.538118	-2.998700	3.255400	-9.761300	27.489056	0.000543	20.884221
1747.539100	-2.997900	3.254900	-9.757000	27.450459	0.000542	20.881426
1748.538586	-3.005700	3.254300	-9.780100	27.450016	0.000541	20.887618
1749.541228	-3.031800	3.252300	-9.859100	27.453192	0.000541	20.868055
1750.536337	-3.014000	3.251900	-9.799100	27.454233	0.000541	20.897075
1751.537661	-2.972700	3.253600	-9.670700	27.433721	0.000541	20.881182
1752.542166	-3.007200	3.253900	-9.783000	27.412962	0.000541	20.886850
1753.539657	-2.988700	3.253400	-9.722300	27.408200	0.000539	20.881585
1754.540221	-3.012000	3.251100	-9.791400	27.396248	0.000536	20.887579
1755.543736	-3.002000	3.251900	-9.759900	27.410190	0.000537	20.869364
1756.541209	-2.986800	3.252700	-9.713700	27.422023	0.000537	20.879844
1757.541232	-2.998300	3.251300	-9.747200	27.390050	0.000537	20.878500
1758.542658	-2.999500	3.250100	-9.747100	27.392780	0.000535	20.872237
1759.541090	-3.005000	3.250100	-9.766000	27.363655	0.000534	20.857638
1760.541234	-3.002000	3.249800	-9.755000	27.332673	0.000533	20.878627
1761.541137	-3.004000	3.247900	-9.754900	27.343567	0.000535	20.889585
1762.542847	-3.018400	3.247200	-9.798500	27.347886	0.000533	20.869750
1763.542339	-2.998100	3.248200	-9.737200	27.394897	0.000532	20.876738
1764.541810	-3.024000	3.246900	-9.817100	27.397278	0.000531	20.880081
1765.544138	-2.999700	3.245900	-9.736400	27.385945	0.000532	20.869155
1766.546566	-3.023300	3.246000	-9.812900	27.403486	0.000530	20.850767
1767.545448	-3.010500	3.246400	-9.771800	27.397334	0.000530	20.866863
1768.545509	-2.999400	3.246500	-9.736200	27.410408	0.000530	20.864842
1769.546885	-2.989000	3.247200	-9.704700	27.428621	0.000529	20.871310
1770.546883	-2.988000	3.245600	-9.697000	27.444399	0.000528	20.878648
1771.547634	-3.004400	3.244400	-9.747100	27.444849	0.000526	20.859662
1772.546021	-3.000000	3.244700	-9.732200	27.474224	0.000525	20.841327
1773.545918	-2.979400	3.244500	-9.665400	27.513165	0.000526	20.850632
1774.547779	-2.992400	3.245200	-9.710600	27.524651	0.000524	20.851284
1775.545226	-2.978200	3.244400	-9.661600	27.501956	0.000522	20.857373
1776.547785	-2.991300	3.244800	-9.705200	27.460216	0.000524	20.866112
1777.548951	-2.981700	3.243300	-9.669600	27.401401	0.000523	20.862419
1778.547960	-2.993100	3.243200	-9.705900	27.411770	0.000521	20.851514
1779.548919	-2.998800	3.241500	-9.718900	27.423806	0.000522	20.830432
1780.549926	-3.020700	3.241200	-9.789700	27.459875	0.000520	20.848701
1781.548010	-3.016300	3.240400	-9.773800	27.478554	0.000520	20.854691
1782.547904	-3.015400	3.239700	-9.767900	27.517375	0.000519	20.843489
1783.548809	-2.980900	3.240400	-9.658600	27.545728	0.000520	20.845463
1784.548690	-3.005800	3.239000	-9.735500	27.557263	0.000519	20.856121
1785.548665	-3.018100	3.238500	-9.772300	27.556328	0.000516	20.840956
1786.548283	-2.995000	3.239900	-9.702000	27.558705	0.000517	20.843347
1787.553439	-3.009600	3.238200	-9.745000	27.577190	0.000516	20.845824
1788.550665	-2.991000	3.238800	-9.684800	27.540038	0.000514	20.831678
1789.551262	-3.006800	3.236900	-9.731900	27.525404	0.000514	20.850145
1790.554481	-2.981200	3.237600	-9.650600	27.495471	0.000512	20.833306
1791.551775	-3.001900	3.236600	-9.714500	27.471436	0.000510	20.850849
1792.551377	-2.987100	3.237900	-9.670800	27.425628	0.000509	20.843645
1793.550866	-3.002100	3.236400	-9.713300	27.396037	0.000512	20.837110
1794.552241	-3.008500	3.234800	-9.730500	27.357937	0.000510	20.810162
1795.553274	-2.996100	3.233400	-9.686600	27.300878	0.000510	20.844749
1796.554402	-2.992500	3.235200	-9.680500	27.256400	0.000509	20.820398
1797.552846	-2.993200	3.234800	-9.680600	27.235142	0.000507	20.843111
1798.554163	-2.970600	3.234100	-9.606100	27.213682	0.000507	20.837174
1799.554304	-2.983100	3.234800	-9.648200	27.244721	0.000507	20.823349
1800.557715	-3.016800	3.232000	-9.749400	27.321460	0.000505	20.820409
1801.555330	-3.026700	3.231900	-9.781400	27.350237	0.000506	20.826598
1802.554735	-2.994400	3.232600	-9.678500	27.424665	0.000503	20.817547
1803.554310	-3.017900	3.231800	-9.752000	27.425682	0.000503	20.807664
1804.558258	-3.014500	3.231900	-9.742200	27.447517	0.000502	20.823941
1805.554802	-3.013200	3.231500	-9.734800	27.448611	0.000503	20.819352
1806.554275	-2.982500	3.231200	-9.635500	27.484679	0.000500	20.825767
1807.555382	-3.014100	3.230000	-9.734400	27.447848	0.000501	20.822377
1808.554950	-3.009300	3.229100	-9.716300	27.439590	0.000500	20.799845
1809.556972	-2.987600	3.229400	-9.647300	27.419204	0.000500	20.830544
1810.559277	-3.002600	3.228600	-9.693000	27.436445	0.000498	20.819441
1811.561889	-2.982100	3.229000	-9.627800	27.456539	0.000496	20.836337
1812.559451	-3.005600	3.228000	-9.701800	27.457313	0.000496	20.804399
1813.557640	-3.027800	3.226700	-9.768300	27.426657	0.000498	20.796792
1814.561913	-3.016800	3.227600	-9.734600	27.470640	0.000495	20.805479
1815.559508	-3.000800	3.228000	-9.684600	27.505613	0.000495	20.816957
1816.557462	-3.000700	3.226500	-9.680700	27.562197	0.000494	20.807507
1817.559531	-3.010000	3.225100	-9.706500	27.606195	0.000493	20.801042
1818.566280	-2.996400	3.225700	-9.664100	27.610591	0.000494	20.820164
1819.559496	-2.989800	3.227000	-9.646500	27.630157	0.000492	20.812351
1820.559377	-2.981400	3.226700	-9.619300	27.640352	0.000492	20.791315
1821.559146	-2.945000	3.225900	-9.498600	27.678502	0.000492	20.815005
1822.559419	-2.977500	3.224500	-9.599800	27.685398	0.000490	20.798711
1823.560024	-3.012900	3.224700	-9.714400	27.681854	0.000490	20.801308
1824.561017	-3.010200	3.225200	-9.708000	27.701074	0.000487	20.798838
1825.561522	-2.995200	3.223100	-9.652600	27.726272	0.000487	20.804755
1826.560456	-3.001100	3.222400	-9.669500	27.700266	0.000487	20.791861
1827.560906	-3.020500	3.222000	-9.731300	27.675686	0.000485	20.809326
1828.564927	-3.019500	3.219900	-9.721400	27.664726	0.000485	20.815367
1829.562530	-2.996600	3.221700	-9.653200	27.675964	0.000484	20.783054
1830.564902	-3.014300	3.220000	-9.705000	27.663049	0.000484	20.789023
1831.564852	-3.023600	3.219100	-9.732500	27.665725	0.000485	20.812579
1832.563457	-2.994400	3.219200	-9.638800	27.661934	0.000481	20.791221
1833.562399	-2.998900	3.220300	-9.656100	27.669031	0.000482	20.806422
1834.565550	-2.999600	3.220300	-9.658000	27.632902	0.000479	20.792828
1835.563113	-3.012200	3.216300	-9.686800	27.658970	0.000481	20.797248
1836.563277	-2.977000	3.218700	-9.580800	27.676377	0.000480	20.800064
1837.565865	-2.990100	3.220100	-9.627400	27.692254	0.000478	20.790910
1838.563346	-2.997700	3.217900	-9.644400	27.683153	0.000478	20.796926
1839.565081	-2.994300	3.217500	-9.633200	27.672344	0.000477	20.791739
1840.568648	-3.011200	3.215600	-9.682100	27.688741	0.000476	20.785954
1841.566260	-2.995600	3.215600	-9.631400	27.711432	0.000473	20.792666
1842.564753	-3.006400	3.214800	-9.664300	27.673442	0.000474	20.796636
1843.566095	-2.995700	3.216900	-9.636500	27.637510	0.000474	20.778498
1844.565620	-3.018000	3.214600	-9.700400	27.629032	0.000473	20.780399
1845.564012	-3.023900	3.213900	-9.716500	27.644435	0.000473	20.805855
1846.565454	-2.996700	3.214900	-9.633000	27.685880	0.000470	20.777858
1847.568968	-3.014600	3.213100	-9.685100	27.727869	0.000469	20.798775
1848.566009	-2.983900	3.214400	-9.589800	27.768291	0.000468	20.770700
1849.567725	-2.983200	3.212200	-9.581600	27.746174	0.000468	20.774996
1850.570340	-3.001800	3.212700	-9.642300	27.707288	0.000466	20.787547
1851.571877	-3.005200	3.211600	-9.649700	27.669891	0.000467	20.788797
1852.567859	-3.013700	3.210500	-9.673700	27.682076	0.000464	20.780669
1853.567864	-2.999800	3.210800	-9.629600	27.719821	0.000465	20.766968
1854.567686	-3.014300	3.210300	-9.676100	27.686215	0.000464	20.767764
1855.570426	-3.001600	3.210900	-9.636400	27.736238	0.000464	20.795817
1856.567486	-2.993800	3.211200	-9.613200	27.721361	0.000463	20.771837
1857.567790	-2.976300	3.212100	-9.558600	27.690312	0.000464	20.772361
1858.566906	-2.983900	3.210000	-9.578100	27.631591	0.000461	20.799569
1859.567360	-2.991200	3.209600	-9.599600	27.618523	0.000463	20.760815
1860.570614	-2.995200	3.207300	-9.605600	27.638118	0.000460	20.771997
1861.570572	-2.974900	3.209500	-9.545900	27.699026	0.000458	20.766431
1862.570866	-3.002000	3.207200	-9.627400	27.736971	0.000458	20.768579
1863.571088	-2.979700	3.207300	-9.555300	27.724027	0.000459	20.773572
1864.570567	-2.994100	3.206200	-9.599500	27.716369	0.000457	20.750218
1865.570440	-2.995500	3.205300	-9.600300	27.715406	0.000457	20.775802
1866.571222	-3.023100	3.204700	-9.687000	27.720139	0.000452	20.765391
1867.572280	-2.997300	3.208300	-9.614900	27.739588	0.000456	20.769790
1868.571455	-2.998200	3.206100	-9.611800	27.753895	0.000454	20.768067
1869.571532	-3.012600	3.203900	-9.651100	27.726075	0.000452	20.784642
1870.572050	-3.018600	3.204100	-9.670800	27.721535	0.000453	20.781022
1871.572636	-2.986200	3.201900	-9.560100	27.715217	0.000452	20.768499
1872.573027	-2.995900	3.203500	-9.596200	27.762957	0.000451	20.760591
1873.573110	-2.994500	3.202700	-9.589600	27.768488	0.000450	20.771373
1874.573672	-3.005200	3.202400	-9.622300	27.794106	0.000448	20.754480
1875.575053	-3.007200	3.202200	-9.628800	27.804000	0.000448	20.765860
1876.575904	-2.992300	3.202900	-9.583200	27.771888	0.000447	20.761993
1877.577213	-3.023100	3.200600	-9.674900	27.735936	0.000447	20.754735
1878.576087	-2.996400	3.201100	-9.591000	27.746875	0.000446	20.767641
1879.577954	-3.017000	3.199300	-9.650700	27.755479	0.000446	20.751169
1880.583314	-2.981000	3.199900	-9.537900	27.753349	0.000445	20.757560
1881.576338	-2.993600	3.198700	-9.574400	27.737210	0.000446	20.765026
1882.579871	-3.003300	3.198300	-9.604400	27.775993	0.000445	20.753795
1883.578831	-2.996300	3.198300	-9.582400	27.804860	0.000442	20.774786
1884.577983	-3.015500	3.197000	-9.639800	27.840895	0.000441	20.770749
1885.576602	-3.016100	3.195200	-9.635400	27.868884	0.000440	20.769046
1886.582215	-2.989400	3.197500	-9.557300	27.777959	0.000439	20.762412
1887.578221	-2.996000	3.195600	-9.572900	27.771416	0.000439	20.762939
1888.579015	-3.009500	3.196300	-9.617800	27.723160	0.000437	20.764164
1889.583007	-3.021500	3.197200	-9.659100	27.702157	0.000437	20.763892
1890.579919	-3.002500	3.194400	-9.590500	27.706844	0.000436	20.743003
1891.579572	-3.012300	3.196000	-9.626500	27.732985	0.000436	20.784008
1892.582198	-3.009400	3.194000	-9.610600	27.683686	0.000434	20.758107
1893.579905	-2.986300	3.196700	-9.544700	27.650058	0.000433	20.765046
1894.580322	-2.996600	3.195100	-9.573400	27.710994	0.000432	20.760457
1895.580417	-3.013400	3.194100	-9.624300	27.714096	0.000430	20.739869
1896.580153	-2.996500	3.194000	-9.569100	27.717173	0.000429	20.750552
1897.581246	-3.018200	3.190800	-9.629100	27.703959	0.000430	20.767128
1898.581795	-3.009400	3.191300	-9.602800	27.668423	0.000430	20.747489
1899.584660	-3.013900	3.191700	-9.617900	27.704655	0.000426	20.755026
1900.581560	-2.997100	3.190600	-9.561300	27.725142	0.000423	20.744347
1901.582144	-3.012100	3.191200	-9.610900	27.727153	0.000425	20.745423
1902.583428	-2.993200	3.190200	-9.547800	27.696452	0.000424	20.729700
1903.582177	-2.979100	3.190400	-9.503900	27.690425	0.000424	20.743076
1904.584060	-2.989300	3.190500	-9.536800	27.691073	0.000424	20.757005
1905.584272	-3.001300	3.189500	-9.570100	27.725223	0.000421	20.719771
1906.583383	-2.982200	3.189200	-9.510100	27.772914	0.000421	20.750222
1907.584100	-3.005400	3.187000	-9.575600	27.781222	0.000419	20.735349
1908.582760	-2.995400	3.187700	-9.547000	27.798655	0.000418	20.772334
1909.582552	-2.997600	3.186700	-9.551800	27.777485	0.000419	20.753400
1910.583728	-2.996200	3.186200	-9.545500	27.781775	0.000416	20.758191
1911.582707	-2.988900	3.185400	-9.519900	27.847263	0.000417	20.746811
1912.583238	-3.008200	3.185500	-9.582000	27.893236	0.000416	20.735233
1913.583524	-2.994700	3.185600	-9.539100	27.957210	0.000414	20.749363
1914.584651	-3.002100	3.182600	-9.553100	27.931898	0.000412	20.748543
1915.585910	-2.998200	3.183800	-9.544900	27.912805	0.000413	20.743075
1916.586572	-2.992300	3.184300	-9.527200	27.884616	0.000412	20.731773
1917.586493	-2.998900	3.182500	-9.543100	27.908819	0.000411	20.741908
1918.588969	-3.027000	3.182300	-9.631600	27.941897	0.000410	20.748176
1919.593958	-3.031800	3.181100	-9.643500	27.985658	0.000410	20.736746
1920.592674	-2.983900	3.182400	-9.495500	28.015412	0.000411	20.748204
1921.591279	-2.988100	3.182000	-9.507300	28.069778	0.000408	20.748402
1922.591404	-3.003000	3.180900	-9.551000	28.089393	0.000407	20.763881
1923.590670	-2.984800	3.180200	-9.490100	28.128192	0.000405	20.729917
1924.593054	-3.002200	3.180400	-9.545400	28.123949	0.000405	20.752674
1925.592721	-3.017300	3.177800	-9.587200	28.083172	0.000404	20.740547
1926.591069	-2.997300	3.179700	-9.529400	28.008506	0.000405	20.728449
1927.592813	-3.008900	3.179100	-9.565000	27.968469	0.000402	20.722289
1928.590693	-2.996400	3.178600	-9.521600	27.952133	0.000404	20.720070
1929.604384	-3.001300	3.177100	-9.534500	27.974474	0.000400	20.734972
1930.591228	-3.001300	3.177400	-9.535200	27.977055	0.000400	20.728086
1931.594200	-2.995300	3.178100	-9.517300	27.969522	0.000398	20.729987
1932.594419	-3.001200	3.177700	-9.536200	27.947926	0.000398	20.719629
1933.593062	-3.008100	3.178400	-9.557600	27.901460	0.000397	20.722173
1934.593809	-2.994400	3.176500	-9.510900	27.863603	0.000397	20.725323
1935.595345	-2.995000	3.174200	-9.506700	27.819969	0.000397	20.735462
1936.593915	-3.030500	3.173700	-9.617000	27.813348	0.000395	20.742076
1937.595534	-2.997400	3.172900	-9.510200	27.829744	0.000395	20.721117
1938.596274	-2.991900	3.172300	-9.490000	27.867430	0.000393	20.729648
1939.598142	-3.039900	3.171200	-9.638400	27.917076	0.000394	20.730304
1940.597642	-3.014900	3.172300	-9.562400	27.936911	0.000393	20.723241
1941.597949	-2.987500	3.171200	-9.473100	27.909694	0.000392	20.717657
1942.599000	-2.992600	3.170500	-9.487400	27.895757	0.000391	20.738245
1943.599444	-2.979600	3.172000	-9.450200	27.917485	0.000389	20.705110
1944.599549	-2.991400	3.170600	-9.483700	27.943219	0.000390	20.720581
1945.599985	-2.995000	3.170000	-9.492200	27.969480	0.000387	20.716193
1946.600700	-3.031200	3.169700	-9.606100	27.976427	0.000386	20.734567
1947.601566	-3.001200	3.170100	-9.513400	27.950121	0.000386	20.720890
1948.600964	-3.016000	3.167900	-9.553700	27.902393	0.000385	20.720267
1949.601098	-3.000600	3.168600	-9.506300	27.858138	0.000388	20.731676
1950.602916	-2.967100	3.169900	-9.403700	27.816908	0.000383	20.735226
1951.602840	-2.992600	3.166200	-9.474400	27.807018	0.000381	20.722902
1952.601549	-2.997000	3.166700	-9.488700	27.790282	0.000383	20.695151
1953.601666	-2.998400	3.165000	-9.488000	27.800082	0.000381	20.730146
1954.604153	-2.990900	3.165900	-9.466200	27.855180	0.000381	20.713525
1955.602429	-2.994200	3.164600	-9.474400	27.915932	0.000379	20.705443
1956.606519	-2.978800	3.164400	-9.424900	27.932375	0.000378	20.702079
1957.603450	-2.996800	3.163100	-9.478300	27.958780	0.000378	20.696887
1958.603930	-2.993300	3.163800	-9.469100	27.886461	0.000378	20.716560
1959.606801	-3.004000	3.161900	-9.496700	27.867744	0.000374	20.716214
1960.602962	-2.997100	3.162900	-9.477900	27.821750	0.000375	20.691259
1961.602722	-3.000700	3.161400	-9.484400	27.879477	0.000374	20.711426
1962.606174	-2.996700	3.162100	-9.475000	27.911069	0.000373	20.701023
1963.602380	-3.017000	3.160900	-9.535600	27.947593	0.000375	20.695584
1964.603913	-2.980300	3.160300	-9.417600	27.992074	0.000371	20.696260
1965.605158	-3.012900	3.158000	-9.513500	28.026392	0.000372	20.708045
1966.604867	-3.010000	3.158300	-9.505900	28.027338	0.000371	20.710894
1967.604791	-3.009300	3.157700	-9.501800	28.032052	0.000370	20.716115
1968.604759	-2.995800	3.160700	-9.468200	28.027567	0.000368	20.705909
1969.605857	-2.994800	3.159500	-9.461200	27.993381	0.000369	20.691885
1970.605209	-2.986200	3.158800	-9.429700	28.003449	0.000367	20.696331
1971.606109	-3.026100	3.156100	-9.550000	28.043419	0.000366	20.700054
1972.607891	-2.960200	3.158000	-9.347200	28.081253	0.000365	20.697836
1973.606811	-3.002200	3.155600	-9.472300	28.103296	0.000364	20.719553
1974.606138	-2.982900	3.158200	-9.419700	28.126875	0.000365	20.689708
1975.608183	-3.012200	3.155300	-9.502200	28.173999	0.000363	20.712020
1976.606027	-3.014300	3.154900	-9.508300	28.209797	0.000363	20.696376
1977.607051	-3.002900	3.154100	-9.470200	28.246982	0.000363	20.683078
1978.606387	-3.032600	3.152800	-9.559400	28.292368	0.000361	20.703646
1979.605559	-3.014600	3.152100	-9.501600	28.274993	0.000359	20.696108
1980.606846	-3.025400	3.151900	-9.533000	28.313916	0.000360	20.723920
1981.607982	-3.000900	3.151100	-9.454400	28.364626	0.000358	20.687259
1982.610378	-2.998100	3.150400	-9.444200	28.386046	0.000356	20.683222
1983.610433	-2.991000	3.150800	-9.423200	28.406417	0.000356	20.677182
1984.608030	-3.020100	3.148900	-9.507500	28.366916	0.000356	20.694781
1985.608451	-3.003400	3.148500	-9.454800	28.340549	0.000356	20.702372
1986.611530	-2.993400	3.149400	-9.426100	28.340971	0.000353	20.704219
1987.608891	-2.984900	3.147200	-9.392800	28.333539	0.000353	20.692942
1988.609394	-2.991200	3.146200	-9.409900	28.313789	0.000352	20.702929
1989.614710	-2.989800	3.147000	-9.408200	28.311685	0.000351	20.696542
1990.609803	-2.998500	3.145500	-9.430200	28.278032	0.000350	20.711023
1991.610648	-3.000700	3.145300	-9.436800	28.264129	0.000348	20.703663
1992.613860	-2.972300	3.146100	-9.348900	28.249927	0.000350	20.711176
1993.613906	-2.989400	3.146500	-9.405300	28.211985	0.000348	20.700950
1994.611596	-2.994700	3.144200	-9.414200	28.170392	0.000349	20.689421
1995.615456	-3.003300	3.143800	-9.441000	28.127732	0.000349	20.706220
1996.611594	-3.021800	3.143000	-9.496600	28.170494	0.000345	20.715604
1997.611901	-3.012100	3.141000	-9.458900	28.135244	0.000346	20.688176
1998.613266	-2.998700	3.141800	-9.420000	28.111378	0.000344	20.689281
1999.613903	-2.973800	3.141900	-9.342700	28.074070	0.000344	20.705304
2000.614256	-2.984100	3.141100	-9.372400	28.044375	0.000343	20.707655
2001.619592	-3.007400	3.140900	-9.443900	28.056077	0.000341	20.693355
2002.615671	-2.996700	3.140200	-9.408700	28.074574	0.000340	20.686844
2003.616405	-2.995900	3.141600	-9.409200	28.112923	0.000338	20.718813
2004.617751	-2.985300	3.138000	-9.366300	28.131841	0.000339	20.691862
2005.619781	-2.987100	3.138700	-9.374500	28.218775	0.000340	20.683603
2006.617712	-2.993100	3.138200	-9.391700	28.246193	0.000339	20.691768
2007.618645	-2.989300	3.138400	-9.380900	28.231172	0.000337	20.715053
2008.619667	-2.978900	3.137700	-9.346300	28.219574	0.000335	20.687253
2009.620829	-2.985200	3.136500	-9.362200	28.148064	0.000335	20.703928
2010.619672	-3.003200	3.136600	-9.418600	28.085994	0.000335	20.696444
2011.621505	-3.004900	3.133900	-9.415400	28.077618	0.000332	20.704608
2012.619552	-2.987900	3.134200	-9.363700	28.100026	0.000332	20.695871
2013.619385	-3.021900	3.133400	-9.467000	28.146586	0.000330	20.705759
2014.623244	-3.011100	3.131600	-9.428900	28.215774	0.000329	20.688169
2015.620055	-2.977700	3.133200	-9.328400	28.202710	0.000332	20.709157
2016.621030	-2.989800	3.132000	-9.363200	28.187565	0.000330	20.694857
2017.624393	-3.002100	3.130200	-9.396600	28.197411	0.000328	20.692441
2018.621636	-2.993600	3.129700	-9.367900	28.179514	0.000327	20.703821
2019.624259	-2.965100	3.129800	-9.278700	28.138592	0.000327	20.729481
2020.619941	-2.961000	3.130500	-9.268800	28.117274	0.000326	20.690948
2021.624612	-3.012900	3.128200	-9.423000	28.080912	0.000324	20.717408
2022.621667	-3.011300	3.128800	-9.420800	28.084508	0.000325	20.721503
2023.621735	-2.985000	3.128200	-9.336800	28.063640	0.000323	20.716143
2024.624012	-3.033300	3.124100	-9.474800	28.073462	0.000323	20.704692
2025.622992	-2.993900	3.126800	-9.360400	28.127747	0.000323	20.701966
2026.623813	-3.012800	3.125400	-9.414900	28.192325	0.000322	20.707710
2027.623592	-2.993800	3.125000	-9.354200	28.271303	0.000320	20.719895
2028.623638	-2.995600	3.124900	-9.360500	28.301467	0.000321	20.719920
2029.623430	-2.997200	3.123900	-9.361500	28.339365	0.000319	20.726785
2030.624441	-3.010600	3.121900	-9.397000	28.344549	0.000319	20.734851
2031.624163	-2.997700	3.122100	-9.357600	28.368717	0.000317	20.715088
2032.624279	-3.023700	3.119800	-9.432200	28.414667	0.000315	20.711097
2033.627120	-3.000300	3.120700	-9.361700	28.445925	0.000316	20.691362
2034.625127	-2.992400	3.120300	-9.336600	28.438092	0.000313	20.697226
2035.624014	-2.996200	3.119700	-9.345700	28.507184	0.000312	20.712750
2036.627114	-2.977300	3.120200	-9.288700	28.543888	0.000313	20.708462
2037.624209	-2.990200	3.119300	-9.325900	28.516187	0.000310	20.722766
2038.625637	-2.989600	3.119100	-9.323200	28.477853	0.000309	20.712136
2039.627143	-3.011800	3.117200	-9.385900	28.467769	0.000313	20.704826
2040.626891	-3.015700	3.115800	-9.395200	28.479736	0.000311	20.706920
2041.625915	-3.012000	3.115400	-9.382800	28.467626	0.000309	20.728865
2042.626340	-2.990300	3.115100	-9.313900	28.433626	0.000308	20.711221
2043.626513	-2.993000	3.115800	-9.324600	28.395117	0.000308	20.712747
2044.625838	-3.019700	3.112700	-9.398600	28.405652	0.000307	20.737582
2045.628726	-3.004900	3.113600	-9.355000	28.416683	0.000308	20.711230
2046.626188	-3.011300	3.113000	-9.373500	28.431055	0.000305	20.722858
2047.627005	-2.984600	3.111700	-9.286500	28.492667	0.000307	20.718520
2048.629663	-2.989000	3.111500	-9.298900	28.523570	0.000305	20.707441
2049.626856	-3.005500	3.109700	-9.345400	28.560494	0.000303	20.739413
2050.627232	-2.965300	3.110300	-9.221600	28.593656	0.000305	20.728240
2051.627431	-2.991100	3.109400	-9.298500	28.552647	0.000302	20.731035
2052.630345	-2.988000	3.109900	-9.291200	28.577501	0.000301	20.741368
2053.626560	-2.983600	3.108200	-9.273000	28.566927	0.000301	20.747315
2054.627442	-3.016700	3.106100	-9.369200	28.527055	0.000299	20.750308
2055.633593	-2.998500	3.106100	-9.311500	28.460053	0.000300	20.731671
2056.630190	-3.007400	3.106500	-9.341200	28.429947	0.000298	20.720320
2057.631266	-3.005900	3.105800	-9.334600	28.406403	0.000297	20.716526
2058.631126	-3.013200	3.104100	-9.352400	28.382585	0.000299	20.753236
2059.631852	-2.989300	3.104000	-9.277700	28.407001	0.000294	20.734673
2060.631811	-2.997900	3.101700	-9.296500	28.435557	0.000294	20.722176
2061.632616	-3.007500	3.100800	-9.324700	28.482020	0.000292	20.733404
2062.633978	-3.022200	3.100500	-9.367700	28.501005	0.000293	20.729289
2063.632893	-3.011800	3.100100	-9.335600	28.541799	0.000291	20.754725
2064.633446	-2.992900	3.100400	-9.278600	28.584864	0.000290	20.729342
2065.635986	-3.017500	3.099000	-9.349500	28.650659	0.000289	20.741082
2066.633619	-3.007600	3.098100	-9.316500	28.648326	0.000288	20.740154
2067.634336	-2.962200	3.098700	-9.177300	28.647192	0.000287	20.747548
2068.637895	-3.005200	3.095900	-9.302800	28.653459	0.000288	20.733945
2069.635418	-2.991700	3.097800	-9.266000	28.655220	0.000287	20.732873
2070.635060	-3.054600	3.095300	-9.453100	28.697838	0.000287	20.744505
2071.636044	-3.013700	3.094800	-9.325600	28.655920	0.000286	20.731682
2072.635885	-2.981700	3.095000	-9.226400	28.598833	0.000285	20.733455
2073.636639	-3.006300	3.095100	-9.303900	28.518354	0.000285	20.730165
2074.636324	-3.020100	3.092100	-9.336600	28.463516	0.000283	20.747012
2075.636526	-2.998700	3.092100	-9.272100	28.422825	0.000282	20.743495
2076.636333	-3.030800	3.090800	-9.366800	28.428701	0.000283	20.729971
2077.636260	-3.012400	3.089100	-9.303800	28.395813	0.000281	20.745693
2078.638959	-2.998200	3.089900	-9.262700	28.374231	0.000281	20.723485
2079.641389	-3.021300	3.087900	-9.328100	28.368114	0.000282	20.738664
2080.639048	-2.996900	3.088400	-9.254900	28.402513	0.000278	20.741533
2081.640673	-3.006700	3.088000	-9.283400	28.460327	0.000278	20.742378
2082.639237	-3.000300	3.086300	-9.257400	28.515493	0.000280	20.747199
2083.639852	-3.008700	3.086100	-9.283900	28.557298	0.000277	20.748997
2084.643627	-2.994000	3.087000	-9.241700	28.530417	0.000276	20.743736
2085.640830	-3.007000	3.085300	-9.276400	28.555595	0.000278	20.752024
2086.641914	-3.017700	3.083800	-9.305000	28.607981	0.000276	20.750255
2087.645486	-3.006000	3.083500	-9.268100	28.625150	0.000275	20.753323
2088.642634	-2.990100	3.082700	-9.216600	28.588212	0.000274	20.749311
2089.643799	-2.980000	3.082700	-9.184900	28.616709	0.000273	20.751460
2090.644961	-3.005300	3.080400	-9.256500	28.670107	0.000273	20.757826
2091.647620	-2.999000	3.081200	-9.239100	28.690173	0.000273	20.746743
2092.646075	-3.031200	3.078400	-9.330600	28.697980	0.000272	20.749864
2093.644846	-3.001500	3.078000	-9.237800	28.674172	0.000273	20.760024
2094.647751	-3.012900	3.077900	-9.272000	28.655224	0.000272	20.772707
2095.649924	-2.994700	3.076100	-9.211000	28.639463	0.000270	20.765842
2096.648876	-2.984600	3.074900	-9.176600	28.644396	0.000267	20.778871
2097.649572	-2.984200	3.075500	-9.175500	28.605125	0.000267	20.773932
2098.653522	-3.003500	3.073400	-9.230500	28.570364	0.000268	20.772114
2099.650446	-3.018600	3.072400	-9.273300	28.569971	0.000265	20.761761
2100.651122	-2.999600	3.072500	-9.215000	28.534710	0.000268	20.766552
2101.656594	-2.986700	3.073000	-9.176700	28.518902	0.000266	20.735933
2102.654406	-3.029400	3.071000	-9.302300	28.478337	0.000264	20.764309
2103.653377	-2.924900	3.072300	-8.983800	28.475516	0.000265	20.775694
2104.651988	-3.002000	3.069900	-9.215000	28.527455	0.000264	20.755927
2105.651824	-2.986300	3.069100	-9.164200	28.525748	0.000262	20.741879
2106.653088	-2.968100	3.069200	-9.107600	28.531275	0.000264	20.768309
2107.653045	-2.994700	3.067700	-9.186400	28.521736	0.000261	20.776246
2108.653275	-2.979200	3.067400	-9.137500	28.576748	0.000263	20.767637
2109.655261	-2.999200	3.064800	-9.190700	28.588449	0.000261	20.760929
2110.654153	-2.982100	3.065700	-9.140300	28.624724	0.000262	20.747203
2111.656651	-3.017900	3.063800	-9.243700	28.654608	0.000263	20.780148
2112.657324	-2.989000	3.064200	-9.157300	28.664367	0.000258	20.781442
2113.656823	-3.011800	3.061200	-9.218800	28.648140	0.000258	20.778375
2114.659317	-2.960700	3.063600	-9.069500	28.629985	0.000259	20.756296
2115.657375	-3.024400	3.060000	-9.253600	28.605671	0.000258	20.772112
2116.659082	-2.985900	3.059500	-9.134400	28.585211	0.000258	20.790860
2117.658114	-2.981600	3.057800	-9.116000	28.546928	0.000257	20.772219
2118.662326	-2.994600	3.059400	-9.161200	28.540509	0.000257	20.757219
2119.660939	-2.981300	3.057800	-9.115100	28.537140	0.000257	20.762835
2120.659145	-3.005700	3.054200	-9.178600	28.569351	0.000254	20.774413
2121.661862	-2.997100	3.055600	-9.157100	28.560778	0.000254	20.776211
2122.661282	-3.026000	3.053000	-9.236200	28.555501	0.000255	20.788440
2123.657835	-3.008200	3.051700	-9.179300	28.518728	0.000252	20.765631
2124.663086	-3.011700	3.052100	-9.190900	28.510753	0.000252	20.802644
2125.665012	-2.985100	3.051800	-9.108800	28.482798	0.000251	20.795829
2126.659289	-3.012100	3.049700	-9.184700	28.541254	0.000251	20.784049
2127.663389	-3.001400	3.048300	-9.148000	28.609123	0.000252	20.779856
2128.664671	-2.986700	3.047800	-9.101300	28.622903	0.000251	20.790889
2129.660494	-2.992100	3.047800	-9.118000	28.636629	0.000250	20.778161
2130.664709	-3.014600	3.044900	-9.178200	28.686457	0.000251	20.776664
2131.664615	-3.004600	3.044200	-9.145600	28.713686	0.000250	20.792238
2132.661894	-3.010700	3.043600	-9.161900	28.751496	0.000251	20.781485
2133.663960	-3.005700	3.043400	-9.147000	28.779887	0.000248	20.789220
2134.661633	-3.036400	3.040900	-9.232000	28.801617	0.000250	20.776970
2135.661313	-2.983600	3.042000	-9.075100	28.829712	0.000248	20.795788
2136.664364	-3.015600	3.039800	-9.165900	28.813704	0.000248	20.787723
2137.661131	-3.030300	3.039200	-9.208000	28.803897	0.000248	20.797285
2138.661037	-2.982900	3.039300	-9.064500	28.824554	0.000247	20.783480
2139.661631	-3.017000	3.037500	-9.162400	28.838728	0.000247	20.805819
2140.664130	-3.044000	3.035000	-9.236400	28.774267	0.000245	20.800629
2141.660588	-3.013100	3.036000	-9.145100	28.753605	0.000246	20.795936
2142.660752	-2.984600	3.033500	-9.052700	28.756924	0.000244	20.781262
2143.663455	-2.994600	3.034700	-9.086500	28.779396	0.000245	20.820019
2144.663994	-3.008200	3.031800	-9.119100	28.781401	0.000243	20.797384
2145.663014	-3.013800	3.030300	-9.132100	28.831643	0.000245	20.806269
2146.667827	-2.989100	3.030800	-9.058300	28.851584	0.000243	20.805968
2147.665526	-2.988500	3.029600	-9.051900	28.877250	0.000242	20.804323
2148.665413	-3.005000	3.027400	-9.095900	28.878142	0.000242	20.805696
2149.668874	-2.992800	3.027000	-9.056900	28.900362	0.000243	20.815278
2150.665370	-3.020100	3.024800	-9.134400	28.953770	0.000241	20.810763
2151.665524	-2.996300	3.024100	-9.060200	28.976483	0.000241	20.826534
2152.668551	-3.014100	3.023400	-9.111900	29.056044	0.000240	20.793372
2153.665484	-3.017500	3.021900	-9.116700	29.064338	0.000242	20.807894
2154.664950	-3.001800	3.021400	-9.068200	29.056514	0.000241	20.818502
2155.668763	-2.997400	3.021400	-9.055500	29.014975	0.000238	20.799408
2156.666108	-3.052000	3.017900	-9.208700	29.010965	0.000240	20.827136
2157.666807	-3.038500	3.016800	-9.165600	28.969002	0.000239	20.814255
2158.671012	-2.991200	3.016900	-9.022500	28.954044	0.000239	20.803927
2159.666889	-3.017100	3.014700	-9.095100	28.885055	0.000238	20.811237
2160.667770	-2.993700	3.014300	-9.022500	28.868263	0.000237	20.821347
2161.671855	-2.986300	3.013700	-8.998800	28.871263	0.000238	20.834327
2162.667660	-3.013500	3.012100	-9.075000	28.917633	0.000237	20.835522
2163.673725	-3.024500	3.009400	-9.099400	28.897767	0.000239	20.822147
2164.671803	-2.988400	3.011700	-8.998600	28.932625	0.000238	20.808900
2165.671151	-3.003600	3.009600	-9.039000	28.977007	0.000235	20.818527
2166.670426	-3.003800	3.006900	-9.030100	29.036852	0.000236	20.818132
2167.671682	-3.000400	3.007000	-9.021200	29.030039	0.000236	20.821698
2168.671811	-2.981000	3.006600	-8.961100	29.100900	0.000236	20.811543
2169.674646	-3.023400	3.003600	-9.079400	29.138050	0.000236	20.819105
2170.672754	-2.993000	3.003300	-8.987300	29.163337	0.000235	20.830360
2171.673285	-2.995200	3.001500	-8.988400	29.206998	0.000235	20.812244
2172.674153	-3.014900	2.999900	-9.042100	29.163312	0.000236	20.824646
2173.672782	-3.013300	2.998500	-9.035000	29.118933	0.000235	20.849627
2174.674642	-2.979200	2.999600	-8.935600	29.110640	0.000234	20.827994
2175.673380	-3.012000	2.998100	-9.028400	29.103331	0.000233	20.831536
2176.672906	-2.997600	2.996600	-8.981500	29.119634	0.000233	20.816669
2177.675160	-3.017400	2.994900	-9.036400	29.099391	0.000233	20.841789
2178.673383	-3.001000	2.992300	-8.978400	29.061847	0.000234	20.841418
2179.674517	-2.998700	2.991300	-8.968600	29.023107	0.000232	20.828464
2180.675222	-3.002900	2.991600	-8.982200	28.936693	0.000232	20.838129
2181.675101	-3.018600	2.989800	-9.024300	28.871169	0.000231	20.824749
2182.675662	-2.986800	2.989500	-8.927500	28.823930	0.000230	20.832637
2183.675964	-2.980300	2.988200	-8.905400	28.812707	0.000232	20.827495
2184.675248	-3.005600	2.986900	-8.976600	28.799752	0.000230	20.852378
2185.678316	-3.002500	2.985700	-8.961600	28.808053	0.000230	20.836558
2186.677004	-3.008500	2.982100	-8.970200	28.793511	0.000230	20.842771
2187.679963	-3.003300	2.981500	-8.953100	28.790608	0.000229	20.832262
2188.680562	-2.987200	2.981300	-8.905200	28.792574	0.000230	20.836612
2189.677464	-3.002700	2.979700	-8.946400	28.814054	0.000230	20.845922
2190.680286	-3.008100	2.978300	-8.957700	28.815986	0.000228	20.827006
2191.680622	-2.991900	2.978300	-8.909700	28.815564	0.000230	20.819943
2192.677649	-2.998300	2.974500	-8.917100	28.882724	0.000230	20.844450
2193.682890	-3.017300	2.972400	-8.967500	28.952106	0.000228	20.846544
2194.684222	-3.002600	2.972200	-8.923600	28.983295	0.000227	20.846198
2195.680655	-3.010100	2.970400	-8.940500	29.020154	0.000229	20.838765
2196.685175	-3.006500	2.970000	-8.928000	29.009207	0.000230	20.857132
2197.682312	-3.042000	2.965300	-9.018900	29.046679	0.000229	20.844153
2198.682169	-3.018800	2.965600	-8.951200	29.077914	0.000230	20.857132
2199.686084	-3.001900	2.964700	-8.899000	29.108104	0.000229	20.863844
2200.684492	-2.985800	2.965600	-8.853800	29.141739	0.000228	20.845106
2201.684824	-2.999400	2.962000	-8.882700	29.143822	0.000229	20.845783
2202.686908	-2.992200	2.961400	-8.860500	29.122005	0.000228	20.836601
2203.685091	-3.019300	2.956700	-8.925800	29.135720	0.000230	20.853265
2204.685119	-2.985200	2.958900	-8.831900	29.132308	0.000231	20.865474
2205.686526	-3.006700	2.955700	-8.885300	29.151993	0.000228	20.860654
2206.687263	-3.019000	2.952500	-8.912200	29.163442	0.000231	20.855122
2207.685597	-3.034900	2.952300	-8.958900	29.186204	0.000230	20.861937
2208.690065	-3.008100	2.951500	-8.876800	29.239985	0.000228	20.855443
2209.689766	-3.025900	2.948400	-8.920600	29.280546	0.000228	20.865024
2210.690394	-3.005300	2.949100	-8.861800	29.293778	0.000229	20.879781
2211.689714	-2.992100	2.949200	-8.823100	29.265274	0.000228	20.852005
2212.688471	-3.011900	2.945700	-8.870800	29.265917	0.000230	20.866402
2213.689193	-3.015800	2.942500	-8.873400	29.249478	0.000227	20.882551
2214.690924	-2.987600	2.943100	-8.792000	29.254894	0.000228	20.863829
2215.695927	-2.971200	2.942300	-8.741800	29.260378	0.000228	20.870777
2216.692028	-3.000500	2.939400	-8.818700	29.287118	0.000224	20.860741
2217.692979	-3.021000	2.936600	-8.870600	29.271096	0.000227	20.863087
2218.694644	-3.010500	2.934800	-8.834800	29.266171	0.000226	20.846270
2219.692586	-3.038100	2.933600	-8.911200	29.267440	0.000225	20.859877
2220.694815	-3.004500	2.931700	-8.807400	29.286284	0.000223	20.865117
2221.694117	-2.997700	2.931700	-8.786900	29.318845	0.000227	20.877069
2222.692663	-2.997100	2.931200	-8.784100	29.339006	0.000226	20.854715
2223.693234	-3.000500	2.927500	-8.782400	29.369012	0.000226	20.856508
2224.696041	-2.976200	2.926700	-8.709300	29.370874	0.000225	20.859333
2225.693986	-2.980800	2.925500	-8.719200	29.364685	0.000225	20.851198
2226.693382	-2.995400	2.923400	-8.755200	29.382321	0.000224	20.862335
2227.695698	-2.999900	2.921900	-8.764000	29.349958	0.000225	20.853900
2228.695485	-2.991400	2.920400	-8.735600	29.317026	0.000226	20.838253
2229.694096	-2.967800	2.918400	-8.659800	29.283524	0.000225	20.886989
2230.698582	-3.020500	2.915600	-8.805900	29.285704	0.000226	20.857895
2231.697917	-3.000200	2.916200	-8.747200	29.262013	0.000224	20.847296
2232.697224	-3.029500	2.911600	-8.819400	29.218599	0.000224	20.841004
2233.698166	-2.986700	2.913600	-8.700600	29.223333	0.000226	20.835343
2234.698910	-3.025900	2.909400	-8.802400	29.167537	0.000224	20.836964
2235.697762	-2.993100	2.908700	-8.705000	29.181604	0.000224	20.840233
2236.700656	-2.976300	2.905600	-8.646700	29.217966	0.000224	20.850797
2237.698273	-2.999000	2.902300	-8.702700	29.251676	0.000223	20.839249
2238.699697	-3.012200	2.902600	-8.742400	29.256699	0.000225	20.831036
2239.701223	-2.992400	2.901500	-8.681500	29.234414	0.000225	20.815690
2240.699454	-3.012800	2.898300	-8.730800	29.247593	0.000225	20.819014
2241.699912	-2.988900	2.898000	-8.660800	29.268593	0.000222	20.831169
2242.698600	-2.966000	2.896100	-8.588200	29.292220	0.000224	20.869203
2243.699480	-2.995500	2.895000	-8.671000	29.308981	0.000224	20.851008
2244.700075	-2.987700	2.891000	-8.635300	29.337508	0.000226	20.823335
2245.700019	-2.996700	2.890000	-8.659600	29.357248	0.000225	20.823315
2246.703433	-3.006100	2.888100	-8.681400	29.353489	0.000223	20.829958
2247.703995	-3.018700	2.886000	-8.710900	29.386327	0.000223	20.830338
2248.702464	-3.005000	2.883800	-8.665200	29.342673	0.000223	20.840394
2249.703369	-2.983000	2.882200	-8.596600	29.337674	0.000223	20.848157
2250.702448	-2.994500	2.879600	-8.621600	29.326187	0.000224	20.841322
2251.702680	-2.993100	2.878400	-8.614300	29.290729	0.000223	20.823606
2252.701011	-3.004900	2.877100	-8.645300	29.251090	0.000222	20.824435
2253.706473	-2.989800	2.875400	-8.595900	29.191585	0.000221	20.809514
2254.703181	-2.989100	2.871700	-8.582500	29.125243	0.000225	20.823743
2255.705151	-3.025500	2.869900	-8.682100	29.119797	0.000221	20.813514
2256.707720	-3.009700	2.868600	-8.631500	29.152863	0.000222	20.825970
2257.708724	-2.988800	2.867100	-8.568400	29.174282	0.000222	20.813890
2258.707340	-3.003300	2.864700	-8.602600	29.131316	0.000223	20.828914
2259.709320	-3.015500	2.862600	-8.631100	29.038990	0.000223	20.805587
2260.707883	-3.008000	2.861200	-8.604900	28.995326	0.000222	20.809483
2261.707894	-2.978400	2.859600	-8.514500	28.943361	0.000222	20.808812
2262.708221	-2.999900	2.855400	-8.564700	29.019209	0.000221	20.812684
2263.707118	-3.013400	2.854000	-8.598800	29.076327	0.000220	20.813810
2264.708305	-2.991700	2.852400	-8.531800	29.126433	0.000221	20.799812
2265.712844	-3.004600	2.849900	-8.561500	29.111350	0.000221	20.812115
2266.707482	-2.979200	2.849400	-8.487500	29.107885	0.000219	20.824744
2267.709366	-3.040600	2.843700	-8.644900	29.090728	0.000222	20.803190
2268.709980	-2.982900	2.844800	-8.483900	29.131941	0.000219	20.806311
2269.718664	-3.019800	2.842500	-8.582500	29.154283	0.000221	20.799426
2270.717138	-2.972300	2.841200	-8.444100	29.209678	0.000222	20.810678
2271.713808	-2.998700	2.837100	-8.507100	29.166517	0.000219	20.805116
2272.710541	-3.012800	2.834200	-8.537800	29.146959	0.000221	20.820496
2273.716630	-3.001300	2.834000	-8.504400	29.118672	0.000219	20.797208
2274.720023	-3.009100	2.831200	-8.518300	29.111697	0.000222	20.789705
2275.712393	-3.036700	2.827300	-8.584200	29.111128	0.000219	20.783443
2276.717182	-3.008000	2.826300	-8.499600	29.178343	0.000220	20.807076
2277.735443	-3.008500	2.824800	-8.497500	29.178568	0.000220	20.803510
2278.722954	-2.973500	2.823000	-8.392500	29.181739	0.000221	20.791533
2279.730973	-3.043700	2.819200	-8.580200	29.218396	0.000220	20.804290
2280.713914	-2.966300	2.820400	-8.365100	29.190758	0.000221	20.788767
2281.719899	-3.009900	2.814500	-8.471200	29.228502	0.000220	20.805940
2282.716627	-2.960300	2.814300	-8.329500	29.283428	0.000220	20.825256
2283.718594	-2.969400	2.811000	-8.346300	29.302443	0.000219	20.796057
2284.714837	-2.966100	2.810400	-8.334600	29.351229	0.000223	20.792594
2285.724642	-3.003300	2.805800	-8.425900	29.336077	0.000221	20.782064
2286.717469	-3.001800	2.803700	-8.414600	29.390673	0.000219	20.781140
2287.716887	-2.981700	2.801100	-8.350900	29.382259	0.000220	20.796367
2288.723164	-3.004700	2.797800	-8.405700	29.418438	0.000220	20.812918
2289.726626	-2.986700	2.797500	-8.353000	29.401556	0.000220	20.799222
2290.719927	-3.011900	2.792500	-8.409700	29.405668	0.000222	20.787244
2291.718116	-3.004600	2.788600	-8.376600	29.365778	0.000219	20.796352
2292.719966	-3.005500	2.788400	-8.379000	29.341962	0.000221	20.797952
2293.720941	-3.008500	2.785200	-8.378200	29.320599	0.000220	20.794440
2294.723701	-2.983100	2.783500	-8.301900	29.264146	0.000220	20.810092
2295.724521	-3.016700	2.780100	-8.385600	29.270209	0.000220	20.809564
2296.721275	-2.996700	2.778000	-8.323100	29.310503	0.000219	20.772885
2297.722129	-3.005500	2.774900	-8.339800	29.337840	0.000219	20.793798
2298.721662	-2.988800	2.771100	-8.281400	29.356466	0.000222	20.782699
2299.721529	-2.999500	2.769900	-8.307000	29.383748	0.000221	20.776056
2300.724580	-3.005500	2.768000	-8.318100	29.423788	0.000221	20.787964
2301.721817	-3.037600	2.762300	-8.389500	29.419133	0.000221	20.797971
2302.739754	-2.982900	2.760800	-8.234000	29.480443	0.000217	20.780111
2303.725046	-2.999300	2.757100	-8.267900	29.493761	0.000218	20.783578
2304.723023	-2.991000	2.755200	-8.239600	29.540608	0.000218	20.796188
2305.725611	-2.966400	2.752600	-8.163700	29.507980	0.000219	20.782264
2306.729167	-3.011000	2.747200	-8.270700	29.522886	0.000219	20.792547
2307.723909	-2.992300	2.746200	-8.216900	29.550442	0.000220	20.784763
2308.724944	-3.030500	2.741000	-8.305300	29.559844	0.000220	20.763421
2309.726803	-3.004700	2.738400	-8.226800	29.503208	0.000220	20.795945
2310.724453	-3.031500	2.735200	-8.291100	29.500684	0.000220	20.783919
2311.735477	-3.005000	2.733600	-8.213700	29.488434	0.000219	20.790063
2312.745277	-3.020000	2.729000	-8.239900	29.506583	0.000219	20.778959
2313.730237	-2.990500	2.726600	-8.152100	29.548398	0.000220	20.781755
2314.742277	-3.010900	2.724600	-8.202100	29.600980	0.000218	20.778811
2315.728264	-2.983900	2.719100	-8.112400	29.636054	0.000219	20.780505
2316.731963	-3.002100	2.715900	-8.152400	29.674282	0.000219	20.767362
2317.725837	-3.011200	2.712700	-8.167100	29.631434	0.000219	20.788650
2318.732704	-2.986800	2.710600	-8.095300	29.578408	0.000220	20.766962
2319.731675	-2.994600	2.706300	-8.103100	29.537667	0.000219	20.785637
2320.737643	-3.007900	2.701100	-8.123100	29.515907	0.000218	20.769392
2321.732971	-3.013200	2.697800	-8.128300	29.530073	0.000217	20.766127
2322.728706	-2.971700	2.695200	-8.008100	29.571093	0.000220	20.775235
2323.736081	-3.019400	2.692300	-8.128400	29.552156	0.000218	20.770844
2324.729293	-3.025400	2.687800	-8.129900	29.504922	0.000218	20.760689
2325.728831	-3.007100	2.683000	-8.067400	29.490070	0.000219	20.760891
2326.728809	-2.977100	2.679800	-7.977100	29.523766	0.000218	20.779685
2327.731945	-3.015900	2.675300	-8.067800	29.556942	0.000220	20.772350
2328.731506	-3.005300	2.671200	-8.025500	29.541469	0.000219	20.753907
2329.736085	-2.989200	2.668700	-7.976200	29.558755	0.000219	20.769910
2330.736950	-2.987700	2.663900	-7.957700	29.585316	0.000220	20.766339
2331.730908	-2.993100	2.659400	-7.958400	29.641536	0.000222	20.761849
2332.734798	-2.994200	2.656200	-7.952500	29.668324	0.000221	20.775580
2333.733954	-3.025700	2.651300	-8.020900	29.637332	0.000219	20.774207
2334.734303	-3.004400	2.649700	-7.959600	29.591014	0.000220	20.769712
2335.736828	-2.931100	2.644700	-7.751400	29.569995	0.000219	20.764645
2336.740469	-2.944400	2.639700	-7.771400	29.517514	0.000219	20.780494
2337.736303	-3.010500	2.634200	-7.929300	29.524967	0.000220	20.763825
2338.742160	-3.000500	2.629700	-7.889000	29.567520	0.000218	20.765469
2339.740297	-2.995100	2.625000	-7.861100	29.584360	0.000220	20.766324
2340.735558	-2.998000	2.620900	-7.856600	29.604781	0.000219	20.776005
2341.737298	-2.993600	2.616300	-7.831100	29.602552	0.000220	20.757162
2342.736308	-2.972200	2.610900	-7.758800	29.656562	0.000220	20.786481
2343.747719	-3.007500	2.604700	-7.831100	29.713473	0.000220	20.783641
2344.738579	-2.995600	2.601400	-7.791200	29.710852	0.000221	20.783843
2345.740609	-3.008600	2.595000	-7.806000	29.736669	0.000220	20.763879
2346.737908	-2.971500	2.590500	-7.695900	29.712014	0.000221	20.756564
2347.738611	-2.982600	2.584300	-7.707400	29.699193	0.000222	20.746957
2348.742659	-3.022600	2.576800	-7.788300	29.678446	0.000222	20.758283
2349.740076	-2.999900	2.573800	-7.720200	29.630355	0.000221	20.771915
2350.744276	-3.036000	2.566000	-7.789400	29.567677	0.000222	20.773214
2351.741265	-3.015900	2.561800	-7.724900	29.554281	0.000219	20.746433
2352.742450	-2.994100	2.555800	-7.650900	29.596814	0.000220	20.774138
2353.743193	-2.990300	2.549700	-7.623300	29.671200	0.000222	20.746236
2354.747668	-2.966800	2.545300	-7.551200	29.717510	0.000218	20.749303
2355.745425	-2.957600	2.538800	-7.507500	29.758327	0.000220	20.749204
2356.747979	-2.977500	2.532600	-7.540100	29.779347	0.000220	20.744793
2357.742775	-2.924800	2.527400	-7.390200	29.769364	0.000220	20.766497
2358.746329	-3.047400	2.516900	-7.669100	29.841538	0.000219	20.754870
2359.747393	-2.993700	2.512200	-7.519900	29.914574	0.000222	20.744591
2360.745852	-2.982800	2.507200	-7.477600	29.936374	0.000219	20.756144
2361.747984	-3.043500	2.498400	-7.603000	29.915294	0.000220	20.751481
