LabVIEW Measurement	
Writer_Version	2
Reader_Version	2
Separator	Tab
Decimal_Separator	.
Multi_Headings	No
X_Columns	One
Time_Pref	Absolute
Operator	admin
Description	Clolumns are: time, Current, Voltage, Power, Battery Temp, and Chamber Temp
Date	2024/08/16
Time	13:06:06.104549407958984375
***End_of_Header***	
	
Channels	6						
Samples	1	1	1	1	1	1	
Date	2024/09/14	2024/09/14	2024/09/14	2024/09/14	2024/09/14	2024/09/14	
Time	05:09:36.3144125938415527344	05:09:36.3191151618957519531	05:09:36.3281126022338867187	05:09:36.2982640266418457031	05:09:36.2982640266418457031	05:09:36.2982640266418457031	
X_Dimension	Time	Time	Time	Time	Time	Time	
X0	0.0000000000000000E+0	0.0000000000000000E+0	0.0000000000000000E+0	0.0000000000000000E+0	0.0000000000000000E+0	0.0000000000000000E+0	
Delta_X	1.000000	1.000000	1.000000	1.000000	1.000000	1.000000	
***End_of_Header***							
X_Value	Untitled	Untitled 1	Untitled 2	Untitled 3	Untitled 4	Untitled 5	Comment
0.000000	0.031924	4.093800	0.130560	21.148562	0.000926	20.886879
1.001812	-3.011100	3.913500	-11.782000	21.165652	0.000926	20.876000
2.002837	-3.002600	3.905500	-11.726000	21.127057	0.000925	20.882438
3.001776	-2.976700	3.903300	-11.618000	21.151681	0.000924	20.906119
4.006292	-2.995100	3.896700	-11.670000	21.156172	0.000926	20.892594
5.011606	-2.975400	3.895400	-11.589000	21.131124	0.000922	20.874653
6.002909	-2.968400	3.892500	-11.553000	21.118101	0.000924	20.881066
7.006217	-3.019400	3.888600	-11.740000	21.146692	0.000922	20.883112
8.005337	-2.994600	3.887200	-11.638000	21.125361	0.000922	20.881216
9.006866	-3.005600	3.885100	-11.676000	21.125387	0.000920	20.877922
10.005102	-3.001300	3.883000	-11.653000	21.149112	0.000920	20.884111
11.005263	-3.014700	3.881000	-11.699000	21.150310	0.000918	20.870611
12.006619	-3.000400	3.879800	-11.638000	21.134368	0.000916	20.900655
13.005412	-3.006700	3.876600	-11.655000	21.153354	0.000916	20.863699
14.006329	-3.002500	3.877700	-11.642000	21.152880	0.000916	20.872707
15.008082	-2.997400	3.875400	-11.616000	21.159991	0.000915	20.859906
16.006983	-2.982200	3.875100	-11.556000	21.173387	0.000915	20.889427
17.010285	-3.020700	3.872500	-11.697000	21.166951	0.000916	20.878248
18.008278	-2.998500	3.873200	-11.613000	21.173463	0.000914	20.856788
19.010771	-3.026800	3.871200	-11.716000	21.184240	0.000914	20.860456
20.009370	-2.973200	3.871800	-11.510000	21.192897	0.000914	20.872909
21.009712	-3.003700	3.868800	-11.619000	21.194569	0.000915	20.889278
22.012696	-3.003300	3.868000	-11.615000	21.192922	0.000913	20.886683
23.014275	-2.996700	3.868600	-11.593000	21.187185	0.000912	20.860557
24.010686	-2.979100	3.868900	-11.524000	21.198636	0.000912	20.865373
25.010468	-3.020700	3.864900	-11.673000	21.216523	0.000913	20.856715
26.012714	-3.015000	3.864300	-11.650000	21.228672	0.000910	20.853222
27.016460	-2.981300	3.865700	-11.523000	21.230419	0.000912	20.855443
28.017325	-2.983600	3.865000	-11.530000	21.220016	0.000910	20.869691
29.014069	-2.969600	3.865400	-11.478000	21.223260	0.000909	20.842592
30.017301	-2.966700	3.864300	-11.463000	21.240423	0.000909	20.837002
31.014199	-2.988700	3.861700	-11.540000	21.243367	0.000909	20.844688
32.015170	-3.005000	3.863400	-11.608000	21.263598	0.000909	20.849280
33.016802	-3.007500	3.861100	-11.611000	21.256788	0.000908	20.878027
34.014983	-2.999600	3.861100	-11.580000	21.271406	0.000908	20.871789
35.020035	-2.999800	3.860400	-11.579000	21.264147	0.000908	20.846511
36.015315	-3.008200	3.860600	-11.613000	21.258958	0.000906	20.843217
37.016076	-2.987600	3.861100	-11.534000	21.272379	0.000907	20.883193
38.020355	-3.006300	3.859100	-11.601000	21.277942	0.000907	20.866474
39.016294	-2.998300	3.859000	-11.570000	21.286897	0.000906	20.850304
40.023655	-3.026400	3.856200	-11.670000	21.292535	0.000906	20.842194
41.017011	-2.973100	3.857700	-11.469000	21.283380	0.000905	20.848208
42.019491	-3.008200	3.857600	-11.604000	21.317978	0.000905	20.842518
43.016984	-2.991900	3.855600	-11.534000	21.324888	0.000906	20.845638
44.023269	-2.997400	3.855600	-11.555000	21.321221	0.000906	20.848133
45.018633	-2.982000	3.857500	-11.502000	21.307801	0.000903	20.859363
46.018597	-3.016800	3.854000	-11.624000	21.345317	0.000908	20.849955
47.020762	-2.992700	3.854200	-11.533000	21.336088	0.000906	20.868221
48.017794	-2.991200	3.854700	-11.529000	21.339181	0.000905	20.831963
49.019486	-2.993700	3.853900	-11.536000	21.351678	0.000906	20.851103
50.020466	-3.005500	3.853200	-11.580000	21.384727	0.000903	20.868521
51.020319	-2.996000	3.852500	-11.541000	21.368464	0.000906	20.834233
52.020079	-3.040200	3.851000	-11.707000	21.371881	0.000906	20.842867
53.021710	-3.003300	3.852300	-11.569000	21.371882	0.000906	20.866574
54.021490	-2.997800	3.852500	-11.546000	21.382382	0.000904	20.835356
55.021499	-2.997200	3.852200	-11.545000	21.385250	0.000904	20.831588
56.021055	-3.030800	3.849400	-11.665000	21.389591	0.000905	20.822654
57.020895	-3.001100	3.852300	-11.560000	21.405479	0.000906	20.841869
58.024011	-3.002700	3.850700	-11.561000	21.421915	0.000905	20.831762
59.022161	-2.984900	3.851000	-11.494000	21.411664	0.000905	20.839523
60.024438	-3.013500	3.847800	-11.594000	21.427328	0.000904	20.837177
61.022856	-3.007200	3.850300	-11.577000	21.433438	0.000906	20.834282
62.022992	-3.000500	3.848000	-11.544000	21.433064	0.000904	20.830115
63.024543	-3.018700	3.847200	-11.612000	21.452319	0.000905	20.823776
64.021985	-3.013000	3.846900	-11.588000	21.454913	0.000902	20.827320
65.028011	-3.009400	3.848500	-11.581000	21.456983	0.000905	20.840770
66.024379	-2.982800	3.849100	-11.477000	21.466834	0.000904	20.834980
67.024432	-2.982500	3.847200	-11.473000	21.461871	0.000902	20.844238
68.024833	-2.993600	3.848500	-11.520000	21.472146	0.000903	20.836028
69.029070	-3.000000	3.846900	-11.539000	21.497860	0.000904	20.816713
70.024789	-2.947000	3.848300	-11.338000	21.479529	0.000905	20.822552
71.028468	-2.987900	3.846700	-11.493000	21.493670	0.000904	20.842391
72.029933	-2.988300	3.847500	-11.496000	21.509457	0.000906	20.849179
73.025939	-3.019900	3.844700	-11.609000	21.517961	0.000904	20.813119
74.032390	-2.987300	3.845600	-11.487000	21.515566	0.000905	20.815464
75.026091	-2.996000	3.845200	-11.519000	21.525268	0.000904	20.834655
76.027838	-3.018100	3.843300	-11.597000	21.531453	0.000903	20.816188
77.026117	-3.020000	3.844700	-11.610000	21.531977	0.000905	20.833307
78.027633	-2.990800	3.844300	-11.496000	21.542625	0.000905	20.821203
79.027137	-2.998000	3.844200	-11.523000	21.550805	0.000905	20.840294
80.029950	-3.019800	3.843500	-11.606000	21.558785	0.000904	20.814141
81.027927	-3.002900	3.843500	-11.540000	21.595994	0.000905	20.801114
82.028033	-3.016400	3.843000	-11.590000	21.579360	0.000904	20.800590
83.028419	-3.016100	3.841700	-11.585000	21.598462	0.000905	20.812593
84.029639	-2.970000	3.844000	-11.415000	21.590706	0.000904	20.829961
85.043864	-3.026100	3.840900	-11.621000	21.600557	0.000904	20.809473
86.029659	-3.003400	3.842600	-11.539000	21.617140	0.000905	20.825119
87.034575	-2.987400	3.841400	-11.475000	21.617289	0.000905	20.826217
88.031991	-3.009200	3.840600	-11.556000	21.622501	0.000906	20.813889
89.030741	-3.012400	3.840000	-11.566000	21.620780	0.000908	20.830184
90.033531	-3.001900	3.840000	-11.526000	21.635194	0.000907	20.805254
91.032140	-3.009300	3.840100	-11.554000	21.643074	0.000906	20.809347
92.031901	-2.988200	3.840400	-11.474000	21.650380	0.000905	20.820452
93.033455	-2.988700	3.841000	-11.478000	21.649133	0.000905	20.817781
94.032122	-2.993900	3.841300	-11.499000	21.689979	0.000906	20.811243
95.035149	-2.996900	3.841200	-11.510000	21.668260	0.000907	20.807524
96.036114	-2.998300	3.839600	-11.510000	21.661975	0.000905	20.801709
97.033988	-3.001700	3.838800	-11.521000	21.688483	0.000907	20.788882
98.033622	-2.987800	3.839900	-11.471000	21.666139	0.000906	20.813463
99.034598	-2.982800	3.838500	-11.449000	21.685739	0.000907	20.804629
100.035200	-3.002700	3.838400	-11.524000	21.701199	0.000906	20.798290
101.037187	-2.998500	3.837200	-11.505000	21.712345	0.000908	20.820824
102.037413	-3.010000	3.837600	-11.550000	21.715936	0.000907	20.805452
103.035502	-2.981200	3.839300	-11.445000	21.725311	0.000909	20.818628
104.035847	-2.998200	3.837200	-11.504000	21.728653	0.000909	20.787833
105.038243	-2.975400	3.837800	-11.418000	21.729799	0.000908	20.807472
106.037446	-2.990300	3.837600	-11.475000	21.736382	0.000910	20.808845
107.038387	-2.992500	3.837400	-11.481000	21.753587	0.000910	20.783390
108.035633	-3.023800	3.835000	-11.595000	21.740072	0.000909	20.796891
109.036410	-3.011500	3.835600	-11.550000	21.754510	0.000909	20.797590
110.038646	-2.997800	3.836200	-11.500000	21.770493	0.000911	20.787033
111.036653	-2.993600	3.836100	-11.482000	21.786899	0.000910	20.794919
112.035828	-3.003500	3.835900	-11.520000	21.785702	0.000911	20.810316
113.037548	-2.985400	3.835400	-11.450000	21.791387	0.000912	20.816480
114.037199	-2.994800	3.834900	-11.483000	21.796872	0.000911	20.778348
115.037352	-3.001600	3.834300	-11.508000	21.778919	0.000913	20.784562
116.040647	-3.014100	3.834200	-11.556000	21.828014	0.000912	20.800034
117.037720	-2.987400	3.833600	-11.451000	21.817766	0.000911	20.778872
118.037298	-3.004600	3.834300	-11.520000	21.809264	0.000911	20.788854
119.036995	-2.998400	3.833300	-11.492000	21.819012	0.000912	20.780119
120.036744	-3.012400	3.833400	-11.547000	21.841627	0.000913	20.789952
121.042389	-2.982000	3.834000	-11.431000	21.824797	0.000912	20.797763
122.040304	-3.000600	3.833400	-11.501000	21.863093	0.000911	20.784411
123.040276	-2.988600	3.833600	-11.456000	21.863941	0.000912	20.786208
124.040206	-3.004500	3.832300	-11.512000	21.871047	0.000911	20.776251
125.039692	-2.996600	3.831700	-11.481000	21.879474	0.000913	20.771883
126.049426	-3.012200	3.830500	-11.537000	21.903981	0.000914	20.788354
127.039029	-3.003300	3.831400	-11.506000	21.886230	0.000913	20.787655
128.039747	-2.996300	3.832000	-11.480000	21.920785	0.000914	20.785259
129.039525	-3.004500	3.831600	-11.511000	21.906150	0.000916	20.790050
130.040398	-2.983400	3.830700	-11.427000	21.920759	0.000914	20.776225
131.040759	-2.992600	3.830800	-11.463000	21.932726	0.000916	20.788203
132.042103	-2.980500	3.831600	-11.418000	21.927491	0.000917	20.781066
133.040807	-2.999100	3.830600	-11.486000	21.950950	0.000917	20.768513
134.042089	-2.991000	3.829700	-11.454000	21.952022	0.000916	20.779069
135.041090	-3.002600	3.828600	-11.494000	21.946114	0.000916	20.783112
136.042332	-3.011500	3.830200	-11.532000	21.988619	0.000917	20.770659
137.045943	-2.996600	3.830000	-11.475000	21.962667	0.000916	20.769336
138.041581	-2.987600	3.829500	-11.438000	21.995325	0.000917	20.765992
139.043227	-3.007600	3.828800	-11.513000	21.986824	0.000917	20.765068
140.043863	-3.005900	3.828300	-11.507000	21.982935	0.000919	20.774452
141.042078	-2.973500	3.828900	-11.383000	21.993056	0.000916	20.764195
142.044387	-2.995300	3.828100	-11.466000	22.010632	0.000918	20.777521
143.045344	-2.986600	3.827900	-11.432000	22.013050	0.000919	20.769510
144.041744	-2.979500	3.828300	-11.405000	22.012925	0.000920	20.764170
145.043199	-3.005200	3.826800	-11.500000	22.029527	0.000918	20.783635
146.044155	-3.018700	3.826900	-11.551000	22.056724	0.000918	20.777671
147.045144	-3.002900	3.826600	-11.490000	22.063879	0.000920	20.776772
148.049650	-2.999500	3.825800	-11.474000	22.046728	0.000919	20.768137
149.044975	-2.994100	3.826300	-11.455000	22.060962	0.000921	20.785232
150.045659	-2.999900	3.825900	-11.476000	22.066595	0.000920	20.776647
151.046816	-3.020600	3.826200	-11.556000	22.095561	0.000922	20.739737
152.046634	-3.007800	3.825600	-11.505000	22.108448	0.000923	20.763071
153.047704	-2.980000	3.826500	-11.402000	22.089130	0.000924	20.781663
154.046854	-2.992600	3.825500	-11.447000	22.084767	0.000923	20.764019
155.054926	-2.992300	3.824800	-11.444000	22.106005	0.000924	20.772005
156.047019	-2.996500	3.824600	-11.460000	22.109146	0.000924	20.761872
157.047575	-3.015500	3.824600	-11.530000	22.118369	0.000924	20.758778
158.048224	-3.004900	3.823200	-11.487000	22.135443	0.000925	20.753587
159.050740	-3.002900	3.823200	-11.480000	22.141351	0.000927	20.750018
160.048939	-2.991200	3.825000	-11.440000	22.153141	0.000924	20.764193
161.049747	-2.998800	3.823400	-11.464000	22.156132	0.000925	20.771455
162.050917	-2.993300	3.823500	-11.443000	22.153514	0.000926	20.751290
163.050861	-2.994100	3.823900	-11.448000	22.177169	0.000929	20.746998
164.052596	-3.022500	3.822800	-11.553000	22.168520	0.000928	20.766788
165.050596	-3.000200	3.821700	-11.465000	22.200250	0.000928	20.771056
166.051688	-2.993200	3.823200	-11.443000	22.193595	0.000928	20.757754
167.051286	-3.010200	3.822300	-11.505000	22.191326	0.000928	20.752164
168.052413	-3.003500	3.821200	-11.476000	22.200648	0.000929	20.758178
169.057533	-2.991700	3.821200	-11.431000	22.197283	0.000930	20.765241
170.058586	-2.992800	3.820600	-11.434000	22.193844	0.000930	20.757529
171.052346	-3.018300	3.820100	-11.529000	22.210967	0.000931	20.736740
172.055744	-2.976500	3.823700	-11.379000	22.227716	0.000931	20.751140
173.053382	-2.972300	3.820800	-11.355000	22.245512	0.000933	20.755682
174.055860	-2.982300	3.821600	-11.395000	22.258373	0.000931	20.751490
175.054359	-2.993100	3.820300	-11.434000	22.240378	0.000932	20.753386
176.056353	-3.009600	3.819800	-11.495000	22.231879	0.000932	20.743928
177.053472	-3.011900	3.821400	-11.508000	22.266797	0.000932	20.749019
178.054935	-3.000900	3.820700	-11.465000	22.258572	0.000934	20.746947
179.055630	-3.015300	3.819000	-11.514000	22.242895	0.000936	20.743104
180.054090	-2.980000	3.819700	-11.382000	22.260765	0.000935	20.736341
181.053395	-3.005000	3.818200	-11.472000	22.285888	0.000935	20.752013
182.054263	-3.013300	3.818900	-11.507000	22.312530	0.000935	20.734119
183.058809	-2.986800	3.819800	-11.408000	22.290524	0.000936	20.740533
184.055968	-2.990800	3.819200	-11.421000	22.321079	0.000935	20.722290
185.058498	-2.994200	3.817900	-11.431000	22.311533	0.000935	20.745450
186.056717	-2.989700	3.818000	-11.413000	22.305652	0.000936	20.741457
187.054539	-2.999500	3.818000	-11.451000	22.309864	0.000936	20.739036
188.055820	-2.991000	3.817900	-11.418000	22.303683	0.000939	20.746123
189.055843	-3.007400	3.816100	-11.476000	22.314923	0.000938	20.753111
190.061532	-2.988200	3.817000	-11.405000	22.323297	0.000939	20.726882
191.058275	-2.992500	3.816600	-11.420000	22.324792	0.000941	20.729802
192.059914	-3.018800	3.815600	-11.516000	22.333241	0.000938	20.732098
193.058480	-3.016100	3.815900	-11.507000	22.355421	0.000938	20.731549
194.059118	-2.983600	3.815000	-11.380000	22.351508	0.000940	20.737588
195.060132	-2.988100	3.816500	-11.402000	22.374162	0.000941	20.736565
196.059690	-2.998300	3.814600	-11.434000	22.349689	0.000941	20.746198
197.060734	-3.000000	3.815400	-11.445000	22.357739	0.000942	20.740508
198.060573	-3.007600	3.814000	-11.468000	22.384255	0.000941	20.726757
199.060080	-3.010500	3.814900	-11.483000	22.381538	0.000942	20.717872
200.060004	-3.003200	3.814000	-11.452000	22.379196	0.000943	20.730700
201.062098	-2.999500	3.814400	-11.440000	22.400378	0.000943	20.734369
202.062502	-2.989600	3.814300	-11.402000	22.397637	0.000944	20.729727
203.062264	-2.961900	3.816500	-11.303000	22.410571	0.000945	20.733670
204.062388	-3.013100	3.812200	-11.485000	22.405412	0.000944	20.730400
205.075653	-2.980500	3.813700	-11.366000	22.403344	0.000946	20.734019
206.067027	-3.032500	3.811900	-11.558000	22.430332	0.000946	20.739709
207.063848	-3.001800	3.812700	-11.444000	22.430083	0.000944	20.720967
208.069402	-3.008500	3.812900	-11.469000	22.428837	0.000947	20.701700
209.064534	-3.010000	3.813300	-11.476000	22.444910	0.000947	20.727755
210.064217	-2.989400	3.812700	-11.395000	22.474116	0.000947	20.725708
211.067114	-3.013200	3.811100	-11.483000	22.457545	0.000947	20.747521
212.068042	-2.987200	3.811500	-11.385000	22.483610	0.000950	20.721466
213.064833	-3.008900	3.810600	-11.465000	22.483435	0.000948	20.724136
214.064257	-3.017200	3.811500	-11.498000	22.505613	0.000950	20.722164
215.064851	-3.003400	3.810900	-11.445000	22.503719	0.000952	20.739709
216.066420	-2.976100	3.812100	-11.344000	22.507158	0.000951	20.723712
217.068511	-2.999000	3.811500	-11.429000	22.515979	0.000950	20.722589
218.071983	-3.010700	3.810300	-11.470000	22.511942	0.000951	20.712855
219.069644	-3.004800	3.809800	-11.447000	22.479797	0.000953	20.731873
220.067894	-3.001200	3.810000	-11.434000	22.517873	0.000953	20.713579
221.068662	-3.016300	3.808100	-11.486000	22.513462	0.000953	20.715326
222.075698	-3.009500	3.809800	-11.465000	22.536262	0.000952	20.701650
223.068602	-3.013900	3.808100	-11.477000	22.543264	0.000953	20.716724
224.068045	-2.988800	3.808500	-11.381000	22.547475	0.000953	20.704345
225.067556	-3.004900	3.808400	-11.443000	22.562749	0.000955	20.706841
226.068583	-3.006300	3.807900	-11.447000	22.547575	0.000954	20.709187
227.074514	-3.011100	3.808700	-11.466000	22.569726	0.000958	20.722838
228.068371	-3.017600	3.807700	-11.489000	22.575681	0.000956	20.712207
229.070683	-2.997300	3.807900	-11.412000	22.590481	0.000958	20.723712
230.068419	-2.999800	3.806500	-11.418000	22.595913	0.000957	20.721092
231.073671	-2.975700	3.808400	-11.331000	22.620804	0.000957	20.713779
232.070699	-3.003700	3.806300	-11.432000	22.613579	0.000956	20.731673
233.069893	-2.986000	3.808400	-11.371000	22.593172	0.000959	20.700327
234.072846	-2.980500	3.807300	-11.347000	22.625489	0.000960	20.737438
235.070527	-2.988900	3.807200	-11.378000	22.619185	0.000960	20.721167
236.074673	-2.974100	3.806200	-11.318000	22.636451	0.000959	20.709062
237.071667	-2.998700	3.805800	-11.411000	22.665378	0.000960	20.730925
238.071904	-3.007500	3.804700	-11.440000	22.664929	0.000962	20.712457
239.076136	-3.013900	3.804300	-11.465000	22.664207	0.000960	20.716000
240.074893	-3.003700	3.805100	-11.427000	22.694403	0.000961	20.720642
241.075186	-2.980000	3.805400	-11.339000	22.638196	0.000962	20.717922
242.078299	-3.008800	3.803900	-11.444000	22.659349	0.000964	20.710186
243.076266	-2.978600	3.805700	-11.334000	22.655960	0.000964	20.723388
244.075667	-2.985400	3.804700	-11.357000	22.673774	0.000964	20.726532
245.075719	-2.991200	3.804600	-11.380000	22.673475	0.000965	20.720069
246.075312	-3.019900	3.803200	-11.485000	22.668268	0.000965	20.715801
247.076025	-3.014600	3.802600	-11.461000	22.698190	0.000964	20.701201
248.078537	-2.992500	3.803500	-11.381000	22.705390	0.000966	20.716001
249.076644	-2.985000	3.803100	-11.351000	22.696347	0.000966	20.700303
250.079433	-2.982600	3.802900	-11.341000	22.689819	0.000966	20.702773
251.076535	-2.991400	3.803300	-11.376000	22.676939	0.000967	20.728280
252.076324	-2.996500	3.802200	-11.393000	22.679729	0.000969	20.725859
253.079611	-3.015100	3.801200	-11.459000	22.700134	0.000968	20.722590
254.080120	-2.994000	3.802600	-11.384000	22.700507	0.000969	20.721541
255.078955	-2.979600	3.801200	-11.325000	22.703721	0.000971	20.720019
256.076783	-2.992700	3.801800	-11.377000	22.736906	0.000970	20.710111
257.078552	-3.015100	3.799700	-11.455000	22.721784	0.000970	20.710136
258.077463	-2.999400	3.800900	-11.398000	22.735810	0.000970	20.690994
259.078186	-2.984500	3.801200	-11.343000	22.724300	0.000969	20.718821
260.078047	-2.984900	3.801800	-11.347000	22.710922	0.000971	20.711110
261.077847	-3.012400	3.799600	-11.445000	22.731849	0.000974	20.723538
262.078528	-2.987900	3.801800	-11.358000	22.736657	0.000972	20.710336
263.081408	-3.007700	3.800400	-11.430000	22.747843	0.000974	20.726758
264.077469	-3.007900	3.798600	-11.425000	22.774301	0.000974	20.724337
265.077131	-3.000900	3.798200	-11.397000	22.785760	0.000974	20.721118
266.082026	-2.996600	3.798600	-11.382000	22.784963	0.000974	20.730751
267.077700	-2.988600	3.798700	-11.351000	22.797145	0.000975	20.713556
268.079747	-2.998500	3.798600	-11.389000	22.798665	0.000975	20.717449
269.078983	-3.000500	3.798700	-11.396000	22.819590	0.000973	20.715652
270.078350	-2.997900	3.798200	-11.384000	22.816875	0.000978	20.717674
271.078042	-2.979400	3.798600	-11.316000	22.848636	0.000977	20.722940
272.077842	-2.990600	3.797400	-11.356000	22.852448	0.000978	20.723913
273.081745	-3.010600	3.796400	-11.429000	22.831523	0.000978	20.742306
274.078282	-2.997600	3.796200	-11.379000	22.839993	0.000977	20.737040
275.080720	-2.986400	3.797500	-11.338000	22.843306	0.000979	20.736092
276.078635	-2.989800	3.797200	-11.352000	22.847989	0.000979	20.719446
277.079233	-3.015600	3.796400	-11.447000	22.843455	0.000980	20.714904
278.085176	-3.005600	3.796800	-11.410000	22.851227	0.000984	20.735493
279.080383	-2.992600	3.795200	-11.356000	22.833142	0.000979	20.724961
280.083037	-3.011700	3.794700	-11.428000	22.843729	0.000983	20.730826
281.082170	-3.001100	3.794000	-11.385000	22.827014	0.000982	20.734944
282.082487	-2.994900	3.795100	-11.364000	22.839993	0.000980	20.766439
283.085399	-3.005200	3.795400	-11.405000	22.844477	0.000982	20.743430
284.082037	-3.016100	3.794100	-11.442000	22.851651	0.000981	20.748246
285.084651	-2.990600	3.795000	-11.348000	22.868291	0.000982	20.737415
286.084088	-3.002000	3.793500	-11.387000	22.884483	0.000982	20.736567
287.084256	-2.988300	3.794400	-11.338000	22.903863	0.000985	20.725161
288.086168	-2.997900	3.793200	-11.370000	22.938710	0.000985	20.744428
289.084231	-2.980300	3.792500	-11.301000	22.948101	0.000984	20.736767
290.085402	-2.993500	3.792200	-11.351000	22.941949	0.000984	20.735344
291.086213	-3.000300	3.792400	-11.377000	22.966160	0.000985	20.724987
292.085874	-2.968500	3.793000	-11.258000	22.969423	0.000986	20.737740
293.085322	-2.989900	3.791500	-11.336000	22.966160	0.000985	20.731626
294.087269	-2.993000	3.790800	-11.345000	22.976248	0.000987	20.729879
295.085992	-3.009900	3.792200	-11.412000	22.996796	0.000989	20.747149
296.092904	-2.989200	3.791500	-11.333000	23.020035	0.000988	20.738190
297.085658	-3.009600	3.790200	-11.404000	23.013808	0.000989	20.739063
298.087615	-2.984500	3.791900	-11.316000	23.042376	0.000989	20.743506
299.092278	-2.996000	3.790500	-11.356000	23.024842	0.000990	20.735894
300.088059	-3.017200	3.789500	-11.432000	23.011467	0.000992	20.740511
301.088527	-2.995700	3.789700	-11.352000	23.018566	0.000992	20.742882
302.086949	-2.993600	3.789900	-11.344000	23.025340	0.000991	20.751567
303.088416	-3.000700	3.790200	-11.372000	23.041779	0.000993	20.743855
304.088317	-3.009900	3.787800	-11.400000	23.039737	0.000993	20.762673
305.094261	-3.005400	3.788400	-11.385000	23.036075	0.000992	20.743356
306.090364	-3.013600	3.787000	-11.411000	23.019239	0.000994	20.762049
307.089850	-2.996500	3.787200	-11.347000	23.016275	0.000991	20.739164
308.090898	-2.986100	3.787000	-11.308000	23.027832	0.000993	20.725138
309.089454	-3.002900	3.787900	-11.373000	23.030347	0.000993	20.754687
310.094193	-3.023000	3.786700	-11.447000	23.047383	0.000995	20.745204
311.090274	-2.999600	3.786700	-11.358000	23.072414	0.000994	20.734248
312.092195	-2.993700	3.785000	-11.330000	23.042502	0.000995	20.737941
313.091642	-2.994900	3.787000	-11.341000	23.032490	0.000996	20.735022
314.090508	-3.001000	3.784200	-11.355000	23.055279	0.000999	20.755960
315.093262	-2.999100	3.785400	-11.351000	23.062751	0.000998	20.747326
316.094142	-3.012100	3.785100	-11.400000	23.076076	0.000997	20.757358
317.094161	-2.995100	3.785200	-11.336000	23.096672	0.000997	20.747176
318.094437	-2.994500	3.784400	-11.331000	23.129447	0.001000	20.747301
319.095366	-3.003400	3.785000	-11.367000	23.150616	0.000999	20.756660
320.095058	-3.005000	3.784000	-11.369000	23.151936	0.000999	20.764621
321.098121	-3.038600	3.783500	-11.496000	23.157739	0.001001	20.757633
322.097334	-3.003000	3.784100	-11.363000	23.164562	0.000999	20.758307
323.096470	-3.022900	3.782400	-11.432000	23.164687	0.000999	20.759381
324.096712	-2.979900	3.785200	-11.279000	23.193550	0.001000	20.761277
325.097104	-3.024900	3.781900	-11.439000	23.190188	0.001002	20.760279
326.100662	-2.997500	3.783400	-11.339000	23.201843	0.001001	20.757259
327.098136	-2.992500	3.782700	-11.319000	23.189591	0.001002	20.752568
328.099863	-2.992400	3.782400	-11.317000	23.218876	0.001002	20.762476
329.098779	-3.006400	3.782500	-11.370000	23.208816	0.001002	20.748600
330.099290	-2.993500	3.781600	-11.319000	23.227244	0.001002	20.753317
331.100604	-2.991700	3.781600	-11.312000	23.250477	0.001003	20.769014
332.099899	-2.999400	3.781900	-11.342000	23.256504	0.001003	20.743759
333.100338	-2.988300	3.781000	-11.298000	23.235486	0.001003	20.762051
334.102499	-2.999200	3.780900	-11.338000	23.238475	0.001004	20.763150
335.101238	-2.999200	3.780700	-11.337000	23.214146	0.001004	20.762950
336.100231	-3.015500	3.778700	-11.393000	23.219923	0.001006	20.761628
337.102436	-2.994000	3.781100	-11.320000	23.243679	0.001008	20.769314
338.101775	-2.994600	3.779700	-11.318000	23.257824	0.001005	20.783489
339.102029	-3.014800	3.780300	-11.395000	23.269353	0.001007	20.769439
340.100678	-2.986300	3.780100	-11.287000	23.272939	0.001005	20.757385
341.105454	-2.980000	3.780100	-11.262000	23.275180	0.001007	20.776228
342.108064	-2.988400	3.777600	-11.289000	23.258746	0.001007	20.771611
343.103190	-2.993000	3.779600	-11.311000	23.261111	0.001008	20.773981
344.102139	-3.012000	3.776900	-11.375000	23.274807	0.001007	20.756887
345.102259	-3.006600	3.778500	-11.359000	23.294579	0.001008	20.762003
346.103963	-2.999900	3.775900	-11.325000	23.288677	0.001010	20.776478
347.104039	-2.995100	3.776300	-11.310000	23.316690	0.001010	20.766620
348.106911	-2.995900	3.777900	-11.315000	23.323812	0.001009	20.778499
349.104151	-2.985800	3.775800	-11.272000	23.318632	0.001008	20.776627
350.103451	-3.000100	3.775600	-11.327000	23.281879	0.001010	20.761130
351.103477	-3.013900	3.776400	-11.380000	23.265843	0.001010	20.784888
352.104322	-3.003900	3.776200	-11.342000	23.272567	0.001012	20.763650
353.108580	-3.004800	3.774200	-11.339000	23.250305	0.001011	20.790653
354.104933	-3.003600	3.775900	-11.340000	23.263851	0.001011	20.794746
355.106629	-2.987900	3.774500	-11.277000	23.254862	0.001012	20.787633
356.104938	-3.034900	3.773700	-11.451000	23.258996	0.001012	20.775181
357.104655	-3.006200	3.775100	-11.348000	23.268060	0.001013	20.789955
358.108082	-2.997000	3.774700	-11.310000	23.299485	0.001013	20.762653
359.107131	-2.971300	3.772900	-11.209000	23.300855	0.001013	20.782044
360.106237	-2.986600	3.773800	-11.270000	23.350356	0.001014	20.794672
361.106987	-2.994700	3.771600	-11.294000	23.359171	0.001013	20.795920
362.105382	-2.998200	3.773000	-11.312000	23.356631	0.001014	20.780098
363.106865	-3.008200	3.770700	-11.342000	23.352000	0.001013	20.816708
364.107604	-2.993000	3.771500	-11.287000	23.336687	0.001015	20.769592
365.107434	-3.001700	3.771700	-11.320000	23.351254	0.001016	20.781347
366.108657	-3.018000	3.771200	-11.380000	23.336339	0.001017	20.799589
367.107964	-3.022000	3.769100	-11.389000	23.324313	0.001016	20.770466
368.109215	-2.998500	3.770200	-11.305000	23.364202	0.001016	20.776780
369.108390	-2.973900	3.771000	-11.213000	23.378992	0.001014	20.783544
370.107158	-3.006500	3.771000	-11.336000	23.390695	0.001018	20.799066
371.108154	-3.002700	3.770800	-11.321000	23.409543	0.001018	20.772913
372.108684	-2.982500	3.769700	-11.242000	23.413204	0.001019	20.776582
373.110138	-2.989700	3.769300	-11.269000	23.412382	0.001019	20.795199
374.109643	-2.997400	3.769600	-11.298000	23.385667	0.001019	20.803984
375.111334	-2.988500	3.768800	-11.261000	23.437255	0.001020	20.796896
376.113013	-3.010100	3.769400	-11.345000	23.405212	0.001021	20.813142
377.113998	-2.997500	3.769000	-11.295000	23.406930	0.001019	20.787364
378.112214	-2.977100	3.768500	-11.218000	23.398316	0.001019	20.809549
379.114995	-3.009700	3.767800	-11.338000	23.389801	0.001021	20.783946
380.111289	-2.989600	3.768600	-11.266000	23.398540	0.001019	20.794602
381.114043	-3.005700	3.766000	-11.319000	23.406259	0.001021	20.784320
382.112187	-3.002800	3.768600	-11.315000	23.430485	0.001020	20.794852
383.111477	-3.016300	3.766400	-11.358000	23.447839	0.001022	20.804185
384.114646	-3.007000	3.766700	-11.325000	23.471915	0.001022	20.786592
385.114907	-3.025300	3.765500	-11.390000	23.478836	0.001023	20.815341
386.112031	-2.990800	3.765600	-11.261000	23.484039	0.001020	20.794004
387.112164	-2.996800	3.766800	-11.286000	23.490787	0.001023	20.813096
388.112895	-3.006400	3.764100	-11.316000	23.468505	0.001021	20.814943
389.113394	-3.003800	3.764500	-11.307000	23.498854	0.001022	20.799371
390.112595	-2.989900	3.764300	-11.252000	23.494622	0.001023	20.789439
391.112477	-2.995000	3.764000	-11.272000	23.501145	0.001023	20.810202
392.113627	-3.010900	3.762400	-11.327000	23.535053	0.001023	20.792035
393.117325	-2.998000	3.763600	-11.282000	23.559450	0.001022	20.800844
394.118743	-2.999200	3.762300	-11.282000	23.561168	0.001025	20.806359
395.117083	-2.999700	3.762900	-11.285000	23.565500	0.001026	20.821133
396.117042	-3.007400	3.763200	-11.317000	23.569533	0.001026	20.805736
397.116122	-3.021400	3.760800	-11.361000	23.586486	0.001026	20.809929
398.118340	-3.018700	3.761200	-11.351000	23.600402	0.001026	20.798749
399.120275	-2.985900	3.762000	-11.232000	23.559725	0.001024	20.813922
400.117339	-3.005300	3.762400	-11.305000	23.573990	0.001026	20.812100
401.118536	-3.014400	3.759900	-11.333000	23.574513	0.001028	20.827797
402.118040	-2.990800	3.761100	-11.247000	23.600926	0.001026	20.809230
403.126008	-2.984900	3.761900	-11.227000	23.601150	0.001027	20.828896
404.120639	-3.010100	3.760800	-11.319000	23.586836	0.001027	20.829245
405.119171	-3.020700	3.759800	-11.356000	23.569236	0.001026	20.812076
406.124955	-2.994300	3.759900	-11.257000	23.558382	0.001027	20.821584
407.119566	-2.994400	3.760000	-11.258000	23.580464	0.001028	20.833288
408.118475	-2.999400	3.759100	-11.274000	23.611233	0.001028	20.813400
409.125564	-2.986000	3.759000	-11.224000	23.607847	0.001028	20.812850
410.121237	-3.008700	3.758000	-11.305000	23.594928	0.001027	20.827400
411.121095	-3.018300	3.757700	-11.341000	23.575412	0.001027	20.824431
412.120152	-2.990600	3.758700	-11.238000	23.572226	0.001027	20.835935
413.120134	-3.024300	3.756600	-11.359000	23.562393	0.001027	20.819915
414.119252	-3.008100	3.757300	-11.300000	23.575438	0.001027	20.806913
415.123779	-3.010100	3.758000	-11.312000	23.573621	0.001030	20.823109
416.126324	-2.984900	3.758300	-11.217000	23.573123	0.001030	20.826403
417.122721	-2.990900	3.757400	-11.236000	23.612282	0.001029	20.809235
418.124047	-3.001500	3.756800	-11.275000	23.623758	0.001029	20.810783
419.127656	-3.000000	3.755600	-11.264000	23.643921	0.001030	20.820091
420.124579	-2.979000	3.754900	-11.184000	23.654427	0.001029	20.839631
421.127536	-2.982300	3.755100	-11.198000	23.687558	0.001030	20.808363
422.124387	-2.987400	3.755700	-11.217000	23.708692	0.001032	20.828127
423.125869	-2.986400	3.754500	-11.210000	23.706378	0.001031	20.831971
424.129100	-2.988900	3.754600	-11.221000	23.701125	0.001032	20.831447
425.127594	-3.011400	3.753500	-11.301000	23.705507	0.001032	20.841055
426.127468	-2.995400	3.754600	-11.245000	23.712352	0.001030	20.825634
427.127728	-2.982000	3.753100	-11.191000	23.724823	0.001033	20.829602
428.128082	-3.005000	3.753200	-11.277000	23.747075	0.001031	20.839109
429.129071	-3.024000	3.752300	-11.345000	23.752203	0.001031	20.849940
430.131453	-3.001000	3.751900	-11.258000	23.760219	0.001033	20.838537
431.127448	-3.011300	3.750700	-11.294000	23.800565	0.001031	20.855756
432.129231	-2.971600	3.752400	-11.149000	23.762161	0.001034	20.825311
433.130080	-2.999900	3.752100	-11.255000	23.754197	0.001033	20.851464
434.131444	-2.993900	3.751600	-11.231000	23.741726	0.001032	20.847971
435.132610	-3.014800	3.749800	-11.304000	23.740980	0.001032	20.839162
436.130677	-3.019300	3.750000	-11.321000	23.729007	0.001034	20.812935
437.129508	-2.998700	3.749200	-11.240000	23.698591	0.001033	20.839337
438.132074	-2.995300	3.748900	-11.229000	23.692020	0.001033	20.846974
439.131992	-3.003700	3.748000	-11.258000	23.702002	0.001034	20.854611
440.130459	-3.005200	3.748400	-11.263000	23.712606	0.001033	20.851965
441.132052	-2.971500	3.748900	-11.138000	23.699464	0.001034	20.842583
442.132567	-2.982400	3.749500	-11.182000	23.721891	0.001035	20.829981
443.134212	-2.995200	3.747900	-11.224000	23.754225	0.001035	20.864768
444.133184	-3.018000	3.748600	-11.311000	23.746758	0.001034	20.841161
445.135246	-3.006500	3.747200	-11.265000	23.778020	0.001035	20.830307
446.134114	-2.988000	3.747600	-11.197000	23.777647	0.001035	20.860277
447.134743	-3.017600	3.745600	-11.301000	23.812069	0.001035	20.835997
448.135025	-3.005900	3.746700	-11.261000	23.823294	0.001037	20.845354
449.134914	-3.016100	3.745900	-11.297000	23.815728	0.001037	20.851993
450.136672	-3.009100	3.745100	-11.268000	23.806818	0.001035	20.835948
451.135176	-3.048100	3.743500	-11.409000	23.865555	0.001033	20.839840
452.137542	-3.012400	3.745500	-11.281000	23.851644	0.001035	20.844383
453.137239	-2.993400	3.745900	-11.211000	23.855726	0.001036	20.840890
454.136605	-3.004400	3.744800	-11.249000	23.830588	0.001037	20.854091
455.137725	-2.974200	3.745400	-11.139000	23.845746	0.001035	20.856013
456.139753	-3.002900	3.744000	-11.243000	23.864711	0.001034	20.831882
457.137352	-2.996600	3.743100	-11.214000	23.877727	0.001035	20.835450
458.139069	-2.998100	3.742300	-11.219000	23.897189	0.001037	20.851646
459.137583	-2.993300	3.744000	-11.205000	23.911052	0.001035	20.826193
460.138476	-3.004600	3.742100	-11.241000	23.918419	0.001038	20.842114
461.139670	-3.004800	3.742800	-11.244000	23.899903	0.001036	20.827816
462.138015	-3.000700	3.741700	-11.227000	23.908142	0.001038	20.832758
463.145814	-3.014000	3.742600	-11.279000	23.930688	0.001036	20.816012
464.137370	-3.023300	3.741300	-11.310000	23.899356	0.001036	20.838172
465.137985	-3.015900	3.739800	-11.278000	23.916827	0.001037	20.810648
466.141428	-2.996200	3.742700	-11.212000	23.901298	0.001036	20.802663
467.142157	-2.986500	3.741200	-11.172000	23.894156	0.001039	20.821579
468.141220	-2.998600	3.739700	-11.211000	23.902121	0.001039	20.819134
469.141632	-2.997500	3.740900	-11.210000	23.913917	0.001037	20.806307
470.141704	-2.987300	3.739300	-11.170000	23.948908	0.001037	20.808204
471.140711	-2.988300	3.738600	-11.171000	23.947838	0.001036	20.835580
472.143203	-2.991400	3.739900	-11.187000	23.975088	0.001038	20.818336
473.141384	-2.998000	3.738700	-11.208000	23.967051	0.001036	20.805535
474.141464	-3.003800	3.738600	-11.229000	23.967200	0.001037	20.811375
475.141700	-3.009300	3.737800	-11.247000	23.992385	0.001037	20.821457
476.143190	-3.029400	3.736900	-11.319000	24.012517	0.001035	20.823154
477.145784	-2.966500	3.738800	-11.090000	23.967774	0.001037	20.807683
478.141961	-3.022000	3.737800	-11.294000	23.978101	0.001036	20.804289
479.143124	-3.005000	3.736500	-11.227000	23.948388	0.001039	20.821434
480.142141	-3.010100	3.735900	-11.244000	23.953565	0.001038	20.810030
481.146037	-2.978600	3.737200	-11.131000	23.953117	0.001039	20.812900
482.143040	-2.992600	3.736800	-11.181000	23.933981	0.001038	20.818840
483.143118	-2.997000	3.736800	-11.198000	23.939157	0.001038	20.791314
484.141460	-3.011600	3.733900	-11.244000	23.941397	0.001036	20.795457
485.141512	-2.991900	3.736100	-11.177000	23.945305	0.001039	20.798427
486.142408	-3.023500	3.735200	-11.290000	23.961730	0.001038	20.801622
487.142521	-3.017300	3.735100	-11.269000	23.953494	0.001038	20.789569
488.142587	-2.999100	3.734000	-11.197000	23.961383	0.001037	20.806015
489.143307	-2.996100	3.734100	-11.187000	23.949786	0.001040	20.793912
490.143358	-2.979600	3.733800	-11.123000	23.945232	0.001038	20.795509
491.147357	-2.985800	3.733300	-11.146000	23.966609	0.001039	20.810308
492.146809	-2.983400	3.732800	-11.135000	23.965266	0.001041	20.808961
493.146749	-2.993300	3.732700	-11.172000	23.991296	0.001038	20.810408
494.150144	-2.996100	3.732000	-11.180000	24.010333	0.001041	20.782559
495.147540	-2.997600	3.731300	-11.184000	24.024567	0.001040	20.783557
496.147767	-3.004000	3.732600	-11.212000	23.998190	0.001041	20.811158
497.151303	-3.018500	3.729900	-11.257000	24.023124	0.001039	20.794912
498.150872	-2.998600	3.731400	-11.188000	24.014664	0.001039	20.794015
499.149504	-2.990700	3.730500	-11.156000	24.029820	0.001040	20.780290
500.148433	-3.020400	3.730500	-11.266000	24.043182	0.001042	20.809338
501.149583	-2.996200	3.730500	-11.176000	24.032656	0.001042	20.789299
502.149959	-3.012500	3.730400	-11.236000	24.043034	0.001039	20.811560
503.152647	-3.003800	3.728300	-11.198000	24.011829	0.001038	20.785955
504.150126	-3.018200	3.727600	-11.250000	23.985650	0.001040	20.762073
505.153482	-3.015600	3.728500	-11.243000	23.983213	0.001039	20.807044
506.151387	-2.984000	3.727600	-11.122000	24.003370	0.001040	20.790748
507.151993	-2.996500	3.728400	-11.172000	23.995282	0.001040	20.796862
508.155961	-2.982300	3.727500	-11.114000	24.000360	0.001040	20.782988
509.152029	-2.974700	3.727900	-11.089000	24.015937	0.001039	20.796714
510.150794	-3.008000	3.727100	-11.210000	24.031141	0.001040	20.778296
511.151313	-3.013800	3.726400	-11.229000	24.024399	0.001038	20.790500
512.152029	-3.004800	3.726700	-11.197000	24.046595	0.001040	20.785260
513.152112	-2.989400	3.726900	-11.140000	24.051746	0.001041	20.791848
514.154155	-3.008000	3.724900	-11.203000	24.037887	0.001039	20.787432
515.152082	-3.003500	3.725800	-11.189000	24.036991	0.001039	20.758084
516.152437	-3.021700	3.725100	-11.254000	24.058616	0.001040	20.760805
517.153138	-2.997900	3.724100	-11.163000	24.092606	0.001041	20.775928
518.153334	-2.972400	3.724600	-11.070000	24.124033	0.001040	20.774257
519.159940	-3.002100	3.724400	-11.181000	24.112862	0.001039	20.798140
520.153759	-2.983600	3.724400	-11.111000	24.109279	0.001041	20.792176
521.154381	-3.006600	3.722400	-11.191000	24.103407	0.001040	20.778700
522.154522	-2.995900	3.723700	-11.154000	24.076037	0.001041	20.777802
523.156816	-3.002400	3.723800	-11.179000	24.047719	0.001040	20.769317
524.155436	-2.986200	3.723400	-11.118000	24.027813	0.001042	20.763578
525.155307	-2.982500	3.723500	-11.104000	24.059541	0.001039	20.785440
526.155022	-3.014100	3.721600	-11.217000	24.061979	0.001040	20.776032
527.154783	-2.999900	3.721200	-11.162000	24.073202	0.001039	20.771640
528.155676	-3.005200	3.721100	-11.182000	24.088903	0.001041	20.792129
529.154955	-3.001800	3.720300	-11.166000	24.108611	0.001041	20.783445
530.155650	-3.014300	3.721700	-11.217000	24.098584	0.001040	20.766750
531.154668	-3.011700	3.721200	-11.206000	24.121924	0.001040	20.794901
532.160814	-2.983500	3.720400	-11.099000	24.086466	0.001041	20.776883
533.155486	-3.013100	3.719000	-11.203000	24.078256	0.001041	20.777658
534.157083	-2.998000	3.719300	-11.149000	24.070044	0.001038	20.768947
535.161984	-3.002900	3.718800	-11.166000	24.053050	0.001040	20.768973
536.157976	-2.982400	3.719800	-11.093000	24.071688	0.001040	20.749732
537.157191	-2.999000	3.718500	-11.149000	24.068279	0.001041	20.769074
538.159200	-3.017200	3.717900	-11.216000	24.090027	0.001040	20.757219
539.159709	-2.993400	3.718600	-11.130000	24.113342	0.001041	20.774914
540.160757	-3.016300	3.717500	-11.213000	24.125137	0.001040	20.751655
541.163473	-3.021800	3.717000	-11.231000	24.140663	0.001040	20.766753
542.160893	-3.034100	3.716100	-11.274000	24.145664	0.001039	20.770347
543.161216	-3.016400	3.716900	-11.211000	24.162634	0.001039	20.772195
544.162031	-2.994200	3.715800	-11.124000	24.128048	0.001040	20.782077
545.162373	-3.007700	3.717900	-11.182000	24.131233	0.001040	20.762986
546.165070	-3.007700	3.717800	-11.182000	24.101051	0.001038	20.755948
547.161287	-2.988500	3.716400	-11.106000	24.117050	0.001040	20.778633
548.163793	-2.995800	3.714700	-11.127000	24.096698	0.001040	20.762962
549.162091	-2.976800	3.715500	-11.060000	24.115509	0.001038	20.771397
550.161853	-2.991400	3.714700	-11.111000	24.138699	0.001040	20.751033
551.163673	-3.006200	3.713100	-11.161000	24.141163	0.001038	20.759194
552.162031	-3.005900	3.713500	-11.161000	24.153827	0.001038	20.795605
553.162049	-2.954100	3.715400	-10.973000	24.185352	0.001039	20.759419
554.163072	-3.002300	3.714200	-11.150000	24.199857	0.001040	20.784400
555.163263	-2.984200	3.713900	-11.082000	24.166244	0.001039	20.780083
556.162177	-3.000900	3.711800	-11.137000	24.162486	0.001037	20.746915
557.163644	-2.983600	3.713000	-11.078000	24.139720	0.001038	20.767705
558.163886	-2.991800	3.712800	-11.107000	24.140591	0.001037	20.760518
559.164063	-2.982000	3.711900	-11.068000	24.157411	0.001039	20.773120
560.165272	-2.996300	3.711300	-11.119000	24.178984	0.001038	20.764886
561.165500	-3.001900	3.712200	-11.142000	24.195379	0.001037	20.774693
562.173707	-3.022700	3.709900	-11.212000	24.234741	0.001037	20.763439
563.165088	-2.978600	3.711900	-11.055000	24.254768	0.001037	20.747492
564.164692	-2.989300	3.710100	-11.090000	24.236830	0.001038	20.749887
565.164260	-2.989400	3.710900	-11.093000	24.215634	0.001037	20.769404
566.165703	-2.988800	3.710600	-11.089000	24.215285	0.001039	20.753407
567.169097	-2.998000	3.708900	-11.118000	24.211131	0.001038	20.766784
568.175628	-3.000000	3.709600	-11.128000	24.207647	0.001036	20.759022
569.168271	-3.003000	3.707800	-11.134000	24.186176	0.001038	20.749814
570.169273	-2.993500	3.709100	-11.102000	24.171497	0.001037	20.738883
571.166861	-2.988000	3.708100	-11.079000	24.167939	0.001037	20.759972
572.169183	-2.995200	3.708700	-11.108000	24.184038	0.001038	20.764740
573.167292	-2.988200	3.708800	-11.082000	24.177669	0.001037	20.740333
574.168406	-3.025600	3.706900	-11.214000	24.167941	0.001037	20.753810
575.168371	-3.005300	3.705900	-11.137000	24.200634	0.001036	20.749617
576.169104	-3.003100	3.705200	-11.125000	24.224967	0.001037	20.749368
577.168407	-2.987200	3.707800	-11.074000	24.252061	0.001035	20.746199
578.169832	-3.006300	3.706700	-11.142000	24.309755	0.001035	20.749070
579.169127	-3.025200	3.705800	-11.210000	24.291917	0.001036	20.741133
580.174451	-2.977300	3.707400	-11.036000	24.300550	0.001035	20.743154
581.170277	-2.991100	3.705500	-11.082000	24.290375	0.001037	20.754285
582.169965	-3.004100	3.704600	-11.128000	24.276544	0.001036	20.761274
583.174545	-2.981000	3.705800	-11.047000	24.276967	0.001036	20.746051
584.170527	-2.990900	3.704200	-11.078000	24.262414	0.001035	20.762748
585.172980	-2.981100	3.704900	-11.044000	24.262115	0.001036	20.750593
586.171456	-2.977800	3.704700	-11.031000	24.266942	0.001036	20.750220
587.171466	-3.011700	3.702400	-11.148000	24.279382	0.001037	20.749422
588.172930	-2.999100	3.703900	-11.107000	24.225245	0.001036	20.740163
589.174302	-3.000900	3.703700	-11.113000	24.253435	0.001035	20.748999
590.170712	-2.987300	3.702100	-11.057000	24.251817	0.001036	20.752592
591.170876	-3.019500	3.700400	-11.173000	24.259182	0.001036	20.738168
592.171337	-3.000600	3.703200	-11.111000	24.244727	0.001036	20.737419
593.171595	-3.018800	3.700400	-11.170000	24.246668	0.001037	20.754540
594.172780	-3.012600	3.701300	-11.149000	24.242514	0.001036	20.749424
595.170853	-3.016900	3.700900	-11.164000	24.247341	0.001034	20.746206
596.173615	-3.007500	3.701300	-11.131000	24.286400	0.001035	20.749824
597.171642	-3.006700	3.701700	-11.128000	24.304313	0.001035	20.733178
598.172134	-2.988500	3.699900	-11.055000	24.346506	0.001035	20.738046
599.178608	-3.013800	3.698500	-11.145000	24.357427	0.001035	20.729561
600.173095	-2.980400	3.700800	-11.029000	24.384319	0.001034	20.733778
601.174119	-3.001600	3.698300	-11.100000	24.381633	0.001036	20.732980
602.173394	-3.000100	3.698600	-11.095000	24.430364	0.001033	20.747730
603.174369	-3.027400	3.695900	-11.187000	24.429269	0.001033	20.721025
604.174387	-2.999000	3.697500	-11.087000	24.435039	0.001033	20.730609
605.177484	-3.008600	3.697200	-11.123000	24.419219	0.001032	20.742239
606.174790	-3.014900	3.696600	-11.144000	24.391907	0.001032	20.741865
607.173750	-3.001100	3.696800	-11.094000	24.392031	0.001032	20.734877
608.174580	-3.009100	3.695900	-11.120000	24.391235	0.001032	20.719854
609.174821	-3.025200	3.694800	-11.176000	24.370215	0.001033	20.738122
610.176806	-3.024800	3.694000	-11.171000	24.384319	0.001032	20.755117
611.175122	-2.993400	3.694000	-11.056000	24.353374	0.001033	20.737823
612.175947	-3.012800	3.694700	-11.129000	24.351035	0.001032	20.742115
613.175016	-2.969800	3.696700	-10.977000	24.333672	0.001031	20.754095
614.176316	-3.019700	3.693100	-11.151000	24.316283	0.001032	20.733806
615.178983	-3.022800	3.693900	-11.165000	24.317602	0.001033	20.748880
616.176971	-3.014500	3.694100	-11.134000	24.356137	0.001032	20.734431
617.174289	-2.988300	3.694600	-11.039000	24.384047	0.001030	20.731610
618.176217	-3.012800	3.692100	-11.121000	24.390366	0.001032	20.750752
619.176150	-2.995900	3.694100	-11.066000	24.356087	0.001032	20.736278
620.175642	-2.998700	3.693100	-11.074000	24.377730	0.001032	20.738549
621.176765	-3.005300	3.692100	-11.095000	24.385864	0.001033	20.730113
622.175160	-3.004300	3.692300	-11.091000	24.408526	0.001032	20.722501
623.177252	-3.011400	3.690300	-11.112000	24.392332	0.001029	20.752724
624.180073	-2.998000	3.691100	-11.066000	24.382930	0.001030	20.724799
625.177268	-2.996100	3.693000	-11.064000	24.377382	0.001032	20.739148
626.179238	-3.003000	3.691300	-11.084000	24.374746	0.001032	20.720856
627.178138	-2.999700	3.690200	-11.068000	24.381289	0.001028	20.739748
628.176683	-2.997100	3.690200	-11.058000	24.361811	0.001029	20.729691
629.177653	-2.998200	3.690000	-11.062000	24.397185	0.001032	20.730564
630.178837	-3.000900	3.690500	-11.074000	24.396787	0.001030	20.735382
631.181471	-2.983100	3.690400	-11.007000	24.436837	0.001030	20.713445
632.177771	-2.988500	3.689900	-11.026000	24.464050	0.001029	20.710400
633.179864	-2.996600	3.689700	-11.055000	24.475044	0.001032	20.720483
634.177752	-3.003600	3.688500	-11.078000	24.476439	0.001028	20.721882
635.178536	-2.986300	3.690000	-11.018000	24.465619	0.001029	20.726674
636.181481	-2.990400	3.689900	-11.033000	24.494373	0.001030	20.717116
637.181058	-3.008700	3.687300	-11.093000	24.503004	0.001028	20.726250
638.181042	-2.991100	3.688300	-11.031000	24.498703	0.001027	20.715770
639.181178	-3.000800	3.687100	-11.062000	24.514199	0.001029	20.711402
640.181170	-2.984200	3.686100	-10.999000	24.505568	0.001025	20.699423
641.184990	-2.996700	3.687200	-11.048000	24.504575	0.001028	20.714548
642.182384	-3.008500	3.684100	-11.082000	24.552281	0.001027	20.723059
643.181153	-2.985400	3.685200	-11.000000	24.540715	0.001029	20.709557
644.185719	-3.001600	3.684000	-11.057000	24.544423	0.001026	20.701897
645.182975	-3.011100	3.685600	-11.095000	24.549896	0.001028	20.723037
646.182089	-2.999600	3.684500	-11.052000	24.544722	0.001027	20.718794
647.187219	-3.002100	3.684500	-11.061000	24.547110	0.001026	20.710758
648.181744	-3.005700	3.684800	-11.074000	24.583598	0.001025	20.715600
649.181443	-3.005000	3.684600	-11.071000	24.578350	0.001027	20.739260
650.181410	-2.996300	3.683800	-11.038000	24.574024	0.001026	20.691767
651.182487	-3.017600	3.682400	-11.112000	24.561016	0.001023	20.723763
652.182635	-2.991600	3.684200	-11.021000	24.556391	0.001025	20.701577
653.184679	-2.995400	3.683600	-11.033000	24.548657	0.001025	20.726061
654.186696	-3.000100	3.681700	-11.044000	24.551491	0.001027	20.706619
655.183362	-2.986300	3.680900	-10.991000	24.550871	0.001026	20.727334
656.182581	-2.995400	3.681500	-11.027000	24.554179	0.001024	20.715954
657.184323	-2.990200	3.681300	-11.007000	24.566316	0.001026	20.699681
658.184588	-3.015700	3.682100	-11.101000	24.572237	0.001025	20.721271
659.184933	-3.004600	3.681700	-11.061000	24.578480	0.001024	20.698136
660.185484	-2.987200	3.681100	-10.995000	24.601090	0.001023	20.714659
661.184276	-3.000400	3.679300	-11.037000	24.598279	0.001023	20.706623
662.184535	-2.993100	3.681000	-11.016000	24.595643	0.001022	20.713461
663.184760	-3.006000	3.679300	-11.059000	24.580820	0.001025	20.731780
664.186573	-2.977100	3.680500	-10.956000	24.554034	0.001023	20.720076
665.185538	-2.993500	3.679900	-11.014000	24.556446	0.001025	20.703055
666.187073	-2.993300	3.679900	-11.014000	24.560004	0.001021	20.701883
667.186658	-3.003200	3.679200	-11.048000	24.558983	0.001020	20.712713
668.187356	-3.008100	3.678100	-11.063000	24.603455	0.001023	20.703281
669.188939	-2.988500	3.678100	-10.991000	24.593532	0.001022	20.699014
670.187728	-2.978100	3.677000	-10.949000	24.600296	0.001021	20.704379
671.189095	-3.002500	3.677700	-11.041000	24.642478	0.001022	20.693124
672.187004	-3.001700	3.675700	-11.033000	24.613975	0.001020	20.692974
673.187607	-3.006100	3.677100	-11.053000	24.621264	0.001021	20.700288
674.190841	-3.004100	3.676400	-11.043000	24.599651	0.001020	20.713216
675.195362	-3.008400	3.675000	-11.055000	24.616390	0.001021	20.683542
676.190430	-2.999800	3.676300	-11.027000	24.619324	0.001021	20.701661
677.188451	-2.989800	3.675600	-10.987000	24.615694	0.001020	20.697543
678.189156	-2.998800	3.675400	-11.021000	24.598085	0.001020	20.722550
679.192443	-2.998600	3.675500	-11.021000	24.594702	0.001019	20.698291
680.189793	-2.988300	3.674500	-10.979000	24.576596	0.001019	20.713790
681.188359	-3.010600	3.674100	-11.060000	24.585028	0.001019	20.693800
682.190210	-2.994200	3.674000	-11.000000	24.587466	0.001020	20.701462
683.190040	-3.008700	3.674500	-11.054000	24.579456	0.001018	20.718557
684.189326	-3.007500	3.672600	-11.044000	24.578438	0.001019	20.705680
685.192822	-3.003600	3.674200	-11.034000	24.592117	0.001018	20.724623
686.190832	-3.019800	3.671800	-11.087000	24.589805	0.001018	20.692429
687.191907	-3.006500	3.672700	-11.042000	24.622311	0.001019	20.705131
688.190715	-3.001200	3.672000	-11.020000	24.640317	0.001017	20.698543
689.191340	-3.003900	3.671900	-11.029000	24.642829	0.001016	20.710548
690.192366	-3.003600	3.671100	-11.026000	24.639149	0.001017	20.694526
691.189852	-3.007300	3.670900	-11.038000	24.678145	0.001017	20.698094
692.191609	-2.988300	3.672100	-10.972000	24.642407	0.001015	20.716289
693.191415	-2.993700	3.671500	-10.990000	24.624327	0.001015	20.713793
694.191711	-3.020500	3.668500	-11.079000	24.610872	0.001017	20.729217
695.190804	-2.969000	3.669700	-10.894000	24.610152	0.001016	20.736555
696.197988	-2.981500	3.669700	-10.940000	24.585480	0.001017	20.708005
697.192161	-3.004300	3.669500	-11.022000	24.587967	0.001016	20.701016
698.193895	-2.993500	3.670300	-10.987000	24.603438	0.001016	20.692357
699.192708	-2.995500	3.670000	-10.992000	24.603513	0.001014	20.704762
700.196211	-2.998500	3.669200	-11.001000	24.638557	0.001015	20.713373
701.195951	-2.982600	3.667700	-10.938000	24.604335	0.001015	20.719813
702.193987	-2.991700	3.668500	-10.974000	24.603515	0.001014	20.712351
703.194652	-2.975600	3.669500	-10.917000	24.627069	0.001014	20.716545
704.192301	-2.989900	3.668000	-10.966000	24.657186	0.001013	20.702194
705.192695	-2.977800	3.668000	-10.921000	24.683675	0.001014	20.710282
706.196478	-2.993700	3.665600	-10.971000	24.669300	0.001013	20.725257
707.197186	-2.988600	3.667300	-10.959000	24.659825	0.001013	20.701997
708.195143	-3.010200	3.665100	-11.032000	24.677136	0.001013	20.734543
709.196334	-3.013600	3.667000	-11.049000	24.676341	0.001013	20.726158
710.197204	-2.971200	3.667500	-10.895000	24.674999	0.001013	20.685928
711.196474	-3.005600	3.664100	-11.013000	24.706782	0.001012	20.719247
712.198267	-2.992600	3.664500	-10.966000	24.676095	0.001010	20.716902
713.196139	-2.984400	3.666300	-10.940000	24.684130	0.001010	20.717852
714.199830	-2.967400	3.666100	-10.878000	24.702856	0.001011	20.734747
715.196783	-2.997000	3.663200	-10.978000	24.747968	0.001011	20.706523
716.196419	-3.017000	3.662400	-11.048000	24.727528	0.001011	20.714461
717.201868	-3.012000	3.663000	-11.030000	24.727281	0.001010	20.708048
718.200860	-2.995100	3.663400	-10.970000	24.689382	0.001011	20.716958
719.196421	-2.987900	3.664300	-10.948000	24.690404	0.001010	20.696171
720.197981	-3.001700	3.663300	-10.995000	24.663023	0.001010	20.726545
721.198569	-3.003800	3.662000	-10.998000	24.685283	0.001008	20.718535
722.197420	-3.020000	3.661200	-11.056000	24.710053	0.001010	20.731538
723.199435	-2.996000	3.661900	-10.969000	24.721047	0.001006	20.704162
724.197668	-2.966500	3.661700	-10.862000	24.710628	0.001007	20.721209
725.201044	-2.997300	3.662000	-10.976000	24.744325	0.001009	20.736533
726.200229	-2.985000	3.660700	-10.927000	24.728087	0.001007	20.723556
727.199318	-3.003900	3.660100	-10.993000	24.733685	0.001007	20.727277
728.202639	-3.004300	3.661300	-10.997000	24.733886	0.001007	20.717995
729.198362	-3.004500	3.660200	-10.995000	24.751268	0.001009	20.703196
730.199873	-2.999900	3.659800	-10.978000	24.726601	0.001007	20.724436
731.199138	-3.015500	3.659900	-11.035000	24.712875	0.001006	20.708764
732.199626	-3.015000	3.658900	-11.031000	24.715537	0.001005	20.716652
733.199399	-2.995400	3.659700	-10.962000	24.698030	0.001005	20.689599
734.206682	-3.004500	3.658200	-10.990000	24.664234	0.001004	20.714957
735.198996	-3.005300	3.657300	-10.989000	24.684853	0.001006	20.728061
736.200192	-2.995100	3.658300	-10.955000	24.681522	0.001005	20.715235
737.201276	-3.001500	3.658200	-10.979000	24.722507	0.001003	20.726018
738.205143	-2.995000	3.658000	-10.954000	24.711541	0.001004	20.707900
739.204858	-3.000700	3.655900	-10.970000	24.737631	0.001004	20.729815
740.200256	-3.006700	3.657400	-10.996000	24.721641	0.001004	20.706656
741.202308	-3.006500	3.656200	-10.991000	24.754119	0.001003	20.707005
742.201342	-2.998300	3.656300	-10.962000	24.736913	0.001003	20.712024
743.201250	-2.991800	3.656400	-10.939000	24.770437	0.001003	20.730020
744.203026	-3.030900	3.654300	-11.075000	24.770587	0.001002	20.733490
745.200995	-3.012200	3.654500	-11.007000	24.781281	0.001002	20.727627
746.207311	-3.001000	3.656300	-10.972000	24.790683	0.001002	20.707189
747.201008	-3.000900	3.654700	-10.965000	24.814432	0.001002	20.720119
748.202765	-2.992100	3.655300	-10.935000	24.801230	0.001001	20.735793
749.203014	-2.987700	3.653300	-10.914000	24.842310	0.001002	20.730553
750.206748	-3.014500	3.653500	-11.012000	24.822544	0.001001	20.729208
751.202008	-3.032900	3.652300	-11.076000	24.831148	0.001002	20.727412
752.204556	-3.014800	3.652200	-11.010000	24.856589	0.001002	20.724495
753.202051	-2.984000	3.653200	-10.900000	24.863627	0.001001	20.730611
754.201584	-2.993500	3.652700	-10.934000	24.897744	0.001000	20.718859
755.204496	-2.994100	3.651300	-10.932000	24.892051	0.001001	20.708403
756.204638	-2.984600	3.652900	-10.901000	24.893295	0.000998	20.703961
757.203091	-2.981500	3.652300	-10.888000	24.866642	0.001000	20.717041
758.202538	-3.013700	3.650400	-10.999000	24.850731	0.000999	20.724306
759.203017	-2.991000	3.652400	-10.923000	24.873781	0.000998	20.730845
760.202972	-2.994000	3.651100	-10.930000	24.871372	0.000998	20.715624
761.207730	-2.997400	3.651400	-10.943000	24.874257	0.000997	20.742229
762.206835	-2.999700	3.650700	-10.950000	24.904942	0.000996	20.718496
763.206207	-3.022800	3.648700	-11.028000	24.905192	0.000998	20.745302
764.206074	-3.010000	3.649400	-10.984000	24.920684	0.000997	20.741885
765.206275	-2.997600	3.647500	-10.933000	24.921657	0.000998	20.713936
766.206428	-2.998700	3.649000	-10.941000	24.926258	0.000995	20.748428
767.205971	-2.998300	3.648800	-10.939000	24.923077	0.000998	20.732906
768.208677	-2.988300	3.649400	-10.905000	24.903313	0.000996	20.735829
769.208591	-2.992100	3.648900	-10.917000	24.933177	0.000995	20.748260
770.207819	-2.981400	3.649500	-10.880000	24.939719	0.000995	20.748662
771.208967	-2.996800	3.648300	-10.931000	24.932884	0.000995	20.721411
772.206731	-3.005200	3.647600	-10.960000	24.952951	0.000995	20.735864
773.211296	-3.002900	3.648200	-10.954000	24.967572	0.000993	20.739159
774.207411	-3.004000	3.649100	-10.961000	24.929634	0.000994	20.713881
775.208571	-2.991300	3.647800	-10.911000	24.966733	0.000995	20.744482
776.215701	-3.010000	3.647200	-10.977000	24.920342	0.000992	20.728264
777.208643	-2.993300	3.646100	-10.912000	24.930934	0.000994	20.738896
778.212518	-2.987200	3.646100	-10.889000	24.912613	0.000995	20.724773
779.209545	-3.007000	3.644700	-10.959000	24.904062	0.000993	20.722356
780.211588	-2.985200	3.646100	-10.883000	24.870399	0.000992	20.713225
781.212502	-3.004500	3.645500	-10.952000	24.856454	0.000991	20.729576
782.214587	-3.011600	3.644600	-10.975000	24.853398	0.000991	20.737889
783.212807	-3.022600	3.643900	-11.013000	24.861682	0.000990	20.712536
784.211564	-2.998900	3.644800	-10.929000	24.893214	0.000991	20.734702
785.212071	-2.989500	3.643800	-10.892000	24.902342	0.000991	20.747657
786.220057	-3.005900	3.643800	-10.952000	24.922310	0.000990	20.733559
787.213927	-2.994700	3.643700	-10.911000	24.956054	0.000990	20.735659
788.212363	-2.991000	3.642000	-10.891000	24.972317	0.000988	20.745345
789.216757	-3.009100	3.641800	-10.957000	24.993677	0.000989	20.742603
790.213771	-3.007600	3.641600	-10.952000	25.017373	0.000989	20.736042
791.221301	-3.031600	3.640500	-11.035000	25.042810	0.000987	20.735023
792.217517	-2.983900	3.642800	-10.869000	25.066356	0.000988	20.734477
793.215192	-2.981300	3.642000	-10.857000	25.077770	0.000987	20.746884
794.214314	-3.024900	3.639400	-11.008000	25.076703	0.000988	20.744864
795.214438	-2.996700	3.641100	-10.910000	25.037553	0.000990	20.741600
796.213394	-3.014400	3.638700	-10.967000	25.009538	0.000984	20.743825
797.215206	-2.978600	3.641400	-10.845000	24.988608	0.000985	20.737041
798.217735	-2.992400	3.640300	-10.890000	24.964397	0.000987	20.735025
799.215481	-2.975300	3.641500	-10.834000	25.011961	0.000984	20.741990
800.215778	-2.989100	3.640100	-10.879000	25.036030	0.000984	20.730114
801.215544	-3.008600	3.640000	-10.950000	25.041428	0.000986	20.745964
802.215820	-3.005200	3.640500	-10.939000	25.014956	0.000984	20.754954
803.218892	-3.032000	3.638200	-11.030000	25.053421	0.000985	20.729553
804.215712	-2.997900	3.638800	-10.907000	25.048004	0.000981	20.754462
805.218984	-2.981300	3.638600	-10.846000	25.054546	0.000983	20.743011
806.218246	-2.982900	3.637700	-10.849000	25.028025	0.000982	20.734881
807.218964	-2.981100	3.638200	-10.844000	25.031832	0.000982	20.740125
808.221715	-2.984200	3.638700	-10.858000	25.038773	0.000983	20.745195
809.218452	-2.993000	3.636700	-10.884000	25.037858	0.000981	20.757080
810.219768	-2.992200	3.636300	-10.880000	25.065308	0.000982	20.735796
811.219675	-3.019000	3.635800	-10.975000	25.077170	0.000981	20.742013
812.222664	-2.978800	3.636100	-10.831000	25.056988	0.000982	20.756368
813.225717	-3.004400	3.636100	-10.923000	25.041553	0.000980	20.767901
814.228786	-3.025600	3.634400	-10.995000	25.006378	0.000981	20.764362
815.223820	-3.009400	3.634400	-10.937000	24.992708	0.000980	20.762494
816.228719	-3.013400	3.635600	-10.955000	25.008403	0.000978	20.754540
817.226363	-3.010300	3.634200	-10.938000	25.013529	0.000978	20.734554
818.226306	-2.998200	3.633400	-10.892000	25.028475	0.000978	20.736755
819.224267	-3.012100	3.632500	-10.941000	25.022039	0.000980	20.744520
820.226642	-3.018900	3.633000	-10.967000	25.055830	0.000979	20.733394
821.225651	-2.980100	3.633100	-10.825000	25.066350	0.000978	20.749170
822.226115	-2.990900	3.634000	-10.868000	25.078783	0.000978	20.764497
823.230483	-2.990500	3.633300	-10.864000	25.063227	0.000977	20.757415
824.226874	-2.995800	3.632600	-10.880000	25.031535	0.000977	20.761639
825.233453	-2.979400	3.634200	-10.826000	25.039322	0.000975	20.777516
826.228729	-2.982700	3.633400	-10.835000	25.067617	0.000978	20.742382
827.227922	-3.014500	3.632800	-10.950000	25.082514	0.000975	20.751646
828.233453	-3.006600	3.632400	-10.919000	25.063053	0.000976	20.748705
829.229815	-3.001900	3.632700	-10.903000	25.049633	0.000974	20.745665
830.230558	-2.993800	3.632400	-10.874000	25.060899	0.000973	20.748914
831.230806	-2.989700	3.631000	-10.855000	25.088252	0.000974	20.764993
832.230196	-2.999000	3.630500	-10.886000	25.070233	0.000974	20.756387
833.230951	-2.998600	3.630900	-10.887000	25.085851	0.000972	20.738874
834.235651	-3.002000	3.630100	-10.896000	25.054084	0.000973	20.745867
835.230057	-2.985200	3.630900	-10.837000	25.034027	0.000974	20.766985
836.231715	-2.995000	3.628500	-10.867000	25.013620	0.000972	20.750768
837.230563	-2.993900	3.628200	-10.861000	24.982202	0.000973	20.761906
838.230453	-2.992500	3.629900	-10.861000	25.012241	0.000972	20.730416
839.232854	-2.991700	3.629500	-10.857000	25.005184	0.000971	20.738507
840.232057	-3.002000	3.630100	-10.896000	25.014092	0.000972	20.751241
841.231327	-2.977400	3.628300	-10.802000	24.987022	0.000970	20.741613
842.231435	-2.972800	3.629500	-10.788000	25.012413	0.000971	20.767101
843.231817	-2.996500	3.629000	-10.874000	25.003368	0.000970	20.751383
844.236007	-2.989400	3.627700	-10.843000	24.974261	0.000969	20.743503
845.234329	-3.020300	3.625600	-10.949000	24.986302	0.000970	20.770289
846.237189	-2.993000	3.627600	-10.856000	24.984716	0.000969	20.756843
847.234589	-2.995600	3.627900	-10.866000	24.985742	0.000969	20.749812
848.234470	-3.005500	3.625700	-10.896000	24.976049	0.000969	20.768532
849.239506	-3.000500	3.625500	-10.877000	24.979365	0.000968	20.753842
850.235408	-2.997900	3.624900	-10.866000	24.992923	0.000967	20.756545
851.236616	-2.988800	3.625400	-10.833000	25.025919	0.000968	20.778761
852.237082	-2.999300	3.625400	-10.872000	25.045442	0.000967	20.749519
853.236640	-3.023400	3.623100	-10.953000	25.052883	0.000966	20.730435
854.236010	-2.997800	3.623400	-10.861000	25.085752	0.000967	20.750628
855.241595	-3.009400	3.623600	-10.904000	25.123422	0.000968	20.759521
856.237857	-2.991500	3.623500	-10.838000	25.113982	0.000964	20.759528
857.235487	-3.000300	3.624000	-10.872000	25.064169	0.000965	20.764999
858.236709	-3.002300	3.623000	-10.877000	25.065967	0.000965	20.772020
859.236434	-3.032200	3.621600	-10.981000	25.060303	0.000964	20.744523
860.248517	-2.987100	3.623900	-10.822000	25.033411	0.000964	20.754512
861.237436	-3.008200	3.622200	-10.894000	25.024987	0.000963	20.757437
862.240024	-2.981500	3.623100	-10.802000	25.063407	0.000963	20.762812
863.242030	-3.013100	3.620100	-10.906000	25.093619	0.000963	20.753785
864.239100	-2.990700	3.622200	-10.831000	25.119529	0.000962	20.750871
865.239295	-3.009300	3.621200	-10.896000	25.147180	0.000963	20.756819
866.239000	-2.998400	3.620800	-10.854000	25.203117	0.000963	20.735687
867.240606	-2.981700	3.621300	-10.797000	25.232379	0.000963	20.763170
868.239954	-3.009100	3.619600	-10.890000	25.255328	0.000962	20.768666
869.242226	-3.009100	3.620200	-10.893000	25.263663	0.000961	20.774190
870.240631	-3.012500	3.618600	-10.899000	25.277666	0.000959	20.771179
871.242681	-3.030200	3.617800	-10.962000	25.287366	0.000961	20.761003
872.242027	-2.993800	3.619900	-10.836000	25.255159	0.000960	20.757116
873.241246	-2.987900	3.620000	-10.814000	25.211868	0.000959	20.755379
874.243421	-3.019600	3.618100	-10.924000	25.171854	0.000959	20.747450
875.242771	-2.995000	3.618700	-10.837000	25.164800	0.000959	20.758386
876.246057	-2.991300	3.619300	-10.826000	25.172637	0.000958	20.744916
877.243781	-3.002200	3.617600	-10.860000	25.198077	0.000959	20.770931
878.247423	-2.998200	3.616900	-10.843000	25.220574	0.000956	20.760800
879.243869	-3.009700	3.617800	-10.888000	25.262266	0.000958	20.771364
880.244470	-3.013400	3.615800	-10.895000	25.275401	0.000957	20.763215
881.247989	-2.995700	3.616100	-10.831000	25.304510	0.000957	20.777269
882.246706	-3.015900	3.615800	-10.902000	25.301213	0.000956	20.754043
883.245018	-2.989600	3.616500	-10.810000	25.285560	0.000955	20.779579
884.245387	-3.020600	3.614500	-10.917000	25.303217	0.000955	20.793514
885.245945	-3.027100	3.613100	-10.936000	25.279486	0.000954	20.754988
886.245920	-3.033900	3.614500	-10.966000	25.262070	0.000955	20.742718
887.249050	-2.983500	3.615300	-10.786000	25.240753	0.000953	20.755455
888.245370	-3.038800	3.612800	-10.978000	25.205016	0.000954	20.765095
889.250516	-3.030300	3.613500	-10.949000	25.212032	0.000954	20.767871
890.246595	-2.997300	3.613200	-10.828000	25.190713	0.000955	20.744097
891.248353	-2.994700	3.614500	-10.823000	25.212222	0.000951	20.760950
892.248562	-2.995700	3.611900	-10.819000	25.187495	0.000951	20.753195
893.249725	-2.982300	3.613200	-10.774000	25.152402	0.000951	20.756845
894.248120	-3.005100	3.611500	-10.852000	25.169889	0.000951	20.765866
895.248374	-2.978300	3.614000	-10.763000	25.153315	0.000950	20.751597
896.249655	-2.976800	3.613200	-10.754000	25.157374	0.000951	20.773691
897.253607	-2.993200	3.612300	-10.811000	25.158775	0.000948	20.737163
898.248109	-2.988600	3.611800	-10.792000	25.164251	0.000951	20.757835
899.250787	-2.990700	3.611300	-10.799000	25.189236	0.000950	20.732657
900.247855	-3.011600	3.610900	-10.874000	25.186488	0.000947	20.739856
901.248800	-2.996600	3.610000	-10.817000	25.219653	0.000949	20.748496
902.250519	-2.994700	3.609600	-10.808000	25.224533	0.000947	20.741067
903.250700	-3.014500	3.608000	-10.874000	25.229342	0.000948	20.732144
904.248727	-3.016000	3.608800	-10.884000	25.217393	0.000947	20.719672
905.249119	-3.028300	3.609500	-10.930000	25.234799	0.000946	20.727191
906.249632	-3.012900	3.607600	-10.868000	25.261728	0.000945	20.729097
907.249482	-3.022900	3.607800	-10.906000	25.286816	0.000945	20.719198
908.254309	-2.990500	3.607900	-10.789000	25.323833	0.000945	20.736451
909.251576	-2.987400	3.609400	-10.781000	25.333262	0.000946	20.726004
910.254287	-2.991000	3.607900	-10.790000	25.254924	0.000944	20.718947
911.250618	-3.016300	3.606900	-10.879000	25.221501	0.000945	20.711468
912.250715	-2.988500	3.607100	-10.778000	25.225736	0.000944	20.725678
913.251626	-2.985700	3.606000	-10.765000	25.203946	0.000943	20.717552
914.251960	-2.989500	3.605700	-10.777000	25.214593	0.000945	20.718284
915.250719	-2.975900	3.608200	-10.737000	25.287180	0.000941	20.720038
916.251302	-2.981500	3.607200	-10.754000	25.299620	0.000941	20.714509
917.252130	-3.016700	3.605300	-10.875000	25.315361	0.000941	20.716564
918.252362	-2.986700	3.605600	-10.768000	25.343406	0.000941	20.704418
919.256624	-2.991200	3.606400	-10.787000	25.301460	0.000941	20.707348
920.253496	-3.009300	3.603900	-10.844000	25.296423	0.000941	20.709403
921.252275	-2.984700	3.605200	-10.759000	25.310650	0.000939	20.713255
922.253141	-2.997200	3.603900	-10.801000	25.302085	0.000939	20.716984
923.256747	-2.987700	3.604600	-10.768000	25.309873	0.000937	20.700146
924.254353	-3.002600	3.602800	-10.815000	25.337420	0.000937	20.705995
925.253563	-2.978800	3.604500	-10.736000	25.366835	0.000939	20.695226
926.254883	-2.990900	3.602300	-10.773000	25.353246	0.000939	20.712877
927.254756	-2.987900	3.604000	-10.766000	25.361805	0.000937	20.683062
928.253824	-3.023400	3.601500	-10.887000	25.371880	0.000937	20.683221
929.258302	-3.015900	3.600500	-10.858000	25.350544	0.000937	20.684558
930.256677	-3.005300	3.600700	-10.820000	25.365067	0.000936	20.697244
931.258379	-3.000700	3.601500	-10.806000	25.386647	0.000935	20.702318
932.255066	-3.024700	3.601100	-10.892000	25.388521	0.000934	20.701355
933.256394	-3.021700	3.599500	-10.876000	25.406126	0.000935	20.677305
934.256472	-3.015100	3.600000	-10.853000	25.412624	0.000932	20.695685
935.258002	-2.975600	3.601500	-10.715000	25.408984	0.000934	20.684916
936.257350	-3.013700	3.598800	-10.845000	25.396837	0.000933	20.681253
937.261627	-3.000600	3.599600	-10.800000	25.379699	0.000934	20.676373
938.258736	-2.980400	3.600800	-10.731000	25.400286	0.000931	20.688511
939.257689	-2.997700	3.598600	-10.787000	25.401568	0.000930	20.704973
940.261151	-3.009300	3.597200	-10.823000	25.391162	0.000931	20.694049
941.258034	-2.999800	3.597100	-10.788000	25.373553	0.000929	20.689169
942.258312	-2.992500	3.597500	-10.765000	25.392899	0.000930	20.686784
943.258474	-3.014100	3.597500	-10.842000	25.393009	0.000931	20.704913
944.258915	-2.995600	3.597400	-10.776000	25.387726	0.000931	20.674950
945.258318	-2.982900	3.596000	-10.726000	25.419424	0.000927	20.680227
946.260470	-2.997500	3.596400	-10.779000	25.439468	0.000930	20.680913
947.260143	-2.995800	3.596000	-10.772000	25.446783	0.000929	20.695847
948.260737	-2.991100	3.596200	-10.755000	25.455942	0.000928	20.674222
949.259946	-2.994200	3.594800	-10.763000	25.430402	0.000926	20.676551
950.258645	-3.043500	3.594300	-10.938000	25.414805	0.000926	20.661836
951.261891	-2.979000	3.596400	-10.711000	25.385688	0.000926	20.681912
952.258155	-3.014900	3.593900	-10.834000	25.382844	0.000926	20.680006
953.260868	-3.001700	3.592900	-10.783000	25.392197	0.000923	20.669956
954.260016	-2.980500	3.593300	-10.709000	25.392878	0.000925	20.653093
955.259985	-2.994000	3.594500	-10.761000	25.365476	0.000925	20.664935
956.259993	-2.989900	3.594800	-10.747000	25.329450	0.000922	20.677601
957.261218	-2.990300	3.592600	-10.742000	25.336890	0.000922	20.676062
958.260979	-3.009200	3.592600	-10.810000	25.338720	0.000923	20.656560
959.260391	-3.004600	3.592500	-10.793000	25.340447	0.000921	20.641224
960.261468	-3.021300	3.592200	-10.852000	25.363597	0.000920	20.672533
961.259519	-3.017300	3.592800	-10.839000	25.340121	0.000921	20.666503
962.265231	-2.993200	3.592100	-10.751000	25.345351	0.000920	20.660849
963.260858	-2.983000	3.592100	-10.713000	25.318047	0.000920	20.657615
964.262479	-3.004200	3.589700	-10.783000	25.318034	0.000919	20.672777
965.261463	-3.022600	3.588600	-10.846000	25.339715	0.000917	20.643334
966.263234	-3.013300	3.590200	-10.818000	25.311495	0.000919	20.641552
967.266699	-3.008100	3.589500	-10.797000	25.314763	0.000916	20.642462
968.260805	-3.007100	3.588800	-10.791000	25.310870	0.000917	20.648037
969.273597	-3.023700	3.588600	-10.849000	25.334994	0.000916	20.645232
970.260467	-3.008500	3.588800	-10.796000	25.372057	0.000918	20.648308
971.262068	-2.993600	3.590000	-10.746000	25.349304	0.000917	20.656756
972.275061	-2.983800	3.588700	-10.707000	25.298343	0.000918	20.665333
973.262557	-2.983600	3.587100	-10.701000	25.294072	0.000915	20.661993
974.273756	-2.988500	3.588500	-10.723000	25.309820	0.000915	20.660734
975.266500	-2.995300	3.588000	-10.745000	25.281390	0.000916	20.647361
976.264487	-2.985500	3.587500	-10.709000	25.280732	0.000914	20.658082
977.263042	-3.009900	3.586200	-10.793000	25.299959	0.000917	20.638977
978.268957	-2.985300	3.587100	-10.708000	25.302505	0.000913	20.648173
979.263083	-2.969900	3.586000	-10.649000	25.348295	0.000913	20.646733
980.262702	-2.972900	3.587500	-10.664000	25.360983	0.000912	20.640032
981.263353	-2.979100	3.585400	-10.678000	25.386117	0.000912	20.651521
982.270742	-2.991200	3.586500	-10.727000	25.411058	0.000911	20.636259
983.266936	-2.967700	3.587600	-10.646000	25.462362	0.000911	20.650320
984.267455	-3.004800	3.585100	-10.771000	25.497413	0.000911	20.646638
985.268741	-2.983200	3.586600	-10.698000	25.508753	0.000909	20.623884
986.264061	-3.010500	3.583300	-10.786000	25.522610	0.000908	20.659615
987.268275	-3.013100	3.583200	-10.795000	25.504947	0.000910	20.638082
988.269315	-2.981500	3.585400	-10.690000	25.524839	0.000908	20.633875
989.267729	-3.000700	3.583600	-10.753000	25.527356	0.000908	20.666753
990.266360	-2.975900	3.583600	-10.664000	25.509673	0.000907	20.626705
991.268219	-2.988300	3.584400	-10.710000	25.507403	0.000908	20.638177
992.272861	-3.009300	3.581600	-10.777000	25.526696	0.000907	20.626256
993.271718	-2.997100	3.581900	-10.734000	25.535823	0.000907	20.641587
994.268052	-3.008400	3.580500	-10.769000	25.555164	0.000906	20.648684
995.268414	-2.976600	3.582700	-10.663000	25.554656	0.000906	20.623040
996.281108	-2.988200	3.581700	-10.702000	25.555411	0.000906	20.630438
997.270504	-2.991600	3.581000	-10.712000	25.565261	0.000904	20.618517
998.279065	-3.002700	3.580900	-10.752000	25.536645	0.000905	20.646682
999.272362	-3.000100	3.579700	-10.738000	25.543018	0.000904	20.632216
1000.280597	-3.007700	3.580600	-10.768000	25.525286	0.000902	20.621994
1001.271332	-3.000200	3.579800	-10.739000	25.490753	0.000906	20.623351
1002.279907	-2.999100	3.579000	-10.732000	25.518849	0.000902	20.617426
1003.274437	-3.009800	3.578700	-10.769000	25.530854	0.000901	20.639917
1004.283230	-3.007500	3.578400	-10.761000	25.549108	0.000903	20.642128
1005.273313	-3.008200	3.578800	-10.764000	25.547730	0.000900	20.633155
1006.271529	-2.968100	3.580000	-10.625000	25.512229	0.000899	20.639704
1007.272502	-3.001800	3.577200	-10.736000	25.499735	0.000901	20.632847
1008.275808	-2.989800	3.577700	-10.696000	25.475471	0.000900	20.627920
1009.278512	-2.984500	3.578700	-10.680000	25.480255	0.000897	20.616601
1010.273976	-3.018200	3.575000	-10.790000	25.473904	0.000896	20.634408
1011.280107	-2.992200	3.577000	-10.700000	25.450904	0.000895	20.644503
1012.282407	-2.984700	3.576000	-10.672000	25.471570	0.000894	20.611198
1013.277583	-3.002100	3.576300	-10.735000	25.483412	0.000896	20.629256
1014.278643	-3.005200	3.574800	-10.740000	25.497959	0.000899	20.619208
1015.270870	-3.013300	3.575200	-10.772000	25.525678	0.000895	20.631872
1016.273263	-2.997000	3.575600	-10.715000	25.486744	0.000895	20.623592
1017.278485	-2.989400	3.575000	-10.686000	25.476370	0.000894	20.630719
1018.275642	-3.006300	3.573800	-10.743000	25.481528	0.000896	20.628312
1019.283695	-2.984800	3.573300	-10.665000	25.495406	0.000892	20.604787
1020.276204	-2.999700	3.572900	-10.716000	25.486120	0.000890	20.627708
1021.273454	-3.020200	3.571500	-10.786000	25.480167	0.000894	20.608925
1022.277465	-3.001000	3.573600	-10.723000	25.513778	0.000891	20.617075
1023.285507	-3.012900	3.570900	-10.758000	25.559536	0.000890	20.610870
1024.276191	-3.000500	3.572800	-10.719000	25.562978	0.000890	20.632347
1025.281419	-3.013500	3.571500	-10.762000	25.593084	0.000892	20.618485
1026.274096	-3.012900	3.571400	-10.759000	25.596777	0.000893	20.625039
1027.283020	-3.009500	3.571200	-10.747000	25.626229	0.000890	20.599613
1028.272516	-2.991600	3.570900	-10.681000	25.614042	0.000890	20.612979
1029.284238	-2.990300	3.572000	-10.679000	25.608140	0.000890	20.631710
1030.278502	-2.961200	3.572600	-10.577000	25.588305	0.000889	20.619849
1031.278005	-2.997100	3.569700	-10.699000	25.597112	0.000887	20.601190
1032.278326	-2.991600	3.569800	-10.678000	25.638347	0.000887	20.605146
1033.277840	-3.009800	3.569200	-10.741000	25.604394	0.000886	20.599494
1034.282506	-3.023500	3.568400	-10.789000	25.579287	0.000885	20.598461
1035.281895	-3.003900	3.569300	-10.721000	25.566205	0.000886	20.607609
1036.283800	-2.996600	3.567000	-10.688000	25.536548	0.000883	20.607698
1037.290333	-2.983800	3.569700	-10.650000	25.550574	0.000886	20.608982
1038.298586	-2.988000	3.568100	-10.659000	25.520823	0.000885	20.588584
1039.281950	-2.994500	3.567300	-10.681000	25.490541	0.000885	20.602746
1040.280666	-2.979600	3.568300	-10.632000	25.466195	0.000883	20.596314
1041.282029	-2.989700	3.566600	-10.662000	25.459854	0.000883	20.596111
1042.285495	-3.027100	3.566100	-10.795000	25.434990	0.000881	20.604336
1043.294406	-3.000400	3.565400	-10.696000	25.388700	0.000881	20.576815
1044.285063	-3.002200	3.563700	-10.697000	25.403254	0.000881	20.590958
1045.288489	-3.000600	3.565200	-10.697000	25.430504	0.000881	20.607892
1046.280598	-3.007900	3.565800	-10.725000	25.464491	0.000882	20.606933
1047.282449	-3.004900	3.564200	-10.710000	25.504566	0.000880	20.586956
1048.280296	-2.993600	3.565000	-10.671000	25.547940	0.000878	20.578830
1049.285824	-2.990000	3.563900	-10.656000	25.570346	0.000877	20.612718
1050.296301	-2.995300	3.564800	-10.676000	25.564248	0.000880	20.586674
1051.291908	-3.017100	3.562600	-10.747000	25.599249	0.000879	20.583419
1052.286965	-3.005900	3.562500	-10.707000	25.604806	0.000877	20.568134
1053.283548	-3.005900	3.561800	-10.705000	25.632852	0.000875	20.619544
1054.292961	-2.978900	3.563600	-10.615000	25.632066	0.000877	20.580816
1055.284514	-3.000700	3.561900	-10.687000	25.630020	0.000876	20.597256
1056.288404	-3.005200	3.562700	-10.705000	25.651850	0.000875	20.589782
1057.302154	-3.007800	3.560800	-10.709000	25.637830	0.000875	20.598936
1058.288027	-2.994500	3.561400	-10.664000	25.605166	0.000873	20.581775
1059.301091	-3.022300	3.560100	-10.758000	25.591692	0.000875	20.582467
1060.287567	-3.006300	3.560000	-10.701000	25.527674	0.000874	20.600681
1061.294688	-3.015100	3.559300	-10.731000	25.535981	0.000876	20.595746
1062.290159	-2.995600	3.560600	-10.665000	25.549619	0.000874	20.591898
1063.310647	-3.007600	3.558500	-10.702000	25.571825	0.000874	20.580532
1064.295154	-2.977300	3.560200	-10.599000	25.590572	0.000871	20.585611
1065.300981	-2.992600	3.559300	-10.651000	25.609650	0.000870	20.584856
1066.295853	-3.005500	3.559000	-10.695000	25.628126	0.000870	20.570219
1067.292049	-3.025500	3.556200	-10.758000	25.616088	0.000867	20.578045
1068.291127	-3.016800	3.557300	-10.731000	25.589414	0.000869	20.571643
1069.296964	-3.029100	3.557600	-10.775000	25.597530	0.000869	20.581692
1070.299769	-3.005300	3.556900	-10.688000	25.584522	0.000868	20.573843
1071.302532	-2.999200	3.556400	-10.666000	25.595318	0.000867	20.596542
1072.292475	-2.980600	3.556400	-10.597000	25.578263	0.000865	20.583680
1073.292343	-2.984700	3.556300	-10.614000	25.565905	0.000867	20.566998
1074.301109	-3.015400	3.556000	-10.720000	25.534902	0.000867	20.539650
1075.302583	-2.994900	3.554700	-10.645000	25.514536	0.000863	20.581795
1076.296060	-2.993000	3.556300	-10.643000	25.486872	0.000863	20.570607
1077.295722	-3.000700	3.554000	-10.663000	25.503113	0.000861	20.592136
1078.314896	-3.000900	3.555800	-10.669000	25.531679	0.000865	20.563920
1079.295235	-3.016700	3.553100	-10.717000	25.561888	0.000862	20.562014
1080.302287	-3.017000	3.553100	-10.718000	25.574547	0.000861	20.581844
1081.299426	-2.993700	3.554000	-10.638000	25.555403	0.000863	20.580161
1082.309693	-3.009800	3.553800	-10.695000	25.593164	0.000861	20.585843
1083.311604	-3.011100	3.553400	-10.698000	25.588503	0.000861	20.576892
1084.295050	-3.008000	3.553300	-10.687000	25.584821	0.000860	20.563709
1085.294437	-3.003900	3.552900	-10.671000	25.597358	0.000859	20.569189
1086.298754	-2.976100	3.551900	-10.570000	25.595436	0.000859	20.566784
1087.298935	-2.996900	3.551200	-10.642000	25.624920	0.000859	20.572689
1088.299079	-3.009900	3.549600	-10.683000	25.645212	0.000859	20.589279
1089.300019	-3.006500	3.551300	-10.675000	25.640660	0.000857	20.574273
1090.299364	-2.996300	3.551500	-10.641000	25.622898	0.000858	20.555956
1091.299340	-3.013200	3.551000	-10.699000	25.600553	0.000856	20.564336
1092.309670	-2.994600	3.550500	-10.632000	25.591954	0.000856	20.569925
1093.300331	-3.002200	3.550200	-10.657000	25.573271	0.000856	20.570128
1094.299850	-3.002200	3.548300	-10.652000	25.575156	0.000854	20.563486
1095.306522	-2.994300	3.550100	-10.629000	25.586995	0.000854	20.586285
1096.303055	-2.996600	3.549100	-10.635000	25.599238	0.000856	20.553056
1097.305870	-2.999500	3.548900	-10.644000	25.643976	0.000854	20.565748
1098.312236	-2.988100	3.548500	-10.602000	25.661626	0.000855	20.579211
1099.311154	-2.990900	3.546800	-10.607000	25.686486	0.000851	20.577626
1100.312750	-3.006200	3.546400	-10.660000	25.675246	0.000853	20.565861
1101.302968	-3.005600	3.545900	-10.656000	25.668010	0.000852	20.571870
1102.311835	-3.011400	3.546700	-10.680000	25.663417	0.000854	20.568205
1103.310712	-2.982600	3.547300	-10.579000	25.670240	0.000850	20.564151
1104.306211	-2.997500	3.545600	-10.627000	25.661527	0.000853	20.572945
1105.309662	-2.976200	3.545900	-10.551000	25.675032	0.000851	20.550470
1106.305659	-3.005800	3.544600	-10.653000	25.660856	0.000851	20.577963
1107.314258	-2.986200	3.545600	-10.586000	25.691406	0.000848	20.546051
1108.305075	-3.014500	3.544100	-10.683000	25.656551	0.000848	20.587865
1109.316443	-2.995400	3.545100	-10.617000	25.664956	0.000847	20.555997
1110.305384	-2.977700	3.543800	-10.552000	25.638039	0.000850	20.579228
1111.312269	-3.014200	3.543700	-10.680000	25.681433	0.000848	20.561643
1112.305364	-3.001900	3.541800	-10.631000	25.688888	0.000847	20.553007
1113.313579	-3.000100	3.542500	-10.627000	25.650188	0.000845	20.559184
1114.314563	-3.000500	3.542700	-10.628000	25.599365	0.000845	20.571680
1115.309971	-3.020600	3.541800	-10.698000	25.598973	0.000847	20.581244
1116.323503	-3.013600	3.541900	-10.672000	25.633748	0.000846	20.560690
1117.311505	-2.966300	3.543800	-10.511000	25.629756	0.000843	20.569485
1118.311521	-3.000100	3.540600	-10.620000	25.635856	0.000844	20.588417
1119.316429	-3.005300	3.540500	-10.638000	25.626376	0.000842	20.583637
1120.316546	-2.998200	3.539900	-10.613000	25.647755	0.000843	20.558636
1121.319263	-3.016500	3.539800	-10.676000	25.682971	0.000841	20.548011
1122.311575	-2.986600	3.541000	-10.574000	25.710933	0.000842	20.574679
1123.313793	-3.012800	3.539100	-10.662000	25.719062	0.000842	20.566722
1124.319098	-3.019700	3.538200	-10.683000	25.726657	0.000840	20.565341
1125.316900	-3.028800	3.538200	-10.715000	25.728458	0.000839	20.573316
1126.313843	-2.991900	3.538600	-10.586000	25.716938	0.000838	20.566011
1127.314162	-3.011500	3.537900	-10.653000	25.718341	0.000840	20.564575
1128.316839	-2.985600	3.538300	-10.562000	25.695074	0.000836	20.578192
1129.316001	-2.990800	3.537800	-10.580000	25.687178	0.000836	20.578321
1130.319508	-3.008100	3.535900	-10.635000	25.681383	0.000837	20.572025
1131.326520	-2.979200	3.536800	-10.536000	25.683651	0.000836	20.574778
1132.317790	-2.990400	3.535500	-10.572000	25.664356	0.000838	20.596180
1133.320323	-2.989000	3.535000	-10.565000	25.694188	0.000835	20.579673
1134.315518	-2.964300	3.537700	-10.485000	25.702784	0.000836	20.593999
1135.319158	-3.000500	3.533400	-10.601000	25.694089	0.000835	20.577676
1136.318584	-2.987700	3.534700	-10.559000	25.629118	0.000830	20.583546
1137.315723	-3.004000	3.534900	-10.618000	25.627689	0.000834	20.581162
1138.317564	-2.990700	3.534900	-10.571000	25.615034	0.000832	20.584099
1139.318222	-2.992500	3.533900	-10.574000	25.583359	0.000833	20.595911
1140.319359	-2.993200	3.533900	-10.577000	25.591053	0.000832	20.592733
1141.320734	-2.980600	3.535100	-10.535000	25.623518	0.000830	20.582188
1142.316296	-2.994300	3.534100	-10.581000	25.601788	0.000830	20.556566
1143.318849	-2.967800	3.533200	-10.484000	25.576508	0.000832	20.581916
1144.317807	-2.972900	3.533200	-10.502000	25.564937	0.000828	20.600171
1145.318523	-3.002900	3.530800	-10.600000	25.506428	0.000828	20.586455
1146.320338	-3.015000	3.531600	-10.647000	25.488448	0.000829	20.583572
1147.321848	-2.983800	3.532100	-10.538000	25.458315	0.000828	20.574173
1148.317984	-3.005800	3.530400	-10.611000	25.452415	0.000827	20.562083
1149.320072	-3.003800	3.529200	-10.600000	25.465495	0.000826	20.579962
1150.327338	-3.015800	3.531000	-10.648000	25.458749	0.000825	20.591208
1151.320580	-3.017100	3.529300	-10.647000	25.484032	0.000825	20.590044
1152.325661	-3.028000	3.528600	-10.684000	25.554523	0.000825	20.586391
1153.320063	-3.017300	3.527900	-10.643000	25.564775	0.000823	20.583410
1154.323967	-3.002700	3.528300	-10.594000	25.592716	0.000823	20.595826
1155.320791	-3.002500	3.530400	-10.599000	25.601944	0.000823	20.595136
1156.321348	-2.982700	3.528900	-10.525000	25.596462	0.000823	20.586785
1157.325038	-2.991300	3.527600	-10.551000	25.545435	0.000821	20.593387
1158.322467	-3.003000	3.526800	-10.589000	25.561402	0.000822	20.584290
1159.321086	-3.001700	3.527200	-10.586000	25.576921	0.000819	20.608414
1160.320963	-3.023200	3.525500	-10.657000	25.564008	0.000821	20.597341
1161.320776	-2.986500	3.525900	-10.528000	25.589319	0.000818	20.590042
1162.321598	-3.006500	3.526800	-10.603000	25.611146	0.000820	20.581142
1163.323420	-2.981200	3.526500	-10.513000	25.617394	0.000819	20.602120
1164.322519	-2.976300	3.525000	-10.490000	25.597608	0.000817	20.604060
1165.330768	-2.992600	3.525100	-10.547000	25.616076	0.000818	20.589888
1166.322881	-3.012900	3.524400	-10.616000	25.648443	0.000817	20.607700
1167.331750	-3.014000	3.524700	-10.622000	25.660306	0.000815	20.595431
1168.325562	-3.005200	3.524800	-10.591000	25.662434	0.000817	20.589032
1169.327157	-3.007200	3.523200	-10.594000	25.712235	0.000817	20.591638
1170.325649	-3.007000	3.523200	-10.593000	25.700139	0.000815	20.597033
1171.328819	-3.018600	3.522900	-10.634000	25.696399	0.000814	20.598493
1172.327286	-3.006500	3.522500	-10.589000	25.686848	0.000816	20.597908
1173.330340	-2.982400	3.523700	-10.509000	25.705485	0.000812	20.596239
1174.325083	-2.997700	3.521700	-10.556000	25.703413	0.000813	20.612178
1175.325712	-2.984100	3.521400	-10.508000	25.664905	0.000815	20.612381
1176.327285	-3.008100	3.521000	-10.591000	25.659896	0.000812	20.609721
1177.324833	-2.995500	3.521500	-10.548000	25.594010	0.000813	20.599497
1178.328184	-2.978500	3.522200	-10.490000	25.573697	0.000812	20.615135
1179.331355	-2.990200	3.519400	-10.522000	25.545596	0.000810	20.595445
1180.327538	-3.016900	3.518600	-10.615000	25.547613	0.000811	20.617863
1181.330636	-3.015800	3.518900	-10.612000	25.593692	0.000810	20.613879
1182.329056	-2.997300	3.518900	-10.547000	25.601878	0.000810	20.622575
1183.329866	-3.021500	3.517500	-10.627000	25.689105	0.000810	20.611083
1184.331318	-3.016100	3.517200	-10.607000	25.727325	0.000809	20.603951
1185.330371	-2.999900	3.517400	-10.551000	25.729918	0.000812	20.637855
1186.329280	-3.018300	3.517900	-10.616000	25.756936	0.000807	20.614730
1187.336588	-3.017300	3.517700	-10.611000	25.799775	0.000807	20.629788
1188.329951	-3.017400	3.515500	-10.604000	25.816658	0.000805	20.597904
1189.330039	-2.999600	3.517400	-10.549000	25.841828	0.000808	20.621770
1190.334819	-2.987100	3.516200	-10.502000	25.825492	0.000805	20.605831
1191.330928	-2.971500	3.516500	-10.448000	25.799464	0.000805	20.628052
1192.330163	-3.001700	3.515100	-10.551000	25.785959	0.000804	20.623021
1193.332342	-2.995800	3.514900	-10.529000	25.756233	0.000805	20.611652
1194.332274	-2.997800	3.515700	-10.539000	25.762952	0.000803	20.606547
1195.332486	-2.994600	3.513800	-10.522000	25.770812	0.000806	20.616340
1196.332775	-2.996000	3.514600	-10.527000	25.762695	0.000802	20.636639
1197.333993	-3.011000	3.513400	-10.577000	25.748736	0.000804	20.624039
1198.333940	-3.018400	3.511900	-10.599000	25.749166	0.000804	20.625893
1199.334836	-3.019800	3.511300	-10.603000	25.764854	0.000803	20.635014
1200.335697	-3.001700	3.512300	-10.542000	25.792760	0.000800	20.629853
1201.338212	-2.995200	3.513000	-10.521000	25.796542	0.000800	20.636973
1202.336806	-3.004100	3.511700	-10.548000	25.829394	0.000799	20.623979
1203.336949	-3.004500	3.511400	-10.549000	25.866861	0.000798	20.637436
1204.336285	-3.035900	3.509800	-10.654000	25.891092	0.000797	20.625266
1205.336938	-3.013400	3.509900	-10.576000	25.912510	0.000795	20.635878
1206.336364	-2.992400	3.509500	-10.502000	25.922606	0.000798	20.630373
1207.335711	-3.031200	3.508900	-10.633000	25.938181	0.000797	20.633218
1208.340775	-3.017700	3.508500	-10.587000	25.907760	0.000795	20.636797
1209.337708	-3.004200	3.508300	-10.539000	25.906246	0.000796	20.639543
1210.337206	-3.018100	3.507300	-10.584000	25.894515	0.000796	20.645303
1211.340840	-2.995600	3.508800	-10.509000	25.906835	0.000794	20.644878
1212.338840	-2.992100	3.506800	-10.492000	25.900504	0.000797	20.646578
1213.337593	-2.998100	3.507700	-10.515000	25.888612	0.000794	20.646486
1214.338801	-2.986900	3.507900	-10.477000	25.852103	0.000794	20.665762
1215.339605	-3.004300	3.506600	-10.533000	25.846421	0.000793	20.644879
1216.339116	-3.000900	3.506600	-10.522000	25.825708	0.000794	20.639718
1217.342892	-2.997500	3.505400	-10.506000	25.801169	0.000794	20.623601
1218.340704	-2.996700	3.505900	-10.504000	25.798399	0.000793	20.649271
1219.340095	-2.964700	3.506300	-10.392000	25.813560	0.000792	20.652646
1220.339979	-2.960100	3.506600	-10.379000	25.818133	0.000791	20.650128
1221.339954	-2.976200	3.505100	-10.431000	25.816331	0.000789	20.646421
1222.340468	-2.999200	3.504100	-10.509000	25.804341	0.000789	20.644808
1223.341471	-2.993700	3.503800	-10.489000	25.803501	0.000792	20.661036
1224.343698	-2.998100	3.503800	-10.503000	25.802319	0.000788	20.658900
1225.341626	-3.005100	3.503100	-10.526000	25.830818	0.000788	20.667614
1226.341363	-2.981300	3.502600	-10.441000	25.858918	0.000787	20.646527
1227.343794	-3.039500	3.501100	-10.640000	25.825449	0.000787	20.673601
1228.342448	-3.003400	3.502700	-10.519000	25.849424	0.000787	20.667338
1229.342033	-3.018500	3.500400	-10.565000	25.816439	0.000788	20.656487
1230.343191	-3.000200	3.501000	-10.502000	25.807029	0.000785	20.656519
1231.342034	-3.034000	3.499800	-10.616000	25.799913	0.000787	20.677822
1232.347386	-3.005400	3.501700	-10.523000	25.805958	0.000785	20.681523
1233.344378	-3.002100	3.500100	-10.507000	25.841359	0.000784	20.659236
1234.343714	-3.015500	3.499500	-10.552000	25.900512	0.000784	20.666029
1235.342198	-3.011900	3.499500	-10.539000	25.921912	0.000783	20.668087
1236.343986	-3.017400	3.498400	-10.556000	25.924872	0.000783	20.654938
1237.344172	-2.995900	3.498400	-10.479000	25.900735	0.000781	20.682849
1238.345658	-3.030500	3.496200	-10.594000	25.875033	0.000780	20.673150
1239.344144	-2.994200	3.497200	-10.468000	25.889721	0.000783	20.667516
1240.346471	-2.998000	3.498200	-10.487000	25.856957	0.000780	20.691029
1241.345692	-3.002400	3.496600	-10.497000	25.840443	0.000781	20.676810
1242.345925	-2.985400	3.497800	-10.441000	25.809524	0.000781	20.670880
1243.354679	-2.999200	3.496800	-10.486000	25.791023	0.000779	20.675530
1244.349715	-2.999800	3.496400	-10.488000	25.808170	0.000779	20.651974
1245.345082	-2.987600	3.496000	-10.444000	25.826365	0.000777	20.678314
1246.344727	-3.007500	3.495900	-10.511000	25.820357	0.000777	20.688877
1247.344978	-3.011000	3.495600	-10.524000	25.832231	0.000777	20.665240
1248.347908	-3.025400	3.493000	-10.566000	25.844167	0.000776	20.693354
1249.344743	-3.000500	3.494100	-10.483000	25.874952	0.000775	20.691089
1250.349090	-3.013400	3.493500	-10.526000	25.901611	0.000777	20.684204
1251.346200	-3.006700	3.494100	-10.505000	25.942906	0.000775	20.679222
1252.343891	-2.981900	3.495400	-10.422000	25.963232	0.000776	20.696799
1253.348814	-3.001000	3.494100	-10.485000	25.983379	0.000773	20.693806
1254.345684	-2.991200	3.492000	-10.444000	25.993946	0.000774	20.681663
1255.346119	-3.004500	3.491500	-10.489000	25.974904	0.000774	20.695723
1256.346687	-2.986700	3.491700	-10.428000	25.987034	0.000771	20.689417
1257.347770	-2.997100	3.490500	-10.461000	26.005685	0.000772	20.707209
1258.347116	-2.979400	3.493200	-10.407000	25.953182	0.000771	20.698557
1259.350808	-2.993600	3.490500	-10.448000	25.948249	0.000772	20.695497
1260.347975	-3.011300	3.488300	-10.504000	25.896216	0.000771	20.699174
1261.348571	-3.017200	3.489800	-10.528000	25.893010	0.000771	20.710653
1262.348541	-2.989000	3.487700	-10.424000	25.907501	0.000770	20.695812
1263.348243	-2.987600	3.488800	-10.420000	25.916077	0.000769	20.698738
1264.354042	-3.003700	3.488400	-10.477000	25.941595	0.000768	20.696398
1265.348653	-3.001200	3.488100	-10.467000	25.935644	0.000768	20.706542
1266.351015	-2.994800	3.488900	-10.448000	25.933511	0.000768	20.703925
1267.349914	-2.989500	3.489000	-10.429000	25.959304	0.000770	20.703285
1268.349902	-3.006300	3.486100	-10.479000	25.947628	0.000766	20.690131
1269.352006	-2.983100	3.486600	-10.400000	25.910925	0.000766	20.711581
1270.353014	-3.020100	3.485300	-10.525000	25.880473	0.000765	20.722716
1271.349296	-3.014100	3.485100	-10.503000	25.818077	0.000766	20.697966
1272.349387	-3.007500	3.484900	-10.480000	25.802402	0.000764	20.699765
1273.349506	-3.001000	3.486200	-10.460000	25.810710	0.000763	20.708584
1274.349778	-3.017200	3.484400	-10.511000	25.786244	0.000764	20.688749
1275.354546	-2.990800	3.485200	-10.423000	25.842569	0.000760	20.728735
1276.350655	-3.015000	3.483600	-10.502000	25.843250	0.000762	20.719936
1277.352809	-3.024700	3.482500	-10.532000	25.852396	0.000762	20.704467
1278.351469	-3.005900	3.483500	-10.470000	25.901515	0.000762	20.725836
1279.353435	-3.020300	3.481100	-10.513000	25.900124	0.000763	20.712584
1280.354785	-3.004100	3.483600	-10.465000	25.937920	0.000759	20.721632
1281.352370	-3.012200	3.482900	-10.489000	25.937203	0.000760	20.728498
1282.351661	-3.045700	3.479900	-10.596000	25.951792	0.000759	20.714705
1283.353438	-2.999400	3.481700	-10.442000	25.929070	0.000757	20.731708
1284.355655	-3.014200	3.480600	-10.490000	25.902640	0.000761	20.729811
1285.353994	-2.993500	3.480300	-10.417000	25.876215	0.000757	20.703738
1286.357539	-2.984500	3.481500	-10.389000	25.885508	0.000758	20.740103
1287.356123	-2.995900	3.481100	-10.428000	25.911565	0.000759	20.735933
1288.356555	-2.994300	3.480400	-10.419000	25.873813	0.000757	20.722663
1289.357985	-2.988800	3.479300	-10.396000	25.862289	0.000758	20.740959
1290.357392	-2.967300	3.480900	-10.328000	25.878368	0.000756	20.719178
1291.360898	-3.002400	3.478100	-10.440000	25.883449	0.000754	20.732818
1292.357172	-2.988000	3.478900	-10.394000	25.819937	0.000756	20.711690
1293.358459	-3.001900	3.476500	-10.434000	25.841454	0.000755	20.725719
1294.358174	-2.978600	3.478200	-10.359000	25.841031	0.000756	20.747580
1295.359380	-2.990800	3.476300	-10.396000	25.853107	0.000754	20.740745
1296.361471	-3.000400	3.475100	-10.426000	25.850073	0.000752	20.744809
1297.360252	-3.007900	3.475300	-10.452000	25.841650	0.000751	20.726390
1298.359245	-3.008700	3.474300	-10.453000	25.829059	0.000753	20.737450
1299.361390	-2.975300	3.475700	-10.340000	25.841681	0.000752	20.743017
1300.361650	-2.987200	3.475000	-10.380000	25.882745	0.000753	20.748707
1301.361535	-2.994800	3.473300	-10.402000	25.913131	0.000750	20.750309
1302.363770	-2.994800	3.474200	-10.403000	25.930765	0.000750	20.741472
1303.364262	-3.000200	3.473900	-10.421000	25.945543	0.000749	20.757741
1304.369158	-3.002500	3.472000	-10.423000	25.976080	0.000749	20.742901
1305.363311	-3.013600	3.471500	-10.461000	25.976398	0.000748	20.757446
1306.364038	-3.008100	3.473200	-10.447000	26.003544	0.000749	20.761011
1307.366867	-3.004200	3.469600	-10.422000	25.994413	0.000750	20.739982
1308.365248	-3.007700	3.471000	-10.438000	26.035691	0.000748	20.776240
1309.366991	-3.010900	3.471300	-10.451000	25.969540	0.000746	20.763357
1310.365046	-2.999500	3.469600	-10.405000	25.964030	0.000745	20.776314
1311.365719	-3.008000	3.470600	-10.439000	25.973818	0.000748	20.754854
1312.369676	-2.999500	3.469400	-10.405000	25.948382	0.000745	20.755377
1313.371412	-2.975600	3.470400	-10.326000	25.920462	0.000744	20.775692
1314.365790	-3.030300	3.468100	-10.508000	25.877640	0.000744	20.785780
1315.367309	-2.995800	3.467900	-10.388000	25.859159	0.000744	20.775748
1316.368215	-2.993800	3.468400	-10.382000	25.850785	0.000742	20.769707
1317.366927	-3.002400	3.467100	-10.409000	25.864382	0.000743	20.739743
1318.369592	-2.986000	3.468200	-10.355000	25.874319	0.000744	20.782917
1319.366608	-3.007300	3.466400	-10.424000	25.873742	0.000741	20.783286
1320.371756	-3.008000	3.466500	-10.426000	25.859369	0.000741	20.769795
1321.366895	-2.996700	3.466600	-10.387000	25.851914	0.000741	20.790756
1322.367603	-3.015100	3.465300	-10.447000	25.852540	0.000741	20.781427
1323.371562	-2.982000	3.466700	-10.337000	25.865358	0.000739	20.760164
1324.373280	-2.994900	3.464000	-10.373000	25.911018	0.000738	20.768102
1325.369920	-2.991300	3.463500	-10.359000	25.937424	0.000738	20.790837
1326.370131	-2.969600	3.464400	-10.288000	25.952282	0.000738	20.782530
1327.371322	-3.001400	3.463300	-10.394000	26.007525	0.000739	20.799624
1328.370803	-2.995000	3.463600	-10.372000	26.035002	0.000737	20.782660
1329.373685	-3.002200	3.463700	-10.398000	26.058867	0.000738	20.770602
1330.370842	-2.986900	3.462400	-10.341000	26.098783	0.000736	20.757129
1331.368601	-3.007300	3.460700	-10.406000	26.076726	0.000738	20.766735
1332.370728	-3.012800	3.460000	-10.423000	26.056557	0.000733	20.768755
1333.369927	-3.032600	3.460000	-10.491000	26.070462	0.000734	20.775140
1334.373660	-2.979400	3.460700	-10.309000	26.095302	0.000736	20.787296
1335.371194	-3.003200	3.460100	-10.390000	26.069525	0.000733	20.782734
1336.372933	-3.023200	3.460900	-10.460000	26.075765	0.000735	20.768614
1337.370835	-3.006100	3.460600	-10.402000	26.101388	0.000733	20.771126
1338.370530	-3.002800	3.459000	-10.386000	26.126227	0.000735	20.751987
1339.375230	-2.992000	3.458600	-10.346000	26.155343	0.000732	20.784089
1340.373393	-3.020100	3.457300	-10.440000	26.152757	0.000731	20.761575
1341.375114	-3.032000	3.457800	-10.482000	26.174487	0.000731	20.754962
1342.373472	-3.011900	3.458000	-10.414000	26.180653	0.000733	20.762106
1343.373213	-3.003900	3.456600	-10.382000	26.217328	0.000731	20.766243
1344.378297	-2.991900	3.457900	-10.344000	26.228009	0.000731	20.750898
1345.373221	-3.006200	3.456500	-10.390000	26.223420	0.000731	20.770943
1346.373147	-2.989000	3.457100	-10.332000	26.247312	0.000732	20.742794
1347.374471	-2.989700	3.456100	-10.332000	26.212323	0.000728	20.745092
1348.374231	-3.015900	3.454700	-10.418000	26.140281	0.000729	20.770851
1349.372522	-2.986100	3.456400	-10.320000	26.096371	0.000728	20.745696
1350.376015	-2.995000	3.454000	-10.344000	26.110853	0.000728	20.743177
1351.374219	-2.984700	3.454400	-10.309000	26.119672	0.000725	20.776221
1352.376964	-2.998600	3.454100	-10.356000	26.149449	0.000727	20.755407
1353.373808	-3.019800	3.452300	-10.424000	26.159788	0.000725	20.752994
1354.374292	-3.015600	3.452500	-10.411000	26.173130	0.000727	20.743166
1355.379197	-2.980500	3.453900	-10.293000	26.195723	0.000726	20.770138
1356.377083	-3.006300	3.453000	-10.380000	26.196828	0.000724	20.748487
1357.375391	-3.007800	3.452100	-10.382000	26.220812	0.000723	20.752200
1358.375011	-3.003600	3.451700	-10.367000	26.159379	0.000724	20.749264
1359.375308	-2.994600	3.452700	-10.338000	26.135142	0.000723	20.734392
1360.383009	-3.013900	3.449500	-10.395000	26.149526	0.000724	20.754536
1361.381669	-2.995400	3.449100	-10.330000	26.129976	0.000721	20.751013
1362.376888	-3.008900	3.450400	-10.381000	26.153203	0.000722	20.722667
1363.376989	-3.001900	3.450200	-10.356000	26.149575	0.000721	20.748420
1364.376452	-2.990600	3.449400	-10.314000	26.167481	0.000722	20.750767
1365.376489	-2.983600	3.448300	-10.287000	26.155464	0.000719	20.757184
1366.379964	-3.022400	3.446800	-10.415000	26.194433	0.000722	20.731382
1367.376693	-3.002500	3.447400	-10.350000	26.179578	0.000719	20.747275
1368.379868	-2.988500	3.448100	-10.303000	26.161875	0.000719	20.733278
1369.377872	-3.006700	3.445200	-10.358000	26.087617	0.000721	20.756341
1370.377106	-2.985900	3.447000	-10.291000	26.076910	0.000719	20.757911
1371.379451	-2.998700	3.446800	-10.335000	26.079067	0.000717	20.761501
1372.378922	-3.012600	3.446500	-10.382000	26.109587	0.000717	20.746647
1373.379309	-3.010300	3.445200	-10.370000	26.127330	0.000716	20.755466
1374.379652	-3.003600	3.445400	-10.346000	26.146051	0.000716	20.733974
1375.380283	-2.995800	3.444500	-10.318000	26.170816	0.000716	20.742263
1376.378534	-3.005800	3.443500	-10.349000	26.185045	0.000714	20.750872
1377.382067	-2.984800	3.443500	-10.277000	26.179757	0.000714	20.752196
1378.380536	-2.983200	3.443900	-10.273000	26.179806	0.000715	20.721898
1379.381542	-2.982100	3.443000	-10.266000	26.158302	0.000712	20.725421
1380.380564	-2.992900	3.443000	-10.303000	26.102620	0.000714	20.746759
1381.382141	-3.017000	3.440700	-10.379000	26.079392	0.000713	20.729583
1382.386852	-2.999500	3.442100	-10.324000	26.088634	0.000713	20.737922
1383.382583	-3.004700	3.442300	-10.342000	26.014623	0.000714	20.739899
1384.383429	-3.040800	3.440000	-10.459000	26.023608	0.000711	20.750349
1385.387190	-3.024200	3.439700	-10.401000	26.030229	0.000709	20.716222
1386.383267	-3.001300	3.439700	-10.322000	26.070740	0.000710	20.739857
1387.385051	-2.993400	3.439300	-10.295000	26.097492	0.000711	20.740658
1388.382516	-3.012000	3.440800	-10.362000	26.120492	0.000709	20.730103
1389.385715	-3.003400	3.438400	-10.324000	26.160228	0.000708	20.738736
1390.383713	-3.020700	3.438200	-10.385000	26.207323	0.000707	20.740067
1391.383914	-3.006200	3.438400	-10.336000	26.250334	0.000708	20.752470
1392.383890	-3.004800	3.437400	-10.327000	26.258533	0.000708	20.752649
1393.386138	-2.996800	3.438700	-10.304000	26.257093	0.000706	20.734131
1394.384607	-2.999100	3.436800	-10.305000	26.256579	0.000708	20.723183
1395.385306	-2.971800	3.437800	-10.216000	26.240911	0.000705	20.725930
1396.387720	-2.988900	3.437100	-10.272000	26.249012	0.000705	20.744977
1397.386867	-3.007000	3.434900	-10.327000	26.258522	0.000705	20.752164
1398.390986	-3.015200	3.434400	-10.355000	26.272506	0.000704	20.735395
1399.387228	-2.997000	3.436000	-10.297000	26.297397	0.000705	20.733857
1400.387733	-3.012800	3.434500	-10.345000	26.307965	0.000706	20.734047
1401.387288	-2.998700	3.435100	-10.299000	26.290711	0.000703	20.749424
1402.389383	-3.010700	3.432500	-10.333000	26.295314	0.000703	20.745040
1403.390166	-3.004800	3.433600	-10.317000	26.274879	0.000700	20.733987
1404.387703	-3.025200	3.431700	-10.380000	26.289334	0.000701	20.725279
1405.388789	-3.000700	3.433300	-10.301000	26.300657	0.000703	20.743298
1406.389095	-3.017500	3.431100	-10.353000	26.285762	0.000700	20.733544
1407.388767	-2.987800	3.431600	-10.252000	26.319082	0.000699	20.741426
1408.388589	-3.013200	3.431700	-10.339000	26.327833	0.000698	20.732676
1409.390171	-2.998500	3.431000	-10.286000	26.318795	0.000699	20.740664
1410.389599	-2.980200	3.431400	-10.224000	26.354522	0.000699	20.742905
1411.388916	-3.022100	3.430100	-10.365000	26.364339	0.000697	20.733804
1412.390958	-3.006300	3.429800	-10.311000	26.360240	0.000700	20.742012
1413.390581	-2.987800	3.429400	-10.245000	26.350877	0.000696	20.726438
1414.393622	-3.002700	3.428900	-10.296000	26.364161	0.000698	20.721296
1415.390732	-3.010700	3.429300	-10.323000	26.366478	0.000697	20.737850
1416.396097	-2.986900	3.429200	-10.241000	26.348127	0.000695	20.741693
1417.392208	-2.996600	3.427300	-10.270000	26.302118	0.000693	20.736231
1418.399739	-2.992900	3.427700	-10.258000	26.246191	0.000694	20.709898
1419.394918	-3.013300	3.425400	-10.320000	26.211778	0.000694	20.713249
1420.394066	-2.979400	3.426500	-10.208000	26.196728	0.000694	20.715669
1421.393923	-2.996800	3.425800	-10.266000	26.128118	0.000694	20.713108
1422.395076	-2.986900	3.425500	-10.229000	26.093572	0.000693	20.726761
1423.399550	-2.987400	3.425000	-10.231000	26.101766	0.000693	20.716501
1424.395551	-2.989200	3.426300	-10.240000	26.112853	0.000691	20.729065
1425.399722	-2.994600	3.423900	-10.252000	26.140565	0.000693	20.738893
1426.395308	-3.001000	3.424300	-10.275000	26.186938	0.000693	20.720056
1427.395029	-2.999100	3.424200	-10.269000	26.217615	0.000691	20.739030
1428.395361	-3.002200	3.422900	-10.275000	26.214012	0.000691	20.741099
1429.394911	-2.990100	3.422500	-10.233000	26.219356	0.000689	20.730821
1430.399051	-3.001400	3.422600	-10.271000	26.263268	0.000689	20.722318
1431.395367	-3.016000	3.421900	-10.318000	26.275584	0.000691	20.734221
1432.396144	-3.010100	3.421800	-10.299000	26.293489	0.000688	20.711436
1433.394614	-3.018500	3.420200	-10.321000	26.305088	0.000688	20.738268
1434.395310	-3.005400	3.421200	-10.280000	26.321919	0.000688	20.726733
1435.400950	-3.005400	3.420900	-10.280000	26.344499	0.000688	20.720027
1436.394877	-3.014900	3.419000	-10.307000	26.354284	0.000687	20.723698
1437.396157	-3.001400	3.420000	-10.264000	26.308992	0.000687	20.728914
1438.395654	-3.012600	3.419300	-10.301000	26.277901	0.000686	20.730860
1439.398587	-2.986500	3.419300	-10.211000	26.266658	0.000687	20.713870
1440.397372	-2.989300	3.418200	-10.217000	26.273815	0.000686	20.735763
1441.399588	-3.004700	3.419200	-10.272000	26.283171	0.000684	20.718138
1442.397458	-2.994000	3.419200	-10.236000	26.288393	0.000685	20.711056
1443.397828	-2.988900	3.416000	-10.208000	26.290825	0.000683	20.725356
1444.398826	-2.987300	3.417800	-10.208000	26.288791	0.000683	20.737063
1445.398456	-2.998800	3.416400	-10.245000	26.269097	0.000684	20.713951
1446.399400	-2.994800	3.415000	-10.225000	26.256480	0.000683	20.725928
1447.399320	-2.985500	3.416200	-10.198000	26.223801	0.000680	20.734341
1448.399380	-2.977900	3.416200	-10.172000	26.207035	0.000681	20.727923
1449.398399	-2.987000	3.415100	-10.199000	26.213015	0.000680	20.715440
1450.400335	-2.996900	3.415300	-10.234000	26.215497	0.000680	20.711295
1451.406322	-2.986500	3.415700	-10.200000	26.214333	0.000678	20.720084
1452.404799	-2.970500	3.416100	-10.146000	26.181432	0.000677	20.726852
1453.402578	-3.003800	3.413000	-10.251000	26.143798	0.000679	20.729339
1454.403080	-3.016600	3.412600	-10.293000	26.152152	0.000676	20.708334
1455.401987	-3.003800	3.413700	-10.253000	26.126762	0.000677	20.705106
1456.402659	-3.022300	3.412400	-10.312000	26.151030	0.000676	20.740874
1457.406444	-3.004600	3.412200	-10.251000	26.168734	0.000675	20.725946
1458.402609	-2.997700	3.412000	-10.226000	26.146255	0.000677	20.722325
1459.405297	-3.014800	3.411600	-10.284000	26.110050	0.000675	20.707755
1460.403042	-2.994500	3.411000	-10.214000	26.086179	0.000675	20.711745
1461.404557	-2.986000	3.410300	-10.183000	26.071459	0.000673	20.717344
1462.407453	-2.997200	3.411600	-10.224000	26.030021	0.000674	20.714590
1463.404815	-3.004600	3.408400	-10.240000	26.012119	0.000673	20.709880
1464.403001	-2.982200	3.409100	-10.166000	26.042151	0.000672	20.697379
1465.403329	-2.993700	3.410100	-10.207000	26.033387	0.000672	20.702798
1466.404591	-2.984500	3.407900	-10.169000	26.043021	0.000672	20.729075
1467.404918	-3.007700	3.408000	-10.249000	26.035177	0.000669	20.721193
1468.407387	-2.985900	3.408300	-10.176000	26.023109	0.000672	20.713336
1469.406402	-3.016500	3.406400	-10.274000	26.014803	0.000671	20.711155
1470.406814	-3.000600	3.406900	-10.222000	26.006462	0.000670	20.702774
1471.407126	-2.986600	3.407500	-10.176000	26.054281	0.000671	20.716206
1472.408814	-2.992600	3.405800	-10.191000	26.046031	0.000670	20.706968
1473.424148	-3.008400	3.407200	-10.249000	26.065858	0.000670	20.721675
1474.405459	-3.021800	3.405400	-10.289000	26.107061	0.000668	20.728935
1475.407434	-3.007400	3.406000	-10.242000	26.155640	0.000667	20.701407
1476.407301	-2.993000	3.404100	-10.188000	26.173229	0.000666	20.717186
1477.412155	-2.998300	3.404300	-10.205000	26.205609	0.000668	20.717481
1478.410060	-2.989100	3.404700	-10.176000	26.219715	0.000665	20.713164
1479.408444	-2.998700	3.402300	-10.201000	26.246715	0.000666	20.699044
1480.410511	-3.013800	3.401400	-10.249000	26.230599	0.000662	20.713195
1481.411451	-2.988100	3.402300	-10.166000	26.249644	0.000664	20.720006
1482.409637	-2.981100	3.402900	-10.143000	26.243118	0.000665	20.711077
1483.416594	-2.974700	3.403800	-10.124000	26.255907	0.000661	20.701169
1484.412046	-3.019000	3.401200	-10.267000	26.284468	0.000661	20.709957
1485.411091	-3.003600	3.400100	-10.211000	26.296466	0.000663	20.704470
1486.411076	-2.994900	3.400700	-10.184000	26.277219	0.000660	20.698404
1487.412138	-2.974600	3.400300	-10.114000	26.250227	0.000663	20.697832
1488.412966	-3.015800	3.399500	-10.250000	26.259524	0.000661	20.697217
1489.413116	-3.014900	3.399600	-10.248000	26.233965	0.000661	20.691920
1490.412091	-3.014000	3.398700	-10.243000	26.206108	0.000658	20.705180
1491.415429	-3.031300	3.398100	-10.300000	26.198940	0.000659	20.707459
1492.413373	-3.002400	3.399700	-10.206000	26.180789	0.000658	20.709135
1493.418433	-3.001200	3.397900	-10.196000	26.212900	0.000658	20.715324
1494.417861	-2.973700	3.399300	-10.107000	26.240175	0.000658	20.701007
1495.413885	-2.995300	3.398200	-10.177000	26.246799	0.000657	20.703870
1496.416091	-3.002900	3.396200	-10.197000	26.257584	0.000659	20.684361
1497.414126	-2.983000	3.397100	-10.132000	26.252118	0.000657	20.698309
1498.415743	-3.016000	3.396700	-10.243000	26.259576	0.000658	20.704857
1499.416320	-3.007700	3.395000	-10.209000	26.288260	0.000656	20.708078
1500.419795	-3.008300	3.395000	-10.211000	26.296158	0.000653	20.694677
1501.416376	-2.998100	3.395700	-10.180000	26.306562	0.000656	20.708453
1502.417086	-3.013100	3.394400	-10.227000	26.357750	0.000656	20.705844
1503.417197	-2.997300	3.393900	-10.172000	26.359117	0.000651	20.695362
1504.418283	-2.978900	3.395300	-10.114000	26.322415	0.000653	20.704944
1505.423660	-2.967800	3.394800	-10.074000	26.287330	0.000652	20.698608
1506.419221	-3.003400	3.393700	-10.192000	26.239497	0.000652	20.698903
1507.421701	-2.994900	3.392900	-10.160000	26.181792	0.000652	20.696391
1508.418442	-3.008000	3.391500	-10.201000	26.156262	0.000651	20.674529
1509.420032	-2.997900	3.393500	-10.171000	26.150900	0.000650	20.699015
1510.420666	-2.999800	3.390600	-10.170000	26.201414	0.000651	20.683391
1511.420811	-3.000500	3.390500	-10.172000	26.212788	0.000650	20.683441
1512.419651	-2.996600	3.390600	-10.160000	26.177308	0.000649	20.670546
1513.421141	-3.021000	3.390200	-10.241000	26.135108	0.000649	20.696423
1514.422323	-2.993800	3.390700	-10.150000	26.110927	0.000646	20.676865
1515.424136	-3.007700	3.389900	-10.195000	26.076097	0.000648	20.694502
1516.421734	-3.005700	3.389600	-10.187000	26.076765	0.000648	20.688534
1517.424266	-2.994600	3.388700	-10.146000	26.096137	0.000646	20.689981
1518.424056	-2.994600	3.389900	-10.150000	26.081963	0.000644	20.677634
1519.421976	-2.999000	3.388700	-10.162000	26.059108	0.000646	20.690708
1520.425565	-3.000500	3.387600	-10.164000	26.026545	0.000642	20.691656
1521.422028	-2.997100	3.387500	-10.151000	26.011468	0.000643	20.680300
1522.422008	-3.028700	3.387900	-10.260000	25.986113	0.000642	20.692285
1523.421832	-3.013800	3.386200	-10.204000	25.986934	0.000641	20.684101
1524.421951	-3.002600	3.385200	-10.163000	26.010175	0.000643	20.677578
1525.425850	-3.000500	3.386500	-10.160000	26.054200	0.000644	20.682457
1526.425194	-3.017900	3.384600	-10.213000	26.092970	0.000644	20.661666
1527.422782	-3.006900	3.385100	-10.177000	26.095973	0.000641	20.682703
1528.422981	-3.004200	3.386000	-10.170000	26.090359	0.000641	20.683226
1529.422451	-3.023800	3.382700	-10.228000	26.105086	0.000641	20.675263
1530.423604	-3.013900	3.383700	-10.197000	26.095889	0.000641	20.694474
1531.427433	-2.994300	3.383700	-10.129000	26.097990	0.000640	20.673823
1532.425091	-2.961400	3.385400	-10.023000	26.076387	0.000639	20.690051
1533.426794	-2.981800	3.382800	-10.086000	26.076639	0.000638	20.687933
1534.426910	-3.006800	3.382600	-10.170000	26.094351	0.000640	20.685341
1535.424470	-3.003300	3.382000	-10.156000	26.095889	0.000641	20.677877
1536.425243	-2.986600	3.382100	-10.100000	26.096116	0.000637	20.676682
1537.423537	-3.000300	3.380700	-10.141000	26.089957	0.000639	20.668596
1538.425934	-3.006400	3.380900	-10.163000	26.124266	0.000636	20.686950
1539.424600	-3.013700	3.381200	-10.189000	26.178206	0.000636	20.670026
1540.423631	-3.005300	3.380300	-10.157000	26.201180	0.000636	20.676043
1541.427138	-2.997600	3.381700	-10.136000	26.228995	0.000635	20.683132
1542.426032	-2.996200	3.380900	-10.129000	26.241612	0.000635	20.676844
1543.427375	-2.990700	3.379700	-10.107000	26.257930	0.000635	20.671431
1544.426134	-2.998700	3.379700	-10.134000	26.256840	0.000633	20.680768
1545.426854	-3.011400	3.377400	-10.169000	26.257993	0.000634	20.662010
1546.425391	-3.022000	3.378500	-10.209000	26.224462	0.000633	20.672411
1547.428301	-3.030800	3.376600	-10.233000	26.174851	0.000631	20.666654
1548.425353	-3.015500	3.376800	-10.182000	26.178755	0.000631	20.655403
1549.425442	-3.012900	3.376700	-10.173000	26.199510	0.000632	20.655396
1550.426462	-3.014200	3.376100	-10.175000	26.208678	0.000631	20.673145
1551.427561	-3.022200	3.376200	-10.202000	26.249361	0.000629	20.647643
1552.425196	-3.011600	3.377400	-10.170000	26.279662	0.000629	20.645852
1553.425351	-2.991500	3.375300	-10.097000	26.293345	0.000627	20.666243
1554.430941	-3.011200	3.375500	-10.162000	26.302163	0.000628	20.648550
1555.425398	-3.009000	3.374800	-10.154000	26.293548	0.000628	20.655540
1556.427820	-3.004700	3.375400	-10.140000	26.316488	0.000628	20.652516
1557.431267	-3.005100	3.373800	-10.137000	26.291423	0.000628	20.653404
1558.426797	-3.006400	3.373900	-10.143000	26.264498	0.000624	20.659063
1559.425404	-2.983700	3.373900	-10.065000	26.222714	0.000626	20.648841
1560.425434	-3.011400	3.372900	-10.156000	26.234087	0.000626	20.666911
1561.425101	-2.997100	3.373300	-10.110000	26.241490	0.000625	20.669134
1562.425775	-3.023600	3.371600	-10.193000	26.221194	0.000624	20.647313
1563.425218	-3.028000	3.371700	-10.208000	26.217035	0.000625	20.667318
1564.426807	-2.987400	3.371700	-10.072000	26.254034	0.000622	20.676525
1565.426414	-3.009300	3.371600	-10.145000	26.287956	0.000621	20.686908
1566.427351	-3.021900	3.370700	-10.185000	26.291462	0.000621	20.665298
1567.434623	-2.986800	3.371700	-10.070000	26.299409	0.000622	20.649102
1568.429208	-2.988600	3.370700	-10.073000	26.317809	0.000623	20.643885
1569.429095	-2.986000	3.369800	-10.060000	26.294439	0.000619	20.656910
1570.429232	-2.992000	3.368400	-10.077000	26.334990	0.000622	20.668741
1571.429909	-2.988400	3.369500	-10.069000	26.347207	0.000619	20.679124
1572.433146	-2.979500	3.368200	-10.035000	26.367445	0.000616	20.660581
1573.431911	-2.992600	3.369200	-10.082000	26.402559	0.000620	20.646558
1574.428662	-3.001300	3.368500	-10.108000	26.402804	0.000618	20.646804
1575.430101	-3.028300	3.367100	-10.195000	26.409010	0.000619	20.646404
1576.429580	-2.984900	3.366500	-10.048000	26.400494	0.000617	20.645431
1577.430082	-3.002900	3.367700	-10.112000	26.423236	0.000618	20.659281
1578.432135	-2.983600	3.366800	-10.044000	26.424976	0.000616	20.652969
1579.429854	-3.008400	3.366000	-10.125000	26.390709	0.000616	20.666419
1580.430744	-2.992300	3.365800	-10.071000	26.349413	0.000615	20.670908
1581.433527	-3.010000	3.365400	-10.128000	26.346484	0.000615	20.662748
1582.429975	-3.007700	3.365000	-10.120000	26.349413	0.000612	20.653362
1583.431424	-2.999800	3.365400	-10.095000	26.385740	0.000614	20.666640
1584.430796	-3.013500	3.364600	-10.138000	26.399910	0.000615	20.656699
1585.431464	-2.996000	3.365400	-10.082000	26.427639	0.000613	20.642842
1586.431630	-2.998500	3.363400	-10.084000	26.457586	0.000612	20.648761
1587.433297	-3.004000	3.363600	-10.103000	26.445443	0.000613	20.641296
1588.430428	-2.994900	3.363900	-10.074000	26.451446	0.000610	20.628836
1589.433721	-3.001300	3.363200	-10.092000	26.452970	0.000612	20.661666
1590.431595	-2.981900	3.362300	-10.025000	26.460151	0.000609	20.639483
1591.433926	-2.985900	3.361400	-10.036000	26.415604	0.000609	20.653980
1592.433067	-3.002500	3.361500	-10.092000	26.379033	0.000609	20.640931
1593.432228	-2.995100	3.361800	-10.068000	26.346180	0.000607	20.633515
1594.434574	-2.993100	3.360300	-10.057000	26.301474	0.000606	20.640270
1595.433543	-2.997700	3.360400	-10.073000	26.294771	0.000606	20.643491
1596.434712	-2.975800	3.360000	-9.998100	26.314237	0.000607	20.634604
1597.434584	-2.990300	3.360000	-10.046000	26.367445	0.000605	20.655838
1598.434337	-2.997000	3.359400	-10.067000	26.384803	0.000607	20.644359
1599.437394	-2.995400	3.359000	-10.062000	26.400315	0.000605	20.669436
1600.437207	-3.000400	3.358200	-10.075000	26.396167	0.000605	20.655782
1601.433832	-3.000500	3.356900	-10.071000	26.363468	0.000606	20.646625
1602.434233	-2.992600	3.358700	-10.050000	26.314720	0.000604	20.645047
1603.434921	-2.990900	3.358200	-10.043000	26.280522	0.000602	20.652406
1604.434742	-2.996600	3.356800	-10.058000	26.303788	0.000602	20.664409
1605.439539	-3.009800	3.355700	-10.099000	26.286795	0.000601	20.663454
1606.436932	-3.014600	3.355400	-10.114000	26.280393	0.000601	20.664606
1607.442158	-3.028800	3.355100	-10.161000	26.285925	0.000600	20.655940
1608.437850	-2.979600	3.355500	-9.997000	26.300918	0.000601	20.651567
1609.437389	-3.007500	3.355400	-10.090000	26.304050	0.000599	20.690280
1610.441453	-2.990300	3.354800	-10.031000	26.337565	0.000599	20.655206
1611.436482	-3.001400	3.355200	-10.069000	26.354305	0.000597	20.660651
1612.437678	-2.994500	3.354000	-10.043000	26.364530	0.000598	20.650538
1613.437559	-2.987300	3.354400	-10.020000	26.384841	0.000597	20.654356
1614.436858	-3.002600	3.354100	-10.070000	26.407933	0.000597	20.677093
1615.442372	-2.986600	3.354000	-10.015000	26.435669	0.000595	20.647594
1616.448643	-2.993400	3.351800	-10.031000	26.449294	0.000596	20.666506
1617.436619	-3.024500	3.351400	-10.135000	26.445121	0.000596	20.656622
1618.438322	-2.957600	3.354000	-9.918300	26.433198	0.000595	20.669769
1619.439750	-2.997600	3.350800	-10.043000	26.392278	0.000593	20.664202
1620.440693	-3.008700	3.351400	-10.082000	26.319371	0.000595	20.670588
1621.444145	-2.993100	3.350500	-10.027000	26.321681	0.000595	20.671013
1622.440237	-3.005300	3.349500	-10.065000	26.356269	0.000593	20.650295
1623.442001	-3.019200	3.349300	-10.112000	26.367836	0.000592	20.690374
1624.443593	-2.989500	3.349800	-10.014000	26.364118	0.000591	20.675256
1625.441884	-3.002500	3.349600	-10.056000	26.384991	0.000591	20.670156
1626.444932	-3.008500	3.349100	-10.074000	26.405424	0.000592	20.648490
1627.442467	-3.015700	3.348100	-10.095000	26.404107	0.000591	20.680360
1628.445703	-2.990700	3.348800	-10.015000	26.376842	0.000590	20.661490
1629.443806	-3.018000	3.347100	-10.101000	26.362444	0.000593	20.667409
1630.442682	-3.005800	3.348400	-10.063000	26.325068	0.000588	20.691488
1631.447429	-3.006800	3.347400	-10.064000	26.313119	0.000588	20.670468
1632.442819	-3.009300	3.346800	-10.070000	26.293670	0.000589	20.666095
1633.445041	-3.001300	3.346100	-10.042000	26.315932	0.000588	20.662864
1634.443810	-3.007800	3.346600	-10.065000	26.309516	0.000588	20.651672
1635.449003	-2.996700	3.346300	-10.027000	26.283290	0.000585	20.659456
1636.445068	-3.003100	3.345600	-10.046000	26.278670	0.000587	20.677100
1637.448473	-2.993000	3.344700	-10.010000	26.241996	0.000585	20.672488
1638.444709	-2.986900	3.344800	-9.989500	26.240679	0.000584	20.684916
1639.445503	-2.996800	3.343200	-10.018000	26.268915	0.000585	20.668245
1640.445442	-3.008500	3.342700	-10.054000	26.335685	0.000581	20.673707
1641.445302	-3.027400	3.341800	-10.115000	26.381196	0.000583	20.667764
1642.446637	-3.018100	3.341900	-10.084000	26.411990	0.000585	20.682594
1643.445627	-2.995300	3.342600	-10.011000	26.437318	0.000581	20.674385
1644.447267	-3.016800	3.341100	-10.078000	26.467429	0.000581	20.677624
1645.445693	-3.000800	3.340400	-10.022000	26.478775	0.000582	20.675751
1646.447171	-3.007600	3.343000	-10.053000	26.503354	0.000579	20.658255
1647.449514	-2.997400	3.340900	-10.013000	26.495807	0.000581	20.657307
1648.449395	-3.021600	3.338400	-10.087000	26.488437	0.000577	20.666496
1649.450092	-2.981300	3.341100	-9.960000	26.475498	0.000578	20.665344
1650.449801	-2.969500	3.341300	-9.920400	26.503176	0.000577	20.671354
1651.448766	-2.975900	3.339900	-9.938200	26.519385	0.000578	20.679113
1652.450252	-2.973300	3.339400	-9.928100	26.564865	0.000578	20.679310
1653.449606	-2.987200	3.339100	-9.973200	26.590091	0.000577	20.685703
1654.451005	-2.957800	3.338800	-9.874400	26.590727	0.000575	20.683023
1655.451337	-2.992000	3.338300	-9.987100	26.575486	0.000575	20.674814
1656.453139	-2.984500	3.338100	-9.962000	26.559449	0.000576	20.670546
1657.457056	-2.985400	3.336100	-9.958700	26.552943	0.000574	20.689612
1658.450809	-2.987800	3.338300	-9.973700	26.540581	0.000576	20.688091
1659.450502	-2.989600	3.336400	-9.973200	26.525399	0.000573	20.680416
1660.456493	-2.993600	3.336800	-9.987300	26.534784	0.000573	20.688428
1661.451477	-2.993300	3.335400	-9.983200	26.508774	0.000571	20.701165
1662.454029	-3.007000	3.334500	-10.026000	26.509385	0.000571	20.683760
1663.454614	-2.993400	3.336900	-9.987800	26.466476	0.000573	20.685200
1664.452111	-3.011800	3.334300	-10.041000	26.440352	0.000572	20.667950
1665.452307	-2.983600	3.335300	-9.950600	26.429337	0.000570	20.672527
1666.455532	-2.986100	3.335000	-9.957400	26.449371	0.000569	20.666584
1667.452446	-2.986900	3.333000	-9.954500	26.448752	0.000568	20.679714
1668.459210	-3.013900	3.333300	-10.045000	26.458285	0.000570	20.693090
1669.453511	-3.001800	3.332700	-10.003000	26.443605	0.000570	20.695879
1670.455372	-2.982200	3.333700	-9.941000	26.458750	0.000567	20.681702
1671.456331	-3.006000	3.332900	-10.018000	26.428729	0.000567	20.697997
1672.455138	-2.968000	3.333500	-9.892400	26.449811	0.000566	20.697375
1673.464233	-2.998000	3.332500	-9.990100	26.471682	0.000568	20.689012
1674.456326	-2.996300	3.330800	-9.977100	26.456587	0.000565	20.694228
1675.457049	-3.010200	3.330000	-10.023000	26.433471	0.000566	20.699918
1676.457709	-2.986700	3.332500	-9.951300	26.464582	0.000566	20.692306
1677.458796	-3.007500	3.330800	-10.016000	26.509892	0.000565	20.699444
1678.458512	-3.021300	3.329900	-10.060000	26.547849	0.000566	20.700614
1679.461373	-3.000700	3.330700	-9.993700	26.589903	0.000564	20.693574
1680.459017	-2.971300	3.330500	-9.895800	26.610129	0.000563	20.699209
1681.459770	-2.997800	3.329800	-9.980200	26.594392	0.000562	20.709943
1682.459352	-3.006900	3.327700	-10.005000	26.603256	0.000560	20.702732
1683.460818	-3.006100	3.329900	-10.008000	26.611698	0.000560	20.698889
1684.462835	-2.998000	3.327600	-9.975200	26.616351	0.000561	20.703094
1685.459962	-3.006200	3.327100	-10.000000	26.643512	0.000560	20.716648
1686.461265	-2.986000	3.327600	-9.935200	26.682481	0.000560	20.704615
1687.460101	-2.993900	3.327300	-9.960200	26.687798	0.000560	20.720867
1688.462831	-3.019700	3.325500	-10.041000	26.665404	0.000559	20.703568
1689.462287	-2.994500	3.325200	-9.955400	26.659028	0.000557	20.679138
1690.463900	-3.010400	3.325100	-10.009000	26.669698	0.000559	20.704091
1691.463490	-3.002900	3.324700	-9.981100	26.691792	0.000556	20.717769
1692.461061	-2.995300	3.323900	-9.955300	26.700257	0.000556	20.708735
1693.460824	-2.991400	3.326000	-9.948000	26.698866	0.000555	20.688369
1694.467026	-2.989500	3.325700	-9.941300	26.684839	0.000556	20.698924
1695.465498	-2.983000	3.323600	-9.913800	26.697622	0.000554	20.703241
1696.463009	-2.983300	3.323400	-9.913000	26.759380	0.000554	20.708907
1697.469242	-3.009700	3.323700	-10.002000	26.751558	0.000555	20.706258
1698.464188	-2.967300	3.323800	-9.861800	26.786303	0.000552	20.714639
1699.464246	-3.003800	3.321300	-9.975900	26.784944	0.000553	20.702841
1700.470667	-3.007000	3.322700	-9.990400	26.722961	0.000553	20.718759
1701.464336	-2.994000	3.321600	-9.944200	26.675878	0.000553	20.692285
1702.468072	-3.010000	3.321500	-9.996600	26.674383	0.000552	20.717811
1703.463802	-3.005500	3.321200	-9.981100	26.652387	0.000550	20.702809
1704.465055	-3.007500	3.318900	-9.979800	26.593771	0.000549	20.703153
1705.469603	-2.986200	3.321000	-9.915700	26.540476	0.000551	20.710747
1706.469430	-2.998900	3.319300	-9.953200	26.536818	0.000549	20.726512
1707.465575	-3.008200	3.319800	-9.985600	26.528058	0.000548	20.698264
1708.467054	-2.987600	3.318300	-9.912400	26.544446	0.000549	20.695770
1709.467467	-3.009300	3.317500	-9.982400	26.551221	0.000547	20.715384
1710.466736	-2.980100	3.319100	-9.890000	26.563527	0.000547	20.741032
1711.470560	-2.993400	3.317900	-9.930800	26.611719	0.000546	20.730681
1712.468668	-3.003600	3.318600	-9.965900	26.667148	0.000545	20.706269
1713.468470	-2.991000	3.318600	-9.924200	26.655968	0.000542	20.698823
1714.468456	-3.005600	3.316300	-9.966700	26.631099	0.000544	20.722662
1715.468109	-3.001700	3.317000	-9.955700	26.643631	0.000544	20.735735
1716.470665	-2.996600	3.317400	-9.939600	26.630075	0.000544	20.714046
1717.476178	-3.007800	3.315600	-9.970700	26.644868	0.000544	20.723702
1718.473140	-3.005200	3.315500	-9.962200	26.594375	0.000542	20.708977
1719.472845	-3.016300	3.315000	-9.998100	26.564708	0.000544	20.718510
1720.467986	-3.005400	3.314700	-9.960500	26.544596	0.000540	20.723424
1721.473182	-3.001400	3.313000	-9.942200	26.582705	0.000539	20.717161
1722.469117	-2.985500	3.314600	-9.894600	26.643030	0.000538	20.706206
1723.478385	-2.994500	3.312400	-9.917800	26.672958	0.000541	20.736294
1724.474757	-2.987400	3.313100	-9.895800	26.699401	0.000539	20.713091
1725.473207	-3.007400	3.313800	-9.964800	26.668266	0.000540	20.733473
1726.471167	-3.003700	3.311700	-9.946300	26.631679	0.000536	20.733677
1727.482772	-2.999700	3.312100	-9.933900	26.600395	0.000539	20.737790
1728.473505	-2.995600	3.311100	-9.917700	26.604861	0.000537	20.712406
1729.479218	-3.000000	3.310400	-9.929600	26.610325	0.000534	20.726909
1730.473592	-2.994900	3.311100	-9.914400	26.602202	0.000535	20.722062
1731.472595	-3.025400	3.311300	-10.017000	26.601674	0.000535	20.718212
1732.475840	-3.011300	3.308800	-9.962900	26.577465	0.000534	20.718532
1733.474891	-2.979400	3.309600	-9.858100	26.562046	0.000536	20.732905
1734.474432	-2.986100	3.308900	-9.879800	26.585539	0.000533	20.728546
1735.475037	-3.006500	3.307100	-9.940800	26.554603	0.000534	20.712146
1736.476826	-3.002400	3.308500	-9.931800	26.548838	0.000533	20.729111
1737.473812	-2.987500	3.308900	-9.885000	26.528849	0.000532	20.736519
1738.478995	-2.993400	3.307000	-9.898000	26.567926	0.000532	20.757783
1739.473462	-2.986200	3.308400	-9.878500	26.564820	0.000532	20.740435
1740.475148	-3.000500	3.308900	-9.927500	26.607565	0.000531	20.729350
1741.475463	-3.000900	3.306200	-9.920400	26.644153	0.000531	20.735785
1742.474866	-2.984800	3.307300	-9.870500	26.661506	0.000528	20.730471
1743.475870	-2.984100	3.307400	-9.867400	26.630792	0.000529	20.736105
1744.475502	-3.028800	3.305300	-10.010000	26.625132	0.000527	20.730889
1745.475725	-2.995400	3.305800	-9.900100	26.589456	0.000527	20.724422
1746.474380	-2.989400	3.306000	-9.881900	26.584715	0.000526	20.740520
1747.474552	-3.003500	3.305200	-9.926100	26.593971	0.000525	20.750299
1748.479216	-3.008600	3.303600	-9.938300	26.616426	0.000526	20.727352
1749.475720	-2.990800	3.303000	-9.878100	26.645327	0.000525	20.752139
1750.476620	-3.009000	3.302800	-9.937400	26.671739	0.000524	20.749294
1751.475959	-3.019600	3.302300	-9.969100	26.695664	0.000523	20.712178
1752.476515	-3.023300	3.302000	-9.981900	26.696722	0.000525	20.740745
1753.478823	-2.990000	3.302200	-9.872900	26.747713	0.000523	20.756449
1754.478086	-3.003200	3.302300	-9.916900	26.799827	0.000520	20.747679
1755.479799	-3.009000	3.301300	-9.932700	26.836684	0.000519	20.741114
1756.477983	-3.009300	3.301200	-9.933800	26.847450	0.000521	20.753362
1757.478948	-3.015000	3.300600	-9.950200	26.870979	0.000520	20.760899
1758.481602	-2.994600	3.300700	-9.883500	26.859354	0.000520	20.754426
1759.480079	-2.971000	3.300500	-9.805300	26.868063	0.000519	20.755122
1760.480352	-3.002200	3.299200	-9.903900	26.857363	0.000518	20.743889
1761.481378	-3.001500	3.298900	-9.899900	26.869415	0.000518	20.747946
1762.484165	-3.025700	3.298300	-9.977900	26.845519	0.000518	20.745730
1763.484035	-2.996000	3.299700	-9.884800	26.774523	0.000519	20.753531
1764.484433	-3.010500	3.299000	-9.930600	26.727044	0.000517	20.740409
1765.483351	-2.998100	3.299200	-9.889900	26.706879	0.000517	20.771346
1766.484177	-3.024200	3.296900	-9.968300	26.684890	0.000515	20.750662
1767.484840	-2.997500	3.297100	-9.882100	26.670636	0.000517	20.755772
1768.489005	-3.009600	3.298100	-9.924800	26.644266	0.000516	20.752495
1769.489045	-3.005400	3.296400	-9.905900	26.661748	0.000514	20.769597
1770.485814	-3.003300	3.297500	-9.903000	26.705360	0.000514	20.741368
1771.488229	-2.993900	3.296600	-9.868200	26.719949	0.000512	20.756510
1772.487640	-3.016400	3.294400	-9.936100	26.699075	0.000512	20.764448
1773.488194	-2.985900	3.296400	-9.841700	26.716934	0.000514	20.760117
1774.490252	-2.968600	3.294000	-9.778200	26.695651	0.000511	20.728288
1775.489986	-2.987300	3.293700	-9.837700	26.714852	0.000512	20.758972
1776.493446	-2.991100	3.293800	-9.850500	26.742831	0.000509	20.758653
1777.488147	-3.006400	3.292800	-9.898800	26.775568	0.000508	20.754108
1778.489928	-3.013500	3.292300	-9.920600	26.794400	0.000509	20.785371
1779.488776	-2.995200	3.291500	-9.858100	26.839421	0.000508	20.769945
1780.494088	-3.029400	3.290500	-9.965600	26.859943	0.000509	20.759759
1781.489653	-3.004800	3.291200	-9.888600	26.890674	0.000506	20.767901
1782.492757	-3.012400	3.291500	-9.913600	26.880195	0.000505	20.773486
1783.489451	-3.009900	3.291800	-9.906800	26.875448	0.000506	20.780567
1784.489815	-3.011300	3.290400	-9.907700	26.875473	0.000506	20.767789
1785.492734	-2.993200	3.290200	-9.847000	26.828886	0.000506	20.771681
1786.492804	-3.011600	3.289600	-9.905900	26.831666	0.000504	20.779692
1787.489308	-2.995000	3.289300	-9.851200	26.834220	0.000506	20.779415
1788.489210	-2.989600	3.289900	-9.835100	26.869360	0.000502	20.759746
1789.496928	-3.002300	3.290300	-9.877300	26.878840	0.000500	20.744147
1790.493752	-3.008400	3.287300	-9.888700	26.904475	0.000499	20.778934
1791.492627	-3.015900	3.289000	-9.917300	26.876751	0.000502	20.779980
1792.490816	-2.994500	3.288200	-9.845800	26.886874	0.000502	20.778779
1793.492302	-3.023500	3.287500	-9.937200	26.858972	0.000500	20.788182
1794.495510	-3.015500	3.287300	-9.911100	26.861281	0.000498	20.793823
1795.491523	-3.006000	3.286400	-9.878200	26.863835	0.000498	20.774105
1796.493835	-3.003300	3.286600	-9.869700	26.814271	0.000499	20.792548
1797.494158	-3.021000	3.285000	-9.923000	26.827842	0.000496	20.790072
1798.493754	-2.989300	3.287700	-9.825700	26.829127	0.000495	20.781407
1799.491702	-3.014700	3.286600	-9.907800	26.770828	0.000496	20.770680
1800.493362	-3.002500	3.284800	-9.861800	26.744761	0.000496	20.795207
1801.495745	-3.010300	3.283500	-9.883000	26.765243	0.000497	20.799678
1802.494680	-2.995300	3.285500	-9.841000	26.754371	0.000494	20.794912
1803.494350	-2.977100	3.285600	-9.780400	26.775409	0.000494	20.795200
1804.496713	-3.000500	3.284900	-9.856400	26.839202	0.000492	20.792959
1805.494303	-2.985600	3.283800	-9.802800	26.861236	0.000493	20.785717
1806.493334	-2.995100	3.284200	-9.834000	26.850317	0.000494	20.784695
1807.495439	-2.999600	3.281800	-9.841700	26.840616	0.000491	20.791062
1808.495067	-2.974100	3.283700	-9.765100	26.823958	0.000492	20.787589
1809.495141	-3.003700	3.281300	-9.855300	26.784565	0.000488	20.803457
1810.493333	-3.012700	3.280500	-9.881900	26.770019	0.000491	20.789306
1811.494471	-2.999600	3.280500	-9.839500	26.809339	0.000489	20.805133
1812.495536	-2.994600	3.281300	-9.825400	26.822365	0.000488	20.797367
1813.496058	-2.995200	3.280100	-9.823900	26.847579	0.000489	20.802330
1814.495341	-3.006900	3.280300	-9.863000	26.857751	0.000487	20.806868
1815.495122	-2.991000	3.280100	-9.809300	26.830805	0.000488	20.794947
1816.495725	-2.998900	3.278800	-9.831400	26.840854	0.000488	20.787982
1817.507843	-3.018600	3.278900	-9.897000	26.868327	0.000488	20.801382
1818.510587	-3.000500	3.279400	-9.839200	26.886865	0.000485	20.785408
1819.498683	-3.008000	3.277200	-9.856800	26.934759	0.000484	20.795162
1820.496691	-3.004700	3.278100	-9.849100	26.945874	0.000486	20.805389
1821.495648	-3.008500	3.277100	-9.857600	26.936743	0.000486	20.795734
1822.497717	-3.005600	3.275600	-9.844400	26.897403	0.000484	20.799324
1823.499182	-2.973100	3.277200	-9.742800	26.882516	0.000482	20.802847
1824.498170	-2.989500	3.276300	-9.793300	26.878272	0.000483	20.809485
1825.500005	-3.003100	3.275600	-9.836400	26.917055	0.000481	20.812446
1826.499789	-3.011300	3.275000	-9.861300	26.922070	0.000481	20.813222
1827.499906	-2.983600	3.274700	-9.769500	26.990507	0.000482	20.817082
1828.501389	-3.029300	3.273500	-9.914900	26.981360	0.000479	20.803616
1829.499826	-3.027900	3.272600	-9.907700	27.014187	0.000479	20.793006
1830.504600	-3.003700	3.275900	-9.838200	27.037981	0.000477	20.825943
1831.502867	-3.015400	3.272900	-9.867500	27.068051	0.000476	20.813036
1832.499683	-3.000600	3.273800	-9.822300	27.083016	0.000477	20.826189
1833.504058	-3.005200	3.273400	-9.835800	27.066246	0.000476	20.799366
1834.502574	-2.998000	3.273500	-9.812800	27.077725	0.000477	20.818498
1835.502364	-3.021200	3.271000	-9.880300	27.117003	0.000476	20.826706
1836.506115	-2.979600	3.271900	-9.748100	27.154076	0.000476	20.831749
1837.506423	-2.995600	3.271700	-9.800000	27.159432	0.000473	20.816274
1838.504037	-2.988000	3.271800	-9.775300	27.173453	0.000474	20.825160
1839.507043	-2.998000	3.270700	-9.805500	27.190239	0.000473	20.813121
1840.505333	-2.990500	3.269900	-9.775700	27.174934	0.000472	20.814322
1841.505064	-2.986000	3.271200	-9.765800	27.136025	0.000472	20.817388
1842.504456	-2.980400	3.270600	-9.746000	27.107340	0.000471	20.814143
1843.505363	-2.993000	3.271300	-9.790100	27.135529	0.000469	20.822579
1844.507865	-2.991500	3.268400	-9.776500	27.156297	0.000470	20.820707
1845.507112	-2.995300	3.268300	-9.788200	27.173838	0.000470	20.801366
1846.509463	-2.995100	3.269000	-9.789700	27.160411	0.000467	20.821052
1847.515922	-3.016100	3.267200	-9.853400	27.137464	0.000468	20.805559
1848.505562	-3.000300	3.267400	-9.802100	27.128371	0.000467	20.800681
1849.508802	-2.997000	3.266400	-9.787800	27.138945	0.000466	20.800410
1850.507792	-2.972700	3.266700	-9.709900	27.144822	0.000467	20.827184
1851.508007	-2.997600	3.266300	-9.790800	27.194291	0.000466	20.800600
1852.507665	-3.008300	3.265500	-9.822500	27.229751	0.000464	20.802602
1853.507637	-2.994800	3.266400	-9.781300	27.226298	0.000465	20.807664
1854.506968	-2.994200	3.265700	-9.776700	27.195234	0.000463	20.809135
1855.507355	-2.996100	3.265700	-9.783500	27.177240	0.000463	20.806210
1856.507828	-2.987000	3.265000	-9.751900	27.188131	0.000462	20.808630
1857.509795	-2.992200	3.264800	-9.767400	27.222838	0.000461	20.786165
1858.508051	-2.998000	3.262200	-9.779500	27.226284	0.000459	20.802434
1859.511612	-2.997300	3.263100	-9.778900	27.237151	0.000460	20.797717
1860.507901	-3.028800	3.261100	-9.875900	27.226095	0.000458	20.806512
1861.507702	-3.009000	3.261400	-9.812900	27.228861	0.000459	20.786534
1862.513029	-2.995700	3.262600	-9.772900	27.199861	0.000459	20.798142
1863.510819	-3.002000	3.260400	-9.786100	27.187524	0.000459	20.782415
1864.514912	-3.021400	3.260900	-9.851000	27.184591	0.000457	20.798905
1865.511091	-2.997200	3.260100	-9.770100	27.151469	0.000454	20.787876
1866.517094	-3.016400	3.260400	-9.833500	27.142358	0.000456	20.769230
1867.511683	-3.048800	3.259300	-9.935500	27.130523	0.000457	20.789095
1868.513162	-3.019600	3.259100	-9.839900	27.127939	0.000456	20.789815
1869.514269	-3.006100	3.258600	-9.793100	27.136719	0.000452	20.790585
1870.513893	-2.974800	3.260200	-9.697700	27.215324	0.000454	20.762960
1871.514847	-2.991400	3.259400	-9.749000	27.208602	0.000452	20.771372
1872.514500	-2.977800	3.259300	-9.703900	27.178498	0.000449	20.782819
1873.513832	-2.992300	3.257800	-9.747000	27.152367	0.000452	20.772184
1874.514100	-2.994100	3.256500	-9.749100	27.087129	0.000450	20.778644
1875.515748	-3.014200	3.258200	-9.819300	27.093950	0.000449	20.760847
1876.514213	-2.989800	3.257000	-9.735900	27.079928	0.000448	20.769979
1877.514643	-2.993400	3.255700	-9.744700	27.072605	0.000447	20.774942
1878.514732	-2.998800	3.255500	-9.760700	27.070842	0.000448	20.772694
1879.515733	-2.997900	3.256300	-9.760900	27.090018	0.000444	20.766850
1880.516055	-2.987000	3.256200	-9.725500	27.087336	0.000445	20.753721
1881.514502	-3.000100	3.255400	-9.765100	27.105870	0.000444	20.774732
1882.519394	-2.997100	3.254100	-9.750700	27.107584	0.000443	20.760334
1883.514048	-2.988400	3.253900	-9.723000	27.125744	0.000443	20.770064
1884.513552	-2.992000	3.254300	-9.735800	27.154299	0.000443	20.765593
1885.516871	-3.008500	3.253900	-9.789000	27.166005	0.000441	20.759348
1886.518392	-2.996100	3.252700	-9.744400	27.172109	0.000442	20.745098
1887.515939	-3.008100	3.251600	-9.778200	27.122982	0.000441	20.763018
1888.515378	-2.994700	3.254200	-9.744600	27.115879	0.000442	20.769151
1889.516828	-2.975800	3.254100	-9.681600	27.122700	0.000440	20.760838
1890.517268	-2.984200	3.252400	-9.704300	27.165827	0.000440	20.769601
1891.518112	-2.994700	3.249900	-9.731200	27.154391	0.000439	20.755253
1892.517790	-2.990800	3.251500	-9.723300	27.225096	0.000438	20.753349
1893.519917	-3.020800	3.249700	-9.815300	27.191626	0.000437	20.766626
1894.516324	-3.016000	3.248300	-9.795700	27.162563	0.000438	20.763947
1895.516813	-2.995500	3.249400	-9.733300	27.132942	0.000434	20.768769
1896.526136	-2.986900	3.250100	-9.707100	27.122637	0.000434	20.776897
1897.520751	-2.985500	3.250200	-9.702700	27.078596	0.000436	20.750147
1898.518154	-2.987900	3.250500	-9.711300	27.054918	0.000433	20.744351
1899.521619	-2.993300	3.248300	-9.721500	27.021994	0.000433	20.779046
1900.519497	-3.007800	3.247000	-9.764700	27.061250	0.000433	20.738865
1901.520916	-3.016200	3.245300	-9.787900	27.103430	0.000433	20.763743
1902.524805	-3.040400	3.244900	-9.865000	27.161662	0.000431	20.758299
1903.523081	-3.021700	3.244900	-9.804200	27.159752	0.000430	20.736937
1904.521963	-2.999100	3.245400	-9.731500	27.142058	0.000431	20.738106
1905.523301	-3.006200	3.246100	-9.755700	27.121112	0.000427	20.750232
1906.523740	-2.993200	3.245600	-9.713500	27.120260	0.000430	20.745582
1907.526498	-3.008300	3.244700	-9.760000	27.087890	0.000427	20.757597
1908.524078	-2.994500	3.243900	-9.712700	27.049027	0.000428	20.751703
1909.525446	-2.972400	3.244800	-9.642400	27.024510	0.000426	20.750755
1910.523826	-2.996200	3.244000	-9.718000	27.036713	0.000426	20.726990
1911.529323	-2.994000	3.244600	-9.713300	27.065400	0.000425	20.748254
1912.525694	-3.006900	3.243100	-9.751100	27.106662	0.000423	20.749923
1913.525074	-3.026100	3.242200	-9.809900	27.173337	0.000424	20.758661
1914.534617	-3.020700	3.241000	-9.788700	27.223894	0.000422	20.751191
1915.525693	-2.992100	3.242300	-9.700800	27.285027	0.000422	20.729706
1916.525736	-3.020900	3.240500	-9.788100	27.293163	0.000420	20.749270
1917.526147	-3.023900	3.239800	-9.796100	27.296413	0.000422	20.736892
1918.530796	-3.026100	3.238400	-9.798700	27.319112	0.000422	20.746924
1919.524614	-2.997300	3.240100	-9.710700	27.277447	0.000420	20.733935
1920.526263	-2.967100	3.239600	-9.610600	27.304445	0.000421	20.748290
1921.525308	-3.022700	3.237500	-9.785100	27.288565	0.000420	20.732316
1922.532029	-3.001100	3.240400	-9.723700	27.250781	0.000417	20.760218
1923.527638	-2.996500	3.236800	-9.697500	27.173488	0.000415	20.728941
1924.525710	-2.971200	3.239700	-9.623700	27.126418	0.000416	20.738498
1925.533420	-2.978600	3.238100	-9.644200	27.066836	0.000412	20.735000
1926.526147	-2.998700	3.235800	-9.701600	27.050433	0.000416	20.735098
1927.526221	-3.000400	3.235900	-9.708000	27.087330	0.000417	20.728583
1928.530337	-2.988300	3.237000	-9.671700	27.074275	0.000414	20.746275
1929.526778	-2.999000	3.235800	-9.703100	27.022640	0.000414	20.733700
1930.530026	-3.005200	3.234700	-9.719100	27.014446	0.000409	20.736841
1931.528583	-2.981400	3.235800	-9.646600	26.991661	0.000411	20.730996
1932.532835	-2.988600	3.234000	-9.663400	26.989444	0.000410	20.716438
1933.531310	-2.975000	3.235400	-9.623800	26.980834	0.000409	20.735282
1934.528175	-2.963700	3.233800	-9.583100	27.018303	0.000406	20.749254
1935.528586	-2.983700	3.234700	-9.651200	27.071476	0.000408	20.745830
1936.527575	-3.007900	3.232300	-9.721500	27.080458	0.000405	20.730681
1937.527695	-2.992400	3.231900	-9.669500	27.140057	0.000406	20.757432
1938.530413	-2.988800	3.231900	-9.658900	27.168385	0.000407	20.738033
1939.527620	-2.984900	3.231900	-9.644800	27.236886	0.000405	20.731542
1940.528587	-2.998600	3.231600	-9.689200	27.245120	0.000405	20.734609
1941.530045	-2.998000	3.230700	-9.684300	27.259182	0.000404	20.748279
1942.532588	-2.996800	3.230500	-9.680700	27.310506	0.000403	20.715505
1943.534211	-3.000800	3.231500	-9.695800	27.355107	0.000401	20.708688
1944.535976	-3.010600	3.228900	-9.720700	27.368573	0.000401	20.727926
1945.529677	-2.988800	3.229100	-9.650500	27.392636	0.000399	20.726528
1946.530039	-3.000700	3.228000	-9.685200	27.385217	0.000399	20.716693
1947.532064	-3.022500	3.226800	-9.751100	27.389997	0.000398	20.724821
1948.530490	-3.010900	3.227200	-9.716100	27.362390	0.000397	20.733086
1949.538496	-3.006000	3.226900	-9.699100	27.399766	0.000396	20.713785
1950.533126	-3.011800	3.227100	-9.718200	27.441664	0.000397	20.735074
1951.533053	-3.012700	3.226200	-9.718600	27.445288	0.000396	20.733978
1952.538890	-2.969600	3.226700	-9.581100	27.474348	0.000395	20.738559
1953.542220	-3.034100	3.223700	-9.779700	27.512938	0.000394	20.718588
1954.536226	-3.012000	3.223700	-9.708900	27.483394	0.000393	20.729642
1955.532863	-2.993600	3.224900	-9.652700	27.491681	0.000395	20.729919
1956.539052	-3.012600	3.223400	-9.709800	27.507974	0.000393	20.735880
1957.535523	-2.993900	3.222900	-9.648200	27.515312	0.000392	20.710545
1958.543828	-3.005300	3.223300	-9.685600	27.491319	0.000392	20.707268
1959.543468	-2.994000	3.223400	-9.649000	27.510544	0.000392	20.728982
1960.536906	-3.001600	3.222400	-9.669500	27.529988	0.000390	20.707767
1961.535893	-2.999900	3.222700	-9.666000	27.543404	0.000390	20.724111
1962.537003	-2.998900	3.222200	-9.661800	27.569885	0.000388	20.736057
1963.540792	-3.028000	3.220600	-9.751100	27.525465	0.000389	20.725976
1964.537060	-3.001100	3.221900	-9.668300	27.506785	0.000387	20.720932
1965.544183	-2.990500	3.221000	-9.631700	27.469522	0.000386	20.725169
1966.536738	-3.011500	3.219300	-9.693400	27.480931	0.000385	20.710567
1967.546507	-2.981600	3.220600	-9.601200	27.420133	0.000383	20.716732
1968.545791	-3.008400	3.217900	-9.679900	27.439499	0.000383	20.731000
1969.539507	-3.004400	3.218500	-9.669400	27.454808	0.000381	20.726012
1970.539768	-3.013000	3.217800	-9.694100	27.503051	0.000382	20.700578
1971.539583	-3.002500	3.217800	-9.660900	27.554981	0.000382	20.720112
1972.542985	-2.975200	3.219400	-9.577900	27.585417	0.000381	20.702370
1973.540136	-2.974000	3.217100	-9.566900	27.592583	0.000381	20.710056
1974.541606	-2.970400	3.217700	-9.556500	27.628739	0.000379	20.709452
1975.551322	-2.996700	3.216400	-9.637300	27.678363	0.000378	20.714341
1976.543864	-2.993400	3.215400	-9.623800	27.683821	0.000378	20.727896
1977.541776	-3.004300	3.215800	-9.660600	27.663584	0.000378	20.719859
1978.540819	-3.004900	3.216100	-9.662600	27.657850	0.000378	20.704605
1979.546390	-3.002900	3.216800	-9.659100	27.648897	0.000375	20.724521
1980.541399	-3.000400	3.215100	-9.645400	27.610924	0.000375	20.719027
1981.544546	-3.006400	3.212800	-9.657000	27.647005	0.000375	20.725462
1982.541748	-3.002300	3.212200	-9.643200	27.626621	0.000372	20.710165
1983.546067	-2.985800	3.213400	-9.593300	27.634509	0.000371	20.712887
1984.545208	-2.992800	3.213500	-9.616400	27.607821	0.000371	20.704524
1985.552620	-2.974900	3.211800	-9.553400	27.598518	0.000372	20.704647
1986.545655	-2.995400	3.211600	-9.618600	27.655505	0.000369	20.713152
1987.544131	-2.993300	3.211300	-9.611600	27.651907	0.000369	20.705263
1988.548024	-3.003500	3.210300	-9.641300	27.619319	0.000367	20.702818
1989.550879	-3.007800	3.210700	-9.654500	27.645885	0.000371	20.710110
1990.558218	-2.963400	3.210800	-9.513100	27.655212	0.000367	20.712856
1991.553824	-2.981900	3.210800	-9.573400	27.623505	0.000366	20.704185
1992.547350	-2.981200	3.210100	-9.568600	27.608052	0.000364	20.716612
1993.546929	-3.001700	3.207800	-9.628100	27.590990	0.000362	20.707504
1994.545331	-2.990800	3.208200	-9.594100	27.526802	0.000365	20.694128
1995.547847	-2.976900	3.208500	-9.550400	27.500355	0.000364	20.696918
1996.552030	-3.030700	3.206200	-9.716200	27.465829	0.000364	20.690156
1997.553070	-3.020200	3.206000	-9.681500	27.483113	0.000363	20.698063
1998.550984	-3.019900	3.206200	-9.681200	27.515185	0.000361	20.699510
1999.545419	-3.018200	3.205100	-9.672600	27.508195	0.000361	20.692003
2000.548100	-3.004400	3.204800	-9.626700	27.527738	0.000361	20.726366
2001.547161	-3.028800	3.203500	-9.701000	27.567219	0.000360	20.715355
2002.555862	-2.996600	3.204200	-9.600900	27.555487	0.000358	20.704972
2003.551723	-3.017000	3.204300	-9.665300	27.556967	0.000356	20.704091
2004.549819	-3.015700	3.204400	-9.662300	27.527033	0.000358	20.685826
2005.560748	-3.012500	3.203100	-9.646900	27.508905	0.000355	20.687501
2006.547747	-2.990000	3.203100	-9.576800	27.477800	0.000358	20.697933
2007.559266	-3.019000	3.203400	-9.670100	27.442397	0.000358	20.696455
2008.548376	-3.016400	3.203900	-9.663500	27.433614	0.000355	20.705163
2009.558913	-2.982600	3.203200	-9.552600	27.440016	0.000352	20.696430
2010.547807	-2.976200	3.202200	-9.529800	27.421953	0.000352	20.700544
2011.550593	-3.027500	3.200000	-9.687100	27.406044	0.000351	20.694496
2012.548068	-3.002600	3.201600	-9.611400	27.397243	0.000351	20.678527
2013.550287	-2.989400	3.199900	-9.564800	27.447226	0.000348	20.706055
2014.549288	-2.984500	3.199200	-9.546500	27.491821	0.000347	20.695918
2015.550823	-2.988500	3.200400	-9.564200	27.492593	0.000349	20.705704
2016.549666	-3.007200	3.197300	-9.613800	27.441271	0.000347	20.681569
2017.557597	-3.007600	3.197200	-9.615000	27.440922	0.000348	20.715834
2018.553491	-3.008500	3.195900	-9.614000	27.440199	0.000346	20.681440
2019.550123	-3.006500	3.196400	-9.608500	27.460587	0.000345	20.690098
2020.558087	-3.004600	3.196300	-9.602500	27.531255	0.000346	20.684383
2021.557440	-3.010500	3.195300	-9.618800	27.558857	0.000344	20.699829
2022.561088	-3.005500	3.195500	-9.603200	27.582866	0.000344	20.691743
2023.557089	-3.001600	3.195600	-9.591100	27.628551	0.000343	20.693615
2024.561370	-3.007500	3.194300	-9.606000	27.662375	0.000340	20.694458
2025.553285	-2.981500	3.194400	-9.523300	27.707732	0.000339	20.700272
2026.554831	-3.007800	3.193400	-9.604100	27.730171	0.000341	20.686341
2027.554663	-3.002900	3.194000	-9.590000	27.756336	0.000339	20.691810
2028.560856	-2.998300	3.193300	-9.573400	27.758557	0.000340	20.679819
2029.555030	-3.012600	3.192300	-9.616200	27.755045	0.000338	20.682449
2030.553063	-3.031700	3.192300	-9.676100	27.766371	0.000337	20.712341
2031.554048	-3.014700	3.189700	-9.615300	27.799645	0.000337	20.681340
2032.554205	-2.988000	3.191500	-9.535100	27.833194	0.000336	20.675748
2033.558996	-2.992000	3.191100	-9.547100	27.841179	0.000336	20.669559
2034.555380	-2.993300	3.191500	-9.551900	27.822394	0.000336	20.690010
2035.571995	-2.977900	3.191500	-9.503400	27.799663	0.000335	20.674719
2036.568122	-2.981200	3.190200	-9.509700	27.756739	0.000332	20.685577
2037.556332	-2.998200	3.190400	-9.564600	27.719088	0.000331	20.678032
2038.558215	-3.003800	3.188300	-9.575600	27.728260	0.000332	20.695325
2039.558767	-3.008900	3.189200	-9.595400	27.748196	0.000330	20.672237
2040.557430	-3.022700	3.188300	-9.636400	27.766167	0.000332	20.689849
2041.570713	-3.005700	3.188200	-9.580300	27.787859	0.000331	20.690816
2042.559420	-2.962300	3.189600	-9.447800	27.781342	0.000328	20.695164
2043.568349	-2.988400	3.186200	-9.520300	27.779347	0.000328	20.688414
2044.557104	-3.015200	3.184300	-9.600500	27.788428	0.000328	20.681905
2045.574295	-3.008600	3.185400	-9.582800	27.810185	0.000326	20.703329
2046.562038	-3.005400	3.183400	-9.566300	27.834115	0.000326	20.686634
2047.562508	-3.015800	3.182400	-9.595800	27.814970	0.000326	20.682064
2048.564288	-3.024200	3.181200	-9.619900	27.793322	0.000325	20.678295
2049.567867	-2.956600	3.184800	-9.414800	27.761075	0.000324	20.691837
2050.563358	-3.004100	3.181100	-9.555000	27.742999	0.000322	20.688819
2051.562372	-2.985200	3.181800	-9.497300	27.716454	0.000322	20.686288
2052.570458	-2.998200	3.181900	-9.538900	27.791742	0.000322	20.674808
2053.561367	-3.007600	3.180200	-9.564000	27.800768	0.000321	20.657811
2054.560974	-2.991900	3.180700	-9.514300	27.818071	0.000321	20.687082
2055.561884	-3.000500	3.179800	-9.539800	27.784093	0.000317	20.676120
2056.567824	-2.999400	3.179700	-9.536500	27.783849	0.000320	20.681564
2057.562738	-3.003100	3.178600	-9.544400	27.784167	0.000319	20.672874
2058.566378	-2.983000	3.180500	-9.486200	27.808342	0.000317	20.684877
2059.565676	-2.992800	3.178600	-9.511600	27.823541	0.000317	20.681681
2060.565193	-3.007900	3.178000	-9.557900	27.892587	0.000317	20.662503
2061.579169	-3.001900	3.177600	-9.538100	27.898369	0.000315	20.683497
2062.565409	-3.000700	3.177800	-9.534500	27.851643	0.000316	20.691946
2063.569370	-3.013300	3.175100	-9.565900	27.810929	0.000313	20.659029
2064.564197	-3.007500	3.175300	-9.548400	27.795229	0.000312	20.673575
2065.562644	-2.979300	3.175900	-9.460100	27.744368	0.000313	20.667909
2066.567730	-2.984500	3.176200	-9.478300	27.731566	0.000313	20.684426
2067.577840	-3.009900	3.174300	-9.553700	27.734045	0.000314	20.683601
2068.566708	-2.998500	3.175300	-9.520500	27.727766	0.000310	20.702889
2069.562751	-3.019600	3.172700	-9.579500	27.723103	0.000309	20.691557
2070.576115	-3.011500	3.172400	-9.553100	27.707621	0.000308	20.665069
2071.564250	-2.988400	3.172900	-9.481100	27.673438	0.000310	20.694685
2072.567768	-2.994400	3.171600	-9.496000	27.626745	0.000307	20.672355
2073.577010	-2.994100	3.172400	-9.497300	27.640526	0.000309	20.688120
2074.565029	-3.011100	3.170400	-9.545700	27.641560	0.000308	20.689635
2075.563731	-2.996800	3.170200	-9.499300	27.658793	0.000305	20.678525
2076.569051	-3.004500	3.171600	-9.528200	27.717839	0.000302	20.686734
2077.577937	-3.006300	3.170800	-9.531900	27.749793	0.000303	20.689492
2078.565284	-3.016300	3.167300	-9.553000	27.770200	0.000305	20.680630
2079.580744	-2.991200	3.169500	-9.479500	27.794498	0.000303	20.686592
2080.566561	-3.001600	3.166600	-9.503700	27.802146	0.000302	20.678641
2081.567655	-3.008300	3.166300	-9.524500	27.797490	0.000303	20.691500
2082.568528	-3.006300	3.165200	-9.514000	27.785858	0.000301	20.696863
2083.579099	-3.001600	3.164800	-9.498600	27.768021	0.000298	20.686973
2084.571108	-2.994500	3.165100	-9.477200	27.773069	0.000301	20.703434
2085.567782	-2.997400	3.165400	-9.487000	27.828444	0.000299	20.714118
2086.573048	-2.988200	3.163500	-9.452600	27.860205	0.000299	20.679699
2087.594944	-2.977000	3.163600	-9.417100	27.852054	0.000297	20.676238
2088.570230	-2.954300	3.163600	-9.345000	27.888850	0.000295	20.700945
2089.571297	-3.002000	3.163900	-9.497500	27.922720	0.000295	20.699473
2090.565915	-3.001500	3.161700	-9.488300	27.947871	0.000293	20.694916
2091.569396	-3.007300	3.160800	-9.504800	27.978840	0.000292	20.692896
2092.567058	-3.007900	3.162000	-9.509800	27.973474	0.000293	20.696030
2093.572664	-3.029100	3.159300	-9.568700	27.988102	0.000293	20.685622
2094.583363	-3.012700	3.159500	-9.516900	27.993601	0.000292	20.706807
2095.572033	-3.007900	3.158800	-9.500800	27.994984	0.000290	20.715311
2096.572671	-3.026200	3.158800	-9.558000	27.961287	0.000291	20.710317
2097.572999	-3.000000	3.158300	-9.474000	27.969271	0.000291	20.718354
2098.577287	-2.988500	3.158300	-9.437300	27.946377	0.000289	20.698154
2099.579736	-3.027500	3.156000	-9.553200	27.902664	0.000290	20.704891
2100.580298	-3.011800	3.156100	-9.504800	27.938534	0.000287	20.705907
2101.572379	-3.030300	3.154500	-9.557400	27.923832	0.000284	20.691583
2102.577967	-2.998200	3.155400	-9.458800	27.927693	0.000284	20.710643
2103.568592	-3.018100	3.155400	-9.522400	27.969166	0.000284	20.695487
2104.572966	-3.008700	3.156700	-9.497100	27.997430	0.000284	20.721093
2105.586317	-3.000400	3.154500	-9.463000	28.045672	0.000282	20.692365
2106.581002	-2.990700	3.153800	-9.430000	28.077556	0.000284	20.721617
2107.576763	-2.984700	3.152000	-9.407000	28.090395	0.000281	20.699927
2108.579107	-3.019200	3.151800	-9.514300	28.132933	0.000282	20.702446
2109.586403	-2.986500	3.152400	-9.413800	28.116662	0.000282	20.720680
2110.575543	-3.002800	3.150800	-9.460600	28.093955	0.000277	20.714892
2111.571311	-3.004400	3.150200	-9.462700	28.050095	0.000279	20.703455
2112.580002	-2.993400	3.148900	-9.425400	28.048877	0.000279	20.699385
2113.579414	-2.997900	3.149700	-9.440600	28.055496	0.000279	20.721696
2114.571174	-2.988800	3.147400	-9.405800	28.051753	0.000276	20.723618
2115.577511	-3.013900	3.146800	-9.483400	28.049342	0.000277	20.727830
2116.578103	-3.012500	3.148500	-9.483400	28.060152	0.000276	20.700776
2117.578316	-2.998500	3.147800	-9.437800	28.058488	0.000275	20.714749
2118.573218	-2.988200	3.145800	-9.399500	27.955051	0.000274	20.707834
2119.592016	-3.001700	3.146700	-9.444100	27.875803	0.000272	20.691606
2120.579591	-3.020600	3.145200	-9.499500	27.809374	0.000274	20.721006
2121.602135	-3.028000	3.143600	-9.517700	27.775794	0.000271	20.691951
2122.590149	-3.004900	3.143500	-9.444400	27.746068	0.000272	20.728895
2123.578314	-3.010200	3.144400	-9.464100	27.748565	0.000272	20.737572
2124.583152	-2.973400	3.142700	-9.342300	27.754023	0.000270	20.706553
2125.579022	-3.032800	3.139300	-9.519800	27.772251	0.000272	20.729640
2126.578416	-3.000900	3.141800	-9.426600	27.804381	0.000269	20.718352
2127.593650	-2.995100	3.141700	-9.408700	27.863028	0.000270	20.716209
2128.581604	-2.968100	3.141500	-9.322900	27.904228	0.000267	20.723063
2129.581758	-2.976900	3.139600	-9.344600	27.957761	0.000266	20.716252
2130.587679	-2.995800	3.140300	-9.406200	27.985261	0.000267	20.715956
2131.574884	-2.982500	3.139800	-9.363500	28.014136	0.000268	20.708511
2132.575599	-2.990400	3.137300	-9.379900	28.019941	0.000265	20.725261
2133.582865	-3.015700	3.135600	-9.455000	28.023685	0.000266	20.702001
2134.578335	-2.992400	3.136500	-9.383900	28.072948	0.000265	20.731678
2135.583558	-2.991800	3.136200	-9.381700	28.090125	0.000262	20.693016
2136.590783	-3.000100	3.134800	-9.403300	28.111021	0.000264	20.720692
2137.576046	-2.995300	3.134100	-9.386300	28.070636	0.000263	20.727928
2138.583987	-2.993800	3.134200	-9.381700	28.013408	0.000262	20.708726
2139.585944	-2.991200	3.133600	-9.372400	27.958813	0.000261	20.728691
2140.582150	-2.987700	3.133900	-9.361900	27.927202	0.000260	20.717736
2141.581939	-2.977300	3.132800	-9.326000	27.919089	0.000259	20.731382
2142.584461	-2.971100	3.131800	-9.303200	27.934042	0.000260	20.743588
2143.583581	-3.004000	3.131600	-9.406700	27.977528	0.000258	20.722871
2144.584285	-2.975100	3.132800	-9.318100	28.024505	0.000259	20.739338
2145.578634	-3.005400	3.129200	-9.403300	28.065632	0.000257	20.727632
2146.592451	-3.009500	3.127600	-9.411100	28.104995	0.000257	20.723161
2147.610109	-2.996600	3.128300	-9.372900	28.099392	0.000257	20.737910
2148.587625	-3.028900	3.124800	-9.463500	28.176562	0.000255	20.729775
2149.586445	-2.996700	3.127000	-9.370000	28.168402	0.000254	20.732466
2150.597874	-3.011600	3.124400	-9.408900	28.155661	0.000253	20.732441
2151.583944	-3.001800	3.124900	-9.379300	28.110017	0.000253	20.752399
2152.587610	-2.995900	3.124000	-9.358500	28.073003	0.000255	20.725568
2153.587728	-3.022100	3.121900	-9.433300	28.067675	0.000251	20.720205
2154.604554	-2.994900	3.122900	-9.351900	28.091097	0.000251	20.744258
2155.581609	-2.986200	3.121400	-9.319800	28.166977	0.000250	20.737195
2156.589940	-2.992800	3.122200	-9.343300	28.152401	0.000250	20.722046
2157.595567	-2.995400	3.122000	-9.350900	28.125255	0.000249	20.740237
2158.586613	-3.004200	3.120300	-9.373500	28.124557	0.000250	20.752338
2159.588226	-2.996800	3.120200	-9.350000	28.154774	0.000249	20.744351
2160.588022	-3.015000	3.118900	-9.402400	28.140143	0.000249	20.727724
2161.594079	-2.992200	3.119100	-9.331000	28.150236	0.000246	20.734565
2162.585884	-3.002200	3.118400	-9.361100	28.188978	0.000248	20.739430
2163.605467	-3.045400	3.114600	-9.483700	28.174721	0.000247	20.732188
2164.586875	-3.015200	3.115400	-9.392600	28.225512	0.000245	20.734011
2165.587018	-3.010800	3.115700	-9.379200	28.242087	0.000246	20.737423
2166.584574	-3.011800	3.113400	-9.376300	28.233812	0.000243	20.735729
2167.600251	-2.988300	3.115200	-9.308000	28.197052	0.000243	20.744240
2168.590959	-2.992200	3.114300	-9.318000	28.184532	0.000243	20.738747
2169.585195	-2.936600	3.114400	-9.143900	28.180366	0.000241	20.738346
2170.586702	-3.021100	3.112800	-9.402900	28.165515	0.000244	20.758957
2171.592231	-3.001100	3.111200	-9.335600	28.151850	0.000242	20.744252
2172.597742	-2.977900	3.110900	-9.262500	28.201376	0.000242	20.732946
2173.593956	-2.974000	3.111100	-9.251100	28.222050	0.000241	20.748544
2174.593147	-3.006700	3.109700	-9.348800	28.251616	0.000242	20.723308
2175.585687	-2.991400	3.109600	-9.301300	28.233897	0.000241	20.757627
2176.599204	-3.004500	3.108400	-9.338000	28.216092	0.000241	20.753452
2177.597774	-2.970000	3.107000	-9.226600	28.202312	0.000238	20.751906
2178.595655	-2.997400	3.105800	-9.308300	28.157612	0.000238	20.737250
2179.596940	-3.005800	3.105100	-9.331900	28.180146	0.000239	20.731012
2180.594738	-2.997200	3.104400	-9.302900	28.189957	0.000236	20.748950
2181.597501	-3.007300	3.103000	-9.330500	28.179326	0.000237	20.747731
2182.597900	-3.011900	3.102100	-9.342300	28.145507	0.000237	20.760626
2183.599114	-2.990000	3.102100	-9.274600	28.116880	0.000238	20.749825
2184.591359	-3.028300	3.102100	-9.393200	28.132741	0.000235	20.763896
2185.590876	-2.996000	3.101100	-9.290700	28.169723	0.000235	20.759401
2186.593152	-2.991300	3.100100	-9.272100	28.198202	0.000233	20.761045
2187.620933	-2.997600	3.099400	-9.289800	28.273236	0.000233	20.774475
2188.596560	-3.037000	3.097300	-9.405300	28.297724	0.000229	20.771156
2189.598544	-3.002700	3.097100	-9.299000	28.347342	0.000233	20.768484
2190.597343	-2.988600	3.096500	-9.251500	28.390340	0.000232	20.747768
2191.601178	-2.981700	3.096200	-9.230000	28.392266	0.000229	20.762036
2192.602332	-2.998300	3.095800	-9.281100	28.376335	0.000231	20.767332
2193.599951	-2.970000	3.096100	-9.193700	28.351818	0.000233	20.749757
2194.600337	-3.024900	3.093600	-9.356000	28.378959	0.000230	20.745791
2195.594701	-2.996700	3.092400	-9.265500	28.358191	0.000230	20.764709
2196.598884	-3.023900	3.091400	-9.347200	28.413902	0.000230	20.752054
2197.604528	-2.997000	3.091100	-9.263300	28.419228	0.000230	20.778281
2198.607304	-2.968900	3.093100	-9.182200	28.469237	0.000228	20.767474
2199.607732	-2.987200	3.091000	-9.232200	28.488511	0.000228	20.769814
2200.602495	-2.997700	3.088600	-9.257800	28.476269	0.000226	20.764598
2201.602453	-3.001800	3.087600	-9.267300	28.474294	0.000228	20.748858
2202.601594	-3.000800	3.087800	-9.264700	28.512652	0.000229	20.779900
2203.604105	-2.995300	3.086900	-9.244600	28.559905	0.000230	20.751623
2204.603372	-3.010700	3.086000	-9.289000	28.491984	0.000225	20.769518
2205.605144	-3.002100	3.085400	-9.261700	28.411339	0.000226	20.768440
2206.603455	-3.001200	3.084600	-9.256000	28.357334	0.000227	20.762898
2207.597901	-2.961500	3.086500	-9.138600	28.315124	0.000225	20.776821
2208.608877	-2.994700	3.083600	-9.232400	28.319136	0.000225	20.776594
2209.606330	-3.024500	3.079300	-9.312200	28.332792	0.000226	20.762369
2210.604247	-2.975600	3.082200	-9.170900	28.400723	0.000222	20.765811
2211.605029	-2.991800	3.081000	-9.217300	28.417724	0.000226	20.761118
2212.604673	-2.999000	3.080800	-9.237700	28.471353	0.000223	20.773398
2213.606695	-2.970900	3.079600	-9.147900	28.483466	0.000223	20.773268
2214.613147	-2.982700	3.078600	-9.181600	28.478067	0.000223	20.754080
2215.603714	-3.000100	3.075900	-9.227400	28.410924	0.000223	20.773712
2216.611165	-2.998400	3.075000	-9.219300	28.381240	0.000223	20.784125
2217.613739	-3.000900	3.074300	-9.223600	28.375332	0.000223	20.765848
2218.607415	-3.011200	3.073100	-9.253200	28.378090	0.000223	20.776686
2219.613775	-2.957200	3.074400	-9.090700	28.433605	0.000222	20.782801
2220.614502	-2.997700	3.072300	-9.209100	28.483038	0.000220	20.785165
2221.617080	-3.011700	3.070900	-9.247600	28.520803	0.000222	20.773410
2222.610993	-3.026100	3.069200	-9.286200	28.535227	0.000221	20.783669
2223.608479	-2.994300	3.069600	-9.190000	28.595710	0.000220	20.778201
2224.606574	-3.013500	3.068500	-9.245300	28.619341	0.000220	20.764542
2225.610148	-2.997300	3.066800	-9.191300	28.654056	0.000219	20.781015
2226.608286	-3.002300	3.066600	-9.205200	28.648303	0.000218	20.781858
2227.607464	-2.991300	3.066400	-9.171500	28.600064	0.000219	20.788275
2228.610777	-3.006700	3.064800	-9.214000	28.552953	0.000219	20.788244
2229.608919	-3.003000	3.064300	-9.201900	28.519470	0.000217	20.794353
2230.604656	-2.988200	3.063400	-9.151500	28.549211	0.000217	20.800597
2231.609823	-3.019300	3.061500	-9.242700	28.575050	0.000217	20.787265
2232.616127	-2.997400	3.061300	-9.174600	28.602228	0.000217	20.788084
2233.616540	-3.057600	3.057600	-9.347800	28.577325	0.000218	20.789556
2234.607899	-2.998100	3.059400	-9.172000	28.549615	0.000218	20.799581
2235.614299	-2.988000	3.058600	-9.138000	28.452127	0.000216	20.791970
2236.614738	-3.013600	3.057000	-9.210900	28.434479	0.000216	20.795061
2237.610497	-3.010600	3.054900	-9.195400	28.397971	0.000217	20.770626
2238.612342	-2.987800	3.054900	-9.126600	28.377473	0.000214	20.795504
2239.617968	-2.997100	3.054300	-9.153800	28.367835	0.000215	20.809033
2240.625266	-3.004800	3.052300	-9.170500	28.378359	0.000214	20.793552
2241.617003	-3.009900	3.052100	-9.186200	28.409835	0.000216	20.775460
2242.611104	-2.991700	3.051700	-9.128900	28.464999	0.000214	20.806829
2243.618255	-3.001600	3.050000	-9.153100	28.467323	0.000214	20.775978
2244.613201	-2.994200	3.048600	-9.127400	28.445688	0.000213	20.821995
2245.612283	-3.006500	3.047600	-9.162100	28.433843	0.000214	20.805326
2246.609476	-3.006700	3.046500	-9.159000	28.448440	0.000214	20.817180
2247.614732	-2.973900	3.046400	-9.058800	28.467390	0.000215	20.798331
2248.607929	-3.001100	3.045300	-9.137600	28.480005	0.000212	20.799181
2249.610674	-3.008200	3.044000	-9.155900	28.525896	0.000213	20.792764
2250.618396	-2.985400	3.041900	-9.080100	28.577784	0.000210	20.810881
2251.620473	-2.995300	3.041200	-9.108400	28.618314	0.000215	20.804286
2252.623100	-2.996600	3.040400	-9.109800	28.629711	0.000214	20.817660
2253.610457	-2.989100	3.039600	-9.083900	28.640514	0.000215	20.820480
2254.625877	-3.011500	3.038000	-9.146800	28.691925	0.000212	20.810622
2255.614044	-3.005600	3.036300	-9.125000	28.730153	0.000211	20.811669
2256.619742	-3.002400	3.035900	-9.114200	28.761239	0.000211	20.792247
2257.616704	-3.044800	3.035900	-9.241300	28.809355	0.000211	20.826490
2258.610606	-2.996300	3.033000	-9.086500	28.823592	0.000211	20.828978
2259.623235	-2.995100	3.033500	-9.084900	28.843655	0.000211	20.823110
2260.621253	-2.986000	3.030200	-9.046800	28.846778	0.000211	20.821041
2261.623034	-2.998000	3.030800	-9.084000	28.861265	0.000212	20.810505
2262.632956	-3.010300	3.029500	-9.118700	28.809392	0.000211	20.808984
2263.629786	-2.948700	3.029800	-8.932600	28.795290	0.000210	20.822279
2264.616365	-2.987000	3.027200	-9.041400	28.806513	0.000210	20.799920
2265.620847	-2.985700	3.025900	-9.033600	28.811098	0.000210	20.810228
2266.614726	-3.028100	3.023500	-9.154400	28.795614	0.000207	20.830665
2267.621258	-3.018100	3.024200	-9.126000	28.789195	0.000208	20.812346
2268.623330	-3.001500	3.022400	-9.070900	28.779334	0.000209	20.827069
2269.612107	-2.982100	3.022300	-9.011100	28.774927	0.000208	20.826897
2270.622935	-3.004900	3.021500	-9.078400	28.759069	0.000208	20.845062
2271.620284	-2.992500	3.019900	-9.036100	28.707778	0.000210	20.812365
2272.617747	-3.000100	3.017400	-9.052000	28.674306	0.000209	20.827962
2273.624488	-2.992400	3.016900	-9.025600	28.677479	0.000207	20.831632
2274.615365	-2.990400	3.015300	-9.015900	28.668809	0.000209	20.818633
2275.623709	-3.001000	3.013400	-9.041600	28.708200	0.000210	20.834600
2276.633202	-2.991600	3.015500	-9.020300	28.692078	0.000208	20.810302
2277.623786	-3.013700	3.010400	-9.071400	28.731321	0.000209	20.823750
2278.617681	-2.992300	3.010700	-9.008200	28.749930	0.000207	20.811675
2279.628458	-3.001000	3.009600	-9.030300	28.733277	0.000207	20.821454
2280.622058	-2.992800	3.008000	-9.000900	28.735686	0.000207	20.832888
2281.623581	-3.005300	3.007400	-9.037800	28.712424	0.000208	20.842174
2282.628225	-2.997700	3.005000	-9.007700	28.687896	0.000206	20.832168
2283.627614	-3.006500	3.003400	-9.027200	28.709918	0.000207	20.829693
2284.617455	-3.008900	3.004600	-9.039300	28.725403	0.000207	20.832962
2285.626355	-3.008700	3.001500	-9.028500	28.724938	0.000208	20.846718
2286.620264	-2.994000	3.000900	-8.983500	28.722982	0.000206	20.849015
2287.622933	-3.033500	2.998100	-9.093300	28.681477	0.000206	20.835185
2288.630381	-2.998900	2.998000	-8.990200	28.713738	0.000208	20.834963
2289.627443	-3.000800	2.997400	-8.993800	28.756874	0.000208	20.814403
2290.628074	-2.994400	2.996000	-8.970600	28.728130	0.000208	20.817217
2291.637090	-2.974300	2.995500	-8.908400	28.717156	0.000207	20.824656
2292.629339	-3.005400	2.992100	-8.991700	28.661510	0.000206	20.838781
2293.624431	-3.012600	2.990400	-9.007800	28.589780	0.000206	20.844298
2294.633406	-3.011100	2.988600	-8.998000	28.532140	0.000207	20.844569
2295.625090	-2.973300	2.989200	-8.886600	28.527089	0.000204	20.831897
2296.634695	-3.002800	2.988400	-8.972300	28.563091	0.000205	20.843972
2297.623215	-2.986500	2.986800	-8.919100	28.538016	0.000204	20.833892
2298.628934	-2.972800	2.984200	-8.870700	28.540443	0.000206	20.824483
2299.632603	-2.995500	2.985400	-8.942000	28.534078	0.000206	20.838461
2300.626755	-2.992800	2.982100	-8.924300	28.494155	0.000207	20.837137
2301.624902	-3.013300	2.980600	-8.980400	28.483424	0.000206	20.830124
2302.632499	-3.004500	2.978900	-8.948600	28.469329	0.000206	20.837740
2303.625180	-2.985200	2.979000	-8.890700	28.439390	0.000206	20.833196
2304.628609	-3.014400	2.977100	-8.972900	28.457356	0.000204	20.814304
2305.638616	-2.995400	2.974500	-8.908400	28.523347	0.000205	20.820068
2306.624275	-3.005300	2.974200	-8.937400	28.580046	0.000202	20.841133
2307.629749	-3.001500	2.971600	-8.917500	28.659779	0.000203	20.823288
2308.627071	-3.012100	2.971900	-8.948800	28.652198	0.000204	20.827506
2309.627266	-2.991100	2.970000	-8.882900	28.662806	0.000204	20.814009
2310.636067	-2.980600	2.968900	-8.848800	28.663026	0.000203	20.829877
2311.634415	-2.999200	2.967800	-8.899800	28.617489	0.000205	20.813886
2312.632535	-3.022100	2.964100	-8.957200	28.569737	0.000202	20.815579
2313.636386	-2.984000	2.964600	-8.846000	28.551675	0.000204	20.820622
2314.633958	-3.017900	2.961800	-8.936500	28.539428	0.000205	20.804495
2315.631349	-2.968500	2.960800	-8.787900	28.506819	0.000205	20.803424
2316.643369	-2.993500	2.958800	-8.856300	28.508653	0.000206	20.813331
2317.630362	-2.976500	2.958600	-8.804500	28.472417	0.000205	20.819040
2318.630884	-3.006000	2.956400	-8.886100	28.390768	0.000204	20.808418
2319.637805	-2.963500	2.956800	-8.761600	28.376739	0.000202	20.813258
2320.631168	-3.016000	2.952400	-8.903800	28.385631	0.000206	20.805142
2321.635450	-3.001800	2.950800	-8.856300	28.392890	0.000202	20.802968
2322.642119	-2.997400	2.949500	-8.839300	28.368055	0.000202	20.799298
2323.635451	-3.020500	2.948400	-8.904700	28.390982	0.000204	20.790141
2324.628790	-3.005400	2.947300	-8.856800	28.400724	0.000203	20.791890
2325.632864	-3.007300	2.942800	-8.848700	28.449272	0.000201	20.805690
2326.635334	-2.995700	2.943100	-8.816100	28.505003	0.000203	20.815345
2327.636235	-2.992900	2.942800	-8.806200	28.572770	0.000203	20.788762
2328.638995	-3.006100	2.941200	-8.840300	28.621953	0.000204	20.796096
2329.636212	-3.018500	2.939600	-8.872100	28.655005	0.000203	20.783392
2330.636496	-3.034400	2.935500	-8.906600	28.662188	0.000202	20.776877
2331.633668	-3.005900	2.934600	-8.820200	28.675198	0.000201	20.802309
2332.640026	-2.993700	2.935000	-8.785000	28.717535	0.000203	20.780941
2333.633845	-3.025700	2.931500	-8.868600	28.702227	0.000204	20.808670
2334.640811	-3.011000	2.929400	-8.819600	28.680346	0.000200	20.790899
2335.630804	-3.014900	2.928400	-8.827900	28.656680	0.000201	20.784605
2336.645061	-2.999500	2.927300	-8.779300	28.625860	0.000202	20.777271
2337.639019	-2.990400	2.925100	-8.746200	28.600859	0.000203	20.763471
2338.639326	-2.981500	2.925100	-8.720600	28.630243	0.000201	20.789747
2339.638042	-2.997400	2.923100	-8.760500	28.568692	0.000201	20.791293
2340.642350	-3.006700	2.922200	-8.784700	28.536873	0.000203	20.791016
2341.642526	-3.000900	2.920100	-8.762100	28.533253	0.000201	20.784051
2342.636144	-3.011100	2.916500	-8.780600	28.565170	0.000202	20.778737
2343.638447	-3.008800	2.917600	-8.777100	28.626392	0.000200	20.788239
2344.634405	-2.998800	2.915200	-8.741000	28.686631	0.000202	20.769254
2345.641635	-3.000600	2.913400	-8.740600	28.761674	0.000204	20.774667
2346.643163	-3.001700	2.910100	-8.735000	28.825090	0.000200	20.797771
2347.639486	-3.020000	2.909400	-8.785000	28.824265	0.000200	20.782241
2348.636719	-2.977700	2.908800	-8.660700	28.833930	0.000201	20.788658
2349.651697	-3.008600	2.905400	-8.739600	28.821319	0.000200	20.786385
2350.650482	-2.971200	2.906400	-8.634200	28.807443	0.000199	20.785683
2351.638413	-3.014800	2.900700	-8.743400	28.780661	0.000202	20.762024
2352.644811	-3.016800	2.900200	-8.747900	28.806257	0.000201	20.770264
2353.638011	-3.006200	2.898700	-8.713500	28.824235	0.000201	20.789797
2354.644279	-2.996200	2.896500	-8.677500	28.818611	0.000201	20.775123
2355.656726	-2.974700	2.896100	-8.613700	28.830305	0.000200	20.784058
2356.645084	-3.024300	2.893100	-8.748300	28.851755	0.000203	20.772001
2357.637244	-2.981300	2.893100	-8.624000	28.878510	0.000201	20.773349
2358.645863	-2.997500	2.890500	-8.662700	28.858338	0.000203	20.759666
2359.650484	-3.017000	2.886200	-8.706800	28.803665	0.000201	20.767653
2360.638675	-3.012000	2.886000	-8.691700	28.763111	0.000200	20.760467
2361.641928	-3.031500	2.883700	-8.741100	28.735705	0.000201	20.778854
2362.659450	-2.984600	2.882800	-8.603400	28.754289	0.000201	20.784772
2363.643901	-2.990400	2.880800	-8.613200	28.737215	0.000200	20.766625
2364.645602	-3.040200	2.875700	-8.741500	28.700491	0.000201	20.796491
2365.641520	-3.022700	2.876600	-8.694000	28.734684	0.000201	20.759334
2366.647009	-3.025200	2.873900	-8.693300	28.779952	0.000201	20.762733
2367.638946	-2.993300	2.873700	-8.601200	28.781585	0.000202	20.770067
2368.647902	-2.977200	2.871800	-8.549000	28.844334	0.000200	20.774482
2369.651048	-2.981500	2.870400	-8.557200	28.875374	0.000201	20.784415
2370.651114	-2.995800	2.867000	-8.587500	28.910551	0.000201	20.779076
2371.644788	-2.976300	2.865900	-8.529000	28.861425	0.000200	20.771785
2372.657189	-3.014900	2.863000	-8.631200	28.865264	0.000198	20.775178
2373.650023	-3.003900	2.861800	-8.595600	28.895221	0.000199	20.753200
2374.647028	-3.004800	2.858300	-8.588000	28.922238	0.000199	20.772358
2375.650789	-2.993500	2.856800	-8.550800	28.914482	0.000201	20.780665
2376.657414	-2.993900	2.855100	-8.546800	28.957860	0.000201	20.765572
2377.651598	-2.980200	2.852600	-8.500900	28.955501	0.000198	20.757505
2378.657911	-2.985200	2.852200	-8.513800	28.946284	0.000198	20.761021
2379.654905	-2.978200	2.849500	-8.485800	29.000204	0.000201	20.767456
2380.662416	-3.021100	2.845000	-8.593800	29.007171	0.000198	20.757406
2381.654155	-2.984300	2.845300	-8.490100	29.039490	0.000200	20.765788
2382.651995	-2.974600	2.843200	-8.456100	29.050088	0.000201	20.739954
2383.653867	-3.000100	2.840400	-8.520300	29.069852	0.000200	20.750386
2384.653012	-2.992500	2.837600	-8.490900	29.026185	0.000201	20.756175
2385.655890	-2.989500	2.836200	-8.478000	28.955018	0.000200	20.741371
2386.652929	-2.985400	2.835100	-8.462500	28.904678	0.000200	20.757037
2387.661342	-2.985500	2.830700	-8.450100	28.857911	0.000202	20.774409
2388.648614	-2.990400	2.829200	-8.458500	28.793695	0.000199	20.761877
2389.656099	-2.981900	2.827300	-8.428900	28.734232	0.000201	20.762198
2390.652851	-3.022300	2.824900	-8.537200	28.680616	0.000199	20.751341
2391.657666	-2.999300	2.821700	-8.462200	28.687354	0.000198	20.754808
2392.660524	-2.985100	2.820000	-8.416400	28.693871	0.000200	20.760424
2393.660609	-3.006700	2.818700	-8.474000	28.713312	0.000198	20.752979
2394.653448	-3.003800	2.815300	-8.455100	28.743861	0.000199	20.779958
2395.652082	-2.987300	2.813800	-8.404100	28.810482	0.000197	20.763140
2396.658539	-3.009400	2.809900	-8.455500	28.862251	0.000203	20.768350
2397.675274	-2.995400	2.808400	-8.412000	28.870301	0.000200	20.770770
2398.671584	-3.002200	2.805300	-8.421000	28.890350	0.000202	20.772476
2399.652271	-2.995200	2.803200	-8.395500	28.923883	0.000202	20.764532
2400.669440	-2.984000	2.801700	-8.358800	28.990413	0.000200	20.751902
2401.672499	-2.995100	2.796800	-8.375500	29.006267	0.000198	20.760763
2402.658174	-3.003700	2.795600	-8.396600	29.071063	0.000200	20.757770
2403.659283	-2.990500	2.793800	-8.353500	29.087924	0.000200	20.747733
2404.654141	-3.003800	2.790100	-8.380400	29.114429	0.000199	20.764008
2405.654202	-3.038600	2.786200	-8.465100	29.148504	0.000199	20.750455
2406.662942	-3.000900	2.784300	-8.354000	29.161313	0.000198	20.741550
2407.652036	-2.991300	2.783700	-8.325800	29.187113	0.000198	20.750953
2408.665998	-2.991500	2.781200	-8.318800	29.198430	0.000198	20.742917
2409.653572	-3.006500	2.777300	-8.349100	29.159547	0.000199	20.732658
2410.658690	-2.993300	2.775300	-8.306800	29.105733	0.000199	20.755720
2411.661875	-2.986900	2.772400	-8.279800	29.056573	0.000201	20.748386
2412.657867	-3.004500	2.768800	-8.317700	29.091591	0.000199	20.764704
2413.664793	-2.977100	2.767500	-8.237500	29.131790	0.000201	20.756373
2414.659442	-3.015600	2.764200	-8.334500	29.175252	0.000198	20.760813
2415.665507	-2.995200	2.759800	-8.265100	29.236615	0.000197	20.758165
2416.664033	-3.012800	2.758800	-8.310500	29.268291	0.000198	20.741722
2417.665265	-3.002000	2.754700	-8.268200	29.316525	0.000199	20.736753
2418.662916	-3.004800	2.751400	-8.266700	29.307757	0.000200	20.738822
2419.655999	-2.998700	2.747800	-8.238900	29.267796	0.000198	20.742646
2420.657651	-3.010100	2.743900	-8.258500	29.218021	0.000199	20.758867
2421.663202	-2.987300	2.743000	-8.193300	29.191891	0.000198	20.740596
2422.680455	-3.005100	2.738500	-8.227900	29.191073	0.000199	20.732184
2423.660333	-2.998200	2.735500	-8.200500	29.156455	0.000200	20.746138
2424.661358	-2.985700	2.732100	-8.155600	29.140254	0.000198	20.744512
2425.673340	-2.980100	2.729800	-8.133900	29.137755	0.000198	20.755270
2426.661822	-3.032000	2.725300	-8.262100	29.206527	0.000200	20.730687
2427.657898	-3.010500	2.722000	-8.193800	29.211727	0.000199	20.736402
2428.659789	-3.003700	2.719600	-8.167700	29.181014	0.000198	20.732479
2429.665996	-3.014000	2.715100	-8.182300	29.177201	0.000200	20.740491
2430.665209	-2.969700	2.714200	-8.059600	29.170070	0.000199	20.744685
2431.664121	-2.995600	2.708700	-8.112300	29.191018	0.000198	20.728809
2432.666486	-3.017100	2.706400	-8.163900	29.218730	0.000199	20.741088
2433.667806	-3.002800	2.701000	-8.109900	29.255105	0.000195	20.724640
2434.660872	-3.015100	2.696800	-8.130100	29.272984	0.000199	20.748349
2435.675299	-2.984300	2.695100	-8.042300	29.324242	0.000199	20.738367
2436.661841	-3.008000	2.690600	-8.093000	29.349293	0.000198	20.749864
2437.671874	-2.959000	2.688200	-7.954100	29.332112	0.000196	20.748195
2438.673284	-2.990200	2.684200	-8.025100	29.305765	0.000197	20.740608
2439.668092	-3.013200	2.679200	-8.071500	29.343146	0.000199	20.737505
2440.660357	-3.002100	2.676700	-8.034200	29.327896	0.000197	20.736833
2441.654901	-3.003800	2.671600	-8.024300	29.355085	0.000198	20.740054
2442.660321	-3.033300	2.667800	-8.091400	29.384173	0.000199	20.739500
2443.668435	-3.002500	2.663100	-7.994200	29.414031	0.000198	20.744464
2444.687031	-2.990500	2.660000	-7.953000	29.410909	0.000198	20.746059
2445.669870	-3.000700	2.654900	-7.966300	29.446416	0.000198	20.728742
2446.665113	-2.981600	2.652700	-7.907000	29.467530	0.000197	20.734851
2447.665568	-3.016300	2.647600	-7.984900	29.512584	0.000197	20.735695
2448.664878	-2.962300	2.644100	-7.832100	29.455794	0.000201	20.734401
2449.664322	-3.023300	2.637600	-7.973500	29.444920	0.000198	20.729604
2450.668104	-3.002600	2.634000	-7.908000	29.394157	0.000199	20.736286
2451.662111	-3.000600	2.630100	-7.891200	29.394505	0.000196	20.729998
2452.675095	-3.008200	2.624300	-7.893400	29.400175	0.000199	20.756103
2453.667833	-3.021600	2.619000	-7.912400	29.428327	0.000199	20.739907
2454.668870	-2.997800	2.616100	-7.840700	29.402179	0.000198	20.743423
2455.670093	-2.970800	2.612200	-7.758800	29.363499	0.000199	20.748535
2456.669493	-3.006700	2.605200	-7.831800	29.391676	0.000200	20.730941
2457.674195	-2.993800	2.599900	-7.780900	29.416017	0.000199	20.726550
2458.667048	-3.011400	2.594100	-7.811000	29.438072	0.000197	20.723650
2459.675354	-3.000600	2.589500	-7.768500	29.456687	0.000198	20.735775
2460.673938	-3.010100	2.583900	-7.776800	29.386545	0.000197	20.717233
2461.674021	-3.018000	2.578400	-7.780400	29.353516	0.000200	20.703857
2462.676152	-2.990600	2.573500	-7.695000	29.305473	0.000198	20.726563
2463.675928	-3.024400	2.568000	-7.765100	29.305180	0.000196	20.737647
2464.684030	-2.980200	2.563200	-7.636800	29.337813	0.000196	20.742087
2465.675045	-2.993400	2.557300	-7.654300	29.383020	0.000199	20.728854
2466.682632	-3.025600	2.549800	-7.714000	29.432965	0.000198	20.724192
2467.673715	-2.968000	2.546500	-7.556200	29.463163	0.000199	20.720017
2468.669053	-3.006700	2.538100	-7.630100	29.468343	0.000199	20.720971
2469.679802	-3.008100	2.533600	-7.620400	29.426739	0.000198	20.732616
2470.674008	-3.022400	2.527100	-7.635900	29.405008	0.000200	20.723514
2471.665792	-2.981600	2.519100	-7.510300	29.369774	0.000198	20.716451
2472.681254	-3.004200	2.514700	-7.553800	29.384895	0.000200	20.727425
2473.669691	-2.985700	2.507400	-7.485700	29.401513	0.000199	20.748917
2474.677021	-3.030500	2.501300	-7.578900	29.464819	0.000199	20.729273
2475.680302	-2.985100	2.494800	-7.445500	29.496732	0.000200	20.726354
