LabVIEW Measurement	
Writer_Version	2
Reader_Version	2
Separator	Tab
Decimal_Separator	.
Multi_Headings	No
X_Columns	One
Time_Pref	Absolute
Operator	admin
Description	Clolumns are: time, Current, Voltage, Power, Battery Temp, and Chamber Temp
Date	2024/08/16
Time	13:06:06.104549407958984375
***End_of_Header***	
	
Channels	6						
Samples	1	1	1	1	1	1	
Date	2024/09/03	2024/09/03	2024/09/03	2024/09/03	2024/09/03	2024/09/03	
Time	14:08:28.2704672813415527344	14:08:28.2754759788513183594	14:08:28.2814855575561523438	14:08:28.2552552223205566406	14:08:28.2552552223205566406	14:08:28.2552552223205566406	
X_Dimension	Time	Time	Time	Time	Time	Time	
X0	0.0000000000000000E+0	0.0000000000000000E+0	0.0000000000000000E+0	0.0000000000000000E+0	0.0000000000000000E+0	0.0000000000000000E+0	
Delta_X	1.000000	1.000000	1.000000	1.000000	1.000000	1.000000	
***End_of_Header***							
X_Value	Untitled	Untitled 1	Untitled 2	Untitled 3	Untitled 4	Untitled 5	Comment
0.000000	0.021071	4.104100	0.086402	21.006096	0.000936	20.803178
1.000261	-3.002200	3.935100	-11.813000	20.994018	0.000937	20.825710
2.002728	-2.991600	3.929000	-11.753000	20.980946	0.000937	20.799834
2.999974	-2.986200	3.924300	-11.717000	20.988853	0.000933	20.806794
4.000773	-2.989200	3.920500	-11.717000	21.030072	0.000932	20.814829
5.002818	-2.988000	3.916300	-11.699000	21.004094	0.000933	20.801174
6.000371	-2.990100	3.913600	-11.701000	20.995886	0.000932	20.806241
7.002152	-2.984600	3.911600	-11.674000	21.008608	0.000932	20.799051
8.007758	-3.002500	3.907100	-11.730000	21.007486	0.000930	20.819266
9.001582	-3.009000	3.906000	-11.751000	21.011604	0.000931	20.812954
10.002838	-3.026700	3.904100	-11.815000	21.013621	0.000931	20.788418
11.006122	-2.983200	3.901800	-11.639000	21.024075	0.000927	20.801245
12.003314	-2.991000	3.901200	-11.666000	21.026074	0.000926	20.804667
13.005154	-2.986600	3.900700	-11.649000	21.027117	0.000927	20.812823
14.006878	-2.989200	3.899000	-11.655000	21.013794	0.000927	20.802816
15.003994	-3.001400	3.897100	-11.694000	21.013394	0.000924	20.774915
16.004507	-2.966300	3.897200	-11.560000	21.032880	0.000922	20.799146
17.006887	-2.988200	3.895300	-11.638000	21.029017	0.000926	20.777265
18.005419	-3.012300	3.894200	-11.730000	21.046005	0.000924	20.814171
19.002448	-3.003700	3.893500	-11.694000	21.049147	0.000923	20.799769
20.006078	-3.010800	3.890700	-11.713000	21.036722	0.000922	20.786868
21.004895	-2.981500	3.893100	-11.606000	21.053116	0.000923	20.805162
22.004912	-3.007600	3.888700	-11.694000	21.072651	0.000919	20.790562
23.004498	-2.983900	3.889800	-11.606000	21.051467	0.000919	20.779805
24.005438	-3.001600	3.890200	-11.675000	21.074225	0.000920	20.790714
25.003968	-3.007500	3.887300	-11.690000	21.065965	0.000921	20.776762
26.004605	-3.006800	3.887200	-11.687000	21.086872	0.000919	20.803838
27.005919	-3.017600	3.885700	-11.725000	21.103138	0.000918	20.790237
28.005772	-3.019900	3.884100	-11.729000	21.094057	0.000916	20.795378
29.005569	-3.035500	3.884500	-11.790000	21.095281	0.000916	20.798499
30.006187	-3.006000	3.883900	-11.675000	21.084222	0.000917	20.789334
31.007347	-2.994500	3.884400	-11.630000	21.093487	0.000914	20.772523
32.007814	-2.989000	3.884000	-11.609000	21.113269	0.000917	20.772870
33.011744	-3.001200	3.882900	-11.652000	21.106332	0.000914	20.780630
34.008098	-2.994800	3.882700	-11.627000	21.122177	0.000914	20.760917
35.007398	-2.976800	3.882400	-11.557000	21.107807	0.000915	20.792537
36.014412	-2.991900	3.881600	-11.613000	21.136624	0.000916	20.765885
37.007970	-3.004500	3.882500	-11.663000	21.136747	0.000915	20.777863
38.008443	-2.967600	3.881500	-11.517000	21.149549	0.000915	20.794936
39.011490	-3.012100	3.880500	-11.687000	21.155860	0.000915	20.784653
40.008831	-3.004100	3.879300	-11.653000	21.164491	0.000913	20.794235
41.008886	-2.992500	3.879200	-11.608000	21.163494	0.000913	20.771426
42.010914	-2.984700	3.880100	-11.580000	21.157604	0.000912	20.768379
43.009225	-2.993100	3.878800	-11.607000	21.174297	0.000913	20.769431
44.017025	-3.004700	3.877900	-11.650000	21.185351	0.000912	20.777644
45.010868	-3.009700	3.878000	-11.671000	21.181287	0.000912	20.765043
46.009666	-3.031600	3.877400	-11.754000	21.206334	0.000912	20.770185
47.009190	-3.008300	3.876100	-11.659000	21.211548	0.000913	20.758330
48.011029	-2.991800	3.877300	-11.599000	21.227086	0.000912	20.789996
49.009029	-2.988000	3.876600	-11.582000	21.221926	0.000912	20.772032
50.008837	-3.019800	3.874700	-11.699000	21.214045	0.000912	20.766519
51.012675	-2.995400	3.875400	-11.607000	21.224547	0.000912	20.779395
52.010478	-2.990300	3.876000	-11.589000	21.224448	0.000910	20.757959
53.010877	-2.998600	3.875500	-11.620000	21.231409	0.000911	20.772510
54.021677	-3.018100	3.874500	-11.693000	21.239570	0.000911	20.761707
55.010902	-3.011500	3.872900	-11.663000	21.243736	0.000911	20.773462
56.010522	-2.987700	3.873300	-11.571000	21.264142	0.000910	20.771590
57.013611	-3.009900	3.871400	-11.651000	21.258359	0.000911	20.763434
58.013817	-3.008800	3.872200	-11.649000	21.269656	0.000911	20.760037
59.013333	-2.994400	3.873500	-11.598000	21.282403	0.000909	20.770893
60.014893	-3.015300	3.870700	-11.670000	21.285951	0.000911	20.756424
61.017006	-3.004600	3.871700	-11.631000	21.286895	0.000910	20.773016
62.017091	-3.013300	3.870000	-11.659000	21.298150	0.000908	20.756774
63.018537	-3.000800	3.869000	-11.607000	21.300573	0.000912	20.761095
64.017486	-2.982200	3.871200	-11.543000	21.320376	0.000909	20.762415
65.014081	-3.009100	3.871200	-11.648000	21.332455	0.000908	20.753636
66.016916	-3.013400	3.868300	-11.656000	21.329434	0.000907	20.771003
67.020194	-2.988500	3.869300	-11.563000	21.331132	0.000909	20.757528
68.015434	-2.989300	3.869400	-11.566000	21.327365	0.000909	20.759924
69.018877	-2.979500	3.869300	-11.528000	21.335451	0.000910	20.758056
70.019645	-2.995100	3.868700	-11.586000	21.340264	0.000907	20.756708
71.016470	-3.023100	3.867600	-11.691000	21.357251	0.000910	20.766591
72.021639	-2.998400	3.869600	-11.601000	21.363037	0.000909	20.750568
73.020287	-3.019900	3.867300	-11.678000	21.375112	0.000906	20.756485
74.018219	-2.997100	3.868000	-11.591000	21.355780	0.000909	20.765119
75.029674	-3.013200	3.866500	-11.650000	21.371222	0.000908	20.743109
76.024027	-3.009500	3.867000	-11.637000	21.387013	0.000909	20.754642
77.018899	-3.000700	3.865700	-11.599000	21.402051	0.000908	20.752143
78.022119	-3.010800	3.866000	-11.639000	21.398313	0.000908	20.750300
79.018870	-3.030200	3.865400	-11.711000	21.421909	0.000908	20.751623
80.015684	-2.999700	3.865800	-11.595000	21.410033	0.000908	20.743060
81.021984	-3.006000	3.866000	-11.620000	21.426199	0.000909	20.739319
82.021660	-2.983900	3.866100	-11.535000	21.422510	0.000909	20.745587
83.020145	-3.002700	3.866400	-11.608000	21.421661	0.000907	20.745686
84.022774	-3.011700	3.864000	-11.636000	21.427624	0.000907	20.745488
85.024117	-2.997600	3.866500	-11.590000	21.428939	0.000909	20.755338
86.019790	-2.990300	3.865800	-11.559000	21.435730	0.000906	20.746960
87.023598	-2.999900	3.864400	-11.592000	21.473167	0.000908	20.733683
88.025562	-2.983400	3.865300	-11.531000	21.466879	0.000909	20.743987
89.019531	-3.020000	3.864000	-11.668000	21.467200	0.000909	20.743835
90.018301	-3.021700	3.863500	-11.673000	21.505089	0.000911	20.729588
91.018579	-3.006000	3.863100	-11.611000	21.493490	0.000910	20.755441
92.018949	-3.004800	3.863600	-11.608000	21.480943	0.000910	20.742886
93.021033	-3.002000	3.862800	-11.595000	21.497479	0.000909	20.750423
94.020579	-2.995600	3.864000	-11.574000	21.479871	0.000909	20.754143
95.022126	-3.002100	3.861100	-11.590000	21.503763	0.000908	20.736796
96.023481	-3.005700	3.862300	-11.608000	21.491368	0.000909	20.744309
97.025486	-3.003200	3.862000	-11.597000	21.524213	0.000910	20.742561
98.021183	-2.979300	3.862200	-11.505000	21.535882	0.000908	20.738116
99.022504	-3.031700	3.861700	-11.706000	21.535285	0.000911	20.739889
100.023407	-3.005400	3.861900	-11.605000	21.527625	0.000908	20.749768
101.024159	-2.980300	3.862100	-11.509000	21.561693	0.000910	20.732649
102.025699	-2.988500	3.860900	-11.537000	21.563807	0.000909	20.728600
103.027416	-2.978900	3.862500	-11.505000	21.554111	0.000911	20.745926
104.023758	-2.992500	3.859400	-11.548000	21.556827	0.000910	20.742005
105.024048	-2.989900	3.859200	-11.537000	21.575932	0.000909	20.742631
106.029340	-3.006300	3.859600	-11.602000	21.570939	0.000910	20.749489
107.026147	-2.985300	3.860100	-11.523000	21.583881	0.000908	20.744421
108.025635	-2.991200	3.858600	-11.540000	21.597601	0.000910	20.751987
109.032331	-2.962100	3.860200	-11.433000	21.607696	0.000909	20.734113
110.026723	-3.011300	3.859800	-11.623000	21.622809	0.000910	20.736434
111.027960	-3.012700	3.857500	-11.620000	21.631090	0.000911	20.727652
112.031303	-3.003000	3.858300	-11.585000	21.647748	0.000909	20.740055
113.026494	-3.001800	3.857800	-11.578000	21.619916	0.000908	20.722160
114.027879	-3.019200	3.857100	-11.644000	21.626398	0.000910	20.729594
115.032686	-2.997200	3.856400	-11.557000	21.640212	0.000910	20.734410
116.030277	-3.006500	3.857100	-11.595000	21.648992	0.000907	20.747938
117.030907	-3.005100	3.857400	-11.591000	21.664026	0.000913	20.733111
118.032534	-2.995000	3.858200	-11.554000	21.664479	0.000909	20.749212
119.029853	-3.016800	3.856700	-11.634000	21.665130	0.000911	20.746070
120.029199	-3.023800	3.854500	-11.653000	21.695993	0.000912	20.728592
121.032030	-2.966900	3.857600	-11.445000	21.685025	0.000911	20.724728
122.031803	-2.989900	3.857000	-11.531000	21.703676	0.000910	20.734385
123.035059	-2.998300	3.855700	-11.559000	21.697117	0.000911	20.715492
124.032042	-2.996000	3.856400	-11.554000	21.724497	0.000911	20.708755
125.033157	-3.000000	3.856000	-11.568000	21.719784	0.000910	20.715418
126.030971	-3.007000	3.854600	-11.590000	21.708191	0.000910	20.730369
127.031350	-3.017300	3.854400	-11.629000	21.721506	0.000909	20.720461
128.032803	-2.995300	3.854400	-11.543000	21.729112	0.000913	20.730443
129.033789	-3.002200	3.855600	-11.574000	21.735242	0.000911	20.717138
130.035803	-2.990800	3.855400	-11.529000	21.757640	0.000913	20.723908
131.035285	-3.012900	3.855200	-11.613000	21.743205	0.000912	20.717995
132.032099	-2.998900	3.855300	-11.561000	21.725601	0.000913	20.728352
133.035306	-3.008800	3.852900	-11.590000	21.727093	0.000914	20.717043
134.035424	-2.998700	3.853400	-11.554000	21.730788	0.000913	20.721689
135.033108	-2.979900	3.854300	-11.485000	21.754126	0.000911	20.701423
136.040125	-3.000200	3.854900	-11.564000	21.752082	0.000913	20.719293
137.035081	-2.974300	3.854200	-11.462000	21.765620	0.000914	20.719566
138.034092	-3.005900	3.854100	-11.584000	21.765443	0.000914	20.728398
139.038262	-2.989400	3.852700	-11.516000	21.779210	0.000914	20.699027
140.036762	-2.990500	3.852400	-11.520000	21.769488	0.000915	20.710160
141.032156	-2.984900	3.853600	-11.501000	21.791828	0.000915	20.714976
142.035581	-3.007800	3.852100	-11.585000	21.770007	0.000915	20.686496
143.035769	-3.000100	3.852200	-11.556000	21.804566	0.000914	20.704491
144.036537	-3.010800	3.852100	-11.598000	21.807338	0.000915	20.704894
145.035644	-3.009600	3.851000	-11.589000	21.799610	0.000915	20.695262
146.037858	-3.006900	3.851300	-11.580000	21.819602	0.000916	20.711954
147.037611	-2.991000	3.851300	-11.518000	21.806292	0.000917	20.692466
148.037659	-2.995000	3.851000	-11.532000	21.816487	0.000917	20.707888
149.038510	-2.995300	3.850300	-11.531000	21.818856	0.000916	20.712630
150.038087	-2.997300	3.851500	-11.544000	21.831495	0.000917	20.707262
151.038915	-3.009400	3.848600	-11.581000	21.846357	0.000916	20.715500
152.038028	-3.012200	3.850800	-11.598000	21.858451	0.000918	20.702474
153.038039	-3.000300	3.850300	-11.551000	21.869442	0.000917	20.720114
154.039939	-3.023900	3.848400	-11.636000	21.890833	0.000916	20.696953
155.040130	-2.999600	3.848500	-11.543000	21.906189	0.000919	20.700945
156.039193	-3.014900	3.849600	-11.605000	21.894177	0.000918	20.715949
157.040713	-3.015400	3.847600	-11.600000	21.893725	0.000919	20.688467
158.042930	-2.996500	3.848500	-11.531000	21.917887	0.000919	20.713603
159.039335	-3.009000	3.847400	-11.575000	21.934417	0.000920	20.702173
160.038179	-2.986900	3.849600	-11.497000	21.937708	0.000920	20.707839
161.040781	-2.997000	3.848100	-11.532000	21.979066	0.000921	20.703245
162.040545	-2.995900	3.848900	-11.529000	21.971985	0.000921	20.703270
163.040280	-2.990500	3.848500	-11.508000	21.975803	0.000921	20.713257
164.039783	-2.990000	3.846400	-11.500000	21.984074	0.000921	20.714424
165.039754	-2.993900	3.847300	-11.517000	21.990833	0.000921	20.706016
166.041122	-2.996200	3.846900	-11.524000	21.982456	0.000922	20.716597
167.043159	-3.009200	3.846000	-11.572000	22.011377	0.000921	20.702400
168.041856	-3.004800	3.845600	-11.553000	22.011777	0.000923	20.705171
169.041709	-3.017600	3.845900	-11.604000	22.008684	0.000923	20.705868
170.042036	-3.011500	3.845500	-11.579000	22.009260	0.000924	20.717351
171.042340	-2.986300	3.846000	-11.484000	22.027959	0.000924	20.693394
172.042974	-2.980200	3.846600	-11.463000	22.032893	0.000924	20.701179
173.043770	-2.981300	3.845600	-11.463000	22.035516	0.000926	20.712815
174.043248	-3.012700	3.845500	-11.585000	22.017617	0.000924	20.703430
175.043013	-3.010200	3.844200	-11.570000	22.035166	0.000924	20.710568
176.045234	-3.006200	3.844500	-11.556000	22.022307	0.000925	20.705281
177.049549	-3.006400	3.845100	-11.559000	22.040451	0.000926	20.709693
178.045391	-2.999700	3.844000	-11.529000	22.056385	0.000926	20.687711
179.047055	-2.982400	3.846000	-11.469000	22.033378	0.000925	20.708303
180.049644	-3.007500	3.842900	-11.556000	22.052151	0.000927	20.709553
181.045208	-2.981800	3.844300	-11.462000	22.055392	0.000926	20.706633
182.047605	-3.014600	3.843700	-11.586000	22.053893	0.000929	20.695174
183.045549	-3.000800	3.842500	-11.529000	22.034131	0.000928	20.691038
184.046882	-2.987300	3.844000	-11.482000	22.047093	0.000928	20.680305
185.047077	-3.000000	3.843600	-11.530000	22.041858	0.000929	20.702093
186.047462	-2.995600	3.843600	-11.511000	22.038472	0.000929	20.688745
187.046641	-2.997300	3.842600	-11.517000	22.057018	0.000929	20.692613
188.047637	-3.020100	3.842200	-11.602000	22.053233	0.000931	20.680762
189.048800	-2.993100	3.842200	-11.499000	22.070358	0.000931	20.710236
190.048142	-3.005600	3.840800	-11.543000	22.074670	0.000931	20.706018
191.050214	-3.009100	3.841900	-11.559000	22.079431	0.000932	20.685178
192.047769	-3.014200	3.839400	-11.572000	22.093743	0.000933	20.690023
193.048206	-3.030400	3.840100	-11.635000	22.085765	0.000930	20.695313
194.049426	-2.998900	3.842000	-11.521000	22.111690	0.000933	20.712261
195.048662	-3.012900	3.840000	-11.568000	22.107803	0.000933	20.686555
196.048910	-3.001400	3.840400	-11.526000	22.126747	0.000932	20.698410
197.047641	-2.985200	3.841100	-11.465000	22.125503	0.000933	20.695268
198.048608	-2.996200	3.840400	-11.504000	22.125750	0.000933	20.677022
199.049850	-2.988000	3.841200	-11.477000	22.138690	0.000935	20.701832
200.051207	-3.011300	3.838500	-11.557000	22.162094	0.000935	20.723369
201.049446	-2.999600	3.839700	-11.516000	22.148635	0.000934	20.709893
202.052426	-3.001400	3.839900	-11.524000	22.181260	0.000937	20.692769
203.052143	-3.016000	3.839000	-11.577000	22.188067	0.000936	20.707646
204.050869	-2.984600	3.839700	-11.458000	22.215431	0.000939	20.709914
205.050657	-3.005500	3.838600	-11.535000	22.214587	0.000937	20.688679
206.051131	-3.026400	3.837000	-11.612000	22.222910	0.000937	20.699383
207.050951	-3.000700	3.837100	-11.513000	22.210144	0.000937	20.681385
208.051189	-2.999500	3.837200	-11.509000	22.226875	0.000939	20.682015
209.052073	-2.997500	3.837400	-11.502000	22.219298	0.000937	20.693870
210.051920	-2.987300	3.838300	-11.465000	22.208904	0.000941	20.700059
211.053073	-2.987600	3.838300	-11.467000	22.194195	0.000941	20.708092
212.053061	-2.991400	3.837800	-11.479000	22.215555	0.000942	20.701977
213.051407	-3.024600	3.836400	-11.601000	22.218895	0.000941	20.700105
214.051639	-2.990400	3.836800	-11.472000	22.224129	0.000943	20.697759
215.051590	-2.995600	3.837300	-11.494000	22.238558	0.000942	20.710310
216.052017	-3.019100	3.837100	-11.584000	22.270335	0.000944	20.708937
217.051741	-3.022700	3.835400	-11.592000	22.297101	0.000944	20.702546
218.054145	-3.012500	3.835600	-11.553000	22.271526	0.000945	20.704913
219.052704	-3.001800	3.836600	-11.516000	22.284584	0.000944	20.704237
220.053567	-3.000600	3.836100	-11.509000	22.312423	0.000945	20.703190
221.056312	-3.010200	3.835600	-11.544000	22.321470	0.000947	20.701343
222.053326	-3.004600	3.834900	-11.521000	22.313091	0.000946	20.706704
223.053145	-3.001800	3.836100	-11.514000	22.319844	0.000948	20.713466
224.053361	-3.016800	3.834200	-11.566000	22.320367	0.000947	20.714464
225.055635	-3.022100	3.833400	-11.584000	22.323854	0.000949	20.718905
226.053061	-3.019700	3.834100	-11.576000	22.313882	0.000950	20.709867
227.052842	-2.998000	3.833700	-11.493000	22.318383	0.000950	20.720539
228.054353	-3.008400	3.834600	-11.534000	22.308563	0.000953	20.704066
229.053537	-2.997600	3.833900	-11.491000	22.331836	0.000952	20.694653
230.055217	-2.995500	3.834800	-11.486000	22.317025	0.000951	20.731034
231.054609	-3.004800	3.833300	-11.516000	22.345659	0.000952	20.721299
232.052980	-2.994900	3.833900	-11.481000	22.377702	0.000953	20.704546
233.056015	-3.005300	3.833400	-11.520000	22.377126	0.000953	20.721040
234.056711	-3.011900	3.832400	-11.542000	22.382882	0.000954	20.697879
235.057672	-2.998500	3.834300	-11.495000	22.385069	0.000955	20.726624
236.058386	-2.995800	3.832800	-11.482000	22.413273	0.000953	20.725944
237.057195	-3.015300	3.832300	-11.554000	22.410601	0.000954	20.709517
238.059224	-3.012000	3.831100	-11.538000	22.402598	0.000955	20.709089
239.057863	-3.022400	3.831600	-11.580000	22.396163	0.000954	20.727776
240.058357	-3.002400	3.830900	-11.501000	22.414576	0.000955	20.728671
241.058909	-2.979400	3.832200	-11.415000	22.407795	0.000954	20.724726
242.058403	-3.008100	3.830500	-11.520000	22.403357	0.000956	20.728816
243.060674	-3.002800	3.829500	-11.497000	22.387703	0.000957	20.723572
244.057662	-3.010500	3.829700	-11.528000	22.401505	0.000957	20.740239
245.057913	-2.977400	3.830100	-11.403000	22.404972	0.000956	20.711466
246.059331	-2.983400	3.829100	-11.422000	22.415755	0.000957	20.714679
247.058781	-2.983900	3.830000	-11.427000	22.428013	0.000957	20.728851
248.058547	-3.000900	3.829300	-11.489000	22.431122	0.000958	20.731016
249.060188	-2.988300	3.829800	-11.443000	22.440192	0.000957	20.722081
250.059242	-2.979800	3.829500	-11.409000	22.417811	0.000957	20.737127
251.059267	-2.998000	3.829300	-11.479000	22.425062	0.000958	20.748182
252.060982	-2.981100	3.830300	-11.418000	22.422041	0.000959	20.742785
253.060104	-3.018400	3.827500	-11.552000	22.438390	0.000959	20.739243
254.060168	-2.987900	3.828300	-11.437000	22.428768	0.000961	20.741936
255.061366	-2.992400	3.828300	-11.455000	22.448202	0.000959	20.747173
256.061018	-3.000200	3.826900	-11.481000	22.479447	0.000960	20.742428
257.059759	-3.000500	3.828200	-11.485000	22.489393	0.000962	20.747173
258.060659	-3.026300	3.828100	-11.584000	22.500756	0.000962	20.737216
259.063745	-3.001800	3.826300	-11.485000	22.494919	0.000962	20.723308
260.065532	-3.004700	3.827800	-11.500000	22.508423	0.000964	20.743946
261.062722	-2.994300	3.825500	-11.454000	22.524721	0.000962	20.745570
262.061994	-2.983900	3.826700	-11.417000	22.545775	0.000962	20.729197
263.060584	-2.997600	3.825800	-11.467000	22.548887	0.000964	20.742746
264.062821	-2.992500	3.825200	-11.445000	22.549657	0.000965	20.732137
265.063046	-3.005400	3.825200	-11.495000	22.565828	0.000963	20.752127
266.064173	-3.012200	3.825100	-11.520000	22.575300	0.000965	20.751182
267.062582	-2.990200	3.825100	-11.436000	22.561221	0.000965	20.752254
268.066254	-2.984400	3.825100	-11.415000	22.565132	0.000967	20.729618
269.064157	-3.010700	3.825500	-11.516000	22.584419	0.000967	20.738977
270.065221	-2.993800	3.825100	-11.449000	22.588330	0.000968	20.754275
271.064010	-2.994800	3.825700	-11.455000	22.601910	0.000970	20.747488
272.066214	-3.001100	3.825000	-11.477000	22.584072	0.000969	20.741950
273.065747	-2.976200	3.825000	-11.382000	22.606817	0.000969	20.768999
274.066707	-3.020700	3.823000	-11.547000	22.602560	0.000968	20.741501
275.066039	-2.995600	3.823700	-11.453000	22.625230	0.000969	20.748560
276.067849	-3.003400	3.822000	-11.478000	22.600136	0.000970	20.750453
277.067290	-3.011000	3.821900	-11.507000	22.636316	0.000971	20.758716
278.066902	-3.009000	3.823400	-11.504000	22.629166	0.000970	20.766253
279.066021	-2.992300	3.821800	-11.434000	22.635242	0.000971	20.754795
280.067714	-3.009200	3.820700	-11.496000	22.610004	0.000972	20.754172
281.067515	-2.995000	3.822900	-11.449000	22.594353	0.000971	20.765998
282.071269	-2.992700	3.822400	-11.438000	22.612244	0.000973	20.770641
283.070539	-2.991000	3.822900	-11.433000	22.616953	0.000972	20.761607
284.072269	-3.009700	3.821300	-11.498000	22.578706	0.000974	20.760283
285.074044	-2.991800	3.820000	-11.428000	22.601327	0.000974	20.754965
286.074311	-2.983300	3.822200	-11.401000	22.616854	0.000974	20.761982
287.073144	-3.011800	3.820100	-11.504000	22.621584	0.000974	20.767668
288.073123	-2.987800	3.820800	-11.414000	22.670467	0.000977	20.756412
289.073418	-3.003300	3.821400	-11.476000	22.670145	0.000976	20.743761
290.073957	-2.995300	3.820100	-11.442000	22.713543	0.000977	20.760205
291.073696	-3.011900	3.821300	-11.509000	22.705373	0.000977	20.754391
292.073575	-3.001400	3.819500	-11.463000	22.704578	0.000979	20.771139
293.072209	-3.036200	3.819000	-11.594000	22.715762	0.000979	20.766221
294.072202	-3.021200	3.817700	-11.533000	22.747999	0.000979	20.763900
295.071913	-3.020700	3.817700	-11.530000	22.718153	0.000980	20.774306
296.073062	-3.008600	3.818100	-11.486000	22.714667	0.000980	20.772236
297.073153	-2.998000	3.818000	-11.446000	22.736091	0.000981	20.767619
298.074798	-2.998400	3.819400	-11.450000	22.737833	0.000982	20.768889
299.073349	-3.002600	3.817500	-11.462000	22.732580	0.000983	20.748928
300.074452	-2.998200	3.818100	-11.446000	22.745187	0.000982	20.776256
301.073184	-2.999500	3.818100	-11.451000	22.742722	0.000983	20.758139
302.073393	-3.015400	3.816800	-11.508000	22.782828	0.000983	20.761331
303.073909	-2.985700	3.817900	-11.398000	22.789229	0.000985	20.768691
304.074869	-2.988100	3.815800	-11.401000	22.775873	0.000983	20.788029
305.072936	-3.010900	3.817100	-11.492000	22.810302	0.000986	20.784586
306.077449	-2.990200	3.817700	-11.415000	22.810553	0.000986	20.764922
307.074828	-2.992700	3.816500	-11.421000	22.795008	0.000987	20.760255
308.075566	-2.974000	3.816900	-11.349000	22.789928	0.000986	20.775556
309.076309	-3.002800	3.816300	-11.458000	22.779087	0.000986	20.786507
310.081742	-2.993200	3.815600	-11.419000	22.781656	0.000984	20.775803
311.074353	-3.012400	3.815800	-11.493000	22.765241	0.000988	20.783542
312.076754	-2.991200	3.815000	-11.411000	22.789525	0.000990	20.780368
313.079261	-2.983900	3.814900	-11.382000	22.775033	0.000988	20.779126
314.075861	-2.988500	3.815100	-11.401000	22.805898	0.000989	20.774009
315.080766	-3.024400	3.812300	-11.528000	22.810776	0.000990	20.776525
316.082135	-3.006300	3.813400	-11.463000	22.840997	0.000989	20.776454
317.077405	-3.015900	3.813200	-11.497000	22.841569	0.000990	20.764225
318.080771	-2.992000	3.814800	-11.413000	22.851480	0.000991	20.785534
319.077728	-3.019400	3.811900	-11.508000	22.842985	0.000991	20.771334
320.078355	-3.000100	3.813000	-11.439000	22.867050	0.000993	20.774105
321.082353	-2.997900	3.812500	-11.429000	22.850809	0.000993	20.775379
322.079046	-3.011700	3.811000	-11.476000	22.875841	0.000993	20.789550
323.083592	-2.989400	3.812200	-11.394000	22.912036	0.000994	20.774129
324.081332	-2.999600	3.812700	-11.436000	22.885285	0.000995	20.794745
325.079819	-2.992200	3.811100	-11.403000	22.877462	0.000995	20.794968
326.079053	-3.011800	3.811000	-11.475000	22.871927	0.000994	20.815027
327.083781	-3.000400	3.811300	-11.434000	22.865577	0.000994	20.783535
328.081113	-2.980000	3.811800	-11.358000	22.894818	0.000995	20.794338
329.081525	-3.003600	3.811600	-11.447000	22.878454	0.000995	20.791220
330.082414	-3.025000	3.809700	-11.523000	22.893225	0.000996	20.778991
331.081869	-3.013000	3.810800	-11.480000	22.902168	0.000998	20.791270
332.089414	-3.011300	3.809200	-11.469000	22.918807	0.000997	20.811258
333.083816	-2.996300	3.809500	-11.413000	22.928350	0.000997	20.807069
334.082526	-3.011900	3.810000	-11.474000	22.959507	0.000998	20.802724
335.083332	-3.007800	3.808800	-11.455000	22.946182	0.000997	20.790796
336.087066	-2.992000	3.808800	-11.395000	22.950745	0.001000	20.780669
337.083136	-3.009700	3.808300	-11.461000	22.936145	0.000998	20.792119
338.086454	-2.991500	3.808700	-11.392000	22.934827	0.000999	20.793644
339.087661	-3.005600	3.807900	-11.442000	22.936890	0.000999	20.822263
340.085673	-2.983000	3.809200	-11.362000	22.920304	0.001000	20.798060
341.087913	-2.967600	3.809000	-11.301000	22.935301	0.001002	20.800757
342.086491	-2.987000	3.808500	-11.375000	22.923218	0.001002	20.786281
343.085491	-3.011900	3.807500	-11.467000	22.940757	0.001001	20.798163
344.086195	-3.020900	3.805800	-11.495000	22.977247	0.001001	20.810540
345.085434	-3.006700	3.806700	-11.444000	22.966808	0.001003	20.799132
346.087590	-3.028300	3.807200	-11.528000	22.996424	0.001004	20.790399
347.085070	-3.001100	3.805700	-11.421000	23.004494	0.001004	20.789476
348.087049	-2.997900	3.806300	-11.410000	23.025864	0.001004	20.808042
349.086840	-3.007400	3.806700	-11.447000	23.028979	0.001003	20.810215
350.086060	-3.001300	3.805500	-11.420000	23.036427	0.001003	20.796815
351.090787	-2.989200	3.806100	-11.376000	23.044196	0.001004	20.808867
352.088122	-3.026200	3.806000	-11.517000	23.051121	0.001004	20.806322
353.092078	-2.998500	3.804700	-11.407000	23.050849	0.001004	20.823119
354.090924	-3.005400	3.804100	-11.432000	23.032316	0.001005	20.814507
355.091083	-3.005900	3.804800	-11.436000	23.052619	0.001006	20.802133
356.092177	-2.975200	3.804700	-11.319000	23.023328	0.001008	20.800286
357.089088	-2.984500	3.804000	-11.352000	23.006514	0.001007	20.812363
358.089990	-2.992800	3.803700	-11.382000	23.025818	0.001009	20.797091
359.088309	-2.980400	3.804600	-11.338000	23.009534	0.001008	20.822974
360.091564	-3.017400	3.802800	-11.474000	22.997477	0.001009	20.791928
361.090013	-3.001700	3.802700	-11.413000	23.022509	0.001007	20.812267
362.090728	-2.977700	3.804500	-11.327000	23.042533	0.001008	20.797717
363.089763	-3.005800	3.801400	-11.425000	23.057231	0.001008	20.816237
364.094422	-3.000500	3.801700	-11.406000	23.059519	0.001011	20.825168
365.091817	-2.993800	3.800400	-11.377000	23.066695	0.001010	20.817660
366.091860	-3.017000	3.801000	-11.467000	23.048367	0.001013	20.814468
367.092071	-3.003400	3.800700	-11.413000	23.076209	0.001011	20.806330
368.096125	-2.990500	3.800400	-11.364000	23.091499	0.001015	20.810746
369.096516	-3.015600	3.800700	-11.461000	23.099466	0.001014	20.810668
370.094846	-3.006400	3.799900	-11.423000	23.098498	0.001014	20.797370
371.094415	-3.007000	3.800200	-11.425000	23.115381	0.001015	20.819029
372.095862	-3.014800	3.800000	-11.454000	23.097849	0.001018	20.816634
373.094024	-3.006600	3.799500	-11.423000	23.091344	0.001016	20.806797
374.094507	-3.005200	3.799500	-11.417000	23.080683	0.001017	20.831201
375.097071	-3.018400	3.797800	-11.463000	23.084867	0.001017	20.805523
376.095097	-3.010400	3.798200	-11.433000	23.060953	0.001016	20.819966
377.096402	-2.995600	3.797900	-11.375000	23.086682	0.001018	20.813980
378.096407	-3.006800	3.797600	-11.418000	23.102570	0.001018	20.820416
379.094142	-3.025700	3.796700	-11.486000	23.134690	0.001018	20.830790
380.096113	-2.973900	3.798400	-11.295000	23.160110	0.001019	20.827340
381.099218	-2.992000	3.798300	-11.362000	23.172137	0.001020	20.833228
382.096140	-2.984900	3.797000	-11.333000	23.173730	0.001020	20.838617
383.097525	-3.000000	3.797700	-11.392000	23.178479	0.001022	20.824410
384.101106	-2.991500	3.798500	-11.362000	23.191703	0.001022	20.814428
385.097516	-3.015800	3.796900	-11.450000	23.185244	0.001022	20.833086
386.097941	-2.987500	3.797900	-11.344000	23.186339	0.001023	20.847933
387.104097	-3.008400	3.796400	-11.419000	23.216737	0.001021	20.828136
388.098182	-3.002600	3.796800	-11.399000	23.196187	0.001020	20.823663
389.098515	-3.008600	3.795600	-11.418000	23.201836	0.001024	20.832170
390.100621	-3.008900	3.795700	-11.420000	23.241528	0.001023	20.840651
391.099767	-3.011600	3.794000	-11.425000	23.225434	0.001024	20.838273
392.098678	-3.023200	3.793300	-11.467000	23.236090	0.001023	20.856538
393.099738	-3.001400	3.795300	-11.389000	23.248409	0.001023	20.838064
394.101071	-3.010200	3.793200	-11.416000	23.250994	0.001024	20.849663
395.100419	-2.978300	3.796100	-11.303000	23.263962	0.001023	20.841323
396.100341	-2.993800	3.793800	-11.357000	23.262614	0.001024	20.845661
397.102513	-3.002800	3.793100	-11.389000	23.280063	0.001023	20.854613
398.104613	-3.032400	3.792100	-11.498000	23.274929	0.001023	20.841408
399.101168	-3.016200	3.792400	-11.438000	23.296562	0.001026	20.851234
400.107386	-3.001600	3.792900	-11.384000	23.282990	0.001024	20.838107
401.103266	-3.010000	3.791700	-11.412000	23.301911	0.001026	20.873189
402.104350	-3.022400	3.791300	-11.458000	23.290179	0.001022	20.861432
403.103612	-3.003900	3.791200	-11.387000	23.287460	0.001024	20.864397
404.104880	-2.998900	3.791400	-11.369000	23.284240	0.001025	20.869230
405.104238	-2.999300	3.790700	-11.368000	23.263472	0.001024	20.865487
406.103697	-2.993300	3.790300	-11.345000	23.273652	0.001026	20.853878
407.104578	-2.998400	3.789800	-11.363000	23.287792	0.001023	20.874212
408.105964	-2.990000	3.790400	-11.333000	23.292146	0.001025	20.875256
409.106435	-2.987800	3.789400	-11.322000	23.288608	0.001025	20.875504
410.109042	-2.995800	3.791000	-11.354000	23.295550	0.001028	20.860176
411.106053	-3.008600	3.787900	-11.395000	23.299956	0.001027	20.868385
412.107309	-3.019100	3.787800	-11.434000	23.339467	0.001025	20.860095
413.107639	-3.014600	3.788000	-11.418000	23.333811	0.001026	20.883823
414.110116	-3.010900	3.787300	-11.402000	23.343845	0.001027	20.864009
415.108958	-2.991800	3.788300	-11.333000	23.371454	0.001028	20.876506
416.111210	-2.986300	3.788800	-11.313000	23.384898	0.001028	20.870540
417.109074	-3.004500	3.787300	-11.378000	23.399115	0.001028	20.883367
418.115413	-3.000600	3.786800	-11.362000	23.406479	0.001029	20.890747
419.115959	-3.006500	3.786800	-11.384000	23.404061	0.001027	20.868411
420.109451	-2.991600	3.787900	-11.330000	23.392481	0.001028	20.878141
421.113877	-3.002500	3.786900	-11.369000	23.367529	0.001028	20.897226
422.114813	-3.009500	3.786500	-11.394000	23.359334	0.001030	20.878109
423.111616	-3.008300	3.786500	-11.390000	23.350173	0.001029	20.890737
424.117045	-2.990500	3.787500	-11.325000	23.333586	0.001030	20.883123
425.117339	-3.005900	3.786000	-11.380000	23.357986	0.001030	20.876758
426.113163	-3.006000	3.785400	-11.378000	23.347525	0.001032	20.874809
427.117174	-3.017000	3.784900	-11.418000	23.362865	0.001029	20.880225
428.117292	-3.013800	3.785800	-11.408000	23.372722	0.001031	20.864976
429.113013	-3.008100	3.785000	-11.384000	23.351780	0.001030	20.877176
430.114315	-3.006100	3.784500	-11.376000	23.331161	0.001030	20.881641
431.117139	-3.021300	3.783800	-11.431000	23.329294	0.001031	20.884036
432.112974	-3.004600	3.784200	-11.369000	23.321025	0.001031	20.861526
433.115572	-2.998800	3.783700	-11.345000	23.347766	0.001030	20.876946
434.117027	-2.994600	3.783300	-11.328000	23.333425	0.001031	20.874901
435.113847	-2.987900	3.784400	-11.306000	23.336733	0.001032	20.874898
436.118447	-3.003000	3.782300	-11.357000	23.341192	0.001031	20.854238
437.116784	-2.992600	3.782200	-11.317000	23.338251	0.001032	20.877841
438.114237	-2.998300	3.781800	-11.337000	23.340267	0.001032	20.871802
439.119537	-2.984500	3.782300	-11.287000	23.338399	0.001033	20.878938
440.120977	-3.002600	3.782400	-11.355000	23.311235	0.001034	20.874947
441.117795	-3.017500	3.781100	-11.409000	23.322039	0.001032	20.867283
442.120577	-2.995300	3.781900	-11.326000	23.304110	0.001034	20.862592
443.117208	-2.999200	3.780500	-11.338000	23.294521	0.001035	20.870525
444.117996	-2.999900	3.780700	-11.340000	23.302069	0.001036	20.855805
445.121468	-2.995800	3.779300	-11.321000	23.322886	0.001035	20.854857
446.116681	-2.988400	3.780400	-11.296000	23.363968	0.001036	20.853357
447.119065	-3.013900	3.779300	-11.389000	23.358337	0.001035	20.869998
448.119648	-2.991100	3.779600	-11.304000	23.337595	0.001037	20.868650
449.119491	-2.993800	3.779700	-11.315000	23.375191	0.001036	20.858916
450.118553	-2.994800	3.778300	-11.314000	23.355643	0.001037	20.857342
451.119432	-3.026100	3.777900	-11.431000	23.387114	0.001035	20.851426
452.118310	-3.011200	3.777600	-11.373000	23.391022	0.001038	20.869092
453.120950	-3.019500	3.777200	-11.405000	23.411759	0.001035	20.860006
454.118922	-3.000700	3.778000	-11.336000	23.386383	0.001039	20.861599
455.119671	-3.007200	3.776700	-11.356000	23.417009	0.001036	20.868113
456.118955	-3.005700	3.777600	-11.353000	23.408939	0.001036	20.858128
457.119517	-3.001300	3.776700	-11.334000	23.424698	0.001037	20.851165
458.121312	-3.025300	3.775400	-11.420000	23.406694	0.001037	20.844499
459.121853	-3.020800	3.775100	-11.403000	23.450360	0.001038	20.857920
460.120090	-3.014300	3.776100	-11.381000	23.449862	0.001038	20.837033
461.120751	-2.992800	3.775800	-11.299000	23.431936	0.001039	20.852255
462.125900	-2.994600	3.775400	-11.304000	23.470846	0.001039	20.847634
463.121174	-3.007200	3.774900	-11.350000	23.486558	0.001038	20.859590
464.120071	-3.005300	3.773100	-11.338000	23.489195	0.001040	20.854647
465.120974	-3.000400	3.775700	-11.328000	23.510556	0.001038	20.850454
466.122334	-3.003000	3.773000	-11.328000	23.515184	0.001041	20.839447
467.121054	-3.001200	3.772600	-11.322000	23.548517	0.001039	20.853419
468.120232	-3.023700	3.771500	-11.402000	23.570127	0.001041	20.854219
469.121006	-3.005700	3.773300	-11.341000	23.581154	0.001040	20.852945
470.122248	-2.999200	3.773600	-11.316000	23.579781	0.001041	20.854888
471.120922	-3.001400	3.772600	-11.322000	23.569650	0.001039	20.829087
472.122984	-3.007400	3.771900	-11.343000	23.570473	0.001041	20.841764
473.125003	-3.007900	3.772700	-11.347000	23.543632	0.001041	20.814859
474.122400	-2.996700	3.771800	-11.301000	23.528697	0.001042	20.844457
475.133138	-3.008400	3.773700	-11.351000	23.533600	0.001041	20.833251
476.127192	-2.988300	3.772600	-11.273000	23.512290	0.001041	20.855037
477.124150	-3.004400	3.771300	-11.329000	23.556326	0.001044	20.853661
478.125137	-2.994800	3.771500	-11.294000	23.577487	0.001043	20.856382
479.128929	-2.987400	3.770100	-11.262000	23.583611	0.001042	20.832176
480.123833	-2.990300	3.771000	-11.276000	23.605245	0.001044	20.839164
481.123933	-3.006200	3.768400	-11.327000	23.629391	0.001043	20.843930
482.126897	-3.024900	3.768300	-11.398000	23.625777	0.001044	20.848842
483.125048	-2.997500	3.769800	-11.299000	23.629861	0.001043	20.842505
484.125420	-2.996100	3.768800	-11.290000	23.627246	0.001046	20.846047
485.127883	-3.004700	3.769600	-11.326000	23.626748	0.001042	20.848867
486.126237	-3.004700	3.768100	-11.320000	23.639938	0.001043	20.839805
487.125655	-3.008200	3.767600	-11.333000	23.624503	0.001044	20.852306
488.129311	-3.017800	3.766200	-11.365000	23.588232	0.001042	20.812627
489.126354	-2.994100	3.767400	-11.278000	23.622537	0.001043	20.835637
490.126985	-3.000000	3.767200	-11.300000	23.603643	0.001045	20.840877
491.130706	-2.993100	3.765900	-11.270000	23.607173	0.001042	20.839201
492.127882	-3.000400	3.765600	-11.297000	23.609714	0.001046	20.826576
493.126851	-2.997300	3.765600	-11.285000	23.601201	0.001044	20.841748
494.130129	-3.004600	3.765300	-11.312000	23.581756	0.001043	20.830790
495.125802	-3.021100	3.765600	-11.376000	23.614120	0.001045	20.850431
496.129601	-3.005600	3.764100	-11.313000	23.610209	0.001045	20.838925
497.138521	-3.012200	3.764300	-11.338000	23.616685	0.001045	20.819814
498.129454	-2.993800	3.763800	-11.266000	23.647153	0.001042	20.824753
499.127070	-2.992400	3.764600	-11.263000	23.667265	0.001043	20.825001
500.129647	-3.022500	3.763300	-11.372000	23.662140	0.001041	20.836458
501.131175	-3.008800	3.764600	-11.325000	23.687802	0.001044	20.825203
502.131336	-2.976600	3.764400	-11.204000	23.675234	0.001044	20.816870
503.135050	-3.007100	3.762000	-11.312000	23.678721	0.001044	20.817995
504.130183	-2.981000	3.762800	-11.216000	23.717100	0.001043	20.819962
505.130656	-2.979700	3.762000	-11.208000	23.705481	0.001044	20.827753
506.139185	-2.986000	3.761800	-11.231000	23.693435	0.001044	20.800504
507.131747	-2.999200	3.761300	-11.280000	23.701524	0.001045	20.798657
508.129775	-3.024800	3.760100	-11.372000	23.715240	0.001045	20.840856
509.133406	-3.009900	3.760900	-11.319000	23.713524	0.001043	20.803575
510.131185	-3.025800	3.762000	-11.382000	23.701577	0.001046	20.807245
511.132722	-3.000500	3.761800	-11.286000	23.698291	0.001046	20.815804
512.134262	-3.014700	3.758900	-11.330000	23.712878	0.001045	20.821419
513.134423	-2.988900	3.760000	-11.237000	23.697649	0.001047	20.823694
514.132049	-2.982200	3.761800	-11.217000	23.687516	0.001045	20.830605
515.136114	-2.981200	3.760000	-11.209000	23.681244	0.001045	20.817679
516.138629	-2.997600	3.759100	-11.268000	23.698845	0.001047	20.832480
517.137184	-3.001200	3.757600	-11.277000	23.705117	0.001047	20.795620
518.138544	-2.994600	3.758300	-11.252000	23.690060	0.001046	20.829837
519.138475	-3.001900	3.757300	-11.278000	23.669872	0.001045	20.835675
520.135784	-3.004300	3.757100	-11.287000	23.676073	0.001044	20.820555
521.136971	-2.998700	3.757000	-11.265000	23.646326	0.001044	20.800217
522.137712	-2.986500	3.758100	-11.223000	23.645850	0.001046	20.819653
523.135637	-3.002800	3.756000	-11.277000	23.665692	0.001045	20.801614
524.140922	-3.000300	3.757400	-11.272000	23.651606	0.001046	20.807881
525.140198	-3.007700	3.756200	-11.296000	23.643068	0.001046	20.803114
526.135192	-2.995800	3.756400	-11.251000	23.625395	0.001047	20.814320
527.140780	-2.992200	3.755700	-11.237000	23.665350	0.001046	20.804590
528.141779	-3.005600	3.755300	-11.286000	23.647575	0.001048	20.808107
529.138401	-3.005700	3.756100	-11.289000	23.638768	0.001047	20.811132
530.139183	-2.980300	3.755000	-11.190000	23.638271	0.001046	20.808262
531.137801	-3.003300	3.754800	-11.275000	23.669835	0.001049	20.798181
532.139542	-2.995100	3.753400	-11.241000	23.658608	0.001049	20.816797
533.141765	-2.984500	3.754900	-11.205000	23.686389	0.001047	20.791543
534.139375	-3.012200	3.752600	-11.303000	23.679273	0.001050	20.791522
535.139971	-2.991100	3.754500	-11.229000	23.656546	0.001050	20.820420
536.139707	-2.994600	3.753200	-11.239000	23.663514	0.001048	20.826931
537.139361	-3.010900	3.752100	-11.295000	23.672747	0.001048	20.803945
538.140768	-2.994000	3.752400	-11.233000	23.705408	0.001048	20.786430
539.139758	-3.009900	3.751100	-11.289000	23.676809	0.001047	20.811337
540.139689	-3.000600	3.752000	-11.256000	23.707050	0.001047	20.805619
541.143310	-2.985100	3.751700	-11.197000	23.746377	0.001048	20.799055
542.139160	-2.995500	3.751800	-11.237000	23.738485	0.001049	20.785927
543.139738	-3.000500	3.751300	-11.255000	23.748046	0.001048	20.795513
544.138638	-3.000300	3.752000	-11.255000	23.748618	0.001047	20.807466
545.141177	-2.991800	3.751000	-11.222000	23.741920	0.001047	20.797905
546.141360	-3.000300	3.749700	-11.249000	23.764270	0.001048	20.784279
547.141010	-3.009100	3.748900	-11.279000	23.806655	0.001048	20.816818
548.139627	-2.961500	3.750800	-11.107000	23.824950	0.001049	20.808135
549.141670	-3.002700	3.750100	-11.259000	23.824554	0.001051	20.792092
550.140717	-3.016900	3.747600	-11.305000	23.834559	0.001046	20.792640
551.141816	-2.992300	3.748600	-11.216000	23.824900	0.001047	20.805715
552.142992	-2.998700	3.749000	-11.239000	23.819003	0.001048	20.787000
553.140854	-2.991800	3.747900	-11.212000	23.824706	0.001048	20.800304
554.141242	-2.999400	3.747100	-11.237000	23.819352	0.001048	20.784505
555.140834	-2.987300	3.748200	-11.196000	23.819427	0.001047	20.792640
556.140754	-2.991000	3.747400	-11.207000	23.854370	0.001049	20.790694
557.141262	-2.983600	3.747800	-11.180000	23.872244	0.001048	20.801029
558.140676	-2.989500	3.746200	-11.197000	23.892549	0.001047	20.782983
559.140537	-3.016100	3.745400	-11.296000	23.860122	0.001047	20.787452
560.142011	-2.982400	3.746300	-11.172000	23.860048	0.001049	20.783585
561.143339	-2.996800	3.745700	-11.224000	23.861590	0.001046	20.806942
562.141634	-3.000800	3.745900	-11.238000	23.871199	0.001048	20.799508
563.141022	-3.007300	3.744600	-11.259000	23.894793	0.001048	20.795191
564.141853	-2.979600	3.744200	-11.154000	23.895538	0.001049	20.792144
565.143797	-2.984300	3.744600	-11.175000	23.891134	0.001046	20.788677
566.141302	-3.022000	3.741300	-11.306000	23.908033	0.001046	20.779544
567.144933	-3.007800	3.742900	-11.257000	23.932346	0.001047	20.791596
568.145379	-2.994500	3.742000	-11.203000	23.943101	0.001049	20.776776
569.143764	-3.006800	3.743300	-11.255000	23.955694	0.001046	20.772335
570.143250	-3.016100	3.741900	-11.286000	23.965401	0.001047	20.773535
571.150102	-2.992600	3.742600	-11.199000	23.953182	0.001048	20.766971
572.144008	-3.018100	3.740100	-11.286000	23.928195	0.001046	20.758036
573.147486	-2.974600	3.742300	-11.129000	23.897661	0.001046	20.771040
574.148961	-3.000900	3.741100	-11.225000	23.902690	0.001047	20.771815
575.149951	-2.974600	3.741200	-11.127000	23.887311	0.001046	20.762084
576.148208	-2.986300	3.739400	-11.167000	23.896048	0.001045	20.769897
577.150132	-3.008100	3.739500	-11.248000	23.898836	0.001046	20.760838
578.147443	-2.991500	3.740600	-11.188000	23.865538	0.001046	20.769175
579.147552	-3.013500	3.739900	-11.269000	23.904140	0.001045	20.758096
580.151386	-2.995700	3.740500	-11.204000	23.916857	0.001047	20.765633
581.148771	-3.017700	3.738900	-11.282000	23.934998	0.001046	20.778609
582.149127	-3.011700	3.737800	-11.256000	23.959441	0.001047	20.757126
583.145641	-2.991800	3.739300	-11.185000	23.974074	0.001047	20.763265
584.147416	-3.008800	3.737700	-11.245000	23.960488	0.001047	20.753909
585.149964	-3.007000	3.737900	-11.238000	23.975894	0.001046	20.742805
586.148022	-2.999300	3.737900	-11.210000	23.971963	0.001046	20.777271
587.148693	-3.017700	3.736100	-11.274000	24.006380	0.001047	20.767688
588.151669	-3.004600	3.737600	-11.229000	24.005985	0.001046	20.770137
589.148672	-2.986900	3.738300	-11.163000	23.967161	0.001047	20.754910
590.150038	-2.995900	3.737000	-11.194000	23.935008	0.001048	20.734995
591.152972	-2.997200	3.736400	-11.197000	23.924433	0.001048	20.777023
592.150151	-3.015500	3.735300	-11.262000	23.899869	0.001047	20.757607
593.150970	-2.999600	3.735700	-11.205000	23.917365	0.001046	20.763297
594.153181	-3.005000	3.735800	-11.225000	23.914178	0.001049	20.753463
595.150286	-3.013500	3.734600	-11.254000	23.907287	0.001049	20.742285
596.151850	-3.003100	3.735300	-11.216000	23.931974	0.001046	20.765144
597.151409	-3.016100	3.733500	-11.260000	23.939412	0.001046	20.745102
598.152793	-3.026500	3.732300	-11.295000	23.993014	0.001047	20.751439
599.151930	-3.004300	3.733900	-11.216000	23.987785	0.001045	20.753782
600.152096	-3.004600	3.733700	-11.217000	23.994828	0.001045	20.749465
601.151470	-3.008300	3.732200	-11.226000	23.968573	0.001045	20.757275
602.153070	-3.026900	3.731600	-11.294000	23.980044	0.001044	20.760718
603.153538	-3.026100	3.732600	-11.294000	23.968146	0.001045	20.747363
604.154770	-3.007200	3.733500	-11.224000	23.964039	0.001044	20.738977
605.155648	-2.977900	3.732400	-11.114000	23.976830	0.001045	20.759391
606.156948	-2.987400	3.732600	-11.149000	23.976004	0.001046	20.767572
607.157076	-3.002000	3.731800	-11.201000	23.986131	0.001044	20.765874
608.158673	-2.995900	3.732200	-11.180000	24.008801	0.001046	20.750202
609.158321	-2.982700	3.731000	-11.128000	24.003851	0.001044	20.748082
610.158660	-3.000900	3.731300	-11.195000	24.015869	0.001044	20.747332
611.159760	-3.009300	3.730400	-11.225000	24.063695	0.001045	20.760683
612.164368	-2.981400	3.730700	-11.120000	24.077579	0.001042	20.732406
613.163407	-3.001800	3.729700	-11.193000	24.076386	0.001044	20.746858
614.163851	-3.003400	3.730100	-11.201000	24.086589	0.001045	20.741918
615.161270	-2.981800	3.729500	-11.120000	24.121197	0.001044	20.746755
616.160230	-3.004100	3.728700	-11.199000	24.092559	0.001045	20.763553
617.164553	-2.989400	3.729400	-11.148000	24.104477	0.001044	20.749427
618.160820	-2.986800	3.730500	-11.141000	24.070462	0.001044	20.752771
619.162461	-2.989500	3.729400	-11.148000	24.071210	0.001044	20.738821
620.161337	-3.012800	3.726800	-11.225000	24.083527	0.001042	20.754968
621.166525	-2.993300	3.727500	-11.156000	24.078330	0.001043	20.743591
622.169509	-3.014000	3.726600	-11.231000	24.091218	0.001043	20.757466
623.163260	-3.013300	3.726200	-11.227000	24.099806	0.001043	20.736680
624.162796	-3.007600	3.726600	-11.208000	24.083506	0.001043	20.735506
625.166309	-3.018300	3.726400	-11.246000	24.098211	0.001043	20.727968
626.163973	-2.992600	3.726700	-11.152000	24.093786	0.001044	20.742972
627.164103	-2.999000	3.726700	-11.175000	24.111526	0.001043	20.713820
628.170085	-3.005500	3.725100	-11.194000	24.128474	0.001042	20.748839
629.163734	-3.025000	3.723700	-11.262000	24.098990	0.001045	20.740130
630.163229	-2.994300	3.725700	-11.155000	24.125666	0.001041	20.726580
631.183099	-3.025900	3.723900	-11.267000	24.073337	0.001042	20.758025
632.164193	-3.010500	3.724500	-11.212000	24.092548	0.001041	20.747419
633.164330	-3.022200	3.723900	-11.253000	24.099018	0.001041	20.728778
634.166141	-3.004600	3.722900	-11.184000	24.076078	0.001041	20.723314
635.164622	-3.007600	3.722700	-11.195000	24.116437	0.001043	20.734394
636.164202	-3.004400	3.722500	-11.183000	24.117735	0.001042	20.734747
637.166948	-3.048900	3.721400	-11.344000	24.119873	0.001041	20.746375
638.164406	-3.003100	3.722100	-11.176000	24.137118	0.001043	20.718151
639.168170	-3.016700	3.721100	-11.224000	24.158296	0.001041	20.726116
640.165677	-2.996400	3.722000	-11.152000	24.171434	0.001039	20.727914
641.166446	-2.991700	3.721300	-11.132000	24.177378	0.001042	20.729135
642.165939	-2.980700	3.721700	-11.092000	24.185940	0.001042	20.721601
643.165613	-3.001500	3.721400	-11.169000	24.192710	0.001041	20.726021
644.167369	-2.995300	3.720100	-11.141000	24.184726	0.001039	20.719909
645.168566	-3.012800	3.720500	-11.209000	24.195920	0.001040	20.709325
646.165805	-3.009200	3.720300	-11.194000	24.168724	0.001039	20.737525
647.168871	-2.988500	3.720800	-11.118000	24.183710	0.001039	20.700871
648.170906	-3.008200	3.718400	-11.184000	24.199734	0.001040	20.733066
649.167847	-2.982200	3.720100	-11.091000	24.198640	0.001037	20.703992
650.169816	-2.986600	3.719000	-11.105000	24.168336	0.001040	20.723384
651.171290	-2.983100	3.718800	-11.093000	24.203466	0.001038	20.719739
652.172690	-2.994900	3.717100	-11.131000	24.220611	0.001037	20.726031
653.172900	-2.989500	3.717600	-11.113000	24.213597	0.001038	20.738911
654.168705	-3.018200	3.717700	-11.220000	24.228527	0.001038	20.710262
655.172554	-3.006500	3.716400	-11.172000	24.233603	0.001038	20.718674
656.173687	-2.999200	3.717100	-11.147000	24.230093	0.001040	20.722138
657.170029	-3.014700	3.717000	-11.205000	24.174887	0.001038	20.717152
658.173997	-3.005800	3.716800	-11.171000	24.177501	0.001039	20.715156
659.174416	-2.993300	3.716000	-11.122000	24.142991	0.001039	20.716929
660.171313	-3.001700	3.714900	-11.149000	24.162747	0.001038	20.722046
661.174608	-3.016400	3.714200	-11.201000	24.165015	0.001039	20.721476
662.176377	-3.020200	3.715600	-11.221000	24.165386	0.001038	20.727538
663.173051	-2.992500	3.714500	-11.115000	24.118442	0.001037	20.733560
664.175807	-3.007500	3.714500	-11.170000	24.125682	0.001036	20.716638
665.178833	-3.016500	3.713400	-11.200000	24.154544	0.001038	20.714292
666.172525	-2.998500	3.715000	-11.139000	24.152830	0.001038	20.714469
667.176084	-3.001300	3.713300	-11.144000	24.144994	0.001037	20.728422
668.175075	-3.013700	3.713500	-11.190000	24.159603	0.001039	20.715099
669.172850	-3.002900	3.713800	-11.152000	24.150893	0.001039	20.716320
670.176281	-3.003400	3.712300	-11.149000	24.192271	0.001037	20.723209
671.176785	-2.991800	3.713300	-11.109000	24.197101	0.001036	20.712406
672.173984	-3.004500	3.712400	-11.153000	24.178788	0.001038	20.700675
673.176535	-3.022700	3.712400	-11.220000	24.176946	0.001037	20.712579
674.176061	-2.989400	3.713800	-11.101000	24.199440	0.001037	20.704794
675.175125	-3.001400	3.711500	-11.138000	24.212976	0.001039	20.713156
676.179733	-2.991100	3.711000	-11.099000	24.176202	0.001037	20.707565
677.182237	-2.990100	3.710100	-11.093000	24.197676	0.001037	20.721044
678.175034	-3.011500	3.710200	-11.173000	24.205437	0.001037	20.708913
679.178929	-2.986400	3.711000	-11.082000	24.219869	0.001038	20.697309
680.180992	-2.992700	3.710600	-11.104000	24.233154	0.001036	20.701627
681.177234	-3.000900	3.709800	-11.132000	24.246291	0.001036	20.722392
682.178528	-3.001600	3.710500	-11.136000	24.257657	0.001037	20.707239
683.180724	-2.988700	3.711200	-11.091000	24.252906	0.001036	20.713379
684.178418	-3.008900	3.709500	-11.160000	24.256987	0.001034	20.704670
685.179835	-3.000200	3.708700	-11.126000	24.242136	0.001035	20.710636
686.181131	-3.020800	3.706500	-11.196000	24.246887	0.001035	20.727258
687.177066	-2.991000	3.709500	-11.094000	24.213350	0.001035	20.713057
688.183266	-3.010800	3.708100	-11.164000	24.198692	0.001034	20.717795
689.178350	-2.990400	3.708800	-11.089000	24.205789	0.001035	20.726337
690.177547	-3.000300	3.709200	-11.128000	24.226388	0.001036	20.714755
691.180576	-2.999100	3.706800	-11.116000	24.244626	0.001034	20.725938
692.178470	-2.994800	3.706900	-11.100000	24.227686	0.001035	20.712738
693.176705	-2.980600	3.707200	-11.049000	24.266596	0.001033	20.734699
694.180163	-2.980400	3.706400	-11.045000	24.282766	0.001033	20.712037
695.179200	-3.000100	3.706700	-11.119000	24.253907	0.001034	20.707271
696.178261	-2.992300	3.705300	-11.086000	24.272618	0.001031	20.719401
697.182603	-2.987500	3.706100	-11.072000	24.273962	0.001033	20.721224
698.180727	-2.991500	3.705700	-11.083000	24.258857	0.001032	20.720771
699.179493	-3.007100	3.703900	-11.137000	24.253011	0.001033	20.731978
700.183438	-2.986100	3.704400	-11.059000	24.222684	0.001033	20.736645
701.182199	-3.009900	3.703000	-11.145000	24.227760	0.001032	20.731306
702.180533	-2.990900	3.703400	-11.074000	24.195516	0.001032	20.731681
703.186707	-2.984000	3.704300	-11.052000	24.179144	0.001032	20.724741
704.190011	-3.000700	3.703000	-11.111000	24.194123	0.001031	20.733128
705.185198	-2.994500	3.705200	-11.094000	24.219773	0.001032	20.731355
706.186682	-3.000300	3.702500	-11.108000	24.210344	0.001029	20.734699
707.182165	-2.991800	3.703700	-11.079000	24.249057	0.001028	20.731330
708.184321	-2.992300	3.702600	-11.078000	24.253509	0.001031	20.721571
709.186565	-2.993900	3.702200	-11.084000	24.242414	0.001029	20.723245
710.185513	-3.022200	3.699600	-11.180000	24.222088	0.001028	20.725615
711.189125	-3.011600	3.700800	-11.143000	24.225940	0.001029	20.727583
712.190291	-2.983100	3.700800	-11.039000	24.209797	0.001029	20.717080
713.187578	-3.009600	3.701300	-11.137000	24.232262	0.001029	20.727760
714.188331	-2.989200	3.701400	-11.063000	24.249628	0.001029	20.746129
715.193027	-2.962700	3.701700	-10.966000	24.283835	0.001030	20.709790
716.187765	-3.009100	3.699500	-11.131000	24.285003	0.001030	20.728507
717.187353	-3.012800	3.700500	-11.147000	24.265823	0.001029	20.715905
718.189095	-3.017200	3.699300	-11.160000	24.228406	0.001029	20.711563
719.189233	-3.008400	3.698100	-11.124000	24.213074	0.001028	20.738387
720.189789	-3.009800	3.699300	-11.133000	24.231164	0.001025	20.729979
721.191723	-3.000000	3.698100	-11.093000	24.204791	0.001027	20.739561
722.188412	-3.003500	3.697400	-11.104000	24.245169	0.001028	20.730276
723.189427	-2.997900	3.698500	-11.087000	24.270646	0.001026	20.746349
724.190474	-3.010300	3.696900	-11.128000	24.274925	0.001027	20.747322
725.190977	-3.015300	3.696900	-11.145000	24.282315	0.001026	20.727707
726.190883	-2.991500	3.698200	-11.062000	24.301575	0.001026	20.729009
727.190833	-2.994100	3.696100	-11.065000	24.293585	0.001026	20.720994
728.189993	-3.017700	3.696100	-11.152000	24.269383	0.001026	20.724218
729.188131	-3.020100	3.695000	-11.158000	24.265749	0.001025	20.735747
730.190490	-2.997000	3.696000	-11.075000	24.249381	0.001026	20.732130
731.190591	-2.991400	3.695600	-11.054000	24.246891	0.001025	20.723467
732.190658	-3.011100	3.694400	-11.122000	24.243783	0.001026	20.740740
733.194195	-3.004600	3.694600	-11.100000	24.194522	0.001026	20.747753
734.190342	-3.010100	3.693400	-11.116000	24.184968	0.001025	20.726316
735.190730	-2.987800	3.696000	-11.042000	24.169467	0.001024	20.742537
736.197009	-2.991500	3.695400	-11.054000	24.172702	0.001024	20.737247
737.197435	-2.998300	3.694600	-11.077000	24.179768	0.001026	20.756189
738.194676	-3.007400	3.693500	-11.107000	24.206615	0.001025	20.733330
739.194832	-3.012100	3.694100	-11.126000	24.249385	0.001024	20.746833
740.194054	-2.992900	3.694200	-11.055000	24.265950	0.001023	20.746380
741.194231	-3.001400	3.692200	-11.080000	24.311254	0.001023	20.719752
742.196908	-3.003800	3.693400	-11.093000	24.323050	0.001024	20.729214
743.198211	-3.036200	3.692000	-11.209000	24.331629	0.001021	20.755365
744.198474	-3.018600	3.690400	-11.139000	24.386555	0.001022	20.748351
745.198201	-2.979900	3.692200	-11.001000	24.378997	0.001023	20.746458
746.198040	-3.006200	3.691000	-11.095000	24.383226	0.001022	20.746907
747.197073	-3.009200	3.690300	-11.104000	24.373649	0.001022	20.750103
748.198118	-3.018900	3.690500	-11.140000	24.365290	0.001021	20.760209
749.201454	-2.990200	3.690500	-11.033000	24.401436	0.001022	20.753323
750.197856	-3.019400	3.689000	-11.136000	24.375988	0.001021	20.760510
751.198445	-2.985600	3.691300	-11.020000	24.373452	0.001021	20.738524
752.199445	-2.988700	3.689500	-11.026000	24.370866	0.001022	20.747311
753.198857	-3.001000	3.689000	-11.070000	24.362581	0.001021	20.750853
754.201335	-3.013100	3.688600	-11.114000	24.349399	0.001021	20.749009
755.201148	-3.013600	3.688400	-11.113000	24.347135	0.001020	20.729667
756.201921	-2.979900	3.689300	-10.993000	24.367960	0.001020	20.750085
757.202072	-2.979600	3.689000	-10.991000	24.416744	0.001019	20.739281
758.202402	-2.978600	3.687600	-10.983000	24.396445	0.001019	20.757325
759.203108	-2.987700	3.689300	-11.022000	24.423259	0.001019	20.741550
760.201903	-2.979100	3.689700	-10.991000	24.421446	0.001017	20.761543
761.202628	-2.992100	3.686800	-11.030000	24.400255	0.001019	20.744076
762.201553	-3.000800	3.687300	-11.064000	24.379980	0.001019	20.755980
763.204185	-2.989400	3.687900	-11.024000	24.384954	0.001019	20.751486
764.203558	-3.005800	3.686400	-11.078000	24.403838	0.001017	20.734869
765.203855	-2.999900	3.686600	-11.059000	24.453637	0.001016	20.770605
766.203415	-3.012000	3.685100	-11.099000	24.478466	0.001018	20.751893
767.207851	-3.016000	3.685700	-11.114000	24.461004	0.001017	20.767565
768.202069	-3.000500	3.685600	-11.058000	24.441828	0.001016	20.751171
769.204190	-3.002100	3.685100	-11.061000	24.470185	0.001017	20.747377
770.205901	-3.009900	3.685600	-11.091000	24.456631	0.001016	20.768867
771.204126	-3.005200	3.685100	-11.073000	24.429917	0.001015	20.740169
772.205698	-3.014200	3.684200	-11.103000	24.429945	0.001016	20.753000
773.204082	-3.019600	3.682500	-11.119000	24.423851	0.001016	20.761111
774.204272	-2.992000	3.685400	-11.026000	24.443179	0.001015	20.734981
775.203956	-3.011100	3.684700	-11.094000	24.431162	0.001016	20.749953
776.205744	-3.008000	3.684000	-11.081000	24.437437	0.001016	20.762413
777.204299	-2.995100	3.683700	-11.032000	24.481788	0.001013	20.754752
778.204425	-3.006200	3.682900	-11.070000	24.472735	0.001015	20.762738
779.204381	-2.975800	3.682700	-10.958000	24.490073	0.001014	20.755951
780.204293	-3.003900	3.683200	-11.063000	24.486617	0.001015	20.764338
781.204069	-2.990600	3.681700	-11.009000	24.528205	0.001015	20.768131
782.215631	-3.009000	3.681300	-11.076000	24.528804	0.001013	20.752137
783.205952	-3.003900	3.682100	-11.060000	24.508384	0.001013	20.751089
784.205107	-3.001100	3.681200	-11.045000	24.535643	0.001012	20.759472
785.206511	-2.991400	3.680800	-11.009000	24.505150	0.001012	20.743102
786.207465	-3.012500	3.679700	-11.084000	24.521966	0.001013	20.768984
787.207203	-2.991500	3.681100	-11.011000	24.501122	0.001014	20.738587
788.209462	-2.986600	3.681100	-10.993000	24.469980	0.001012	20.761397
789.207315	-3.026000	3.680000	-11.135000	24.489484	0.001012	20.755834
790.208049	-3.000700	3.679000	-11.038000	24.469638	0.001010	20.752993
791.215645	-3.007100	3.678600	-11.061000	24.478565	0.001010	20.758630
792.216421	-3.002400	3.679700	-11.047000	24.515357	0.001011	20.759981
793.209945	-2.998900	3.679300	-11.031000	24.519532	0.001012	20.769861
794.213124	-2.994800	3.678800	-11.017000	24.523066	0.001010	20.777674
795.215416	-2.990200	3.678200	-10.998000	24.526103	0.001011	20.776453
796.210750	-2.973800	3.678400	-10.938000	24.539807	0.001009	20.773608
797.211802	-2.994800	3.679400	-11.018000	24.518467	0.001007	20.756464
798.214721	-3.008800	3.676400	-11.060000	24.544114	0.001007	20.762282
799.210568	-2.988700	3.677000	-10.989000	24.602986	0.001010	20.756867
800.214285	-2.986400	3.676600	-10.979000	24.593359	0.001007	20.758587
801.213436	-3.010100	3.676400	-11.065000	24.606294	0.001008	20.777731
802.210331	-3.000300	3.674900	-11.024000	24.612557	0.001009	20.770739
803.214059	-2.994600	3.675700	-11.004000	24.609302	0.001009	20.771266
804.213295	-2.976800	3.675700	-10.940000	24.577345	0.001008	20.785193
805.211632	-3.005600	3.675400	-11.045000	24.586846	0.001008	20.767225
806.214520	-2.990100	3.675800	-10.990000	24.599583	0.001007	20.792334
807.215144	-3.002400	3.675400	-11.033000	24.596723	0.001007	20.786145
808.214345	-2.989800	3.675500	-10.988000	24.624061	0.001008	20.786549
809.215594	-2.985800	3.673800	-10.968000	24.616775	0.001006	20.781135
810.215600	-2.995700	3.674500	-11.007000	24.636597	0.001006	20.787274
811.212325	-3.021300	3.673200	-11.097000	24.668182	0.001005	20.781036
812.216489	-2.994800	3.673000	-10.999000	24.682263	0.001005	20.787104
813.214934	-3.006000	3.671700	-11.035000	24.679128	0.001005	20.778269
814.213518	-3.010800	3.672700	-11.057000	24.643191	0.001006	20.782985
815.216613	-2.993600	3.672000	-10.991000	24.610163	0.001005	20.767862
816.217358	-2.981600	3.673500	-10.951000	24.606111	0.001004	20.803625
817.215630	-2.989700	3.672300	-10.978000	24.590397	0.001004	20.793548
818.218242	-3.014700	3.671600	-11.067000	24.619917	0.001002	20.801357
819.218166	-3.001900	3.670700	-11.018000	24.615565	0.001004	20.775179
820.216035	-3.011200	3.670700	-11.052000	24.595196	0.001004	20.781768
821.218942	-2.998200	3.671300	-11.006000	24.609175	0.001003	20.781570
822.216256	-3.006600	3.669600	-11.030000	24.644542	0.001001	20.785763
823.219077	-3.001900	3.671400	-11.020000	24.653495	0.001004	20.789057
824.214447	-3.027400	3.667400	-11.102000	24.651831	0.001003	20.798767
825.224074	-2.985700	3.671000	-10.958000	24.641287	0.001001	20.788661
826.217312	-3.022500	3.668800	-11.088000	24.632111	0.001001	20.801739
827.215837	-3.009800	3.669600	-11.042000	24.602313	0.001003	20.797444
828.218952	-2.993100	3.670200	-10.984000	24.606047	0.001001	20.798820
829.214971	-3.016000	3.668400	-11.063000	24.609105	0.001001	20.773438
830.216669	-2.993800	3.668700	-10.983000	24.621395	0.000999	20.785296
831.221763	-2.993400	3.668600	-10.981000	24.625051	0.000999	20.789914
832.217338	-3.015700	3.667500	-11.059000	24.665665	0.000999	20.794631
833.217304	-2.997700	3.668700	-10.996000	24.676779	0.001000	20.803887
834.219487	-3.001000	3.667000	-11.004000	24.702669	0.000999	20.794305
835.217519	-3.025400	3.667200	-11.094000	24.713166	0.000999	20.811003
836.219579	-2.990900	3.667400	-10.968000	24.707496	0.000998	20.792511
837.221041	-2.996200	3.666000	-10.983000	24.679272	0.000998	20.818242
838.221474	-2.984700	3.666000	-10.941000	24.687055	0.000997	20.799025
839.221571	-3.020500	3.664200	-11.066000	24.692401	0.000998	20.794432
840.222517	-3.016700	3.665600	-11.058000	24.690387	0.000997	20.799524
841.226633	-3.010800	3.664100	-11.030000	24.694640	0.000996	20.798576
842.223637	-2.992100	3.665400	-10.966000	24.701431	0.000995	20.801598
843.223248	-3.008900	3.664200	-11.024000	24.739207	0.000994	20.784503
844.224545	-3.002200	3.665700	-11.003000	24.697556	0.000996	20.801502
845.223792	-3.000800	3.665200	-10.997000	24.682136	0.000995	20.785080
846.225047	-3.021100	3.664200	-11.068000	24.703099	0.000995	20.800901
847.225006	-3.001700	3.664400	-10.998000	24.717278	0.000996	20.788576
848.224870	-3.012700	3.663900	-11.036000	24.711833	0.000994	20.811562
849.228350	-3.000100	3.662100	-10.985000	24.690920	0.000993	20.818550
850.229276	-2.996600	3.662800	-10.976000	24.664110	0.000995	20.797338
851.228965	-3.000200	3.663900	-10.991000	24.658168	0.000995	20.809393
852.231162	-2.998600	3.661900	-10.979000	24.644637	0.000995	20.800558
853.230819	-3.005900	3.662000	-11.006000	24.671973	0.000993	20.800013
854.231020	-3.004000	3.661400	-10.997000	24.675009	0.000994	20.813016
855.229417	-2.988600	3.662500	-10.944000	24.714824	0.000994	20.815037
856.230779	-3.010700	3.661400	-11.022000	24.709929	0.000992	20.825772
857.231976	-2.999000	3.662000	-10.982000	24.735741	0.000992	20.827492
858.232021	-2.999200	3.660700	-10.979000	24.742183	0.000991	20.809775
859.231075	-3.027900	3.658500	-11.077000	24.710282	0.000991	20.827549
860.231505	-3.022000	3.660300	-11.060000	24.695730	0.000992	20.805359
861.233404	-3.003100	3.659600	-10.989000	24.686357	0.000993	20.825825
862.233504	-2.990400	3.660900	-10.947000	24.692450	0.000992	20.814871
863.236801	-2.981200	3.660800	-10.913000	24.686953	0.000992	20.809828
864.232938	-3.025800	3.658500	-11.068000	24.681261	0.000994	20.811704
865.233721	-2.978800	3.659100	-10.899000	24.694615	0.000991	20.830793
866.235092	-2.995300	3.658000	-10.954000	24.671737	0.000993	20.804517
867.235368	-2.994500	3.658800	-10.955000	24.668733	0.000990	20.811934
868.236164	-2.995100	3.659400	-10.959000	24.656221	0.000992	20.804595
869.235233	-2.998400	3.658800	-10.969000	24.676614	0.000989	20.807040
870.235628	-2.977000	3.658000	-10.889000	24.687704	0.000990	20.822436
871.236279	-2.976700	3.659700	-10.891000	24.710659	0.000989	20.805642
872.234801	-2.988600	3.657600	-10.929000	24.736799	0.000989	20.804846
873.236524	-2.998800	3.656300	-10.963000	24.759203	0.000990	20.812157
874.240115	-2.994900	3.657600	-10.952000	24.753857	0.000991	20.821491
875.239803	-3.013500	3.655300	-11.014000	24.775214	0.000990	20.821112
876.240033	-3.031100	3.655100	-11.076000	24.768430	0.000987	20.829477
877.239107	-3.011300	3.654800	-11.005000	24.764725	0.000986	20.815327
878.241361	-2.996700	3.657100	-10.957000	24.781409	0.000986	20.818321
879.240318	-3.015100	3.654700	-11.018000	24.744580	0.000986	20.821190
880.242960	-3.015800	3.654200	-11.019000	24.770468	0.000986	20.831522
881.241703	-2.984500	3.655300	-10.907000	24.783275	0.000987	20.834891
882.241316	-2.990500	3.654400	-10.927000	24.765447	0.000985	20.819846
883.242125	-3.002600	3.655200	-10.973000	24.772284	0.000985	20.838560
884.243405	-3.003500	3.652500	-10.969000	24.790087	0.000983	20.847891
885.244995	-3.003300	3.653500	-10.971000	24.808241	0.000984	20.838135
886.243464	-2.991200	3.653200	-10.927000	24.819704	0.000984	20.823561
887.246439	-3.010800	3.652100	-10.994000	24.827189	0.000983	20.832021
888.246495	-3.016300	3.651400	-11.013000	24.831515	0.000983	20.848216
889.251281	-3.009900	3.651600	-10.990000	24.843252	0.000984	20.828228
890.248052	-2.974300	3.654000	-10.867000	24.845339	0.000982	20.845969
891.247422	-2.986900	3.652600	-10.909000	24.846436	0.000983	20.831423
892.247516	-3.007500	3.651100	-10.980000	24.810480	0.000984	20.827581
893.249830	-2.997500	3.650300	-10.941000	24.825722	0.000985	20.834817
894.248005	-2.995600	3.650500	-10.935000	24.788024	0.000983	20.845347
895.246922	-3.002700	3.651300	-10.961000	24.763854	0.000983	20.846695
896.247582	-3.006000	3.651200	-10.974000	24.727743	0.000981	20.863087
897.246521	-2.962600	3.651000	-10.816000	24.734901	0.000982	20.864106
898.248226	-2.986700	3.652000	-10.906000	24.742514	0.000986	20.847565
899.250405	-2.988900	3.651200	-10.913000	24.787322	0.000981	20.842272
900.247470	-2.990500	3.650400	-10.916000	24.779142	0.000983	20.844968
901.249771	-3.018900	3.649800	-11.017000	24.769393	0.000982	20.832340
902.246917	-3.002000	3.650100	-10.957000	24.760959	0.000982	20.829565
903.252030	-3.013100	3.649700	-10.995000	24.754718	0.000982	20.847009
904.251282	-3.005500	3.648900	-10.965000	24.752278	0.000982	20.846932
905.249663	-3.021600	3.649300	-11.025000	24.759834	0.000981	20.863048
906.251342	-2.996400	3.649000	-10.933000	24.778035	0.000982	20.854288
907.251929	-3.005400	3.648600	-10.964000	24.803125	0.000981	20.856708
908.249770	-3.005000	3.647600	-10.960000	24.825803	0.000980	20.848173
909.255221	-3.021300	3.647700	-11.019000	24.840918	0.000980	20.859075
910.254301	-2.990000	3.647700	-10.906000	24.862079	0.000981	20.857079
911.248861	-2.968600	3.647600	-10.828000	24.877962	0.000982	20.850735
912.251309	-3.002400	3.646400	-10.946000	24.865651	0.000980	20.870620
913.252593	-3.006700	3.645900	-10.960000	24.871591	0.000980	20.860462
914.251302	-2.991900	3.645700	-10.906000	24.883899	0.000978	20.862857
915.251745	-2.997700	3.646800	-10.930000	24.856071	0.000980	20.860533
916.254200	-2.997800	3.645800	-10.928000	24.834409	0.000978	20.868189
917.251277	-2.980800	3.646100	-10.868000	24.798725	0.000979	20.866042
918.253942	-2.988400	3.645000	-10.892000	24.818963	0.000978	20.881610
919.257165	-3.011100	3.644400	-10.972000	24.843502	0.000977	20.866884
920.251904	-2.971400	3.643800	-10.826000	24.852845	0.000979	20.864407
921.254904	-2.980900	3.645300	-10.865000	24.887781	0.000977	20.871494
922.252736	-2.984000	3.643500	-10.871000	24.923879	0.000976	20.882594
923.252165	-3.001600	3.642600	-10.932000	24.893020	0.000977	20.878174
924.256525	-2.996200	3.645200	-10.921000	24.893038	0.000971	20.862072
925.254607	-3.007800	3.643200	-10.957000	24.887619	0.000974	20.871331
926.254105	-2.998400	3.642200	-10.920000	24.879260	0.000974	20.859149
927.255525	-3.012000	3.642600	-10.971000	24.870752	0.000972	20.864835
928.264046	-3.003900	3.641800	-10.939000	24.869307	0.000971	20.857695
929.253966	-3.019500	3.640400	-10.991000	24.878953	0.000973	20.860738
930.253907	-3.016500	3.639800	-10.978000	24.932107	0.000970	20.862405
931.253081	-3.009000	3.640700	-10.954000	24.910775	0.000970	20.847158
932.253925	-2.992800	3.641700	-10.898000	24.949879	0.000969	20.879293
933.251535	-3.011800	3.640100	-10.962000	24.942821	0.000967	20.860830
934.259180	-3.001800	3.640300	-10.926000	24.978618	0.000968	20.860250
935.254315	-2.999300	3.639500	-10.915000	24.964721	0.000970	20.838242
936.255577	-2.999000	3.639000	-10.912000	24.995176	0.000969	20.858378
937.255651	-3.005800	3.639600	-10.938000	25.005691	0.000970	20.854235
938.256059	-3.014500	3.639100	-10.969000	25.001912	0.000968	20.847597
939.255867	-3.008800	3.639200	-10.948000	25.031968	0.000967	20.837938
940.256180	-3.021400	3.637000	-10.988000	25.020060	0.000967	20.830726
941.256759	-2.994200	3.639000	-10.895000	25.019313	0.000967	20.847994
942.255705	-3.018100	3.638000	-10.977000	24.979284	0.000965	20.841480
943.255573	-2.991800	3.636500	-10.878000	24.974736	0.000966	20.857777
944.265622	-2.993400	3.637100	-10.886000	24.978290	0.000967	20.855180
945.256821	-3.000900	3.637800	-10.916000	25.006485	0.000964	20.839859
946.257766	-3.015200	3.637000	-10.966000	24.999198	0.000965	20.850562
947.258306	-2.995400	3.636700	-10.893000	25.020998	0.000966	20.827401
948.255599	-2.987200	3.635800	-10.860000	24.991689	0.000964	20.819319
949.258881	-2.982100	3.635900	-10.841000	24.987808	0.000964	20.833915
950.259317	-2.995800	3.635500	-10.890000	24.979552	0.000962	20.838904
951.260591	-2.998600	3.635100	-10.899000	24.990741	0.000964	20.840652
952.260386	-2.985600	3.633600	-10.847000	24.989028	0.000963	20.842251
953.259090	-2.985600	3.636000	-10.854000	25.001828	0.000963	20.837082
954.260309	-2.985200	3.635300	-10.851000	25.016373	0.000963	20.839353
955.267847	-3.002400	3.635400	-10.914000	25.022761	0.000962	20.845290
956.261621	-3.010100	3.634000	-10.937000	25.054733	0.000962	20.829969
957.260480	-3.026800	3.634000	-10.999000	25.021915	0.000959	20.837803
958.263311	-3.001500	3.632700	-10.903000	24.988080	0.000961	20.819963
959.263645	-3.008900	3.632800	-10.930000	24.957921	0.000958	20.831891
960.261316	-3.024900	3.633000	-10.987000	24.930669	0.000961	20.831091
961.269104	-3.003200	3.632800	-10.909000	24.915947	0.000959	20.833858
962.264785	-2.997500	3.632000	-10.885000	24.903918	0.000959	20.830794
963.264452	-3.007400	3.631900	-10.922000	24.910380	0.000958	20.829693
964.269368	-3.006400	3.632300	-10.918000	24.900957	0.000959	20.826399
965.265451	-3.014100	3.631000	-10.943000	24.917343	0.000957	20.841897
966.265049	-3.002600	3.632300	-10.906000	24.930715	0.000957	20.838249
967.268066	-2.993600	3.630600	-10.868000	24.938598	0.000956	20.815342
968.265155	-3.001200	3.629800	-10.892000	24.930589	0.000957	20.829113
969.267440	-3.001400	3.630400	-10.895000	24.938919	0.000955	20.813767
970.266620	-3.009800	3.631100	-10.928000	24.956074	0.000955	20.849002
971.265922	-2.997400	3.630000	-10.879000	24.978354	0.000954	20.821580
972.268864	-3.011400	3.629900	-10.929000	24.982602	0.000951	20.823947
973.268228	-3.005200	3.628900	-10.905000	24.975713	0.000954	20.827939
974.269889	-3.010900	3.629800	-10.928000	24.994785	0.000953	20.816736
975.271358	-2.995700	3.628600	-10.870000	24.994760	0.000954	20.801064
976.270563	-3.021200	3.627600	-10.959000	25.003439	0.000954	20.816888
977.271517	-3.005900	3.628300	-10.905000	25.036477	0.000953	20.826343
978.269209	-3.004100	3.627300	-10.896000	25.033593	0.000952	20.797844
979.273053	-3.002000	3.627800	-10.889000	25.045924	0.000954	20.823024
980.270706	-3.016600	3.627400	-10.941000	25.046943	0.000951	20.829736
981.269331	-3.008000	3.627200	-10.909000	25.036230	0.000955	20.834155
982.277478	-3.000400	3.625900	-10.877000	25.073317	0.000953	20.817331
983.270495	-2.986300	3.627700	-10.832000	25.086102	0.000952	20.810724
984.268817	-3.015800	3.627100	-10.937000	25.081347	0.000952	20.812115
985.270252	-3.012400	3.626400	-10.923000	25.094527	0.000951	20.805431
986.271377	-2.997800	3.625000	-10.866000	25.071879	0.000949	20.784119
987.276889	-3.001400	3.625000	-10.878000	25.072327	0.000950	20.805905
988.271737	-3.013300	3.624900	-10.922000	25.072076	0.000949	20.795697
989.271478	-3.002800	3.624300	-10.881000	25.078545	0.000946	20.805509
990.271030	-3.003200	3.624800	-10.885000	25.047193	0.000948	20.803435
991.271585	-3.015200	3.623700	-10.925000	25.038987	0.000950	20.784292
992.272968	-3.015200	3.623000	-10.923000	25.022257	0.000946	20.782197
993.272447	-2.998800	3.624300	-10.867000	25.054233	0.000948	20.797225
994.270093	-3.011000	3.623100	-10.907000	25.055399	0.000948	20.833957
995.272601	-2.993500	3.623800	-10.847000	25.086796	0.000947	20.804309
996.274089	-2.996500	3.622500	-10.853000	25.085482	0.000946	20.798248
997.272034	-3.000100	3.622300	-10.866000	25.070441	0.000947	20.805434
998.272997	-2.994300	3.623000	-10.848000	25.028700	0.000946	20.811899
999.272849	-2.997100	3.622100	-10.855000	25.036360	0.000947	20.783078
1000.271836	-2.992700	3.621700	-10.837000	25.033103	0.000945	20.804939
1001.275227	-3.004800	3.620600	-10.879000	25.004014	0.000946	20.810353
1002.274530	-3.016800	3.620900	-10.922000	24.989250	0.000943	20.785102
1003.276870	-3.004300	3.620600	-10.876000	24.982436	0.000944	20.779211
1004.274830	-2.999700	3.620200	-10.858000	24.975949	0.000942	20.789769
1005.275869	-3.000800	3.620800	-10.864000	24.975875	0.000942	20.802023
1006.276247	-3.012300	3.620700	-10.904000	24.961679	0.000943	20.801050
1007.277054	-3.015600	3.619500	-10.913000	24.978808	0.000944	20.787898
1008.277310	-2.994500	3.619000	-10.836000	25.000541	0.000943	20.791220
1009.280791	-3.024800	3.619000	-10.946000	25.006908	0.000942	20.778644
1010.278111	-2.977800	3.619300	-10.775000	25.027840	0.000943	20.783060
1011.277400	-2.959100	3.619100	-10.709000	25.011959	0.000941	20.791775
1012.280865	-2.978200	3.618500	-10.775000	25.007133	0.000939	20.788828
1013.279410	-2.977900	3.618700	-10.775000	24.998257	0.000940	20.790350
1014.279009	-3.002100	3.618300	-10.860000	24.992839	0.000941	20.797239
1015.280525	-2.995200	3.616500	-10.831000	24.986652	0.000940	20.782968
1016.281229	-2.990600	3.617500	-10.817000	24.961612	0.000939	20.784861
1017.279573	-2.980700	3.619000	-10.786000	24.992962	0.000939	20.786931
1018.282145	-2.993000	3.617400	-10.826000	24.984808	0.000938	20.777324
1019.285560	-2.981800	3.618000	-10.787000	25.008526	0.000937	20.764621
1020.280801	-3.010000	3.616200	-10.884000	25.028936	0.000938	20.787006
1021.281961	-2.977200	3.616700	-10.767000	25.008575	0.000936	20.765619
1022.286742	-3.003700	3.614600	-10.855000	25.014043	0.000939	20.787703
1023.281800	-3.002800	3.615000	-10.854000	25.024459	0.000935	20.774925
1024.283339	-2.987300	3.614900	-10.799000	25.029106	0.000937	20.772951
1025.286485	-3.010700	3.615000	-10.883000	25.051208	0.000935	20.761472
1026.284706	-2.990500	3.615000	-10.810000	25.082182	0.000936	20.772176
1027.284145	-2.977900	3.615500	-10.766000	25.096303	0.000934	20.775920
1028.288523	-3.001500	3.614200	-10.848000	25.096349	0.000933	20.779285
1029.284628	-2.994300	3.615200	-10.824000	25.093018	0.000934	20.764561
1030.287987	-2.997400	3.613800	-10.831000	25.067783	0.000933	20.796602
1031.288832	-3.011200	3.613700	-10.880000	25.060870	0.000932	20.774490
1032.287249	-3.024600	3.610800	-10.920000	25.051941	0.000932	20.777381
1033.285645	-2.982000	3.613700	-10.775000	25.052139	0.000932	20.782795
1034.290286	-2.994000	3.612100	-10.813000	25.081724	0.000932	20.790683
1035.290259	-2.983100	3.610800	-10.770000	25.087713	0.000932	20.752123
1036.295803	-2.987900	3.610700	-10.787000	25.110163	0.000931	20.778454
1037.291919	-2.988000	3.611700	-10.789000	25.101904	0.000931	20.769215
1038.289830	-2.997600	3.610700	-10.823000	25.113240	0.000931	20.770163
1039.289112	-3.013700	3.609000	-10.875000	25.114633	0.000928	20.759707
1040.293247	-3.017000	3.610100	-10.891000	25.106402	0.000930	20.778946
1041.290192	-2.990800	3.612200	-10.802000	25.109582	0.000928	20.770758
1042.289338	-3.023200	3.608600	-10.908000	25.105207	0.000928	20.748348
1043.291573	-2.990500	3.611200	-10.798000	25.090484	0.000928	20.779562
1044.290051	-3.017300	3.609700	-10.890000	25.102740	0.000929	20.771476
1045.289630	-3.008700	3.608700	-10.857000	25.101249	0.000929	20.779937
1046.293648	-3.011100	3.607300	-10.861000	25.119769	0.000927	20.756327
1047.289762	-3.012300	3.607600	-10.865000	25.130079	0.000926	20.786119
1048.289581	-3.022500	3.607100	-10.901000	25.112328	0.000926	20.765454
1049.295326	-2.965700	3.609000	-10.701000	25.088236	0.000926	20.777779
1050.292585	-2.984700	3.607900	-10.767000	25.074834	0.000925	20.767170
1051.291855	-2.989700	3.606700	-10.782000	25.025310	0.000924	20.753019
1052.294810	-2.988900	3.608000	-10.783000	25.002883	0.000922	20.760380
1053.292741	-2.982800	3.605100	-10.753000	25.002979	0.000922	20.766165
1054.291969	-2.987900	3.605400	-10.771000	25.001932	0.000922	20.771753
1055.296886	-3.010500	3.605800	-10.854000	25.004072	0.000922	20.772478
1056.292493	-2.987000	3.605100	-10.768000	24.997554	0.000922	20.767832
1057.292305	-2.996000	3.605400	-10.800000	25.033824	0.000920	20.739754
1058.295630	-3.004800	3.604600	-10.829000	25.057340	0.000921	20.757670
1059.299513	-2.976200	3.604800	-10.728000	25.077228	0.000921	20.774315
1060.293958	-3.000300	3.603800	-10.811000	25.147503	0.000920	20.765204
1061.298137	-2.976800	3.604600	-10.729000	25.144768	0.000920	20.770519
1062.295854	-3.000600	3.603600	-10.812000	25.177452	0.000918	20.768243
1063.295983	-2.996700	3.604000	-10.799000	25.186352	0.000918	20.781446
1064.295533	-3.008700	3.602100	-10.835000	25.167259	0.000917	20.754217
1065.295167	-2.997800	3.602800	-10.800000	25.156566	0.000918	20.768138
1066.295428	-3.001600	3.603600	-10.816000	25.128251	0.000917	20.771007
1067.298989	-3.019900	3.602500	-10.879000	25.114332	0.000915	20.760827
1068.294985	-2.984300	3.601900	-10.748000	25.096827	0.000918	20.777395
1069.300952	-3.006000	3.602400	-10.827000	25.106077	0.000916	20.756807
1070.299438	-3.004100	3.601600	-10.819000	25.097973	0.000915	20.786605
1071.296724	-3.019500	3.600800	-10.871000	25.104582	0.000915	20.755781
1072.295839	-3.012700	3.601300	-10.848000	25.148283	0.000915	20.766935
1073.299868	-3.027900	3.600700	-10.902000	25.149752	0.000916	20.752288
1074.297602	-3.001700	3.601700	-10.810000	25.145153	0.000915	20.767112
1075.296999	-3.005500	3.599600	-10.817000	25.145227	0.000914	20.741581
1076.298639	-2.980900	3.601500	-10.735000	25.157158	0.000911	20.744075
1077.306406	-3.022800	3.597200	-10.873000	25.152611	0.000911	20.755632
1078.297572	-2.997300	3.598000	-10.783000	25.167002	0.000912	20.736414
1079.301060	-2.991200	3.600300	-10.767000	25.178338	0.000912	20.744475
1080.302913	-3.011200	3.598600	-10.835000	25.176723	0.000910	20.761821
1081.296696	-3.001100	3.598900	-10.798000	25.165360	0.000909	20.767483
1082.301053	-2.978400	3.598800	-10.717000	25.146989	0.000911	20.758050
1083.297105	-3.043800	3.595800	-10.944000	25.142167	0.000907	20.724758
1084.298734	-2.990300	3.596500	-10.753000	25.091776	0.000911	20.768531
1085.300794	-3.000400	3.597100	-10.792000	25.062865	0.000907	20.766061
1086.298461	-3.009200	3.596300	-10.821000	25.015879	0.000906	20.750190
1087.299959	-2.977300	3.597000	-10.708000	25.013319	0.000908	20.753785
1088.303134	-2.969600	3.597300	-10.682000	25.003674	0.000905	20.743155
1089.300664	-2.976100	3.597000	-10.703000	25.011980	0.000906	20.757182
1090.300591	-2.992800	3.595900	-10.761000	25.023239	0.000905	20.752837
1091.302373	-2.989200	3.596000	-10.748000	24.981624	0.000905	20.739040
1092.298748	-3.000300	3.595500	-10.786000	24.964942	0.000905	20.738891
1093.299455	-3.001200	3.595100	-10.789000	24.969144	0.000903	20.756860
1094.304820	-2.993800	3.594600	-10.760000	24.986873	0.000902	20.740989
1095.300434	-3.003300	3.592700	-10.789000	25.018078	0.000904	20.721576
1096.299666	-2.987000	3.593000	-10.731000	25.036874	0.000902	20.732383
1097.304292	-2.979200	3.593700	-10.706000	25.057136	0.000903	20.737075
1098.300749	-2.982700	3.592900	-10.716000	25.053882	0.000901	20.746612
1099.302954	-2.978000	3.593600	-10.701000	25.062511	0.000902	20.721608
1100.306806	-3.011500	3.591200	-10.814000	25.044089	0.000902	20.737256
1101.301292	-3.007800	3.592300	-10.803000	25.070573	0.000900	20.723062
1102.301117	-2.981300	3.593000	-10.710000	25.071267	0.000901	20.736088
1103.304103	-2.985500	3.590700	-10.719000	25.095631	0.000900	20.719767
1104.301344	-2.984300	3.591700	-10.717000	25.153406	0.000900	20.739835
1105.302743	-2.997800	3.590600	-10.763000	25.190098	0.000899	20.735419
1106.305466	-2.993900	3.591700	-10.752000	25.217618	0.000897	20.720372
1107.302907	-3.004300	3.589400	-10.783000	25.213818	0.000898	20.723196
1108.303427	-3.000400	3.590600	-10.773000	25.215954	0.000898	20.719176
1109.306710	-3.021200	3.588600	-10.841000	25.205271	0.000896	20.723150
1110.305125	-2.996500	3.590300	-10.757000	25.181459	0.000897	20.732909
1111.305446	-3.018300	3.587400	-10.827000	25.159260	0.000896	20.737177
1112.314036	-2.999900	3.587800	-10.762000	25.172016	0.000894	20.726748
1113.313993	-3.018500	3.586400	-10.824000	25.203040	0.000895	20.737980
1114.306883	-2.999500	3.587500	-10.759000	25.190760	0.000895	20.704787
1115.312548	-2.993800	3.587700	-10.740000	25.211019	0.000892	20.728921
1116.307433	-2.994100	3.588800	-10.743000	25.227803	0.000894	20.724908
1117.309731	-2.999700	3.587000	-10.759000	25.246919	0.000895	20.700002
1118.314241	-3.011800	3.586100	-10.799000	25.263995	0.000893	20.736115
1119.309696	-3.005000	3.585600	-10.774000	25.285969	0.000891	20.724512
1120.308180	-2.947500	3.588200	-10.574000	25.307816	0.000892	20.715152
1121.312275	-2.993800	3.584500	-10.729000	25.284108	0.000892	20.718850
1122.309161	-2.997300	3.584700	-10.744000	25.316048	0.000889	20.693544
1123.308070	-3.010300	3.584800	-10.789000	25.309387	0.000891	20.702030
1124.312446	-2.995900	3.584800	-10.736000	25.325524	0.000889	20.724872
1125.312408	-2.992300	3.584200	-10.723000	25.265869	0.000890	20.718081
1126.319041	-3.008900	3.582200	-10.777000	25.264851	0.000889	20.699988
1127.315170	-3.013400	3.582700	-10.795000	25.257598	0.000888	20.704086
1128.311739	-2.998500	3.583200	-10.743000	25.249646	0.000889	20.700370
1129.315208	-2.977200	3.582700	-10.665000	25.250097	0.000886	20.712203
1130.313919	-2.982100	3.581800	-10.680000	25.253876	0.000888	20.723110
1131.311011	-3.003900	3.581900	-10.759000	25.260315	0.000886	20.717720
1132.310932	-2.998500	3.581000	-10.737000	25.271825	0.000885	20.713155
1133.314238	-2.988600	3.582300	-10.704000	25.286067	0.000886	20.711807
1134.311856	-2.987900	3.582500	-10.703000	25.315149	0.000886	20.703073
1135.311941	-2.985600	3.582500	-10.695000	25.324273	0.000885	20.731202
1136.314682	-2.999900	3.580700	-10.740000	25.306106	0.000885	20.702528
1137.319258	-3.016100	3.580000	-10.797000	25.321344	0.000884	20.699336
1138.311361	-3.025100	3.579100	-10.826000	25.337777	0.000882	20.686437
1139.316840	-2.968500	3.580300	-10.627000	25.371978	0.000885	20.700865
1140.316270	-2.997100	3.579000	-10.726000	25.378416	0.000883	20.685043
1141.314377	-2.999200	3.579300	-10.734000	25.391388	0.000882	20.684792
1142.316365	-3.002900	3.577500	-10.742000	25.353766	0.000882	20.708183
1143.314707	-2.989100	3.578900	-10.696000	25.339574	0.000881	20.701994
1144.313217	-3.027200	3.577900	-10.830000	25.284621	0.000879	20.712252
1145.315671	-3.009400	3.578500	-10.768000	25.255715	0.000880	20.724008
1146.314961	-3.021100	3.577000	-10.805000	25.221041	0.000882	20.694884
1147.314112	-2.981700	3.577300	-10.665000	25.204342	0.000879	20.726959
1148.316090	-2.988600	3.577300	-10.691000	25.153556	0.000878	20.700628
1149.315876	-2.996800	3.577000	-10.718000	25.154849	0.000878	20.692442
1150.315596	-3.008700	3.575900	-10.759000	25.151272	0.000878	20.692170
1151.315677	-3.005500	3.576300	-10.747000	25.131131	0.000877	20.711308
1152.316795	-2.993600	3.577100	-10.708000	25.117409	0.000875	20.716499
1153.316722	-3.012200	3.573500	-10.762000	25.138992	0.000876	20.702602
1154.321463	-3.012100	3.575100	-10.767000	25.108886	0.000876	20.700355
1155.320767	-3.001600	3.574500	-10.728000	25.128502	0.000876	20.711987
1156.319480	-2.974700	3.576100	-10.636000	25.140236	0.000876	20.686306
1157.319736	-2.996700	3.573800	-10.709000	25.159675	0.000877	20.704874
1158.322604	-2.977500	3.574800	-10.642000	25.175236	0.000876	20.702478
1159.321049	-2.976600	3.574300	-10.638000	25.203500	0.000874	20.697662
1160.320375	-2.991900	3.574300	-10.692000	25.212026	0.000873	20.689151
1161.320330	-3.000400	3.573700	-10.721000	25.238470	0.000874	20.695312
1162.322427	-3.006400	3.572100	-10.738000	25.279437	0.000874	20.716531
1163.320059	-3.015100	3.573000	-10.772000	25.245135	0.000873	20.687304
1164.320052	-2.998600	3.572200	-10.710000	25.229623	0.000873	20.713459
1165.323370	-3.019000	3.571500	-10.782000	25.257389	0.000872	20.701505
1166.321675	-3.020200	3.571900	-10.787000	25.229056	0.000871	20.711941
1167.324360	-2.996100	3.572300	-10.700000	25.254435	0.000872	20.711343
1168.321300	-3.015500	3.572300	-10.771000	25.253565	0.000870	20.714736
1169.322083	-3.014000	3.569600	-10.758000	25.229056	0.000869	20.708622
1170.320419	-3.004600	3.571600	-10.730000	25.196341	0.000870	20.702804
1171.322942	-2.976700	3.570500	-10.627000	25.203725	0.000868	20.695518
1172.323528	-3.009400	3.568900	-10.740000	25.210440	0.000868	20.707475
1173.323003	-2.987700	3.570800	-10.667000	25.218817	0.000867	20.702609
1174.321881	-2.996000	3.570000	-10.695000	25.204599	0.000868	20.715363
1175.323215	-2.986200	3.568700	-10.656000	25.221080	0.000868	20.680697
1176.324006	-3.014600	3.567300	-10.752000	25.222201	0.000867	20.688461
1177.323997	-3.012900	3.567900	-10.749000	25.268836	0.000867	20.729121
1178.334501	-3.017500	3.567500	-10.762000	25.309820	0.000865	20.701042
1179.325806	-3.009000	3.567500	-10.734000	25.327095	0.000864	20.714121
1180.326621	-2.971100	3.569100	-10.604000	25.335944	0.000866	20.703565
1181.327031	-2.981000	3.567900	-10.635000	25.356627	0.000863	20.691140
1182.326583	-2.999400	3.565600	-10.693000	25.374448	0.000863	20.695284
1183.327752	-3.010300	3.565300	-10.731000	25.362720	0.000864	20.702475
1184.328427	-3.007700	3.566300	-10.724000	25.336349	0.000864	20.693065
1185.327080	-3.008100	3.565200	-10.723000	25.357702	0.000861	20.704074
1186.327613	-3.019300	3.565700	-10.765000	25.345896	0.000863	20.711187
1187.325445	-3.021100	3.564700	-10.767000	25.358650	0.000862	20.685110
1188.326362	-3.000100	3.565500	-10.695000	25.314063	0.000862	20.713363
1189.325066	-2.979600	3.565300	-10.622000	25.303353	0.000861	20.724422
1190.327163	-3.005900	3.563400	-10.709000	25.298059	0.000859	20.700139
1191.332080	-2.991600	3.563600	-10.659000	25.289661	0.000860	20.700242
1192.327694	-3.004000	3.563300	-10.702000	25.296847	0.000858	20.714570
1193.328322	-2.997500	3.563700	-10.681000	25.237444	0.000859	20.709931
1194.330912	-2.993400	3.563800	-10.666000	25.248930	0.000856	20.699177
1195.328923	-3.000000	3.563000	-10.689000	25.259517	0.000856	20.703168
1196.327546	-2.987500	3.561700	-10.638000	25.263697	0.000857	20.723962
1197.328907	-3.003300	3.561700	-10.695000	25.279934	0.000856	20.717978
1198.328053	-2.994700	3.561900	-10.666000	25.293777	0.000856	20.721446
1199.333401	-3.009800	3.561700	-10.719000	25.323455	0.000855	20.711888
1200.328641	-2.999600	3.561200	-10.681000	25.327363	0.000855	20.708225
1201.328755	-3.002100	3.560800	-10.689000	25.308745	0.000853	20.717507
1202.328603	-3.018400	3.559100	-10.741000	25.314412	0.000852	20.704704
1203.330484	-2.997000	3.561000	-10.672000	25.337675	0.000851	20.693922
1204.331109	-3.000000	3.559100	-10.677000	25.325055	0.000853	20.706382
1205.328941	-2.995100	3.559400	-10.660000	25.349216	0.000853	20.698872
1206.328820	-3.007600	3.560000	-10.706000	25.348444	0.000852	20.709004
1207.327150	-2.991000	3.557900	-10.641000	25.359482	0.000851	20.725777
1208.329368	-3.007900	3.558900	-10.704000	25.327666	0.000850	20.715642
1209.329162	-3.000800	3.558000	-10.676000	25.297274	0.000850	20.710257
1210.329146	-2.994000	3.557300	-10.649000	25.315938	0.000848	20.728523
1211.331643	-2.988800	3.559000	-10.635000	25.299910	0.000850	20.696781
1212.328817	-3.013700	3.556600	-10.717000	25.287656	0.000850	20.711032
1213.329441	-3.007300	3.556900	-10.696000	25.313284	0.000848	20.714952
1214.332904	-3.006100	3.556500	-10.689000	25.328597	0.000847	20.705670
1215.335388	-2.953700	3.558000	-10.508000	25.347638	0.000846	20.707245
1216.329051	-2.988800	3.555500	-10.626000	25.348106	0.000844	20.721941
1217.335202	-2.991600	3.556500	-10.638000	25.335656	0.000846	20.724139
1218.333884	-3.017600	3.554200	-10.724000	25.372049	0.000845	20.720852
1219.331623	-2.997300	3.555600	-10.655000	25.404258	0.000844	20.730434
1220.331178	-3.006300	3.553500	-10.682000	25.418994	0.000842	20.718205
1221.332484	-3.003000	3.554200	-10.671000	25.389947	0.000841	20.723651
1222.331113	-3.017800	3.555000	-10.728000	25.364173	0.000842	20.713417
1223.330989	-3.020700	3.554100	-10.735000	25.353812	0.000842	20.713919
1224.331869	-3.004300	3.553900	-10.677000	25.379439	0.000841	20.709305
1225.331048	-3.016400	3.551900	-10.713000	25.391392	0.000841	20.735060
1226.331421	-3.019900	3.552700	-10.727000	25.402552	0.000839	20.723032
1227.331979	-3.014500	3.551300	-10.704000	25.413494	0.000840	20.707465
1228.332896	-3.005800	3.552700	-10.678000	25.450850	0.000842	20.711312
1229.334707	-2.973400	3.552700	-10.562000	25.481044	0.000839	20.722667
1230.333032	-2.997900	3.553700	-10.652000	25.491806	0.000840	20.743906
1231.332209	-3.004300	3.551800	-10.670000	25.474713	0.000839	20.738595
1232.333057	-3.012000	3.550700	-10.693000	25.494494	0.000839	20.730010
1233.334382	-2.980400	3.552100	-10.586000	25.503617	0.000836	20.727792
1234.332556	-2.996100	3.551300	-10.639000	25.529638	0.000839	20.716939
1235.331863	-3.002300	3.550200	-10.658000	25.485305	0.000835	20.720782
1236.331837	-3.011000	3.550100	-10.688000	25.440945	0.000836	20.722703
1237.336797	-2.991800	3.551500	-10.624000	25.395671	0.000834	20.739830
1238.332070	-3.011800	3.549900	-10.691000	25.367088	0.000834	20.729621
1239.332962	-3.010500	3.547800	-10.679000	25.394776	0.000833	20.733716
1240.334896	-3.018800	3.547800	-10.708000	25.397464	0.000835	20.719819
1241.334801	-2.991600	3.548000	-10.612000	25.377804	0.000833	20.740383
1242.335958	-3.005300	3.548000	-10.662000	25.393416	0.000833	20.718124
1243.338244	-2.994300	3.547300	-10.621000	25.391358	0.000831	20.738345
1244.336019	-3.006400	3.547100	-10.663000	25.414570	0.000830	20.744109
1245.334708	-2.997500	3.547100	-10.632000	25.399857	0.000830	20.720800
1246.336969	-3.006800	3.546300	-10.663000	25.420486	0.000830	20.724919
1247.339239	-2.991900	3.546000	-10.609000	25.447179	0.000830	20.744612
1248.337761	-2.997300	3.545700	-10.626000	25.479336	0.000830	20.746084
1249.341162	-2.999900	3.544600	-10.632000	25.501306	0.000829	20.722626
1250.338634	-3.029600	3.543800	-10.735000	25.501560	0.000826	20.739003
1251.338531	-3.004200	3.545100	-10.649000	25.528025	0.000827	20.746141
1252.337736	-2.996400	3.545900	-10.624000	25.472980	0.000826	20.736381
1253.338792	-2.985500	3.544300	-10.580000	25.436400	0.000826	20.727623
1254.338214	-3.001800	3.544100	-10.637000	25.418732	0.000824	20.736908
1255.337979	-3.026300	3.543400	-10.723000	25.357200	0.000828	20.734393
1256.339002	-3.027700	3.542600	-10.724000	25.353821	0.000824	20.731473
1257.338295	-3.030600	3.541700	-10.732000	25.354145	0.000825	20.735118
1258.338181	-3.008600	3.541100	-10.653000	25.388620	0.000823	20.756460
1259.341141	-2.995900	3.542100	-10.611000	25.410141	0.000823	20.755784
1260.339027	-2.988400	3.543500	-10.587000	25.415762	0.000825	20.747203
1261.342779	-3.002200	3.540700	-10.629000	25.424187	0.000822	20.745706
1262.341641	-3.010400	3.540700	-10.658000	25.426597	0.000822	20.729159
1263.339789	-2.994800	3.542500	-10.608000	25.386041	0.000822	20.743438
1264.339170	-3.016800	3.539100	-10.674000	25.409651	0.000820	20.730635
1265.342860	-3.016600	3.539600	-10.677000	25.414377	0.000818	20.729216
1266.340403	-3.011400	3.540200	-10.660000	25.422154	0.000819	20.752674
1267.338256	-2.999500	3.539900	-10.617000	25.433589	0.000818	20.752302
1268.345858	-2.987500	3.540300	-10.575000	25.452205	0.000817	20.735908
1269.339842	-3.008900	3.538800	-10.647000	25.477727	0.000819	20.740200
1270.340682	-2.987700	3.538900	-10.572000	25.484391	0.000816	20.754004
1271.343551	-2.993200	3.538500	-10.591000	25.509465	0.000816	20.740303
1272.341393	-2.998500	3.538900	-10.610000	25.509415	0.000818	20.746418
1273.342041	-2.976400	3.538800	-10.532000	25.517195	0.000816	20.737635
1274.343093	-3.007300	3.536700	-10.634000	25.510803	0.000814	20.755399
1275.340236	-2.991800	3.537400	-10.581000	25.489761	0.000816	20.747069
1276.339970	-2.983800	3.536800	-10.552000	25.487823	0.000815	20.746545
1277.343453	-2.992100	3.536200	-10.580000	25.517918	0.000813	20.758276
1278.341795	-3.004800	3.536600	-10.626000	25.535634	0.000813	20.759946
1279.342471	-3.014500	3.534400	-10.653000	25.539415	0.000812	20.751414
1280.343942	-3.004100	3.535700	-10.620000	25.515060	0.000813	20.760148
1281.343338	-3.003300	3.534000	-10.611000	25.520800	0.000814	20.774921
1282.342262	-3.022500	3.534000	-10.679000	25.551514	0.000812	20.766411
1283.347172	-3.016800	3.532400	-10.656000	25.560735	0.000814	20.759550
1284.342950	-3.015200	3.533400	-10.653000	25.552405	0.000812	20.754503
1285.342097	-3.010900	3.535300	-10.643000	25.560657	0.000811	20.758523
1286.342906	-3.021500	3.532600	-10.672000	25.547339	0.000811	20.757476
1287.342934	-2.979200	3.533100	-10.524000	25.535852	0.000810	20.741198
1288.342407	-3.000800	3.533500	-10.602000	25.551383	0.000809	20.760590
1289.345725	-2.999700	3.531800	-10.594000	25.524500	0.000808	20.738332
1290.343946	-3.011100	3.531700	-10.634000	25.536497	0.000809	20.776460
1291.343117	-3.015600	3.531500	-10.648000	25.556996	0.000808	20.761011
1292.347253	-3.015600	3.531500	-10.649000	25.551704	0.000806	20.769446
1293.345006	-2.989800	3.530400	-10.555000	25.579408	0.000806	20.772613
1294.344728	-2.998300	3.532400	-10.590000	25.628829	0.000806	20.765823
1295.347769	-2.993000	3.530100	-10.565000	25.630565	0.000805	20.771361
1296.345648	-3.003600	3.529300	-10.600000	25.634568	0.000804	20.765423
1297.344563	-3.014500	3.529200	-10.638000	25.634092	0.000803	20.776799
1298.349146	-3.000400	3.530100	-10.590000	25.584569	0.000804	20.774952
1299.348615	-3.006800	3.531200	-10.616000	25.586581	0.000804	20.774128
1300.345375	-3.016400	3.528400	-10.642000	25.577332	0.000805	20.773374
1301.349259	-3.009300	3.528300	-10.617000	25.594657	0.000803	20.783186
1302.344801	-2.966700	3.529200	-10.469000	25.572664	0.000803	20.781488
1303.345561	-2.984800	3.529300	-10.534000	25.574405	0.000800	20.787503
1304.349013	-3.014300	3.528400	-10.634000	25.565283	0.000800	20.784506
1305.346423	-2.985100	3.527700	-10.530000	25.583096	0.000800	20.781059
1306.349680	-3.040400	3.526800	-10.720000	25.575595	0.000799	20.774948
1307.350072	-2.998700	3.526800	-10.575000	25.592021	0.000799	20.789548
1308.347417	-3.000300	3.526400	-10.579000	25.615274	0.000798	20.757425
1309.347665	-2.976300	3.526200	-10.494000	25.604416	0.000799	20.770702
1310.357926	-2.984500	3.526100	-10.523000	25.624417	0.000798	20.786997
1311.347543	-3.014900	3.525300	-10.627000	25.635772	0.000798	20.779909
1312.347693	-2.999900	3.524500	-10.573000	25.649787	0.000799	20.803468
1313.349567	-3.013700	3.525200	-10.622000	25.667603	0.000794	20.803819
1314.348367	-3.026100	3.524300	-10.663000	25.669167	0.000796	20.785001
1315.347640	-3.006900	3.524100	-10.595000	25.663999	0.000797	20.799250
1316.348526	-3.037000	3.522500	-10.697000	25.661885	0.000796	20.799024
1317.348020	-2.991600	3.524100	-10.541000	25.649981	0.000794	20.773791
1318.346977	-2.985800	3.524700	-10.523000	25.642135	0.000796	20.785826
1319.349348	-3.002500	3.522200	-10.575000	25.648966	0.000796	20.796480
1320.350024	-2.993600	3.523300	-10.547000	25.631220	0.000794	20.799045
1321.346330	-3.023500	3.520600	-10.644000	25.637583	0.000792	20.797849
1322.348752	-2.986000	3.523300	-10.518000	25.647074	0.000794	20.782251
1323.348628	-2.993500	3.522200	-10.543000	25.652718	0.000792	20.789817
1324.347281	-3.001700	3.521300	-10.569000	25.610648	0.000791	20.804937
1325.351372	-3.002500	3.520800	-10.571000	25.604355	0.000789	20.775383
1326.350705	-2.986100	3.521000	-10.513000	25.604560	0.000790	20.800245
1327.352252	-3.000300	3.520900	-10.563000	25.626971	0.000790	20.799045
1328.354221	-2.987700	3.519400	-10.515000	25.628190	0.000789	20.804063
1329.353573	-2.991000	3.520000	-10.527000	25.598993	0.000789	20.815042
1330.354222	-2.995500	3.521400	-10.547000	25.606695	0.000789	20.807604
1331.353053	-2.987000	3.518500	-10.509000	25.587934	0.000788	20.809625
1332.354562	-2.992800	3.519000	-10.530000	25.559553	0.000788	20.790131
1333.352207	-2.980300	3.518200	-10.485000	25.531700	0.000789	20.820955
1334.354980	-2.964800	3.518600	-10.431000	25.554659	0.000785	20.801812
1335.351585	-3.030200	3.516400	-10.654000	25.551953	0.000784	20.808578
1336.353833	-3.010600	3.516400	-10.586000	25.545741	0.000786	20.810874
1337.358225	-2.978700	3.517400	-10.475000	25.538208	0.000784	20.795248
1338.353786	-2.992300	3.517800	-10.525000	25.547158	0.000786	20.802339
1339.367385	-2.981000	3.516900	-10.483000	25.535351	0.000784	20.831733
1340.355556	-2.998600	3.515200	-10.540000	25.517906	0.000784	20.806154
1341.357030	-2.979700	3.514800	-10.471000	25.487888	0.000783	20.799717
1342.355251	-3.013000	3.513400	-10.585000	25.507543	0.000783	20.821351
1343.356492	-2.971100	3.513800	-10.439000	25.541020	0.000782	20.808029
1344.355673	-2.982800	3.514800	-10.483000	25.539554	0.000782	20.797548
1345.355477	-3.014100	3.514200	-10.591000	25.558316	0.000779	20.819709
1346.357431	-3.004200	3.513200	-10.554000	25.575588	0.000779	20.817141
1347.355502	-2.993200	3.514200	-10.518000	25.580207	0.000781	20.808503
1348.364024	-3.007600	3.513000	-10.564000	25.562865	0.000782	20.795829
1349.357997	-2.994000	3.511600	-10.513000	25.577329	0.000778	20.814147
1350.357038	-3.004100	3.511400	-10.546000	25.599268	0.000775	20.825750
1351.356104	-2.999400	3.512700	-10.535000	25.610081	0.000776	20.808634
1352.358581	-3.024300	3.508600	-10.610000	25.622705	0.000778	20.826054
1353.356574	-3.019800	3.510300	-10.600000	25.624445	0.000776	20.811207
1354.358449	-2.963200	3.511600	-10.405000	25.629515	0.000775	20.836213
1355.359253	-2.990500	3.510100	-10.496000	25.653272	0.000776	20.816451
1356.360159	-2.990200	3.510400	-10.496000	25.651855	0.000775	20.816925
1357.357177	-3.013200	3.508800	-10.572000	25.620626	0.000775	20.827760
1358.358460	-2.990800	3.508000	-10.491000	25.543247	0.000777	20.836818
1359.360428	-2.977100	3.509900	-10.448000	25.504982	0.000774	20.823047
1360.358741	-3.000700	3.510100	-10.532000	25.470613	0.000776	20.808922
1361.358407	-2.994400	3.507700	-10.503000	25.497304	0.000775	20.826716
1362.361379	-3.011600	3.508600	-10.565000	25.483908	0.000772	20.813737
1363.360479	-3.020000	3.506900	-10.590000	25.523844	0.000773	20.819229
1364.361872	-3.025600	3.506000	-10.607000	25.542409	0.000770	20.832657
1365.360258	-2.988200	3.507400	-10.480000	25.571932	0.000769	20.822477
1366.361099	-3.019300	3.506300	-10.586000	25.592906	0.000771	20.836903
1367.361738	-2.995800	3.507100	-10.506000	25.621980	0.000769	20.842395
1368.365458	-2.984300	3.505600	-10.461000	25.652223	0.000768	20.828199
1369.363524	-3.006100	3.505200	-10.536000	25.662982	0.000769	20.844695
1370.364354	-3.001200	3.506400	-10.523000	25.643577	0.000767	20.823309
1371.366001	-2.988000	3.505300	-10.473000	25.630711	0.000768	20.829353
1372.367266	-3.015600	3.504400	-10.567000	25.619007	0.000768	20.834194
1373.366669	-3.021000	3.503700	-10.583000	25.615308	0.000768	20.828108
1374.366659	-2.985600	3.504200	-10.461000	25.584993	0.000766	20.856457
1375.366925	-3.044000	3.500700	-10.655000	25.624479	0.000766	20.851542
1376.367673	-2.989800	3.504000	-10.475000	25.613324	0.000765	20.857409
1377.370375	-3.000600	3.501200	-10.505000	25.637430	0.000763	20.837524
1378.369238	-2.996800	3.502900	-10.497000	25.638550	0.000764	20.844339
1379.369420	-3.009600	3.502300	-10.539000	25.639548	0.000765	20.831116
1380.376230	-2.997700	3.501700	-10.496000	25.637434	0.000762	20.846536
1381.375326	-3.006600	3.500700	-10.524000	25.635648	0.000761	20.831941
1382.370565	-3.021900	3.500600	-10.576000	25.636596	0.000764	20.821039
1383.373324	-2.996400	3.500600	-10.488000	25.659732	0.000762	20.837638
1384.375832	-3.021600	3.499700	-10.574000	25.623877	0.000761	20.842404
1385.375640	-2.995700	3.499800	-10.484000	25.621767	0.000759	20.825112
1386.374468	-2.987700	3.499700	-10.455000	25.618318	0.000759	20.857208
1387.378439	-2.991400	3.498600	-10.465000	25.623560	0.000762	20.837344
1388.373785	-2.972100	3.499900	-10.400000	25.653849	0.000759	20.844531
1389.374259	-2.996400	3.497600	-10.478000	25.683376	0.000759	20.837678
1390.377238	-2.975600	3.499300	-10.412000	25.682485	0.000761	20.862386
1391.380173	-2.983400	3.498800	-10.437000	25.691750	0.000758	20.864579
1392.374186	-3.010600	3.497500	-10.528000	25.678687	0.000756	20.832020
1393.377417	-2.996200	3.497000	-10.476000	25.658786	0.000757	20.845222
1394.374491	-2.978600	3.496300	-10.412000	25.683211	0.000759	20.846046
1395.374728	-2.977600	3.498100	-10.414000	25.698846	0.000758	20.830457
1396.375220	-2.978500	3.495700	-10.410000	25.725405	0.000759	20.856658
1397.374370	-2.995200	3.495400	-10.469000	25.750773	0.000758	20.858905
1398.374059	-3.001200	3.494800	-10.487000	25.756906	0.000756	20.847522
1399.374986	-2.991000	3.494900	-10.452000	25.745355	0.000757	20.855834
1400.377032	-2.989600	3.495300	-10.449000	25.774322	0.000758	20.851265
1401.373456	-2.995300	3.494800	-10.468000	25.742301	0.000756	20.849921
1402.376254	-3.013200	3.493100	-10.524000	25.720910	0.000756	20.881065
1403.377147	-2.960700	3.493800	-10.342000	25.710352	0.000754	20.850548
1404.377145	-3.021900	3.492700	-10.554000	25.663317	0.000754	20.860203
1405.376719	-2.996200	3.492900	-10.464000	25.663690	0.000753	20.861527
1406.377829	-2.973000	3.492700	-10.383000	25.638095	0.000752	20.858579
1407.377985	-2.995900	3.491500	-10.459000	25.656211	0.000752	20.855437
1408.375689	-3.002600	3.491300	-10.482000	25.660086	0.000754	20.862648
1409.376776	-3.005000	3.492000	-10.492000	25.682369	0.000753	20.863218
1410.376139	-2.977600	3.491600	-10.394000	25.697102	0.000752	20.861420
1411.376478	-2.982700	3.491500	-10.413000	25.700107	0.000750	20.823663
1412.377442	-2.997400	3.488900	-10.456000	25.684680	0.000749	20.863168
1413.377071	-2.998900	3.489500	-10.464000	25.651035	0.000751	20.858774
1414.377586	-2.975000	3.490800	-10.384000	25.664007	0.000750	20.847621
1415.377885	-3.008700	3.488900	-10.495000	25.678987	0.000747	20.856976
1416.379830	-2.980600	3.490200	-10.401000	25.698018	0.000747	20.848116
1417.383394	-2.979300	3.489800	-10.396000	25.692628	0.000747	20.863090
1418.377308	-3.014800	3.486000	-10.509000	25.683182	0.000747	20.845544
1419.382607	-2.991900	3.488000	-10.435000	25.679582	0.000747	20.840031
1420.379343	-3.011200	3.486900	-10.499000	25.641639	0.000746	20.847914
1421.379350	-2.998800	3.486500	-10.454000	25.632098	0.000744	20.847815
1422.379879	-3.026900	3.485500	-10.548000	25.609240	0.000745	20.832445
1423.388505	-2.999000	3.485800	-10.453000	25.617635	0.000746	20.864109
1424.383364	-3.012300	3.486300	-10.501000	25.605960	0.000744	20.844797
1425.386251	-3.004200	3.484800	-10.468000	25.625291	0.000743	20.840031
1426.387342	-3.008400	3.484200	-10.481000	25.664549	0.000744	20.845795
1427.384632	-3.015900	3.484300	-10.508000	25.685075	0.000742	20.847444
1428.385447	-2.998200	3.485500	-10.449000	25.698018	0.000741	20.855228
1429.383088	-2.992400	3.484200	-10.425000	25.734991	0.000743	20.852536
1430.388306	-3.020300	3.484800	-10.523000	25.746049	0.000741	20.823815
1431.382151	-3.005300	3.483300	-10.467000	25.738890	0.000741	20.835591
1432.391691	-3.004300	3.483700	-10.464000	25.743541	0.000741	20.847848
1433.385206	-2.995900	3.482500	-10.433000	25.715537	0.000741	20.842480
1434.383929	-2.984700	3.483200	-10.395000	25.724732	0.000740	20.822318
1435.385105	-3.006800	3.482400	-10.469000	25.719388	0.000739	20.837339
1436.384124	-2.996700	3.481200	-10.430000	25.724457	0.000737	20.837689
1437.385002	-2.982500	3.482600	-10.384000	25.751065	0.000739	20.857302
1438.385824	-2.982100	3.481900	-10.383000	25.764631	0.000738	20.835368
1439.386883	-2.985500	3.480800	-10.391000	25.769824	0.000737	20.846273
1440.386319	-2.997100	3.479400	-10.428000	25.769274	0.000737	20.858996
1441.385881	-2.989400	3.480500	-10.404000	25.781276	0.000737	20.835491
1442.391695	-2.996000	3.479200	-10.423000	25.798339	0.000737	20.833191
1443.389036	-3.011300	3.477900	-10.472000	25.726092	0.000735	20.827477
1444.388432	-3.017700	3.479100	-10.497000	25.709094	0.000734	20.822258
1445.390606	-3.012900	3.476900	-10.475000	25.733444	0.000735	20.819689
1446.388568	-3.002200	3.478300	-10.441000	25.728494	0.000735	20.815665
1447.389390	-2.993600	3.477600	-10.410000	25.735923	0.000734	20.822654
1448.395147	-3.009100	3.477200	-10.463000	25.732989	0.000732	20.804059
1449.391563	-2.997400	3.477000	-10.421000	25.720694	0.000733	20.825849
1450.391734	-2.988900	3.477000	-10.392000	25.726700	0.000730	20.817657
1451.397409	-3.007200	3.474500	-10.447000	25.748587	0.000731	20.837744
1452.392797	-2.979100	3.476000	-10.354000	25.754527	0.000732	20.828538
1453.395844	-3.028800	3.474500	-10.522000	25.774899	0.000730	20.828138
1454.394341	-3.004100	3.474000	-10.435000	25.796313	0.000730	20.836846
1455.395776	-3.014000	3.473700	-10.468000	25.802199	0.000729	20.813361
1456.395666	-3.017700	3.473100	-10.478000	25.841257	0.000730	20.832207
1457.395391	-2.999900	3.473300	-10.419000	25.822570	0.000728	20.803478
1458.396709	-2.999300	3.472400	-10.414000	25.833874	0.000728	20.807247
1459.398408	-3.013800	3.472300	-10.464000	25.825374	0.000727	20.834743
1460.395900	-2.994300	3.471900	-10.395000	25.822718	0.000727	20.795092
1461.395645	-3.004300	3.471200	-10.428000	25.826938	0.000725	20.829676
1462.398441	-2.992600	3.470700	-10.386000	25.832105	0.000726	20.831548
1463.396941	-2.990500	3.472400	-10.382000	25.816853	0.000728	20.814805
1464.400057	-3.010600	3.470600	-10.448000	25.815880	0.000726	20.824733
1465.396786	-2.987600	3.471500	-10.371000	25.816652	0.000726	20.821715
1466.398427	-2.998300	3.471400	-10.407000	25.811981	0.000726	20.826032
1467.398262	-3.016800	3.468700	-10.463000	25.789447	0.000724	20.815724
1468.398700	-3.017400	3.469500	-10.468000	25.750070	0.000723	20.810311
1469.404429	-3.005600	3.467800	-10.422000	25.688973	0.000724	20.819118
1470.399591	-3.026000	3.466600	-10.488000	25.650188	0.000723	20.806716
1471.401882	-2.990300	3.469400	-10.373000	25.604468	0.000722	20.797781
1472.398158	-2.998600	3.468200	-10.399000	25.635109	0.000721	20.810537
1473.398784	-2.997600	3.467400	-10.392000	25.658735	0.000722	20.803920
1474.398500	-2.985900	3.466600	-10.349000	25.683657	0.000722	20.807140
1475.398846	-2.992000	3.467100	-10.372000	25.672573	0.000720	20.822561
1476.398945	-3.009300	3.466400	-10.430000	25.673694	0.000721	20.817996
1477.399877	-2.995500	3.466300	-10.382000	25.687335	0.000718	20.819369
1478.403289	-3.002000	3.464600	-10.398000	25.691908	0.000717	20.808789
1479.400435	-3.016200	3.464100	-10.448000	25.718491	0.000719	20.825533
1480.402999	-2.995400	3.464200	-10.375000	25.726886	0.000719	20.820215
1481.402512	-2.990500	3.464500	-10.359000	25.771111	0.000720	20.808212
1482.402915	-3.006400	3.462100	-10.407000	25.762664	0.000717	20.815374
1483.399561	-3.031700	3.462100	-10.494000	25.750165	0.000718	20.814199
1484.407020	-2.974400	3.464200	-10.303000	25.693049	0.000718	20.813255
1485.401639	-2.972600	3.464300	-10.297000	25.700725	0.000718	20.816697
1486.402614	-2.995000	3.463100	-10.371000	25.717818	0.000716	20.816322
1487.406822	-3.002500	3.461000	-10.391000	25.740030	0.000719	20.817295
1488.401846	-2.989100	3.463500	-10.351000	25.719182	0.000715	20.810579
1489.402153	-2.990300	3.462600	-10.353000	25.690509	0.000715	20.796004
1490.405650	-3.005400	3.460500	-10.399000	25.677438	0.000715	20.804688
1491.403968	-2.979500	3.460500	-10.308000	25.687405	0.000717	20.818491
1492.403849	-2.982800	3.461800	-10.325000	25.674606	0.000715	20.808007
1493.410126	-2.996700	3.461000	-10.371000	25.670480	0.000715	20.814295
1494.404389	-2.982600	3.460100	-10.318000	25.621703	0.000715	20.812246
1495.404923	-2.994300	3.458600	-10.354000	25.596702	0.000716	20.810844
1496.408177	-3.009800	3.459100	-10.410000	25.597297	0.000712	20.810494
1497.403517	-3.021400	3.457200	-10.444000	25.572000	0.000714	20.806899
1498.405167	-3.002600	3.456800	-10.378000	25.550405	0.000713	20.815083
1499.403646	-3.001100	3.458300	-10.377000	25.560295	0.000712	20.792773
1500.405560	-3.013500	3.457100	-10.416000	25.583996	0.000712	20.801403
1501.404346	-3.002300	3.458100	-10.381000	25.591719	0.000712	20.794935
1502.404356	-3.014700	3.456400	-10.419000	25.583045	0.000710	20.828896
1503.406750	-2.996000	3.456800	-10.356000	25.601359	0.000710	20.801297
1504.404189	-3.014300	3.455400	-10.415000	25.576406	0.000709	20.792358
1505.406685	-2.988300	3.456700	-10.328000	25.594791	0.000709	20.795175
1506.405605	-2.998300	3.456000	-10.361000	25.629682	0.000707	20.811250
1507.405010	-2.995600	3.455700	-10.351000	25.657384	0.000707	20.817736
1508.407959	-3.023200	3.453500	-10.440000	25.683221	0.000706	20.797220
1509.404900	-3.013100	3.454600	-10.408000	25.708615	0.000707	20.796647
1510.409987	-2.986400	3.454500	-10.316000	25.697905	0.000705	20.774984
1511.410493	-2.967500	3.453400	-10.248000	25.728212	0.000706	20.809219
1512.407619	-2.996500	3.453700	-10.347000	25.740338	0.000704	20.783466
1513.410793	-3.008700	3.452800	-10.387000	25.765483	0.000704	20.799715
1514.410245	-3.007600	3.451600	-10.380000	25.776932	0.000703	20.786084
1515.406653	-3.020000	3.451200	-10.421000	25.779264	0.000703	20.813082
1516.410419	-3.004600	3.451700	-10.370000	25.796162	0.000702	20.780745
1517.412146	-2.993100	3.449800	-10.324000	25.786221	0.000704	20.800631
1518.408041	-2.962500	3.452300	-10.227000	25.748655	0.000702	20.784233
1519.409809	-2.999600	3.451000	-10.349000	25.720931	0.000699	20.799060
1520.412917	-2.991000	3.450900	-10.320000	25.715586	0.000700	20.792269
1521.408863	-3.018300	3.449500	-10.411000	25.711457	0.000700	20.795709
1522.413161	-2.997400	3.448400	-10.335000	25.711285	0.000699	20.780836
1523.410142	-3.029700	3.447700	-10.445000	25.744653	0.000698	20.793964
1524.412859	-2.999100	3.448900	-10.343000	25.727606	0.000699	20.793437
1525.414101	-2.974300	3.449900	-10.259000	25.766191	0.000697	20.792365
1526.411695	-2.978000	3.447100	-10.265000	25.743353	0.000698	20.804512
1527.412543	-2.994200	3.447800	-10.323000	25.739034	0.000698	20.789743
1528.415210	-3.005200	3.446900	-10.357000	25.771257	0.000696	20.791289
1529.413211	-2.990900	3.447400	-10.310000	25.784495	0.000697	20.814543
1530.414853	-3.014700	3.445500	-10.386000	25.794756	0.000698	20.796876
1531.414414	-3.009800	3.446800	-10.373000	25.800840	0.000696	20.788762
1532.414418	-2.999000	3.447100	-10.336000	25.792618	0.000696	20.797099
1533.415285	-3.008600	3.444600	-10.362000	25.725608	0.000695	20.780524
1534.415283	-3.006300	3.444200	-10.354000	25.691668	0.000693	20.795747
1535.418286	-3.001600	3.446300	-10.343000	25.707071	0.000692	20.778975
1536.416122	-3.011500	3.442800	-10.367000	25.690749	0.000695	20.788659
1537.416995	-2.977600	3.445000	-10.257000	25.696188	0.000692	20.783691
1538.419641	-2.987500	3.442500	-10.283000	25.692658	0.000689	20.771611
1539.419194	-3.004300	3.443100	-10.343000	25.719665	0.000691	20.789728
1540.418198	-2.998500	3.443500	-10.325000	25.720859	0.000691	20.789505
1541.421679	-2.984600	3.442000	-10.271000	25.716533	0.000691	20.795117
1542.420880	-2.991000	3.442800	-10.296000	25.746072	0.000689	20.783535
1543.418362	-2.996800	3.442500	-10.316000	25.756609	0.000690	20.786533
1544.421483	-2.996900	3.440300	-10.309000	25.781401	0.000690	20.779668
1545.419206	-2.992800	3.440200	-10.295000	25.795119	0.000688	20.777800
1546.420522	-2.991200	3.440600	-10.291000	25.800357	0.000687	20.799183
1547.420209	-2.991400	3.440700	-10.292000	25.820879	0.000690	20.786133
1548.419640	-2.988500	3.439100	-10.277000	25.820182	0.000687	20.799183
1549.418686	-3.001500	3.437800	-10.317000	25.799490	0.000687	20.781243
1550.418936	-2.999700	3.438700	-10.314000	25.828153	0.000686	20.776370
1551.418166	-2.999700	3.438400	-10.313000	25.825744	0.000686	20.772527
1552.420423	-3.001300	3.436900	-10.314000	25.829696	0.000685	20.773178
1553.420271	-2.977700	3.439000	-10.240000	25.825127	0.000684	20.776650
1554.428949	-3.001500	3.438000	-10.318000	25.837695	0.000685	20.759403
1555.421312	-2.983200	3.437600	-10.255000	25.832081	0.000685	20.772729
1556.421806	-3.003300	3.436800	-10.321000	25.812605	0.000682	20.780666
1557.422750	-3.002800	3.435100	-10.314000	25.783466	0.000681	20.771310
1558.423576	-3.004000	3.434800	-10.317000	25.727965	0.000679	20.759658
1559.421321	-3.010300	3.436200	-10.343000	25.718425	0.000681	20.791802
1560.421293	-2.984900	3.436000	-10.254000	25.682646	0.000682	20.764873
1561.420268	-3.004300	3.433900	-10.314000	25.695072	0.000682	20.778776
1562.424392	-3.008700	3.434100	-10.331000	25.669354	0.000680	20.765273
1563.427310	-3.009300	3.433800	-10.332000	25.689431	0.000680	20.787810
1564.421333	-3.015700	3.432200	-10.350000	25.674075	0.000679	20.763377
1565.425897	-2.988700	3.433900	-10.262000	25.657678	0.000679	20.771565
1566.423349	-3.004900	3.433100	-10.316000	25.644115	0.000678	20.770270
1567.427166	-2.992000	3.433400	-10.271000	25.655071	0.000678	20.755670
1568.425052	-3.005500	3.431300	-10.311000	25.657608	0.000677	20.759166
1569.421860	-3.004000	3.430800	-10.305000	25.660018	0.000676	20.761586
1570.425902	-3.012600	3.430800	-10.335000	25.718584	0.000677	20.745967
1571.427268	-2.998900	3.430400	-10.286000	25.723625	0.000676	20.771420
1572.421167	-2.998600	3.430500	-10.286000	25.713617	0.000674	20.775592
1573.426250	-2.999400	3.430300	-10.288000	25.749546	0.000674	20.772326
1574.428422	-3.016200	3.428400	-10.340000	25.793397	0.000674	20.782708
1575.422892	-3.022700	3.429300	-10.364000	25.775283	0.000673	20.770203
1576.424649	-3.010700	3.429500	-10.324000	25.735635	0.000673	20.744127
1577.426093	-2.993000	3.429300	-10.263000	25.743093	0.000672	20.755412
1578.423350	-2.997400	3.428900	-10.276000	25.750920	0.000672	20.745731
1579.425219	-3.024600	3.426300	-10.361000	25.771046	0.000670	20.749351
1580.421404	-2.997300	3.427400	-10.271000	25.815015	0.000672	20.754637
1581.423396	-3.021900	3.426100	-10.352000	25.807244	0.000670	20.749202
1582.425833	-2.994900	3.427800	-10.265000	25.844337	0.000670	20.746633
1583.428390	-2.997200	3.426100	-10.267000	25.851868	0.000671	20.753251
1584.422966	-3.005200	3.425400	-10.293000	25.852565	0.000670	20.735933
1585.422923	-3.002200	3.425100	-10.282000	25.862999	0.000669	20.731240
1586.424707	-2.999300	3.425700	-10.273000	25.854823	0.000669	20.747210
1587.421995	-2.992900	3.425600	-10.250000	25.881488	0.000669	20.749815
1588.421810	-3.004800	3.424900	-10.289000	25.873538	0.000670	20.748467
1589.424808	-3.004000	3.425200	-10.288000	25.886729	0.000669	20.726630
1590.423061	-2.994700	3.424200	-10.253000	25.829543	0.000667	20.739358
1591.422726	-3.019300	3.423800	-10.336000	25.844552	0.000666	20.769610
1592.423427	-3.020000	3.422400	-10.335000	25.836627	0.000668	20.748846
1593.424906	-2.984200	3.424000	-10.217000	25.848526	0.000665	20.738513
1594.423635	-2.996000	3.422000	-10.251000	25.904003	0.000666	20.733552
1595.425768	-2.982000	3.421900	-10.202000	25.879484	0.000666	20.749699
1596.426564	-3.007900	3.422400	-10.293000	25.915478	0.000667	20.754564
1597.429829	-2.976800	3.422500	-10.187000	25.968043	0.000665	20.773234
1598.426882	-2.985700	3.421300	-10.215000	25.958533	0.000665	20.720056
1599.425114	-2.989600	3.420500	-10.225000	25.933322	0.000666	20.728867
1600.425121	-2.992300	3.419800	-10.231000	25.911139	0.000665	20.749731
1601.424637	-3.014600	3.418400	-10.303000	25.846702	0.000665	20.744267
1602.425542	-3.004000	3.420400	-10.273000	25.842757	0.000663	20.730347
1603.423453	-3.006300	3.419800	-10.280000	25.834433	0.000662	20.746642
1604.425228	-3.001400	3.418000	-10.258000	25.858981	0.000662	20.714401
1605.425409	-2.975500	3.418800	-10.170000	25.888967	0.000662	20.733146
1606.425561	-3.015000	3.417900	-10.304000	25.909414	0.000661	20.730453
1607.426394	-3.001500	3.418400	-10.259000	25.906459	0.000660	20.738390
1608.427598	-3.012900	3.416400	-10.292000	25.899137	0.000659	20.716808
1609.426385	-2.991800	3.418700	-10.227000	25.922834	0.000660	20.724969
1610.425618	-3.014400	3.415100	-10.292000	25.938586	0.000658	20.753596
1611.424865	-2.987700	3.416200	-10.205000	25.927882	0.000660	20.730040
1612.431327	-3.007400	3.414700	-10.268000	25.941597	0.000657	20.724852
1613.424469	-2.983000	3.416600	-10.190000	25.931785	0.000657	20.724477
1614.428634	-3.029300	3.414600	-10.343000	25.920986	0.000657	20.697505
1615.427825	-2.997900	3.415100	-10.237000	25.890356	0.000657	20.721739
1616.426717	-3.029300	3.413200	-10.339000	25.855904	0.000658	20.729804
1617.427058	-2.989100	3.415700	-10.208000	25.839162	0.000656	20.710613
1618.428568	-3.002700	3.414400	-10.252000	25.835214	0.000656	20.727985
1619.428549	-2.988100	3.414600	-10.203000	25.844235	0.000654	20.724245
1620.426767	-3.014900	3.412700	-10.288000	25.874123	0.000655	20.726768
1621.430493	-3.013800	3.411900	-10.282000	25.900382	0.000654	20.706205
1622.427721	-2.989500	3.412000	-10.199000	25.937319	0.000654	20.720554
1623.432961	-2.983100	3.412500	-10.179000	25.937947	0.000654	20.703165
1624.427758	-2.980600	3.412200	-10.169000	25.945403	0.000653	20.722038
1625.427693	-3.022800	3.412900	-10.315000	25.959238	0.000654	20.735463
1626.428310	-3.001800	3.412100	-10.240000	25.924168	0.000652	20.713980
1627.427212	-3.002700	3.409700	-10.237000	25.917089	0.000651	20.717774
1628.427864	-2.999600	3.410700	-10.229000	25.930653	0.000651	20.717650
1629.433602	-3.011700	3.410200	-10.269000	25.964018	0.000652	20.718928
1630.428034	-2.996400	3.410500	-10.219000	25.966998	0.000649	20.731405
1631.433515	-3.000300	3.409400	-10.229000	25.938729	0.000650	20.706797
1632.429977	-2.989300	3.410000	-10.192000	25.947602	0.000649	20.707176
1633.431907	-2.994700	3.409300	-10.209000	25.944302	0.000648	20.715241
1634.431080	-2.993000	3.409500	-10.203000	25.958539	0.000648	20.703464
1635.429995	-3.001500	3.407700	-10.227000	25.944359	0.000649	20.711030
1636.434709	-2.992700	3.408400	-10.199000	25.968035	0.000649	20.709686
1637.433583	-2.993100	3.407300	-10.197000	25.972008	0.000648	20.713678
1638.429109	-3.028400	3.406700	-10.315000	25.980778	0.000645	20.695460
1639.435401	-3.003100	3.406000	-10.228000	25.980133	0.000647	20.707616
1640.429634	-2.994500	3.407300	-10.202000	26.000160	0.000646	20.728212
1641.430466	-2.980800	3.406200	-10.151000	25.985086	0.000647	20.707850
1642.430049	-3.003600	3.405500	-10.227000	25.953912	0.000646	20.693600
1643.434366	-2.987100	3.404900	-10.170000	25.964697	0.000644	20.707755
1644.431094	-3.008300	3.405000	-10.242000	25.961221	0.000647	20.710901
1645.430947	-2.983100	3.405700	-10.158000	25.928532	0.000644	20.702716
1646.435023	-2.995600	3.403700	-10.195000	25.907121	0.000643	20.707759
1647.432083	-2.991000	3.405100	-10.183000	25.905536	0.000644	20.698580
1648.431690	-2.973300	3.403200	-10.118000	25.881694	0.000643	20.712088
1649.434495	-3.021000	3.403400	-10.280000	25.840877	0.000643	20.712810
1650.434876	-2.995100	3.403600	-10.194000	25.849303	0.000642	20.695194
1651.432021	-2.988100	3.404200	-10.171000	25.864263	0.000643	20.707379
1652.436591	-3.005500	3.401800	-10.223000	25.894072	0.000642	20.703185
1653.435410	-2.986000	3.402200	-10.158000	25.906520	0.000640	20.728494
1654.432514	-3.003500	3.400600	-10.213000	25.896091	0.000640	20.711378
1655.436754	-2.997500	3.400400	-10.192000	25.886380	0.000638	20.724383
1656.436061	-2.983200	3.401700	-10.147000	25.812653	0.000640	20.713381
1657.436908	-3.000200	3.400400	-10.202000	25.804427	0.000639	20.698480
1658.439620	-2.996800	3.399700	-10.186000	25.766475	0.000638	20.706825
1659.440745	-2.990300	3.399600	-10.165000	25.734125	0.000638	20.707048
1660.433819	-3.000900	3.399600	-10.201000	25.731814	0.000637	20.699510
1661.436865	-2.984400	3.398000	-10.140000	25.786399	0.000636	20.712614
1662.433981	-3.007700	3.398300	-10.220000	25.759649	0.000638	20.699967
1663.434939	-2.998100	3.398600	-10.188000	25.763253	0.000636	20.713071
1664.433775	-3.010400	3.397800	-10.227000	25.735927	0.000634	20.715496
1665.436522	-2.993100	3.398800	-10.171000	25.745097	0.000635	20.714275
1666.434285	-3.018700	3.397600	-10.255000	25.774618	0.000635	20.705995
1667.433366	-2.993800	3.396800	-10.168000	25.787211	0.000635	20.712956
1668.437874	-2.977700	3.397000	-10.114000	25.797727	0.000634	20.724942
1669.435584	-2.985600	3.396700	-10.140000	25.826845	0.000632	20.724793
1670.436482	-2.984300	3.394800	-10.131000	25.825207	0.000630	20.728838
1671.441721	-2.995000	3.396400	-10.171000	25.870199	0.000633	20.722352
1672.440345	-2.977700	3.395600	-10.110000	25.874451	0.000631	20.700069
1673.437683	-2.989000	3.395300	-10.148000	25.883940	0.000633	20.698222
1674.439946	-3.008300	3.394200	-10.210000	25.927092	0.000633	20.713598
1675.435661	-2.964800	3.396000	-10.067000	25.905660	0.000630	20.720043
1676.437987	-3.004800	3.394200	-10.199000	25.961701	0.000629	20.701900
1677.439848	-3.015800	3.393200	-10.232000	25.990416	0.000629	20.712732
1678.441150	-2.993200	3.394100	-10.158000	25.996851	0.000627	20.714455
1679.438084	-3.009900	3.391800	-10.208000	25.997331	0.000628	20.708299
1680.437338	-2.998600	3.393300	-10.175000	25.988832	0.000628	20.721572
1681.438936	-3.011700	3.390800	-10.211000	25.986107	0.000626	20.705557
1682.444216	-3.002500	3.392200	-10.184000	25.988171	0.000628	20.718537
1683.439119	-3.004400	3.390800	-10.186000	25.929201	0.000626	20.719036
1684.444326	-2.998400	3.391600	-10.169000	25.899794	0.000627	20.716520
1685.441411	-3.008400	3.389600	-10.196000	25.848794	0.000626	20.734989
1686.441072	-3.008700	3.390200	-10.199000	25.834761	0.000625	20.736539
1687.445424	-2.992500	3.389600	-10.142000	25.798517	0.000626	20.734271
1688.453354	-3.005900	3.390000	-10.189000	25.786766	0.000624	20.717724
1689.442029	-2.989900	3.388700	-10.130000	25.800508	0.000624	20.713510
1690.441607	-3.025600	3.388700	-10.253000	25.814767	0.000625	20.720248
1691.445284	-3.001100	3.388400	-10.166000	25.831563	0.000623	20.712937
1692.443094	-3.020200	3.387800	-10.230000	25.808959	0.000621	20.720103
1693.443024	-2.986500	3.388200	-10.119000	25.824339	0.000620	20.709947
1694.446683	-2.995900	3.387800	-10.149000	25.803447	0.000621	20.711720
1695.445181	-3.004800	3.386900	-10.175000	25.787324	0.000620	20.711646
1696.450442	-2.993400	3.387200	-10.138000	25.762433	0.000620	20.718412
1697.448470	-3.012500	3.387000	-10.202000	25.816171	0.000620	20.715493
1698.445164	-3.009800	3.385500	-10.189000	25.844344	0.000621	20.730044
1699.449691	-2.999400	3.385900	-10.154000	25.823308	0.000619	20.728354
1700.449430	-3.018000	3.384200	-10.212000	25.861344	0.000618	20.729578
1701.446425	-2.998100	3.386000	-10.151000	25.885441	0.000618	20.726284
1702.446715	-2.996900	3.385500	-10.145000	25.908297	0.000617	20.735021
1703.451437	-3.016400	3.384000	-10.206000	25.936242	0.000616	20.735120
1704.447062	-2.980800	3.384800	-10.088000	25.923281	0.000616	20.703131
1705.446288	-2.993500	3.384700	-10.131000	25.982178	0.000618	20.732905
1706.451093	-3.004100	3.382800	-10.162000	25.991514	0.000615	20.724267
1707.447910	-3.004100	3.383300	-10.163000	26.050559	0.000617	20.730485
1708.450078	-3.012000	3.382600	-10.187000	26.053419	0.000615	20.719133
1709.450642	-2.996400	3.382200	-10.134000	26.026126	0.000614	20.719686
1710.451369	-3.002500	3.381800	-10.152000	25.983479	0.000615	20.727100
1711.449051	-3.023400	3.381500	-10.223000	25.965146	0.000613	20.734287
1712.449033	-3.008600	3.381800	-10.173000	25.922772	0.000612	20.719690
1713.449854	-2.984700	3.381800	-10.093000	25.918725	0.000614	20.721315
1714.453306	-2.990700	3.381400	-10.112000	25.884270	0.000609	20.752610
1715.452266	-2.984200	3.381600	-10.089000	25.883380	0.000612	20.740809
1716.454426	-2.998900	3.381500	-10.140000	25.891354	0.000611	20.736018
1717.453511	-2.988600	3.380200	-10.102000	25.885719	0.000610	20.734624
1718.454954	-2.996500	3.379500	-10.126000	25.902062	0.000610	20.730654
1719.451742	-3.015700	3.379500	-10.190000	25.927356	0.000610	20.744685
1720.451936	-2.994600	3.378400	-10.116000	25.976814	0.000611	20.720877
1721.452473	-2.995900	3.379100	-10.122000	25.954685	0.000611	20.743691
1722.452313	-3.026000	3.377300	-10.218000	25.946736	0.000608	20.728592
1723.457261	-3.007900	3.376800	-10.156000	25.954316	0.000609	20.726250
1724.456575	-2.980800	3.377100	-10.066000	25.934690	0.000608	20.721232
1725.451433	-2.996100	3.378300	-10.121000	25.936951	0.000607	20.739626
1726.458308	-3.009500	3.377000	-10.162000	25.951886	0.000606	20.733767
1727.454974	-2.984900	3.377800	-10.081000	25.958719	0.000607	20.728303
1728.454099	-2.999200	3.375600	-10.123000	25.935741	0.000606	20.726555
1729.459998	-2.980200	3.376900	-10.062000	25.919895	0.000606	20.750940
1730.462982	-2.988400	3.375900	-10.088000	25.972582	0.000605	20.747448
1731.457817	-3.012900	3.374200	-10.165000	25.976662	0.000605	20.737795
1732.462007	-2.996300	3.374600	-10.109000	26.005524	0.000604	20.731231
1733.456810	-2.988900	3.376200	-10.090000	26.027085	0.000605	20.751472
1734.457335	-2.982800	3.375500	-10.067000	26.040275	0.000603	20.744809
1735.463125	-2.971800	3.375500	-10.030000	26.072193	0.000605	20.733255
1736.458165	-2.988700	3.372500	-10.078000	26.082899	0.000601	20.750177
1737.456677	-2.993100	3.372000	-10.092000	26.124352	0.000602	20.745361
1738.462041	-2.996600	3.372600	-10.105000	26.127634	0.000602	20.734909
1739.460130	-3.042700	3.372200	-10.258000	26.119760	0.000601	20.746437
1740.457417	-3.021900	3.371900	-10.189000	26.129571	0.000600	20.749183
1741.456025	-2.981000	3.372800	-10.053000	26.138217	0.000601	20.740801
1742.462749	-2.989100	3.371700	-10.078000	26.156448	0.000598	20.743473
1743.471812	-3.007200	3.370900	-10.136000	26.200971	0.000599	20.739374
1744.463954	-2.995200	3.371800	-10.098000	26.211483	0.000597	20.750412
1745.463017	-2.990200	3.370600	-10.078000	26.214712	0.000596	20.745596
1746.460976	-2.995100	3.368900	-10.090000	26.206666	0.000597	20.737985
1747.460235	-3.010700	3.368900	-10.142000	26.218142	0.000597	20.753785
1748.461531	-3.014500	3.369700	-10.155000	26.226709	0.000595	20.731099
1749.461843	-3.015700	3.369400	-10.159000	26.206124	0.000596	20.758304
1750.461944	-2.998700	3.369100	-10.102000	26.232150	0.000596	20.741782
1751.461893	-2.999100	3.367900	-10.099000	26.225171	0.000595	20.748994
1752.462406	-2.983400	3.368100	-10.047000	26.208508	0.000596	20.762596
1753.464134	-2.980100	3.369100	-10.039000	26.203741	0.000595	20.766340
1754.464933	-2.982700	3.368100	-10.045000	26.198874	0.000593	20.747225
1755.464129	-2.967000	3.369000	-9.993800	26.142948	0.000595	20.753142
1756.463907	-3.001700	3.368100	-10.108000	26.149205	0.000594	20.737618
1757.467901	-3.003500	3.365300	-10.106000	26.140190	0.000593	20.752268
1758.473049	-3.003600	3.366900	-10.112000	26.132025	0.000592	20.745485
1759.465779	-2.966500	3.366900	-9.987100	26.152086	0.000591	20.782713
1760.468910	-2.995900	3.367600	-10.087000	26.159566	0.000591	20.749451
1761.466161	-3.002000	3.364700	-10.100000	26.169028	0.000590	20.767020
1762.465794	-3.003000	3.364800	-10.104000	26.189716	0.000589	20.752721
1763.466458	-3.001400	3.365100	-10.100000	26.198087	0.000588	20.775832
1764.466090	-3.013200	3.364600	-10.137000	26.226447	0.000588	20.753121
1765.467355	-2.994400	3.363800	-10.071000	26.238493	0.000588	20.744837
1766.468464	-3.003100	3.363200	-10.099000	26.245074	0.000586	20.752400
1767.468727	-3.000700	3.364100	-10.094000	26.213736	0.000588	20.774013
1768.467574	-3.008000	3.363200	-10.115000	26.164215	0.000588	20.756494
1769.467895	-2.985800	3.363500	-10.041000	26.171396	0.000586	20.774141
1770.468962	-2.992000	3.364100	-10.065000	26.136108	0.000585	20.759071
1771.469564	-3.002800	3.362100	-10.095000	26.116108	0.000585	20.770269
1772.468297	-3.008000	3.364100	-10.118000	26.091848	0.000587	20.760118
1773.471069	-3.013900	3.362100	-10.132000	26.095821	0.000586	20.753678
1774.468675	-2.998000	3.361200	-10.076000	26.121873	0.000584	20.762786
1775.468045	-2.990200	3.360600	-10.047000	26.123839	0.000585	20.769028
1776.472230	-3.001100	3.360600	-10.084000	26.117331	0.000583	20.752057
1777.472615	-3.011500	3.359300	-10.115000	26.105710	0.000584	20.765511
1778.472775	-2.987900	3.361100	-10.041000	26.070617	0.000583	20.773399
1779.478854	-2.996500	3.360200	-10.068000	26.108767	0.000584	20.768109
1780.472711	-2.997500	3.360100	-10.071000	26.123494	0.000583	20.769156
1781.472921	-3.009400	3.359200	-10.107000	26.151159	0.000583	20.776566
1782.472359	-2.991100	3.360900	-10.051000	26.134196	0.000582	20.768055
1783.473317	-2.987800	3.358300	-10.033000	26.144704	0.000580	20.752061
1784.474863	-3.004300	3.356600	-10.084000	26.147379	0.000581	20.794105
1785.473670	-2.998000	3.358200	-10.067000	26.155725	0.000581	20.771197
1786.476830	-3.004600	3.356600	-10.084000	26.150457	0.000579	20.777283
1787.480924	-3.007100	3.356100	-10.091000	26.100888	0.000581	20.780107
1788.473678	-2.995900	3.357000	-10.056000	26.069817	0.000578	20.787294
1789.477181	-2.989200	3.356100	-10.032000	25.999073	0.000577	20.779753
1790.477919	-3.013000	3.356100	-10.111000	26.001683	0.000578	20.783797
1791.475230	-3.000100	3.355600	-10.065000	26.033376	0.000578	20.793355
1792.479173	-2.993600	3.355700	-10.045000	26.071675	0.000576	20.769721
1793.481177	-2.993000	3.356700	-10.046000	26.095267	0.000575	20.784890
1794.476459	-3.005100	3.354300	-10.079000	26.120847	0.000574	20.783092
1795.479330	-2.996200	3.354800	-10.051000	26.129522	0.000575	20.764307
1796.476679	-2.987600	3.355000	-10.022000	26.145291	0.000574	20.780627
1797.476591	-2.983800	3.355000	-10.010000	26.157215	0.000573	20.785496
1798.479962	-3.009400	3.352500	-10.088000	26.169356	0.000573	20.774463
1799.476460	-3.004900	3.353900	-10.078000	26.177875	0.000572	20.793928
1800.480110	-3.003400	3.352800	-10.068000	26.153362	0.000572	20.801065
1801.480265	-3.007000	3.352200	-10.079000	26.155746	0.000572	20.794926
1802.479025	-2.990900	3.352200	-10.025000	26.177948	0.000572	20.775036
1803.478656	-3.002400	3.351700	-10.062000	26.176484	0.000571	20.804384
1804.489068	-3.008000	3.351200	-10.079000	26.171219	0.000571	20.793878
1805.485103	-2.993600	3.353100	-10.037000	26.159197	0.000570	20.792229
1806.483661	-2.999400	3.350000	-10.047000	26.190939	0.000569	20.807530
1807.484126	-2.985400	3.352000	-10.006000	26.203876	0.000567	20.785917
1808.481058	-2.961000	3.351600	-9.922900	26.207429	0.000567	20.796600
1809.482950	-2.990900	3.349900	-10.017000	26.176114	0.000566	20.785047
1810.483406	-2.992300	3.349600	-10.022000	26.117774	0.000567	20.796600
1811.486455	-2.982400	3.350000	-9.990200	26.120757	0.000567	20.789166
1812.484969	-2.987900	3.348900	-10.005000	26.125624	0.000566	20.779831
1813.483454	-2.983200	3.350200	-9.993400	26.147905	0.000565	20.823556
1814.484868	-3.013300	3.348400	-10.088000	26.167773	0.000564	20.788993
1815.485340	-3.003100	3.347500	-10.052000	26.201521	0.000564	20.803465
1816.484057	-2.991700	3.347300	-10.012000	26.184390	0.000564	20.827028
1817.484477	-2.980200	3.348800	-9.979000	26.186499	0.000562	20.801646
1818.484131	-2.983700	3.346900	-9.985100	26.196113	0.000563	20.807513
1819.485650	-3.028400	3.345000	-10.129000	26.198895	0.000561	20.793239
1820.485640	-2.993900	3.346200	-10.016000	26.217129	0.000562	20.813933
1821.485946	-2.985200	3.347700	-9.992100	26.246805	0.000560	20.813884
1822.485380	-2.984900	3.346100	-9.986900	26.262946	0.000561	20.814931
1823.485724	-2.976100	3.346400	-9.958100	26.260271	0.000561	20.807975
1824.488429	-3.001000	3.345500	-10.039000	26.265584	0.000560	20.814263
1825.486434	-3.002100	3.346300	-10.045000	26.233824	0.000559	20.819330
1826.486341	-2.987000	3.344100	-9.986600	26.210187	0.000559	20.807431
1827.489905	-2.991300	3.343800	-10.001000	26.203380	0.000558	20.811496
1828.493234	-3.000700	3.343700	-10.033000	26.201053	0.000558	20.806788
1829.486817	-2.972800	3.343400	-9.938000	26.231374	0.000557	20.820662
1830.494170	-2.985500	3.343300	-9.979500	26.225811	0.000557	20.823606
1831.490240	-3.018200	3.342200	-10.086000	26.174412	0.000556	20.815578
1832.487122	-2.996900	3.343000	-10.017000	26.227185	0.000556	20.805073
1833.486260	-2.988000	3.342400	-9.986100	26.232876	0.000556	20.830231
1834.487210	-2.981900	3.342700	-9.966900	26.245571	0.000558	20.825445
1835.486223	-3.015400	3.340200	-10.071000	26.270848	0.000556	20.822398
1836.486463	-3.015000	3.341200	-10.072000	26.322255	0.000554	20.811946
1837.486298	-3.005300	3.342500	-10.045000	26.303461	0.000553	20.807757
1838.488254	-2.998000	3.340000	-10.012000	26.324397	0.000553	20.809357
1839.488068	-3.036300	3.337900	-10.133000	26.318042	0.000556	20.812453
1840.490528	-2.992400	3.338700	-9.990100	26.327281	0.000553	20.823161
1841.490927	-2.997000	3.339500	-10.007000	26.316134	0.000552	20.812907
1842.490084	-3.008800	3.338700	-10.044000	26.312212	0.000552	20.825086
1843.490100	-3.001200	3.338400	-10.019000	26.268982	0.000551	20.818152
1844.490512	-3.020400	3.337500	-10.078000	26.273356	0.000552	20.829659
1845.491290	-3.003600	3.338100	-10.025000	26.301197	0.000552	20.815439
1846.489146	-3.006600	3.337200	-10.032000	26.321435	0.000549	20.844786
1847.491988	-2.995300	3.338100	-9.998100	26.330153	0.000551	20.836004
1848.494541	-2.991900	3.337500	-9.984800	26.336041	0.000550	20.825326
1849.491035	-2.972700	3.338700	-9.923300	26.345973	0.000548	20.833885
1850.493268	-3.026500	3.334100	-10.089000	26.316525	0.000547	20.818515
1851.491755	-2.996500	3.335500	-9.994400	26.299490	0.000548	20.816569
1852.493470	-3.013100	3.335000	-10.048000	26.296138	0.000547	20.841649
1853.495479	-2.989600	3.336600	-9.973800	26.313600	0.000546	20.844023
1854.495677	-2.990800	3.335900	-9.976500	26.292192	0.000547	20.827725
1855.494967	-2.990000	3.336700	-9.975400	26.315035	0.000544	20.845941
1856.495522	-2.995600	3.334500	-9.988100	26.356832	0.000545	20.832945
1857.495673	-3.010600	3.333200	-10.033000	26.339573	0.000544	20.813229
1858.494009	-2.976200	3.335000	-9.924800	26.315544	0.000545	20.840288
1859.497820	-2.998200	3.332500	-9.990100	26.300442	0.000544	20.834594
1860.493669	-2.993100	3.333600	-9.977000	26.340004	0.000542	20.816981
1861.494066	-2.997500	3.332400	-9.987600	26.320307	0.000545	20.842704
1862.497382	-3.001400	3.334300	-10.007000	26.334987	0.000542	20.833749
1863.495560	-3.002500	3.332400	-10.005000	26.343105	0.000541	20.849969
1864.494358	-3.014300	3.330900	-10.039000	26.334191	0.000540	20.835320
1865.493437	-3.005600	3.332400	-10.015000	26.351475	0.000540	20.829931
1866.494203	-2.994300	3.331300	-9.974200	26.362773	0.000539	20.835596
1867.494605	-3.004900	3.330400	-10.007000	26.382990	0.000540	20.852121
1868.497642	-3.000900	3.329600	-9.990700	26.384228	0.000537	20.850521
1869.498333	-3.003600	3.330300	-10.002000	26.442107	0.000538	20.849425
1870.497197	-3.007800	3.329400	-10.012000	26.448761	0.000536	20.853741
1871.497571	-2.978800	3.330700	-9.920600	26.451218	0.000538	20.852418
1872.500267	-3.000100	3.328800	-9.986400	26.396847	0.000536	20.848980
1873.510897	-2.980100	3.328500	-9.917900	26.417502	0.000539	20.849825
1874.497786	-2.993900	3.329200	-9.966500	26.410430	0.000539	20.835605
1875.505311	-3.003400	3.327100	-9.991500	26.388458	0.000537	20.839126
1876.501776	-2.978300	3.328900	-9.913700	26.436721	0.000536	20.849227
1877.499677	-3.008700	3.327300	-10.009000	26.459615	0.000535	20.853272
1878.498472	-2.987500	3.326000	-9.934800	26.483879	0.000535	20.858693
1879.498507	-3.019200	3.325400	-10.039000	26.483477	0.000533	20.857341
1880.498506	-3.013100	3.326000	-10.020000	26.459816	0.000535	20.852051
1881.499010	-3.003000	3.326300	-9.988100	26.477718	0.000531	20.845863
1882.504941	-3.023800	3.324400	-10.052000	26.482185	0.000534	20.848930
1883.499279	-3.017500	3.325200	-10.032000	26.473919	0.000535	20.849631
1884.500279	-3.001400	3.325300	-9.980300	26.478735	0.000535	20.874385
1885.501508	-3.022800	3.325100	-10.051000	26.483497	0.000531	20.855465
1886.502406	-2.993400	3.324900	-9.951700	26.508753	0.000530	20.862358
1887.503991	-2.971600	3.325500	-9.881100	26.492833	0.000530	20.852995
1888.503158	-2.978400	3.323000	-9.896400	26.479777	0.000529	20.863105
1889.504647	-3.005600	3.323800	-9.987900	26.479654	0.000530	20.853024
1890.504862	-2.997800	3.324100	-9.964200	26.500931	0.000530	20.856867
1891.504081	-2.976800	3.323400	-9.891600	26.530173	0.000529	20.847380
1892.507307	-3.000500	3.322300	-9.967600	26.568704	0.000528	20.857188
1893.509550	-3.003300	3.323700	-9.980900	26.557585	0.000528	20.851227
1894.505373	-3.014800	3.322300	-10.015000	26.554931	0.000527	20.848559
1895.509553	-3.002900	3.322000	-9.974800	26.527892	0.000526	20.828967
1896.506589	-3.017800	3.321000	-10.022000	26.526698	0.000527	20.869491
1897.508848	-3.001100	3.319900	-9.962400	26.517166	0.000527	20.844737
1898.511774	-3.018600	3.321200	-10.024000	26.532540	0.000528	20.849285
1899.509641	-3.000700	3.320800	-9.963900	26.532909	0.000523	20.839699
1900.508909	-2.992300	3.321500	-9.938200	26.528713	0.000525	20.851602
1901.516561	-3.004400	3.319200	-9.972000	26.512851	0.000523	20.827598
1902.510787	-3.020900	3.318600	-10.024000	26.509397	0.000523	20.844040
1903.510746	-3.000700	3.319000	-9.958800	26.519529	0.000521	20.869396
1904.512683	-3.011400	3.319600	-9.994600	26.497333	0.000522	20.848510
1905.510210	-2.989600	3.319400	-9.921900	26.502178	0.000522	20.828724
1906.509454	-2.987000	3.318700	-9.912000	26.464911	0.000521	20.842474
1907.510447	-2.999600	3.316700	-9.947800	26.470375	0.000522	20.844173
1908.513941	-3.004000	3.317200	-9.964500	26.433530	0.000520	20.820890
1909.512635	-3.006700	3.317900	-9.974400	26.468817	0.000520	20.825537
1910.514350	-3.012000	3.317100	-9.990100	26.456773	0.000519	20.830501
1911.516905	-3.012400	3.316500	-9.989600	26.467422	0.000518	20.832670
1912.513972	-3.015500	3.315500	-9.996800	26.474670	0.000517	20.827627
1913.516904	-3.007700	3.314400	-9.968000	26.507026	0.000517	20.844977
1914.517734	-2.998100	3.315400	-9.938700	26.501862	0.000516	20.830303
1915.521747	-3.005800	3.315400	-9.963700	26.516014	0.000517	20.826036
1916.514647	-3.006200	3.315000	-9.964100	26.536871	0.000514	20.827562
1917.521093	-2.999700	3.313800	-9.939700	26.549632	0.000514	20.828535
1918.517263	-2.983700	3.315000	-9.890200	26.536822	0.000515	20.847900
1919.517244	-2.982900	3.314900	-9.887700	26.528303	0.000512	20.815630
1920.517382	-3.024800	3.312800	-10.020000	26.545141	0.000513	20.824020
1921.518147	-2.999500	3.313200	-9.936500	26.538410	0.000512	20.827211
1922.517780	-3.007100	3.313100	-9.960900	26.493896	0.000512	20.832253
1923.517739	-3.008300	3.313600	-9.966300	26.499385	0.000513	20.803158
1924.518929	-3.000900	3.311500	-9.936400	26.507876	0.000510	20.829710
1925.517339	-2.974200	3.313800	-9.854400	26.485877	0.000514	20.818503
1926.518529	-2.988600	3.312000	-9.897300	26.437165	0.000512	20.815535
1927.519595	-2.994100	3.311400	-9.913800	26.414328	0.000509	20.828143
1928.517702	-3.000500	3.310100	-9.930800	26.405040	0.000509	20.798894
1929.518265	-2.999800	3.311400	-9.932400	26.416412	0.000510	20.823125
1930.520201	-2.988600	3.310500	-9.892400	26.434088	0.000509	20.820977
1931.519531	-2.987400	3.309200	-9.884300	26.444692	0.000506	20.808876
1932.519486	-2.982200	3.310200	-9.871200	26.438958	0.000508	20.815440
1933.519597	-3.004200	3.308800	-9.938200	26.407301	0.000506	20.833408
1934.521341	-2.992000	3.308900	-9.899900	26.382416	0.000505	20.824045
1935.525249	-2.977500	3.309000	-9.851200	26.383064	0.000505	20.795299
1936.519775	-2.974300	3.308800	-9.839600	26.337478	0.000504	20.802115
1937.524091	-2.986000	3.306500	-9.872500	26.328411	0.000501	20.806279
1938.529284	-2.989300	3.307800	-9.887400	26.314557	0.000503	20.832184
1939.521441	-3.010400	3.306400	-9.952300	26.332780	0.000503	20.799290
1940.523722	-2.979700	3.307800	-9.854300	26.362355	0.000503	20.806254
1941.520702	-2.993900	3.306300	-9.898400	26.402485	0.000501	20.797748
1942.520680	-2.996200	3.305700	-9.903400	26.431459	0.000501	20.810748
1943.522501	-2.993200	3.305600	-9.892400	26.449857	0.000500	20.808852
1944.527917	-3.006000	3.305000	-9.934000	26.472049	0.000500	20.813614
1945.523558	-2.983100	3.305400	-9.857900	26.446506	0.000500	20.815440
1946.523777	-2.996400	3.303400	-9.896500	26.442535	0.000498	20.812872
1947.524621	-2.985300	3.305400	-9.866100	26.411276	0.000500	20.795679
1948.523836	-2.982300	3.304800	-9.855200	26.429022	0.000499	20.807825
1949.524734	-2.959900	3.304300	-9.778800	26.454619	0.000499	20.823595
1950.525025	-3.007900	3.302800	-9.933000	26.469297	0.000498	20.810847
1951.528174	-3.003500	3.302800	-9.918100	26.412757	0.000496	20.822297
1952.533336	-3.000600	3.302400	-9.908300	26.413508	0.000497	20.801240
1953.528479	-2.990000	3.302700	-9.872400	26.426840	0.000494	20.794726
1954.526125	-2.990300	3.302500	-9.874000	26.433567	0.000497	20.788211
1955.526346	-3.020100	3.301300	-9.969100	26.465100	0.000495	20.799043
1956.527854	-3.009900	3.300800	-9.932800	26.495537	0.000495	20.804506
1957.526568	-3.005400	3.300400	-9.918000	26.502617	0.000493	20.793605
1958.525402	-3.022800	3.299100	-9.970300	26.527540	0.000494	20.784043
1959.532552	-3.007000	3.299200	-9.919500	26.530374	0.000494	20.798746
1960.528543	-3.011800	3.299900	-9.937800	26.520120	0.000492	20.802663
1961.526512	-3.010700	3.298400	-9.929500	26.508548	0.000490	20.796247
1962.528901	-2.994100	3.299700	-9.879000	26.465621	0.000491	20.798144
1963.529346	-2.987600	3.298800	-9.854500	26.433957	0.000490	20.801405
1964.529263	-2.989500	3.299300	-9.862300	26.462541	0.000489	20.803108
1965.530720	-2.967800	3.299700	-9.792300	26.493498	0.000488	20.801982
1966.532366	-3.008200	3.297500	-9.918400	26.519521	0.000487	20.786414
1967.537153	-2.982700	3.298100	-9.836600	26.532130	0.000486	20.785338
1968.531931	-2.983700	3.297700	-9.838600	26.558418	0.000485	20.782365
1969.533463	-2.997200	3.298500	-9.885400	26.589623	0.000486	20.787180
1970.531852	-2.965300	3.297300	-9.776800	26.593671	0.000489	20.794569
1971.537501	-2.991500	3.296700	-9.861200	26.625598	0.000485	20.784938
1972.529459	-3.017000	3.296200	-9.943000	26.648807	0.000487	20.783614
1973.533144	-3.030900	3.294400	-9.983900	26.673259	0.000486	20.789704
1974.534577	-2.964100	3.296000	-9.768800	26.674920	0.000482	20.805598
1975.530996	-2.989600	3.296500	-9.854400	26.708759	0.000483	20.779874
1976.532457	-3.020900	3.293400	-9.947400	26.712676	0.000484	20.792821
1977.533090	-3.003900	3.294200	-9.894300	26.723523	0.000484	20.794243
1978.533726	-2.974500	3.293500	-9.795800	26.732857	0.000482	20.792722
1979.533851	-3.022500	3.293100	-9.951900	26.717794	0.000482	20.784216
1980.532842	-3.000200	3.293300	-9.879700	26.744426	0.000481	20.785387
1981.533214	-3.043100	3.291400	-10.015000	26.781236	0.000479	20.771187
1982.535374	-3.009300	3.292100	-9.905100	26.720501	0.000480	20.772238
1983.539621	-2.999700	3.291000	-9.869700	26.675917	0.000480	20.788582
1984.533520	-2.987100	3.292000	-9.833000	26.687782	0.000480	20.773009
1985.536382	-2.979300	3.291800	-9.805700	26.663408	0.000478	20.782171
1986.534824	-2.991300	3.291300	-9.843600	26.645584	0.000476	20.766148
1987.535658	-2.987600	3.290600	-9.829100	26.611452	0.000477	20.783045
1988.538970	-2.970400	3.291500	-9.775700	26.542988	0.000476	20.782975
1989.536633	-2.994800	3.288400	-9.847000	26.509020	0.000474	20.782023
1990.537446	-3.011900	3.289500	-9.906600	26.518508	0.000475	20.803888
1991.537332	-3.002000	3.289400	-9.873200	26.531667	0.000473	20.777759
1992.538224	-2.987300	3.289200	-9.823700	26.532266	0.000474	20.778836
1993.539246	-3.000400	3.289100	-9.867400	26.537651	0.000474	20.784724
1994.537722	-3.041400	3.287400	-9.996600	26.560523	0.000470	20.777368
1995.542887	-3.003500	3.288700	-9.875400	26.606866	0.000471	20.792186
1996.543211	-3.000200	3.286100	-9.857900	26.589345	0.000472	20.777418
1997.539670	-2.985000	3.288000	-9.813200	26.548927	0.000472	20.787997
1998.541073	-2.999000	3.286400	-9.855000	26.510300	0.000471	20.779516
1999.545959	-3.008600	3.285700	-9.884700	26.482071	0.000471	20.764891
2000.538032	-3.001400	3.286500	-9.863300	26.467800	0.000470	20.763350
2001.542715	-3.028100	3.287000	-9.952600	26.492625	0.000469	20.765069
2002.542586	-2.973800	3.285400	-9.768500	26.514973	0.000471	20.776152
2003.539539	-3.004000	3.285400	-9.868600	26.553628	0.000469	20.771860
2004.541630	-2.971500	3.285500	-9.761800	26.588459	0.000466	20.753293
2005.537643	-3.005300	3.284400	-9.870200	26.635557	0.000468	20.758913
2006.540629	-2.985500	3.284800	-9.806100	26.684506	0.000467	20.772561
2007.541495	-3.020200	3.283300	-9.914700	26.708510	0.000466	20.752122
2008.540808	-3.020600	3.284100	-9.919100	26.743714	0.000465	20.767127
2009.542210	-3.032800	3.282100	-9.952100	26.740585	0.000463	20.767774
2010.543861	-2.992900	3.282900	-9.824200	26.759150	0.000463	20.761783
2011.543678	-2.976200	3.283400	-9.770900	26.753240	0.000463	20.779075
2012.543949	-2.990700	3.282100	-9.814200	26.709855	0.000463	20.784296
2013.543328	-3.019400	3.279800	-9.902500	26.698237	0.000464	20.759338
2014.543504	-2.994000	3.281300	-9.822800	26.730111	0.000461	20.750131
2015.542622	-3.007200	3.280000	-9.862300	26.711570	0.000460	20.732912
2016.543922	-3.022800	3.279800	-9.911000	26.735696	0.000460	20.758118
2017.543275	-2.998300	3.280100	-9.834000	26.764715	0.000459	20.765956
2018.544099	-2.995000	3.279000	-9.819500	26.778863	0.000459	20.772120
2019.543411	-2.985500	3.279600	-9.789500	26.750862	0.000457	20.761511
2020.545579	-2.983600	3.279500	-9.784300	26.727359	0.000458	20.770599
2021.543748	-3.005500	3.279000	-9.854300	26.696453	0.000457	20.760864
2022.546379	-2.982600	3.277600	-9.774700	26.656339	0.000457	20.760365
2023.548914	-3.001200	3.277600	-9.835300	26.623971	0.000455	20.777138
2024.546098	-3.000500	3.277800	-9.833700	26.604927	0.000454	20.751356
2025.545489	-2.981700	3.278300	-9.774000	26.588895	0.000454	20.774120
2026.551189	-2.980700	3.276500	-9.765500	26.577320	0.000456	20.737827
2027.546106	-2.987600	3.277700	-9.791500	26.572357	0.000454	20.770772
2028.546371	-2.985800	3.275600	-9.779200	26.621735	0.000452	20.754502
2029.549166	-2.985400	3.277300	-9.783600	26.661428	0.000451	20.750308
2030.546547	-2.993300	3.275100	-9.801700	26.685733	0.000451	20.771423
2031.547044	-2.999100	3.275300	-9.821400	26.731583	0.000450	20.754456
2032.544993	-2.981000	3.275800	-9.764200	26.780130	0.000450	20.750634
2033.544234	-2.999000	3.274100	-9.817800	26.810312	0.000448	20.741151
2034.546900	-3.036900	3.273900	-9.941500	26.832530	0.000450	20.762068
2035.547170	-3.012500	3.271900	-9.855800	26.832279	0.000449	20.736685
2036.552730	-3.000900	3.273300	-9.821800	26.853676	0.000448	20.743027
2037.550223	-2.992800	3.272500	-9.792800	26.830368	0.000448	20.776965
2038.547451	-3.008400	3.273000	-9.844500	26.787553	0.000446	20.755252
2039.548901	-3.008700	3.271400	-9.841700	26.768369	0.000445	20.741180
2040.549257	-3.000600	3.272600	-9.818900	26.759679	0.000445	20.733391
2041.553236	-3.003700	3.271300	-9.825300	26.764670	0.000444	20.770652
2042.553122	-3.002100	3.272100	-9.820800	26.781328	0.000443	20.734294
2043.549689	-3.020300	3.269500	-9.873300	26.761766	0.000445	20.743551
2044.549541	-3.001300	3.270400	-9.814400	26.803620	0.000443	20.735370
2045.549340	-3.040800	3.269000	-9.939200	26.842880	0.000443	20.753034
2046.550201	-2.996500	3.269300	-9.795000	26.850773	0.000443	20.742004
2047.552241	-3.023200	3.269700	-9.882700	26.847374	0.000442	20.745225
2048.550413	-2.986700	3.269800	-9.764900	26.844048	0.000440	20.748519
2049.549912	-3.008600	3.269200	-9.835000	26.838468	0.000438	20.751443
2050.550462	-2.993600	3.268600	-9.783800	26.881503	0.000438	20.734970
2051.550683	-3.007800	3.267900	-9.828300	26.850183	0.000437	20.735721
2052.550351	-2.995800	3.267800	-9.788600	26.859217	0.000439	20.747649
2053.554564	-3.012900	3.266500	-9.840500	26.863042	0.000437	20.742487
2054.552301	-3.040800	3.265400	-9.928000	26.841994	0.000439	20.741712
2055.555885	-3.006300	3.266500	-9.819100	26.847079	0.000437	20.730703
2056.554977	-3.034400	3.264100	-9.903700	26.800844	0.000435	20.740166
2057.551966	-3.002100	3.265500	-9.802200	26.739585	0.000436	20.744957
2058.552043	-2.995100	3.265300	-9.778700	26.741475	0.000434	20.739271
2059.559013	-3.030500	3.265600	-9.894200	26.723726	0.000434	20.739444
2060.551985	-2.994800	3.265200	-9.777800	26.767439	0.000431	20.742615
2061.553666	-3.001800	3.264300	-9.797800	26.790002	0.000432	20.743489
2062.557735	-2.991700	3.264300	-9.765600	26.830037	0.000430	20.737276
2063.554355	-2.993600	3.263000	-9.766800	26.859229	0.000430	20.737230
2064.554187	-2.988600	3.262800	-9.749800	26.848929	0.000427	20.752952
2065.557131	-3.008900	3.262400	-9.815400	26.844734	0.000428	20.729767
2066.553128	-2.990100	3.261300	-9.750400	26.797281	0.000426	20.724729
2067.554710	-2.995800	3.261300	-9.768800	26.769510	0.000426	20.726205
2068.557169	-2.983700	3.261900	-9.729800	26.798499	0.000426	20.720263
2069.556134	-3.009800	3.261500	-9.814400	26.821832	0.000425	20.745622
2070.556210	-3.007000	3.260900	-9.804400	26.816944	0.000425	20.718894
2071.560000	-3.009400	3.260500	-9.810000	26.843307	0.000424	20.727385
2072.561934	-3.022300	3.259500	-9.850300	26.829554	0.000424	20.707390
2073.558949	-2.995400	3.259600	-9.763000	26.805930	0.000422	20.723942
2074.563310	-3.002200	3.259400	-9.783900	26.796920	0.000424	20.730057
2075.560504	-3.004200	3.258000	-9.785500	26.789699	0.000425	20.705725
2076.558048	-2.987700	3.259200	-9.736100	26.751032	0.000422	20.717110
2077.559170	-3.008200	3.257800	-9.799000	26.747132	0.000423	20.721249
2078.559690	-3.012700	3.256700	-9.809400	26.741276	0.000421	20.719155
2079.562185	-2.999100	3.257900	-9.769200	26.747284	0.000420	20.717608
2080.560338	-3.020700	3.255900	-9.834400	26.781534	0.000422	20.732131
2081.561789	-2.976200	3.256300	-9.690800	26.842766	0.000420	20.716883
2082.558420	-2.990900	3.256300	-9.738800	26.819311	0.000419	20.727438
2083.561034	-2.984400	3.257800	-9.721200	26.791934	0.000418	20.719352
2084.561076	-2.990800	3.256100	-9.736600	26.815960	0.000419	20.726441
2085.560527	-2.998800	3.254700	-9.759500	26.827717	0.000418	20.721665
2086.560609	-2.956700	3.257100	-9.628700	26.841097	0.000419	20.730852
2087.562376	-2.999100	3.252400	-9.752300	26.853079	0.000418	20.724407
2088.560497	-2.996800	3.252300	-9.743900	26.894330	0.000415	20.726531
2089.561735	-3.000400	3.253700	-9.761300	26.880532	0.000416	20.692265
2090.560963	-3.010900	3.252000	-9.790200	26.860103	0.000414	20.717719
2091.566366	-3.001500	3.252600	-9.761700	26.858885	0.000414	20.706062
2092.561498	-3.020500	3.251800	-9.821000	26.878297	0.000413	20.717995
2093.563084	-3.000300	3.252800	-9.757500	26.893608	0.000412	20.716795
2094.561834	-2.993200	3.250100	-9.728000	26.895863	0.000411	20.718589
2095.561484	-3.002200	3.250700	-9.758600	26.891541	0.000411	20.715665
2096.568471	-2.988400	3.249400	-9.709500	26.884197	0.000410	20.719187
2097.563263	-2.986900	3.251800	-9.711800	26.845529	0.000409	20.720609
2098.561679	-3.002800	3.249100	-9.754800	26.872876	0.000409	20.712544
2099.562631	-2.974600	3.250700	-9.667400	26.856125	0.000405	20.724625
2100.565119	-2.986200	3.249300	-9.702100	26.818994	0.000406	20.711472
2101.565719	-2.989400	3.247900	-9.707400	26.805917	0.000404	20.724403
2102.566064	-2.971200	3.250200	-9.656000	26.827286	0.000403	20.715067
2103.564249	-2.982600	3.249000	-9.689800	26.825292	0.000402	20.730134
2104.566753	-2.993800	3.247900	-9.721900	26.839395	0.000404	20.705905
2105.564653	-2.985700	3.247500	-9.695200	26.882877	0.000400	20.710272
2106.569659	-2.976500	3.247800	-9.664900	26.902141	0.000401	20.713995
2107.569712	-3.010100	3.246700	-9.772000	26.891914	0.000401	20.732163
2108.565038	-2.971700	3.246800	-9.646900	26.917997	0.000401	20.696273
2109.567145	-3.028600	3.244900	-9.826400	26.923409	0.000401	20.706458
2110.566340	-2.982300	3.246500	-9.680800	26.932791	0.000398	20.704986
2111.566105	-3.002200	3.244000	-9.737900	26.934230	0.000397	20.714494
2112.569020	-3.007200	3.243100	-9.750700	26.948798	0.000398	20.704961
2113.569952	-3.006200	3.243200	-9.749700	26.934550	0.000396	20.720506
2114.569737	-2.996800	3.245000	-9.723600	26.896236	0.000396	20.712800
2115.569127	-2.967000	3.243400	-9.621500	26.945571	0.000395	20.695077
2116.571441	-2.977100	3.245500	-9.660900	26.937112	0.000395	20.715022
2117.569629	-2.990600	3.242000	-9.694900	26.948454	0.000394	20.710305
2118.571609	-3.019400	3.242800	-9.791200	26.984092	0.000393	20.711530
2119.567277	-3.003000	3.242400	-9.735800	27.048765	0.000392	20.710660
2120.567455	-3.008000	3.239600	-9.744000	27.075241	0.000392	20.715950
2121.568552	-3.005300	3.241700	-9.739600	27.110551	0.000390	20.691717
2122.570660	-3.014500	3.238500	-9.761000	27.106956	0.000391	20.709440
2123.569818	-2.997000	3.239500	-9.707300	27.053435	0.000390	20.704450
2124.570689	-3.002900	3.239500	-9.726400	26.974400	0.000391	20.695144
2125.572509	-3.006000	3.239400	-9.736900	26.927076	0.000388	20.707300
2126.573116	-2.991000	3.238700	-9.685700	26.961747	0.000390	20.713716
2127.571200	-3.010200	3.237700	-9.745200	26.965171	0.000385	20.701037
2128.574303	-3.008100	3.236300	-9.733500	26.986791	0.000387	20.701441
2129.571992	-2.983700	3.237300	-9.658400	27.018578	0.000387	20.699742
2130.570820	-2.996100	3.236900	-9.697100	27.038381	0.000383	20.726296
2131.573339	-2.963000	3.237500	-9.591400	27.051238	0.000383	20.697025
2132.573379	-3.002700	3.235800	-9.715500	27.081137	0.000384	20.707655
2133.572834	-2.963700	3.237400	-9.592900	27.078809	0.000383	20.713848
2134.574853	-2.982700	3.237000	-9.653000	27.105309	0.000382	20.710154
2135.571432	-2.986800	3.234700	-9.660600	27.133448	0.000380	20.707160
2136.571243	-2.984300	3.234200	-9.650900	27.159058	0.000382	20.689768
2137.574412	-3.000000	3.235600	-9.706200	27.125909	0.000378	20.715700
2138.575000	-3.023200	3.232000	-9.769500	27.114472	0.000381	20.708464
2139.571084	-3.007400	3.232800	-9.721600	27.059836	0.000377	20.708043
2140.574611	-3.003100	3.232600	-9.707500	27.040333	0.000378	20.706922
2141.573159	-2.989700	3.232900	-9.665100	27.023655	0.000377	20.715754
2142.573015	-3.006200	3.232500	-9.716700	27.066018	0.000377	20.708571
2143.574803	-2.997700	3.230600	-9.683500	27.083586	0.000375	20.712963
2144.576077	-3.008100	3.230400	-9.716600	27.083590	0.000375	20.729563
2145.573312	-2.983200	3.233000	-9.642700	27.099025	0.000375	20.699566
2146.576321	-3.041100	3.229900	-9.821200	27.135454	0.000373	20.715816
2147.577325	-2.988200	3.229900	-9.650400	27.136544	0.000374	20.721655
2148.575565	-2.982400	3.230100	-9.632200	27.099124	0.000372	20.706304
2149.576966	-3.018700	3.229400	-9.747600	27.092523	0.000370	20.718158
2150.578791	-3.019500	3.227600	-9.744800	27.077392	0.000372	20.725226
2151.576797	-3.005200	3.227100	-9.697200	27.087768	0.000371	20.708634
2152.575794	-3.011600	3.227900	-9.719200	27.083918	0.000369	20.698123
2153.577320	-3.003800	3.227800	-9.694200	27.057635	0.000370	20.705829
2154.575108	-2.995900	3.227000	-9.667400	27.039727	0.000370	20.705838
2155.577009	-3.006700	3.225800	-9.697100	27.044987	0.000367	20.699748
2156.581239	-3.000500	3.227900	-9.683700	27.046947	0.000366	20.726377
2157.578045	-2.991500	3.225100	-9.647700	27.046755	0.000366	20.709587
2158.577373	-2.970000	3.226200	-9.580200	27.051518	0.000365	20.715800
2159.577715	-2.998100	3.224700	-9.667200	27.011516	0.000364	20.696433
2160.579827	-3.001200	3.224200	-9.674900	27.002111	0.000363	20.703570
2161.578702	-3.003300	3.225100	-9.685000	26.987474	0.000363	20.711137
2162.580897	-2.997600	3.222700	-9.659500	26.960200	0.000360	20.742982
2163.579242	-3.013300	3.222700	-9.709300	27.003132	0.000361	20.723091
2164.579018	-3.002500	3.222500	-9.674500	27.012562	0.000362	20.721668
2165.578770	-3.017600	3.222900	-9.724700	27.060481	0.000361	20.707270
2166.582835	-3.010300	3.220700	-9.694400	27.062990	0.000359	20.706000
2167.581844	-3.001100	3.220200	-9.663300	27.070902	0.000357	20.740038
2168.582029	-2.996900	3.221300	-9.653200	27.084526	0.000358	20.727185
2169.582259	-2.959900	3.222200	-9.536400	27.084923	0.000357	20.721895
2170.580719	-3.006100	3.220000	-9.677400	27.095796	0.000357	20.735675
2171.581250	-2.992500	3.221400	-9.638700	27.095452	0.000356	20.703559
2172.580731	-2.986900	3.220600	-9.619400	27.130835	0.000356	20.722551
2173.581398	-2.991500	3.218100	-9.625900	27.112375	0.000355	20.710622
2174.583551	-2.991700	3.219400	-9.630700	27.139346	0.000355	20.715463
2175.585998	-2.989200	3.220000	-9.624000	27.149074	0.000355	20.705806
2176.587426	-3.026400	3.216300	-9.733000	27.192052	0.000354	20.721533
2177.583565	-3.011700	3.215800	-9.683400	27.197954	0.000352	20.715616
2178.584142	-3.013300	3.216400	-9.690800	27.224378	0.000352	20.744091
2179.584716	-2.998700	3.215900	-9.641200	27.207186	0.000353	20.708305
2180.584847	-2.996800	3.215200	-9.634600	27.265241	0.000352	20.711225
2181.585214	-3.008200	3.215300	-9.670900	27.316925	0.000351	20.724807
2182.589152	-3.011000	3.214400	-9.677300	27.339943	0.000351	20.721409
2183.583678	-3.012300	3.213800	-9.679900	27.345304	0.000351	20.716371
2184.589579	-2.982300	3.213800	-9.583000	27.357859	0.000348	20.742752
2185.588268	-3.040500	3.212000	-9.765800	27.386286	0.000349	20.743374
2186.588582	-3.012200	3.213000	-9.676100	27.396733	0.000348	20.720692
2187.586545	-3.009000	3.211900	-9.664100	27.402414	0.000347	20.719295
2188.585104	-3.006000	3.211800	-9.654100	27.425488	0.000344	20.723542
2189.586759	-3.042400	3.210400	-9.765800	27.463114	0.000344	20.733895
2190.586011	-2.989600	3.210800	-9.597500	27.421959	0.000343	20.715249
2191.585741	-2.994300	3.211300	-9.614200	27.426947	0.000345	20.729751
2192.585643	-2.971900	3.210400	-9.540300	27.420795	0.000344	20.752013
2193.587250	-2.970100	3.210600	-9.535100	27.445750	0.000344	20.736815
2194.585110	-2.989400	3.208200	-9.590100	27.428312	0.000343	20.728754
2195.586289	-2.986800	3.211300	-9.590600	27.401992	0.000343	20.743053
2196.588849	-3.008000	3.209300	-9.652400	27.396287	0.000342	20.743478
2197.585799	-2.991800	3.209100	-9.599800	27.396459	0.000341	20.732745
2198.591208	-3.002700	3.208900	-9.633000	27.349399	0.000340	20.738983
2199.590514	-2.973000	3.208300	-9.537600	27.304149	0.000340	20.714800
2200.589652	-2.989900	3.207100	-9.587600	27.304792	0.000336	20.711654
2201.588709	-3.017700	3.206700	-9.674700	27.308416	0.000338	20.727153
2202.586557	-3.003200	3.206100	-9.627700	27.312432	0.000335	20.741152
2203.587293	-3.004400	3.205700	-9.629900	27.304714	0.000338	20.743345
2204.587871	-2.993900	3.205500	-9.596000	27.296004	0.000336	20.740748
2205.588138	-2.999100	3.205400	-9.611400	27.227805	0.000335	20.723830
2206.586233	-2.983400	3.204700	-9.559900	27.121067	0.000335	20.736435
2207.589289	-2.993000	3.205300	-9.591700	27.116151	0.000335	20.724378
2208.594356	-2.986200	3.203800	-9.565800	27.120124	0.000334	20.726951
2209.587696	-3.000200	3.202200	-9.606000	27.118955	0.000331	20.744269
2210.589665	-3.009800	3.202400	-9.636600	27.125379	0.000331	20.730340
2211.589586	-2.983500	3.202200	-9.553300	27.114015	0.000332	20.733610
2212.588421	-3.000600	3.201400	-9.604000	27.077590	0.000331	20.752928
2213.588024	-3.019500	3.200800	-9.662700	27.087060	0.000330	20.765771
2214.600184	-2.986400	3.202400	-9.562600	27.137809	0.000330	20.736204
2215.591862	-3.020800	3.198900	-9.662500	27.158547	0.000330	20.746157
2216.593386	-2.988400	3.202500	-9.569800	27.218565	0.000328	20.742512
2217.591554	-2.992700	3.199100	-9.573000	27.236625	0.000328	20.744083
2218.592175	-3.000200	3.200300	-9.600200	27.284432	0.000327	20.757557
2219.592978	-3.006600	3.198000	-9.614100	27.310382	0.000326	20.751892
2220.593451	-2.992700	3.197900	-9.569100	27.336257	0.000325	20.745204
2221.594141	-3.006800	3.196300	-9.610200	27.348238	0.000325	20.766265
2222.597964	-2.994800	3.199300	-9.579900	27.379838	0.000325	20.755380
2223.596299	-2.985600	3.196400	-9.542100	27.371108	0.000323	20.746597
2224.594179	-3.010500	3.195700	-9.620200	27.329478	0.000322	20.752609
2225.593051	-3.005300	3.194500	-9.598600	27.351209	0.000323	20.762616
2226.595467	-2.988900	3.196200	-9.551800	27.347463	0.000323	20.765960
2227.596829	-3.006900	3.193200	-9.600800	27.343466	0.000321	20.756724
2228.594721	-3.017600	3.195500	-9.641800	27.299802	0.000321	20.753103
2229.595076	-2.999800	3.193100	-9.577000	27.287866	0.000319	20.767650
2230.596042	-2.988300	3.193800	-9.543400	27.321230	0.000318	20.739096
2231.596941	-2.980100	3.192600	-9.512900	27.328875	0.000319	20.751528
2232.597121	-3.022700	3.191900	-9.647400	27.352467	0.000316	20.753450
2233.604669	-2.998600	3.190800	-9.566500	27.376358	0.000317	20.737179
2234.598310	-3.003500	3.190000	-9.580600	27.379574	0.000317	20.753218
2235.597759	-2.984100	3.191100	-9.521500	27.394760	0.000316	20.757589
2236.599086	-3.006800	3.192000	-9.596900	27.417035	0.000316	20.761506
2237.597848	-2.991100	3.189900	-9.539600	27.443080	0.000316	20.755940
2238.597075	-3.000700	3.188100	-9.565900	27.436403	0.000315	20.769138
2239.599867	-3.006400	3.188000	-9.582000	27.434420	0.000315	20.755288
2240.600726	-2.997000	3.188300	-9.554300	27.414202	0.000314	20.761028
2241.597412	-3.023600	3.189100	-9.641900	27.400559	0.000312	20.756311
2242.600800	-3.008600	3.190100	-9.596500	27.358282	0.000314	20.770680
2243.604230	-3.021400	3.186500	-9.626300	27.298272	0.000312	20.768635
2244.598107	-3.009200	3.187100	-9.589600	27.277999	0.000311	20.764363
2245.604728	-2.998100	3.184900	-9.547700	27.257307	0.000311	20.773896
2246.599387	-2.990600	3.187000	-9.530700	27.273433	0.000310	20.778736
2247.596996	-3.021900	3.184000	-9.620100	27.333915	0.000310	20.764660
2248.597760	-2.996300	3.183400	-9.537400	27.359491	0.000309	20.759567
2249.597529	-2.992400	3.184000	-9.526500	27.366286	0.000309	20.779206
2250.598381	-3.023000	3.181900	-9.617700	27.416394	0.000309	20.758965
2251.596394	-2.991600	3.183700	-9.523500	27.419816	0.000305	20.780900
2252.599200	-2.963700	3.183800	-9.433300	27.411386	0.000305	20.780954
2253.596925	-2.983900	3.181500	-9.492100	27.387590	0.000304	20.757963
2254.597040	-2.973500	3.181100	-9.457900	27.395381	0.000304	20.778130
2255.597993	-2.994200	3.180400	-9.522000	27.448513	0.000303	20.789856
2256.600896	-3.004000	3.180100	-9.551900	27.466692	0.000303	20.789653
2257.602109	-2.990300	3.180200	-9.508900	27.495990	0.000304	20.762705
2258.598254	-2.988300	3.181000	-9.504600	27.529000	0.000302	20.776950
2259.601241	-3.014600	3.179700	-9.583800	27.524508	0.000303	20.763422
2260.605005	-2.988000	3.178600	-9.496600	27.524008	0.000302	20.777618
2261.602047	-3.027900	3.176500	-9.617700	27.572199	0.000301	20.776319
2262.603793	-3.007500	3.176800	-9.553800	27.550124	0.000302	20.774970
2263.605783	-2.991100	3.176000	-9.496700	27.517062	0.000300	20.766361
2264.600527	-2.990500	3.175900	-9.497000	27.539207	0.000298	20.800496
2265.603878	-2.988100	3.176100	-9.490400	27.513656	0.000298	20.765305
2266.600006	-3.006700	3.176700	-9.550200	27.460847	0.000298	20.783773
2267.603179	-2.990400	3.175000	-9.493400	27.418676	0.000297	20.763631
2268.602717	-3.000100	3.173400	-9.519400	27.402220	0.000297	20.793070
2269.600864	-3.011400	3.173200	-9.554700	27.352632	0.000295	20.775902
2270.602178	-2.981700	3.175200	-9.466900	27.386543	0.000294	20.791524
2271.600922	-2.988900	3.173300	-9.482400	27.405363	0.000295	20.797181
2272.604418	-3.009200	3.172000	-9.543900	27.423995	0.000294	20.779414
2273.602368	-3.005000	3.171900	-9.530600	27.453683	0.000294	20.805488
2274.601637	-2.997200	3.170600	-9.501800	27.484391	0.000291	20.773794
2275.604983	-3.011000	3.172000	-9.550100	27.518712	0.000291	20.805480
2276.606427	-2.980300	3.169600	-9.445200	27.558150	0.000291	20.802012
2277.605507	-3.007000	3.169100	-9.528700	27.593190	0.000293	20.795543
2278.607517	-2.998400	3.168000	-9.497700	27.636563	0.000289	20.804572
2279.605669	-3.010500	3.169100	-9.539600	27.673764	0.000289	20.771357
2280.605027	-2.984100	3.166700	-9.448200	27.685810	0.000291	20.808134
2281.604598	-2.974800	3.167600	-9.421600	27.670035	0.000288	20.808382
2282.604881	-2.993500	3.164500	-9.472500	27.659267	0.000289	20.791382
2283.609353	-3.005300	3.165600	-9.513000	27.633022	0.000287	20.786311
2284.605646	-2.993300	3.164800	-9.472100	27.638501	0.000289	20.815056
2285.609503	-2.982000	3.165000	-9.436700	27.616525	0.000286	20.826135
2286.608473	-2.969200	3.164200	-9.393900	27.625126	0.000286	20.812978
2287.608065	-3.006500	3.162500	-9.506800	27.642881	0.000287	20.797653
2288.610620	-3.012900	3.163100	-9.528600	27.646794	0.000286	20.827194
2289.606419	-3.008200	3.162100	-9.510800	27.697085	0.000285	20.799566
2290.606853	-2.983700	3.162200	-9.434200	27.696614	0.000285	20.814738
2291.608522	-2.996000	3.160100	-9.467000	27.678409	0.000284	20.811118
2292.606733	-3.016500	3.161000	-9.533400	27.661192	0.000282	20.815130
2293.609145	-3.015800	3.159100	-9.526000	27.658516	0.000284	20.820024
2294.611019	-3.008300	3.158600	-9.499800	27.656623	0.000283	20.820016
2295.608948	-2.996400	3.159300	-9.466200	27.683511	0.000283	20.839010
2296.610077	-2.979500	3.157900	-9.407900	27.716936	0.000282	20.829498
2297.611705	-2.996400	3.157900	-9.461000	27.744682	0.000280	20.810005
2298.612975	-2.990100	3.157100	-9.439400	27.717124	0.000279	20.813093
2299.608573	-2.979400	3.156400	-9.403200	27.676254	0.000279	20.810846
2300.610334	-3.000900	3.155800	-9.469200	27.646121	0.000278	20.808026
2301.611790	-2.994900	3.157000	-9.452000	27.654947	0.000279	20.814536
2302.627299	-2.994900	3.154900	-9.447900	27.623719	0.000277	20.825787
2303.610031	-2.999800	3.153300	-9.458200	27.647330	0.000278	20.831526
2304.612427	-3.011400	3.152200	-9.490100	27.663646	0.000279	20.812858
2305.610077	-3.043700	3.150700	-9.587600	27.701784	0.000276	20.834639
2306.609079	-2.984400	3.153100	-9.408700	27.730231	0.000277	20.835765
2307.610272	-2.972000	3.153500	-9.371500	27.717534	0.000276	20.827729
2308.611444	-2.987100	3.149800	-9.407500	27.685714	0.000275	20.818943
2309.610216	-2.998000	3.149700	-9.441700	27.630534	0.000274	20.819842
2310.613046	-2.996400	3.149100	-9.435500	27.656618	0.000273	20.830442
2311.612967	-2.993400	3.149900	-9.427200	27.662572	0.000271	20.829320
2312.612311	-2.985800	3.148300	-9.399500	27.606046	0.000273	20.838350
2313.613213	-3.011300	3.146900	-9.475800	27.605124	0.000271	20.834577
2314.613244	-3.007500	3.147000	-9.463200	27.633226	0.000271	20.819706
2315.613009	-3.025200	3.145300	-9.513900	27.648231	0.000270	20.822002
2316.615548	-2.977200	3.146300	-9.365200	27.619560	0.000268	20.841042
2317.611974	-3.002100	3.144400	-9.438000	27.590270	0.000271	20.841442
2318.613739	-2.971500	3.145200	-9.344200	27.563552	0.000270	20.831629
2319.615647	-2.996600	3.143900	-9.419300	27.525307	0.000269	20.861425
2320.615036	-3.000400	3.143600	-9.430400	27.505267	0.000268	20.839368
2321.614561	-3.016300	3.142900	-9.478400	27.521311	0.000268	20.853138
2322.616314	-3.014000	3.140600	-9.465400	27.535174	0.000267	20.840061
2323.616917	-3.004300	3.141100	-9.436000	27.585029	0.000267	20.850867
2324.615540	-3.012800	3.141400	-9.463400	27.626395	0.000264	20.853134
2325.617054	-2.983300	3.139500	-9.365500	27.632103	0.000268	20.841335
2326.621697	-2.989800	3.139600	-9.386000	27.652709	0.000267	20.842629
2327.617944	-2.993900	3.138900	-9.396900	27.665030	0.000267	20.824682
2328.618237	-2.984900	3.137300	-9.363900	27.711433	0.000265	20.838185
2329.619597	-2.982400	3.138500	-9.359300	27.710662	0.000267	20.835039
2330.618022	-2.997600	3.135600	-9.398700	27.725568	0.000264	20.840081
2331.619733	-2.996800	3.136700	-9.399200	27.730477	0.000264	20.829848
2332.620234	-3.008900	3.135100	-9.432000	27.699051	0.000265	20.851328
2333.619143	-3.003600	3.135600	-9.416400	27.652504	0.000264	20.854750
2334.620895	-2.997400	3.134700	-9.394700	27.659126	0.000265	20.857146
2335.620257	-3.011000	3.132300	-9.430500	27.643744	0.000261	20.864901
2336.621194	-2.993900	3.132800	-9.378000	27.673057	0.000264	20.858836
2337.620740	-2.994600	3.131100	-9.375000	27.682731	0.000262	20.855294
2338.619795	-2.996800	3.129900	-9.379000	27.705873	0.000262	20.864831
2339.622955	-3.009700	3.129500	-9.418000	27.742141	0.000262	20.855810
2340.625231	-2.997400	3.128600	-9.376300	27.791150	0.000261	20.860085
2341.623973	-2.976300	3.129300	-9.312700	27.811405	0.000259	20.856288
2342.621662	-2.951100	3.128400	-9.230600	27.834069	0.000259	20.849700
2343.630963	-3.002400	3.127700	-9.390100	27.865880	0.000258	20.875076
2344.620936	-2.982700	3.127500	-9.327400	27.843639	0.000259	20.870710
2345.623439	-2.994900	3.125500	-9.359100	27.854893	0.000258	20.884880
2346.622651	-2.992300	3.126200	-9.353600	27.883381	0.000258	20.861870
2347.621271	-3.004200	3.124500	-9.386100	27.861116	0.000257	20.858428
2348.621990	-3.018300	3.122800	-9.424700	27.891316	0.000257	20.855158
2349.624054	-2.993300	3.123500	-9.348700	27.876216	0.000256	20.865090
2350.622794	-3.004700	3.121100	-9.377300	27.864733	0.000256	20.873447
2351.625762	-3.008600	3.120700	-9.387900	27.823274	0.000255	20.866809
2352.630824	-3.002500	3.119000	-9.363100	27.818591	0.000257	20.863045
2353.628962	-2.979100	3.120200	-9.294500	27.836318	0.000256	20.852437
2354.628165	-2.997600	3.118600	-9.347300	27.847224	0.000254	20.864835
2355.626363	-2.993200	3.119100	-9.335100	27.872119	0.000256	20.864286
2356.624713	-3.009300	3.116500	-9.377700	27.836338	0.000254	20.859096
2357.625729	-3.020500	3.116400	-9.411000	27.831521	0.000253	20.877005
2358.624607	-3.019000	3.115200	-9.403800	27.841816	0.000253	20.855599
2359.624960	-3.006400	3.115400	-9.364500	27.888403	0.000254	20.830417
2360.624906	-3.012300	3.114000	-9.379300	27.912655	0.000253	20.847238
2361.625110	-2.996300	3.114100	-9.329700	27.905859	0.000252	20.868846
2362.624547	-3.021500	3.111900	-9.400800	27.909996	0.000254	20.869691
2363.626537	-3.016500	3.112000	-9.386700	27.945053	0.000252	20.842864
2364.624894	-3.007100	3.111200	-9.354200	27.956855	0.000254	20.856638
2365.627046	-3.008200	3.110800	-9.357400	27.948769	0.000253	20.841388
2366.626366	-2.995600	3.109500	-9.312100	27.972892	0.000251	20.844806
2367.626784	-3.014800	3.107700	-9.368000	27.995970	0.000252	20.846698
2368.627309	-3.005300	3.107700	-9.338200	27.999345	0.000249	20.860526
2369.627361	-3.006500	3.108100	-9.341800	27.986598	0.000250	20.855282
2370.627017	-2.989900	3.106800	-9.288000	27.985955	0.000251	20.852264
2371.628372	-3.014200	3.105300	-9.359100	27.990714	0.000251	20.856581
2372.629045	-2.971800	3.106300	-9.229600	28.016844	0.000251	20.841157
2373.628198	-2.994300	3.104000	-9.293700	28.016471	0.000249	20.827032
2374.633043	-2.985300	3.103300	-9.263000	27.998047	0.000251	20.842625
2375.629397	-2.983900	3.102400	-9.256700	28.007169	0.000250	20.842798
2376.629841	-2.991100	3.101300	-9.274800	27.978160	0.000246	20.859590
2377.636041	-2.982900	3.101100	-9.249600	27.942088	0.000248	20.828025
2378.629720	-2.938000	3.101600	-9.111300	27.861701	0.000249	20.866129
2379.630508	-3.001100	3.098100	-9.297000	27.813445	0.000250	20.841272
2380.637117	-3.011100	3.098600	-9.329100	27.776524	0.000247	20.843944
2381.630605	-2.988800	3.098600	-9.259800	27.724667	0.000248	20.851501
2382.630475	-3.001900	3.096500	-9.293700	27.757792	0.000246	20.843585
2383.639802	-3.007000	3.095400	-9.305400	27.773340	0.000246	20.848327
2384.632876	-3.004500	3.094300	-9.295600	27.826453	0.000245	20.817380
2385.631469	-2.993100	3.092500	-9.254900	27.829706	0.000246	20.821128
2386.635085	-3.024500	3.092000	-9.349700	27.834290	0.000245	20.821000
2387.634464	-3.018500	3.091400	-9.330100	27.863893	0.000245	20.814758
2388.632045	-3.002100	3.091800	-9.281100	27.903044	0.000245	20.840885
2389.637393	-3.007700	3.090900	-9.295500	27.916628	0.000245	20.826108
2390.633454	-2.998800	3.089100	-9.262700	27.935128	0.000245	20.819598
2391.634272	-3.004200	3.087800	-9.274900	27.941371	0.000245	20.835364
2392.633416	-2.993700	3.087600	-9.242100	27.933752	0.000245	20.834808
2393.636034	-3.003900	3.086700	-9.270500	27.907473	0.000245	20.814997
2394.633076	-3.001100	3.085600	-9.259100	27.947118	0.000245	20.814597
2395.635865	-2.998800	3.084700	-9.249000	27.987204	0.000244	20.829815
2396.634768	-2.996500	3.084400	-9.241900	28.000271	0.000242	20.827321
2397.632905	-2.980800	3.083800	-9.191000	27.971434	0.000243	20.815364
2398.635447	-2.974000	3.083600	-9.170200	27.973834	0.000244	20.803081
2399.634448	-3.008900	3.081600	-9.271400	27.969873	0.000242	20.819957
2400.634943	-3.006100	3.081400	-9.261300	27.965830	0.000241	20.838172
2401.634101	-3.006800	3.078800	-9.256600	28.017127	0.000240	20.802562
2402.636094	-3.014400	3.077200	-9.275500	28.007034	0.000240	20.806627
2403.636320	-2.986400	3.078300	-9.192100	27.958416	0.000240	20.829761
2404.638105	-2.999700	3.076200	-9.226400	27.912565	0.000241	20.815855
2405.637046	-3.009500	3.075000	-9.253500	27.912639	0.000241	20.819722
2406.638344	-2.999000	3.075200	-9.221600	27.919132	0.000240	20.812981
2407.639939	-3.015100	3.073400	-9.265300	27.933244	0.000238	20.814383
2408.643129	-3.017300	3.071700	-9.267400	27.954934	0.000240	20.827679
2409.640444	-3.014500	3.071500	-9.258700	28.010741	0.000239	20.812255
2410.641485	-2.990500	3.070200	-9.180800	27.993808	0.000239	20.811332
2411.644186	-3.029100	3.069000	-9.295200	28.032110	0.000240	20.827601
2412.641521	-2.987900	3.067800	-9.165100	28.066271	0.000238	20.816469
2413.643867	-2.981100	3.068800	-9.147900	28.086352	0.000238	20.807761
2414.644774	-2.978000	3.067300	-9.133200	28.115035	0.000239	20.806289
2415.646328	-3.001600	3.065200	-9.199400	28.151793	0.000237	20.816267
2416.643770	-2.994200	3.065100	-9.176200	28.133544	0.000237	20.801214
2417.650915	-3.002000	3.063100	-9.194300	28.067901	0.000239	20.802463
2418.646337	-2.990300	3.063200	-9.158300	28.007284	0.000239	20.789336
2419.645096	-3.012900	3.061700	-9.223400	27.956925	0.000238	20.803606
2420.649718	-3.011800	3.059700	-9.214200	27.939397	0.000237	20.791653
2421.649926	-2.999000	3.059100	-9.173200	27.922585	0.000237	20.798914
2422.646399	-3.014500	3.057500	-9.215700	27.923327	0.000237	20.801556
2423.655086	-2.970800	3.057100	-9.079900	27.893004	0.000239	20.814185
2424.647197	-3.014300	3.056500	-9.212600	27.962869	0.000236	20.807217
2425.657714	-2.994000	3.055300	-9.145000	27.994779	0.000236	20.815154
2426.650657	-2.995700	3.054200	-9.147600	27.994930	0.000237	20.813884
2427.647806	-3.021600	3.051900	-9.220700	28.022522	0.000235	20.785707
2428.649233	-3.016200	3.051700	-9.203200	28.007821	0.000236	20.794617
2429.648540	-2.981400	3.051400	-9.096400	28.019671	0.000235	20.808916
2430.650458	-2.991400	3.049200	-9.118900	27.990863	0.000236	20.793195
2431.650909	-2.997200	3.048500	-9.135300	27.912242	0.000234	20.797038
2432.651011	-3.004000	3.047600	-9.153400	27.844701	0.000235	20.786433
2433.651587	-2.998600	3.047900	-9.138400	27.841870	0.000234	20.804921
2434.650870	-3.000500	3.045000	-9.135200	27.886135	0.000235	20.796840
2435.653127	-2.990400	3.044500	-9.103500	27.888814	0.000233	20.797165
2436.653870	-2.960200	3.044100	-9.011000	27.926973	0.000235	20.787208
2437.651429	-3.015900	3.040600	-9.169000	27.947250	0.000235	20.782961
2438.650551	-3.000200	3.040300	-9.120700	27.969071	0.000234	20.782640
2439.664548	-2.988700	3.040300	-9.085300	28.010627	0.000236	20.780372
2440.652939	-3.003200	3.038400	-9.123300	28.065960	0.000235	20.791974
2441.654985	-3.001900	3.037400	-9.116400	28.090404	0.000235	20.747828
2442.656352	-2.983800	3.037600	-9.062700	28.056862	0.000233	20.805102
2443.654345	-2.982500	3.036800	-9.056800	28.100672	0.000234	20.781873
2444.654513	-3.016000	3.034800	-9.151700	28.113680	0.000237	20.792597
2445.653613	-2.999000	3.031500	-9.090300	28.111304	0.000235	20.782145
2446.654912	-2.990300	3.033000	-9.067400	28.127290	0.000233	20.784013
2447.654012	-3.001400	3.029900	-9.093000	28.135698	0.000235	20.788684
2448.656981	-2.987800	3.030000	-9.051900	28.130718	0.000236	20.782248
2449.656844	-3.013000	3.027500	-9.121300	28.121793	0.000233	20.778953
2450.660321	-3.029600	3.026100	-9.167200	28.114405	0.000236	20.790008
2451.656951	-3.015500	3.025400	-9.122000	28.107540	0.000235	20.779304
2452.657894	-3.021100	3.023600	-9.133700	28.146609	0.000234	20.800616
2453.656306	-3.028100	3.023400	-9.154300	28.135948	0.000234	20.797945
2454.657739	-3.001400	3.021800	-9.068500	28.133220	0.000233	20.766749
2455.657195	-2.972700	3.021500	-8.981300	28.099279	0.000233	20.766246
2456.662125	-2.993300	3.020500	-9.039600	28.079226	0.000234	20.780673
2457.659273	-3.004200	3.017400	-9.063900	28.104984	0.000232	20.776731
2458.661161	-3.011800	3.017400	-9.086400	28.097149	0.000234	20.777379
2459.663169	-2.988400	3.017400	-9.016200	28.071587	0.000231	20.775354
2460.658361	-2.975900	3.015500	-8.972800	28.063232	0.000231	20.789228
2461.659515	-3.020700	3.013000	-9.100600	28.101884	0.000233	20.764601
2462.663091	-3.013000	3.011200	-9.071800	28.105324	0.000232	20.764271
2463.662529	-2.982900	3.011700	-8.982700	28.135268	0.000232	20.769759
2464.660904	-2.969500	3.011100	-8.939600	28.150291	0.000233	20.780615
2465.670652	-3.000500	3.008200	-9.024900	28.173668	0.000232	20.774278
2466.662591	-2.998000	3.008600	-9.018600	28.150811	0.000232	20.766914
2467.659869	-3.040600	3.005100	-9.135700	28.174487	0.000231	20.764671
2468.663579	-3.017100	3.004000	-9.061800	28.165760	0.000231	20.789076
2469.658916	-3.012500	3.001900	-9.041700	28.175400	0.000231	20.762271
2470.660779	-2.975200	3.002400	-8.931900	28.221379	0.000231	20.771103
2471.659212	-2.999600	3.000200	-8.998000	28.228743	0.000231	20.758602
2472.660862	-2.983300	2.999600	-8.948200	28.217137	0.000232	20.775841
2473.662958	-2.981500	2.998200	-8.937800	28.217014	0.000231	20.764811
2474.664274	-3.009300	2.996700	-9.017200	28.187961	0.000232	20.769702
2475.666192	-3.008100	2.996100	-9.011600	28.097875	0.000232	20.771945
2476.664429	-3.002300	2.994600	-8.989900	28.075044	0.000231	20.766506
2477.663902	-2.995100	2.992900	-8.963300	28.048171	0.000230	20.772171
2478.665681	-2.997400	2.991400	-8.964700	28.079304	0.000230	20.752302
2479.663523	-2.992100	2.990900	-8.948100	28.108581	0.000231	20.761385
2480.666855	-2.978400	2.989900	-8.904400	28.132827	0.000230	20.752129
2481.666709	-2.987700	2.988700	-8.928700	28.140953	0.000229	20.771689
2482.662781	-3.034500	2.984900	-9.056800	28.134408	0.000231	20.754194
2483.663632	-2.999600	2.984800	-8.950700	28.156496	0.000231	20.753671
2484.665173	-2.993100	2.985400	-8.933900	28.140851	0.000231	20.771112
2485.670269	-3.014200	2.983600	-8.992000	28.159588	0.000229	20.761052
2486.665829	-2.990800	2.981600	-8.917300	28.203393	0.000231	20.760107
2487.667163	-2.988700	2.981000	-8.907800	28.211617	0.000230	20.771706
2488.668414	-3.008300	2.978800	-8.960400	28.221560	0.000229	20.763224
2489.665970	-3.000100	2.977600	-8.932200	28.226863	0.000229	20.774254
2490.667938	-2.994800	2.974900	-8.908500	28.250087	0.000228	20.745478
2491.668758	-2.996500	2.974400	-8.911700	28.246017	0.000230	20.753708
2492.671597	-2.984200	2.973900	-8.873500	28.260223	0.000228	20.753787
2493.670016	-2.989300	2.972100	-8.883600	28.239403	0.000229	20.756533
2494.668134	-2.985000	2.970500	-8.865500	28.251197	0.000230	20.756553
2495.670313	-2.984600	2.970000	-8.863600	28.266198	0.000230	20.766441
2496.669872	-2.991300	2.967200	-8.874100	28.289396	0.000228	20.769883
2497.670188	-2.988000	2.965700	-8.860600	28.269490	0.000230	20.750789
2498.673141	-3.025300	2.963100	-8.963100	28.337647	0.000230	20.758722
2499.671190	-2.969900	2.964900	-8.804200	28.371998	0.000231	20.751585
2500.669464	-2.983100	2.961500	-8.833200	28.369619	0.000227	20.769579
2501.675586	-2.987300	2.959700	-8.841400	28.378145	0.000228	20.754929
2502.671144	-3.006000	2.958200	-8.890700	28.415864	0.000227	20.754504
2503.671857	-3.007700	2.956100	-8.889400	28.410312	0.000227	20.730894
2504.671740	-2.977200	2.955500	-8.798600	28.422653	0.000229	20.749960
2505.670517	-2.991500	2.954600	-8.838200	28.449017	0.000228	20.766078
2506.672191	-3.013300	2.950700	-8.890400	28.457120	0.000228	20.756694
2507.671878	-3.023700	2.949200	-8.915400	28.465497	0.000227	20.742370
2508.677093	-3.030700	2.948500	-8.935300	28.439691	0.000227	20.763324
2509.674292	-3.012100	2.946800	-8.874900	28.405051	0.000228	20.773488
2510.673694	-3.042900	2.945500	-8.961900	28.367703	0.000228	20.739673
2511.677142	-2.995200	2.944800	-8.819200	28.299323	0.000227	20.714917
2512.675507	-2.978300	2.943800	-8.766500	28.277878	0.000227	20.754018
2513.675815	-3.015400	2.940200	-8.865300	28.257779	0.000226	20.743739
2514.681408	-3.024400	2.940200	-8.890400	28.317137	0.000227	20.743285
2515.677819	-2.997100	2.938400	-8.805800	28.300609	0.000227	20.744662
2516.676721	-3.006600	2.937100	-8.830000	28.315425	0.000228	20.735872
2517.677738	-2.981600	2.936300	-8.753400	28.311879	0.000226	20.743207
2518.680464	-3.008800	2.932600	-8.822500	28.315572	0.000226	20.743607
2519.679989	-2.953200	2.932600	-8.657900	28.333770	0.000224	20.729687
2520.681485	-3.003700	2.931100	-8.803800	28.343749	0.000226	20.745900
2521.680800	-2.987700	2.929500	-8.751800	28.356615	0.000227	20.733724
2522.683546	-3.000800	2.926600	-8.780900	28.376614	0.000227	20.739162
2523.683574	-2.982600	2.925700	-8.725200	28.377756	0.000225	20.722768
2524.687652	-2.983000	2.924700	-8.722500	28.398225	0.000225	20.736268
2525.687516	-3.005700	2.922700	-8.783500	28.428238	0.000225	20.743731
2526.684560	-3.021800	2.918800	-8.818900	28.446922	0.000226	20.735043
2527.686513	-3.001500	2.918400	-8.757900	28.444641	0.000224	20.712831
2528.687152	-3.022700	2.916200	-8.814100	28.461915	0.000224	20.743030
2529.684106	-3.052300	2.914900	-8.895400	28.466972	0.000226	20.741484
2530.688283	-3.038400	2.911500	-8.844400	28.422613	0.000224	20.731427
2531.689632	-3.019100	2.913000	-8.792900	28.367589	0.000227	20.750464
2532.686799	-3.022300	2.910500	-8.795800	28.348901	0.000227	20.739232
2533.690948	-2.999300	2.908200	-8.721800	28.365804	0.000227	20.724483
2534.693573	-2.992900	2.906300	-8.697700	28.347791	0.000226	20.734321
2535.690464	-3.006300	2.904400	-8.729900	28.326006	0.000225	20.732301
2536.690424	-3.006400	2.903000	-8.725900	28.267681	0.000225	20.738536
2537.688561	-3.008700	2.900900	-8.727400	28.217392	0.000223	20.727732
2538.687767	-3.021500	2.899500	-8.759700	28.165487	0.000224	20.720046
2539.690296	-2.979300	2.899700	-8.637700	28.165012	0.000226	20.734268
2540.692282	-2.985300	2.897200	-8.648300	28.157652	0.000226	20.735394
2541.692309	-2.988000	2.895400	-8.650200	28.166351	0.000225	20.729926
2542.691589	-3.000300	2.893400	-8.680100	28.210573	0.000226	20.708064
2543.697870	-3.012300	2.892800	-8.712500	28.241755	0.000227	20.726182
2544.694505	-3.009900	2.889100	-8.695300	28.291101	0.000227	20.721812
2545.693450	-3.007300	2.888100	-8.683600	28.326154	0.000226	20.703050
2546.694755	-3.016000	2.886000	-8.703200	28.376979	0.000227	20.744745
2547.693106	-2.988800	2.885100	-8.622100	28.432521	0.000226	20.729551
2548.692709	-2.962300	2.883900	-8.541800	28.454848	0.000225	20.725481
2549.692772	-2.983700	2.880600	-8.594100	28.486490	0.000226	20.713247
2550.692848	-2.995900	2.878300	-8.621800	28.463864	0.000226	20.715594
2551.693801	-3.003400	2.876800	-8.638200	28.414551	0.000227	20.724257
2552.692997	-3.005700	2.874500	-8.638500	28.357074	0.000226	20.732289
2553.694653	-2.994700	2.874000	-8.605300	28.339405	0.000226	20.723506
2554.693123	-2.984600	2.871900	-8.569700	28.343443	0.000226	20.723304
2555.695537	-2.997600	2.868000	-8.596300	28.379231	0.000225	20.715243
2556.697075	-2.967900	2.868500	-8.512000	28.370034	0.000225	20.716414
2557.694178	-3.009000	2.865800	-8.621200	28.391695	0.000224	20.709302
2558.693058	-2.996200	2.862800	-8.576900	28.417966	0.000225	20.732438
2559.699672	-2.995900	2.861600	-8.572200	28.444506	0.000225	20.721705
2560.697248	-2.979700	2.858700	-8.517400	28.469465	0.000225	20.728821
2561.693645	-3.029600	2.856800	-8.654000	28.468450	0.000228	20.712625
2562.698196	-2.997900	2.854900	-8.556200	28.510375	0.000225	20.742519
2563.692928	-2.994600	2.852200	-8.539600	28.528541	0.000227	20.738053
2564.694096	-2.990800	2.850400	-8.524000	28.582832	0.000227	20.720657
2565.694970	-3.010100	2.847900	-8.571500	28.595150	0.000226	20.715045
2566.697308	-2.982300	2.846800	-8.488800	28.580105	0.000228	20.715540
2567.696386	-3.020500	2.844300	-8.590000	28.546457	0.000228	20.739027
2568.696634	-2.992300	2.842000	-8.502900	28.567320	0.000227	20.730640
2569.695270	-3.004500	2.839800	-8.530400	28.522961	0.000227	20.731959
2570.698072	-3.020200	2.837600	-8.569500	28.507550	0.000227	20.721655
2571.696085	-2.986400	2.837000	-8.472000	28.475656	0.000229	20.713244
2572.700996	-2.955500	2.836700	-8.382100	28.443589	0.000227	20.705133
2573.697289	-2.960700	2.832900	-8.386300	28.437558	0.000228	20.727511
2574.696787	-2.966400	2.830100	-8.394400	28.431040	0.000226	20.705298
2575.699248	-2.990400	2.827600	-8.455100	28.477433	0.000229	20.731156
2576.697026	-2.981500	2.826100	-8.425400	28.505307	0.000229	20.735518
2577.697211	-2.998700	2.822900	-8.464600	28.582890	0.000227	20.730674
2578.697981	-2.959100	2.821700	-8.348600	28.587180	0.000227	20.722666
2579.696745	-3.003400	2.818900	-8.465600	28.570923	0.000226	20.737588
2580.695265	-2.997200	2.816600	-8.441100	28.532337	0.000228	20.744722
2581.700760	-3.016500	2.814100	-8.487600	28.552603	0.000227	20.729095
2582.697395	-3.015300	2.812000	-8.478500	28.580082	0.000226	20.716939
2583.698045	-3.021100	2.809200	-8.485200	28.596830	0.000228	20.734282
2584.700265	-3.017300	2.806300	-8.465900	28.620464	0.000226	20.724893
2585.697373	-2.989000	2.804900	-8.382800	28.610155	0.000227	20.726840
2586.698390	-3.026700	2.800400	-8.474900	28.572193	0.000228	20.719426
2587.699386	-2.997400	2.800500	-8.391700	28.527020	0.000226	20.719925
2588.703838	-3.006100	2.796900	-8.406700	28.476436	0.000227	20.732996
2589.700243	-3.006700	2.794700	-8.401900	28.460276	0.000226	20.745647
2590.699958	-3.019000	2.793000	-8.430300	28.491053	0.000227	20.736810
2591.701126	-2.993000	2.789800	-8.347800	28.551315	0.000227	20.734910
2592.701491	-2.975700	2.787800	-8.294600	28.608552	0.000225	20.723802
2593.699375	-3.006700	2.783400	-8.367200	28.650922	0.000226	20.721905
2594.698285	-3.004900	2.780700	-8.354300	28.676789	0.000224	20.754124
2595.699889	-2.989400	2.778300	-8.304900	28.732238	0.000225	20.751654
2596.700466	-2.990000	2.775500	-8.297800	28.774477	0.000226	20.755320
2597.700888	-3.025500	2.771100	-8.381900	28.779454	0.000225	20.758437
2598.701979	-3.013300	2.768900	-8.342200	28.768476	0.000225	20.723670
2599.701007	-2.995900	2.768900	-8.293900	28.796797	0.000225	20.741293
2600.703921	-3.002400	2.765300	-8.301300	28.810398	0.000227	20.734605
2601.701135	-2.994600	2.761600	-8.269300	28.818543	0.000227	20.739491
2602.701366	-2.978200	2.759300	-8.216100	28.858084	0.000225	20.729063
2603.702343	-2.975700	2.756300	-8.200200	28.841856	0.000224	20.744010
2604.701486	-2.994800	2.751300	-8.238100	28.880149	0.000225	20.725213
2605.701217	-2.993900	2.749000	-8.229300	28.882330	0.000227	20.764396
2606.704058	-2.968000	2.746800	-8.151300	28.849801	0.000225	20.746798
2607.701313	-3.006500	2.741900	-8.242300	28.863823	0.000226	20.738164
2608.701761	-2.972900	2.742400	-8.150900	28.872815	0.000226	20.747697
2609.700786	-2.985600	2.737800	-8.173800	28.913140	0.000225	20.736639
2610.701461	-2.998400	2.732000	-8.190400	28.922005	0.000227	20.732293
2611.701703	-3.007800	2.730700	-8.212100	28.992649	0.000227	20.745619
2612.704578	-2.975600	2.729000	-8.118800	28.993636	0.000224	20.744242
2613.701981	-3.019400	2.722900	-8.220500	29.016822	0.000225	20.732990
2614.705780	-3.008800	2.721900	-8.188600	29.000118	0.000227	20.741765
2615.704842	-2.987800	2.718600	-8.121500	29.013418	0.000226	20.743785
2616.705029	-2.978300	2.715100	-8.084800	28.990653	0.000227	20.741237
2617.704271	-3.013800	2.711300	-8.170100	28.959195	0.000227	20.763598
2618.706499	-3.016900	2.706200	-8.163500	28.955974	0.000226	20.751818
2619.703634	-3.013200	2.702800	-8.143400	28.979972	0.000225	20.730476
2620.703829	-3.020200	2.699400	-8.151600	29.000974	0.000227	20.769181
2621.705655	-2.999000	2.695700	-8.084100	29.052684	0.000224	20.759640
2622.706916	-2.987800	2.693200	-8.045700	29.057193	0.000226	20.749011
2623.706769	-2.989100	2.688100	-8.034300	29.052880	0.000225	20.773589
2624.708333	-3.003900	2.683700	-8.060900	29.074327	0.000229	20.740195
2625.705200	-3.001800	2.680000	-8.043300	29.081058	0.000226	20.759307
2626.706789	-3.032800	2.675100	-8.111500	29.099807	0.000225	20.735998
2627.707946	-2.995900	2.672800	-8.006600	29.129101	0.000228	20.756034
2628.710883	-3.007400	2.668500	-8.023700	29.115153	0.000226	20.768531
2629.712140	-2.974300	2.665000	-7.924900	29.108863	0.000226	20.764091
2630.709393	-2.991900	2.660600	-7.958800	29.143284	0.000227	20.759419
2631.712579	-2.974000	2.657800	-7.903300	29.132089	0.000225	20.761889
2632.708499	-3.003200	2.651400	-7.962100	29.177977	0.000227	20.763559
2633.708714	-2.986600	2.648700	-7.909800	29.187581	0.000225	20.759012
2634.715223	-2.994200	2.644800	-7.917800	29.229878	0.000225	20.770817
2635.713141	-2.973900	2.639700	-7.849300	29.244980	0.000227	20.781768
2636.708893	-2.979100	2.635700	-7.851200	29.208579	0.000224	20.762154
2637.711508	-3.020100	2.630000	-7.942400	29.162386	0.000225	20.756856
2638.713189	-3.005700	2.626200	-7.892400	29.146907	0.000224	20.771131
2639.710506	-3.023600	2.620700	-7.923000	29.148220	0.000226	20.743056
2640.712019	-3.013700	2.615400	-7.881000	29.106635	0.000225	20.766113
2641.710081	-3.002300	2.611800	-7.840800	29.028937	0.000225	20.771750
2642.710641	-2.993300	2.605700	-7.798700	29.023166	0.000224	20.773523
2643.709616	-2.999300	2.601900	-7.803700	28.972267	0.000225	20.783880
2644.711747	-2.996000	2.596400	-7.778100	28.957031	0.000227	20.765210
2645.710958	-2.992800	2.591200	-7.752800	29.009789	0.000228	20.765260
2646.711590	-2.964100	2.587900	-7.670300	29.001269	0.000225	20.772797
2647.713796	-3.000700	2.580700	-7.742400	28.972340	0.000225	20.783006
2648.712462	-3.012700	2.575000	-7.756000	28.975901	0.000224	20.766204
2649.710272	-3.018000	2.569300	-7.752500	29.030573	0.000225	20.777192
2650.713661	-2.983500	2.566600	-7.656100	28.999587	0.000225	20.776792
2651.712658	-2.991400	2.559400	-7.654700	28.976748	0.000226	20.765635
2652.716808	-2.985800	2.553200	-7.622800	28.990073	0.000224	20.775267
2653.715789	-2.998500	2.547900	-7.638800	29.024898	0.000225	20.753929
2654.715593	-3.059200	2.539500	-7.767100	28.957276	0.000226	20.775890
2655.717782	-3.032400	2.535100	-7.685800	28.950466	0.000224	20.763338
2656.715576	-2.983400	2.529300	-7.544400	28.920521	0.000226	20.770154
2657.715881	-3.008200	2.522800	-7.588800	28.941844	0.000225	20.764135
2658.717009	-2.996300	2.517300	-7.541900	28.949722	0.000226	20.754053
2659.717765	-3.001100	2.511100	-7.535100	28.935058	0.000226	20.806611
2660.715663	-3.019100	2.503900	-7.559100	28.935701	0.000227	20.770274
2661.718900	-3.012500	2.498600	-7.526400	28.961168	0.000225	20.768431
