LabVIEW Measurement	
Writer_Version	2
Reader_Version	2
Separator	Tab
Decimal_Separator	.
Multi_Headings	No
X_Columns	One
Time_Pref	Absolute
Operator	admin
Description	Clolumns are: time, Current, Voltage, Power, Battery Temp, and Chamber Temp
Date	2024/08/16
Time	13:06:06.104549407958984375
***End_of_Header***	
	
Channels	6						
Samples	1	1	1	1	1	1	
Date	2024/08/24	2024/08/24	2024/08/24	2024/08/24	2024/08/24	2024/08/24	
Time	09:34:21.2157216072082519531	09:34:21.2220144271850585938	09:34:21.2270464897155761719	09:34:21.2007040977478027344	09:34:21.2007040977478027344	09:34:21.2007040977478027344	
X_Dimension	Time	Time	Time	Time	Time	Time	
X0	0.0000000000000000E+0	0.0000000000000000E+0	0.0000000000000000E+0	0.0000000000000000E+0	0.0000000000000000E+0	0.0000000000000000E+0	
Delta_X	1.000000	1.000000	1.000000	1.000000	1.000000	1.000000	
***End_of_Header***							
X_Value	Untitled	Untitled 1	Untitled 2	Untitled 3	Untitled 4	Untitled 5	Comment
0.000000	-0.005359	4.107600	-0.022095	21.003861	0.000968	20.864950
1.001236	-2.997200	3.952200	-11.844000	20.997895	0.000969	20.885061
2.000629	-3.020100	3.945400	-11.914000	20.987718	0.000968	20.869193
3.001277	-3.029100	3.939000	-11.931000	21.002759	0.000967	20.866693
4.001767	-2.999300	3.935700	-11.804000	20.998695	0.000968	20.876853
5.001397	-3.000600	3.932400	-11.798000	20.988389	0.000965	20.872235
6.001385	-3.007900	3.928200	-11.815000	20.982626	0.000965	20.866471
7.000912	-2.987800	3.926200	-11.729000	21.012191	0.000964	20.849101
8.001354	-3.010300	3.924000	-11.812000	21.006379	0.000963	20.866995
9.001873	-2.981200	3.923000	-11.694000	21.011945	0.000961	20.856441
10.001292	-3.014500	3.919700	-11.814000	21.011224	0.000961	20.857616
11.002235	-3.017700	3.917600	-11.821000	21.003480	0.000961	20.865517
12.002258	-3.005400	3.918000	-11.774000	21.023969	0.000961	20.864673
13.002818	-2.983900	3.917100	-11.687000	21.028986	0.000961	20.851675
14.003003	-3.009000	3.914200	-11.776000	21.027189	0.000958	20.873109
15.001892	-3.001600	3.911900	-11.741000	21.013865	0.000958	20.863577
16.002303	-2.991100	3.911500	-11.698000	21.032354	0.000957	20.855517
17.003002	-3.004600	3.911900	-11.752000	21.019129	0.000956	20.885436
18.003162	-3.013100	3.908500	-11.776000	21.045222	0.000956	20.872180
19.004978	-3.025000	3.906500	-11.816000	21.053933	0.000957	20.853867
20.005053	-3.019500	3.908000	-11.798000	21.022491	0.000956	20.864618
21.007474	-2.989600	3.906900	-11.679000	21.052431	0.000955	20.842408
22.007237	-2.998900	3.904500	-11.708000	21.047340	0.000954	20.851540
23.007356	-2.995000	3.906300	-11.698000	21.047137	0.000952	20.844225
24.007306	-2.969400	3.905100	-11.594000	21.063402	0.000955	20.867131
25.008235	-2.989000	3.903700	-11.668000	21.074730	0.000952	20.864237
26.010057	-2.996100	3.902700	-11.692000	21.057609	0.000951	20.840475
27.009144	-2.997100	3.902700	-11.696000	21.069165	0.000950	20.873369
28.008973	-2.992800	3.900800	-11.674000	21.085923	0.000951	20.855045
29.010765	-3.008600	3.900300	-11.732000	21.089937	0.000951	20.842939
30.009015	-2.985200	3.900300	-11.642000	21.094499	0.000950	20.835175
31.009403	-3.006100	3.899000	-11.720000	21.083750	0.000949	20.837225
32.010620	-3.014500	3.900300	-11.756000	21.079152	0.000950	20.866289
33.009509	-2.984700	3.899000	-11.637000	21.079379	0.000948	20.848025
34.009094	-3.000800	3.898100	-11.697000	21.086336	0.000947	20.829855
35.011863	-2.981100	3.896900	-11.616000	21.108289	0.000948	20.840434
36.009824	-3.004000	3.896600	-11.704000	21.100330	0.000948	20.829153
37.011137	-2.997900	3.895200	-11.677000	21.112605	0.000948	20.837638
38.013960	-3.010900	3.894300	-11.725000	21.117690	0.000944	20.849837
39.011101	-3.007800	3.896000	-11.717000	21.121082	0.000946	20.839006
40.011328	-3.012100	3.894900	-11.730000	21.126721	0.000945	20.849387
41.012275	-3.005400	3.893900	-11.702000	21.112975	0.000942	20.830896
42.012708	-2.988900	3.893800	-11.637000	21.128519	0.000944	20.834116
43.011322	-3.014500	3.892800	-11.734000	21.135051	0.000943	20.844917
44.012104	-3.002000	3.892700	-11.685000	21.134922	0.000943	20.833883
45.011884	-3.008900	3.892400	-11.710000	21.156178	0.000943	20.841395
46.010834	-3.011900	3.892800	-11.724000	21.153759	0.000943	20.835656
47.013233	-3.019100	3.890800	-11.746000	21.166730	0.000940	20.851001
48.012301	-3.006300	3.891000	-11.696000	21.161011	0.000940	20.848126
49.010808	-2.998300	3.890400	-11.663000	21.187758	0.000942	20.840743
50.012443	-3.003200	3.889900	-11.681000	21.176708	0.000941	20.827793
51.011724	-3.004900	3.890400	-11.689000	21.181892	0.000940	20.816383
52.013461	-3.006800	3.889600	-11.694000	21.201326	0.000941	20.823970
53.014515	-2.994300	3.890100	-11.646000	21.182311	0.000942	20.841458
54.012922	-3.005500	3.889600	-11.690000	21.205049	0.000941	20.829117
55.013845	-2.995300	3.888200	-11.646000	21.186355	0.000939	20.822270
56.014779	-2.997800	3.889300	-11.659000	21.204071	0.000939	20.813440
57.014090	-3.009100	3.888700	-11.700000	21.217047	0.000938	20.814092
58.014125	-3.012500	3.887900	-11.710000	21.213926	0.000940	20.820453
59.014528	-2.989100	3.887700	-11.620000	21.220765	0.000939	20.807854
60.013966	-2.997700	3.886100	-11.649000	21.231088	0.000940	20.838569
61.013318	-2.986000	3.886900	-11.606000	21.229943	0.000940	20.822251
62.014875	-3.011900	3.884900	-11.699000	21.231069	0.000938	20.830490
63.014766	-3.003500	3.886200	-11.671000	21.234159	0.000937	20.799443
64.013569	-2.987100	3.887800	-11.613000	21.241718	0.000937	20.821229
65.013741	-2.998600	3.885200	-11.649000	21.248132	0.000937	20.792558
66.016927	-3.009800	3.884800	-11.692000	21.259052	0.000936	20.836673
67.015121	-2.998400	3.884200	-11.645000	21.258332	0.000937	20.819357
68.017428	-3.001600	3.885700	-11.663000	21.256406	0.000938	20.795145
69.015426	-2.998400	3.882500	-11.640000	21.284000	0.000937	20.827491
70.015479	-2.985800	3.884000	-11.596000	21.282350	0.000938	20.819203
71.018951	-3.000300	3.883100	-11.649000	21.270230	0.000938	20.816562
72.016637	-2.990400	3.884400	-11.615000	21.286474	0.000935	20.807208
73.016983	-2.973400	3.884200	-11.549000	21.314510	0.000938	20.821980
74.019305	-2.986500	3.883300	-11.596000	21.310344	0.000938	20.808328
75.016441	-3.004300	3.882700	-11.665000	21.317557	0.000935	20.807484
76.017231	-3.006400	3.882200	-11.671000	21.319028	0.000937	20.808008
77.020695	-3.021600	3.881700	-11.727000	21.341807	0.000936	20.816099
78.018229	-2.986100	3.883500	-11.596000	21.363399	0.000936	20.812571
79.021438	-2.999700	3.882900	-11.646000	21.363676	0.000935	20.800046
80.019666	-2.991400	3.881400	-11.609000	21.369413	0.000938	20.813846
81.019059	-2.989600	3.881300	-11.602000	21.377124	0.000934	20.816345
82.019339	-2.991900	3.882700	-11.616000	21.362328	0.000936	20.789214
83.019535	-2.998900	3.881300	-11.639000	21.377524	0.000936	20.800624
84.019766	-2.992800	3.881000	-11.614000	21.382140	0.000936	20.801924
85.020751	-2.989700	3.881500	-11.603000	21.400808	0.000936	20.801161
86.021283	-2.999200	3.880500	-11.638000	21.389262	0.000934	20.813791
87.020744	-2.975500	3.879800	-11.544000	21.399337	0.000936	20.803483
88.025069	-2.988700	3.881000	-11.599000	21.385126	0.000934	20.799695
89.024257	-3.011200	3.878600	-11.678000	21.429039	0.000936	20.788630
90.022812	-3.004200	3.879000	-11.653000	21.396592	0.000935	20.791253
91.022541	-2.998900	3.879300	-11.633000	21.391878	0.000938	20.809770
92.023912	-3.016900	3.877400	-11.696000	21.411776	0.000936	20.805497
93.022631	-3.008800	3.878700	-11.669000	21.407092	0.000937	20.791327
94.023170	-2.995700	3.877000	-11.613000	21.412195	0.000936	20.807338
95.027208	-3.007400	3.876900	-11.658000	21.416614	0.000936	20.802276
96.024865	-2.990000	3.878500	-11.595000	21.412946	0.000935	20.808564
97.024238	-3.015100	3.876000	-11.685000	21.417907	0.000935	20.781759
98.028109	-3.000700	3.877000	-11.633000	21.445442	0.000935	20.785127
99.023707	-3.013100	3.876300	-11.678000	21.467536	0.000935	20.815769
100.024306	-3.019100	3.876100	-11.702000	21.437602	0.000935	20.803361
101.026693	-3.000600	3.877400	-11.634000	21.467481	0.000935	20.789161
102.024323	-3.001800	3.876700	-11.636000	21.451942	0.000936	20.777406
103.025227	-2.982100	3.877800	-11.564000	21.462416	0.000934	20.799741
104.029261	-3.027600	3.874500	-11.729000	21.478128	0.000936	20.783219
105.024270	-2.986700	3.876600	-11.577000	21.458250	0.000935	20.787511
106.024986	-3.000000	3.875800	-11.627000	21.506431	0.000934	20.780719
107.029107	-3.007200	3.874500	-11.650000	21.477778	0.000934	20.795670
108.025967	-2.981000	3.875000	-11.550000	21.485661	0.000936	20.799291
109.025917	-3.007000	3.874100	-11.648000	21.480467	0.000936	20.793620
110.032448	-3.008000	3.873500	-11.650000	21.481489	0.000936	20.802703
111.029132	-3.005600	3.874400	-11.643000	21.498173	0.000935	20.801853
112.028645	-2.999400	3.873500	-11.616000	21.507749	0.000936	20.795788
113.034999	-2.989400	3.873400	-11.578000	21.503262	0.000935	20.793670
114.030887	-2.988400	3.874900	-11.579000	21.501170	0.000936	20.787308
115.033652	-2.984400	3.874000	-11.560000	21.522518	0.000935	20.793497
116.033905	-3.024400	3.872800	-11.712000	21.530248	0.000936	20.769463
117.031690	-2.969800	3.874600	-11.505000	21.558826	0.000934	20.765343
118.029336	-3.002300	3.871100	-11.621000	21.559448	0.000936	20.774500
119.033235	-3.016100	3.871800	-11.676000	21.564734	0.000935	20.791170
120.031640	-2.984800	3.872500	-11.558000	21.570174	0.000935	20.794242
121.029533	-3.001300	3.871600	-11.619000	21.578826	0.000935	20.745527
122.033097	-3.001500	3.871500	-11.619000	21.583619	0.000935	20.780670
123.032619	-3.010100	3.870700	-11.649000	21.578161	0.000936	20.780424
124.030892	-2.997200	3.871700	-11.604000	21.603440	0.000935	20.770633
125.035061	-2.995000	3.871000	-11.593000	21.609803	0.000937	20.784112
126.032214	-3.004300	3.871100	-11.629000	21.622689	0.000937	20.775671
127.031478	-3.008300	3.869600	-11.639000	21.631765	0.000937	20.791392
128.035414	-3.028200	3.869200	-11.715000	21.615557	0.000938	20.777543
129.033912	-3.001800	3.871100	-11.619000	21.603065	0.000937	20.771680
130.030746	-2.986700	3.871600	-11.563000	21.613810	0.000937	20.780061
131.036924	-2.992600	3.869300	-11.576000	21.630787	0.000936	20.770024
132.036357	-2.995000	3.870400	-11.591000	21.640836	0.000937	20.774864
133.032403	-2.988300	3.869800	-11.562000	21.621188	0.000936	20.762314
134.037807	-3.018200	3.870000	-11.679000	21.665972	0.000938	20.784372
135.035808	-3.004200	3.868600	-11.621000	21.645500	0.000936	20.780480
136.033830	-3.015900	3.869400	-11.670000	21.648392	0.000939	20.773892
137.037517	-3.015700	3.868400	-11.665000	21.657167	0.000939	20.776983
138.036028	-3.013800	3.867900	-11.656000	21.663504	0.000936	20.762462
139.033257	-3.008200	3.869000	-11.638000	21.660527	0.000937	20.741464
140.037498	-2.983200	3.870900	-11.546000	21.675147	0.000938	20.768423
141.039662	-3.010800	3.868000	-11.645000	21.683768	0.000940	20.773732
142.035907	-3.002200	3.868900	-11.615000	21.668040	0.000939	20.767001
143.040903	-3.005000	3.867700	-11.622000	21.700079	0.000940	20.750701
144.040023	-3.010000	3.868400	-11.642000	21.713370	0.000941	20.774434
145.037950	-3.015800	3.866700	-11.660000	21.714440	0.000938	20.768393
146.035698	-2.996200	3.868700	-11.591000	21.726876	0.000940	20.762821
147.036617	-3.018700	3.867800	-11.675000	21.728722	0.000939	20.750443
148.040547	-3.005100	3.867100	-11.620000	21.721117	0.000941	20.750418
149.039104	-3.009700	3.866800	-11.637000	21.739840	0.000939	20.756829
150.039308	-2.995400	3.867400	-11.583000	21.734703	0.000941	20.743152
151.040462	-2.998500	3.867000	-11.594000	21.739465	0.000939	20.767834
152.040438	-3.005500	3.866300	-11.619000	21.739238	0.000941	20.770925
153.041481	-3.014100	3.864200	-11.646000	21.731258	0.000942	20.754878
154.041747	-2.990000	3.866500	-11.560000	21.712079	0.000941	20.747537
155.041114	-3.019700	3.865500	-11.671000	21.739626	0.000941	20.760883
156.042091	-3.007400	3.864700	-11.621000	21.759924	0.000941	20.743264
157.042437	-3.002600	3.865700	-11.607000	21.738624	0.000942	20.749447
158.040994	-3.002400	3.865100	-11.604000	21.770366	0.000942	20.762724
159.041490	-3.011400	3.864400	-11.635000	21.766650	0.000942	20.750470
160.041245	-3.013700	3.865000	-11.647000	21.765998	0.000942	20.766887
161.041209	-3.008900	3.865400	-11.629000	21.793199	0.000942	20.762817
162.041853	-2.994500	3.864000	-11.569000	21.772704	0.000943	20.738985
163.041467	-3.005900	3.864700	-11.616000	21.791777	0.000942	20.759972
164.042637	-3.021000	3.862000	-11.666000	21.818326	0.000943	20.745292
165.043708	-2.994200	3.864800	-11.571000	21.805905	0.000945	20.742343
166.042934	-3.005800	3.864500	-11.616000	21.830065	0.000947	20.754197
167.043515	-2.999800	3.864000	-11.591000	21.841656	0.000944	20.733555
168.042008	-3.002300	3.861900	-11.593000	21.853795	0.000945	20.758508
169.042627	-3.009000	3.862900	-11.623000	21.872431	0.000945	20.772420
170.042910	-3.001400	3.862500	-11.592000	21.845060	0.000947	20.763516
171.043314	-3.006500	3.862500	-11.612000	21.831445	0.000946	20.746569
172.043656	-3.002200	3.862000	-11.594000	21.847127	0.000947	20.747092
173.043199	-2.998500	3.862400	-11.579000	21.851059	0.000947	20.740596
174.047516	-2.986400	3.862200	-11.533000	21.838460	0.000945	20.754065
175.044029	-2.977100	3.863200	-11.501000	21.838816	0.000946	20.746360
176.045235	-2.996400	3.862200	-11.572000	21.859180	0.000947	20.744932
177.044542	-2.992900	3.861800	-11.557000	21.866231	0.000947	20.753886
178.045479	-3.005000	3.861000	-11.602000	21.859323	0.000949	20.752661
179.047890	-2.986200	3.862400	-11.532000	21.884024	0.000948	20.749885
180.046371	-3.002200	3.862000	-11.593000	21.904344	0.000948	20.737033
181.046453	-3.003500	3.861600	-11.597000	21.897676	0.000949	20.754067
182.046014	-2.984800	3.862600	-11.529000	21.888621	0.000949	20.741209
183.047476	-2.983200	3.860700	-11.516000	21.907766	0.000948	20.735242
184.046582	-3.007700	3.859800	-11.609000	21.902408	0.000950	20.736991
185.047357	-2.998300	3.860200	-11.572000	21.885995	0.000950	20.761815
186.049189	-3.005900	3.860100	-11.602000	21.918250	0.000949	20.762807
187.047954	-3.013700	3.861100	-11.634000	21.933931	0.000950	20.717810
188.048922	-3.002300	3.860200	-11.588000	21.921117	0.000950	20.749081
189.049898	-3.008500	3.858700	-11.608000	21.950677	0.000950	20.739315
190.048443	-3.006200	3.858300	-11.598000	21.950425	0.000951	20.730054
191.049053	-3.000900	3.859700	-11.581000	21.980039	0.000952	20.744051
192.054446	-3.010500	3.857600	-11.612000	21.964304	0.000953	20.749163
193.049328	-2.976000	3.860800	-11.488000	21.929972	0.000952	20.725701
194.049266	-2.993500	3.859100	-11.551000	21.987454	0.000952	20.748154
195.053244	-3.021700	3.859200	-11.658000	21.986512	0.000956	20.744366
196.050741	-3.003000	3.857000	-11.582000	21.997997	0.000953	20.751123
197.050950	-2.994800	3.858900	-11.555000	21.999665	0.000954	20.711538
198.054295	-3.014000	3.857900	-11.626000	21.992511	0.000954	20.727137
199.051068	-3.023100	3.855900	-11.656000	22.016785	0.000957	20.723936
200.050723	-3.001800	3.857400	-11.578000	22.010296	0.000956	20.751106
201.055303	-2.978700	3.857200	-11.489000	22.024560	0.000956	20.725081
202.052168	-3.003400	3.856700	-11.582000	22.021707	0.000956	20.720328
203.059598	-3.001500	3.855500	-11.571000	22.013398	0.000957	20.754686
204.055918	-2.997900	3.855900	-11.559000	22.032743	0.000956	20.741335
205.050344	-2.982200	3.856600	-11.500000	22.014512	0.000957	20.752482
206.051810	-2.993000	3.855800	-11.539000	22.010378	0.000958	20.763517
207.056655	-3.022500	3.854900	-11.649000	22.026299	0.000958	20.742944
208.055458	-2.985300	3.857600	-11.515000	22.042975	0.000959	20.730239
209.053924	-3.018400	3.856200	-11.639000	22.055757	0.000960	20.738769
210.055886	-3.010800	3.855600	-11.608000	22.051489	0.000960	20.725961
211.060738	-3.013400	3.854800	-11.615000	22.053950	0.000961	20.737909
212.056739	-2.979800	3.856000	-11.488000	22.035153	0.000961	20.750859
213.056461	-2.991100	3.856800	-11.534000	22.066506	0.000960	20.722502
214.054126	-3.006200	3.854000	-11.585000	22.075401	0.000963	20.755116
215.054027	-3.027800	3.852900	-11.665000	22.068764	0.000960	20.729505
216.054066	-3.001100	3.854400	-11.566000	22.089180	0.000964	20.726235
217.052965	-2.996300	3.853900	-11.546000	22.119609	0.000960	20.734888
218.054403	-3.012700	3.851900	-11.602000	22.087655	0.000961	20.730398
219.057481	-3.018500	3.852900	-11.629000	22.097946	0.000965	20.727899
220.053937	-2.992200	3.854600	-11.533000	22.078226	0.000964	20.733762
221.055301	-2.995300	3.853100	-11.540000	22.085670	0.000965	20.745956
222.054193	-3.009400	3.852700	-11.593000	22.108078	0.000965	20.735198
223.055926	-3.000600	3.852900	-11.560000	22.121580	0.000966	20.751087
224.053803	-3.003200	3.851400	-11.566000	22.129404	0.000966	20.729996
225.054923	-3.012400	3.851100	-11.599000	22.150119	0.000966	20.729398
226.055441	-3.025800	3.852000	-11.654000	22.134411	0.000966	20.751605
227.055028	-2.999000	3.851000	-11.549000	22.151559	0.000969	20.737004
228.055776	-2.999400	3.851400	-11.551000	22.174034	0.000968	20.743859
229.055983	-2.986200	3.851200	-11.499000	22.156561	0.000969	20.774256
230.056498	-2.987100	3.852800	-11.507000	22.171568	0.000969	20.737122
231.057144	-2.990600	3.851200	-11.516000	22.182553	0.000968	20.743854
232.057336	-3.009900	3.850200	-11.587000	22.210662	0.000969	20.733589
233.058101	-3.020200	3.850000	-11.626000	22.181226	0.000969	20.741102
234.059071	-3.018200	3.850400	-11.619000	22.206246	0.000970	20.740549
235.060351	-3.021600	3.848900	-11.628000	22.204149	0.000971	20.737027
236.059479	-3.001300	3.850000	-11.554000	22.212244	0.000972	20.731855
237.060386	-2.985800	3.848300	-11.490000	22.220664	0.000971	20.734596
238.059186	-3.003800	3.849300	-11.561000	22.240401	0.000971	20.733968
239.060660	-2.979300	3.850100	-11.470000	22.242215	0.000972	20.763287
240.060778	-2.995900	3.849800	-11.532000	22.257867	0.000974	20.753829
241.060040	-3.002500	3.848100	-11.552000	22.265833	0.000975	20.750899
242.061909	-3.013000	3.848100	-11.592000	22.271318	0.000974	20.727941
243.062718	-3.003700	3.848200	-11.558000	22.244814	0.000972	20.752138
244.061853	-3.007300	3.847900	-11.571000	22.241271	0.000973	20.740530
245.062812	-3.002800	3.848900	-11.557000	22.255473	0.000976	20.745741
246.062634	-3.000800	3.848600	-11.548000	22.248947	0.000975	20.732568
247.063466	-2.975200	3.849200	-11.451000	22.267558	0.000975	20.747884
248.064345	-2.994100	3.847900	-11.519000	22.275899	0.000975	20.734424
249.063880	-2.994000	3.848400	-11.521000	22.291323	0.000976	20.727108
250.066123	-3.002800	3.846800	-11.550000	22.282252	0.000977	20.746001
251.065488	-2.989500	3.848000	-11.502000	22.295130	0.000975	20.734240
252.064798	-3.011500	3.846700	-11.583000	22.317455	0.000977	20.750431
253.066418	-3.005300	3.844500	-11.552000	22.309079	0.000979	20.763382
254.070792	-3.008700	3.845500	-11.567000	22.344533	0.000979	20.753838
255.064485	-3.002000	3.846600	-11.547000	22.352080	0.000980	20.747644
256.068322	-3.010000	3.847100	-11.579000	22.358353	0.000982	20.766729
257.070329	-2.995800	3.846100	-11.521000	22.379858	0.000980	20.755546
258.066857	-2.999200	3.846700	-11.535000	22.319219	0.000981	20.768793
259.068499	-3.017300	3.844200	-11.598000	22.307005	0.000979	20.761305
260.070481	-2.994300	3.844500	-11.510000	22.315978	0.000980	20.745633
261.066373	-2.987500	3.846100	-11.489000	22.318937	0.000983	20.750492
262.068100	-2.978600	3.845300	-11.453000	22.344797	0.000982	20.749361
263.069515	-3.008200	3.843300	-11.560000	22.333132	0.000985	20.754749
264.069357	-3.013900	3.843200	-11.581000	22.350296	0.000984	20.770989
265.069519	-3.005700	3.842300	-11.548000	22.333472	0.000983	20.771685
266.070000	-2.978300	3.844900	-11.451000	22.341442	0.000984	20.741733
267.067345	-2.994200	3.844000	-11.508000	22.346350	0.000984	20.764666
268.070730	-2.985000	3.844100	-11.474000	22.330921	0.000984	20.762019
269.069939	-2.985500	3.845100	-11.479000	22.349506	0.000986	20.741273
270.068622	-2.990600	3.841700	-11.487000	22.341131	0.000988	20.760862
271.069625	-2.991600	3.843000	-11.495000	22.333924	0.000988	20.751749
272.070370	-2.988100	3.841700	-11.478000	22.336888	0.000987	20.752347
273.067142	-3.012100	3.841200	-11.568000	22.363548	0.000989	20.752964
274.069269	-3.002300	3.841700	-11.532000	22.371222	0.000987	20.772029
275.071882	-3.012200	3.841200	-11.570000	22.390907	0.000989	20.760446
276.069114	-2.980500	3.842100	-11.450000	22.408993	0.000988	20.747737
277.074853	-3.005300	3.841100	-11.542000	22.433190	0.000989	20.766753
278.071304	-3.012300	3.841600	-11.571000	22.429574	0.000989	20.749382
279.071746	-3.001600	3.841000	-11.529000	22.442635	0.000990	20.766729
280.074297	-3.023300	3.840000	-11.608000	22.441628	0.000989	20.774255
281.072108	-2.999700	3.841000	-11.520000	22.438393	0.000991	20.758687
282.072629	-3.005800	3.841300	-11.544000	22.416657	0.000992	20.774853
283.072381	-3.000200	3.839900	-11.519000	22.431808	0.000990	20.764896
284.071033	-3.000200	3.840500	-11.521000	22.413011	0.000993	20.754607
285.076321	-3.018000	3.839800	-11.587000	22.424646	0.000991	20.763413
286.071843	-3.004700	3.839500	-11.536000	22.439797	0.000991	20.757723
287.073292	-2.980200	3.839700	-11.440000	22.451634	0.000994	20.764362
288.073592	-2.985800	3.839400	-11.462000	22.473635	0.000994	20.754152
289.072611	-3.002200	3.839300	-11.526000	22.474128	0.000993	20.747533
290.072354	-2.996600	3.839200	-11.504000	22.476994	0.000993	20.762257
291.075166	-3.000200	3.839000	-11.517000	22.508715	0.000998	20.755144
292.075488	-3.001600	3.838200	-11.520000	22.527751	0.000995	20.769942
293.077095	-2.980200	3.839200	-11.440000	22.502880	0.000994	20.784389
294.078013	-2.982800	3.839000	-11.449000	22.491266	0.000996	20.783663
295.079386	-3.011200	3.836100	-11.549000	22.507487	0.000998	20.773355
296.078248	-3.004100	3.836300	-11.524000	22.511644	0.000998	20.765664
297.079181	-2.972300	3.838600	-11.407000	22.509227	0.000998	20.781262
298.079419	-2.982500	3.839400	-11.450000	22.520363	0.000996	20.777716
299.079014	-3.004300	3.838300	-11.531000	22.511797	0.000999	20.764395
300.080012	-2.999600	3.836000	-11.505000	22.522582	0.000997	20.754808
301.081590	-2.995400	3.836900	-11.491000	22.547423	0.001000	20.787273
302.079885	-3.009700	3.836200	-11.545000	22.553153	0.000999	20.758399
303.079621	-3.008100	3.835100	-11.535000	22.557789	0.000999	20.771102
304.081685	-3.019800	3.836300	-11.584000	22.549716	0.001001	20.765388
305.082513	-3.019900	3.834400	-11.578000	22.553054	0.001001	20.777266
306.082008	-2.984400	3.834900	-11.444000	22.553799	0.001002	20.767106
307.081781	-2.995900	3.835200	-11.489000	22.557069	0.001001	20.757579
308.085705	-2.980700	3.835100	-11.430000	22.586544	0.001003	20.786626
309.083032	-2.996600	3.833700	-11.486000	22.587195	0.001002	20.777321
310.081085	-3.003400	3.836000	-11.520000	22.580488	0.001003	20.781509
311.088210	-2.993900	3.834000	-11.478000	22.597383	0.001003	20.764765
312.083242	-3.007700	3.834200	-11.531000	22.598907	0.001003	20.759179
313.082415	-3.013200	3.833800	-11.551000	22.591905	0.001005	20.779193
314.085423	-3.015400	3.833000	-11.556000	22.584828	0.001005	20.769260
315.084257	-3.014700	3.833600	-11.556000	22.591308	0.001009	20.781440
316.082959	-3.005500	3.833800	-11.521000	22.612187	0.001008	20.775326
317.085530	-3.032200	3.830700	-11.615000	22.625344	0.001008	20.779969
318.085495	-2.999500	3.833500	-11.498000	22.635285	0.001006	20.768589
319.082310	-3.022200	3.831600	-11.579000	22.648619	0.001007	20.788583
320.086983	-2.982000	3.831800	-11.425000	22.666134	0.001008	20.789057
321.087523	-2.995700	3.832600	-11.481000	22.649467	0.001008	20.772837
322.085038	-2.996700	3.831900	-11.482000	22.677471	0.001011	20.769117
323.089117	-3.010900	3.830100	-11.530000	22.694463	0.001008	20.774284
324.089128	-3.013900	3.830500	-11.544000	22.689803	0.001011	20.769142
325.086642	-2.984700	3.831700	-11.436000	22.692969	0.001013	20.794599
326.090010	-2.984700	3.831700	-11.435000	22.688013	0.001010	20.790583
327.091635	-3.000000	3.831000	-11.492000	22.671445	0.001013	20.792954
328.089781	-2.994500	3.830700	-11.469000	22.663023	0.001012	20.780251
329.093206	-3.012900	3.830300	-11.539000	22.638358	0.001013	20.774037
330.096737	-3.009800	3.830300	-11.528000	22.657091	0.001014	20.781895
331.092124	-3.001200	3.830400	-11.494000	22.682831	0.001014	20.785392
332.093932	-2.996100	3.831000	-11.477000	22.677427	0.001014	20.777134
333.096083	-3.023200	3.829400	-11.577000	22.690183	0.001014	20.777109
334.094053	-2.997900	3.829600	-11.479000	22.716760	0.001015	20.780023
335.097015	-3.012600	3.828000	-11.532000	22.725907	0.001014	20.788711
336.096074	-2.977300	3.829900	-11.402000	22.728224	0.001015	20.781550
337.093381	-3.013800	3.828700	-11.538000	22.729393	0.001018	20.784617
338.097138	-2.989600	3.829600	-11.447000	22.732134	0.001014	20.782621
339.097548	-2.987300	3.829100	-11.437000	22.761783	0.001017	20.783397
340.096549	-2.979100	3.829800	-11.409000	22.757640	0.001017	20.774980
341.099726	-2.992100	3.827600	-11.452000	22.760954	0.001017	20.796317
342.099530	-2.987100	3.828400	-11.435000	22.748297	0.001019	20.784113
343.095861	-2.996500	3.827100	-11.467000	22.772289	0.001019	20.802457
344.096963	-2.985700	3.827600	-11.426000	22.759578	0.001020	20.791620
345.099179	-3.015500	3.826300	-11.537000	22.766328	0.001018	20.817822
346.095942	-3.021200	3.826900	-11.561000	22.753996	0.001022	20.787925
347.099352	-3.001600	3.827500	-11.487000	22.754568	0.001021	20.778541
348.097538	-2.992200	3.826000	-11.448000	22.765874	0.001022	20.804565
349.097433	-2.995900	3.827200	-11.464000	22.752847	0.001024	20.791042
350.099429	-3.017900	3.825100	-11.543000	22.775784	0.001022	20.795052
351.098519	-3.009900	3.825200	-11.512000	22.789787	0.001022	20.789639
352.097619	-3.015700	3.825700	-11.536000	22.787366	0.001025	20.799067
353.100678	-3.006200	3.823700	-11.494000	22.790827	0.001024	20.779775
354.099357	-2.990800	3.824800	-11.439000	22.827918	0.001023	20.805078
355.095943	-3.012800	3.823900	-11.519000	22.828239	0.001025	20.785010
356.097343	-3.009500	3.823500	-11.504000	22.824452	0.001026	20.797812
357.098555	-3.010700	3.825400	-11.516000	22.832350	0.001026	20.817104
358.098586	-3.006100	3.823800	-11.494000	22.853319	0.001026	20.793066
359.102297	-2.979200	3.823700	-11.390000	22.852791	0.001028	20.815296
360.100509	-2.995400	3.822000	-11.446000	22.847259	0.001027	20.802168
361.099442	-2.998200	3.823100	-11.461000	22.870076	0.001028	20.790413
362.099222	-2.997600	3.823800	-11.461000	22.868503	0.001030	20.808752
363.099108	-2.994100	3.823900	-11.448000	22.870790	0.001028	20.819104
364.108382	-2.997700	3.822900	-11.459000	22.865135	0.001027	20.797792
365.101737	-3.000800	3.823000	-11.469000	22.868793	0.001031	20.825638
366.100930	-3.016300	3.820200	-11.521000	22.851755	0.001030	20.820422
367.100269	-3.011200	3.820400	-11.503000	22.860190	0.001031	20.807062
368.100042	-3.018900	3.820200	-11.531000	22.853820	0.001032	20.801155
369.100426	-3.009100	3.822100	-11.500000	22.839710	0.001030	20.814045
370.100114	-3.019100	3.819800	-11.531000	22.829469	0.001029	20.801890
371.099174	-3.016000	3.821300	-11.523000	22.834676	0.001031	20.813744
372.099340	-2.994900	3.820000	-11.440000	22.837762	0.001032	20.806404
373.100214	-2.981400	3.820100	-11.388000	22.871090	0.001034	20.805179
374.100553	-3.001100	3.821100	-11.466000	22.851685	0.001033	20.827938
375.101387	-3.008500	3.820600	-11.492000	22.879579	0.001035	20.805150
376.102234	-3.008200	3.819400	-11.488000	22.903312	0.001033	20.819443
377.101044	-2.996100	3.819900	-11.443000	22.901942	0.001033	20.805742
378.102962	-2.987700	3.819400	-11.409000	22.906275	0.001035	20.820989
379.102838	-2.974400	3.820600	-11.363000	22.923362	0.001036	20.820090
380.102284	-2.982400	3.817900	-11.385000	22.919699	0.001036	20.816420
381.102934	-2.997500	3.818900	-11.446000	22.931605	0.001037	20.811278
382.102038	-3.009200	3.818300	-11.488000	22.940168	0.001038	20.806581
383.100854	-2.987700	3.819500	-11.409000	22.940666	0.001036	20.822727
384.100932	-2.988200	3.818600	-11.410000	22.983204	0.001036	20.836422
385.103043	-2.999900	3.818300	-11.454000	22.938718	0.001037	20.819353
386.103546	-2.989400	3.816400	-11.408000	22.953710	0.001038	20.834373
387.103055	-2.991500	3.817900	-11.421000	22.937195	0.001040	20.829206
388.104062	-2.995100	3.816500	-11.428000	22.953310	0.001038	20.820222
389.104259	-2.993300	3.817700	-11.426000	22.950367	0.001043	20.810636
390.105386	-2.992200	3.815600	-11.416000	22.977619	0.001039	20.809490
391.103148	-2.982600	3.815400	-11.378000	22.976391	0.001041	20.823907
392.108429	-2.987700	3.815200	-11.398000	22.974897	0.001041	20.815772
393.107171	-2.983700	3.816500	-11.386000	22.965235	0.001041	20.829325
394.107981	-3.014500	3.815600	-11.501000	22.979009	0.001040	20.823210
395.107333	-3.032300	3.814400	-11.565000	22.969144	0.001042	20.835138
396.109010	-3.009800	3.814900	-11.480000	22.982440	0.001041	20.825699
397.105615	-2.980500	3.816300	-11.373000	23.015364	0.001043	20.830712
398.108749	-2.998800	3.814300	-11.438000	23.004006	0.001044	20.839247
399.106430	-2.983400	3.814600	-11.380000	22.988015	0.001044	20.833656
400.106869	-3.006600	3.814100	-11.467000	22.999545	0.001043	20.825768
401.107147	-2.995800	3.813600	-11.422000	23.022280	0.001045	20.847124
402.108654	-2.991500	3.813400	-11.405000	23.016177	0.001047	20.837691
403.106947	-3.005400	3.813400	-11.460000	23.027658	0.001047	20.834969
404.109408	-3.010300	3.813300	-11.478000	23.057367	0.001046	20.846719
405.109579	-2.991300	3.813900	-11.406000	23.059230	0.001046	20.843844
406.110821	-2.989500	3.812400	-11.395000	23.075669	0.001047	20.847988
407.109712	-2.981000	3.814200	-11.368000	23.073574	0.001046	20.847785
408.110046	-3.006600	3.810300	-11.454000	23.084778	0.001047	20.826770
409.110758	-2.996700	3.812000	-11.422000	23.093695	0.001048	20.819584
410.109426	-2.998800	3.811000	-11.426000	23.080090	0.001046	20.841513
411.111094	-2.996100	3.811100	-11.418000	23.079316	0.001047	20.843108
412.110470	-3.006200	3.810300	-11.453000	23.119839	0.001050	20.857159
413.112935	-2.996800	3.812600	-11.424000	23.100556	0.001049	20.843528
414.113668	-2.986000	3.810400	-11.377000	23.128578	0.001050	20.865916
415.112293	-2.994900	3.809800	-11.409000	23.132437	0.001048	20.843231
416.113407	-2.989500	3.810500	-11.391000	23.149491	0.001051	20.836139
417.111870	-3.000500	3.807900	-11.425000	23.157708	0.001050	20.853855
418.112451	-2.969700	3.809800	-11.311000	23.162415	0.001050	20.853830
419.112629	-3.003300	3.807800	-11.435000	23.173549	0.001050	20.852185
420.114301	-2.983300	3.807800	-11.359000	23.191125	0.001050	20.836134
421.111969	-3.001000	3.807300	-11.424000	23.186571	0.001050	20.841053
422.116143	-2.998700	3.808200	-11.418000	23.220953	0.001051	20.869817
423.114461	-2.988400	3.806600	-11.374000	23.186541	0.001053	20.850032
424.114798	-3.012600	3.807900	-11.470000	23.198744	0.001054	20.846614
425.114704	-2.994900	3.808200	-11.403000	23.216547	0.001053	20.846910
426.116817	-3.013000	3.807100	-11.470000	23.186117	0.001055	20.844866
427.116541	-3.004500	3.806400	-11.434000	23.193313	0.001056	20.844490
428.117828	-3.012300	3.805500	-11.462000	23.178468	0.001056	20.864226
429.118999	-3.006600	3.805800	-11.441000	23.178798	0.001055	20.854600
430.116411	-3.005200	3.805800	-11.436000	23.153345	0.001055	20.852328
431.118986	-2.985700	3.806700	-11.364000	23.167511	0.001057	20.866048
432.117553	-2.998700	3.805800	-11.411000	23.173263	0.001056	20.868967
433.117787	-3.010900	3.805000	-11.455000	23.185171	0.001056	20.874262
434.125019	-2.998000	3.805300	-11.406000	23.193811	0.001057	20.874385
435.120057	-2.993000	3.804800	-11.387000	23.218065	0.001058	20.866448
436.120106	-2.989700	3.804900	-11.374000	23.208000	0.001057	20.872958
437.125947	-2.988700	3.803800	-11.368000	23.239129	0.001058	20.854842
438.123877	-2.996100	3.803900	-11.395000	23.245901	0.001060	20.862576
439.126599	-3.011400	3.802600	-11.450000	23.255137	0.001058	20.874202
440.123101	-3.000900	3.803000	-11.410000	23.239474	0.001059	20.872730
441.122054	-2.986400	3.802900	-11.356000	23.256438	0.001061	20.885463
442.125577	-3.002000	3.802800	-11.415000	23.240125	0.001061	20.887606
443.123682	-3.011700	3.802100	-11.449000	23.253170	0.001060	20.868439
444.124779	-3.025000	3.801700	-11.498000	23.228838	0.001061	20.881037
445.122949	-3.004300	3.801800	-11.421000	23.258922	0.001060	20.865668
446.134792	-2.993600	3.802700	-11.383000	23.259138	0.001061	20.871100
447.125245	-2.984600	3.803100	-11.348000	23.267280	0.001062	20.878785
448.122411	-3.010000	3.800000	-11.435000	23.301221	0.001061	20.865386
449.124203	-2.995700	3.800900	-11.386000	23.273480	0.001062	20.877886
450.122292	-2.983200	3.800100	-11.335000	23.272253	0.001061	20.884242
451.126929	-3.012400	3.799700	-11.444000	23.240578	0.001062	20.884741
452.126134	-3.011200	3.799300	-11.439000	23.219907	0.001063	20.861183
453.127275	-3.003500	3.799500	-11.409000	23.227256	0.001064	20.861909
454.132349	-3.012900	3.798600	-11.443000	23.228695	0.001063	20.876152
455.122566	-2.999800	3.799100	-11.396000	23.228966	0.001062	20.873105
456.125484	-3.000400	3.798000	-11.394000	23.231775	0.001063	20.869757
457.129894	-3.001700	3.798000	-11.398000	23.248335	0.001063	20.872127
458.130640	-2.970400	3.801200	-11.289000	23.269418	0.001063	20.875713
459.125370	-2.988700	3.799400	-11.354000	23.281020	0.001062	20.883545
460.130576	-3.000000	3.798300	-11.394000	23.309160	0.001064	20.873342
461.132084	-2.995600	3.798900	-11.380000	23.312910	0.001062	20.874730
462.129959	-2.999800	3.797500	-11.389000	23.285268	0.001066	20.880216
463.132936	-3.004300	3.798600	-11.410000	23.313309	0.001066	20.871337
464.136929	-3.007500	3.795900	-11.416000	23.307351	0.001064	20.853986
465.136527	-3.009500	3.797500	-11.426000	23.299111	0.001065	20.868487
466.137477	-2.989500	3.798200	-11.354000	23.334934	0.001064	20.866457
467.131668	-2.993000	3.795700	-11.359000	23.345864	0.001067	20.876463
468.129976	-2.994300	3.796400	-11.366000	23.353138	0.001065	20.872848
469.133821	-2.990800	3.795900	-11.352000	23.386653	0.001068	20.843378
470.147274	-2.983200	3.796300	-11.324000	23.366582	0.001066	20.868304
471.131086	-3.024200	3.794000	-11.472000	23.361796	0.001066	20.865879
472.139084	-3.007400	3.794000	-11.408000	23.337570	0.001068	20.849660
473.152347	-3.024600	3.793500	-11.473000	23.337915	0.001067	20.873712
474.148351	-3.018300	3.792700	-11.447000	23.305173	0.001068	20.845640
475.141355	-2.981700	3.795300	-11.315000	23.314162	0.001067	20.852752
476.139369	-2.995200	3.794300	-11.363000	23.332189	0.001067	20.860861
477.135001	-2.986800	3.793100	-11.329000	23.317621	0.001067	20.847210
478.133195	-3.002300	3.792200	-11.385000	23.349393	0.001068	20.835905
479.148005	-3.010600	3.793300	-11.419000	23.358135	0.001069	20.850356
480.142109	-2.996700	3.793500	-11.366000	23.356164	0.001067	20.849803
481.135432	-2.986700	3.793500	-11.330000	23.360821	0.001068	20.859212
482.150252	-3.003100	3.790600	-11.383000	23.356588	0.001070	20.846435
483.135066	-2.997500	3.791500	-11.365000	23.345554	0.001068	20.827790
484.142383	-3.001400	3.792900	-11.382000	23.348717	0.001069	20.848978
485.154428	-2.998400	3.790300	-11.364000	23.381878	0.001070	20.830531
486.146639	-2.997100	3.792800	-11.366000	23.350634	0.001070	20.864175
487.141839	-3.004900	3.790300	-11.389000	23.393286	0.001070	20.828215
488.138801	-2.995800	3.790100	-11.354000	23.399583	0.001070	20.831208
489.139762	-3.018700	3.788500	-11.435000	23.404738	0.001069	20.860081
490.141508	-3.017300	3.789600	-11.433000	23.409863	0.001071	20.850045
491.141443	-2.996100	3.789900	-11.354000	23.420694	0.001070	20.856633
492.150344	-2.988500	3.790100	-11.326000	23.405107	0.001070	20.841012
493.149498	-3.001400	3.788300	-11.369000	23.390541	0.001070	20.839688
494.156092	-3.006600	3.789300	-11.392000	23.379635	0.001072	20.842508
495.152504	-2.997000	3.788200	-11.353000	23.375777	0.001072	20.841486
496.147800	-3.026600	3.785700	-11.456000	23.382769	0.001072	20.832848
497.141315	-3.012700	3.786700	-11.407000	23.391950	0.001071	20.836833
498.141464	-3.001600	3.787500	-11.367000	23.377339	0.001071	20.851112
499.149167	-2.979900	3.789000	-11.289000	23.374052	0.001071	20.838335
500.141294	-2.973900	3.787800	-11.262000	23.386194	0.001072	20.843866
501.148193	-3.011400	3.786800	-11.403000	23.395513	0.001072	20.829499
502.144138	-3.000400	3.785300	-11.357000	23.415056	0.001072	20.843397
503.144573	-3.017400	3.784500	-11.419000	23.439404	0.001074	20.836981
504.149064	-3.013500	3.784400	-11.404000	23.423443	0.001072	20.811975
505.143765	-3.013700	3.784800	-11.404000	23.415894	0.001073	20.821004
506.147521	-2.996500	3.786500	-11.344000	23.459863	0.001072	20.838048
507.142780	-2.984200	3.784200	-11.292000	23.436807	0.001072	20.816835
508.147553	-2.988500	3.784000	-11.307000	23.460735	0.001074	20.803362
509.145341	-3.015500	3.783700	-11.407000	23.462554	0.001073	20.844064
510.144331	-3.004100	3.783200	-11.363000	23.461726	0.001076	20.823794
511.148019	-3.002100	3.782500	-11.354000	23.477292	0.001073	20.818534
512.159873	-3.000800	3.783200	-11.352000	23.490788	0.001073	20.812148
513.151013	-2.999200	3.782500	-11.343000	23.508955	0.001073	20.804754
514.157478	-2.995700	3.782600	-11.331000	23.511167	0.001074	20.808869
515.152754	-2.985700	3.783000	-11.294000	23.521978	0.001073	20.822550
516.146682	-3.003800	3.782000	-11.358000	23.512118	0.001074	20.846331
517.146152	-2.985700	3.780900	-11.287000	23.504599	0.001075	20.821725
518.156525	-2.991700	3.782500	-11.314000	23.530014	0.001075	20.825864
519.148935	-3.007300	3.781800	-11.371000	23.514306	0.001074	20.820549
520.152050	-3.009800	3.781100	-11.379000	23.506038	0.001073	20.807520
521.155194	-2.985800	3.782100	-11.291000	23.541544	0.001076	20.818455
522.154154	-2.992400	3.780900	-11.312000	23.556182	0.001077	20.849724
523.148593	-3.013800	3.778900	-11.388000	23.572717	0.001074	20.825049
524.163225	-2.993000	3.780400	-11.313000	23.559572	0.001077	20.816139
525.150542	-2.995100	3.779200	-11.318000	23.560321	0.001075	20.795553
526.152365	-2.994600	3.779000	-11.315000	23.537991	0.001075	20.795454
527.159975	-2.976900	3.779300	-11.248000	23.519967	0.001074	20.810103
528.150311	-2.989200	3.778100	-11.292000	23.521712	0.001076	20.827024
529.152235	-3.007100	3.778700	-11.362000	23.518479	0.001074	20.819043
530.163899	-3.021300	3.776300	-11.408000	23.525575	0.001077	20.797232
531.155389	-3.001900	3.778000	-11.340000	23.517361	0.001076	20.801327
532.156030	-2.987000	3.778500	-11.285000	23.513951	0.001076	20.817823
533.159513	-2.988300	3.777200	-11.285000	23.519603	0.001075	20.803574
534.152910	-2.996600	3.777300	-11.318000	23.536533	0.001077	20.828131
535.155108	-2.991400	3.777500	-11.299000	23.559291	0.001076	20.808271
536.155382	-2.987100	3.777300	-11.283000	23.535641	0.001078	20.807323
537.155869	-2.989200	3.776300	-11.288000	23.530192	0.001076	20.800912
538.158563	-2.986000	3.775800	-11.273000	23.568032	0.001076	20.800438
539.167623	-2.999900	3.776000	-11.326000	23.520786	0.001078	20.808553
540.160871	-2.982700	3.775600	-11.261000	23.544318	0.001079	20.802745
541.157123	-2.980900	3.774900	-11.250000	23.562790	0.001075	20.800873
542.168566	-2.985800	3.774200	-11.267000	23.595377	0.001077	20.796556
543.155369	-2.988400	3.775400	-11.281000	23.591317	0.001078	20.803392
544.162158	-2.977600	3.775200	-11.240000	23.610759	0.001078	20.805812
545.159529	-2.998900	3.775200	-11.320000	23.619553	0.001077	20.806093
546.160774	-2.989200	3.774900	-11.282000	23.622041	0.001078	20.790570
547.156172	-3.000300	3.773400	-11.320000	23.654681	0.001077	20.803377
548.160584	-3.019100	3.773300	-11.391000	23.632457	0.001078	20.784416
549.159327	-2.980600	3.772500	-11.242000	23.638630	0.001076	20.786337
550.158865	-2.998100	3.772400	-11.308000	23.639802	0.001077	20.799366
551.167759	-2.992400	3.773800	-11.291000	23.627234	0.001078	20.800991
552.162637	-3.010200	3.771100	-11.351000	23.633536	0.001079	20.783127
553.159415	-3.001900	3.770700	-11.319000	23.638783	0.001080	20.810672
554.165735	-2.998100	3.769500	-11.300000	23.649272	0.001081	20.781833
555.165726	-3.002900	3.770200	-11.320000	23.636871	0.001080	20.806859
556.167913	-2.995200	3.771800	-11.297000	23.630580	0.001080	20.787276
557.179451	-3.006400	3.770400	-11.335000	23.658460	0.001080	20.785354
558.178476	-2.955300	3.770500	-11.141000	23.654977	0.001079	20.803674
559.161639	-2.979300	3.770000	-11.231000	23.658889	0.001078	20.802854
560.169553	-2.984400	3.769100	-11.248000	23.694114	0.001081	20.796917
561.165659	-2.986200	3.769700	-11.256000	23.695133	0.001080	20.799836
562.166032	-3.006500	3.767100	-11.325000	23.690133	0.001080	20.786762
563.168313	-3.012500	3.767400	-11.348000	23.698947	0.001080	20.778529
564.178779	-3.002800	3.766600	-11.309000	23.704799	0.001079	20.770172
565.167101	-3.014000	3.766700	-11.351000	23.713662	0.001080	20.784747
566.166396	-3.004300	3.767500	-11.317000	23.726382	0.001079	20.784224
567.169031	-3.010500	3.767100	-11.340000	23.716179	0.001079	20.783478
568.174918	-3.010800	3.766800	-11.341000	23.733702	0.001079	20.790141
569.172616	-2.992300	3.767700	-11.273000	23.703558	0.001078	20.772246
570.171239	-2.993300	3.765700	-11.272000	23.701169	0.001080	20.763212
571.175482	-3.004600	3.766100	-11.314000	23.700474	0.001080	20.780534
572.173112	-3.022300	3.765700	-11.379000	23.673393	0.001079	20.756228
573.178615	-2.994300	3.765000	-11.273000	23.686168	0.001080	20.750543
574.175466	-3.003400	3.763600	-11.303000	23.688710	0.001080	20.784861
575.175961	-2.995000	3.762700	-11.268000	23.699011	0.001080	20.773852
576.175570	-2.990700	3.764500	-11.257000	23.709839	0.001081	20.764319
577.180643	-3.017900	3.763700	-11.357000	23.692567	0.001079	20.779720
578.177182	-3.014100	3.763400	-11.340000	23.691148	0.001078	20.778771
579.178862	-2.983000	3.765200	-11.230000	23.685995	0.001080	20.784036
580.183255	-3.009800	3.763400	-11.326000	23.654061	0.001080	20.770987
581.176640	-2.963400	3.764500	-11.155000	23.622693	0.001079	20.774627
582.178798	-2.991200	3.763700	-11.257000	23.664466	0.001078	20.771461
583.178518	-3.016800	3.762700	-11.351000	23.651021	0.001079	20.758930
584.176901	-3.026800	3.760500	-11.381000	23.677329	0.001079	20.775822
585.180603	-3.007900	3.760300	-11.309000	23.703543	0.001080	20.791198
586.176485	-3.020500	3.759800	-11.356000	23.714672	0.001079	20.769165
587.176657	-2.992100	3.763300	-11.259000	23.707179	0.001080	20.774454
588.176395	-3.013400	3.761200	-11.334000	23.729111	0.001080	20.765149
589.180609	-3.023700	3.759400	-11.365000	23.733471	0.001080	20.775684
590.175570	-3.002700	3.759700	-11.288000	23.743004	0.001080	20.758214
591.188206	-3.013100	3.758800	-11.324000	23.746334	0.001080	20.755389
592.178043	-3.005100	3.760300	-11.300000	23.740708	0.001081	20.758283
593.184776	-2.962500	3.760700	-11.139000	23.710022	0.001079	20.769718
594.192497	-3.007600	3.756700	-11.297000	23.695858	0.001080	20.752198
595.178459	-2.987400	3.759200	-11.228000	23.712854	0.001079	20.748849
596.182662	-2.974900	3.760200	-11.185000	23.727116	0.001080	20.761726
597.175111	-3.020500	3.757800	-11.348000	23.715194	0.001079	20.750247
598.177115	-2.989900	3.757900	-11.235000	23.694410	0.001080	20.761652
599.179854	-2.969100	3.759300	-11.160000	23.689705	0.001081	20.764996
600.183135	-3.002600	3.757200	-11.280000	23.687562	0.001081	20.752415
601.179634	-2.991500	3.758100	-11.241000	23.656618	0.001079	20.750790
602.177034	-2.974600	3.758200	-11.178000	23.627540	0.001079	20.774746
603.177680	-2.997900	3.757600	-11.265000	23.626250	0.001079	20.752588
604.179473	-2.997400	3.757600	-11.261000	23.606902	0.001080	20.750262
605.180049	-3.008100	3.755200	-11.294000	23.621485	0.001080	20.769623
606.187087	-2.996300	3.755600	-11.252000	23.619022	0.001078	20.773792
607.182249	-3.010100	3.754300	-11.300000	23.642399	0.001081	20.755502
608.192638	-2.978100	3.757000	-11.188000	23.646479	0.001079	20.758169
609.185628	-3.014300	3.753700	-11.314000	23.636591	0.001079	20.753946
610.181974	-2.993100	3.753900	-11.234000	23.625939	0.001080	20.760812
611.180950	-3.007700	3.754700	-11.292000	23.612770	0.001080	20.768947
612.186029	-2.986200	3.753100	-11.207000	23.650533	0.001078	20.750380
613.186110	-3.000500	3.752500	-11.258000	23.662850	0.001079	20.748977
614.185081	-3.017600	3.752100	-11.321000	23.689985	0.001080	20.764803
615.182300	-2.983300	3.753200	-11.196000	23.691325	0.001080	20.759508
616.183931	-2.985400	3.753100	-11.203000	23.734111	0.001080	20.751669
617.187290	-3.010800	3.752000	-11.295000	23.739953	0.001082	20.737612
618.187124	-2.999200	3.752800	-11.254000	23.738461	0.001079	20.752237
619.187753	-3.009200	3.752000	-11.289000	23.736968	0.001080	20.764491
620.183093	-2.998900	3.751000	-11.247000	23.761978	0.001078	20.736461
621.188515	-2.981500	3.750700	-11.182000	23.754836	0.001078	20.753007
622.184351	-2.982200	3.750200	-11.183000	23.764318	0.001079	20.754929
623.199714	-2.982800	3.751400	-11.188000	23.779249	0.001079	20.750459
624.187883	-3.003700	3.750700	-11.265000	23.769668	0.001078	20.751758
625.187467	-3.018300	3.749700	-11.316000	23.787683	0.001078	20.753225
626.190079	-3.016600	3.748800	-11.307000	23.744894	0.001078	20.750152
627.197190	-3.006600	3.749800	-11.272000	23.782432	0.001078	20.748434
628.185645	-2.982300	3.750200	-11.183000	23.780510	0.001079	20.743662
629.188953	-2.998100	3.749300	-11.240000	23.774032	0.001078	20.750444
630.197583	-2.983900	3.748800	-11.184000	23.781057	0.001078	20.739943
631.189374	-3.012400	3.747900	-11.289000	23.781525	0.001077	20.738989
632.199583	-3.002000	3.749300	-11.253000	23.774234	0.001078	20.752069
633.205462	-3.007600	3.748300	-11.272000	23.753126	0.001080	20.738490
634.193382	-2.976500	3.748000	-11.155000	23.747200	0.001078	20.755309
635.200821	-3.010600	3.745500	-11.274000	23.721115	0.001078	20.758080
636.200841	-2.998800	3.746500	-11.234000	23.738608	0.001078	20.750488
637.196689	-2.996800	3.745600	-11.224000	23.687433	0.001078	20.740432
638.191000	-2.997000	3.745700	-11.225000	23.717528	0.001076	20.734094
639.196588	-3.007200	3.746100	-11.265000	23.713843	0.001078	20.729926
640.201537	-2.982300	3.745400	-11.169000	23.738805	0.001079	20.727925
641.196071	-2.979700	3.745000	-11.157000	23.742165	0.001078	20.730820
642.191243	-2.984300	3.745600	-11.177000	23.764545	0.001077	20.740930
643.192550	-3.013500	3.743700	-11.281000	23.761308	0.001079	20.747169
644.195426	-2.974900	3.744700	-11.138000	23.780392	0.001078	20.756346
645.199134	-3.020900	3.742700	-11.306000	23.786490	0.001078	20.734484
646.192937	-2.982700	3.743400	-11.165000	23.813145	0.001078	20.731338
647.189844	-3.014000	3.743500	-11.282000	23.784500	0.001076	20.751456
648.194064	-3.006000	3.742000	-11.248000	23.798559	0.001076	20.756069
649.220284	-2.999400	3.743700	-11.227000	23.778968	0.001077	20.750177
650.190157	-3.021600	3.742800	-11.309000	23.784968	0.001077	20.740071
651.192566	-3.007100	3.743200	-11.255000	23.778771	0.001077	20.731960
652.208909	-2.997200	3.742400	-11.216000	23.776303	0.001078	20.761255
653.206179	-2.992300	3.741700	-11.194000	23.795618	0.001076	20.725618
654.207105	-2.994300	3.742200	-11.204000	23.800347	0.001076	20.739369
655.194654	-3.006000	3.740300	-11.242000	23.837306	0.001076	20.743711
656.205277	-3.004400	3.741200	-11.239000	23.841464	0.001077	20.745983
657.196860	-3.005100	3.741300	-11.241000	23.877274	0.001077	20.745855
658.198453	-3.008000	3.739600	-11.248000	23.888647	0.001075	20.750621
659.205650	-3.001500	3.739900	-11.225000	23.884490	0.001075	20.757358
660.198491	-3.001200	3.739800	-11.222000	23.899070	0.001075	20.729303
661.203774	-3.027000	3.737100	-11.311000	23.864452	0.001075	20.729678
662.198859	-2.999400	3.738400	-11.212000	23.859798	0.001077	20.744452
663.198457	-3.009800	3.738700	-11.251000	23.887352	0.001076	20.734148
664.198478	-2.997900	3.739300	-11.209000	23.895188	0.001074	20.723514
665.198397	-3.013700	3.737500	-11.262000	23.899075	0.001075	20.726463
666.198257	-3.012100	3.736500	-11.254000	23.923860	0.001074	20.754637
667.201067	-3.005000	3.735700	-11.225000	23.925397	0.001075	20.708760
668.200551	-3.008500	3.736300	-11.240000	23.944788	0.001075	20.722516
669.204526	-3.011100	3.735400	-11.247000	23.929559	0.001074	20.736169
670.203497	-3.003300	3.736300	-11.220000	23.932445	0.001075	20.730054
671.200057	-2.985000	3.735200	-11.149000	23.949940	0.001075	20.728157
672.203286	-3.034000	3.734300	-11.329000	23.968853	0.001076	20.729105
673.208164	-3.012200	3.734700	-11.249000	23.967459	0.001072	20.740985
674.199543	-3.007500	3.735900	-11.235000	24.002477	0.001074	20.743859
675.208560	-3.017700	3.733900	-11.267000	24.001059	0.001073	20.728211
676.205125	-2.988900	3.734700	-11.162000	24.025669	0.001074	20.705475
677.203376	-2.986800	3.734500	-11.153000	24.022739	0.001073	20.749006
678.203753	-2.998900	3.732900	-11.194000	24.037765	0.001074	20.719029
679.215453	-3.020200	3.733800	-11.276000	24.044384	0.001076	20.719977
680.202585	-2.993400	3.734200	-11.177000	24.034529	0.001074	20.756563
681.206085	-2.997200	3.733500	-11.189000	24.046699	0.001073	20.737473
682.208622	-3.002800	3.733600	-11.210000	24.061582	0.001072	20.764254
683.200627	-2.984700	3.733400	-11.142000	24.075317	0.001073	20.735354
684.205679	-3.005800	3.733300	-11.220000	24.103162	0.001074	20.750478
685.215056	-2.986900	3.733400	-11.151000	24.097813	0.001071	20.737527
686.220972	-2.986000	3.733000	-11.145000	24.072510	0.001073	20.729219
687.209453	-3.031800	3.730900	-11.310000	24.054470	0.001073	20.754751
688.209330	-3.007900	3.731700	-11.223000	24.052156	0.001072	20.751007
689.207080	-2.996200	3.731800	-11.180000	24.021001	0.001073	20.726873
690.208344	-3.006100	3.731700	-11.215000	24.039937	0.001073	20.726898
691.210310	-2.996700	3.730800	-11.178000	24.076470	0.001072	20.735087
692.206303	-2.986000	3.730700	-11.137000	24.040681	0.001070	20.753249
693.204998	-3.019900	3.729500	-11.262000	24.055116	0.001072	20.735956
694.209571	-2.998000	3.728900	-11.179000	24.080350	0.001072	20.731392
695.211832	-3.010700	3.729700	-11.229000	24.059873	0.001072	20.733615
696.215435	-3.006400	3.729500	-11.212000	24.050861	0.001073	20.722679
697.208146	-3.018600	3.728800	-11.254000	24.048423	0.001070	20.742995
698.209059	-3.011700	3.728100	-11.227000	24.003285	0.001069	20.720960
699.218357	-3.021500	3.726900	-11.260000	23.994499	0.001072	20.733961
700.214305	-2.984300	3.729000	-11.127000	23.998779	0.001072	20.739202
701.230317	-2.987400	3.728600	-11.138000	24.026280	0.001073	20.744497
702.225897	-3.002500	3.728200	-11.193000	24.034313	0.001070	20.731215
703.220616	-3.003700	3.726700	-11.192000	24.005792	0.001068	20.726320
704.208847	-3.012900	3.726900	-11.227000	24.003827	0.001067	20.724349
705.215470	-2.973800	3.727600	-11.084000	24.031102	0.001069	20.734158
706.212971	-2.998000	3.727300	-11.174000	24.032175	0.001069	20.745193
707.211165	-2.998100	3.725700	-11.169000	24.028989	0.001067	20.741049
708.216920	-2.987000	3.727100	-11.132000	24.038745	0.001069	20.750360
709.224885	-3.025100	3.725000	-11.268000	24.076219	0.001069	20.758544
710.217312	-2.961300	3.724900	-11.029000	24.087270	0.001069	20.764886
711.217629	-2.988800	3.724800	-11.132000	24.098193	0.001068	20.745969
712.211215	-3.003600	3.724200	-11.186000	24.077839	0.001069	20.744047
713.225985	-3.021400	3.723900	-11.251000	24.088319	0.001068	20.731323
714.223900	-2.996500	3.722300	-11.153000	24.080006	0.001066	20.721563
715.216526	-2.991400	3.724000	-11.139000	24.086674	0.001068	20.740580
716.217964	-3.010900	3.723700	-11.211000	24.061119	0.001068	20.735813
717.218059	-2.987400	3.724100	-11.124000	24.050545	0.001067	20.751288
718.214974	-3.006800	3.722600	-11.193000	24.035391	0.001067	20.739409
719.219346	-2.989000	3.723400	-11.129000	23.999010	0.001068	20.736115
720.220561	-3.000800	3.722800	-11.170000	23.997070	0.001066	20.728004
721.218523	-3.001300	3.721500	-11.169000	23.972661	0.001066	20.763745
722.217067	-2.998100	3.722700	-11.160000	23.986461	0.001065	20.738229
723.223324	-3.013500	3.721200	-11.212000	23.978236	0.001067	20.734722
724.219768	-3.000400	3.720900	-11.163000	23.953373	0.001063	20.749619
725.219021	-3.014000	3.720900	-11.214000	23.969799	0.001066	20.744754
726.218931	-3.001000	3.719600	-11.162000	23.988244	0.001064	20.761829
727.220004	-2.990700	3.719200	-11.121000	24.000808	0.001065	20.736495
728.224230	-3.008900	3.719500	-11.191000	23.999143	0.001065	20.736722
729.223171	-3.020500	3.718700	-11.232000	24.021592	0.001063	20.735527
730.220615	-2.994900	3.719400	-11.139000	24.052550	0.001064	20.743815
731.229017	-2.977000	3.719600	-11.071000	24.047049	0.001064	20.753472
732.225301	-3.007000	3.717800	-11.179000	24.070866	0.001063	20.744166
733.221947	-2.994700	3.719900	-11.140000	24.056579	0.001064	20.738372
734.225194	-2.992700	3.719300	-11.130000	24.078337	0.001063	20.749762
735.229590	-3.016900	3.718100	-11.216000	24.087418	0.001064	20.741800
736.222594	-3.018500	3.717500	-11.220000	24.092121	0.001064	20.761691
737.226526	-3.012100	3.717900	-11.199000	24.094066	0.001064	20.750839
738.232789	-3.004500	3.718800	-11.173000	24.117513	0.001063	20.748276
739.224702	-3.009400	3.717800	-11.188000	24.126613	0.001062	20.763568
740.228219	-3.000800	3.717600	-11.155000	24.122609	0.001062	20.731576
741.229525	-3.003600	3.716900	-11.163000	24.121639	0.001062	20.758579
742.226325	-3.011200	3.716200	-11.189000	24.112637	0.001062	20.757137
743.227005	-3.008500	3.715300	-11.176000	24.093953	0.001060	20.754045
744.234005	-2.995300	3.715900	-11.128000	24.117045	0.001063	20.768670
745.226106	-2.985000	3.716400	-11.092000	24.095574	0.001062	20.741919
746.228698	-2.971400	3.716700	-11.043000	24.146213	0.001061	20.752405
747.224122	-3.003900	3.715400	-11.160000	24.148774	0.001062	20.757819
748.226615	-3.010100	3.714900	-11.181000	24.157687	0.001062	20.751111
749.225125	-3.001500	3.714000	-11.147000	24.183791	0.001062	20.745051
750.225097	-3.015400	3.714900	-11.201000	24.180152	0.001059	20.747565
751.222985	-2.987800	3.715300	-11.100000	24.196727	0.001060	20.761820
752.226151	-2.976500	3.715300	-11.058000	24.196333	0.001059	20.751467
753.220654	-3.005100	3.711500	-11.152000	24.172849	0.001060	20.750198
754.225473	-3.019900	3.713700	-11.214000	24.135576	0.001060	20.765445
755.229769	-3.013700	3.712700	-11.188000	24.075511	0.001058	20.766843
756.232939	-2.963900	3.713300	-11.005000	24.095219	0.001058	20.770488
757.229820	-2.985400	3.711700	-11.080000	24.096017	0.001058	20.752322
758.224377	-2.971000	3.712600	-11.030000	24.082090	0.001059	20.756372
759.226203	-3.000900	3.712300	-11.139000	24.079126	0.001060	20.764304
760.227523	-2.989500	3.712100	-11.096000	24.109585	0.001057	20.753127
761.225608	-2.976900	3.710900	-11.047000	24.108571	0.001059	20.749739
762.225187	-2.991000	3.710500	-11.097000	24.131460	0.001058	20.748040
763.231870	-2.997600	3.710200	-11.122000	24.143535	0.001056	20.761573
764.236042	-3.021500	3.709900	-11.209000	24.162346	0.001059	20.761949
765.227472	-3.034200	3.708600	-11.251000	24.175553	0.001057	20.767135
766.236807	-3.008700	3.709800	-11.160000	24.195167	0.001059	20.785385
767.231029	-3.048500	3.708600	-11.305000	24.205345	0.001057	20.772835
768.230093	-3.010200	3.709200	-11.163000	24.234654	0.001058	20.746756
769.228854	-3.009500	3.709600	-11.163000	24.211471	0.001055	20.765703
770.233311	-3.023900	3.707200	-11.209000	24.199860	0.001058	20.772075
771.235690	-3.012500	3.708100	-11.169000	24.195226	0.001056	20.761263
772.228921	-3.000000	3.707500	-11.121000	24.187072	0.001056	20.792913
773.234071	-3.000000	3.707900	-11.122000	24.188968	0.001054	20.766365
774.237991	-2.987500	3.707300	-11.075000	24.231857	0.001056	20.772401
775.228943	-3.025900	3.706400	-11.214000	24.242341	0.001055	20.776753
776.229578	-3.029700	3.705400	-11.225000	24.252312	0.001053	20.764469
777.235365	-3.002900	3.706200	-11.129000	24.284835	0.001055	20.760582
778.228043	-3.005000	3.705900	-11.134000	24.281703	0.001056	20.784468
779.230341	-3.006100	3.706000	-11.139000	24.294840	0.001053	20.770618
780.227614	-3.004000	3.706100	-11.132000	24.312433	0.001054	20.784947
781.252288	-3.006200	3.704900	-11.138000	24.280216	0.001054	20.782502
782.261864	-3.023600	3.704400	-11.199000	24.259649	0.001053	20.778467
783.239101	-2.981900	3.706400	-11.051000	24.266243	0.001055	20.779391
784.229267	-2.998900	3.705600	-11.111000	24.270049	0.001052	20.782260
785.229920	-2.985900	3.704600	-11.061000	24.267119	0.001054	20.776951
786.233676	-3.009800	3.704100	-11.147000	24.301650	0.001051	20.775079
787.236684	-3.001300	3.703000	-11.113000	24.292147	0.001053	20.774556
788.231110	-2.981800	3.705900	-11.049000	24.311133	0.001053	20.767522
789.232101	-3.009300	3.702800	-11.141000	24.319844	0.001052	20.781476
790.242582	-3.034800	3.700700	-11.229000	24.320641	0.001052	20.766629
791.231784	-2.997100	3.701800	-11.094000	24.306092	0.001051	20.764362
792.233592	-3.006600	3.702300	-11.130000	24.322286	0.001052	20.779658
793.233898	-3.015400	3.702200	-11.163000	24.318953	0.001050	20.764460
794.246557	-3.001900	3.701900	-11.110000	24.347146	0.001051	20.770457
795.234966	-3.001200	3.700900	-11.107000	24.327367	0.001049	20.789971
796.231786	-3.021000	3.701200	-11.181000	24.309209	0.001049	20.786929
797.234035	-2.994000	3.701800	-11.082000	24.340381	0.001050	20.775525
798.231789	-3.022700	3.701400	-11.185000	24.334635	0.001051	20.757906
799.242516	-3.004900	3.700700	-11.119000	24.335383	0.001049	20.793745
800.233268	-2.998700	3.701000	-11.098000	24.331410	0.001050	20.779802
801.234352	-3.011600	3.700800	-11.145000	24.336285	0.001050	20.796546
802.240643	-2.998600	3.700100	-11.095000	24.344596	0.001049	20.771218
803.247360	-2.994900	3.700100	-11.080000	24.366264	0.001049	20.789636
804.232023	-3.003800	3.699700	-11.112000	24.380345	0.001048	20.780528
805.236814	-3.015500	3.698300	-11.152000	24.383088	0.001048	20.791341
806.237251	-2.984900	3.700900	-11.046000	24.407788	0.001047	20.786722
807.234138	-3.003000	3.699400	-11.109000	24.370829	0.001048	20.796586
808.239081	-2.978600	3.699200	-11.017000	24.381241	0.001049	20.786169
809.232454	-3.013700	3.698300	-11.145000	24.395106	0.001048	20.811932
810.242251	-3.020600	3.698600	-11.171000	24.403244	0.001047	20.781216
811.236887	-3.006100	3.698100	-11.116000	24.401649	0.001046	20.771554
812.245659	-2.997700	3.699100	-11.088000	24.391079	0.001047	20.787977
813.238150	-3.005700	3.696700	-11.110000	24.382473	0.001046	20.783611
814.244078	-2.999300	3.697100	-11.087000	24.368441	0.001044	20.787552
815.239603	-3.030200	3.695800	-11.197000	24.349018	0.001044	20.809319
816.241097	-3.007100	3.696700	-11.116000	24.356900	0.001045	20.792097
817.244858	-3.004000	3.696700	-11.104000	24.370258	0.001044	20.796962
818.244617	-3.005600	3.696700	-11.109000	24.382951	0.001044	20.785987
819.245326	-2.999400	3.696000	-11.085000	24.368023	0.001043	20.781443
820.240954	-3.016300	3.693900	-11.141000	24.395436	0.001044	20.813685
821.251345	-2.992100	3.694900	-11.054000	24.351357	0.001045	20.798863
822.246879	-3.012000	3.694700	-11.127000	24.377678	0.001044	20.785913
823.245679	-3.007600	3.695100	-11.112000	24.343406	0.001043	20.776188
824.243791	-2.972200	3.695200	-10.982000	24.360066	0.001042	20.798592
825.247533	-2.985500	3.694800	-11.030000	24.362553	0.001043	20.799189
826.245120	-3.036400	3.692800	-11.212000	24.377432	0.001043	20.776183
827.246000	-3.002400	3.694400	-11.092000	24.377186	0.001043	20.786368
828.240770	-3.002300	3.693700	-11.089000	24.380868	0.001041	20.813296
829.243133	-2.994000	3.692600	-11.055000	24.371164	0.001041	20.794552
830.248039	-2.993300	3.692800	-11.052000	24.374866	0.001042	20.806800
831.257200	-3.009100	3.691700	-11.108000	24.388829	0.001040	20.822704
832.240931	-3.005600	3.692000	-11.096000	24.402162	0.001042	20.798622
833.248107	-2.988800	3.692900	-11.036000	24.404550	0.001041	20.815716
834.245672	-3.004300	3.691400	-11.089000	24.399971	0.001041	20.817760
835.246335	-3.000900	3.692100	-11.078000	24.420723	0.001039	20.810130
836.246778	-2.996900	3.692100	-11.063000	24.424130	0.001041	20.829194
837.252522	-3.016300	3.691700	-11.135000	24.412915	0.001038	20.818892
838.245870	-2.999900	3.690600	-11.070000	24.421176	0.001041	20.808214
839.246935	-2.999300	3.689300	-11.064000	24.441376	0.001039	20.820418
840.243117	-2.988300	3.690400	-11.027000	24.428965	0.001037	20.812708
841.245062	-2.984000	3.689300	-11.008000	24.428970	0.001039	20.820300
842.250786	-3.005100	3.689900	-11.087000	24.446230	0.001039	20.835719
843.262239	-2.992100	3.689600	-11.039000	24.452724	0.001037	20.819001
844.255437	-3.001400	3.690100	-11.074000	24.465066	0.001038	20.815262
845.261177	-3.005500	3.688100	-11.083000	24.448323	0.001039	20.834500
846.252738	-3.002400	3.688200	-11.072000	24.440589	0.001037	20.813465
847.258802	-2.974600	3.689000	-10.972000	24.427276	0.001038	20.829032
848.248865	-2.998300	3.689500	-11.060000	24.429000	0.001036	20.816063
849.254073	-3.002800	3.687600	-11.072000	24.453994	0.001036	20.830232
850.252153	-2.990400	3.689300	-11.031000	24.468453	0.001035	20.805385
851.255301	-2.989700	3.686300	-11.020000	24.429876	0.001036	20.809356
852.261055	-3.012200	3.686500	-11.104000	24.472510	0.001035	20.816567
853.258839	-2.997200	3.687600	-11.051000	24.466716	0.001035	20.814072
854.257469	-3.001500	3.687400	-11.067000	24.466213	0.001035	20.811198
855.254187	-3.018300	3.684000	-11.118000	24.453655	0.001033	20.827521
856.254243	-3.011700	3.685600	-11.099000	24.442435	0.001033	20.817214
857.255560	-3.013200	3.685300	-11.102000	24.446068	0.001034	20.844566
858.263640	-3.005200	3.685100	-11.072000	24.416263	0.001033	20.835053
859.255222	-2.982400	3.687000	-10.995000	24.424953	0.001033	20.830495
860.262659	-3.008200	3.683800	-11.081000	24.429753	0.001034	20.832939
861.257079	-3.004400	3.685100	-11.071000	24.418907	0.001033	20.829645
862.259934	-3.005800	3.684000	-11.072000	24.407461	0.001033	20.837602
863.255141	-2.984700	3.684400	-10.996000	24.429472	0.001034	20.819856
864.256823	-3.000300	3.683800	-11.051000	24.415820	0.001031	20.847884
865.254074	-3.002200	3.683500	-11.056000	24.417036	0.001032	20.832509
866.257882	-2.975200	3.684600	-10.961000	24.426311	0.001034	20.840866
867.256182	-2.975000	3.684400	-10.960000	24.430166	0.001032	20.832406
868.259560	-3.001100	3.682700	-11.051000	24.433952	0.001031	20.848531
869.256379	-2.996600	3.684500	-11.039000	24.444197	0.001031	20.828938
870.255399	-3.011400	3.682000	-11.087000	24.457800	0.001029	20.852541
871.264145	-2.993400	3.681200	-11.019000	24.470161	0.001030	20.838391
872.258934	-2.982000	3.682200	-10.980000	24.444517	0.001029	20.845854
873.265027	-3.002300	3.681200	-11.051000	24.454742	0.001030	20.844259
874.265735	-2.997500	3.681500	-11.034000	24.444763	0.001030	20.842308
875.268195	-2.995400	3.680500	-11.023000	24.432322	0.001029	20.857801
876.263923	-2.994900	3.681700	-11.026000	24.472612	0.001031	20.836109
877.259585	-3.004300	3.680200	-11.055000	24.470574	0.001029	20.865831
878.262782	-3.011600	3.680100	-11.081000	24.488779	0.001029	20.864656
879.257880	-2.990300	3.681200	-11.007000	24.497581	0.001028	20.849306
880.262723	-3.007400	3.680100	-11.066000	24.528472	0.001029	20.849952
881.260555	-3.007200	3.679500	-11.063000	24.518198	0.001026	20.833007
882.264244	-2.998300	3.679000	-11.030000	24.495882	0.001027	20.856136
883.266102	-2.979700	3.680300	-10.965000	24.464789	0.001027	20.875199
884.261389	-3.004500	3.678700	-11.052000	24.463888	0.001026	20.834468
885.261023	-2.990700	3.679700	-11.004000	24.457050	0.001026	20.859849
886.263150	-2.991400	3.678000	-11.001000	24.445874	0.001027	20.848638
887.261632	-3.016600	3.678400	-11.095000	24.453185	0.001026	20.866403
888.260268	-3.006400	3.677400	-11.055000	24.480621	0.001027	20.845092
889.267308	-2.972100	3.679600	-10.935000	24.485120	0.001028	20.850554
890.262844	-3.008300	3.678200	-11.064000	24.481635	0.001027	20.851324
891.266208	-3.001600	3.677600	-11.037000	24.497476	0.001023	20.845407
892.264079	-3.028100	3.677100	-11.134000	24.517148	0.001025	20.852816
893.266084	-2.997000	3.676400	-11.017000	24.512944	0.001026	20.865666
894.263117	-2.987800	3.676200	-10.982000	24.514455	0.001023	20.859122
895.262008	-2.984800	3.676700	-10.974000	24.526250	0.001026	20.872378
896.272509	-2.994000	3.675800	-11.004000	24.547664	0.001025	20.853561
897.263890	-2.998300	3.676100	-11.021000	24.516990	0.001024	20.882053
898.265919	-2.997600	3.675200	-11.016000	24.484007	0.001023	20.870773
899.263370	-3.028700	3.673500	-11.125000	24.488836	0.001025	20.877040
900.271846	-3.015800	3.673900	-11.079000	24.492322	0.001023	20.858253
901.265153	-3.008600	3.674100	-11.053000	24.505673	0.001021	20.883500
902.266761	-3.007800	3.673200	-11.047000	24.509227	0.001022	20.889436
903.275649	-3.013300	3.673400	-11.068000	24.517763	0.001021	20.863389
904.260175	-3.005900	3.674500	-11.043000	24.500996	0.001021	20.869800
905.270190	-2.994300	3.674800	-11.003000	24.502089	0.001020	20.895550
906.260344	-3.008800	3.671500	-11.045000	24.504722	0.001021	20.857418
907.268527	-3.014300	3.673800	-11.073000	24.495024	0.001021	20.859068
908.269336	-2.971900	3.674800	-10.919000	24.507238	0.001021	20.868476
909.270803	-2.989100	3.671400	-10.974000	24.481215	0.001019	20.875558
910.270026	-3.003000	3.670700	-11.022000	24.484381	0.001019	20.876838
911.270008	-2.999800	3.670800	-11.011000	24.480196	0.001017	20.885441
912.264798	-3.002300	3.671700	-11.023000	24.485966	0.001018	20.864678
913.264037	-3.018100	3.670900	-11.078000	24.474451	0.001017	20.852652
914.266984	-2.999200	3.672200	-11.013000	24.477410	0.001018	20.856094
915.272553	-3.008300	3.671500	-11.044000	24.510935	0.001015	20.877400
916.269425	-2.982300	3.672600	-10.951000	24.519116	0.001015	20.877074
917.270827	-3.000600	3.670500	-11.013000	24.525413	0.001017	20.849728
918.263654	-3.008200	3.670000	-11.039000	24.522050	0.001015	20.882862
919.280091	-2.997600	3.669900	-11.000000	24.510388	0.001015	20.864525
920.289085	-3.010300	3.669200	-11.045000	24.522621	0.001015	20.847876
921.273437	-2.993300	3.669900	-10.984000	24.527047	0.001015	20.855635
922.268143	-3.013000	3.668300	-11.051000	24.536725	0.001017	20.843534
923.267373	-2.978900	3.670300	-10.932000	24.568855	0.001014	20.853960
924.275969	-2.984500	3.668400	-10.946000	24.557144	0.001017	20.848849
925.271317	-2.990700	3.668600	-10.970000	24.567043	0.001013	20.866841
926.268208	-3.010000	3.667400	-11.036000	24.539432	0.001016	20.846725
927.273285	-2.998100	3.667500	-10.994000	24.561121	0.001011	20.856632
928.270808	-2.994400	3.667000	-10.979000	24.576785	0.001013	20.855753
929.275282	-2.972000	3.669100	-10.902000	24.588943	0.001012	20.855150
930.270494	-2.989700	3.667500	-10.964000	24.567880	0.001010	20.846344
931.266976	-2.995400	3.666700	-10.982000	24.573073	0.001013	20.865778
932.271301	-2.994200	3.666000	-10.974000	24.577675	0.001015	20.865181
933.274019	-2.996800	3.666700	-10.987000	24.589489	0.001012	20.876560
934.272142	-3.007500	3.665600	-11.023000	24.590036	0.001011	20.845816
935.279000	-2.999800	3.666300	-10.996000	24.589686	0.001011	20.869646
936.271881	-2.998600	3.666800	-10.994000	24.593043	0.001010	20.845988
937.271106	-3.012200	3.663100	-11.032000	24.590484	0.001010	20.855748
938.271963	-3.005700	3.664400	-11.013000	24.560431	0.001009	20.841242
939.283003	-2.976700	3.665800	-10.910000	24.585226	0.001007	20.830085
940.277624	-3.023300	3.663200	-11.074000	24.604803	0.001008	20.870115
941.273456	-2.982600	3.664800	-10.930000	24.598010	0.001010	20.819204
942.277078	-2.991400	3.664500	-10.961000	24.627303	0.001009	20.867087
943.283150	-3.013900	3.661900	-11.034000	24.639244	0.001008	20.862000
944.276339	-3.003100	3.664200	-11.003000	24.639618	0.001010	20.853841
945.274005	-2.992100	3.664900	-10.964000	24.642896	0.001006	20.850018
946.278740	-2.998700	3.662500	-10.982000	24.645412	0.001006	20.858706
947.279379	-3.017000	3.661200	-11.045000	24.636680	0.001008	20.842832
948.290932	-3.003500	3.661800	-10.998000	24.657673	0.001008	20.842086
949.278572	-2.985300	3.663100	-10.934000	24.673242	0.001007	20.853915
950.281068	-2.991500	3.661600	-10.952000	24.681570	0.001007	20.846625
951.279078	-2.985000	3.662000	-10.929000	24.684656	0.001006	20.837869
952.289371	-2.997300	3.662400	-10.976000	24.635661	0.001003	20.842758
953.281219	-2.996600	3.661800	-10.972000	24.654562	0.001004	20.851292
954.285245	-3.009100	3.659800	-11.012000	24.665400	0.001002	20.844151
955.282030	-2.935200	3.662500	-10.747000	24.640140	0.001005	20.842037
956.280921	-2.996400	3.661500	-10.970000	24.640435	0.001005	20.836644
957.287689	-3.001900	3.659000	-10.982000	24.622375	0.001001	20.833695
958.280470	-3.036900	3.659000	-11.111000	24.602976	0.001002	20.826084
959.285153	-3.000600	3.659500	-10.980000	24.610739	0.001000	20.832925
960.283904	-3.007600	3.659300	-11.004000	24.632648	0.001002	20.827408
961.287083	-2.980500	3.659400	-10.904000	24.641597	0.001001	20.813628
962.277013	-2.986300	3.657900	-10.922000	24.642823	0.001002	20.838565
963.278413	-3.003600	3.658900	-10.988000	24.645284	0.001000	20.837241
964.280890	-3.005500	3.657900	-10.993000	24.666769	0.001000	20.845524
965.278518	-2.997400	3.659600	-10.968000	24.666267	0.001000	20.817045
966.281547	-3.016700	3.657400	-11.031000	24.679999	0.000999	20.822291
967.279450	-3.004300	3.657200	-10.986000	24.632870	0.001001	20.828578
968.279438	-3.000400	3.657500	-10.972000	24.620657	0.000997	20.815376
969.288852	-3.011600	3.656500	-11.010000	24.630783	0.000996	20.824113
970.286010	-3.002700	3.657800	-10.982000	24.640903	0.000997	20.828578
971.296578	-3.024300	3.656200	-11.056000	24.619387	0.000998	20.851085
972.283313	-2.998700	3.655700	-10.962000	24.600865	0.000997	20.832974
973.283054	-3.008300	3.654400	-10.991000	24.595888	0.000997	20.827506
974.279534	-3.002600	3.655300	-10.974000	24.552737	0.000997	20.816453
975.282916	-2.990900	3.655800	-10.931000	24.576612	0.000996	20.831398
976.290314	-2.993600	3.653600	-10.937000	24.576690	0.000994	20.788330
977.288522	-3.025300	3.655400	-11.056000	24.579600	0.000997	20.821120
978.283965	-2.999200	3.653800	-10.957000	24.600446	0.000994	20.816908
979.286755	-2.992900	3.654300	-10.935000	24.631610	0.000995	20.811193
980.286921	-3.015700	3.653400	-11.016000	24.611640	0.000995	20.808699
981.289463	-3.003600	3.654000	-10.974000	24.622632	0.000995	20.805978
982.293097	-3.005600	3.653300	-10.979000	24.645933	0.000993	20.825566
983.287442	-3.000900	3.653100	-10.961000	24.633082	0.000992	20.827369
984.285121	-2.997100	3.652000	-10.944000	24.622962	0.000995	20.803464
985.283563	-3.009200	3.652900	-10.991000	24.635070	0.000992	20.813717
986.289073	-3.000500	3.653000	-10.960000	24.632087	0.000993	20.803138
987.288234	-3.008700	3.651500	-10.985000	24.624748	0.000992	20.818058
988.281699	-2.969600	3.652600	-10.845000	24.630148	0.000989	20.823951
989.300737	-3.010200	3.650700	-10.988000	24.666189	0.000991	20.803691
990.289748	-2.975400	3.653000	-10.868000	24.695435	0.000990	20.811228
991.284802	-2.993900	3.652000	-10.932000	24.727093	0.000989	20.805064
992.283856	-2.972700	3.652400	-10.856000	24.709138	0.000991	20.814547
993.284075	-2.987200	3.650700	-10.905000	24.690691	0.000990	20.814528
994.285727	-3.004700	3.651300	-10.971000	24.628293	0.000991	20.816399
995.285332	-3.004100	3.650700	-10.966000	24.643148	0.000989	20.823245
996.283727	-3.015100	3.649700	-11.002000	24.601240	0.000987	20.798263
997.289031	-2.993500	3.649200	-10.923000	24.607161	0.000989	20.807998
998.287755	-3.000700	3.649200	-10.949000	24.624203	0.000990	20.827468
999.288311	-3.002200	3.648400	-10.952000	24.634200	0.000988	20.826594
1000.291585	-3.010300	3.648900	-10.983000	24.633757	0.000989	20.795330
1001.291565	-2.988400	3.649800	-10.906000	24.626325	0.000987	20.809683
1002.287822	-3.021600	3.648000	-11.021000	24.637168	0.000989	20.812029
1003.292512	-3.010700	3.648000	-10.982000	24.647545	0.000987	20.825286
1004.289257	-2.983400	3.648300	-10.884000	24.675896	0.000987	20.807742
1005.285670	-3.015300	3.646000	-10.993000	24.701761	0.000986	20.803352
1006.289051	-3.002000	3.647500	-10.949000	24.697987	0.000986	20.814262
1007.302145	-2.992300	3.646700	-10.910000	24.701988	0.000986	20.816381
1008.293126	-3.007500	3.646300	-10.965000	24.721317	0.000987	20.813492
1009.295006	-3.016300	3.646600	-10.998000	24.734497	0.000986	20.795425
1010.295424	-2.974600	3.646800	-10.847000	24.750095	0.000984	20.794956
1011.291302	-3.007000	3.645400	-10.960000	24.745370	0.000985	20.805387
1012.304655	-2.998200	3.645100	-10.927000	24.752181	0.000984	20.807955
1013.300125	-3.001400	3.646600	-10.944000	24.779394	0.000983	20.796858
1014.295772	-2.983100	3.644900	-10.871000	24.763551	0.000982	20.788545
1015.300237	-3.002000	3.643800	-10.938000	24.714018	0.000984	20.795737
1016.299039	-3.010900	3.644200	-10.971000	24.706537	0.000983	20.813359
1017.298729	-2.998600	3.645200	-10.929000	24.683078	0.000983	20.794087
1018.298165	-2.984300	3.646000	-10.879000	24.679500	0.000982	20.809462
1019.296549	-3.008500	3.643100	-10.959000	24.681070	0.000981	20.779270
1020.305337	-2.996800	3.643400	-10.918000	24.706310	0.000979	20.798907
1021.299545	-3.004500	3.644000	-10.947000	24.721676	0.000980	20.801525
1022.308726	-2.985800	3.644700	-10.881000	24.712103	0.000980	20.802824
1023.300929	-2.991400	3.643100	-10.896000	24.740429	0.000980	20.771979
1024.315126	-2.981600	3.643100	-10.861000	24.775865	0.000980	20.797584
1025.302019	-2.991100	3.642000	-10.893000	24.787633	0.000979	20.781892
1026.303596	-3.008500	3.641900	-10.956000	24.758757	0.000980	20.785631
1027.305324	-2.992100	3.642000	-10.896000	24.777135	0.000979	20.797436
1028.304375	-2.986100	3.642800	-10.876000	24.758954	0.000979	20.791993
1029.310107	-3.009000	3.640800	-10.954000	24.744258	0.000979	20.777719
1030.300857	-3.008500	3.639900	-10.950000	24.720018	0.000977	20.773782
1031.315528	-3.009100	3.639300	-10.949000	24.695221	0.000979	20.784935
1032.307788	-3.002100	3.640600	-10.929000	24.676296	0.000979	20.804825
1033.303003	-2.996700	3.640000	-10.907000	24.672319	0.000977	20.778549
1034.304526	-3.012900	3.639500	-10.964000	24.687543	0.000976	20.788136
1035.303654	-3.018700	3.638900	-10.984000	24.717981	0.000977	20.793549
1036.304735	-3.021200	3.636800	-10.986000	24.716115	0.000976	20.776978
1037.301789	-2.999900	3.639300	-10.917000	24.749170	0.000974	20.766527
1038.306640	-2.995000	3.638900	-10.898000	24.725393	0.000975	20.783918
1039.300928	-3.015300	3.638300	-10.970000	24.701295	0.000977	20.773012
1040.302779	-2.989900	3.637500	-10.874000	24.707443	0.000974	20.796725
1041.302711	-2.998800	3.636900	-10.905000	24.690763	0.000976	20.770503
1042.301492	-3.005000	3.637600	-10.930000	24.712848	0.000975	20.759474
1043.305970	-3.033600	3.635900	-11.027000	24.724601	0.000973	20.787390
1044.307139	-3.024000	3.636600	-10.995000	24.765240	0.000974	20.777912
1045.311051	-2.982600	3.636800	-10.846000	24.750967	0.000972	20.781132
1046.314023	-2.990100	3.636800	-10.873000	24.758753	0.000973	20.776618
1047.303035	-3.014800	3.636200	-10.961000	24.799730	0.000973	20.785024
1048.309365	-3.006100	3.635500	-10.926000	24.786255	0.000972	20.777191
1049.321412	-3.002500	3.636600	-10.918000	24.777825	0.000972	20.774420
1050.314069	-2.985900	3.635300	-10.853000	24.785163	0.000970	20.786052
1051.312603	-2.967300	3.636400	-10.788000	24.789937	0.000971	20.772351
1052.311487	-3.004400	3.634000	-10.917000	24.796054	0.000970	20.800775
1053.303937	-2.995600	3.634800	-10.887000	24.789543	0.000970	20.773378
1054.321209	-3.004700	3.633300	-10.916000	24.751144	0.000968	20.779414
1055.317704	-2.991700	3.634300	-10.871000	24.709786	0.000971	20.782007
1056.315718	-2.991700	3.633700	-10.870000	24.696777	0.000969	20.788867
1057.313677	-3.002000	3.632400	-10.903000	24.702226	0.000968	20.772049
1058.314867	-2.997700	3.632800	-10.889000	24.698052	0.000969	20.779241
1059.311931	-3.010600	3.633000	-10.937000	24.698717	0.000969	20.769476
1060.316052	-2.989600	3.633300	-10.861000	24.692224	0.000967	20.758693
1061.312757	-2.998100	3.633000	-10.891000	24.689793	0.000966	20.781384
1062.319249	-3.000400	3.631300	-10.894000	24.695557	0.000966	20.772943
1063.309787	-3.001000	3.632800	-10.900000	24.704185	0.000967	20.762161
1064.312843	-2.990900	3.633300	-10.866000	24.699080	0.000965	20.768418
1065.324486	-2.987100	3.631600	-10.847000	24.688242	0.000965	20.787415
1066.313622	-2.992500	3.631300	-10.865000	24.670981	0.000965	20.753971
1067.322851	-3.015400	3.629500	-10.944000	24.698638	0.000965	20.758491
1068.318388	-2.991000	3.631300	-10.861000	24.737279	0.000964	20.768344
1069.316634	-2.976500	3.631800	-10.809000	24.751355	0.000963	20.775832
1070.327368	-3.001800	3.630000	-10.894000	24.770864	0.000962	20.761745
1071.315006	-3.012200	3.630900	-10.936000	24.792854	0.000964	20.774331
1072.320677	-2.994800	3.629400	-10.869000	24.791181	0.000962	20.749891
1073.320496	-3.035300	3.628400	-11.012000	24.776510	0.000962	20.755556
1074.323542	-2.991700	3.629100	-10.855000	24.777203	0.000961	20.765262
1075.316063	-2.991700	3.628900	-10.856000	24.756188	0.000961	20.761715
1076.318328	-2.993000	3.630200	-10.864000	24.722985	0.000962	20.758267
1077.321396	-3.020600	3.626700	-10.953000	24.709081	0.000959	20.762332
1078.332283	-3.004900	3.627500	-10.899000	24.704725	0.000960	20.741365
1079.323023	-2.999100	3.628600	-10.880000	24.709327	0.000959	20.774433
1080.318594	-2.986100	3.626900	-10.829000	24.676320	0.000957	20.773554
1081.324505	-3.020200	3.627300	-10.954000	24.684530	0.000957	20.745282
1082.322189	-2.970400	3.628600	-10.777000	24.712132	0.000958	20.760653
1083.318470	-2.977700	3.628100	-10.801000	24.753239	0.000959	20.748324
1084.330613	-3.015000	3.626100	-10.932000	24.759179	0.000958	20.766140
1085.327515	-2.992100	3.627000	-10.851000	24.794216	0.000958	20.763369
1086.321414	-2.991600	3.626800	-10.849000	24.809306	0.000958	20.758598
1087.319246	-2.982200	3.624600	-10.808000	24.834794	0.000955	20.768056
1088.318266	-2.995200	3.626500	-10.861000	24.826939	0.000956	20.747371
1089.318301	-3.003000	3.626200	-10.889000	24.820915	0.000955	20.767404
1090.324170	-3.000100	3.624300	-10.872000	24.816589	0.000955	20.752157
1091.318264	-2.984200	3.624000	-10.813000	24.823228	0.000953	20.755975
1092.325786	-2.995400	3.624600	-10.856000	24.820142	0.000954	20.765680
1093.320952	-3.007700	3.623900	-10.898000	24.860330	0.000952	20.762391
1094.320494	-3.016300	3.622400	-10.925000	24.849764	0.000953	20.747993
1095.323555	-2.995700	3.623100	-10.852000	24.897868	0.000952	20.733683
1096.324739	-3.003600	3.622100	-10.878000	24.902898	0.000954	20.769079
1097.326146	-2.996100	3.623500	-10.855000	24.902622	0.000951	20.768802
1098.326573	-3.023300	3.620500	-10.944000	24.890487	0.000951	20.748087
1099.329567	-3.010800	3.621500	-10.902000	24.890664	0.000951	20.750635
1100.329362	-2.988900	3.621300	-10.823000	24.871614	0.000952	20.747163
1101.323582	-2.989500	3.622100	-10.827000	24.882406	0.000949	20.752779
1102.327801	-3.002400	3.621600	-10.871000	24.895413	0.000951	20.763937
1103.325842	-3.010100	3.619700	-10.894000	24.909315	0.000951	20.758449
1104.325672	-3.004600	3.621600	-10.880000	24.936518	0.000949	20.742604
1105.328190	-3.002700	3.619300	-10.866000	24.940366	0.000948	20.764959
1106.332834	-3.038400	3.618400	-10.993000	24.953913	0.000948	20.751529
1107.326910	-2.971900	3.620500	-10.759000	24.968213	0.000946	20.727949
1108.330606	-3.000500	3.619800	-10.860000	24.946183	0.000948	20.739028
1109.331779	-2.994600	3.619500	-10.837000	24.958386	0.000948	20.740845
1110.333424	-2.999800	3.618600	-10.855000	24.959656	0.000949	20.741171
1111.326662	-2.958700	3.620700	-10.711000	24.954804	0.000948	20.735353
1112.337106	-3.014300	3.617400	-10.902000	24.963582	0.000947	20.733259
1113.326978	-2.990000	3.619000	-10.819000	24.984190	0.000946	20.737348
1114.326075	-3.018700	3.616000	-10.915000	24.969118	0.000948	20.737867
1115.327229	-3.023900	3.616500	-10.935000	24.955640	0.000947	20.732399
1116.331767	-2.990800	3.616900	-10.816000	24.954867	0.000945	20.758177
1117.341373	-3.013900	3.616100	-10.897000	24.893847	0.000944	20.741976
1118.336119	-3.005400	3.616400	-10.868000	24.916991	0.000944	20.733435
1119.336302	-2.993500	3.616600	-10.826000	24.894216	0.000945	20.736656
1120.329947	-3.020900	3.615800	-10.921000	24.906548	0.000941	20.738602
1121.335009	-2.994700	3.616600	-10.829000	24.923427	0.000944	20.738948
1122.350415	-3.000600	3.615400	-10.846000	24.926104	0.000943	20.752066
1123.335306	-3.017000	3.615500	-10.906000	24.910312	0.000943	20.741906
1124.332216	-2.998500	3.615900	-10.841000	24.934007	0.000940	20.764740
1125.350603	-2.966600	3.614500	-10.721000	24.939425	0.000939	20.742676
1126.352323	-2.992800	3.616000	-10.820000	24.941659	0.000942	20.725477
1127.349853	-2.964200	3.614800	-10.714000	24.940168	0.000940	20.744370
1128.335785	-3.008300	3.613400	-10.868000	24.933150	0.000938	20.748707
1129.343870	-2.997400	3.613000	-10.829000	24.944291	0.000940	20.739026
1130.341112	-3.022000	3.610900	-10.911000	24.917285	0.000939	20.750801
1131.338334	-3.021100	3.611700	-10.908000	24.911286	0.000937	20.748573
1132.342104	-3.008700	3.612500	-10.867000	24.892340	0.000936	20.748998
1133.340972	-2.992300	3.612500	-10.808000	24.841135	0.000934	20.745970
1134.340457	-3.019000	3.611400	-10.900000	24.842355	0.000936	20.750989
1135.340094	-3.012600	3.610100	-10.875000	24.833275	0.000935	20.758946
1136.338925	-3.016100	3.611100	-10.890000	24.855106	0.000938	20.750035
1137.340291	-3.034300	3.609600	-10.952000	24.866942	0.000936	20.767604
1138.339359	-3.011800	3.609500	-10.870000	24.891503	0.000934	20.736304
1139.341093	-2.987000	3.611300	-10.786000	24.905553	0.000935	20.750405
1140.339737	-2.973800	3.611000	-10.738000	24.941751	0.000934	20.744063
1141.337741	-3.019200	3.608100	-10.891000	24.924523	0.000932	20.728193
1142.343687	-2.987200	3.610600	-10.785000	24.958831	0.000934	20.751724
1143.347605	-3.006600	3.609500	-10.851000	24.968146	0.000932	20.750168
1144.341377	-3.008000	3.607100	-10.849000	24.971207	0.000932	20.736644
1145.344846	-2.955900	3.610700	-10.671000	24.983336	0.000932	20.762571
1146.342914	-2.993200	3.609300	-10.803000	24.962453	0.000932	20.739711
1147.344990	-3.006600	3.608400	-10.849000	24.948630	0.000931	20.753813
1148.339919	-3.008900	3.606500	-10.851000	24.915232	0.000932	20.763440
1149.341665	-3.000200	3.607100	-10.820000	24.925896	0.000930	20.747115
1150.343756	-2.996200	3.608300	-10.810000	24.949467	0.000930	20.742324
1151.340243	-2.985000	3.606800	-10.764000	24.923184	0.000931	20.761464
1152.349683	-3.017500	3.606300	-10.881000	24.935388	0.000931	20.772291
1153.353184	-2.990400	3.606600	-10.785000	24.918602	0.000928	20.751175
1154.336730	-2.994500	3.605600	-10.796000	24.944782	0.000928	20.744734
1155.341446	-2.994600	3.604400	-10.792000	24.917653	0.000928	20.754964
1156.353683	-2.980200	3.606000	-10.746000	24.899681	0.000927	20.723648
1157.342314	-2.971100	3.606100	-10.712000	24.885804	0.000926	20.760930
1158.356945	-2.993500	3.605300	-10.792000	24.874785	0.000925	20.750820
1159.338422	-2.993200	3.603800	-10.786000	24.831094	0.000926	20.752015
1160.350584	-2.991800	3.605400	-10.785000	24.838456	0.000926	20.748972
1161.350461	-2.989900	3.604800	-10.776000	24.846434	0.000925	20.766936
1162.341706	-3.011500	3.603800	-10.852000	24.857251	0.000922	20.743178
1163.359778	-2.980900	3.603600	-10.740000	24.876119	0.000925	20.755951
1164.351101	-3.008800	3.602100	-10.837000	24.888953	0.000924	20.742754
1165.346526	-3.029100	3.601200	-10.908000	24.898948	0.000923	20.746621
1166.356217	-2.993900	3.601400	-10.780000	24.920526	0.000921	20.745045
1167.360556	-2.996800	3.602200	-10.794000	24.931736	0.000921	20.765306
1168.351780	-3.006800	3.600300	-10.824000	24.917441	0.000922	20.743371
1169.348211	-2.996500	3.601400	-10.790000	24.891138	0.000922	20.757749
1170.347640	-2.985900	3.601000	-10.749000	24.859977	0.000920	20.749234
1171.348247	-3.005600	3.599800	-10.819000	24.876714	0.000920	20.756075
1172.354406	-3.001700	3.600500	-10.806000	24.900832	0.000921	20.748038
1173.347189	-3.006700	3.599500	-10.822000	24.904188	0.000918	20.758994
1174.356454	-3.004400	3.600800	-10.817000	24.896354	0.000918	20.763459
1175.349125	-3.025000	3.597900	-10.882000	24.880769	0.000919	20.751135
1176.348111	-2.981900	3.598900	-10.731000	24.854504	0.000917	20.762708
1177.355467	-3.005000	3.597500	-10.809000	24.927209	0.000917	20.741321
1178.350271	-2.984900	3.599600	-10.743000	24.929945	0.000917	20.772043
1179.348314	-3.004400	3.598000	-10.809000	24.971767	0.000915	20.750958
1180.360882	-3.032500	3.596600	-10.905000	24.984841	0.000915	20.775935
1181.349943	-2.996900	3.597100	-10.780000	24.955228	0.000915	20.754746
1182.349226	-2.991400	3.596700	-10.758000	24.951828	0.000913	20.768403
1183.349977	-2.998200	3.596900	-10.783000	24.924527	0.000915	20.743371
1184.349944	-2.996800	3.596600	-10.777000	24.889145	0.000915	20.758594
1185.350851	-3.008600	3.595900	-10.816000	24.869745	0.000914	20.759038
1186.354262	-3.016900	3.597200	-10.851000	24.876611	0.000912	20.751703
1187.351972	-3.002400	3.595400	-10.794000	24.924453	0.000913	20.771273
1188.350490	-3.005300	3.594500	-10.801000	24.954539	0.000911	20.764012
1189.357414	-3.027100	3.595000	-10.882000	24.935520	0.000911	20.771001
1190.359693	-3.009600	3.593400	-10.813000	24.957871	0.000911	20.747915
1191.350617	-2.970800	3.595800	-10.681000	24.989993	0.000911	20.746492
1192.352705	-3.014600	3.595100	-10.837000	25.013337	0.000910	20.741948
1193.352915	-2.980900	3.594300	-10.714000	24.978385	0.000908	20.771826
1194.347867	-3.009300	3.592800	-10.811000	25.021475	0.000908	20.768136
1195.366544	-2.979300	3.596200	-10.713000	24.998501	0.000908	20.757403
1196.361403	-3.025000	3.590900	-10.862000	24.996838	0.000908	20.750992
1197.353082	-2.987400	3.592900	-10.732000	25.019389	0.000909	20.759878
1198.354124	-3.012500	3.591200	-10.817000	25.034229	0.000907	20.759601
1199.354082	-2.990900	3.593100	-10.745000	25.013524	0.000905	20.765845
1200.358868	-3.022500	3.590700	-10.851000	25.008751	0.000907	20.775279
1201.353136	-2.992800	3.591700	-10.748000	25.020811	0.000906	20.768418
1202.352670	-3.028500	3.588800	-10.868000	25.025535	0.000905	20.757038
1203.359706	-2.982600	3.591800	-10.712000	25.002020	0.000905	20.754771
1204.354395	-3.007800	3.589800	-10.795000	25.004086	0.000906	20.774390
1205.365233	-3.012800	3.589500	-10.812000	25.014828	0.000903	20.773318
1206.369490	-2.985800	3.591000	-10.721000	25.033329	0.000903	20.764862
1207.356462	-2.973800	3.591500	-10.679000	25.049660	0.000904	20.753280
1208.355425	-3.005000	3.590100	-10.788000	25.060421	0.000903	20.750331
1209.355635	-3.016200	3.588700	-10.824000	25.089067	0.000902	20.771501
1210.362879	-2.999200	3.588300	-10.761000	25.084914	0.000903	20.784876
1211.367133	-2.989900	3.588100	-10.727000	25.049837	0.000901	20.760570
1212.360157	-3.018900	3.587700	-10.830000	25.017938	0.000901	20.791139
1213.365839	-3.009700	3.585800	-10.791000	25.037408	0.000900	20.753784
1214.363222	-3.019200	3.587400	-10.829000	25.050733	0.000901	20.768581
1215.361866	-2.972000	3.587700	-10.661000	25.041512	0.000900	20.758377
1216.364310	-3.001900	3.588500	-10.771000	25.032764	0.000897	20.768562
1217.365862	-2.984700	3.586300	-10.703000	25.058123	0.000898	20.767940
1218.362024	-2.989900	3.587400	-10.724000	25.058123	0.000898	20.775526
1219.373940	-2.977500	3.586800	-10.678000	25.074459	0.000898	20.772484
1220.376066	-2.994100	3.587800	-10.742000	25.087084	0.000896	20.761924
1221.362942	-3.014000	3.584900	-10.803000	25.097358	0.000896	20.776978
1222.362957	-3.021200	3.584500	-10.826000	25.112639	0.000896	20.765766
1223.362127	-3.019900	3.585300	-10.825000	25.127783	0.000895	20.776702
1224.373975	-3.006600	3.585300	-10.778000	25.096334	0.000894	20.787331
1225.376333	-2.998500	3.584400	-10.746000	25.062473	0.000892	20.791272
1226.361431	-2.988400	3.584000	-10.710000	25.083040	0.000894	20.800538
1227.364964	-2.997600	3.582900	-10.739000	25.081746	0.000892	20.780747
1228.370423	-3.003500	3.582200	-10.758000	25.102425	0.000892	20.780643
1229.367942	-2.994700	3.582700	-10.728000	25.113564	0.000893	20.782816
1230.366870	-2.999500	3.582700	-10.745000	25.098253	0.000893	20.794947
1231.370515	-2.992500	3.583800	-10.724000	25.086130	0.000892	20.783251
1232.367150	-3.015200	3.581000	-10.795000	25.096443	0.000892	20.776534
1233.364128	-3.009300	3.582600	-10.779000	25.105687	0.000891	20.789134
1234.362376	-2.990300	3.582400	-10.710000	25.127139	0.000892	20.784590
1235.368087	-3.006800	3.582000	-10.769000	25.125427	0.000890	20.776233
1236.364873	-3.008700	3.580300	-10.771000	25.138273	0.000889	20.768266
1237.363257	-3.012400	3.579000	-10.780000	25.107749	0.000889	20.793100
1238.361618	-2.985600	3.580200	-10.688000	25.112945	0.000887	20.792151
1239.370982	-2.986400	3.580900	-10.693000	25.097057	0.000888	20.770039
1240.374429	-3.008400	3.580600	-10.771000	25.077918	0.000888	20.775482
1241.368587	-2.999700	3.579000	-10.734000	25.083856	0.000884	20.800410
1242.371456	-2.978400	3.580000	-10.662000	25.109687	0.000887	20.783192
1243.366138	-2.993900	3.579100	-10.714000	25.118361	0.000884	20.781468
1244.373226	-3.017400	3.578200	-10.795000	25.125171	0.000885	20.773131
1245.384376	-3.002000	3.578400	-10.741000	25.150282	0.000883	20.775581
1246.372539	-2.997500	3.578000	-10.724000	25.171162	0.000884	20.769515
1247.370351	-2.997900	3.577700	-10.724000	25.179713	0.000886	20.774306
1248.374103	-2.998100	3.576100	-10.720000	25.151075	0.000884	20.785859
1249.373261	-3.001300	3.578500	-10.739000	25.125117	0.000883	20.800577
1250.374254	-3.022500	3.575500	-10.806000	25.119006	0.000881	20.798710
1251.370730	-2.974700	3.576300	-10.637000	25.127208	0.000882	20.777546
1252.372584	-2.987200	3.577700	-10.685000	25.140954	0.000883	20.781389
1253.378112	-2.978000	3.576400	-10.649000	25.143591	0.000882	20.793519
1254.376157	-3.025300	3.575600	-10.816000	25.151566	0.000879	20.787301
1255.378413	-3.033400	3.573600	-10.838000	25.144438	0.000879	20.804326
1256.376465	-2.962000	3.576000	-10.591000	25.172899	0.000879	20.793544
1257.374648	-3.001700	3.574500	-10.729000	25.183334	0.000880	20.803546
1258.377650	-2.976600	3.574600	-10.639000	25.191338	0.000877	20.794512
1259.377426	-3.008600	3.575100	-10.754000	25.226760	0.000878	20.790245
1260.372601	-3.004100	3.574200	-10.736000	25.243639	0.000880	20.778741
1261.381050	-2.991200	3.573800	-10.689000	25.233623	0.000876	20.777220
1262.375276	-2.995000	3.574500	-10.704000	25.193498	0.000876	20.807112
1263.373401	-2.978300	3.573100	-10.641000	25.172397	0.000877	20.807265
1264.384071	-2.989800	3.572800	-10.681000	25.194246	0.000875	20.816397
1265.388413	-2.970800	3.573300	-10.614000	25.176648	0.000877	20.807739
1266.379311	-2.982800	3.572200	-10.654000	25.148782	0.000873	20.788299
1267.378735	-3.017300	3.570800	-10.773000	25.150076	0.000873	20.798607
1268.374731	-3.009000	3.570600	-10.743000	25.153210	0.000873	20.806969
1269.384365	-3.007900	3.572200	-10.744000	25.155517	0.000873	20.817820
1270.375021	-2.979000	3.571900	-10.640000	25.168466	0.000872	20.822284
1271.380567	-2.989200	3.570500	-10.671000	25.172245	0.000872	20.808534
1272.378271	-2.982300	3.570600	-10.647000	25.202840	0.000872	20.814120
1273.382786	-3.004800	3.569300	-10.723000	25.227271	0.000872	20.799767
1274.387304	-3.010800	3.569400	-10.746000	25.252405	0.000873	20.823104
1275.383381	-2.985900	3.569800	-10.658000	25.264979	0.000872	20.794477
1276.378211	-2.996600	3.569100	-10.694000	25.302263	0.000869	20.801091
1277.395201	-3.002400	3.569100	-10.713000	25.296645	0.000869	20.804933
1278.378740	-2.992100	3.567900	-10.673000	25.288661	0.000870	20.811142
1279.381132	-2.993200	3.568300	-10.680000	25.288188	0.000868	20.808771
1280.381452	-2.965800	3.570000	-10.587000	25.306822	0.000867	20.796186
1281.386522	-3.008600	3.567200	-10.731000	25.312612	0.000867	20.819543
1282.381277	-2.998900	3.566700	-10.695000	25.253512	0.000866	20.822793
1283.381692	-2.989200	3.567600	-10.661000	25.256512	0.000866	20.819167
1284.383559	-2.994000	3.567500	-10.679000	25.263862	0.000867	20.815167
1285.381397	-2.995700	3.565600	-10.680000	25.256955	0.000865	20.806336
1286.380670	-2.970100	3.567200	-10.594000	25.283028	0.000865	20.819236
1287.382463	-3.003900	3.566400	-10.712000	25.297569	0.000864	20.806336
1288.376928	-3.030400	3.563500	-10.798000	25.301593	0.000864	20.832186
1289.392075	-3.003400	3.564700	-10.705000	25.331044	0.000864	20.816238
1290.388997	-2.994400	3.564500	-10.673000	25.335816	0.000862	20.821977
1291.380043	-3.006400	3.564300	-10.715000	25.329928	0.000863	20.803738
1292.390060	-2.997800	3.564400	-10.684000	25.337085	0.000862	20.837002
1293.382701	-2.983800	3.563800	-10.633000	25.342299	0.000864	20.809521
1294.381310	-2.989300	3.563300	-10.651000	25.361237	0.000861	20.829959
1295.381819	-2.986000	3.563000	-10.638000	25.367602	0.000861	20.823074
1296.382746	-2.997400	3.562700	-10.677000	25.346849	0.000862	20.824995
1297.388512	-2.987200	3.563100	-10.642000	25.345231	0.000861	20.823844
1298.400090	-2.998800	3.562100	-10.682000	25.332407	0.000858	20.823770
1299.396576	-2.976500	3.562600	-10.603000	25.307875	0.000859	20.842760
1300.385139	-3.001100	3.562300	-10.689000	25.328826	0.000857	20.810218
1301.390934	-2.995200	3.561100	-10.664000	25.278369	0.000859	20.832102
1302.389663	-2.979500	3.562200	-10.612000	25.241281	0.000856	20.841333
1303.388332	-3.000800	3.560700	-10.684000	25.211031	0.000856	20.826610
1304.392710	-3.001300	3.559900	-10.682000	25.212748	0.000857	20.817903
1305.393919	-2.982600	3.560600	-10.618000	25.231064	0.000856	20.811161
1306.390452	-2.976100	3.561100	-10.598000	25.236411	0.000855	20.832176
1307.389622	-2.996500	3.560400	-10.667000	25.234419	0.000854	20.822116
1308.397165	-3.021300	3.559000	-10.752000	25.243466	0.000857	20.845422
1309.389824	-3.015300	3.558600	-10.729000	25.220221	0.000854	20.842474
1310.396297	-2.989500	3.557000	-10.632000	25.205634	0.000855	20.854856
1311.400512	-3.014700	3.556600	-10.721000	25.204070	0.000856	20.839535
1312.388089	-2.996900	3.559600	-10.668000	25.215227	0.000853	20.828452
1313.390605	-3.022700	3.555900	-10.747000	25.201157	0.000853	20.838034
1314.392416	-2.996800	3.556700	-10.658000	25.176273	0.000851	20.838182
1315.394035	-2.988400	3.556900	-10.629000	25.169661	0.000851	20.842449
1316.392270	-3.004000	3.556700	-10.683000	25.174876	0.000851	20.848158
1317.395869	-3.018300	3.556300	-10.733000	25.212064	0.000852	20.838552
1318.401044	-3.007500	3.555900	-10.693000	25.238093	0.000850	20.852357
1319.394356	-2.972400	3.556600	-10.571000	25.233120	0.000847	20.846889
1320.390649	-3.015500	3.555200	-10.719000	25.226508	0.000848	20.851630
1321.391117	-3.008700	3.554500	-10.694000	25.201526	0.000847	20.839352
1322.393875	-3.013800	3.554800	-10.712000	25.224599	0.000846	20.838809
1323.401038	-3.008100	3.553600	-10.689000	25.242393	0.000847	20.857147
1324.404315	-3.004900	3.553900	-10.678000	25.260634	0.000846	20.850332
1325.396536	-3.005000	3.553100	-10.676000	25.255489	0.000846	20.853700
1326.397686	-3.012200	3.552800	-10.700000	25.309429	0.000845	20.868027
1327.406923	-2.988100	3.554400	-10.619000	25.305572	0.000845	20.858466
1328.394654	-3.000400	3.552500	-10.658000	25.258229	0.000846	20.845546
1329.402151	-2.978200	3.554600	-10.585000	25.265239	0.000845	20.844998
1330.393657	-3.013100	3.551900	-10.701000	25.292133	0.000845	20.853507
1331.399805	-2.992800	3.552500	-10.630000	25.300107	0.000843	20.858194
1332.397421	-3.010200	3.550900	-10.687000	25.319696	0.000844	20.840879
1333.394567	-3.005100	3.551100	-10.670000	25.342614	0.000841	20.860096
1334.401622	-2.994300	3.550600	-10.631000	25.350991	0.000842	20.862343
1335.406565	-3.012400	3.550200	-10.693000	25.337768	0.000841	20.846223
1336.402563	-3.007200	3.550200	-10.675000	25.315322	0.000841	20.864462
1337.407064	-3.011100	3.549000	-10.685000	25.315972	0.000839	20.842829
1338.403905	-2.971000	3.550000	-10.546000	25.313138	0.000840	20.857528
1339.401183	-3.004200	3.549700	-10.663000	25.318131	0.000837	20.849265
1340.400955	-2.995400	3.550100	-10.633000	25.333218	0.000837	20.855404
1341.403845	-2.990400	3.548800	-10.611000	25.332407	0.000841	20.851744
1342.401281	-2.983900	3.548500	-10.586000	25.310280	0.000838	20.858451
1343.408721	-3.002000	3.547700	-10.648000	25.327030	0.000837	20.852984
1344.399593	-3.002100	3.548700	-10.652000	25.321944	0.000837	20.869687
1345.399523	-3.000200	3.548600	-10.646000	25.300767	0.000835	20.873080
1346.399417	-2.998700	3.548400	-10.639000	25.325446	0.000836	20.858506
1347.409635	-3.017500	3.546600	-10.700000	25.318859	0.000836	20.869909
1348.400389	-3.022400	3.547300	-10.720000	25.322342	0.000836	20.861079
1349.405770	-3.016500	3.545100	-10.693000	25.317167	0.000833	20.867736
1350.402109	-2.972200	3.546200	-10.538000	25.301141	0.000836	20.873455
1351.398934	-3.010900	3.547600	-10.680000	25.269824	0.000833	20.876152
1352.400442	-2.983200	3.545500	-10.576000	25.235944	0.000833	20.853043
1353.405357	-3.004100	3.544400	-10.648000	25.223891	0.000832	20.894993
1354.409565	-3.021900	3.543100	-10.706000	25.168283	0.000831	20.873307
1355.398542	-2.981500	3.545000	-10.568000	25.165823	0.000833	20.863726
1356.406797	-2.999500	3.543700	-10.628000	25.127915	0.000831	20.889679
1357.406301	-2.990200	3.544500	-10.598000	25.153071	0.000827	20.865622
1358.399829	-3.002100	3.544600	-10.640000	25.146306	0.000831	20.886331
1359.410373	-3.000700	3.542800	-10.629000	25.150582	0.000828	20.870709
1360.414559	-3.002200	3.543900	-10.638000	25.153686	0.000829	20.881886
1361.409032	-2.998500	3.542900	-10.622000	25.160721	0.000827	20.886578
1362.404985	-3.019100	3.542400	-10.694000	25.184735	0.000828	20.865642
1363.414296	-3.006200	3.542900	-10.649000	25.212640	0.000829	20.868052
1364.402301	-2.976400	3.542400	-10.543000	25.199219	0.000827	20.878285
1365.403212	-3.012500	3.540100	-10.664000	25.199194	0.000827	20.870201
1366.401643	-2.987000	3.541600	-10.577000	25.226980	0.000827	20.885293
1367.410333	-3.006600	3.540500	-10.643000	25.228673	0.000827	20.886044
1368.419112	-3.026100	3.540500	-10.711000	25.237321	0.000827	20.879554
1369.401270	-3.033400	3.540100	-10.736000	25.264786	0.000825	20.873465
1370.408857	-3.011400	3.540100	-10.660000	25.279348	0.000825	20.888558
1371.408227	-3.005900	3.539300	-10.637000	25.255607	0.000825	20.884636
1372.412325	-3.016000	3.538200	-10.670000	25.311559	0.000824	20.863054
1373.404002	-2.994600	3.540100	-10.600000	25.322317	0.000825	20.873381
1374.405310	-2.971800	3.540300	-10.519000	25.328328	0.000824	20.884157
1375.419051	-2.982900	3.539300	-10.557000	25.319238	0.000823	20.877401
1376.411192	-2.985800	3.538400	-10.563000	25.335259	0.000823	20.865987
1377.408505	-2.982600	3.537800	-10.551000	25.315824	0.000822	20.877292
1378.403079	-3.002700	3.537500	-10.620000	25.284031	0.000822	20.869553
1379.407842	-2.993000	3.536100	-10.583000	25.290391	0.000822	20.880680
1380.413035	-3.009800	3.537200	-10.645000	25.285792	0.000822	20.874166
1381.414227	-2.999900	3.535400	-10.605000	25.289540	0.000819	20.873188
1382.413346	-3.011500	3.535300	-10.646000	25.295507	0.000820	20.866852
1383.415878	-2.993400	3.535300	-10.581000	25.330768	0.000822	20.863849
1384.414352	-3.010900	3.535300	-10.643000	25.301838	0.000821	20.858036
1385.405557	-2.995900	3.533900	-10.586000	25.330596	0.000819	20.872684
1386.409682	-3.013300	3.533700	-10.648000	25.361482	0.000820	20.842058
1387.410110	-2.995500	3.533800	-10.584000	25.351418	0.000820	20.858031
1388.420202	-3.023700	3.532200	-10.680000	25.338914	0.000817	20.854011
1389.406675	-3.010900	3.534400	-10.640000	25.348752	0.000818	20.872897
1390.409717	-3.006200	3.532700	-10.619000	25.380907	0.000819	20.850657
1391.410043	-2.979800	3.534300	-10.531000	25.381355	0.000815	20.867227
1392.408235	-2.993000	3.532200	-10.570000	25.353489	0.000816	20.866748
1393.416790	-2.994000	3.533500	-10.578000	25.315484	0.000813	20.869365
1394.407541	-3.006700	3.531400	-10.617000	25.319459	0.000815	20.884735
1395.413393	-3.019200	3.529000	-10.653000	25.341029	0.000813	20.868461
1396.412302	-2.998000	3.532300	-10.588000	25.348009	0.000813	20.870254
1397.416937	-3.018200	3.530300	-10.654000	25.364586	0.000812	20.846123
1398.407711	-2.985300	3.531300	-10.540000	25.375723	0.000812	20.854460
1399.418877	-2.996500	3.531800	-10.582000	25.338761	0.000811	20.868081
1400.411237	-2.992900	3.531500	-10.568000	25.355437	0.000811	20.865859
1401.412174	-3.011400	3.529700	-10.629000	25.364631	0.000810	20.849961
1402.418526	-2.990800	3.529900	-10.556000	25.368403	0.000811	20.858016
1403.423315	-3.010100	3.528400	-10.620000	25.352805	0.000809	20.851837
1404.412407	-3.002600	3.528700	-10.595000	25.355358	0.000811	20.869099
1405.418501	-3.000000	3.527300	-10.581000	25.373499	0.000809	20.851279
1406.419979	-3.002900	3.529300	-10.597000	25.361468	0.000808	20.859112
1407.421334	-2.977800	3.529000	-10.507000	25.346681	0.000807	20.843792
1408.418566	-2.986800	3.526900	-10.534000	25.339499	0.000808	20.849383
1409.414002	-3.003800	3.527400	-10.595000	25.353887	0.000806	20.843441
1410.430298	-3.004700	3.527600	-10.598000	25.345860	0.000808	20.861458
1411.419696	-3.007800	3.527200	-10.608000	25.347896	0.000805	20.815615
1412.419917	-3.005600	3.525800	-10.596000	25.327861	0.000805	20.843387
1413.419690	-3.007800	3.524900	-10.601000	25.340242	0.000805	20.843965
1414.418964	-3.005600	3.527100	-10.600000	25.367282	0.000806	20.850726
1415.421823	-3.000200	3.525400	-10.576000	25.402944	0.000802	20.845758
1416.420803	-2.997000	3.524900	-10.563000	25.387730	0.000805	20.845180
1417.418938	-2.991300	3.526500	-10.548000	25.412983	0.000803	20.830235
1418.416248	-3.000700	3.523900	-10.574000	25.408207	0.000801	20.832551
1419.435826	-2.992500	3.522800	-10.541000	25.415265	0.000803	20.837268
1420.429279	-3.000400	3.523600	-10.570000	25.441536	0.000801	20.848474
1421.416108	-2.994000	3.522200	-10.544000	25.442372	0.000801	20.843624
1422.431710	-3.019800	3.522800	-10.638000	25.420877	0.000800	20.846222
1423.419174	-3.017900	3.522700	-10.630000	25.387125	0.000801	20.854529
1424.427631	-2.989800	3.523600	-10.534000	25.384016	0.000799	20.825330
1425.418055	-2.998800	3.522800	-10.562000	25.395423	0.000801	20.824456
1426.425888	-2.985900	3.522300	-10.515000	25.395172	0.000801	20.817092
1427.422681	-2.998100	3.520600	-10.554000	25.423253	0.000798	20.843866
1428.418539	-3.011000	3.520400	-10.599000	25.423676	0.000798	20.848558
1429.424201	-2.988500	3.521300	-10.520000	25.387808	0.000799	20.830086
1430.429705	-3.001100	3.520200	-10.564000	25.384700	0.000797	20.808948
1431.419518	-3.001000	3.520100	-10.562000	25.382014	0.000796	20.838967
1432.431046	-2.992200	3.519800	-10.531000	25.400878	0.000796	20.841313
1433.431370	-3.002700	3.518700	-10.565000	25.408005	0.000795	20.827133
1434.420195	-2.999500	3.518900	-10.553000	25.410666	0.000796	20.824115
1435.438410	-3.012200	3.518700	-10.599000	25.458879	0.000793	20.845027
1436.439262	-3.003000	3.518200	-10.564000	25.472419	0.000794	20.821167
1437.425827	-3.017400	3.516200	-10.608000	25.501344	0.000792	20.817971
1438.431807	-3.004300	3.517300	-10.566000	25.538167	0.000793	20.815121
1439.423045	-3.007500	3.517200	-10.576000	25.539933	0.000795	20.830645
1440.430439	-3.008600	3.517000	-10.581000	25.555484	0.000791	20.809753
1441.426304	-3.022100	3.517400	-10.628000	25.570371	0.000791	20.819488
1442.429393	-2.975900	3.517500	-10.467000	25.570341	0.000791	20.834156
1443.425833	-2.986100	3.516500	-10.499000	25.542810	0.000790	20.825000
1444.424837	-2.999600	3.517000	-10.548000	25.500759	0.000790	20.811694
1445.425760	-3.011800	3.514800	-10.585000	25.509356	0.000790	20.815586
1446.431263	-3.009200	3.516100	-10.579000	25.500189	0.000788	20.819656
1447.436677	-3.007400	3.513700	-10.565000	25.488685	0.000788	20.818060
1448.436582	-3.012600	3.514100	-10.585000	25.479335	0.000789	20.825740
1449.423439	-3.011300	3.513400	-10.579000	25.488680	0.000787	20.809995
1450.427429	-2.980500	3.513800	-10.471000	25.476477	0.000787	20.820500
1451.425936	-3.007600	3.514000	-10.567000	25.510522	0.000787	20.814386
1452.431539	-2.989500	3.513600	-10.502000	25.512735	0.000785	20.811867
1453.428898	-3.003100	3.513100	-10.549000	25.555823	0.000785	20.813887
1454.426069	-3.006100	3.512800	-10.559000	25.562335	0.000784	20.830857
1455.429203	-2.991600	3.512300	-10.506000	25.541807	0.000784	20.819725
1456.430889	-2.991100	3.513100	-10.506000	25.562876	0.000784	20.816228
1457.429575	-3.017700	3.511600	-10.597000	25.558828	0.000784	20.821172
1458.424738	-3.005200	3.509800	-10.546000	25.587505	0.000781	20.806824
1459.449936	-2.999100	3.511600	-10.531000	25.553635	0.000781	20.811215
1460.425457	-3.005800	3.509400	-10.547000	25.513901	0.000781	20.807822
1461.432611	-2.994200	3.509900	-10.508000	25.442879	0.000781	20.815210
1462.431515	-2.998300	3.509800	-10.522000	25.425649	0.000778	20.825410
1463.428560	-2.982200	3.509800	-10.466000	25.361930	0.000780	20.814534
1464.429534	-3.025800	3.507300	-10.611000	25.321127	0.000777	20.811022
1465.443387	-3.016500	3.509400	-10.585000	25.328978	0.000777	20.796620
1466.429355	-3.004400	3.508800	-10.541000	25.326990	0.000777	20.823073
1467.445202	-2.999100	3.508100	-10.520000	25.313049	0.000777	20.799593
1468.434575	-2.998700	3.507300	-10.517000	25.327118	0.000776	20.831262
1469.432293	-3.012600	3.507300	-10.564000	25.333656	0.000778	20.794679
1470.437089	-3.032600	3.506900	-10.634000	25.334851	0.000775	20.803939
1471.438278	-2.958700	3.507200	-10.376000	25.351777	0.000777	20.805288
1472.441431	-3.020500	3.505500	-10.587000	25.352274	0.000774	20.787295
1473.430250	-3.015500	3.505600	-10.571000	25.311790	0.000775	20.807338
1474.446721	-2.997400	3.505900	-10.507000	25.318977	0.000772	20.804596
1475.437650	-3.019700	3.503800	-10.580000	25.307717	0.000775	20.807989
1476.437240	-3.004900	3.503900	-10.528000	25.264496	0.000774	20.793518
1477.436806	-2.983900	3.503800	-10.454000	25.267108	0.000772	20.797563
1478.433783	-3.007100	3.504200	-10.536000	25.262316	0.000772	20.790856
1479.436494	-2.977000	3.505200	-10.434000	25.301765	0.000773	20.788737
1480.435624	-2.982200	3.504400	-10.450000	25.317993	0.000773	20.789384
1481.432573	-2.997600	3.502800	-10.499000	25.348093	0.000772	20.788786
1482.440557	-3.018300	3.501800	-10.569000	25.333754	0.000772	20.796674
1483.435191	-3.008900	3.502100	-10.537000	25.361591	0.000770	20.802339
1484.445202	-3.022300	3.501100	-10.580000	25.353715	0.000769	20.775465
1485.437330	-3.002300	3.502200	-10.514000	25.401635	0.000768	20.795133
1486.432488	-2.996500	3.501600	-10.491000	25.388615	0.000768	20.810034
1487.433781	-3.000300	3.501800	-10.505000	25.414390	0.000769	20.802250
1488.436761	-2.987100	3.502700	-10.461000	25.425776	0.000768	20.790451
1489.445174	-3.008100	3.500000	-10.528000	25.419239	0.000767	20.782464
1490.434083	-2.991700	3.500500	-10.471000	25.397666	0.000766	20.807268
1491.442153	-3.000400	3.498200	-10.495000	25.346420	0.000765	20.775253
1492.435590	-3.016600	3.498800	-10.553000	25.298803	0.000765	20.774383
1493.434490	-2.996300	3.499300	-10.485000	25.289530	0.000765	20.785936
1494.438829	-2.999400	3.498800	-10.493000	25.325372	0.000765	20.778774
1495.442010	-3.004200	3.498500	-10.510000	25.355570	0.000766	20.785388
1496.440251	-2.986400	3.497800	-10.444000	25.354128	0.000766	20.777777
1497.445982	-2.993700	3.498700	-10.472000	25.410774	0.000765	20.786292
1498.441206	-3.008700	3.498500	-10.524000	25.428516	0.000765	20.785141
1499.449151	-3.001800	3.496700	-10.495000	25.446961	0.000763	20.786593
1500.443254	-3.015600	3.496200	-10.543000	25.456001	0.000761	20.772437
1501.443522	-2.998200	3.496600	-10.483000	25.452425	0.000761	20.784020
1502.442548	-2.983700	3.496700	-10.432000	25.477101	0.000760	20.780824
1503.452219	-3.010400	3.496700	-10.525000	25.484735	0.000762	20.785645
1504.440754	-3.003400	3.495900	-10.498000	25.510827	0.000759	20.778656
1505.442430	-2.983400	3.495100	-10.427000	25.515671	0.000760	20.795375
1506.448717	-2.999900	3.494800	-10.483000	25.520171	0.000758	20.788040
1507.439381	-3.011700	3.495400	-10.526000	25.515027	0.000757	20.776710
1508.440980	-2.995800	3.492600	-10.462000	25.531203	0.000758	20.764031
1509.449960	-2.986000	3.496200	-10.439000	25.527800	0.000758	20.775312
1510.443433	-2.989100	3.494600	-10.445000	25.541167	0.000756	20.765977
1511.441965	-3.002500	3.493100	-10.487000	25.545544	0.000756	20.773218
1512.453778	-3.002700	3.492000	-10.484000	25.576007	0.000756	20.763507
1513.449773	-3.022500	3.491200	-10.550000	25.530809	0.000757	20.775016
1514.443569	-3.002300	3.491900	-10.483000	25.541270	0.000757	20.773193
1515.443038	-2.991700	3.491300	-10.444000	25.537665	0.000754	20.754874
1516.441091	-3.015400	3.491200	-10.526000	25.506779	0.000753	20.771272
1517.447852	-2.996000	3.491100	-10.458000	25.500965	0.000756	20.767804
1518.445554	-3.002100	3.490400	-10.476000	25.514589	0.000753	20.774374
1519.442833	-3.010800	3.490300	-10.507000	25.513989	0.000754	20.783728
1520.452547	-3.015500	3.488100	-10.517000	25.522262	0.000752	20.763586
1521.446457	-2.998300	3.489600	-10.461000	25.527086	0.000752	20.766061
1522.451733	-2.984900	3.490200	-10.417000	25.544379	0.000751	20.782479
1523.455162	-3.002500	3.488500	-10.473000	25.512278	0.000751	20.754508
1524.453518	-2.975000	3.488900	-10.377000	25.471047	0.000750	20.756726
1525.447150	-3.022000	3.487400	-10.536000	25.445323	0.000752	20.774517
1526.449854	-2.990700	3.487200	-10.429000	25.424655	0.000751	20.758030
1527.442327	-2.990400	3.488000	-10.430000	25.386977	0.000751	20.766189
1528.468711	-2.993300	3.487600	-10.438000	25.382678	0.000747	20.774675
1529.461247	-3.005400	3.486600	-10.478000	25.374847	0.000749	20.754483
1530.452763	-3.005900	3.487500	-10.483000	25.391453	0.000748	20.744605
1531.462143	-2.994800	3.486800	-10.442000	25.403204	0.000747	20.759724
1532.447598	-2.990100	3.485900	-10.421000	25.422535	0.000748	20.743572
1533.446542	-3.011300	3.485700	-10.496000	25.440267	0.000747	20.744783
1534.445503	-2.996500	3.485900	-10.445000	25.473363	0.000747	20.750043
1535.459360	-2.985700	3.486000	-10.407000	25.486987	0.000747	20.753293
1536.454302	-2.981300	3.484600	-10.387000	25.490239	0.000746	20.752764
1537.454670	-3.011200	3.482900	-10.486000	25.488227	0.000747	20.748373
1538.450108	-3.000700	3.485400	-10.457000	25.496303	0.000746	20.766915
1539.451019	-2.980600	3.483100	-10.381000	25.491955	0.000745	20.753066
1540.456558	-3.015900	3.480900	-10.495000	25.504777	0.000745	20.745553
1541.449824	-2.976400	3.484400	-10.369000	25.504654	0.000743	20.750171
1542.464057	-2.983500	3.481900	-10.387000	25.527190	0.000744	20.729179
1543.447826	-3.022200	3.481500	-10.521000	25.548087	0.000743	20.734993
1544.466538	-3.003500	3.480900	-10.454000	25.506262	0.000740	20.742303
1545.454366	-3.015700	3.479900	-10.493000	25.494832	0.000741	20.739359
1546.454488	-2.978800	3.481700	-10.370000	25.470457	0.000740	20.767987
1547.457110	-3.031600	3.479800	-10.548000	25.466482	0.000741	20.745504
1548.468295	-2.997400	3.479600	-10.428000	25.443169	0.000740	20.752913
1549.452896	-2.979900	3.479400	-10.368000	25.437876	0.000738	20.734795
1550.455981	-2.999400	3.479500	-10.436000	25.437773	0.000740	20.755081
1551.460596	-2.989000	3.480100	-10.401000	25.452784	0.000738	20.749766
1552.455834	-3.009000	3.477600	-10.463000	25.475744	0.000740	20.744373
1553.456709	-3.019500	3.477200	-10.498000	25.501988	0.000737	20.755081
1554.456828	-2.992900	3.479800	-10.413000	25.514068	0.000737	20.761996
1555.464994	-2.979100	3.478500	-10.362000	25.516989	0.000738	20.746911
1556.455923	-3.024800	3.476900	-10.516000	25.539883	0.000735	20.747618
1557.460818	-3.000700	3.476600	-10.431000	25.573976	0.000735	20.763364
1558.470596	-2.976200	3.476900	-10.347000	25.592192	0.000737	20.733294
1559.456573	-2.997000	3.476800	-10.419000	25.602303	0.000737	20.745820
1560.466209	-3.013900	3.476800	-10.477000	25.575043	0.000737	20.755901
1561.472270	-2.993800	3.475800	-10.405000	25.577723	0.000735	20.734410
1562.456027	-3.027700	3.473600	-10.515000	25.526009	0.000734	20.741745
1563.455770	-3.000800	3.472800	-10.420000	25.458062	0.000736	20.752695
1564.462426	-2.976600	3.474100	-10.339000	25.418993	0.000733	20.745232
1565.471408	-3.049600	3.472300	-10.588000	25.371478	0.000734	20.738771
1566.462254	-3.000600	3.474400	-10.424000	25.312469	0.000733	20.756336
1567.466981	-3.031200	3.471900	-10.523000	25.277571	0.000733	20.722244
1568.460862	-3.017900	3.473100	-10.481000	25.274959	0.000730	20.736218
1569.466351	-2.988200	3.474300	-10.381000	25.277640	0.000732	20.731797
1570.477197	-3.004200	3.471200	-10.427000	25.317506	0.000730	20.724882
1571.457933	-3.018500	3.472100	-10.479000	25.307736	0.000730	20.734988
1572.465271	-3.014300	3.471700	-10.464000	25.334182	0.000731	20.750636
1573.467087	-2.989900	3.472200	-10.381000	25.351000	0.000729	20.740021
1574.464502	-2.982100	3.471200	-10.350000	25.374931	0.000731	20.767370
1575.464366	-2.993700	3.469500	-10.386000	25.357651	0.000729	20.753812
1576.468076	-3.015400	3.470600	-10.464000	25.377981	0.000730	20.757630
1577.466090	-2.984300	3.469700	-10.353000	25.404277	0.000728	20.739937
1578.470092	-3.025300	3.468100	-10.490000	25.442736	0.000727	20.750107
1579.469883	-3.016700	3.469500	-10.466000	25.443784	0.000726	20.749263
1580.469572	-2.977500	3.469400	-10.329000	25.414454	0.000728	20.750631
1581.467478	-3.013900	3.468200	-10.451000	25.398522	0.000727	20.735581
1582.470099	-3.008200	3.468700	-10.434000	25.395408	0.000726	20.740041
1583.482395	-2.984800	3.468500	-10.352000	25.427021	0.000727	20.725317
1584.471173	-2.993500	3.467000	-10.378000	25.458726	0.000727	20.746250
1585.469134	-2.997400	3.466400	-10.390000	25.460812	0.000725	20.753086
1586.467126	-3.010500	3.466800	-10.436000	25.514186	0.000726	20.736984
1587.477551	-3.003600	3.464900	-10.405000	25.502579	0.000725	20.752829
1588.470960	-3.008800	3.467200	-10.431000	25.487745	0.000724	20.747416
1589.471420	-3.002600	3.466100	-10.407000	25.463930	0.000724	20.750528
1590.476577	-3.018100	3.464100	-10.454000	25.432466	0.000722	20.739320
1591.470355	-3.006800	3.465800	-10.420000	25.384400	0.000722	20.758860
1592.470503	-3.022600	3.464600	-10.471000	25.332702	0.000721	20.741563
1593.476363	-3.006100	3.464300	-10.412000	25.351360	0.000721	20.763143
1594.471610	-2.996000	3.464600	-10.378000	25.377032	0.000721	20.733917
1595.475857	-3.001200	3.463500	-10.394000	25.401636	0.000720	20.760994
1596.471694	-3.002000	3.462600	-10.394000	25.403845	0.000722	20.760841
1597.483551	-3.008600	3.463600	-10.419000	25.445545	0.000718	20.759567
1598.478666	-2.981900	3.463500	-10.327000	25.427204	0.000719	20.746364
1599.466194	-2.994100	3.462300	-10.365000	25.406348	0.000718	20.755294
1600.474848	-3.018300	3.461100	-10.445000	25.375409	0.000717	20.743667
1601.470582	-3.005200	3.460800	-10.399000	25.381026	0.000719	20.752153
1602.467606	-2.988700	3.461500	-10.343000	25.413850	0.000716	20.744334
1603.470899	-3.013700	3.460300	-10.428000	25.420141	0.000716	20.744487
1604.469699	-2.993200	3.461300	-10.359000	25.436943	0.000717	20.755196
1605.468689	-2.994700	3.460300	-10.362000	25.458555	0.000716	20.756984
1606.481076	-3.004000	3.459700	-10.391000	25.478834	0.000719	20.740837
1607.472184	-3.017000	3.459100	-10.434000	25.504951	0.000714	20.745727
1608.473042	-2.989300	3.458400	-10.337000	25.550724	0.000715	20.759928
1609.472600	-2.985100	3.460600	-10.328000	25.511108	0.000714	20.754282
1610.477503	-2.978200	3.459100	-10.301000	25.488646	0.000715	20.761597
1611.474356	-2.993000	3.457200	-10.347000	25.487628	0.000714	20.755833
1612.476687	-2.983200	3.458100	-10.315000	25.478574	0.000713	20.739627
1613.476112	-3.016200	3.456700	-10.425000	25.457350	0.000714	20.770473
1614.484628	-3.006800	3.456500	-10.392000	25.468555	0.000712	20.736205
1615.484149	-3.007800	3.454900	-10.391000	25.476306	0.000712	20.743515
1616.483710	-2.982600	3.456000	-10.308000	25.496865	0.000712	20.772222
1617.475629	-2.990700	3.456300	-10.336000	25.518280	0.000708	20.742991
1618.481597	-3.002500	3.454000	-10.369000	25.541513	0.000709	20.743564
1619.484339	-3.029000	3.454600	-10.462000	25.571213	0.000709	20.764857
1620.483731	-3.009000	3.453700	-10.391000	25.572128	0.000707	20.752025
1621.487053	-3.005300	3.453300	-10.377000	25.573294	0.000708	20.758886
1622.494288	-3.021200	3.453000	-10.431000	25.558579	0.000706	20.746953
1623.475558	-3.018500	3.452600	-10.420000	25.557635	0.000708	20.741737
1624.484356	-2.986800	3.455100	-10.318000	25.544789	0.000706	20.743535
1625.481313	-2.996900	3.453900	-10.350000	25.559150	0.000707	20.753216
1626.483508	-3.003900	3.451300	-10.366000	25.527915	0.000705	20.768315
1627.484646	-2.977300	3.452600	-10.278000	25.536212	0.000706	20.776648
1628.487947	-3.015500	3.451700	-10.407000	25.517704	0.000704	20.747155
1629.482984	-3.006100	3.451400	-10.374000	25.541528	0.000704	20.765391
1630.491606	-3.004400	3.450500	-10.366000	25.526301	0.000704	20.760057
1631.479594	-3.004200	3.451600	-10.368000	25.579869	0.000704	20.763119
1632.495819	-2.999800	3.450900	-10.352000	25.584940	0.000704	20.767737
1633.488100	-3.009400	3.450200	-10.381000	25.574135	0.000703	20.750721
1634.485894	-2.978300	3.451700	-10.279000	25.604749	0.000702	20.767717
1635.483595	-3.002800	3.448400	-10.353000	25.575822	0.000703	20.756209
1636.494905	-2.988600	3.448300	-10.305000	25.553110	0.000701	20.773230
1637.487911	-3.010300	3.447800	-10.378000	25.539472	0.000703	20.745782
1638.490571	-3.007400	3.446900	-10.365000	25.511512	0.000702	20.762749
1639.489793	-2.998100	3.447600	-10.335000	25.505999	0.000700	20.776178
1640.489738	-3.020000	3.446100	-10.406000	25.514842	0.000701	20.758980
1641.484869	-2.966100	3.448000	-10.226000	25.521206	0.000700	20.760630
1642.488920	-3.006500	3.445100	-10.356000	25.517601	0.000701	20.746577
1643.504618	-3.005900	3.446500	-10.359000	25.542177	0.000700	20.769836
1644.494433	-2.979700	3.448600	-10.274000	25.538002	0.000700	20.768962
1645.489735	-2.986900	3.444200	-10.286000	25.557482	0.000698	20.752490
1646.496119	-3.013800	3.444800	-10.381000	25.572591	0.000698	20.772879
1647.493069	-2.989700	3.445000	-10.298000	25.539241	0.000698	20.788225
1648.487567	-3.014700	3.443600	-10.380000	25.543466	0.000698	20.787726
1649.489168	-3.025500	3.442700	-10.414000	25.570894	0.000697	20.785400
1650.502981	-3.000100	3.444700	-10.333000	25.587788	0.000697	20.770597
1651.500821	-3.042900	3.442300	-10.473000	25.601877	0.000696	20.758195
1652.490016	-2.989900	3.444200	-10.297000	25.603466	0.000695	20.765480
1653.489934	-3.037900	3.441800	-10.455000	25.552521	0.000695	20.784492
1654.490832	-3.013000	3.442100	-10.370000	25.532868	0.000693	20.769970
1655.492318	-3.022600	3.442000	-10.402000	25.494491	0.000694	20.777898
1656.486215	-2.991600	3.441000	-10.294000	25.466780	0.000693	20.783736
1657.485791	-3.003000	3.440800	-10.331000	25.452389	0.000694	20.765491
1658.496010	-2.992400	3.442900	-10.301000	25.451095	0.000693	20.767985
1659.488898	-3.007300	3.441100	-10.347000	25.460677	0.000693	20.761960
1660.489666	-3.002300	3.439400	-10.325000	25.469624	0.000693	20.797023
1661.498764	-2.991000	3.441000	-10.291000	25.447382	0.000691	20.802189
1662.487755	-2.999400	3.439200	-10.315000	25.436669	0.000692	20.781000
1663.501571	-3.007600	3.440100	-10.345000	25.410330	0.000694	20.793906
1664.491722	-3.019400	3.438000	-10.379000	25.390738	0.000691	20.777079
1665.496583	-2.982500	3.439700	-10.258000	25.407910	0.000692	20.782467
1666.502841	-3.003500	3.438400	-10.326000	25.418446	0.000689	20.784986
1667.492394	-3.000700	3.438300	-10.316000	25.417369	0.000689	20.792914
1668.493906	-3.003000	3.438500	-10.324000	25.426395	0.000689	20.808141
1669.494965	-3.000000	3.437300	-10.310000	25.434348	0.000689	20.788153
1670.492056	-3.006900	3.437200	-10.335000	25.448209	0.000689	20.781208
1671.489277	-2.992600	3.438300	-10.288000	25.476864	0.000688	20.789121
1672.494166	-2.986800	3.437900	-10.267000	25.474799	0.000689	20.787047
1673.491068	-2.978000	3.435400	-10.228000	25.500576	0.000687	20.792543
1674.500041	-3.000600	3.435600	-10.308000	25.518911	0.000685	20.783930
1675.505883	-2.999800	3.436500	-10.308000	25.545622	0.000686	20.780882
1676.499939	-2.991900	3.434100	-10.273000	25.535535	0.000685	20.779287
1677.511662	-3.008700	3.434300	-10.331000	25.519059	0.000683	20.794035
1678.500542	-2.978300	3.434900	-10.229000	25.531950	0.000684	20.807455
1679.493665	-3.015000	3.433200	-10.349000	25.507752	0.000685	20.803069
1680.497163	-2.988000	3.432000	-10.254000	25.521813	0.000684	20.793008
1681.503223	-3.029700	3.432200	-10.397000	25.545248	0.000683	20.788568
1682.499294	-2.982600	3.433700	-10.240000	25.548229	0.000683	20.780181
1683.500762	-2.987800	3.431100	-10.251000	25.567463	0.000683	20.799024
1684.496711	-3.007200	3.432800	-10.322000	25.613131	0.000682	20.798896
1685.500257	-3.001500	3.431100	-10.297000	25.622450	0.000683	20.792608
1686.501955	-2.986600	3.431300	-10.247000	25.603841	0.000684	20.796204
1687.499869	-3.001000	3.429900	-10.292000	25.589506	0.000681	20.794134
1688.497105	-2.992300	3.430500	-10.264000	25.552399	0.000681	20.805233
1689.498315	-2.981500	3.430200	-10.226000	25.496641	0.000679	20.803291
1690.501111	-3.020800	3.428400	-10.355000	25.470195	0.000679	20.814666
1691.499293	-3.016100	3.429700	-10.343000	25.438362	0.000678	20.798347
1692.496871	-2.990500	3.429400	-10.256000	25.460526	0.000679	20.800215
1693.499469	-2.987200	3.429900	-10.245000	25.474814	0.000678	20.783268
1694.515536	-2.997700	3.428800	-10.278000	25.496538	0.000679	20.788015
1695.503762	-3.007700	3.428000	-10.309000	25.498693	0.000678	20.779273
1696.511800	-3.012500	3.427400	-10.323000	25.496332	0.000678	20.817679
1697.514489	-2.985700	3.427500	-10.233000	25.524287	0.000676	20.803554
1698.511285	-2.994900	3.426000	-10.259000	25.495904	0.000677	20.796861
1699.503437	-2.999100	3.426000	-10.274000	25.507836	0.000675	20.789877
1700.515236	-2.998200	3.424900	-10.268000	25.541732	0.000676	20.803055
1701.500875	-2.999000	3.425700	-10.273000	25.557903	0.000675	20.800329
1702.504344	-2.993300	3.426400	-10.256000	25.539288	0.000673	20.787324
1703.502042	-2.991600	3.425000	-10.244000	25.533298	0.000673	20.814025
1704.508525	-2.988700	3.425100	-10.235000	25.534242	0.000672	20.805490
1705.511174	-2.985500	3.425300	-10.226000	25.516822	0.000674	20.816919
1706.515248	-3.014400	3.424300	-10.321000	25.555189	0.000671	20.814672
1707.502152	-2.999500	3.422700	-10.265000	25.573946	0.000671	20.798423
1708.508104	-3.001700	3.423600	-10.276000	25.601285	0.000671	20.806438
1709.505028	-3.020400	3.423000	-10.338000	25.612409	0.000671	20.772092
1710.511584	-2.991100	3.423900	-10.240000	25.638655	0.000671	20.815521
1711.511936	-3.004300	3.422500	-10.281000	25.665958	0.000670	20.802641
1712.508779	-3.002500	3.419600	-10.267000	25.647547	0.000669	20.828244
1713.518427	-3.012500	3.422600	-10.309000	25.619442	0.000671	20.798121
1714.509183	-2.994400	3.422100	-10.245000	25.614795	0.000669	20.833756
1715.518862	-3.012700	3.420200	-10.303000	25.635641	0.000669	20.812494
1716.503342	-3.003800	3.421400	-10.275000	25.626445	0.000667	20.802784
1717.511849	-2.999800	3.420400	-10.259000	25.611790	0.000669	20.808454
1718.520669	-2.979300	3.420500	-10.190000	25.604753	0.000665	20.816559
1719.506869	-3.014800	3.419400	-10.308000	25.554014	0.000668	20.817759
1720.509958	-3.008700	3.419000	-10.286000	25.538408	0.000664	20.802562
1721.507767	-2.979300	3.420200	-10.188000	25.541212	0.000665	20.841886
1722.512547	-2.992400	3.418700	-10.229000	25.522995	0.000664	20.813161
1723.506515	-3.002800	3.417700	-10.262000	25.541261	0.000666	20.802582
1724.513753	-2.997500	3.419300	-10.248000	25.524239	0.000663	20.820100
1725.508275	-2.997400	3.416700	-10.240000	25.542407	0.000663	20.817483
1726.511410	-2.988700	3.418200	-10.216000	25.534927	0.000663	20.815186
1727.516047	-2.991200	3.417500	-10.221000	25.552593	0.000663	20.813013
1728.512907	-3.006600	3.415300	-10.267000	25.564819	0.000662	20.832403
1729.522652	-2.988100	3.416600	-10.208000	25.574807	0.000661	20.812563
1730.518088	-3.013000	3.417400	-10.295000	25.560245	0.000662	20.835871
1731.528950	-3.003200	3.415400	-10.256000	25.584196	0.000662	20.821044
1732.515835	-2.995900	3.415200	-10.231000	25.571449	0.000662	20.823415
1733.519664	-3.007400	3.415200	-10.270000	25.547001	0.000660	20.819251
1734.512234	-3.004100	3.414500	-10.257000	25.534774	0.000661	20.828309
1735.517367	-3.007200	3.414700	-10.268000	25.517029	0.000660	20.839886
1736.526797	-2.987000	3.416000	-10.203000	25.506967	0.000660	20.815557
1737.536640	-3.006500	3.412600	-10.259000	25.501001	0.000659	20.840859
1738.520704	-2.986800	3.414400	-10.197000	25.473964	0.000659	20.834098
1739.520552	-2.994000	3.412600	-10.216000	25.495409	0.000656	20.829080
1740.516430	-3.009200	3.413200	-10.269000	25.529355	0.000659	20.819073
1741.515357	-3.008600	3.412800	-10.267000	25.485213	0.000659	20.850135
1742.515592	-3.008600	3.412200	-10.265000	25.488823	0.000657	20.840958
1743.522116	-3.010200	3.411000	-10.267000	25.471250	0.000658	20.828527
1744.523381	-2.995900	3.411900	-10.221000	25.450872	0.000656	20.839358
1745.523155	-2.988900	3.410200	-10.192000	25.470896	0.000656	20.837180
1746.522801	-2.996800	3.411200	-10.222000	25.496196	0.000656	20.835086
1747.534399	-2.989100	3.410100	-10.193000	25.541395	0.000655	20.838751
1748.518867	-3.008800	3.410300	-10.259000	25.559616	0.000655	20.839032
1749.525882	-3.000200	3.408500	-10.226000	25.613089	0.000657	20.829673
1750.521029	-3.019500	3.408800	-10.292000	25.634752	0.000655	20.837679
1751.519255	-2.997800	3.408500	-10.217000	25.642006	0.000654	20.825998
1752.520026	-3.014100	3.408900	-10.273000	25.686633	0.000652	20.842371
1753.526336	-2.992400	3.409700	-10.202000	25.723302	0.000653	20.846011
1754.523790	-2.991500	3.408900	-10.197000	25.702801	0.000652	20.833955
1755.527189	-2.999100	3.408200	-10.220000	25.688988	0.000654	20.852323
1756.523755	-2.997400	3.407700	-10.212000	25.684017	0.000651	20.845433
1757.525817	-2.985100	3.407500	-10.170000	25.672436	0.000650	20.849449
1758.523787	-3.014100	3.406100	-10.266000	25.666397	0.000650	20.843384
1759.523040	-3.007700	3.407800	-10.248000	25.637526	0.000650	20.853741
1760.530097	-2.976400	3.408600	-10.144000	25.632333	0.000652	20.839991
1761.519877	-2.988900	3.407100	-10.182000	25.610287	0.000649	20.852462
1762.532749	-2.991900	3.406600	-10.191000	25.593989	0.000649	20.837042
1763.523206	-2.985900	3.406300	-10.169000	25.563625	0.000647	20.851118
1764.522523	-3.012700	3.403800	-10.254000	25.553607	0.000648	20.876143
1765.527192	-3.003900	3.404000	-10.224000	25.586180	0.000647	20.863812
1766.530643	-2.988600	3.404100	-10.172000	25.616321	0.000645	20.848091
1767.523967	-3.004600	3.403900	-10.226000	25.644229	0.000647	20.861421
1768.523086	-3.024800	3.402800	-10.291000	25.694462	0.000647	20.859243
1769.547221	-2.999800	3.402700	-10.206000	25.699557	0.000645	20.851084
1770.536364	-2.993700	3.402500	-10.186000	25.651207	0.000647	20.869852
1771.540048	-3.002100	3.401800	-10.210000	25.678761	0.000643	20.859120
1772.521694	-3.020700	3.401000	-10.273000	25.656617	0.000642	20.859639
1773.533833	-2.996100	3.403700	-10.197000	25.665788	0.000644	20.862686
1774.527698	-2.995800	3.401800	-10.190000	25.696818	0.000643	20.879152
1775.520633	-3.003100	3.400800	-10.212000	25.707007	0.000642	20.855248
1776.527144	-3.023900	3.399600	-10.278000	25.683133	0.000643	20.841226
1777.526305	-2.986600	3.400500	-10.154000	25.694015	0.000639	20.869699
1778.526478	-2.986300	3.399900	-10.152000	25.702438	0.000640	20.844970
1779.524271	-3.000300	3.400300	-10.201000	25.721965	0.000641	20.863634
1780.528542	-3.001700	3.399300	-10.203000	25.740184	0.000640	20.866286
1781.521957	-3.012300	3.399400	-10.239000	25.747029	0.000641	20.866998
1782.536705	-3.001800	3.400000	-10.205000	25.746935	0.000639	20.870222
1783.537486	-2.997200	3.399300	-10.186000	25.719974	0.000638	20.879176
1784.544243	-3.004400	3.398300	-10.209000	25.707607	0.000639	20.857747
1785.533314	-2.988300	3.398300	-10.154000	25.696051	0.000637	20.870795
1786.523322	-3.005400	3.396600	-10.207000	25.672717	0.000639	20.862059
1787.522570	-2.987800	3.398400	-10.152000	25.636243	0.000638	20.876159
1788.535073	-3.008800	3.396100	-10.217000	25.664692	0.000637	20.885291
1789.529037	-2.970100	3.397700	-10.090000	25.667751	0.000637	20.867975
1790.527001	-3.008600	3.396000	-10.216000	25.680148	0.000635	20.858142
1791.540518	-2.998300	3.396500	-10.183000	25.681092	0.000635	20.874736
1792.527176	-2.988400	3.396900	-10.150000	25.704425	0.000635	20.845543
1793.528769	-2.988400	3.397100	-10.151000	25.693435	0.000635	20.871013
1794.538458	-3.009500	3.393600	-10.213000	25.707873	0.000634	20.870341
1795.533750	-3.013500	3.394700	-10.229000	25.700619	0.000636	20.877280
1796.527337	-2.979500	3.395100	-10.115000	25.732990	0.000633	20.884189
1797.522717	-3.005300	3.394500	-10.200000	25.717511	0.000633	20.880021
1798.528558	-3.007700	3.393200	-10.204000	25.758698	0.000631	20.882037
1799.529905	-2.996400	3.393200	-10.167000	25.803369	0.000632	20.885657
1800.537902	-2.989700	3.394100	-10.147000	25.812112	0.000629	20.885430
1801.541121	-3.014300	3.390800	-10.219000	25.840630	0.000634	20.869981
1802.540213	-2.996000	3.392900	-10.163000	25.826342	0.000632	20.877913
1803.533309	-2.997200	3.391600	-10.165000	25.806344	0.000630	20.863991
1804.529922	-3.010100	3.391800	-10.209000	25.780403	0.000627	20.881079
1805.530118	-2.989400	3.392100	-10.140000	25.754539	0.000629	20.892557
1806.544130	-2.981700	3.391800	-10.113000	25.779405	0.000630	20.886714
1807.531102	-3.011800	3.391400	-10.214000	25.729913	0.000629	20.886314
1808.531961	-2.989900	3.392500	-10.142000	25.713465	0.000629	20.893026
1809.526971	-3.007900	3.390100	-10.195000	25.668392	0.000627	20.891851
1810.533638	-3.002600	3.389500	-10.175000	25.719400	0.000629	20.873859
1811.532115	-2.995700	3.388700	-10.151000	25.715398	0.000627	20.908242
1812.533186	-2.979000	3.390700	-10.100000	25.742178	0.000627	20.888202
1813.537743	-3.008900	3.388100	-10.193000	25.757406	0.000627	20.890696
1814.538812	-2.990700	3.390100	-10.138000	25.707865	0.000625	20.894039
1815.532694	-2.993200	3.388200	-10.141000	25.714125	0.000624	20.874250
1816.530213	-2.996400	3.388200	-10.151000	25.708406	0.000623	20.899798
1817.531815	-2.994800	3.388200	-10.145000	25.746195	0.000623	20.895556
1818.534058	-2.990400	3.387600	-10.129000	25.747661	0.000623	20.883278
1819.530377	-2.968100	3.389400	-10.057000	25.772203	0.000624	20.892756
1820.529833	-3.007500	3.387400	-10.186000	25.779977	0.000623	20.883970
1821.536869	-2.994800	3.386300	-10.140000	25.775954	0.000623	20.880404
1822.535154	-3.005800	3.385200	-10.174000	25.784274	0.000622	20.891605
1823.533996	-2.981600	3.385300	-10.093000	25.778757	0.000622	20.872315
1824.531109	-2.996400	3.385000	-10.142000	25.803598	0.000620	20.880671
1825.536613	-3.011800	3.385000	-10.194000	25.834152	0.000620	20.912309
1826.546990	-2.981400	3.386000	-10.095000	25.849256	0.000619	20.876750
1827.529637	-3.003600	3.384700	-10.165000	25.848858	0.000618	20.870187
1828.537718	-3.014300	3.384600	-10.201000	25.861947	0.000619	20.884282
1829.542330	-2.982500	3.384400	-10.092000	25.875935	0.000617	20.883161
1830.538267	-3.019500	3.382100	-10.211000	25.919205	0.000619	20.865940
1831.546784	-2.990300	3.383200	-10.115000	25.911108	0.000615	20.879141
1832.538443	-2.995800	3.383600	-10.135000	25.900719	0.000616	20.892886
1833.539870	-3.006700	3.382300	-10.169000	25.912593	0.000615	20.889167
1834.541246	-2.994500	3.381600	-10.125000	25.901044	0.000618	20.877092
1835.540643	-2.994700	3.382000	-10.127000	25.904992	0.000617	20.878687
1836.536185	-3.017300	3.380200	-10.198000	25.902381	0.000614	20.884599
1837.535459	-3.012100	3.381400	-10.184000	25.916964	0.000614	20.876963
1838.533260	-3.012200	3.380200	-10.181000	25.912691	0.000616	20.873146
1839.548470	-3.001400	3.381200	-10.147000	25.903375	0.000613	20.876588
1840.541737	-2.992800	3.380500	-10.116000	25.875203	0.000612	20.874366
1841.539650	-2.989600	3.382100	-10.110000	25.848176	0.000614	20.876613
1842.542322	-3.007000	3.379100	-10.160000	25.813217	0.000612	20.893178
1843.545617	-2.999400	3.379600	-10.136000	25.803703	0.000612	20.865605
1844.539093	-2.980000	3.379700	-10.071000	25.799755	0.000613	20.859742
1845.550263	-2.981100	3.380100	-10.075000	25.785097	0.000610	20.882001
1846.543865	-3.012300	3.378700	-10.177000	25.753815	0.000610	20.889933
1847.536670	-3.009400	3.377700	-10.164000	25.784965	0.000608	20.877127
1848.558083	-3.019000	3.377500	-10.196000	25.760300	0.000608	20.853776
1849.548027	-2.989700	3.378600	-10.100000	25.770233	0.000608	20.880347
1850.546736	-2.985600	3.377300	-10.082000	25.752492	0.000608	20.863476
1851.551146	-3.005400	3.376700	-10.148000	25.770479	0.000607	20.859259
1852.541501	-2.994700	3.378200	-10.116000	25.776710	0.000607	20.842284
1853.546735	-2.998100	3.377400	-10.125000	25.744094	0.000606	20.861205
1854.554387	-3.002900	3.377300	-10.141000	25.712515	0.000608	20.869788
1855.555429	-3.015300	3.374600	-10.174000	25.733955	0.000604	20.881839
1856.562573	-2.983600	3.377600	-10.077000	25.747546	0.000605	20.860405
1857.552579	-2.999800	3.374400	-10.121000	25.725581	0.000604	20.877696
1858.542100	-3.009100	3.374500	-10.153000	25.748682	0.000604	20.874347
1859.550458	-2.985800	3.374300	-10.073000	25.730596	0.000604	20.853812
1860.552727	-2.999500	3.375400	-10.124000	25.784085	0.000604	20.872925
1861.544350	-3.007100	3.373500	-10.144000	25.809796	0.000603	20.865561
1862.548475	-3.023500	3.374100	-10.200000	25.801177	0.000603	20.859274
1863.550088	-3.000500	3.373200	-10.120000	25.787734	0.000603	20.853358
1864.550560	-2.983900	3.374600	-10.068000	25.799334	0.000601	20.855526
1865.552497	-3.006900	3.373300	-10.141000	25.817693	0.000601	20.855477
1866.548578	-3.004700	3.372400	-10.132000	25.823082	0.000601	20.856148
1867.545277	-3.002500	3.372200	-10.124000	25.854658	0.000600	20.864633
1868.549375	-3.001700	3.372800	-10.123000	25.891248	0.000600	20.845441
1869.557922	-2.991900	3.372600	-10.089000	25.882993	0.000599	20.845210
1870.552674	-3.012500	3.370600	-10.153000	25.917502	0.000598	20.846686
1871.553739	-2.994900	3.371000	-10.095000	25.928928	0.000599	20.870965
1872.555170	-2.965400	3.372400	-9.999600	25.924803	0.000598	20.841693
1873.560352	-2.996300	3.371100	-10.099000	25.946514	0.000598	20.857339
1874.555006	-3.003200	3.370800	-10.122000	25.939705	0.000597	20.861404
1875.558153	-3.004900	3.369000	-10.122000	25.933692	0.000596	20.838769
1876.549672	-3.007900	3.370600	-10.138000	25.935231	0.000599	20.850746
1877.562519	-3.005100	3.369500	-10.124000	25.968716	0.000596	20.841713
1878.554721	-3.004700	3.368300	-10.119000	25.980613	0.000595	20.862674
1879.563077	-2.992500	3.368400	-10.079000	25.977108	0.000595	20.863420
1880.578542	-2.982200	3.370100	-10.049000	25.993233	0.000596	20.858283
1881.553652	-3.000700	3.368200	-10.106000	25.977654	0.000594	20.846899
1882.548617	-2.998600	3.368100	-10.099000	25.954105	0.000594	20.857854
1883.552738	-3.009700	3.366400	-10.130000	25.898909	0.000596	20.848396
1884.533523	-3.019200	3.368000	-10.167000	25.856572	0.000594	20.841902
1885.534486	-3.007200	3.367100	-10.125000	25.810496	0.000593	20.843032
1886.535770	-3.005300	3.366500	-10.117000	25.817228	0.000592	20.827509
1887.535054	-2.989300	3.367500	-10.065000	25.773796	0.000593	20.843625
1888.535764	-2.996900	3.365800	-10.086000	25.763613	0.000593	20.825810
1889.536708	-2.988100	3.366800	-10.059000	25.758716	0.000592	20.835590
1890.537294	-2.986300	3.365600	-10.050000	25.772253	0.000591	20.863411
1891.541866	-3.021000	3.365500	-10.166000	25.811903	0.000591	20.839704
1892.545751	-3.022300	3.362400	-10.161000	25.830062	0.000591	20.851306
1893.538109	-3.017400	3.362700	-10.145000	25.866185	0.000590	20.847764
1894.561238	-3.009400	3.363600	-10.121000	25.865954	0.000589	20.845162
1895.557166	-2.994900	3.363300	-10.071000	25.850398	0.000588	20.821001
1896.561149	-3.016300	3.362800	-10.142000	25.887785	0.000588	20.830583
1897.563564	-3.015100	3.360700	-10.131000	25.893847	0.000588	20.849000
1898.554351	-2.998400	3.363100	-10.083000	25.904078	0.000587	20.836046
1899.560229	-2.979800	3.364400	-10.024000	25.930062	0.000586	20.850294
1900.557631	-3.003500	3.360700	-10.092000	25.928022	0.000586	20.845400
1901.562821	-3.030900	3.360600	-10.185000	25.893867	0.000584	20.846175
1902.557515	-3.000500	3.362600	-10.088000	25.904644	0.000585	20.834243
1903.559999	-2.990800	3.361000	-10.051000	25.869515	0.000583	20.843524
1904.559190	-2.986200	3.361200	-10.037000	25.907205	0.000583	20.837765
1905.558295	-3.001700	3.360200	-10.086000	25.924742	0.000584	20.835468
1906.544972	-2.996900	3.359300	-10.067000	25.923528	0.000581	20.850369
1907.541080	-3.015400	3.359400	-10.129000	25.897515	0.000582	20.841780
1908.544646	-2.984700	3.361200	-10.030000	25.852651	0.000581	20.836540
1909.561485	-3.011000	3.358600	-10.112000	25.820529	0.000582	20.829403
1910.557057	-2.984100	3.359300	-10.022000	25.804530	0.000580	20.815228
1911.563376	-2.989400	3.357800	-10.037000	25.817299	0.000582	20.825210
1912.540319	-3.018700	3.358200	-10.136000	25.795208	0.000579	20.840477
1913.561158	-2.994400	3.358200	-10.055000	25.771434	0.000580	20.834614
1914.560007	-3.000500	3.358700	-10.077000	25.784351	0.000577	20.830994
1915.556322	-2.995600	3.357200	-10.055000	25.822717	0.000578	20.846773
1916.542303	-2.998100	3.356900	-10.063000	25.842291	0.000578	20.837513
1917.566195	-2.964600	3.358500	-9.955500	25.801103	0.000576	20.822691
1918.561238	-2.995500	3.357400	-10.057000	25.808507	0.000578	20.819224
1919.571055	-3.009700	3.355500	-10.098000	25.823710	0.000574	20.836866
1920.566368	-2.985200	3.356700	-10.020000	25.839784	0.000576	20.832623
1921.560677	-3.009800	3.355800	-10.099000	25.883458	0.000577	20.811539
1922.565268	-3.003800	3.355600	-10.079000	25.897663	0.000576	20.831972
1923.572927	-3.002300	3.356000	-10.075000	25.886910	0.000576	20.848670
1924.565195	-2.996700	3.355500	-10.055000	25.862715	0.000574	20.825313
1925.574139	-2.980100	3.354700	-9.997000	25.851239	0.000574	20.840812
1926.567562	-3.002200	3.353600	-10.067000	25.858541	0.000576	20.821594
1927.544549	-3.013600	3.353800	-10.105000	25.881546	0.000574	20.834273
1928.568158	-2.988700	3.354100	-10.023000	25.872602	0.000572	20.843306
1929.549384	-2.999700	3.353300	-10.058000	25.901940	0.000570	20.825363
1930.547439	-3.013700	3.352700	-10.103000	25.863585	0.000570	20.827610
1931.555079	-3.021800	3.351600	-10.127000	25.828263	0.000571	20.826266
1932.570828	-2.974400	3.352200	-9.969500	25.783966	0.000570	20.830134
1933.547594	-2.988900	3.352400	-10.019000	25.773487	0.000570	20.820082
1934.571702	-2.979700	3.352800	-9.989900	25.765286	0.000570	20.816586
1935.568799	-2.990800	3.352500	-10.026000	25.738153	0.000570	20.811143
1936.565530	-3.022200	3.349700	-10.123000	25.762031	0.000567	20.818532
1937.572296	-2.993500	3.350800	-10.029000	25.739795	0.000568	20.809473
1938.569178	-3.004200	3.352600	-10.071000	25.756514	0.000566	20.802085
1939.569055	-3.015100	3.349400	-10.098000	25.778154	0.000567	20.811494
1940.571107	-3.009800	3.350000	-10.082000	25.789385	0.000568	20.814714
1941.575088	-2.999000	3.351400	-10.051000	25.786479	0.000565	20.812269
1942.577750	-2.997700	3.348400	-10.036000	25.792886	0.000565	20.790730
1943.546485	-2.960800	3.350000	-9.916900	25.797680	0.000566	20.815460
1944.568042	-3.000200	3.349900	-10.049000	25.800261	0.000565	20.800509
1945.567387	-2.989000	3.348200	-10.007000	25.848978	0.000564	20.790651
1946.578483	-3.004100	3.347600	-10.055000	25.889525	0.000562	20.792503
1947.570030	-2.987200	3.347000	-9.997500	25.922957	0.000561	20.800011
1948.568182	-2.998500	3.347700	-10.037000	25.958876	0.000563	20.800060
1949.581559	-3.019400	3.345800	-10.101000	25.970331	0.000561	20.794972
1950.572436	-2.989300	3.347000	-10.004000	26.001126	0.000561	20.802678
1951.565691	-3.009400	3.347000	-10.072000	25.996583	0.000563	20.823718
1952.555925	-2.994400	3.347000	-10.021000	26.031030	0.000561	20.800480
1953.551334	-2.986000	3.345000	-9.986900	26.063990	0.000559	20.823639
1954.552195	-3.001500	3.346400	-10.043000	26.060908	0.000560	20.824336
1955.556991	-3.014000	3.344700	-10.080000	26.033586	0.000559	20.801152
1956.551892	-3.006500	3.345600	-10.057000	25.968783	0.000559	20.782986
1957.561060	-2.979800	3.344100	-9.963300	25.953729	0.000558	20.792519
1958.560074	-3.008200	3.344600	-10.060000	25.945082	0.000559	20.803745
1959.554583	-2.992300	3.345400	-10.010000	25.931439	0.000557	20.784824
1960.559595	-2.983800	3.344600	-9.978300	25.925254	0.000557	20.791413
1961.555106	-2.991300	3.343700	-10.001000	25.969143	0.000555	20.814168
1962.555863	-3.004800	3.343900	-10.047000	25.993064	0.000557	20.818761
1963.557369	-2.977200	3.343200	-9.951300	25.992892	0.000555	20.801518
1964.557889	-2.989000	3.343300	-9.991400	25.983080	0.000553	20.800669
1965.562177	-3.000300	3.341800	-10.026000	25.982805	0.000555	20.815565
1966.561638	-3.000200	3.342600	-10.027000	25.984073	0.000555	20.807831
1967.557190	-2.980500	3.342400	-9.961200	25.986851	0.000554	20.811096
1968.557427	-3.002500	3.339900	-10.028000	25.977088	0.000552	20.810770
1969.557680	-2.981300	3.341100	-9.960100	26.005404	0.000552	20.781847
1970.559426	-2.999700	3.341800	-10.023000	26.017576	0.000553	20.811145
1971.558392	-3.011300	3.339400	-10.055000	26.028898	0.000553	20.800235
1972.558603	-2.978900	3.340800	-9.950100	26.046762	0.000550	20.795898
1973.593693	-2.982100	3.339900	-9.958600	26.096981	0.000552	20.791354
1974.590437	-3.010600	3.339100	-10.052000	26.065688	0.000552	20.800689
1975.576619	-2.998300	3.339100	-10.011000	26.035431	0.000551	20.798739
1976.588589	-3.006400	3.338500	-10.037000	25.978204	0.000550	20.800037
1977.582932	-3.005800	3.338300	-10.032000	25.926440	0.000550	20.784543
1978.582564	-3.010000	3.338300	-10.047000	25.877201	0.000549	20.788658
1979.579095	-3.000000	3.337400	-10.012000	25.851438	0.000550	20.783166
1980.582575	-2.981400	3.338600	-9.952900	25.847982	0.000548	20.788703
1981.579584	-2.994500	3.336500	-9.990700	25.833802	0.000547	20.782044
1982.581434	-3.019600	3.335600	-10.071000	25.883563	0.000545	20.786040
1983.580505	-2.983000	3.336400	-9.951300	25.912551	0.000547	20.791453
1984.577474	-2.983200	3.336900	-9.953400	25.949537	0.000544	20.784988
1985.582527	-2.995500	3.336600	-9.993900	25.969856	0.000545	20.781694
1986.564891	-3.000100	3.336000	-10.007000	25.973312	0.000545	20.791330
1987.583345	-2.997200	3.334800	-9.994500	25.983941	0.000542	20.788732
1988.599269	-3.006500	3.334300	-10.023000	25.984762	0.000545	20.769168
1989.582872	-3.001000	3.333700	-10.004000	25.997652	0.000543	20.791602
1990.563398	-2.985000	3.333200	-9.948500	26.018914	0.000543	20.788307
1991.585979	-2.999200	3.335200	-10.002000	26.056446	0.000542	20.795671
1992.582370	-2.995300	3.334000	-9.985500	26.034069	0.000542	20.788835
1993.564517	-2.983400	3.334000	-9.945300	26.074654	0.000540	20.773662
1994.563621	-3.010200	3.330700	-10.025000	26.095865	0.000542	20.772215
1995.567050	-3.000900	3.333200	-10.001000	26.115812	0.000538	20.768550
1996.589665	-2.993100	3.331700	-9.971200	26.099443	0.000539	20.766327
1997.592685	-3.000400	3.332300	-9.998300	26.118442	0.000540	20.772141
1998.587443	-3.014600	3.331900	-10.044000	26.123785	0.000539	20.775139
1999.590505	-3.017100	3.330400	-10.047000	26.158158	0.000538	20.774590
2000.583137	-3.032200	3.330500	-10.097000	26.131561	0.000539	20.776788
2001.585181	-2.983400	3.331800	-9.939300	26.167497	0.000537	20.757421
2002.600453	-3.036100	3.329200	-10.106000	26.170997	0.000536	20.758568
2003.581243	-2.991900	3.330800	-9.964500	26.166598	0.000536	20.761260
2004.591051	-2.979000	3.329700	-9.917500	26.109698	0.000536	20.771889
2005.584320	-3.009400	3.329300	-10.018000	26.098254	0.000537	20.757545
2006.570520	-2.993400	3.329100	-9.964700	26.074187	0.000537	20.783150
2007.581769	-2.983400	3.329900	-9.933800	26.075426	0.000538	20.767799
2008.572444	-3.020100	3.327900	-10.049000	26.091224	0.000534	20.779406
2009.572411	-2.997300	3.328900	-9.976400	26.116034	0.000534	20.764505
2010.589762	-3.017100	3.328500	-10.042000	26.131232	0.000531	20.778829
2011.585285	-2.984800	3.327000	-9.929600	26.125820	0.000533	20.771494
2012.589194	-2.982000	3.327200	-9.920200	26.140916	0.000533	20.752048
2013.573721	-2.995200	3.328200	-9.966700	26.170123	0.000532	20.769069
2014.574885	-3.010200	3.326000	-10.011000	26.176479	0.000531	20.758860
2015.571547	-2.995000	3.326500	-9.961900	26.162425	0.000533	20.748531
2016.575578	-3.004400	3.326200	-9.991900	26.153352	0.000530	20.781615
2017.597408	-3.008400	3.325000	-10.002000	26.137633	0.000529	20.755388
2018.601139	-2.993200	3.323800	-9.948100	26.156381	0.000532	20.758105
2019.591187	-2.996700	3.325500	-9.964600	26.166413	0.000530	20.769608
2020.592376	-2.986100	3.325300	-9.928700	26.117013	0.000528	20.746522
2021.573013	-3.011700	3.324900	-10.013000	26.119147	0.000529	20.764314
2022.575840	-3.025400	3.323400	-10.053000	26.093016	0.000528	20.761765
2023.593868	-2.993800	3.323000	-9.946900	26.110845	0.000528	20.747911
2024.599298	-2.985900	3.324600	-9.925900	26.113627	0.000528	20.742646
2025.599680	-3.018300	3.322300	-10.026000	26.106068	0.000526	20.771561
2026.578505	-2.999100	3.323300	-9.966100	26.046780	0.000525	20.755138
2027.574564	-2.988200	3.323200	-9.929000	26.029614	0.000527	20.772031
2028.581261	-2.994000	3.324200	-9.951600	25.998535	0.000526	20.756453
2029.578938	-3.017500	3.321400	-10.021000	25.975385	0.000525	20.748841
2030.596159	-2.992100	3.323700	-9.943900	25.999003	0.000524	20.764035
2031.605076	-3.005600	3.322100	-9.984400	25.995793	0.000524	20.750853
2032.597784	-3.016300	3.320400	-10.015000	26.054706	0.000524	20.752671
2033.600502	-2.980100	3.321900	-9.899200	26.050877	0.000525	20.755462
2034.598589	-2.996900	3.321700	-9.953700	26.116640	0.000524	20.762743
2035.596356	-3.026500	3.318900	-10.044000	26.123841	0.000523	20.754332
2036.600523	-2.996200	3.319400	-9.944700	26.145691	0.000522	20.757795
2037.603226	-2.990000	3.320400	-9.927000	26.152912	0.000521	20.720005
2038.577712	-3.000500	3.318200	-9.954900	26.133713	0.000521	20.772312
2039.578080	-2.995900	3.318500	-9.940800	26.107082	0.000523	20.742707
2040.599493	-3.016600	3.317600	-10.007000	26.104673	0.000521	20.747873
2041.602142	-2.993400	3.318700	-9.932900	26.121033	0.000519	20.762890
2042.578314	-2.990200	3.318400	-9.920500	26.159997	0.000520	20.763636
2043.580113	-2.998800	3.318100	-9.949800	26.193171	0.000519	20.759986
2044.579256	-3.000800	3.316000	-9.949500	26.208611	0.000519	20.746577
2045.593404	-3.000600	3.316500	-9.950200	26.201730	0.000515	20.770009
2046.584229	-2.994000	3.316800	-9.929700	26.256336	0.000516	20.765614
2047.583526	-2.997400	3.317300	-9.942100	26.259138	0.000516	20.769378
2048.598075	-2.984100	3.316300	-9.895300	26.259408	0.000516	20.753528
2049.594016	-2.982000	3.317700	-9.892700	26.297597	0.000515	20.761086
2050.586893	-2.993600	3.316200	-9.926100	26.298860	0.000515	20.761881
2051.581568	-2.983700	3.313700	-9.886300	26.314479	0.000513	20.749128
2052.582733	-2.998000	3.314600	-9.936200	26.313276	0.000512	20.759300
2053.582731	-3.023700	3.313500	-10.017000	26.328698	0.000514	20.751090
2054.580899	-3.008600	3.313400	-9.967900	26.298699	0.000512	20.763617
2055.602285	-2.980900	3.312600	-9.872800	26.292763	0.000511	20.761444
2056.596526	-2.999500	3.312900	-9.934100	26.287170	0.000511	20.752504
2057.601191	-2.975400	3.313600	-9.858900	26.271822	0.000511	20.755098
2058.598987	-3.019000	3.311200	-9.995300	26.285127	0.000511	20.755666
2059.601551	-3.001500	3.312900	-9.942800	26.306756	0.000509	20.761282
2060.607302	-2.983000	3.312200	-9.879500	26.273504	0.000507	20.772435
2061.612737	-2.996500	3.311200	-9.921600	26.221893	0.000507	20.765141
2062.580973	-3.008200	3.311100	-9.960100	26.202892	0.000509	20.766910
2063.581274	-2.989700	3.311600	-9.899100	26.180193	0.000508	20.775395
2064.584457	-2.990500	3.310000	-9.897900	26.139908	0.000507	20.748190
2065.596650	-3.028100	3.309200	-10.019000	26.136851	0.000508	20.726625
2066.610982	-3.003900	3.310400	-9.943500	26.142686	0.000506	20.769000
2067.598938	-3.010300	3.308200	-9.958200	26.158577	0.000505	20.764105
2068.581016	-3.013200	3.309000	-9.970400	26.201365	0.000505	20.747831
2069.586399	-2.970500	3.309800	-9.830700	26.226492	0.000504	20.757434
2070.588208	-3.025800	3.307100	-10.006000	26.222068	0.000505	20.758205
2071.582267	-2.992800	3.307500	-9.898300	26.231751	0.000505	20.760823
2072.590899	-3.011500	3.308300	-9.963300	26.230184	0.000504	20.760670
2073.591150	-2.971200	3.308700	-9.828900	26.282532	0.000503	20.747369
2074.601294	-2.979900	3.307200	-9.853700	26.281363	0.000503	20.764686
2075.610351	-2.999500	3.306500	-9.917000	26.285383	0.000501	20.756872
2076.608744	-2.979500	3.308400	-9.855900	26.287861	0.000502	20.762208
2077.606669	-3.026400	3.305300	-10.003000	26.315993	0.000501	20.736425
2078.612444	-2.991800	3.306000	-9.890100	26.317601	0.000499	20.754637
2079.609285	-3.004100	3.306000	-9.930300	26.324428	0.000500	20.737315
2080.586053	-2.994900	3.305400	-9.897900	26.300809	0.000499	20.757202
2081.604907	-3.002300	3.304900	-9.921800	26.300460	0.000499	20.763489
2082.590520	-3.007700	3.305200	-9.940300	26.283791	0.000498	20.759539
2083.585557	-2.998600	3.303300	-9.904400	26.272713	0.000500	20.768796
2084.586766	-3.003500	3.304200	-9.922000	26.331935	0.000499	20.752447
2085.607976	-3.001000	3.304800	-9.917100	26.349112	0.000497	20.761650
2086.614376	-2.995400	3.301900	-9.889600	26.364057	0.000495	20.771929
2087.612152	-2.986400	3.304000	-9.866200	26.361469	0.000496	20.752257
2088.609521	-2.997200	3.302900	-9.898100	26.365616	0.000496	20.764012
2089.621395	-2.974100	3.301800	-9.818400	26.357066	0.000494	20.766799
2090.607285	-2.996800	3.302000	-9.894100	26.337698	0.000495	20.766774
2091.592666	-3.000700	3.302500	-9.908400	26.330962	0.000494	20.762375
2092.594563	-3.009700	3.300700	-9.932300	26.324627	0.000492	20.779243
2093.589377	-3.007800	3.300200	-9.925500	26.306773	0.000492	20.760350
2094.597504	-2.987500	3.301000	-9.860700	26.307417	0.000491	20.778542
2095.628678	-3.011400	3.298800	-9.932800	26.320373	0.000494	20.764061
2096.610398	-2.995000	3.300000	-9.883100	26.297181	0.000492	20.764935
2097.626833	-2.998900	3.300300	-9.895500	26.294050	0.000491	20.766531
2098.616680	-2.978500	3.302100	-9.834000	26.309267	0.000489	20.766176
2099.610341	-3.002400	3.298900	-9.903100	26.361090	0.000487	20.784120
2100.626738	-3.005200	3.298400	-9.911800	26.346362	0.000488	20.773111
2101.614495	-2.984200	3.300400	-9.847800	26.359101	0.000489	20.786388
2102.610866	-3.008200	3.297800	-9.919300	26.336697	0.000490	20.744904
2103.613591	-3.006700	3.297400	-9.913100	26.358625	0.000487	20.769788
2104.615628	-2.989000	3.297300	-9.853700	26.367264	0.000488	20.760927
2105.621762	-2.990100	3.297600	-9.858400	26.400116	0.000485	20.782565
2106.611459	-3.006000	3.296900	-9.909500	26.417194	0.000486	20.766064
2107.593750	-2.990900	3.297100	-9.860000	26.388642	0.000485	20.780042
2108.593289	-2.989000	3.297700	-9.855800	26.371059	0.000485	20.789871
2109.594415	-2.984600	3.295500	-9.833600	26.374341	0.000485	20.774678
2110.598181	-3.008600	3.296000	-9.915100	26.345853	0.000483	20.752685
2111.616525	-3.006100	3.293600	-9.899700	26.354768	0.000484	20.777292
2112.624528	-3.013200	3.293900	-9.924600	26.357550	0.000482	20.768707
2113.621006	-2.983700	3.294100	-9.827500	26.368852	0.000482	20.771532
2114.595076	-3.009000	3.294300	-9.911400	26.357377	0.000480	20.783233
2115.595646	-2.987400	3.294500	-9.839600	26.403291	0.000482	20.798085
2116.595406	-2.980800	3.293600	-9.816800	26.398520	0.000481	20.787125
2117.597322	-3.000500	3.293300	-9.880700	26.406992	0.000478	20.772406
2118.599581	-2.981700	3.293300	-9.819300	26.385311	0.000479	20.795660
2119.598872	-3.018500	3.291400	-9.933900	26.414786	0.000478	20.782611
2120.600318	-3.011000	3.292100	-9.911300	26.416849	0.000477	20.790849
2121.603989	-2.995500	3.292300	-9.861400	26.428344	0.000477	20.781539
2122.596895	-3.027200	3.290100	-9.957600	26.451582	0.000477	20.763644
2123.619052	-3.016200	3.292600	-9.929100	26.434353	0.000475	20.795166
2124.624432	-2.996400	3.289800	-9.856500	26.442422	0.000476	20.802327
2125.620255	-2.969200	3.290800	-9.768900	26.466132	0.000474	20.776847
2126.621502	-3.019900	3.288400	-9.928500	26.459007	0.000474	20.782487
2127.623180	-2.994800	3.289000	-9.849200	26.491684	0.000472	20.793995
2128.600655	-2.998400	3.289300	-9.862100	26.492931	0.000473	20.776282
2129.601648	-3.002800	3.288900	-9.874600	26.469837	0.000471	20.784837
2130.606242	-2.995100	3.289200	-9.850900	26.475272	0.000470	20.790774
2131.603919	-2.990000	3.287900	-9.829600	26.480018	0.000469	20.783691
2132.601703	-3.017100	3.286600	-9.915000	26.461300	0.000469	20.780525
2133.604535	-2.995200	3.288300	-9.847600	26.477635	0.000469	20.780347
2134.603398	-3.014700	3.289300	-9.914500	26.502115	0.000467	20.787410
2135.605066	-3.010400	3.287300	-9.895200	26.503477	0.000467	20.788779
2136.627305	-3.002500	3.286900	-9.867700	26.477241	0.000467	20.798444
2137.636463	-3.005500	3.286200	-9.876100	26.453109	0.000467	20.763756
2138.623140	-3.008900	3.286200	-9.886300	26.438558	0.000467	20.777107
2139.629252	-2.984600	3.286400	-9.805900	26.425325	0.000464	20.768547
2140.628146	-2.983800	3.286000	-9.803800	26.461801	0.000465	20.800468
2141.621359	-2.974000	3.287100	-9.775100	26.427811	0.000465	20.775787
2142.607128	-3.006100	3.283700	-9.869800	26.426720	0.000466	20.790812
2143.603765	-2.999900	3.285100	-9.852700	26.396748	0.000463	20.787241
2144.604764	-3.000700	3.284300	-9.853700	26.385824	0.000465	20.781951
2145.627896	-3.010900	3.284000	-9.886700	26.416312	0.000463	20.793154
2146.631075	-2.987400	3.283100	-9.806000	26.432651	0.000464	20.784920
2147.607724	-2.995500	3.282400	-9.832000	26.422646	0.000461	20.782924
2148.611646	-2.996900	3.282600	-9.837100	26.416735	0.000463	20.818234
2149.605013	-2.984200	3.282300	-9.793600	26.459688	0.000461	20.787439
2150.606728	-2.995900	3.282600	-9.834200	26.453256	0.000461	20.797095
2151.607420	-3.007400	3.281800	-9.869000	26.395230	0.000460	20.793776
2152.635673	-2.999200	3.281600	-9.841300	26.338317	0.000459	20.799639
2153.629489	-3.003400	3.282300	-9.855500	26.317632	0.000457	20.805403
2154.605575	-2.997600	3.281900	-9.835900	26.347950	0.000459	20.788932
2155.605599	-3.013900	3.279700	-9.883200	26.348820	0.000458	20.790754
2156.608678	-3.006800	3.278500	-9.857300	26.370846	0.000457	20.769743
2157.608469	-2.979400	3.280200	-9.771600	26.438451	0.000457	20.776051
2158.632741	-2.999200	3.278800	-9.831900	26.480338	0.000456	20.799186
2159.634623	-2.986400	3.278300	-9.789500	26.515614	0.000454	20.802876
2160.625138	-2.974300	3.277400	-9.746200	26.542555	0.000453	20.794869
2161.632989	-2.984100	3.277800	-9.780100	26.569413	0.000454	20.810013
2162.635743	-3.018100	3.275300	-9.883900	26.562215	0.000454	20.795664
2163.628734	-3.035000	3.277100	-9.945300	26.565640	0.000454	20.785831
2164.630720	-2.997400	3.277900	-9.824400	26.574007	0.000452	20.767215
2165.631167	-3.019100	3.276300	-9.890200	26.542555	0.000453	20.808145
2166.612508	-3.002500	3.275100	-9.832600	26.553179	0.000448	20.798909
2167.610740	-3.029400	3.274600	-9.918700	26.554893	0.000450	20.807745
2168.613249	-2.979900	3.276100	-9.760500	26.573802	0.000449	20.798777
2169.629986	-2.983700	3.275500	-9.772000	26.584856	0.000448	20.803251
2170.637641	-2.994700	3.274200	-9.804300	26.607148	0.000448	20.824711
2171.634375	-2.990000	3.274700	-9.789500	26.622709	0.000447	20.814750
2172.634114	-3.006000	3.273300	-9.838000	26.638151	0.000448	20.813678
2173.636550	-2.982200	3.274500	-9.764000	26.590934	0.000445	20.806516
2174.630829	-3.032300	3.272400	-9.921400	26.599100	0.000445	20.817096
2175.629560	-2.991600	3.274000	-9.792700	26.603768	0.000446	20.809460
2176.631035	-3.020900	3.271700	-9.882700	26.633110	0.000443	20.816197
2177.625927	-2.986400	3.272600	-9.772500	26.644627	0.000443	20.788894
2178.627018	-2.979200	3.272100	-9.747100	26.622036	0.000441	20.821186
2179.632366	-2.994600	3.272800	-9.799300	26.657086	0.000443	20.803317
2180.631621	-2.998000	3.273700	-9.813000	26.650631	0.000442	20.819586
2181.635360	-2.981100	3.271100	-9.749300	26.630501	0.000441	20.820213
2182.637158	-2.996600	3.270100	-9.798000	26.611807	0.000438	20.820860
2183.612426	-3.010400	3.270600	-9.843700	26.634619	0.000440	20.803016
2184.618586	-3.012200	3.271300	-9.853000	26.634718	0.000440	20.801692
2185.633317	-2.967600	3.269500	-9.701800	26.648621	0.000438	20.800971
2186.631486	-3.011900	3.270100	-9.847600	26.668779	0.000438	20.803692
2187.644788	-2.986600	3.269300	-9.762900	26.667360	0.000437	20.808903
2188.635807	-2.994500	3.268200	-9.785800	26.708315	0.000437	20.829687
2189.636601	-2.992100	3.267300	-9.775300	26.715270	0.000436	20.818663
2190.628553	-2.979700	3.268300	-9.738200	26.737063	0.000434	20.799321
2191.635589	-2.983600	3.267000	-9.746600	26.746918	0.000435	20.823453
2192.639179	-2.981500	3.266500	-9.738000	26.767845	0.000434	20.818889
2193.611754	-2.999700	3.267900	-9.801700	26.761140	0.000431	20.825898
2194.621445	-3.000600	3.267000	-9.802200	26.745478	0.000434	20.820584
2195.619000	-2.985100	3.266000	-9.747600	26.770970	0.000432	20.810652
2196.615677	-3.006800	3.264700	-9.815700	26.793057	0.000432	20.828116
2197.619850	-2.990200	3.265100	-9.762200	26.812150	0.000432	20.828347
2198.618350	-3.007200	3.263700	-9.814200	26.797178	0.000431	20.801441
2199.616030	-3.018700	3.263800	-9.851300	26.788915	0.000430	20.826323
2200.616572	-2.978700	3.265700	-9.726400	26.787082	0.000429	20.814049
2201.618778	-2.999600	3.263100	-9.786600	26.815796	0.000428	20.802142
2202.615258	-3.000500	3.264100	-9.793200	26.818949	0.000427	20.829494
2203.617928	-3.004800	3.264000	-9.806400	26.826318	0.000428	20.806557
2204.617811	-2.987700	3.263500	-9.748200	26.843221	0.000426	20.800793
2205.639248	-3.006500	3.263700	-9.810700	26.822472	0.000427	20.823078
2206.633626	-2.998600	3.260400	-9.775600	26.842647	0.000424	20.812070
2207.645547	-3.010400	3.262100	-9.819600	26.878043	0.000424	20.833909
2208.650124	-3.002500	3.260700	-9.789600	26.832002	0.000423	20.829815
2209.644611	-2.999500	3.260900	-9.779800	26.827581	0.000423	20.804982
2210.616942	-2.968400	3.263200	-9.683900	26.828225	0.000424	20.833604
2211.645287	-3.013400	3.259900	-9.822500	26.823263	0.000423	20.841891
2212.619530	-2.977000	3.260400	-9.704900	26.793976	0.000422	20.811023
2213.635751	-3.017100	3.258300	-9.828700	26.783473	0.000421	20.830809
2214.618055	-3.016100	3.258600	-9.827300	26.812962	0.000422	20.835802
2215.616088	-3.028100	3.257500	-9.863400	26.826466	0.000421	20.849378
2216.620397	-3.009800	3.258500	-9.805900	26.838452	0.000420	20.827766
2217.642966	-3.007800	3.257700	-9.796800	26.839292	0.000420	20.821973
2218.661089	-3.015700	3.257800	-9.822500	26.819933	0.000419	20.825267
2219.633811	-2.981700	3.256600	-9.709200	26.758376	0.000418	20.831654
2220.642132	-2.990600	3.257700	-9.741600	26.713425	0.000417	20.825816
2221.622341	-3.015400	3.256300	-9.817800	26.706252	0.000415	20.832829
2222.637947	-3.019400	3.254700	-9.826000	26.720519	0.000416	20.833897
2223.638137	-3.031000	3.253600	-9.859900	26.717493	0.000416	20.826587
2224.644899	-2.998400	3.257200	-9.765700	26.698476	0.000413	20.846348
2225.638901	-3.019800	3.253700	-9.823900	26.712453	0.000415	20.832899
2226.646192	-3.004900	3.255000	-9.780000	26.742033	0.000414	20.820913
2227.639761	-3.014400	3.255300	-9.810600	26.740795	0.000413	20.827729
2228.646144	-2.991100	3.254700	-9.734700	26.716644	0.000414	20.837587
2229.640387	-3.016800	3.253100	-9.813600	26.770035	0.000412	20.831048
2230.647139	-2.988500	3.251800	-9.717100	26.762284	0.000413	20.839376
2231.639914	-3.018600	3.250900	-9.812100	26.762809	0.000412	20.842749
2232.640341	-3.006800	3.252500	-9.779300	26.731904	0.000412	20.855299
2233.653707	-3.008300	3.250900	-9.779000	26.753668	0.000412	20.852524
2234.652867	-3.022800	3.250000	-9.822900	26.745179	0.000409	20.833084
2235.645269	-3.011800	3.250700	-9.789600	26.791716	0.000409	20.844785
2236.650443	-2.999400	3.249900	-9.746400	26.767763	0.000409	20.858634
2237.657989	-3.002700	3.248200	-9.752100	26.803104	0.000407	20.831579
2238.649701	-2.999500	3.248400	-9.742600	26.772651	0.000407	20.853592
2239.668196	-3.002800	3.248800	-9.753700	26.781656	0.000407	20.842258
2240.647830	-2.976600	3.249200	-9.670400	26.781652	0.000407	20.852210
2241.650142	-3.006100	3.248300	-9.762600	26.770055	0.000405	20.847663
2242.646206	-2.997700	3.247900	-9.735200	26.821462	0.000403	20.854779
2243.628377	-2.977500	3.248000	-9.669500	26.805695	0.000403	20.838926
2244.648080	-2.987500	3.248900	-9.704900	26.794873	0.000404	20.851279
2245.648439	-3.001600	3.246300	-9.743300	26.797330	0.000402	20.853748
2246.654489	-2.986500	3.246600	-9.694900	26.789731	0.000400	20.863651
2247.645302	-2.985800	3.246500	-9.692800	26.774791	0.000399	20.862382
2248.628523	-2.994200	3.249600	-9.729200	26.769747	0.000402	20.867267
2249.628664	-2.986400	3.244400	-9.687900	26.803899	0.000400	20.869361
2250.628613	-3.011200	3.246800	-9.775700	26.805388	0.000400	20.860427
2251.628415	-3.010000	3.244000	-9.764400	26.790867	0.000398	20.853414
2252.629129	-2.992200	3.243000	-9.701800	26.787172	0.000398	20.874828
2253.639454	-2.993900	3.244900	-9.713900	26.798687	0.000398	20.855113
2254.630828	-2.998800	3.243500	-9.725100	26.804543	0.000398	20.878543
2255.633881	-2.990700	3.241700	-9.693600	26.822988	0.000396	20.877174
2256.634146	-3.004600	3.244600	-9.746900	26.822266	0.000397	20.887827
2257.653825	-2.997800	3.241800	-9.717600	26.781537	0.000394	20.868215
2258.652917	-3.005900	3.241400	-9.742400	26.799753	0.000394	20.866142
2259.654746	-3.001500	3.241300	-9.727700	26.805584	0.000392	20.887176
2260.662211	-2.996800	3.240400	-9.708600	26.829168	0.000393	20.884335
2261.659486	-2.985100	3.240400	-9.671500	26.860537	0.000392	20.881738
2262.672553	-3.000000	3.240500	-9.720400	26.864933	0.000394	20.860555
2263.636603	-3.001400	3.240500	-9.725100	26.883889	0.000391	20.868710
2264.641344	-2.979100	3.240200	-9.652000	26.864215	0.000389	20.890651
2265.635952	-3.038000	3.236900	-9.833000	26.804174	0.000389	20.868689
2266.641483	-2.982400	3.238600	-9.657900	26.779479	0.000388	20.876576
2267.638584	-2.999000	3.237800	-9.709000	26.714769	0.000389	20.868891
2268.640364	-3.013600	3.236600	-9.753100	26.709733	0.000386	20.880897
2269.643301	-3.021700	3.235900	-9.776500	26.698061	0.000387	20.861103
2270.640132	-2.999800	3.237400	-9.709800	26.709508	0.000386	20.875929
2271.656353	-2.987200	3.236700	-9.666600	26.738998	0.000385	20.901783
2272.648474	-3.011000	3.235700	-9.742100	26.758289	0.000385	20.885144
2273.640335	-3.006700	3.235200	-9.726000	26.772409	0.000385	20.875158
2274.639934	-3.002600	3.234700	-9.711700	26.805892	0.000385	20.874210
2275.648230	-2.994000	3.234900	-9.684500	26.841732	0.000383	20.892700
2276.641867	-3.017300	3.232500	-9.752600	26.860000	0.000382	20.875983
2277.643250	-2.976400	3.235000	-9.626400	26.915122	0.000383	20.895846
2278.664171	-2.987200	3.234100	-9.659700	26.935972	0.000381	20.894527
2279.675998	-2.992500	3.233100	-9.673800	26.945329	0.000380	20.888289
2280.642313	-2.997400	3.232300	-9.687500	26.972501	0.000379	20.893327
2281.643518	-3.001900	3.231500	-9.698500	26.942848	0.000378	20.889588
2282.642871	-2.985000	3.232900	-9.649300	26.898647	0.000380	20.901090
2283.644238	-3.018600	3.230000	-9.749100	26.879137	0.000378	20.869147
2284.642953	-3.028100	3.229900	-9.778400	26.895272	0.000379	20.891060
2285.642787	-2.995300	3.231600	-9.678800	26.899910	0.000377	20.890507
2286.643355	-3.009600	3.229500	-9.717900	26.914950	0.000378	20.887613
2287.659335	-2.982700	3.231000	-9.635800	26.902518	0.000377	20.896922
2288.658102	-2.993800	3.229600	-9.667800	26.884377	0.000376	20.903811
2289.662966	-3.015500	3.227300	-9.730500	26.884476	0.000375	20.909125
2290.666532	-3.005500	3.228900	-9.703700	26.893813	0.000375	20.888644
2291.663209	-3.001700	3.227200	-9.686600	26.852611	0.000374	20.902216
2292.665764	-3.002800	3.227200	-9.690300	26.826203	0.000373	20.882777
2293.702365	-2.999900	3.226400	-9.678100	26.834769	0.000371	20.887597
2294.663490	-2.993100	3.227700	-9.660000	26.817468	0.000372	20.882530
2295.660460	-2.975900	3.226100	-9.599600	26.793540	0.000369	20.883127
2296.663639	-2.988100	3.225600	-9.636600	26.831714	0.000369	20.901119
2297.668696	-2.974500	3.226200	-9.595700	26.804908	0.000370	20.920158
2298.648263	-3.007800	3.222900	-9.692400	26.834843	0.000371	20.883878
2299.652845	-3.014400	3.224200	-9.718000	26.887084	0.000369	20.904162
2300.664002	-3.008100	3.225500	-9.701400	26.925332	0.000369	20.915120
2301.669902	-2.989100	3.224600	-9.637100	26.976654	0.000369	20.909356
2302.668393	-3.004800	3.223200	-9.683400	26.984571	0.000366	20.875121
2303.666475	-2.997300	3.223200	-9.660800	27.016383	0.000368	20.898101
2304.663405	-2.992900	3.222800	-9.644000	27.015735	0.000369	20.897450
2305.665849	-2.975400	3.222500	-9.587200	27.042167	0.000365	20.907909
2306.664654	-3.016500	3.220500	-9.713000	27.021668	0.000365	20.890614
2307.672562	-2.991100	3.222600	-9.638100	27.014895	0.000363	20.903242
2308.648017	-2.984300	3.221700	-9.613900	27.031992	0.000363	20.912848
2309.665403	-2.996200	3.219600	-9.645600	27.031471	0.000363	20.902842
2310.662875	-3.007100	3.219800	-9.682000	27.023480	0.000362	20.901445
2311.666609	-2.993000	3.218100	-9.630300	27.042065	0.000362	20.894531
2312.648656	-2.993600	3.218300	-9.633100	27.060280	0.000363	20.888668
2313.654873	-2.998300	3.218700	-9.648100	27.101122	0.000361	20.910300
2314.675945	-2.991700	3.218000	-9.626600	27.103852	0.000360	20.910201
2315.678328	-3.001800	3.216500	-9.654500	27.127326	0.000359	20.906784
2316.669365	-3.018100	3.216100	-9.705000	27.106705	0.000359	20.887469
2317.679251	-2.989200	3.216500	-9.614100	27.076708	0.000359	20.886224
2318.681304	-3.025300	3.214300	-9.722700	27.111862	0.000359	20.900241
2319.668237	-3.011900	3.213100	-9.676800	27.120107	0.000358	20.890041
2320.678010	-3.007500	3.216200	-9.671300	27.097871	0.000358	20.896127
2321.675829	-3.004100	3.216200	-9.660600	27.099281	0.000359	20.887114
2322.670273	-2.986300	3.215900	-9.603600	27.136152	0.000356	20.882472
2323.678708	-3.004400	3.212200	-9.649800	27.157170	0.000355	20.864732
2324.670994	-3.008000	3.213600	-9.665300	27.186423	0.000356	20.891307
2325.670533	-3.003700	3.211900	-9.645700	27.170940	0.000354	20.907975
2326.671891	-2.972300	3.213800	-9.551300	27.165131	0.000356	20.885065
2327.671489	-2.992800	3.212600	-9.613700	27.136546	0.000353	20.870541
2328.683006	-2.994000	3.210600	-9.610800	27.108431	0.000353	20.883989
2329.658054	-3.001600	3.209900	-9.633400	27.119652	0.000352	20.894325
2330.656941	-3.000400	3.210900	-9.632200	27.126121	0.000351	20.878547
2331.655906	-2.989200	3.209300	-9.592600	27.162770	0.000352	20.878897
2332.653673	-3.003300	3.208100	-9.634500	27.171653	0.000350	20.873134
2333.652698	-3.023000	3.206800	-9.693300	27.146097	0.000351	20.875405
2334.673098	-3.002300	3.208800	-9.632500	27.071432	0.000350	20.867168
2335.679016	-2.996700	3.209000	-9.615500	27.024259	0.000348	20.870462
2336.679495	-2.999400	3.207500	-9.619700	27.021180	0.000348	20.881116
2337.671894	-2.982100	3.209300	-9.569200	27.017334	0.000348	20.862551
2338.676545	-3.024900	3.206900	-9.699400	27.064733	0.000349	20.869440
2339.677921	-3.000900	3.205400	-9.618200	27.083887	0.000348	20.883486
2340.682086	-3.009200	3.206400	-9.647500	27.131208	0.000345	20.858061
2341.678745	-3.002000	3.205900	-9.622500	27.142346	0.000346	20.871633
2342.654104	-3.006700	3.206500	-9.640000	27.181500	0.000345	20.874028
2343.655210	-2.995800	3.203200	-9.595200	27.215437	0.000345	20.852215
2344.659549	-3.001900	3.203800	-9.616800	27.232482	0.000342	20.882633
2345.658643	-2.989000	3.204400	-9.577200	27.249029	0.000341	20.864666
2346.659230	-2.999600	3.203100	-9.606300	27.275722	0.000343	20.864014
2347.658255	-3.005900	3.201900	-9.622800	27.290409	0.000341	20.862666
2348.677272	-2.966000	3.203100	-9.499700	27.252497	0.000340	20.864360
2349.679003	-2.982100	3.202000	-9.547500	27.241930	0.000343	20.870800
2350.663934	-2.999900	3.202200	-9.605600	27.188833	0.000340	20.858646
2351.659451	-3.006000	3.201600	-9.623100	27.182082	0.000339	20.855649
2352.662569	-3.011800	3.199200	-9.634500	27.210244	0.000338	20.859792
2353.681062	-3.010900	3.198600	-9.629600	27.221754	0.000338	20.855723
2354.659997	-3.009100	3.200100	-9.627700	27.228009	0.000336	20.858696
2355.688455	-3.010400	3.198300	-9.627800	27.174391	0.000338	20.870673
2356.659799	-3.001200	3.197900	-9.596800	27.144195	0.000337	20.853105
2357.682817	-3.001600	3.198900	-9.600400	27.154194	0.000336	20.846566
2358.683774	-3.019500	3.197500	-9.653900	27.174367	0.000335	20.858321
2359.692216	-2.991100	3.196400	-9.558900	27.171067	0.000333	20.834140
2360.686553	-3.019000	3.194900	-9.643900	27.213047	0.000336	20.839854
2361.676342	-3.006200	3.197800	-9.612400	27.209674	0.000333	20.863012
2362.692118	-3.001600	3.195100	-9.589400	27.194933	0.000333	20.847712
2363.685109	-3.022300	3.193300	-9.650000	27.223693	0.000332	20.861940
2364.688678	-2.992800	3.194200	-9.558600	27.225726	0.000332	20.862089
2365.688323	-3.010800	3.194400	-9.617200	27.271578	0.000332	20.847044
2366.697520	-3.005900	3.193400	-9.597700	27.258699	0.000333	20.852107
2367.687107	-3.012100	3.191700	-9.613300	27.212506	0.000332	20.860646
2368.686782	-3.010600	3.191900	-9.608400	27.188862	0.000332	20.838761
2369.686044	-3.003300	3.192600	-9.587900	27.139214	0.000332	20.835294
2370.685893	-2.987800	3.192900	-9.538400	27.123210	0.000330	20.844327
2371.669568	-2.979500	3.190700	-9.505100	27.124723	0.000329	20.834944
2372.670749	-2.990400	3.189700	-9.537500	27.097854	0.000330	20.832103
2373.666809	-3.009800	3.190700	-9.602500	27.082050	0.000329	20.845131
2374.668036	-3.018300	3.188800	-9.623800	27.094435	0.000326	20.843837
2375.670456	-2.980700	3.189800	-9.507300	27.135103	0.000327	20.841590
2376.668677	-3.028400	3.186800	-9.649700	27.129126	0.000327	20.843639
2377.671269	-2.999000	3.188200	-9.560100	27.091434	0.000325	20.826121
2378.668394	-3.004200	3.186200	-9.570600	27.079279	0.000324	20.828594
2379.669961	-2.992700	3.186800	-9.536600	27.073051	0.000327	20.846038
2380.688933	-2.982000	3.187000	-9.502700	27.074092	0.000323	20.842818
2381.694471	-3.005500	3.185800	-9.573900	27.075261	0.000323	20.852054
2382.686302	-2.980300	3.184900	-9.491500	27.062654	0.000325	20.827522
2383.693069	-2.985500	3.185100	-9.508400	27.109481	0.000325	20.839528
2384.709522	-3.008400	3.184400	-9.578900	27.093254	0.000323	20.848813
2385.695006	-2.985400	3.184300	-9.506000	27.122710	0.000322	20.839557
2386.695559	-2.993800	3.183400	-9.529000	27.160101	0.000322	20.840180
2387.704982	-3.015300	3.182900	-9.596000	27.149680	0.000321	20.833018
2388.693662	-3.016100	3.183600	-9.600400	27.139780	0.000321	20.819742
2389.705221	-3.005000	3.181200	-9.558900	27.167546	0.000322	20.850038
2390.696606	-2.997400	3.180900	-9.533000	27.199705	0.000321	20.832124
2391.701300	-2.970800	3.182800	-9.454300	27.189977	0.000319	20.827081
2392.698430	-2.988400	3.180400	-9.503600	27.195339	0.000321	20.818250
2393.696797	-3.027800	3.180500	-9.628200	27.167771	0.000317	20.812333
2394.674736	-2.998600	3.180300	-9.534900	27.177204	0.000317	20.809018
2395.697880	-2.994100	3.179400	-9.517400	27.213949	0.000318	20.809942
2396.698860	-3.029300	3.178400	-9.626000	27.212260	0.000318	20.826735
2397.702527	-2.999100	3.178000	-9.529700	27.213257	0.000316	20.809245
2398.680112	-3.042600	3.177900	-9.668200	27.249550	0.000316	20.825836
2399.679498	-2.998100	3.175900	-9.520600	27.259999	0.000316	20.825914
2400.681544	-2.995400	3.175400	-9.510400	27.272078	0.000317	20.830004
2401.684248	-2.986900	3.175600	-9.484500	27.263147	0.000316	20.817701
2402.689518	-3.016500	3.175900	-9.579300	27.216704	0.000314	20.820299
2403.682374	-3.011000	3.174300	-9.556300	27.156387	0.000313	20.816531
2404.678796	-2.975700	3.174500	-9.445000	27.120386	0.000315	20.832478
2405.680525	-3.000500	3.173500	-9.521100	27.123161	0.000314	20.833847
2406.678872	-2.995100	3.173100	-9.502400	27.129614	0.000315	20.834173
2407.681393	-3.031200	3.171400	-9.611500	27.141674	0.000314	20.831604
2408.682041	-3.004100	3.171400	-9.526400	27.126359	0.000313	20.817623
2409.681755	-3.023700	3.171900	-9.590400	27.095763	0.000312	20.820517
2410.683358	-3.011200	3.171300	-9.548900	27.118123	0.000312	20.822142
2411.682667	-3.011900	3.170200	-9.545900	27.108468	0.000311	20.830924
2412.680350	-3.031400	3.169900	-9.607900	27.130356	0.000312	20.816902
2413.686299	-2.992700	3.170200	-9.486700	27.182709	0.000310	20.815030
2414.699401	-2.978800	3.168800	-9.436700	27.191391	0.000311	20.808590
2415.703122	-3.007400	3.167700	-9.524800	27.187866	0.000311	20.812630
2416.701785	-2.995400	3.167300	-9.486600	27.209424	0.000308	20.805864
2417.707942	-2.990500	3.169100	-9.476300	27.178934	0.000309	20.805069
2418.699155	-2.982700	3.167100	-9.445000	27.209871	0.000310	20.809159
2419.708144	-3.003800	3.166700	-9.510700	27.193125	0.000309	20.823136
2420.700410	-3.016700	3.166100	-9.550000	27.145536	0.000308	20.811781
2421.702226	-2.993500	3.164800	-9.472700	27.168312	0.000309	20.800550
2422.713316	-2.996800	3.164500	-9.482800	27.197118	0.000309	20.806289
2423.683605	-3.003500	3.162000	-9.496300	27.243885	0.000308	20.815871
2424.698656	-2.986400	3.163000	-9.444200	27.272213	0.000306	20.822080
2425.701551	-3.009700	3.160600	-9.510900	27.265864	0.000306	20.810004
2426.701363	-3.006200	3.161700	-9.503500	27.255789	0.000306	20.809826
2427.701966	-3.001100	3.159800	-9.481000	27.262839	0.000304	20.795581
2428.703466	-2.999500	3.159900	-9.477700	27.262540	0.000304	20.809505
2429.697795	-3.005700	3.159100	-9.494400	27.261027	0.000302	20.802768
2430.697474	-3.017200	3.158700	-9.529300	27.266065	0.000305	20.793610
2431.709101	-3.001300	3.159000	-9.479900	27.288421	0.000303	20.777217
2432.708538	-2.996000	3.157300	-9.457900	27.290999	0.000301	20.799725
2433.682158	-3.030300	3.156700	-9.564100	27.307226	0.000301	20.811781
2434.714206	-3.004500	3.156100	-9.481000	27.326503	0.000302	20.798929
2435.705027	-2.972200	3.156800	-9.381400	27.273513	0.000300	20.802525
2436.707611	-2.987300	3.156700	-9.429100	27.298221	0.000301	20.790869
2437.704053	-3.026000	3.155100	-9.545600	27.233695	0.000299	20.789974
2438.710578	-2.998900	3.155000	-9.460800	27.182984	0.000300	20.798711
2439.699844	-3.031000	3.152800	-9.555000	27.131126	0.000299	20.821470
2440.704823	-2.987900	3.153300	-9.420900	27.088003	0.000298	20.783789
2441.703510	-3.021300	3.150600	-9.518000	27.102069	0.000299	20.796039
2442.706693	-3.002900	3.151300	-9.461500	27.153882	0.000299	20.784140
2443.709499	-2.995400	3.151000	-9.436700	27.180360	0.000297	20.777106
2444.706531	-3.024500	3.149200	-9.522800	27.223037	0.000299	20.810548
2445.707838	-2.991200	3.149800	-9.419600	27.246410	0.000296	20.782849
2446.718560	-2.996300	3.148600	-9.433000	27.247853	0.000295	20.794258
2447.705215	-2.995500	3.148300	-9.429800	27.256662	0.000295	20.796006
2448.709706	-2.984900	3.149100	-9.399000	27.255965	0.000296	20.790090
2449.708725	-2.968400	3.146500	-9.338900	27.293729	0.000297	20.803894
2450.688675	-2.990800	3.146100	-9.408800	27.314891	0.000296	20.810008
2451.723422	-2.987100	3.144800	-9.393400	27.316834	0.000295	20.783039
2452.709167	-3.006700	3.145100	-9.455100	27.314026	0.000294	20.778318
2453.705073	-3.007300	3.143300	-9.451100	27.329286	0.000292	20.771857
2454.693101	-3.003000	3.143300	-9.438400	27.367691	0.000296	20.785360
2455.690096	-3.021200	3.142000	-9.491900	27.375187	0.000295	20.771090
2456.689810	-2.969700	3.143700	-9.335200	27.349538	0.000295	20.788436
2457.690843	-2.985400	3.140300	-9.374200	27.369531	0.000293	20.773461
2458.691778	-3.014200	3.140000	-9.462600	27.331680	0.000292	20.766204
2459.690845	-2.964900	3.140400	-9.310100	27.307095	0.000292	20.779407
2460.693841	-2.978100	3.140500	-9.351200	27.313994	0.000292	20.784924
2461.691709	-2.994400	3.138300	-9.396400	27.297795	0.000293	20.772896
2462.693249	-3.004800	3.137500	-9.426500	27.321593	0.000292	20.762222
2463.691248	-2.995800	3.136600	-9.395900	27.339205	0.000291	20.784680
2464.696640	-3.007500	3.136000	-9.429800	27.296492	0.000288	20.746929
2465.691579	-2.967200	3.137100	-9.307700	27.295324	0.000292	20.772781
2466.690033	-2.989400	3.136000	-9.372600	27.235434	0.000292	20.777498
2467.693877	-3.015400	3.134200	-9.449900	27.201271	0.000290	20.770163
2468.694139	-2.983500	3.132600	-9.345600	27.197082	0.000290	20.787286
2469.692090	-3.009700	3.131900	-9.424700	27.206362	0.000291	20.773862
2470.692750	-3.007100	3.131800	-9.416400	27.235540	0.000291	20.772390
2471.693556	-2.975200	3.131600	-9.315100	27.228670	0.000290	20.793929
2472.694705	-3.016000	3.129800	-9.438200	27.221525	0.000289	20.778682
2473.699397	-3.009200	3.129100	-9.415000	27.274395	0.000289	20.780178
2474.698099	-2.988600	3.127800	-9.347000	27.288065	0.000288	20.769747
2475.693955	-2.991700	3.127400	-9.355000	27.298710	0.000287	20.784722
2476.713943	-3.001600	3.127300	-9.386300	27.298415	0.000290	20.761665
2477.700638	-3.001000	3.125700	-9.379600	27.338775	0.000290	20.753901
2478.697001	-3.005100	3.125500	-9.391700	27.365867	0.000290	20.763612
2479.698843	-2.994600	3.124900	-9.356300	27.343940	0.000286	20.769528
2480.703319	-2.995800	3.124600	-9.359100	27.320339	0.000287	20.771392
2481.719024	-3.001800	3.124700	-9.379300	27.305957	0.000287	20.755501
2482.717071	-2.998100	3.122200	-9.359800	27.283700	0.000287	20.764407
2483.719223	-3.007900	3.121000	-9.386200	27.261123	0.000288	20.761138
2484.718022	-3.008000	3.120900	-9.384900	27.235991	0.000286	20.760515
2485.699637	-2.992700	3.120000	-9.336700	27.259114	0.000285	20.762436
2486.705342	-3.023800	3.117900	-9.426800	27.252982	0.000284	20.755794
2487.697716	-3.007400	3.117900	-9.376200	27.235889	0.000286	20.766102
2488.703990	-3.009300	3.117700	-9.380500	27.209064	0.000284	20.754293
2489.704209	-2.991000	3.116600	-9.320700	27.200730	0.000287	20.766774
2490.701758	-2.967600	3.116500	-9.247400	27.222489	0.000285	20.769693
2491.699781	-3.005700	3.115100	-9.362400	27.228814	0.000283	20.762304
2492.699774	-2.993100	3.114400	-9.321000	27.267345	0.000283	20.751275
2493.737575	-3.006000	3.112700	-9.356100	27.278801	0.000285	20.758057
2494.701071	-2.995700	3.111300	-9.319900	27.270021	0.000284	20.762028
2495.698751	-2.997700	3.112400	-9.329300	27.283392	0.000284	20.737070
2496.705446	-3.002000	3.109300	-9.332800	27.311428	0.000283	20.770963
2497.701516	-2.978600	3.110000	-9.262900	27.386860	0.000281	20.763393
2498.702862	-2.993100	3.110400	-9.308000	27.409287	0.000282	20.755608
2499.726668	-3.009700	3.107300	-9.350500	27.411791	0.000284	20.757179
2500.741517	-3.021700	3.106100	-9.385100	27.433270	0.000282	20.756029
2501.730142	-2.995200	3.108400	-9.309500	27.453909	0.000280	20.746446
2502.717360	-2.986400	3.107600	-9.279500	27.457376	0.000284	20.738080
2503.720490	-2.971100	3.105300	-9.224900	27.462208	0.000281	20.751476
2504.725104	-2.985100	3.104700	-9.266500	27.483965	0.000279	20.772418
2505.724368	-3.000600	3.103000	-9.309900	27.511492	0.000281	20.766922
2506.726083	-2.975800	3.103500	-9.234400	27.511050	0.000280	20.762209
2507.721690	-2.990400	3.101600	-9.274500	27.522106	0.000280	20.754841
2508.724237	-2.983900	3.101300	-9.253000	27.505960	0.000281	20.761830
2509.718223	-2.994800	3.100600	-9.284000	27.459991	0.000279	20.749246
2510.701512	-3.002900	3.098300	-9.303200	27.407032	0.000281	20.767565
2511.728097	-2.989200	3.097500	-9.258700	27.413979	0.000282	20.754165
2512.721525	-3.011200	3.097000	-9.323200	27.422684	0.000279	20.768138
2513.726126	-2.995100	3.096500	-9.273400	27.483629	0.000280	20.759277
2514.733329	-3.006600	3.093900	-9.300500	27.513394	0.000282	20.750342
2515.728551	-3.018500	3.092200	-9.332600	27.578624	0.000281	20.763343
2516.729732	-2.993200	3.093100	-9.256800	27.580628	0.000281	20.777213
2517.728026	-2.979200	3.094000	-9.216000	27.596482	0.000280	20.768035
2518.722474	-3.022800	3.091500	-9.343900	27.590303	0.000278	20.746169
2519.731640	-3.003400	3.090900	-9.282900	27.605280	0.000279	20.761240
2520.731143	-2.979000	3.090200	-9.205100	27.645854	0.000279	20.748961
2521.710713	-2.993700	3.088000	-9.243500	27.683595	0.000279	20.771766
2522.739574	-3.016600	3.090300	-9.320300	27.686447	0.000279	20.749505
2523.737063	-2.992300	3.086900	-9.235100	27.623104	0.000279	20.765425
2524.733492	-2.984100	3.087300	-9.211400	27.598822	0.000279	20.766596
2525.735778	-3.009700	3.084300	-9.281900	27.570699	0.000279	20.780973
2526.733439	-3.004500	3.083100	-9.261900	27.585225	0.000276	20.774252
2527.735260	-3.020000	3.083600	-9.310000	27.597428	0.000278	20.765194
2528.747184	-2.983800	3.083100	-9.198100	27.608836	0.000277	20.769086
2529.729947	-3.001400	3.081700	-9.248400	27.655807	0.000276	20.775098
2530.741621	-2.987000	3.082300	-9.205000	27.685365	0.000277	20.755529
2531.737858	-2.985700	3.078300	-9.188600	27.703963	0.000275	20.770925
2532.734284	-3.023300	3.077000	-9.301900	27.730993	0.000277	20.759244
2533.733319	-3.004700	3.077800	-9.247000	27.772828	0.000275	20.769577
2534.733931	-2.985600	3.076100	-9.182800	27.772730	0.000275	20.774694
2535.729709	-2.996900	3.075300	-9.215800	27.798738	0.000276	20.762934
2536.727246	-2.986000	3.075500	-9.183100	27.799110	0.000276	20.772793
2537.731185	-3.018800	3.072600	-9.274100	27.784283	0.000276	20.767829
2538.744642	-3.007700	3.072700	-9.240600	27.774139	0.000275	20.783224
2539.733374	-2.974000	3.072900	-9.137500	27.768039	0.000277	20.772343
2540.733294	-3.032700	3.070100	-9.309300	27.702570	0.000275	20.761462
2541.716895	-2.996500	3.071300	-9.201600	27.686873	0.000278	20.775539
2542.734862	-3.006600	3.067800	-9.222100	27.674397	0.000276	20.762035
2543.717513	-3.019300	3.066500	-9.257300	27.641785	0.000277	20.771420
2544.735133	-2.993800	3.066600	-9.179400	27.645153	0.000275	20.767697
2545.749687	-2.962400	3.066900	-9.083600	27.668841	0.000277	20.764505
2546.737004	-2.986300	3.063900	-9.148200	27.705545	0.000274	20.791009
2547.739094	-3.013300	3.064300	-9.233200	27.714497	0.000275	20.757817
2548.715572	-2.978400	3.062000	-9.118500	27.718414	0.000275	20.751802
2549.720595	-2.982000	3.062200	-9.130400	27.704627	0.000275	20.764955
2550.753150	-3.014300	3.058600	-9.219200	27.698006	0.000275	20.770146
2551.736069	-2.987700	3.060500	-9.143100	27.707282	0.000274	20.748186
2552.737289	-2.982000	3.059300	-9.122400	27.737487	0.000272	20.774314
2553.746048	-2.968600	3.058000	-9.076100	27.780313	0.000274	20.749608
2554.733469	-2.999500	3.055900	-9.165200	27.776319	0.000273	20.782099
2555.752213	-3.005800	3.053400	-9.177200	27.727096	0.000273	20.764332
2556.720998	-2.990000	3.054500	-9.131400	27.671320	0.000272	20.749456
2557.721120	-2.996700	3.051700	-9.143900	27.686173	0.000273	20.791429
2558.718107	-3.002000	3.051100	-9.158400	27.714194	0.000273	20.773160
2559.720108	-2.999700	3.051400	-9.151000	27.732673	0.000275	20.777530
2560.721298	-3.028900	3.048200	-9.231900	27.773164	0.000273	20.756164
2561.740573	-3.017000	3.048000	-9.194700	27.827694	0.000275	20.772162
2562.719398	-3.031500	3.046500	-9.234300	27.838502	0.000272	20.761701
2563.744646	-3.002700	3.047300	-9.149000	27.882914	0.000273	20.776528
2564.722207	-3.013200	3.044600	-9.173000	27.904380	0.000270	20.788650
2565.721509	-2.989300	3.043900	-9.098300	27.875593	0.000273	20.792868
2566.722093	-2.999200	3.043500	-9.126500	27.839366	0.000274	20.779641
2567.722480	-2.992800	3.041800	-9.103100	27.809189	0.000276	20.751167
2568.742960	-3.038500	3.040100	-9.236400	27.823716	0.000274	20.780487
2569.743311	-2.950600	3.041900	-8.973700	27.851484	0.000274	20.777613
2570.748271	-2.996000	3.037700	-9.099800	27.875069	0.000274	20.770529
2571.742045	-3.039600	3.034900	-9.223800	27.876998	0.000275	20.783377
2572.747586	-3.009900	3.035300	-9.133800	27.870943	0.000275	20.760213
2573.731091	-3.016600	3.033700	-9.149700	27.860800	0.000274	20.777506
2574.722789	-3.012900	3.033300	-9.137800	27.876638	0.000272	20.785859
2575.722044	-3.020900	3.031400	-9.156400	27.900738	0.000274	20.769812
2576.723598	-2.983600	3.033000	-9.048300	27.921216	0.000275	20.799907
2577.723103	-2.999200	3.029800	-9.086100	27.891607	0.000273	20.789071
2578.742183	-3.024300	3.028300	-9.157200	27.879456	0.000273	20.810507
2579.743679	-3.005400	3.027600	-9.098600	27.873402	0.000273	20.791611
2580.747739	-3.002900	3.027700	-9.091700	27.884532	0.000273	20.788589
2581.745703	-3.003600	3.024800	-9.084700	27.893704	0.000272	20.795924
2582.744161	-2.978600	3.025800	-9.011500	27.894118	0.000274	20.756985
2583.749137	-2.984900	3.025000	-9.028200	27.889059	0.000273	20.784136
2584.749708	-2.994500	3.022000	-9.049200	27.883750	0.000272	20.805345
2585.742776	-2.987900	3.020800	-9.024700	27.894036	0.000271	20.777766
2586.739769	-2.991200	3.019700	-9.031700	27.918108	0.000272	20.805786
2587.742054	-2.961100	3.020500	-8.942700	27.891476	0.000273	20.785621
2588.750138	-2.979200	3.017900	-8.989800	27.868310	0.000271	20.805453
2589.745709	-3.009500	3.016000	-9.074900	27.880309	0.000273	20.786709
2590.744231	-2.994100	3.015200	-9.026800	27.899674	0.000273	20.802880
2591.743189	-3.004900	3.013600	-9.054600	27.944079	0.000275	20.802055
2592.757038	-3.002500	3.013000	-9.044800	27.995246	0.000271	20.810409
2593.752630	-2.973400	3.012400	-8.956800	27.993730	0.000271	20.800349
2594.728010	-3.014400	3.009700	-9.072000	28.040831	0.000274	20.807457
2595.728850	-2.989200	3.008800	-8.993100	28.085751	0.000272	20.801466
2596.727199	-2.997700	3.007600	-9.015100	28.054119	0.000270	20.807556
2597.732828	-2.967300	3.006000	-8.918900	28.050842	0.000272	20.809473
2598.733069	-3.010100	3.005600	-9.046600	28.067177	0.000274	20.816907
2599.732757	-2.993200	3.004600	-8.993100	28.068835	0.000270	20.814784
2600.758566	-3.000000	3.003100	-9.008600	28.055868	0.000271	20.817377
2601.753350	-3.017000	3.000300	-9.051300	28.055225	0.000272	20.806773
2602.751942	-2.998100	2.999200	-8.991300	28.087254	0.000272	20.829532
2603.742981	-2.993400	2.998600	-8.974700	28.102102	0.000271	20.807020
2604.747332	-2.990500	2.998500	-8.966100	28.139803	0.000274	20.818895
2605.752029	-2.996400	2.995600	-8.975100	28.154330	0.000272	20.824036
2606.748120	-2.979600	2.996400	-8.926700	28.196493	0.000274	20.812904
2607.750265	-3.017000	2.993300	-9.029300	28.158393	0.000273	20.778340
2608.752943	-2.971100	2.993300	-8.892500	28.109229	0.000271	20.821781
2609.749344	-2.984800	2.992000	-8.929800	28.044207	0.000272	20.810381
2610.746723	-2.984800	2.992600	-8.931600	28.014748	0.000272	20.797323
2611.746026	-3.062100	2.985600	-9.140100	28.015019	0.000272	20.808501
2612.745886	-3.001500	2.987000	-8.964900	28.014871	0.000272	20.820206
2613.751224	-3.014500	2.985800	-8.999700	27.998086	0.000272	20.820379
2614.750030	-2.991500	2.984000	-8.926300	28.051060	0.000273	20.826762
2615.750902	-3.006400	2.983200	-8.967400	28.044592	0.000272	20.815036
2616.750821	-2.996100	2.981800	-8.932500	28.022028	0.000271	20.823616
2617.761293	-3.001900	2.979500	-8.942900	28.016596	0.000270	20.824787
2618.758754	-2.999600	2.978700	-8.934200	27.946379	0.000271	20.817172
2619.730256	-2.992400	2.978700	-8.912700	27.969163	0.000270	20.830621
2620.734041	-3.004700	2.976000	-8.939900	27.949029	0.000273	20.820314
2621.733024	-3.008500	2.975100	-8.950000	28.008535	0.000271	20.824734
2622.733558	-3.019700	2.973800	-8.978700	28.027201	0.000271	20.822660
2623.733630	-2.981200	2.972600	-8.860800	28.039567	0.000270	20.828943
2624.730317	-3.012500	2.969600	-8.944800	28.066764	0.000269	20.820759
2625.748172	-2.989400	2.970200	-8.877800	28.046829	0.000271	20.824400
2626.753988	-3.006000	2.967600	-8.919700	28.005722	0.000271	20.819531
2627.756915	-2.992700	2.968200	-8.881100	27.961167	0.000271	20.845332
2628.759216	-2.989900	2.966000	-8.867300	27.937093	0.000272	20.847179
2629.752418	-2.996800	2.965000	-8.884300	27.960893	0.000271	20.832255
2630.759652	-3.019400	2.961800	-8.942200	27.929871	0.000270	20.822368
2631.753468	-3.032700	2.960000	-8.974800	27.918069	0.000270	20.838464
2632.743584	-2.999500	2.959700	-8.875600	27.882688	0.000271	20.836518
2633.757577	-3.019500	2.957100	-8.927200	27.880922	0.000269	20.845172
2634.735433	-3.003900	2.956400	-8.879900	27.878268	0.000270	20.833966
2635.734854	-3.007500	2.956300	-8.890200	27.908320	0.000270	20.852358
2636.735783	-2.999700	2.952100	-8.854200	27.946749	0.000269	20.848837
2637.735560	-2.997800	2.952700	-8.849800	27.986565	0.000269	20.829645
2638.734854	-3.014000	2.950600	-8.892200	28.019735	0.000268	20.830792
2639.738564	-3.013700	2.948600	-8.884900	28.040683	0.000269	20.831014
2640.738257	-3.011700	2.947900	-8.877300	28.031753	0.000268	20.843363
2641.740167	-2.975600	2.948600	-8.773000	28.030885	0.000270	20.843911
2642.740411	-2.990200	2.945900	-8.807300	28.070480	0.000269	20.840147
2643.739307	-2.977600	2.943000	-8.761800	28.081581	0.000270	20.846579
2644.739448	-2.991900	2.940600	-8.797200	28.100196	0.000269	20.840188
2645.740986	-3.006700	2.940600	-8.840300	28.123501	0.000268	20.840889
2646.743066	-2.979900	2.939700	-8.758800	28.115019	0.000270	20.832825
2647.740504	-2.976400	2.937600	-8.741500	28.083432	0.000271	20.831374
2648.740525	-3.001300	2.934700	-8.807200	28.087078	0.000270	20.841681
2649.738839	-3.008200	2.934200	-8.825700	28.065407	0.000272	20.856375
2650.743166	-2.986900	2.932400	-8.758300	28.075716	0.000272	20.854425
2651.742444	-2.971400	2.932200	-8.712300	28.113594	0.000270	20.850356
2652.742070	-2.975600	2.931400	-8.720500	28.144655	0.000271	20.848909
2653.741069	-2.974600	2.928700	-8.711000	28.131763	0.000271	20.844939
2654.760685	-3.014700	2.925700	-8.819600	28.175782	0.000272	20.866019
2655.777263	-3.007000	2.925500	-8.795800	28.167403	0.000271	20.845731
2656.760209	-2.962300	2.923900	-8.660100	28.173026	0.000273	20.873202
2657.761045	-2.984600	2.921200	-8.717500	28.197144	0.000271	20.869033
2658.745058	-2.977600	2.920700	-8.696400	28.202395	0.000270	20.851561
2659.742095	-3.025100	2.917300	-8.824300	28.186926	0.000270	20.826506
2660.741608	-3.010600	2.916600	-8.780000	28.113124	0.000270	20.863633
2661.745095	-2.983300	2.914200	-8.693000	28.084143	0.000270	20.868597
2662.741906	-3.013300	2.913000	-8.776300	28.107346	0.000271	20.848333
2663.745299	-2.989700	2.911900	-8.705000	28.090414	0.000268	20.863056
2664.741961	-3.000000	2.910500	-8.730600	28.074641	0.000271	20.857136
2665.745752	-3.002500	2.909000	-8.733000	28.066630	0.000270	20.857132
2666.762209	-3.057100	2.906100	-8.883600	28.076370	0.000270	20.870256
2667.773653	-3.012500	2.905300	-8.751000	28.136655	0.000272	20.847019
2668.767565	-2.984200	2.904300	-8.666200	28.179044	0.000271	20.899647
2669.765337	-3.004500	2.901500	-8.717100	28.183996	0.000271	20.868599
2670.759644	-3.012000	2.900100	-8.733800	28.174892	0.000270	20.864176
2671.763947	-3.003900	2.899000	-8.706000	28.200947	0.000269	20.880922
2672.764688	-3.005800	2.896600	-8.705200	28.244845	0.000268	20.873909
2673.766530	-3.015900	2.894600	-8.728800	28.250787	0.000268	20.885581
2674.756823	-2.998400	2.892800	-8.672800	28.275694	0.000270	20.863244
2675.769675	-3.007000	2.892600	-8.697000	28.280617	0.000269	20.873890
2676.770037	-3.007600	2.890700	-8.693000	28.298614	0.000269	20.873045
2677.768452	-3.010000	2.888000	-8.691900	28.278807	0.000269	20.889136
2678.762771	-3.014400	2.885400	-8.696900	28.277988	0.000271	20.884993
2679.769780	-3.005000	2.883200	-8.662800	28.291641	0.000268	20.875981
2680.767110	-3.021000	2.881000	-8.702400	28.274688	0.000270	20.876929
2681.762304	-3.011400	2.879700	-8.670000	28.248631	0.000271	20.885781
2682.771158	-3.001900	2.879600	-8.643100	28.247039	0.000267	20.903617
2683.766249	-2.971000	2.877800	-8.548900	28.252616	0.000269	20.896905
2684.763351	-3.010100	2.874100	-8.650200	28.253259	0.000269	20.878588
2685.765287	-3.025700	2.872600	-8.690500	28.235286	0.000267	20.882777
2686.766501	-2.990800	2.871800	-8.588100	28.240319	0.000270	20.888318
2687.745288	-3.006000	2.869300	-8.622600	28.238329	0.000270	20.886315
2688.771115	-3.022100	2.866700	-8.662600	28.257040	0.000269	20.886187
2689.771223	-3.011500	2.866300	-8.629400	28.291545	0.000268	20.894849
2690.764137	-2.981500	2.863900	-8.537400	28.313527	0.000268	20.893748
2691.766657	-3.019100	2.861000	-8.637400	28.324506	0.000268	20.891052
2692.776943	-3.029600	2.860200	-8.662300	28.311095	0.000267	20.871387
2693.763882	-2.986900	2.856800	-8.531300	28.278028	0.000267	20.903998
2694.768691	-2.993300	2.855300	-8.545900	28.278896	0.000268	20.874054
2695.745441	-2.997900	2.852300	-8.550400	28.317709	0.000268	20.901751
2696.746596	-2.973200	2.852000	-8.478500	28.353424	0.000270	20.900729
2697.747594	-2.969600	2.850900	-8.464600	28.365295	0.000269	20.891819
2698.774303	-3.030100	2.845900	-8.621000	28.382496	0.000268	20.905346
2699.772569	-3.002600	2.845800	-8.543000	28.406213	0.000268	20.886080
2700.766473	-2.992100	2.842600	-8.504800	28.370225	0.000268	20.894887
2701.779249	-2.998200	2.841000	-8.516600	28.357265	0.000268	20.895113
2702.776001	-3.006300	2.837200	-8.528200	28.391120	0.000267	20.901227
2703.746657	-2.989300	2.836100	-8.476500	28.393892	0.000267	20.903545
2704.774757	-2.975300	2.834900	-8.432500	28.413497	0.000268	20.908112
2705.775260	-2.993100	2.831600	-8.474300	28.436443	0.000268	20.891391
2706.751480	-3.000000	2.829700	-8.487800	28.450446	0.000268	20.900275
2707.774884	-3.016700	2.827400	-8.527900	28.445491	0.000268	20.926578
2708.767805	-3.029400	2.823500	-8.551600	28.414783	0.000266	20.891391
2709.770983	-2.982900	2.825500	-8.426500	28.381375	0.000268	20.927448
2710.770282	-2.989600	2.820600	-8.431200	28.336967	0.000268	20.895538
2711.771929	-3.021500	2.816800	-8.510100	28.335796	0.000267	20.909057
2712.780051	-2.969800	2.818400	-8.369200	28.330247	0.000268	20.898255
2713.769981	-3.012300	2.814800	-8.478200	28.343728	0.000268	20.903767
2714.773203	-3.031700	2.810100	-8.518700	28.386084	0.000269	20.912751
2715.767520	-2.997600	2.810500	-8.424000	28.433540	0.000268	20.904588
2716.774946	-3.006100	2.806100	-8.434300	28.410938	0.000268	20.899847
2717.772637	-3.016000	2.803700	-8.454700	28.382510	0.000270	20.925746
2718.775054	-2.997800	2.802500	-8.400400	28.379386	0.000270	20.915963
2719.801367	-2.971200	2.801700	-8.323600	28.379533	0.000270	20.925119
2720.775564	-3.006100	2.797300	-8.408100	28.439261	0.000269	20.921252
2721.782871	-2.993600	2.795400	-8.367100	28.473433	0.000270	20.917732
2722.789617	-2.995800	2.793300	-8.366700	28.511518	0.000270	20.895870
2723.772737	-2.999800	2.788100	-8.362100	28.547030	0.000271	20.933052
2724.750710	-2.990200	2.787300	-8.333300	28.527276	0.000270	20.918850
2725.751928	-2.987500	2.785300	-8.320300	28.486981	0.000270	20.907195
2726.752374	-2.986900	2.781000	-8.305800	28.469605	0.000270	20.919093
2727.753429	-3.006700	2.779200	-8.355300	28.458277	0.000271	20.909583
2728.772844	-3.007400	2.776200	-8.348400	28.513783	0.000269	20.926123
2729.769754	-2.997900	2.773700	-8.314800	28.552988	0.000268	20.935733
2730.773238	-2.991300	2.770200	-8.284900	28.578190	0.000269	20.925080
2731.772675	-2.987100	2.769700	-8.272700	28.562274	0.000269	20.947928
2732.770120	-2.963000	2.766100	-8.194800	28.537050	0.000269	20.923951
2733.769442	-3.034000	2.760200	-8.373100	28.556023	0.000271	20.930255
2734.779922	-2.979900	2.759700	-8.222700	28.540658	0.000269	20.938014
2735.778672	-3.009300	2.756300	-8.293600	28.576559	0.000269	20.922015
2736.782601	-3.009100	2.752500	-8.281400	28.571236	0.000267	20.921396
2737.774018	-3.003200	2.749000	-8.254900	28.556760	0.000270	20.925309
2738.776197	-3.036600	2.746100	-8.337800	28.580002	0.000268	20.930223
2739.780256	-2.984400	2.744300	-8.189300	28.629459	0.000270	20.934041
2740.790432	-3.019700	2.739900	-8.272500	28.627249	0.000268	20.930393
2741.789190	-2.979300	2.738400	-8.157500	28.664784	0.000269	20.924576
2742.782382	-2.994400	2.734300	-8.185300	28.617085	0.000270	20.939121
2743.756677	-3.009100	2.731700	-8.218000	28.536771	0.000271	20.933152
2744.761941	-2.998500	2.728800	-8.181400	28.557290	0.000270	20.941013
2745.756648	-3.012000	2.724900	-8.204900	28.534192	0.000268	20.931029
2746.756635	-3.003100	2.721400	-8.170200	28.548960	0.000268	20.952062
2747.756608	-3.013500	2.717300	-8.187600	28.551212	0.000269	20.926833
2748.761367	-2.997900	2.715000	-8.138400	28.552231	0.000267	20.909843
2749.757675	-3.005600	2.711300	-8.148100	28.600220	0.000269	20.935412
2750.757504	-3.025000	2.707800	-8.189500	28.667071	0.000270	20.914078
2751.759841	-3.002100	2.703600	-8.115000	28.686245	0.000269	20.900201
2752.762463	-3.016800	2.701200	-8.147900	28.725313	0.000269	20.928170
2753.780723	-3.009700	2.697000	-8.115900	28.756873	0.000270	20.923924
2754.775006	-3.017800	2.692200	-8.123500	28.755158	0.000267	20.922197
2755.780989	-2.995900	2.691000	-8.060700	28.759149	0.000270	20.914364
2756.783672	-2.976100	2.687300	-7.996600	28.748983	0.000269	20.915503
2757.778389	-2.981400	2.683800	-8.000500	28.742073	0.000271	20.919448
2758.774263	-3.011800	2.678000	-8.064600	28.738974	0.000267	20.908267
2759.779458	-2.980400	2.674900	-7.970800	28.770358	0.000268	20.919964
2760.758610	-2.943400	2.672300	-7.865100	28.781184	0.000269	20.890095
2761.784358	-2.999800	2.666600	-7.997400	28.775135	0.000269	20.909130
2762.775137	-3.007800	2.662200	-8.006800	28.782565	0.000268	20.894804
2763.783185	-3.017600	2.657400	-8.018500	28.809866	0.000270	20.913295
2764.765182	-3.021000	2.654100	-8.017500	28.801835	0.000267	20.904258
2765.761453	-2.997800	2.651100	-7.946900	28.787093	0.000269	20.917855
2766.761328	-3.043900	2.644500	-8.047800	28.783917	0.000267	20.914657
2767.763040	-2.997900	2.641700	-7.918000	28.780299	0.000270	20.914805
2768.764867	-2.996400	2.636900	-7.900600	28.756412	0.000269	20.901650
2769.783553	-2.991900	2.633400	-7.877300	28.719073	0.000270	20.930419
2770.786468	-2.988000	2.629000	-7.854500	28.736908	0.000270	20.909505
2771.787893	-2.988500	2.624400	-7.841900	28.713691	0.000269	20.915990
2772.785911	-2.992100	2.618500	-7.833700	28.710761	0.000269	20.899764
2773.764680	-3.024700	2.612900	-7.902400	28.739824	0.000271	20.898218
2774.766615	-3.014300	2.608300	-7.861400	28.723840	0.000268	20.914833
2775.765016	-2.998700	2.603800	-7.807300	28.700078	0.000269	20.927882
2776.766141	-2.999900	2.598100	-7.791500	28.736223	0.000271	20.913082
2777.776155	-2.998400	2.594000	-7.777300	28.766988	0.000270	20.907088
2778.766664	-2.969500	2.588000	-7.683500	28.820866	0.000271	20.868430
2779.766962	-3.016300	2.581500	-7.785500	28.866993	0.000270	20.910626
2780.800134	-3.006900	2.577900	-7.751200	28.905138	0.000270	20.913966
2781.794710	-3.012800	2.572400	-7.748900	28.944398	0.000270	20.919854
2782.789418	-2.981400	2.568300	-7.655600	28.969514	0.000269	20.879728
2783.800364	-2.966500	2.561300	-7.597200	28.945754	0.000271	20.904151
2784.790188	-2.977200	2.555400	-7.606800	28.897126	0.000270	20.899732
2785.798094	-2.986800	2.550900	-7.617900	28.879090	0.000270	20.910011
2786.790841	-2.979200	2.544300	-7.578500	28.848767	0.000270	20.901275
2787.804943	-3.026200	2.536400	-7.674200	28.853568	0.000270	20.899000
2788.799467	-3.016100	2.532100	-7.636200	28.892114	0.000273	20.887098
2789.795490	-3.015600	2.525800	-7.616000	28.900013	0.000273	20.912597
2790.791762	-2.983300	2.521700	-7.521600	28.890769	0.000270	20.886691
2791.770545	-3.003400	2.513100	-7.547000	28.924280	0.000270	20.897691
2792.771933	-2.986100	2.508200	-7.489200	28.926535	0.000270	20.887635
2793.771728	-3.019800	2.502000	-7.553700	28.949593	0.000269	20.891899
2794.773733	-2.988700	2.495400	-7.457000	28.971214	0.000270	20.891871
