LabVIEW Measurement	
Writer_Version	2
Reader_Version	2
Separator	Tab
Decimal_Separator	.
Multi_Headings	No
X_Columns	One
Time_Pref	Absolute
Operator	admin
Description	Clolumns are: time, Current, Voltage, Power, Battery Temp, and Chamber Temp
Date	2024/08/16
Time	13:06:06.104549407958984375
***End_of_Header***	
	
Channels	6						
Samples	1	1	1	1	1	1	
Date	2024/09/11	2024/09/11	2024/09/11	2024/09/11	2024/09/11	2024/09/11	
Time	20:34:02.4588785171508789063	20:34:02.469085693359375	20:34:02.4755215644836425782	20:34:02.4416041374206542969	20:34:02.4416041374206542969	20:34:02.4416041374206542969	
X_Dimension	Time	Time	Time	Time	Time	Time	
X0	0.0000000000000000E+0	0.0000000000000000E+0	0.0000000000000000E+0	0.0000000000000000E+0	0.0000000000000000E+0	0.0000000000000000E+0	
Delta_X	1.000000	1.000000	1.000000	1.000000	1.000000	1.000000	
***End_of_Header***							
X_Value	Untitled	Untitled 1	Untitled 2	Untitled 3	Untitled 4	Untitled 5	Comment
0.000000	0.026848	4.093900	0.109840	21.001079	0.000916	20.805271
1.011146	-2.974600	3.918300	-11.653000	20.988629	0.000917	20.806096
1.999679	-3.049400	3.907900	-11.916000	21.002451	0.000915	20.796687
3.003029	-2.992200	3.904500	-11.682000	21.015375	0.000913	20.813880
4.001235	-3.019900	3.900100	-11.777000	21.013231	0.000915	20.787554
5.002544	-2.994300	3.899100	-11.675000	21.012283	0.000913	20.817900
6.000286	-3.011800	3.894900	-11.730000	21.015747	0.000911	20.787225
7.000916	-3.011700	3.892500	-11.722000	21.015874	0.000909	20.800155
8.000961	-3.008200	3.890400	-11.702000	21.015326	0.000910	20.792494
9.001028	-2.984200	3.889700	-11.607000	21.020013	0.000910	20.817571
10.002809	-3.009300	3.886500	-11.694000	21.023233	0.000909	20.818420
11.003388	-2.998500	3.884300	-11.646000	21.020862	0.000907	20.780014
12.003544	-2.993000	3.884500	-11.625000	21.032013	0.000906	20.814400
13.005140	-2.999400	3.882600	-11.644000	21.026947	0.000906	20.784203
14.013659	-2.998400	3.881600	-11.637000	21.027871	0.000905	20.788920
15.002905	-2.995500	3.879400	-11.620000	21.036704	0.000904	20.801075
16.005759	-3.026100	3.877700	-11.731000	21.055242	0.000906	20.788796
17.003245	-2.999500	3.877700	-11.629000	21.054219	0.000902	20.785403
18.004948	-3.014900	3.874400	-11.680000	21.069962	0.000903	20.796408
19.004086	-3.000000	3.875200	-11.625000	21.074826	0.000902	20.799850
20.005492	-3.006700	3.872400	-11.641000	21.070712	0.000902	20.784830
21.011448	-2.999000	3.874000	-11.617000	21.083256	0.000903	20.803067
22.004918	-3.002400	3.872700	-11.624000	21.086677	0.000901	20.816920
23.005928	-2.993700	3.871100	-11.588000	21.060085	0.000900	20.804546
24.005636	-2.986800	3.870500	-11.559000	21.090020	0.000899	20.801298
25.005838	-2.995700	3.870000	-11.592000	21.103817	0.000899	20.799925
26.007545	-3.007900	3.868800	-11.636000	21.082613	0.000901	20.782034
27.010945	-2.990800	3.868700	-11.569000	21.118734	0.000900	20.814846
28.005164	-2.994900	3.867700	-11.582000	21.126644	0.000899	20.798103
29.010759	-2.988200	3.868000	-11.557000	21.108430	0.000900	20.800746
30.008188	-2.993000	3.866400	-11.569000	21.098351	0.000898	20.799199
31.007343	-2.983100	3.866600	-11.534000	21.112671	0.000900	20.778910
32.007712	-2.985900	3.866300	-11.543000	21.127889	0.000898	20.775640
33.003362	-3.005700	3.864700	-11.615000	21.127613	0.000899	20.785322
34.003621	-2.980700	3.864600	-11.518000	21.144827	0.000898	20.777410
35.009132	-3.022900	3.863800	-11.678000	21.131208	0.000899	20.787020
36.008653	-2.977700	3.864100	-11.506000	21.151088	0.000896	20.774190
37.006260	-2.997900	3.861800	-11.577000	21.155580	0.000896	20.810926
38.010026	-2.998900	3.862400	-11.582000	21.178304	0.000897	20.767749
39.013880	-2.979500	3.861700	-11.504000	21.196666	0.000895	20.770471
40.017410	-2.988400	3.860900	-11.537000	21.181898	0.000897	20.774664
41.010898	-2.978500	3.861400	-11.499000	21.194172	0.000893	20.779830
42.014716	-3.016500	3.858900	-11.639000	21.184965	0.000896	20.772042
43.007403	-3.000700	3.859700	-11.580000	21.184891	0.000894	20.790934
44.012149	-3.021100	3.859300	-11.658000	21.201328	0.000895	20.766125
45.014712	-3.018600	3.857900	-11.644000	21.202478	0.000896	20.780078
46.011774	-3.003400	3.858800	-11.589000	21.224677	0.000896	20.775732
47.011160	-3.005200	3.858400	-11.595000	21.225452	0.000896	20.768921
48.018112	-2.997000	3.858500	-11.563000	21.233036	0.000895	20.760860
49.012089	-3.008800	3.857900	-11.607000	21.267112	0.000893	20.782622
50.013721	-3.000500	3.857400	-11.573000	21.275565	0.000898	20.769742
51.017493	-3.005400	3.856700	-11.589000	21.256161	0.000894	20.779727
52.016520	-2.988200	3.856600	-11.523000	21.259946	0.000897	20.775453
53.015926	-2.986500	3.857000	-11.518000	21.275438	0.000895	20.771511
54.023342	-3.007000	3.855100	-11.591000	21.295344	0.000893	20.784788
55.017180	-2.967200	3.857800	-11.446000	21.301258	0.000894	20.756090
56.019647	-2.983800	3.855500	-11.504000	21.311784	0.000895	20.782268
57.018894	-2.993600	3.854100	-11.535000	21.308441	0.000895	20.776079
58.014287	-2.992700	3.854200	-11.534000	21.336679	0.000893	20.763553
59.019689	-3.000800	3.853500	-11.562000	21.321238	0.000893	20.782718
60.021750	-2.986600	3.853500	-11.507000	21.339445	0.000891	20.784812
61.023247	-3.016300	3.853000	-11.620000	21.335558	0.000893	20.771914
62.020215	-2.987300	3.854100	-11.512000	21.359753	0.000893	20.764353
63.021114	-2.978200	3.853100	-11.474000	21.354816	0.000894	20.759413
64.019447	-3.020000	3.851800	-11.632000	21.360454	0.000893	20.786390
65.019162	-2.993400	3.852600	-11.532000	21.361154	0.000894	20.762909
66.023994	-3.007300	3.851900	-11.582000	21.357967	0.000893	20.780109
67.019053	-2.988200	3.851300	-11.508000	21.371583	0.000893	20.769076
68.022184	-3.002800	3.850800	-11.563000	21.379994	0.000894	20.754731
69.021726	-2.992300	3.851400	-11.523000	21.379191	0.000894	20.763885
70.022003	-3.023800	3.851600	-11.645000	21.400471	0.000894	20.769529
71.023165	-3.018300	3.850400	-11.621000	21.409578	0.000897	20.751613
72.020630	-3.025400	3.850900	-11.650000	21.430708	0.000894	20.776075
73.028652	-2.991200	3.850400	-11.517000	21.409383	0.000894	20.764695
74.027442	-2.985000	3.850300	-11.492000	21.442435	0.000894	20.761730
75.022717	-3.016100	3.848600	-11.607000	21.416371	0.000890	20.775955
76.023219	-3.014400	3.848800	-11.600000	21.426549	0.000893	20.751525
77.025363	-3.005100	3.848100	-11.562000	21.444907	0.000894	20.775109
78.025738	-3.019200	3.846500	-11.612000	21.447627	0.000895	20.782572
79.025923	-3.012400	3.848700	-11.591000	21.456234	0.000896	20.743294
80.022721	-3.034400	3.846000	-11.667000	21.443142	0.000894	20.762912
81.024567	-3.028900	3.846700	-11.650000	21.458657	0.000893	20.765633
82.028546	-3.004600	3.846800	-11.557000	21.478988	0.000894	20.755155
83.030241	-2.993500	3.847000	-11.515000	21.488217	0.000894	20.743527
84.029118	-2.991700	3.847400	-11.510000	21.490187	0.000895	20.763991
85.027956	-2.985000	3.848000	-11.485000	21.506426	0.000894	20.770282
86.028267	-3.000500	3.845500	-11.538000	21.504527	0.000896	20.755580
87.027184	-2.991300	3.846000	-11.503000	21.507101	0.000896	20.756733
88.031384	-2.996500	3.845700	-11.523000	21.525886	0.000897	20.748502
89.033086	-2.997900	3.845100	-11.526000	21.547828	0.000893	20.780417
90.032150	-3.028200	3.843800	-11.639000	21.537952	0.000895	20.775275
91.028352	-2.990400	3.844900	-11.496000	21.536406	0.000896	20.781790
92.027952	-2.996500	3.844500	-11.520000	21.576064	0.000895	20.756514
93.033786	-3.008400	3.843400	-11.560000	21.552344	0.000896	20.768340
94.030004	-3.008100	3.844500	-11.564000	21.570127	0.000896	20.769065
95.032401	-2.993900	3.843600	-11.505000	21.594915	0.000892	20.740763
96.035665	-3.012000	3.843600	-11.576000	21.600700	0.000896	20.762200
97.029202	-3.019900	3.842700	-11.603000	21.593617	0.000896	20.761751
98.028014	-3.000400	3.844100	-11.533000	21.575587	0.000896	20.746553
99.043545	-3.017100	3.842300	-11.589000	21.591647	0.000896	20.774479
100.032843	-2.988600	3.842000	-11.480000	21.611997	0.000895	20.766868
101.031947	-2.999200	3.843100	-11.523000	21.619076	0.000895	20.751666
102.032612	-2.996100	3.842800	-11.510000	21.604342	0.000896	20.757310
103.029434	-3.014100	3.841300	-11.577000	21.619476	0.000897	20.749695
104.030779	-3.014400	3.842500	-11.582000	21.613019	0.000897	20.755088
105.031270	-3.006100	3.841500	-11.546000	21.646136	0.000897	20.756935
106.030146	-2.993300	3.842000	-11.498000	21.647632	0.000896	20.768389
107.031422	-2.980300	3.839500	-11.442000	21.642721	0.000897	20.763948
108.036749	-2.994900	3.841200	-11.503000	21.657709	0.000897	20.752395
109.035401	-2.985000	3.841100	-11.464000	21.652175	0.000897	20.747805
110.033933	-2.975600	3.839800	-11.424000	21.659233	0.000897	20.776206
111.041626	-2.997200	3.839300	-11.506000	21.668437	0.000899	20.748431
112.034041	-3.007300	3.838800	-11.544000	21.672598	0.000897	20.750700
113.030727	-3.002400	3.837600	-11.521000	21.705219	0.000898	20.747784
114.036242	-2.995400	3.838600	-11.496000	21.714991	0.000901	20.765151
115.035041	-3.001300	3.838900	-11.521000	21.714843	0.000898	20.763106
116.032149	-3.004300	3.839100	-11.533000	21.735268	0.000900	20.769797
117.032137	-3.001800	3.840400	-11.526000	21.757213	0.000901	20.769001
118.030218	-2.998100	3.839000	-11.509000	21.754968	0.000902	20.774341
119.031365	-3.001300	3.839100	-11.521000	21.772872	0.000904	20.738205
120.038869	-3.010300	3.838100	-11.553000	21.780728	0.000902	20.759819
121.038704	-2.980900	3.838900	-11.442000	21.792320	0.000905	20.781853
122.037117	-3.022000	3.836100	-11.592000	21.800827	0.000904	20.772823
123.037169	-3.007100	3.836900	-11.537000	21.789729	0.000903	20.758870
124.035724	-3.000100	3.837600	-11.511000	21.806858	0.000903	20.764635
125.040566	-2.994200	3.836000	-11.484000	21.842289	0.000904	20.771648
126.036424	-2.982300	3.836500	-11.440000	21.828484	0.000904	20.767313
127.038627	-3.020300	3.836200	-11.584000	21.816736	0.000904	20.775470
128.037173	-3.014100	3.835400	-11.559000	21.796443	0.000906	20.763693
129.043379	-2.998700	3.834700	-11.498000	21.820681	0.000906	20.763771
130.038496	-2.999600	3.835400	-11.503000	21.824273	0.000904	20.770211
131.039478	-3.006600	3.835900	-11.531000	21.823424	0.000905	20.757034
132.043221	-2.989800	3.835900	-11.465000	21.834221	0.000906	20.795816
133.040030	-2.989100	3.834900	-11.462000	21.850105	0.000906	20.763350
134.042270	-3.003300	3.835000	-11.516000	21.881098	0.000905	20.778725
135.041567	-2.997300	3.835300	-11.494000	21.868785	0.000907	20.779677
136.040067	-2.996100	3.833400	-11.484000	21.869510	0.000906	20.772342
137.040233	-2.975000	3.835500	-11.410000	21.882000	0.000909	20.781050
138.039934	-3.001800	3.832600	-11.503000	21.874597	0.000909	20.777433
139.044491	-2.994800	3.834100	-11.482000	21.869612	0.000907	20.783350
140.039909	-2.990200	3.833500	-11.461000	21.886917	0.000908	20.765109
141.042413	-2.989100	3.832800	-11.456000	21.884124	0.000910	20.779383
142.043839	-2.991100	3.833200	-11.465000	21.917336	0.000911	20.785126
143.045237	-3.001300	3.832500	-11.500000	21.918436	0.000909	20.770579
144.040777	-2.989500	3.833800	-11.459000	21.909259	0.000910	20.772773
145.040903	-2.949400	3.833800	-11.307000	21.919333	0.000910	20.779539
146.043539	-3.005600	3.833000	-11.519000	21.919733	0.000911	20.787999
147.043952	-3.005300	3.830700	-11.511000	21.926315	0.000911	20.785579
148.040495	-3.010200	3.832200	-11.534000	21.944340	0.000912	20.790345
149.045501	-3.021900	3.830900	-11.575000	21.943739	0.000911	20.797805
150.042465	-3.026100	3.829200	-11.586000	21.951198	0.000912	20.770183
151.042848	-2.992800	3.830100	-11.461000	21.978321	0.000911	20.777419
152.044445	-2.974600	3.832000	-11.398000	21.977851	0.000912	20.774578
153.045899	-2.970600	3.831800	-11.381000	21.948879	0.000913	20.776871
154.042270	-2.999200	3.830300	-11.486000	21.976652	0.000913	20.784284
155.042516	-3.003300	3.831300	-11.505000	21.978024	0.000913	20.793718
156.043407	-3.010100	3.828800	-11.523000	21.985928	0.000917	20.768439
157.042006	-3.003200	3.828700	-11.497000	22.012806	0.000917	20.767844
158.048938	-3.010200	3.828100	-11.522000	22.028758	0.000914	20.793771
159.044521	-3.001500	3.828300	-11.490000	22.032873	0.000916	20.780346
160.044024	-3.014200	3.826900	-11.534000	22.033350	0.000916	20.784617
161.041512	-3.004000	3.828400	-11.498000	22.045360	0.000916	20.791899
162.047761	-3.021600	3.828200	-11.566000	22.025450	0.000916	20.774812
163.055979	-2.972000	3.828900	-11.379000	22.084527	0.000919	20.778003
164.047705	-3.023700	3.825000	-11.565000	22.074337	0.000919	20.775388
165.049198	-3.038000	3.826700	-11.625000	22.091536	0.000919	20.778382
166.044553	-2.977900	3.829100	-11.400000	22.084184	0.000919	20.798049
167.046890	-2.997500	3.827500	-11.472000	22.104677	0.000919	20.783477
168.049865	-3.001300	3.826800	-11.484000	22.106996	0.000921	20.784850
169.047594	-3.028000	3.826100	-11.584000	22.111901	0.000921	20.808728
170.053397	-3.002200	3.825700	-11.484000	22.142742	0.000922	20.804043
171.049970	-3.019300	3.825200	-11.547000	22.159739	0.000921	20.795455
172.051041	-2.994400	3.825100	-11.453000	22.156300	0.000924	20.773046
173.055244	-3.001100	3.826200	-11.481000	22.156102	0.000922	20.788021
174.050359	-3.012100	3.825400	-11.520000	22.191222	0.000923	20.784302
175.051751	-3.007000	3.825300	-11.501000	22.178286	0.000924	20.793162
176.051221	-3.015600	3.823800	-11.528000	22.185019	0.000922	20.798481
177.048098	-2.977400	3.825900	-11.390000	22.188560	0.000925	20.781638
178.048951	-2.979600	3.824900	-11.396000	22.179060	0.000925	20.800101
179.052054	-2.985500	3.825400	-11.419000	22.159944	0.000924	20.773849
180.050736	-2.997100	3.823700	-11.458000	22.157382	0.000926	20.801156
181.049676	-2.981700	3.824000	-11.401000	22.163407	0.000924	20.815249
182.051700	-2.999200	3.823600	-11.467000	22.171882	0.000927	20.783432
183.049725	-3.000300	3.823800	-11.471000	22.188808	0.000927	20.788523
184.054661	-3.007200	3.822400	-11.492000	22.176869	0.000927	20.785105
185.056005	-3.003700	3.821200	-11.477000	22.211440	0.000927	20.805020
186.054581	-3.013000	3.821900	-11.514000	22.177594	0.000930	20.801952
187.056074	-2.999000	3.822200	-11.461000	22.204761	0.000930	20.806393
188.049735	-3.002200	3.823400	-11.478000	22.204634	0.000928	20.799627
189.054503	-2.998700	3.823300	-11.463000	22.207475	0.000931	20.801998
190.051221	-3.004100	3.820900	-11.477000	22.240052	0.000929	20.797631
191.048970	-2.988200	3.822600	-11.420000	22.250022	0.000931	20.806191
192.050608	-2.993600	3.821000	-11.438000	22.263129	0.000930	20.802720
193.050339	-2.989900	3.821300	-11.424000	22.263207	0.000931	20.800901
194.052404	-3.009000	3.819700	-11.492000	22.284438	0.000933	20.821686
195.064935	-2.985900	3.820200	-11.406000	22.282594	0.000934	20.806088
196.055245	-3.006600	3.820100	-11.484000	22.309260	0.000933	20.801970
197.051030	-2.987500	3.820800	-11.413000	22.297874	0.000934	20.806690
198.055225	-2.982900	3.819600	-11.392000	22.302256	0.000933	20.803491
199.056828	-3.000300	3.820800	-11.462000	22.320971	0.000936	20.804213
200.058341	-3.000300	3.820100	-11.460000	22.319526	0.000936	20.807507
201.052988	-2.995200	3.818900	-11.438000	22.329918	0.000936	20.810327
202.057082	-2.990500	3.820100	-11.424000	22.346138	0.000935	20.807128
203.054489	-2.978200	3.820600	-11.378000	22.363011	0.000937	20.807903
204.056943	-2.994500	3.819500	-11.435000	22.358449	0.000937	20.809973
205.067242	-3.010100	3.817100	-11.488000	22.348629	0.000936	20.811045
206.058594	-3.007400	3.817900	-11.481000	22.376262	0.000937	20.809793
207.057782	-2.978100	3.819300	-11.373000	22.409453	0.000939	20.809365
208.056135	-2.993000	3.818100	-11.427000	22.404301	0.000938	20.801361
209.064469	-3.005000	3.816900	-11.467000	22.424237	0.000939	20.829859
210.060040	-3.015700	3.817100	-11.510000	22.429692	0.000939	20.821572
211.061216	-2.999400	3.817300	-11.448000	22.413099	0.000940	20.815387
212.059263	-2.985100	3.816700	-11.392000	22.444815	0.000940	20.819173
213.063418	-3.000900	3.816900	-11.453000	22.446186	0.000940	20.832400
214.057794	-3.026600	3.815300	-11.546000	22.466295	0.000941	20.821243
215.057899	-2.996800	3.816600	-11.437000	22.483014	0.000942	20.837038
216.060184	-3.007600	3.815900	-11.476000	22.496221	0.000940	20.809014
217.059961	-2.999000	3.816200	-11.442000	22.500182	0.000944	20.847593
218.059214	-2.985800	3.817000	-11.395000	22.515686	0.000941	20.814283
219.062909	-2.983400	3.816400	-11.384000	22.508033	0.000945	20.825111
220.059520	-2.986200	3.815200	-11.392000	22.524829	0.000944	20.827708
221.059016	-2.998500	3.815300	-11.439000	22.515756	0.000945	20.821940
222.060845	-3.015100	3.814200	-11.499000	22.531359	0.000943	20.834721
223.060505	-2.999400	3.814200	-11.439000	22.523462	0.000946	20.834873
224.063003	-2.986400	3.815300	-11.393000	22.537337	0.000948	20.843552
225.067547	-3.003100	3.813600	-11.451000	22.554203	0.000947	20.842427
226.062905	-2.999800	3.815200	-11.444000	22.538806	0.000947	20.822740
227.064787	-2.990100	3.813000	-11.400000	22.561358	0.000949	20.815928
228.059651	-3.013700	3.812100	-11.488000	22.569180	0.000950	20.842728
229.068971	-2.992500	3.813200	-11.410000	22.572045	0.000949	20.824735
230.060784	-2.984400	3.813600	-11.381000	22.585601	0.000950	20.835941
231.061352	-2.991000	3.813400	-11.406000	22.586922	0.000950	20.838213
232.061954	-2.977400	3.812700	-11.351000	22.551264	0.000951	20.838061
233.064947	-3.020500	3.811600	-11.512000	22.575384	0.000949	20.838984
234.060200	-3.005000	3.812400	-11.455000	22.562729	0.000950	20.837215
235.061808	-3.006400	3.812500	-11.460000	22.573914	0.000951	20.837038
236.061790	-3.000400	3.812400	-11.438000	22.587519	0.000951	20.834544
237.061110	-3.016400	3.811500	-11.496000	22.603760	0.000952	20.843223
238.065108	-2.992900	3.810100	-11.402000	22.598330	0.000953	20.839207
239.061212	-3.010200	3.810200	-11.469000	22.630970	0.000951	20.852458
240.073073	-2.976700	3.810100	-11.340000	22.635231	0.000952	20.842027
241.062106	-3.007500	3.810100	-11.456000	22.621128	0.000953	20.850187
242.070135	-2.990300	3.810000	-11.392000	22.635432	0.000952	20.847445
243.063438	-3.005800	3.809300	-11.448000	22.642483	0.000956	20.831748
244.063740	-2.988200	3.808900	-11.380000	22.647662	0.000954	20.839306
245.068593	-2.991100	3.808000	-11.389000	22.645578	0.000956	20.829158
246.066097	-3.034500	3.808200	-11.556000	22.632970	0.000955	20.862521
247.070688	-2.983300	3.809100	-11.362000	22.649217	0.000957	20.849872
248.066861	-2.987500	3.809000	-11.379000	22.655222	0.000957	20.855413
249.071344	-2.988500	3.808300	-11.380000	22.695731	0.000957	20.845254
250.066216	-3.006000	3.806200	-11.439000	22.689758	0.000959	20.855392
251.066418	-2.996400	3.809200	-11.412000	22.693746	0.000957	20.857964
252.071992	-2.994200	3.807100	-11.397000	22.676754	0.000959	20.844738
253.071476	-3.004800	3.806600	-11.436000	22.678397	0.000960	20.866297
254.071823	-3.004900	3.808300	-11.443000	22.668233	0.000959	20.847583
255.073862	-3.001900	3.805900	-11.424000	22.657695	0.000960	20.862157
256.072860	-3.004600	3.806200	-11.435000	22.679598	0.000961	20.843793
257.079445	-2.988400	3.806700	-11.375000	22.687596	0.000962	20.856071
258.076867	-3.018100	3.805000	-11.482000	22.707852	0.000962	20.867825
259.071105	-2.990300	3.806200	-11.381000	22.728655	0.000962	20.875386
260.075617	-3.006200	3.805400	-11.439000	22.737203	0.000964	20.845545
261.069970	-3.023900	3.804100	-11.502000	22.722805	0.000963	20.860519
262.072157	-2.980100	3.805000	-11.339000	22.758606	0.000963	20.866983
263.075264	-2.991900	3.805300	-11.384000	22.736981	0.000965	20.875666
264.080850	-3.004100	3.804700	-11.427000	22.751983	0.000966	20.855608
265.071758	-2.982500	3.804700	-11.346000	22.735787	0.000965	20.864988
266.075752	-2.993900	3.804200	-11.389000	22.742043	0.000966	20.882633
267.076434	-3.032000	3.801700	-11.525000	22.764714	0.000966	20.859825
268.070742	-2.987500	3.803000	-11.360000	22.759235	0.000967	20.860501
269.076277	-2.996700	3.802600	-11.394000	22.767579	0.000967	20.871229
270.076559	-3.007100	3.803200	-11.434000	22.759133	0.000969	20.879838
271.083826	-3.004500	3.800700	-11.419000	22.758137	0.000968	20.866513
272.077429	-2.992300	3.803200	-11.379000	22.750189	0.000969	20.873249
273.083207	-2.986300	3.802400	-11.354000	22.726624	0.000968	20.875723
274.078479	-2.997800	3.803000	-11.399000	22.766982	0.000969	20.871579
275.080668	-2.977200	3.802100	-11.317000	22.777321	0.000969	20.868186
276.083114	-2.998000	3.802500	-11.398000	22.803675	0.000971	20.873249
277.082374	-3.001100	3.799700	-11.402000	22.825826	0.000972	20.891170
278.080513	-3.002500	3.799400	-11.407000	22.846598	0.000974	20.860299
279.084958	-3.003100	3.800900	-11.413000	22.857459	0.000971	20.877343
280.079506	-3.005500	3.799700	-11.417000	22.871905	0.000971	20.879961
281.085560	-2.997000	3.800400	-11.389000	22.865329	0.000974	20.892812
282.083239	-2.983100	3.802400	-11.341000	22.865852	0.000974	20.886698
283.081903	-3.013900	3.799800	-11.451000	22.878906	0.000972	20.878914
284.082746	-2.984900	3.800000	-11.342000	22.896863	0.000973	20.889790
285.080906	-3.024100	3.797300	-11.482000	22.908020	0.000974	20.868727
286.086583	-2.993200	3.800100	-11.372000	22.884960	0.000974	20.883556
287.086209	-2.991100	3.798500	-11.361000	22.894521	0.000975	20.872273
288.087647	-3.003700	3.796800	-11.403000	22.908892	0.000977	20.882877
289.087677	-2.999700	3.797200	-11.389000	22.924909	0.000976	20.876639
290.085070	-2.975200	3.799500	-11.303000	22.941696	0.000978	20.882551
291.085314	-2.969400	3.798800	-11.279000	22.928296	0.000977	20.881929
292.091233	-2.996600	3.798100	-11.380000	22.936013	0.000977	20.877806
293.089057	-2.979100	3.799000	-11.317000	22.927728	0.000980	20.887048
294.082074	-2.988500	3.798000	-11.348000	22.934177	0.000980	20.906310
295.087219	-2.984900	3.795900	-11.329000	22.928847	0.000977	20.890066
296.083082	-2.969300	3.797900	-11.275000	22.932213	0.000979	20.869732
297.085320	-3.015700	3.795100	-11.443000	22.925860	0.000979	20.887547
298.082721	-2.989700	3.796100	-11.348000	22.923373	0.000981	20.898806
299.085925	-3.000800	3.795500	-11.388000	22.947160	0.000979	20.927850
300.081922	-3.000400	3.794900	-11.385000	22.959239	0.000981	20.890643
301.085582	-2.995600	3.794600	-11.366000	22.982156	0.000983	20.883259
302.085986	-2.996500	3.795400	-11.371000	22.985942	0.000984	20.898905
303.088676	-3.009800	3.795200	-11.422000	23.001736	0.000985	20.895289
304.085013	-3.003700	3.794200	-11.394000	23.014439	0.000984	20.887155
305.086175	-3.008800	3.793900	-11.415000	23.007591	0.000982	20.903526
306.090709	-3.001500	3.794900	-11.389000	23.032672	0.000983	20.891673
307.088579	-2.995300	3.794000	-11.363000	23.038955	0.000985	20.878529
308.091593	-2.992800	3.794500	-11.356000	23.058205	0.000984	20.914883
309.089813	-2.982500	3.794300	-11.315000	23.045584	0.000984	20.908876
310.092043	-2.984900	3.793300	-11.320000	23.057188	0.000987	20.902012
311.090419	-2.999400	3.792100	-11.372000	23.073680	0.000984	20.906208
312.089143	-3.002600	3.791400	-11.383000	23.088225	0.000986	20.888542
313.091290	-3.023100	3.790800	-11.459000	23.102767	0.000989	20.907379
314.093217	-2.989700	3.790900	-11.332000	23.091443	0.000987	20.899825
315.091074	-3.011700	3.790600	-11.414000	23.109452	0.000987	20.908862
316.095371	-2.995800	3.790800	-11.355000	23.109099	0.000989	20.923679
317.094723	-3.003800	3.790200	-11.383000	23.137819	0.000987	20.914526
318.099495	-2.999400	3.790700	-11.368000	23.154306	0.000988	20.897858
319.095501	-3.016700	3.790500	-11.433000	23.156054	0.000987	20.907670
320.097125	-3.003400	3.789600	-11.381000	23.163575	0.000991	20.895293
321.092824	-3.012700	3.789000	-11.414000	23.140542	0.000989	20.889282
322.093631	-2.999100	3.788500	-11.361000	23.184674	0.000990	20.899840
323.097847	-2.982400	3.789500	-11.301000	23.176330	0.000992	20.887212
324.095702	-3.001700	3.789400	-11.372000	23.180366	0.000993	20.896946
325.093731	-2.989000	3.788500	-11.323000	23.190655	0.000990	20.915316
326.094722	-3.001000	3.787100	-11.364000	23.198402	0.000989	20.887520
327.098437	-2.992200	3.789000	-11.336000	23.190511	0.000993	20.890043
328.098036	-3.010000	3.787900	-11.400000	23.191333	0.000993	20.868110
329.096621	-3.006200	3.785600	-11.378000	23.186881	0.000995	20.873605
330.095837	-3.013100	3.786900	-11.410000	23.182725	0.000992	20.880819
331.098292	-3.015200	3.787000	-11.417000	23.169056	0.000994	20.893674
332.094193	-3.025000	3.785100	-11.448000	23.180515	0.000994	20.880501
333.097303	-3.024900	3.784800	-11.447000	23.174664	0.000996	20.903085
334.096985	-3.020800	3.786200	-11.435000	23.177482	0.000994	20.888367
335.096258	-3.043100	3.783700	-11.512000	23.198304	0.000993	20.889319
336.098273	-2.973800	3.786300	-11.257000	23.192055	0.000995	20.878315
337.098297	-3.002500	3.785600	-11.365000	23.202122	0.000992	20.888877
338.100066	-2.995500	3.784800	-11.337000	23.226207	0.000995	20.866547
339.103802	-3.007600	3.785700	-11.385000	23.236965	0.000996	20.855044
340.100457	-3.013600	3.784100	-11.402000	23.241552	0.000996	20.871494
341.102552	-3.005200	3.784800	-11.373000	23.220515	0.000996	20.863689
342.101999	-3.003400	3.785900	-11.368000	23.217825	0.000997	20.854355
343.099928	-2.993600	3.784700	-11.329000	23.192706	0.000998	20.868062
344.102789	-2.979500	3.784100	-11.273000	23.204641	0.000997	20.871962
345.103300	-3.007300	3.783600	-11.377000	23.229442	0.000999	20.874531
346.104414	-3.002700	3.782100	-11.355000	23.234280	0.000998	20.873215
347.102304	-3.010100	3.782600	-11.385000	23.231070	0.001000	20.876636
348.104089	-2.993200	3.783900	-11.325000	23.276417	0.001001	20.871347
349.105134	-3.006400	3.781200	-11.367000	23.284492	0.001000	20.865215
350.107935	-2.976400	3.784500	-11.263000	23.285043	0.001001	20.872405
351.106123	-3.023000	3.780000	-11.426000	23.296998	0.001001	20.848826
352.108242	-3.016000	3.780600	-11.401000	23.295459	0.001002	20.844439
353.105589	-2.999100	3.781400	-11.340000	23.298301	0.001002	20.856296
354.104067	-3.002200	3.781200	-11.350000	23.285333	0.001001	20.864162
355.109193	-3.010700	3.780000	-11.379000	23.281577	0.001003	20.874147
356.104289	-3.014500	3.779200	-11.391000	23.300180	0.001001	20.836843
357.104286	-2.984600	3.779600	-11.279000	23.312439	0.001006	20.854819
358.104281	-2.988700	3.780100	-11.297000	23.307461	0.001006	20.870217
359.108285	-3.012600	3.778400	-11.381000	23.285628	0.001004	20.852604
360.108159	-3.023400	3.778100	-11.421000	23.279629	0.001005	20.833317
361.109787	-2.993900	3.779300	-11.314000	23.300903	0.001005	20.843257
362.106229	-3.013400	3.777700	-11.381000	23.302297	0.001004	20.847025
363.106728	-3.009200	3.778200	-11.368000	23.303996	0.001006	20.843512
364.106730	-3.007300	3.775800	-11.355000	23.304173	0.001006	20.843215
365.107001	-3.006700	3.779400	-11.362000	23.335010	0.001007	20.822438
366.109106	-3.007300	3.778700	-11.361000	23.323408	0.001007	20.857277
367.106533	-3.022100	3.776300	-11.411000	23.335112	0.001007	20.835343
368.108687	-2.999800	3.776800	-11.328000	23.322865	0.001008	20.836345
369.107106	-2.995800	3.775000	-11.308000	23.313679	0.001008	20.824293
370.107292	-3.019600	3.775700	-11.400000	23.335424	0.001009	20.836604
371.111077	-2.994500	3.775600	-11.305000	23.334527	0.001010	20.818162
372.113113	-2.995000	3.775900	-11.307000	23.341557	0.001009	20.832320
373.108605	-3.004200	3.775100	-11.340000	23.348156	0.001010	20.818545
374.110678	-2.988500	3.774500	-11.280000	23.367281	0.001011	20.832971
375.111362	-2.999500	3.775500	-11.323000	23.347514	0.001010	20.833074
376.114473	-2.996600	3.773800	-11.307000	23.370678	0.001010	20.809350
377.112367	-2.996400	3.774000	-11.307000	23.404587	0.001009	20.820577
378.111307	-2.990200	3.774200	-11.284000	23.386240	0.001012	20.813093
379.112277	-3.006000	3.773300	-11.341000	23.408577	0.001013	20.819360
380.112998	-3.018200	3.772200	-11.385000	23.433950	0.001012	20.804962
381.111702	-2.994500	3.773000	-11.297000	23.467141	0.001012	20.823532
382.117816	-3.000700	3.772400	-11.319000	23.466721	0.001013	20.802723
383.115579	-3.026500	3.770600	-11.411000	23.453278	0.001011	20.811534
384.112608	-3.000700	3.771000	-11.315000	23.440753	0.001013	20.814626
385.112991	-2.991700	3.772100	-11.284000	23.437996	0.001011	20.822295
386.112852	-2.997300	3.770600	-11.300000	23.464314	0.001013	20.831130
387.115648	-3.008700	3.771000	-11.344000	23.442435	0.001013	20.813467
388.112999	-3.023000	3.770400	-11.396000	23.433525	0.001012	20.802640
389.116235	-3.012700	3.771500	-11.362000	23.454688	0.001013	20.811051
390.114873	-2.998100	3.770800	-11.303000	23.453002	0.001014	20.821214
391.119128	-3.010300	3.770000	-11.348000	23.453923	0.001014	20.805068
392.118980	-3.010100	3.769800	-11.346000	23.505113	0.001015	20.810861
393.118141	-3.027000	3.769000	-11.408000	23.490873	0.001014	20.810337
394.118595	-3.007100	3.769100	-11.332000	23.497351	0.001014	20.809244
395.115846	-3.021700	3.767600	-11.383000	23.519485	0.001013	20.818154
396.116381	-3.022200	3.767000	-11.383000	23.508658	0.001014	20.813940
397.116792	-3.033800	3.766400	-11.426000	23.505849	0.001014	20.798322
398.119834	-3.016000	3.766400	-11.358000	23.503936	0.001016	20.800198
399.118067	-3.002600	3.768800	-11.315000	23.516704	0.001016	20.826746
400.117448	-2.978100	3.768700	-11.220000	23.538713	0.001016	20.817040
401.119013	-3.016400	3.766300	-11.360000	23.520743	0.001018	20.810406
402.117808	-3.005600	3.766600	-11.320000	23.482831	0.001017	20.804646
403.119495	-3.013100	3.766100	-11.347000	23.481337	0.001020	20.804098
404.117442	-3.007200	3.767600	-11.329000	23.468845	0.001019	20.821447
405.117270	-3.014900	3.766900	-11.355000	23.482312	0.001018	20.789428
406.117178	-3.014900	3.765200	-11.351000	23.475122	0.001018	20.809247
407.118033	-3.000900	3.765100	-11.298000	23.483118	0.001020	20.803986
408.120833	-3.019200	3.764500	-11.365000	23.487898	0.001021	20.796923
409.119557	-3.014300	3.764200	-11.343000	23.525139	0.001019	20.801537
410.118136	-3.004900	3.764100	-11.309000	23.502413	0.001020	20.806258
411.119417	-2.997700	3.762800	-11.279000	23.513017	0.001019	20.814516
412.120344	-3.005100	3.763100	-11.305000	23.533587	0.001018	20.795307
413.119719	-3.002100	3.763700	-11.298000	23.518229	0.001020	20.813576
414.119674	-3.030900	3.762700	-11.403000	23.510290	0.001019	20.794239
415.118988	-3.009400	3.763800	-11.325000	23.505140	0.001022	20.803301
416.120187	-2.995700	3.761900	-11.268000	23.505313	0.001020	20.798733
417.119677	-3.000100	3.763500	-11.290000	23.497127	0.001020	20.809968
418.121788	-2.979700	3.762400	-11.210000	23.498226	0.001023	20.782145
419.123488	-3.002500	3.761400	-11.293000	23.472258	0.001022	20.784566
420.123416	-2.973100	3.762600	-11.186000	23.453262	0.001021	20.792078
421.125837	-2.992100	3.761800	-11.255000	23.479082	0.001023	20.787139
422.121807	-3.017100	3.760100	-11.343000	23.502363	0.001023	20.799570
423.121947	-3.009800	3.760400	-11.317000	23.511799	0.001021	20.780579
424.124630	-2.965400	3.761800	-11.155000	23.532986	0.001022	20.783325
425.123713	-2.975500	3.759600	-11.186000	23.571649	0.001023	20.787468
426.122809	-3.006800	3.759300	-11.302000	23.538818	0.001023	20.796283
427.123030	-3.000400	3.759600	-11.279000	23.533644	0.001022	20.797260
428.122251	-2.998900	3.759900	-11.275000	23.541163	0.001025	20.779667
429.122931	-2.997100	3.759100	-11.266000	23.529391	0.001025	20.777824
430.126316	-3.003200	3.759100	-11.288000	23.541064	0.001024	20.805172
431.124270	-2.982000	3.759000	-11.209000	23.539526	0.001025	20.788932
432.125106	-3.021200	3.757200	-11.350000	23.539875	0.001025	20.787385
433.131766	-2.986400	3.758200	-11.223000	23.534520	0.001027	20.785336
434.123520	-3.010300	3.756500	-11.306000	23.516702	0.001026	20.777432
435.129837	-2.998900	3.756700	-11.266000	23.521436	0.001026	20.807308
436.125465	-3.010200	3.756000	-11.306000	23.553251	0.001028	20.791310
437.127925	-3.011100	3.755500	-11.306000	23.572722	0.001026	20.794708
438.125274	-3.015400	3.753900	-11.318000	23.547102	0.001027	20.784672
439.125045	-3.009700	3.755100	-11.301000	23.551939	0.001027	20.780986
440.126792	-3.012500	3.755200	-11.312000	23.545012	0.001027	20.762663
441.131220	-2.988300	3.755400	-11.220000	23.573968	0.001027	20.783629
442.124818	-2.997200	3.754000	-11.250000	23.577353	0.001028	20.796031
443.127081	-3.000400	3.754500	-11.264000	23.600809	0.001027	20.762172
444.125018	-3.002900	3.754700	-11.274000	23.602269	0.001027	20.796353
445.132284	-2.982700	3.754400	-11.197000	23.604091	0.001030	20.773523
446.130514	-2.968400	3.754900	-11.145000	23.602022	0.001027	20.781881
447.127911	-3.006600	3.754100	-11.286000	23.607299	0.001027	20.776265
448.127638	-2.985000	3.754400	-11.206000	23.572446	0.001028	20.769301
449.127288	-3.004700	3.751300	-11.270000	23.578225	0.001029	20.772249
450.129913	-2.986800	3.752200	-11.205000	23.598613	0.001029	20.783204
451.131198	-2.996900	3.751600	-11.241000	23.620789	0.001027	20.784573
452.132398	-2.985200	3.751500	-11.198000	23.623126	0.001030	20.775535
453.131635	-2.989500	3.750900	-11.213000	23.651804	0.001029	20.783423
454.130601	-2.995400	3.751200	-11.235000	23.675575	0.001029	20.777857
455.133773	-3.012500	3.751000	-11.299000	23.665939	0.001029	20.769619
456.136415	-2.992000	3.750600	-11.221000	23.696779	0.001028	20.768769
457.130111	-3.003200	3.749800	-11.260000	23.680753	0.001028	20.782574
458.136984	-2.990500	3.749900	-11.213000	23.704318	0.001030	20.779646
459.132053	-2.986200	3.750800	-11.200000	23.729412	0.001029	20.769718
460.135035	-3.010400	3.748100	-11.281000	23.740437	0.001028	20.774608
461.134535	-2.999800	3.748200	-11.242000	23.734363	0.001027	20.758086
462.139357	-3.022600	3.749000	-11.330000	23.713830	0.001030	20.774010
463.136806	-2.986300	3.748900	-11.194000	23.717811	0.001031	20.756190
464.135540	-2.993300	3.749700	-11.222000	23.735761	0.001028	20.765178
465.134461	-2.982000	3.747600	-11.175000	23.741761	0.001029	20.784944
466.138458	-2.987100	3.748400	-11.196000	23.742358	0.001030	20.772266
467.135680	-2.973400	3.747100	-11.141000	23.734815	0.001030	20.768023
468.131530	-2.966300	3.747800	-11.116000	23.738648	0.001029	20.784194
469.134859	-2.992800	3.745000	-11.207000	23.749924	0.001030	20.777956
470.133425	-2.993800	3.746700	-11.216000	23.707114	0.001028	20.770596
471.133977	-2.982200	3.745500	-11.169000	23.709627	0.001033	20.771218
472.133773	-3.011100	3.745400	-11.277000	23.730189	0.001030	20.765281
473.134897	-2.993400	3.745800	-11.211000	23.748160	0.001032	20.769549
474.135662	-2.993100	3.744900	-11.208000	23.762570	0.001031	20.764081
475.134425	-3.012800	3.744200	-11.279000	23.768767	0.001033	20.775511
476.137181	-2.998900	3.744400	-11.228000	23.781363	0.001031	20.781976
477.136653	-3.011800	3.743300	-11.274000	23.804086	0.001029	20.764931
478.138752	-3.005500	3.743000	-11.248000	23.765078	0.001032	20.764226
479.137548	-3.011000	3.742400	-11.268000	23.819967	0.001032	20.773742
480.136201	-3.006900	3.742700	-11.253000	23.806476	0.001031	20.765904
481.141350	-3.025300	3.742400	-11.320000	23.814235	0.001031	20.759459
482.140500	-2.999100	3.742100	-11.221000	23.815605	0.001030	20.777902
483.137794	-3.029400	3.741500	-11.334000	23.801344	0.001031	20.769293
484.138038	-3.013800	3.740700	-11.272000	23.770679	0.001032	20.759884
485.141136	-3.011500	3.740500	-11.264000	23.798054	0.001032	20.760305
486.138824	-3.005400	3.741300	-11.244000	23.813014	0.001030	20.767718
487.134789	-2.984300	3.741400	-11.164000	23.820930	0.001031	20.739618
488.136577	-3.001200	3.740600	-11.226000	23.838673	0.001032	20.770687
489.141346	-3.004000	3.740900	-11.236000	23.845812	0.001031	20.762671
490.142396	-3.000900	3.739500	-11.221000	23.859130	0.001030	20.761327
491.144005	-2.991700	3.739900	-11.188000	23.865549	0.001033	20.765393
492.143418	-3.009900	3.738700	-11.253000	23.842822	0.001033	20.760148
493.141400	-2.990700	3.739700	-11.184000	23.852453	0.001031	20.747519
494.142446	-3.010100	3.739700	-11.256000	23.834113	0.001032	20.762795
495.138928	-3.000700	3.738800	-11.218000	23.826818	0.001033	20.751213
496.145850	-3.022200	3.736900	-11.292000	23.839784	0.001030	20.776068
497.141169	-2.985900	3.739000	-11.163000	23.857375	0.001032	20.746764
498.143743	-2.998600	3.737400	-11.206000	23.848094	0.001033	20.757847
499.144138	-2.980000	3.738200	-11.138000	23.898843	0.001032	20.762742
500.142587	-3.000000	3.736800	-11.208000	23.906951	0.001033	20.759967
501.142548	-3.008100	3.735700	-11.235000	23.886964	0.001033	20.756994
502.139293	-2.975500	3.735800	-11.115000	23.883654	0.001033	20.751304
503.143937	-2.980100	3.735500	-11.131000	23.908070	0.001032	20.735483
504.141302	-3.000900	3.734600	-11.206000	23.900003	0.001032	20.754421
505.143097	-2.997900	3.736600	-11.201000	23.931387	0.001032	20.770720
506.145522	-2.989000	3.734800	-11.162000	23.960551	0.001032	20.765826
507.144459	-2.995500	3.735600	-11.189000	23.962738	0.001033	20.763752
508.145177	-3.011400	3.734800	-11.245000	23.926605	0.001034	20.749329
509.145185	-3.011100	3.732400	-11.238000	23.915080	0.001033	20.748203
510.152502	-3.016700	3.732500	-11.259000	23.895467	0.001032	20.749873
511.148235	-3.003900	3.732300	-11.210000	23.907313	0.001032	20.759382
512.150454	-3.008700	3.733200	-11.231000	23.880229	0.001033	20.747396
513.142335	-2.987000	3.734300	-11.153000	23.897256	0.001031	20.762573
514.141335	-3.006100	3.732400	-11.219000	23.889863	0.001033	20.768910
515.142385	-2.995200	3.731500	-11.176000	23.894144	0.001032	20.766564
516.145882	-2.997800	3.732500	-11.189000	23.888515	0.001035	20.770877
517.142014	-2.988300	3.731600	-11.150000	23.884904	0.001031	20.743549
518.146368	-2.996300	3.730900	-11.177000	23.881294	0.001033	20.763163
519.142600	-2.987800	3.730600	-11.145000	23.869571	0.001033	20.758520
520.147590	-3.000900	3.730100	-11.192000	23.861931	0.001033	20.757498
521.150238	-3.007300	3.730100	-11.217000	23.898687	0.001033	20.752154
522.147475	-2.994400	3.730100	-11.167000	23.887137	0.001035	20.738675
523.145181	-2.991700	3.729100	-11.156000	23.915385	0.001031	20.757518
524.144852	-2.990600	3.730900	-11.157000	23.927305	0.001034	20.782748
525.146115	-2.996600	3.728400	-11.171000	23.935368	0.001034	20.759539
526.146990	-3.009100	3.728500	-11.218000	23.913387	0.001033	20.755515
527.143630	-2.997600	3.727900	-11.173000	23.947732	0.001031	20.757712
528.146023	-3.006600	3.726800	-11.204000	23.947506	0.001033	20.756537
529.145952	-2.985900	3.727700	-11.129000	23.984958	0.001033	20.746679
530.146217	-3.010700	3.726500	-11.219000	23.996605	0.001031	20.756937
531.143522	-3.002100	3.726700	-11.186000	24.026293	0.001032	20.758261
532.143906	-3.021600	3.726400	-11.258000	24.066904	0.001030	20.762005
533.146461	-2.997600	3.726900	-11.171000	24.055508	0.001035	20.753420
534.153191	-2.995000	3.726400	-11.160000	24.067003	0.001032	20.759733
535.166017	-2.997000	3.725300	-11.164000	24.038343	0.001031	20.753276
536.148938	-3.005000	3.724700	-11.191000	24.039063	0.001032	20.751152
537.152264	-3.003500	3.725400	-11.189000	23.998427	0.001032	20.772040
538.149795	-3.010600	3.725000	-11.212000	24.005572	0.001033	20.748385
539.151404	-2.996400	3.725200	-11.161000	24.017836	0.001033	20.741718
540.146914	-2.997700	3.723600	-11.161000	24.030306	0.001032	20.776036
541.146053	-2.994600	3.724400	-11.151000	24.036000	0.001032	20.754245
542.150575	-3.016000	3.723600	-11.229000	24.042849	0.001033	20.744044
543.151480	-3.000400	3.724200	-11.173000	24.083081	0.001032	20.780126
544.150456	-2.986400	3.724400	-11.122000	24.062308	0.001032	20.759766
545.148967	-3.018400	3.721900	-11.233000	24.041875	0.001033	20.766775
546.152336	-3.006300	3.722100	-11.188000	24.024982	0.001030	20.774489
547.151950	-2.985900	3.723500	-11.117000	24.015402	0.001033	20.750183
548.155827	-3.014900	3.722000	-11.220000	24.038047	0.001033	20.763410
549.151474	-3.002500	3.720900	-11.171000	23.981779	0.001034	20.770519
550.158608	-2.998400	3.722100	-11.159000	23.949430	0.001033	20.751828
551.153318	-3.021000	3.720200	-11.238000	23.989270	0.001032	20.758590
552.151649	-3.012100	3.719500	-11.203000	23.972524	0.001032	20.757444
553.157932	-3.023100	3.719900	-11.244000	24.008754	0.001033	20.771966
554.150782	-3.032200	3.718200	-11.273000	24.034557	0.001030	20.763703
555.153677	-3.004600	3.719000	-11.173000	24.057354	0.001033	20.790834
556.149601	-3.008800	3.718700	-11.188000	24.090769	0.001033	20.772663
557.153896	-3.009400	3.718600	-11.189000	24.113112	0.001030	20.782744
558.155002	-2.995000	3.719100	-11.137000	24.107312	0.001034	20.766969
559.158437	-2.982600	3.719400	-11.093000	24.123188	0.001032	20.766771
560.156141	-3.004400	3.718400	-11.171000	24.133963	0.001031	20.759085
561.157385	-2.987800	3.718500	-11.109000	24.167055	0.001032	20.760982
562.160314	-3.005400	3.716700	-11.168000	24.162451	0.001031	20.772960
563.157814	-3.002900	3.717000	-11.161000	24.142526	0.001031	20.759613
564.159490	-3.000000	3.716000	-11.146000	24.119784	0.001033	20.787539
565.155224	-2.976600	3.715900	-11.060000	24.154969	0.001031	20.775887
566.161176	-2.983900	3.717600	-11.092000	24.160392	0.001028	20.757617
567.157010	-3.017000	3.716000	-11.209000	24.166463	0.001032	20.762759
568.161764	-3.003000	3.716000	-11.158000	24.185599	0.001031	20.767727
569.165998	-2.985200	3.715300	-11.089000	24.195505	0.001030	20.762965
570.163938	-3.026100	3.713800	-11.236000	24.169008	0.001031	20.778588
571.156835	-2.975900	3.715400	-11.054000	24.181849	0.001031	20.784830
572.156916	-3.019100	3.714900	-11.214000	24.145346	0.001030	20.770976
573.157005	-3.007200	3.713800	-11.167000	24.179490	0.001030	20.781515
574.157191	-3.004500	3.714100	-11.158000	24.160876	0.001030	20.775648
575.161362	-3.005600	3.713300	-11.160000	24.155507	0.001031	20.782591
576.157794	-3.013200	3.712300	-11.185000	24.141107	0.001030	20.773363
577.168534	-2.989900	3.714300	-11.104000	24.134858	0.001031	20.770415
578.172776	-2.989500	3.712900	-11.098000	24.123837	0.001030	20.754145
579.160785	-2.995800	3.713100	-11.122000	24.109408	0.001030	20.778554
580.161076	-2.995100	3.711900	-11.116000	24.133995	0.001032	20.782826
581.159269	-3.000500	3.710400	-11.132000	24.147877	0.001029	20.786792
582.160888	-3.022500	3.710900	-11.214000	24.143006	0.001031	20.769104
583.160466	-2.986200	3.710900	-11.081000	24.171321	0.001030	20.774744
584.160833	-2.999300	3.710800	-11.129000	24.181746	0.001030	20.780933
585.163174	-3.001400	3.710400	-11.135000	24.173438	0.001032	20.783980
586.156605	-2.984500	3.710200	-11.072000	24.202595	0.001030	20.784776
587.157992	-2.999100	3.710200	-11.125000	24.191702	0.001028	20.767211
588.156930	-2.981900	3.710100	-11.062000	24.184784	0.001030	20.792041
589.160663	-3.008100	3.708500	-11.155000	24.196055	0.001032	20.770155
590.166087	-2.972800	3.709300	-11.026000	24.190235	0.001030	20.792766
591.165972	-2.999200	3.708100	-11.120000	24.187172	0.001029	20.797755
592.162828	-2.985600	3.709100	-11.073000	24.217056	0.001029	20.754709
593.161372	-2.992800	3.706900	-11.092000	24.258129	0.001029	20.785477
594.162935	-2.979600	3.708800	-11.051000	24.263378	0.001029	20.797380
595.162585	-3.008600	3.706800	-11.151000	24.280218	0.001030	20.785823
596.168494	-3.007500	3.707400	-11.149000	24.262457	0.001029	20.782232
597.165285	-2.985800	3.707600	-11.069000	24.240141	0.001029	20.782133
598.162688	-2.980200	3.706400	-11.045000	24.285520	0.001027	20.786874
599.159482	-2.977100	3.705800	-11.031000	24.273054	0.001029	20.793809
600.160544	-2.991200	3.704900	-11.080000	24.285294	0.001028	20.798502
601.162769	-2.980200	3.708000	-11.049000	24.255342	0.001028	20.803544
602.161369	-2.998000	3.704700	-11.105000	24.239369	0.001027	20.797005
603.160822	-2.983400	3.705500	-11.055000	24.219067	0.001028	20.784227
604.163760	-2.972900	3.705500	-11.015000	24.245316	0.001028	20.792065
605.162069	-2.991200	3.703700	-11.077000	24.239545	0.001029	20.801449
606.160622	-2.991700	3.704900	-11.083000	24.221360	0.001026	20.803123
607.169362	-2.993400	3.702800	-11.083000	24.239196	0.001028	20.794461
608.165268	-2.993100	3.704400	-11.087000	24.260891	0.001026	20.810058
609.162245	-2.967100	3.703800	-10.989000	24.254923	0.001027	20.790795
610.164241	-2.994100	3.703000	-11.085000	24.242036	0.001025	20.790672
611.163994	-2.985200	3.702100	-11.051000	24.275199	0.001025	20.790746
612.168924	-3.007800	3.701700	-11.133000	24.301920	0.001026	20.794791
613.166707	-2.986500	3.702100	-11.056000	24.313195	0.001024	20.803729
614.167374	-2.995500	3.701500	-11.086000	24.344362	0.001027	20.796588
615.167013	-3.008100	3.700700	-11.130000	24.352599	0.001025	20.808644
616.164211	-2.992600	3.701100	-11.075000	24.347432	0.001024	20.806306
617.163526	-2.991300	3.702000	-11.073000	24.343869	0.001026	20.812214
618.167414	-3.008600	3.699000	-11.128000	24.340963	0.001027	20.800765
619.165286	-3.022500	3.699500	-11.179000	24.365270	0.001025	20.796699
620.165075	-2.987600	3.699500	-11.051000	24.353831	0.001023	20.792811
621.166755	-3.015000	3.699200	-11.152000	24.366219	0.001027	20.814721
622.169525	-3.001400	3.700300	-11.104000	24.384056	0.001026	20.800847
623.170175	-3.000600	3.700100	-11.102000	24.369733	0.001025	20.808763
624.171456	-2.995600	3.698600	-11.079000	24.371052	0.001027	20.791121
625.171732	-2.994100	3.698100	-11.071000	24.393941	0.001025	20.825461
626.180685	-2.994000	3.697800	-11.070000	24.416504	0.001023	20.810165
627.173201	-3.005600	3.697800	-11.112000	24.455485	0.001025	20.805176
628.176338	-2.998500	3.696600	-11.082000	24.448297	0.001024	20.817405
629.171203	-3.030700	3.696400	-11.201000	24.483394	0.001025	20.794769
630.172288	-3.022000	3.695100	-11.166000	24.473921	0.001026	20.790481
631.168630	-2.998300	3.696600	-11.083000	24.508869	0.001024	20.807052
632.171936	-2.987600	3.696600	-11.043000	24.503050	0.001023	20.798843
633.174852	-2.998100	3.695600	-11.078000	24.523124	0.001022	20.814717
634.175829	-2.996400	3.696100	-11.073000	24.527106	0.001024	20.814919
635.171756	-3.016300	3.695000	-11.143000	24.517281	0.001026	20.815966
636.175581	-3.018400	3.694400	-11.149000	24.511042	0.001024	20.813026
637.179466	-2.984100	3.695700	-11.027000	24.513701	0.001022	20.805737
638.172197	-3.001400	3.695400	-11.090000	24.506341	0.001026	20.787447
639.176794	-3.008200	3.693400	-11.110000	24.464802	0.001023	20.815945
640.171693	-2.984800	3.694600	-11.027000	24.438935	0.001022	20.819392
641.175937	-2.993300	3.692800	-11.052000	24.465989	0.001022	20.819033
642.170946	-3.012200	3.692100	-11.120000	24.466421	0.001024	20.828475
643.174270	-3.014400	3.692000	-11.127000	24.464407	0.001022	20.821239
644.177276	-3.028900	3.690400	-11.177000	24.511268	0.001023	20.808511
645.176232	-3.008400	3.691600	-11.105000	24.486541	0.001022	20.819264
646.175501	-2.990800	3.692200	-11.041000	24.503982	0.001022	20.819219
647.176201	-2.979000	3.692600	-10.999000	24.509851	0.001021	20.832693
648.176288	-2.973500	3.692000	-10.977000	24.527957	0.001020	20.791116
649.178802	-2.984100	3.692200	-11.016000	24.533973	0.001021	20.813748
650.178230	-2.993000	3.690900	-11.046000	24.547234	0.001022	20.810932
651.172471	-3.028900	3.689400	-11.173000	24.552432	0.001021	20.828949
652.185345	-2.989300	3.690000	-11.029000	24.583046	0.001021	20.809406
653.174575	-2.995700	3.689800	-11.053000	24.556381	0.001020	20.834808
654.173907	-3.008200	3.689500	-11.097000	24.533299	0.001019	20.806433
655.179185	-2.984600	3.690600	-11.014000	24.548270	0.001021	20.836152
656.181244	-3.013600	3.688600	-11.115000	24.545989	0.001020	20.822010
657.179043	-3.038100	3.688100	-11.203000	24.526260	0.001020	20.819285
658.178152	-2.997200	3.687300	-11.050000	24.488456	0.001019	20.833039
659.180686	-3.024700	3.686500	-11.150000	24.464600	0.001019	20.830442
660.180012	-3.032700	3.686200	-11.178000	24.459377	0.001020	20.831365
661.180568	-2.999500	3.687900	-11.061000	24.451071	0.001019	20.824929
662.175522	-2.982200	3.688100	-10.997000	24.486891	0.001017	20.841425
663.175466	-3.001000	3.686400	-11.062000	24.497387	0.001019	20.847214
664.181182	-3.004200	3.685600	-11.069000	24.474874	0.001018	20.826999
665.184533	-2.992600	3.686100	-11.030000	24.451396	0.001019	20.829048
666.184022	-2.982200	3.685600	-10.991000	24.487939	0.001018	20.837735
667.181225	-2.979800	3.686600	-10.984000	24.516126	0.001015	20.831402
668.184137	-3.012400	3.684200	-11.097000	24.504286	0.001019	20.841334
669.182114	-3.006900	3.684400	-11.078000	24.522919	0.001016	20.840114
670.183262	-3.008400	3.682900	-11.078000	24.525409	0.001017	20.841664
671.187757	-3.010800	3.682900	-11.088000	24.532896	0.001016	20.846805
672.182309	-2.968900	3.685600	-10.941000	24.523071	0.001017	20.845482
673.183077	-2.973400	3.684500	-10.954000	24.573661	0.001018	20.831757
674.187931	-3.028600	3.682400	-11.151000	24.562821	0.001018	20.818035
675.186212	-2.998400	3.682200	-11.039000	24.543494	0.001017	20.848904
676.187245	-3.001300	3.682500	-11.052000	24.526112	0.001016	20.825300
677.187087	-2.963700	3.684000	-10.917000	24.501212	0.001016	20.811224
678.182409	-2.985900	3.682300	-10.994000	24.505466	0.001015	20.843940
679.187002	-2.986600	3.681600	-10.994000	24.524271	0.001015	20.856168
680.187617	-3.015300	3.681500	-11.100000	24.514823	0.001016	20.843371
681.186894	-3.004700	3.682200	-11.063000	24.539323	0.001015	20.846142
682.194337	-3.010000	3.680800	-11.079000	24.585734	0.001015	20.841025
683.185917	-2.987800	3.682800	-11.002000	24.584838	0.001016	20.865255
684.186870	-2.997400	3.681700	-11.034000	24.575761	0.001015	20.853303
685.193453	-2.971600	3.681400	-10.938000	24.543531	0.001014	20.857949
686.190761	-2.996600	3.678900	-11.023000	24.493310	0.001016	20.858770
687.187479	-3.013100	3.678300	-11.082000	24.504479	0.001014	20.855752
688.194682	-2.991600	3.680200	-11.009000	24.498562	0.001015	20.846970
689.190958	-2.991800	3.679000	-11.005000	24.513183	0.001015	20.847415
690.191759	-3.005600	3.678600	-11.055000	24.561140	0.001014	20.854280
691.192067	-2.999900	3.678300	-11.034000	24.570690	0.001014	20.862913
692.187577	-2.985700	3.679500	-10.984000	24.562282	0.001014	20.858271
693.192776	-2.991900	3.677300	-11.001000	24.579294	0.001013	20.848314
694.188928	-2.974000	3.678400	-10.939000	24.548376	0.001014	20.852854
695.207930	-3.002600	3.677600	-11.040000	24.568475	0.001012	20.842200
696.196486	-3.015800	3.677600	-11.089000	24.601969	0.001013	20.854944
697.192005	-2.993600	3.677600	-11.007000	24.617962	0.001014	20.873361
698.197495	-2.995200	3.677000	-11.012000	24.595325	0.001011	20.850648
699.194047	-3.020100	3.675900	-11.100000	24.601542	0.001013	20.862101
700.196385	-3.010300	3.674900	-11.062000	24.630145	0.001013	20.862353
701.194015	-3.019900	3.675200	-11.099000	24.617033	0.001013	20.854886
702.194183	-2.999100	3.674700	-11.019000	24.608876	0.001011	20.883210
703.191546	-3.004500	3.673700	-11.037000	24.631361	0.001012	20.864995
704.193277	-3.019700	3.673600	-11.092000	24.637751	0.001010	20.892742
705.191941	-3.025500	3.673000	-11.112000	24.647970	0.001011	20.865540
706.195364	-3.007000	3.673200	-11.044000	24.614543	0.001010	20.884628
707.196217	-2.991400	3.674300	-10.991000	24.617945	0.001012	20.883775
708.194880	-3.026500	3.673000	-11.116000	24.604369	0.001011	20.878687
709.196731	-3.004900	3.673700	-11.038000	24.615340	0.001012	20.876420
710.197999	-3.020100	3.671900	-11.088000	24.636798	0.001011	20.878984
711.195730	-3.024600	3.670800	-11.102000	24.656249	0.001011	20.872425
712.192509	-2.990900	3.673100	-10.984000	24.622527	0.001011	20.870829
713.193661	-2.994700	3.671600	-10.994000	24.640311	0.001011	20.872078
714.196224	-3.014000	3.670500	-11.061000	24.630433	0.001008	20.897252
715.195690	-2.997400	3.671000	-11.003000	24.659060	0.001008	20.890417
716.194559	-3.027200	3.669500	-11.107000	24.675578	0.001008	20.883758
717.194426	-3.021700	3.670800	-11.091000	24.694873	0.001009	20.886999
718.194990	-3.004500	3.669800	-11.024000	24.717327	0.001009	20.887720
719.195224	-3.024700	3.669300	-11.096000	24.694002	0.001008	20.877117
720.194566	-3.002600	3.669600	-11.017000	24.680077	0.001008	20.877842
721.196671	-2.998300	3.670200	-11.003000	24.652695	0.001007	20.900150
722.196676	-2.974700	3.670800	-10.919000	24.635939	0.001005	20.889027
723.195652	-3.007200	3.668200	-11.030000	24.660038	0.001006	20.904673
724.193817	-2.990400	3.669000	-10.970000	24.676650	0.001007	20.884834
725.196727	-3.006000	3.668300	-11.025000	24.678022	0.001006	20.891901
726.195782	-2.995000	3.668800	-10.987000	24.685012	0.001005	20.899862
727.197361	-3.011300	3.667500	-11.043000	24.680286	0.001007	20.888009
728.202615	-2.996200	3.667000	-10.986000	24.702946	0.001006	20.892255
729.200478	-3.001100	3.666900	-11.004000	24.695740	0.001004	20.903988
730.201338	-2.991300	3.667100	-10.969000	24.690994	0.001005	20.893537
731.200586	-3.007200	3.666400	-11.025000	24.733893	0.001003	20.916196
732.202339	-3.017800	3.665600	-11.061000	24.720269	0.001004	20.906792
733.200091	-2.988200	3.667000	-10.956000	24.743228	0.001002	20.889530
734.203806	-3.001600	3.666500	-11.004000	24.772719	0.001005	20.902529
735.203128	-3.010500	3.665400	-11.033000	24.779663	0.001002	20.880575
736.203526	-2.980600	3.666300	-10.927000	24.795653	0.001003	20.895673
737.201360	-2.987500	3.665700	-10.950000	24.787699	0.001003	20.900492
738.207329	-3.016200	3.665200	-11.053000	24.799564	0.001004	20.894383
739.205102	-2.984100	3.666400	-10.939000	24.815504	0.001000	20.881932
740.205764	-2.999400	3.665000	-10.992000	24.816277	0.001000	20.899775
741.211747	-3.025300	3.663200	-11.081000	24.833909	0.001002	20.880963
742.207173	-2.989500	3.664600	-10.953000	24.841222	0.001002	20.899206
743.211738	-2.982600	3.662500	-10.922000	24.833638	0.001002	20.888751
744.206982	-2.980100	3.664800	-10.920000	24.856246	0.001002	20.912861
745.204921	-3.013100	3.662000	-11.032000	24.871984	0.001002	20.891674
746.209465	-3.006000	3.662400	-11.008000	24.839908	0.001000	20.885086
747.206257	-3.031500	3.661500	-11.098000	24.835656	0.001001	20.881767
748.210873	-2.973000	3.662900	-10.887000	24.826387	0.000999	20.876733
749.209066	-3.001800	3.661700	-10.991000	24.841526	0.000999	20.888607
750.209582	-3.000500	3.660600	-10.983000	24.834739	0.000999	20.905976
751.209431	-3.009400	3.661800	-11.019000	24.829489	0.000998	20.880794
752.217110	-2.985800	3.660400	-10.927000	24.816088	0.000997	20.899111
753.210711	-2.981600	3.662200	-10.918000	24.805147	0.000998	20.899985
754.209464	-2.979100	3.661400	-10.905000	24.802514	0.000999	20.896395
755.212726	-2.994100	3.658900	-10.954000	24.811811	0.000999	20.880596
756.211263	-2.985500	3.659000	-10.923000	24.829715	0.000996	20.892400
757.211117	-3.005300	3.660200	-10.998000	24.859307	0.000997	20.904079
758.209076	-3.003900	3.660200	-10.994000	24.895014	0.000999	20.877805
759.212723	-3.009000	3.660600	-11.012000	24.894045	0.000995	20.882522
760.210894	-3.004700	3.658800	-10.993000	24.859984	0.000996	20.881528
761.213209	-2.995900	3.658000	-10.958000	24.873927	0.000997	20.868022
762.214896	-3.009100	3.658300	-11.006000	24.869232	0.000996	20.878955
763.213563	-2.996700	3.657800	-10.961000	24.814728	0.000996	20.867877
764.211658	-2.997900	3.656700	-10.962000	24.814954	0.000994	20.877113
765.214199	-2.994300	3.657300	-10.950000	24.811996	0.000995	20.860869
766.214033	-3.012000	3.655500	-11.008000	24.835873	0.000996	20.856857
767.213246	-2.982300	3.658100	-10.908000	24.843383	0.000995	20.892367
768.212879	-3.001300	3.657300	-10.976000	24.873246	0.000994	20.877768
769.210026	-3.017500	3.654600	-11.027000	24.875485	0.000993	20.855361
770.212545	-2.975100	3.657000	-10.880000	24.899607	0.000995	20.882415
771.213264	-2.982900	3.657100	-10.908000	24.919350	0.000994	20.879471
772.213894	-3.001600	3.655400	-10.971000	24.938201	0.000993	20.877529
773.216961	-3.001800	3.655600	-10.972000	24.955430	0.000991	20.869692
774.213428	-3.008900	3.653900	-10.993000	24.946315	0.000993	20.873819
775.211688	-3.018300	3.653400	-11.026000	24.912449	0.000991	20.854054
776.210147	-2.966700	3.654600	-10.841000	24.954321	0.000993	20.865734
777.209690	-3.019900	3.653400	-11.031000	24.918595	0.000992	20.867808
778.210491	-3.000200	3.653000	-10.959000	24.919519	0.000994	20.868261
779.212441	-2.988200	3.653500	-10.915000	24.891921	0.000990	20.865219
780.210234	-3.020900	3.652500	-11.032000	24.883816	0.000992	20.846179
781.210847	-3.013300	3.652400	-11.004000	24.909997	0.000991	20.862024
782.216324	-3.022400	3.651800	-11.037000	24.886749	0.000992	20.851968
783.211615	-3.019100	3.651700	-11.024000	24.919671	0.000991	20.855138
784.216740	-3.003800	3.651700	-10.968000	24.898112	0.000991	20.849148
785.213895	-3.007100	3.652600	-10.982000	24.884617	0.000991	20.859311
786.216671	-3.016500	3.650500	-11.010000	24.864525	0.000992	20.841991
787.213676	-3.004500	3.650900	-10.968000	24.874146	0.000992	20.867767
788.211205	-2.994500	3.651100	-10.932000	24.896177	0.000990	20.859059
789.212644	-2.989000	3.651600	-10.914000	24.915670	0.000990	20.853493
790.217065	-2.982500	3.650300	-10.886000	24.949757	0.000990	20.860205
791.213632	-2.992100	3.649600	-10.918000	24.952620	0.000990	20.828467
792.213046	-3.013300	3.648200	-10.992000	24.975916	0.000989	20.829090
793.216736	-3.006500	3.650300	-10.974000	24.976310	0.000988	20.860304
794.217509	-2.988400	3.650300	-10.907000	24.986928	0.000990	20.859583
795.219435	-2.984400	3.649300	-10.889000	24.988715	0.000987	20.859480
796.219234	-2.989400	3.649100	-10.908000	24.973471	0.000988	20.847025
797.219227	-2.977400	3.648900	-10.863000	24.954231	0.000987	20.857109
798.219627	-2.991800	3.648000	-10.913000	24.936107	0.000986	20.864522
799.216043	-2.986200	3.647500	-10.890000	24.916561	0.000987	20.848698
800.221966	-2.999000	3.647500	-10.937000	24.909076	0.000986	20.840712
801.217048	-3.026700	3.645800	-11.034000	24.914593	0.000985	20.860947
802.221392	-2.999600	3.645100	-10.933000	24.881824	0.000984	20.862197
803.217969	-3.007300	3.646300	-10.964000	24.849221	0.000984	20.824262
804.218704	-2.992400	3.646600	-10.911000	24.859545	0.000983	20.845054
805.216902	-2.994700	3.646800	-10.921000	24.832558	0.000984	20.843099
806.221269	-3.016200	3.644500	-10.992000	24.820303	0.000984	20.847870
807.218266	-3.002000	3.645300	-10.940000	24.845093	0.000985	20.838610
808.215833	-3.019000	3.644400	-11.001000	24.867199	0.000981	20.838985
809.219629	-3.013200	3.645700	-10.984000	24.882169	0.000983	20.841207
810.215968	-2.998900	3.644400	-10.929000	24.912700	0.000981	20.861417
811.225625	-3.007400	3.644600	-10.959000	24.913152	0.000985	20.863767
812.219413	-3.005200	3.644400	-10.952000	24.904352	0.000982	20.846402
813.224971	-3.004800	3.643800	-10.948000	24.958700	0.000981	20.837888
814.217713	-2.990600	3.644700	-10.898000	24.933465	0.000983	20.835320
815.215810	-2.979500	3.643200	-10.853000	24.931280	0.000980	20.836919
816.218823	-2.990700	3.642500	-10.891000	24.947941	0.000981	20.847952
817.216829	-3.002800	3.642900	-10.937000	24.943517	0.000980	20.831659
818.218064	-2.995300	3.641900	-10.907000	24.950209	0.000980	20.828418
819.228064	-3.002900	3.641200	-10.933000	24.989270	0.000979	20.828270
820.221243	-3.021200	3.640700	-10.997000	24.957694	0.000980	20.826447
821.222152	-2.996500	3.641600	-10.911000	24.947477	0.000979	20.813823
822.221431	-2.989400	3.641700	-10.885000	24.945243	0.000977	20.826278
823.227044	-3.003300	3.641900	-10.936000	24.927522	0.000976	20.832199
824.223646	-3.023000	3.639400	-11.001000	24.913949	0.000978	20.824741
825.221402	-3.005600	3.638900	-10.935000	24.874290	0.000977	20.835196
826.221386	-3.016300	3.638500	-10.973000	24.892321	0.000976	20.830534
827.226421	-2.989700	3.640000	-10.881000	24.910400	0.000975	20.834455
828.222960	-3.004200	3.639700	-10.933000	24.938050	0.000975	20.820008
829.222915	-3.007500	3.638900	-10.943000	24.939920	0.000976	20.822358
830.221759	-3.002400	3.638300	-10.922000	24.949795	0.000973	20.829425
831.223610	-3.013400	3.638200	-10.962000	24.947659	0.000974	20.827755
832.224895	-3.003000	3.638000	-10.924000	24.988757	0.000974	20.809738
833.236084	-2.972100	3.637700	-10.810000	24.999881	0.000974	20.828489
834.228720	-3.017200	3.637900	-10.976000	25.029985	0.000973	20.834999
835.227892	-3.000500	3.638800	-10.918000	25.003389	0.000970	20.823950
836.228046	-3.014200	3.636800	-10.961000	24.982580	0.000974	20.822029
837.234506	-2.977700	3.638700	-10.834000	24.999590	0.000973	20.821085
838.232381	-3.011300	3.636000	-10.949000	24.975104	0.000973	20.823060
839.228856	-2.992900	3.637500	-10.884000	24.963574	0.000972	20.833771
840.229069	-3.003600	3.635900	-10.920000	24.983040	0.000972	20.820594
841.228422	-2.999400	3.635600	-10.903000	25.022474	0.000971	20.814657
842.226970	-2.999000	3.636600	-10.905000	25.050076	0.000971	20.813441
843.226462	-3.008400	3.633800	-10.931000	25.084632	0.000972	20.833904
844.227653	-2.980100	3.633900	-10.828000	25.080163	0.000971	20.834634
845.230083	-3.021100	3.633400	-10.975000	25.112134	0.000971	20.817890
846.230214	-3.013700	3.632600	-10.946000	25.113555	0.000970	20.817421
847.230698	-3.004800	3.634200	-10.919000	25.115420	0.000970	20.828775
848.233264	-3.004300	3.632700	-10.913000	25.132325	0.000969	20.814926
849.229982	-2.996300	3.633700	-10.887000	25.127832	0.000969	20.828433
850.233089	-2.997400	3.632200	-10.885000	25.118755	0.000967	20.805097
851.231507	-2.989500	3.633700	-10.862000	25.120924	0.000966	20.832878
852.231119	-2.983100	3.633600	-10.838000	25.135045	0.000967	20.805328
853.228553	-3.027500	3.630900	-10.991000	25.090428	0.000967	20.822179
854.242174	-3.000600	3.631500	-10.896000	25.076878	0.000968	20.817586
855.231181	-3.015500	3.631200	-10.949000	25.053314	0.000966	20.820011
856.231864	-3.027000	3.629900	-10.986000	25.050082	0.000964	20.835732
857.233670	-3.021300	3.631000	-10.969000	25.045362	0.000966	20.832417
858.230116	-2.990700	3.630500	-10.857000	25.058465	0.000964	20.799103
859.235499	-2.996200	3.631600	-10.880000	25.042557	0.000965	20.811584
860.233677	-3.009400	3.629900	-10.923000	25.063665	0.000965	20.812858
861.235147	-2.996400	3.629300	-10.874000	25.055270	0.000965	20.811069
862.233329	-3.002000	3.629500	-10.895000	25.067104	0.000964	20.788334
863.230546	-3.013800	3.629100	-10.936000	25.065366	0.000963	20.800815
864.232217	-3.009100	3.627900	-10.916000	25.077997	0.000965	20.805907
865.233737	-3.011400	3.629000	-10.925000	25.069400	0.000963	20.820037
866.235311	-3.019900	3.627400	-10.954000	25.075319	0.000961	20.804167
867.236916	-2.999600	3.627200	-10.879000	25.065355	0.000964	20.787053
868.234050	-3.027800	3.627000	-10.980000	25.044025	0.000961	20.821117
869.237427	-3.003100	3.627400	-10.892000	25.051488	0.000962	20.817704
870.242288	-2.983100	3.627300	-10.820000	25.036924	0.000962	20.794075
871.236977	-2.992100	3.627100	-10.852000	25.065590	0.000960	20.806729
872.242649	-2.992200	3.625700	-10.848000	25.072753	0.000962	20.792583
873.239864	-2.993900	3.627000	-10.858000	25.054110	0.000960	20.788093
874.233833	-2.991800	3.624800	-10.843000	25.072010	0.000962	20.800845
875.242078	-3.013000	3.625100	-10.920000	25.088398	0.000960	20.788373
876.234694	-3.006900	3.626100	-10.902000	25.091089	0.000962	20.812885
877.233930	-2.994300	3.625100	-10.853000	25.101283	0.000959	20.784238
878.238632	-3.014500	3.624800	-10.926000	25.096293	0.000958	20.789661
879.239985	-3.000100	3.625100	-10.874000	25.067933	0.000959	20.796753
880.239766	-2.975700	3.625200	-10.785000	25.084588	0.000958	20.775539
881.243414	-2.993600	3.623000	-10.844000	25.063406	0.000958	20.803589
882.239293	-2.985800	3.623400	-10.817000	25.079770	0.000957	20.794885
883.242806	-2.994700	3.623900	-10.852000	25.127628	0.000957	20.801202
884.245065	-3.002900	3.621900	-10.875000	25.141527	0.000956	20.794766
885.244103	-2.989600	3.622600	-10.829000	25.169718	0.000958	20.798411
886.241090	-3.005000	3.623200	-10.885000	25.185505	0.000957	20.786285
887.243456	-3.003600	3.622300	-10.879000	25.208003	0.000956	20.806975
888.243227	-2.987900	3.621700	-10.819000	25.210910	0.000954	20.796618
889.240605	-2.984900	3.622000	-10.810000	25.203309	0.000954	20.779503
890.242498	-2.981200	3.621500	-10.796000	25.211038	0.000955	20.782521
891.241648	-2.992100	3.621500	-10.834000	25.226003	0.000955	20.799442
892.242681	-2.997600	3.620700	-10.852000	25.203531	0.000955	20.778303
893.245001	-2.995600	3.621000	-10.846000	25.182257	0.000955	20.781128
894.240172	-3.022500	3.620000	-10.941000	25.149446	0.000956	20.791337
895.241639	-3.013500	3.621100	-10.911000	25.125354	0.000955	20.781849
896.246668	-3.014700	3.619700	-10.912000	25.095950	0.000953	20.782678
897.241504	-2.988600	3.620800	-10.820000	25.101816	0.000954	20.761065
898.245101	-3.008900	3.619000	-10.889000	25.085534	0.000954	20.787869
899.247324	-2.971400	3.620000	-10.756000	25.104202	0.000953	20.779108
900.247122	-3.014800	3.617800	-10.905000	25.087108	0.000952	20.784707
901.248129	-3.007200	3.617800	-10.878000	25.077603	0.000950	20.786072
902.246906	-3.012600	3.615800	-10.891000	25.124861	0.000952	20.780406
903.243802	-2.996200	3.617500	-10.837000	25.124792	0.000951	20.775595
904.249228	-2.984400	3.617400	-10.794000	25.139507	0.000952	20.772824
905.243102	-2.988300	3.616900	-10.807000	25.169932	0.000951	20.758323
906.243338	-2.995300	3.616000	-10.830000	25.202324	0.000950	20.778514
907.245895	-2.994100	3.616000	-10.825000	25.198324	0.000948	20.767386
908.247813	-2.984200	3.615900	-10.790000	25.195338	0.000949	20.765336
909.248541	-3.000100	3.617000	-10.850000	25.211917	0.000949	20.772973
910.247006	-2.989100	3.616400	-10.809000	25.224817	0.000947	20.773121
911.250203	-3.012200	3.613900	-10.885000	25.218755	0.000948	20.759449
912.249897	-3.007000	3.614200	-10.867000	25.190615	0.000946	20.757276
913.246357	-2.998700	3.613500	-10.834000	25.202147	0.000948	20.800148
914.246429	-2.999100	3.614500	-10.838000	25.205158	0.000947	20.762867
915.245054	-2.978800	3.614200	-10.765000	25.191663	0.000945	20.768759
916.245282	-2.994600	3.613200	-10.819000	25.199289	0.000946	20.776889
917.246017	-2.986200	3.612500	-10.786000	25.217240	0.000946	20.770256
918.250333	-2.987800	3.613200	-10.794000	25.234041	0.000946	20.778588
919.248883	-2.970600	3.613700	-10.733000	25.228452	0.000946	20.748794
920.247351	-3.013600	3.612600	-10.886000	25.221092	0.000945	20.769856
921.245469	-2.990800	3.613900	-10.807000	25.246891	0.000946	20.783903
922.248432	-3.004000	3.611200	-10.847000	25.219922	0.000942	20.763939
923.247499	-2.998000	3.610100	-10.822000	25.242320	0.000946	20.765089
924.249181	-2.997300	3.610400	-10.820000	25.252562	0.000944	20.778218
925.250985	-3.004000	3.610400	-10.844000	25.281966	0.000942	20.769806
926.251017	-3.007800	3.610700	-10.859000	25.276697	0.000943	20.757878
927.248577	-2.978300	3.610900	-10.753000	25.254201	0.000943	20.758999
928.248314	-3.006100	3.609600	-10.850000	25.264192	0.000943	20.744848
929.251235	-3.008400	3.609400	-10.857000	25.275748	0.000942	20.755028
930.249324	-3.016700	3.607400	-10.881000	25.287530	0.000943	20.759745
931.253090	-2.977500	3.609500	-10.745000	25.303586	0.000940	20.743624
932.248679	-3.019700	3.608400	-10.894000	25.282680	0.000940	20.765781
933.252878	-3.015300	3.608000	-10.878000	25.312731	0.000940	20.753280
934.262206	-3.004400	3.608300	-10.839000	25.325753	0.000941	20.743120
935.262885	-3.009700	3.607500	-10.856000	25.297570	0.000940	20.771249
936.250936	-2.996400	3.607500	-10.809000	25.299804	0.000940	20.759741
937.258939	-2.987700	3.607500	-10.777000	25.292622	0.000940	20.786669
938.253644	-2.980700	3.609400	-10.757000	25.302687	0.000938	20.757894
939.252833	-2.982300	3.607500	-10.756000	25.307232	0.000937	20.760087
940.258607	-2.980900	3.607900	-10.754000	25.245863	0.000939	20.744464
941.253111	-3.000300	3.605600	-10.817000	25.228738	0.000937	20.752401
942.259369	-2.978500	3.606900	-10.741000	25.242808	0.000938	20.767002
943.256627	-2.976200	3.606500	-10.733000	25.244270	0.000935	20.741442
944.254822	-2.987200	3.606100	-10.771000	25.242036	0.000935	20.750579
945.257866	-2.993700	3.606600	-10.796000	25.238155	0.000936	20.746208
946.255120	-2.999700	3.604700	-10.810000	25.232438	0.000936	20.751374
947.258267	-2.995800	3.605800	-10.800000	25.213354	0.000935	20.759716
948.255067	-3.001900	3.603800	-10.817000	25.236664	0.000933	20.744711
949.262011	-3.004900	3.603300	-10.826000	25.271386	0.000933	20.781944
950.259975	-2.995700	3.603600	-10.795000	25.272586	0.000934	20.742370
951.257485	-2.981800	3.604300	-10.746000	25.276787	0.000932	20.763658
952.257832	-3.003900	3.602100	-10.820000	25.304699	0.000931	20.766078
953.255083	-2.984400	3.602200	-10.749000	25.323416	0.000931	20.759267
954.260615	-2.996400	3.602600	-10.794000	25.310017	0.000930	20.762883
955.257642	-2.999700	3.601800	-10.803000	25.271493	0.000931	20.757395
956.255845	-3.013600	3.601000	-10.851000	25.265255	0.000931	20.771521
957.262738	-2.991100	3.603700	-10.777000	25.280791	0.000930	20.760091
958.258885	-3.000700	3.602300	-10.809000	25.316057	0.000930	20.752826
959.260254	-3.008600	3.601000	-10.834000	25.344170	0.000929	20.760190
960.267157	-2.993800	3.601700	-10.781000	25.353019	0.000928	20.748687
961.263007	-3.001400	3.599600	-10.802000	25.367633	0.000929	20.742498
962.258967	-3.015100	3.599100	-10.851000	25.339846	0.000927	20.747788
963.259399	-2.995400	3.600400	-10.783000	25.296474	0.000928	20.748336
964.262265	-2.989200	3.598700	-10.756000	25.275522	0.000925	20.737731
965.264676	-2.973900	3.599900	-10.704000	25.271178	0.000926	20.752336
966.264112	-2.997500	3.597200	-10.781000	25.278926	0.000927	20.735933
967.260432	-2.990600	3.599300	-10.763000	25.277957	0.000924	20.752979
968.265942	-2.990400	3.599200	-10.761000	25.270052	0.000923	20.745042
969.267037	-2.982700	3.599100	-10.734000	25.288622	0.000922	20.741401
970.259984	-2.987400	3.597800	-10.747000	25.289394	0.000924	20.726528
971.261883	-2.967100	3.599300	-10.678000	25.265432	0.000923	20.737084
972.265814	-2.995400	3.596000	-10.770000	25.283506	0.000922	20.737686
973.269536	-3.009500	3.595900	-10.821000	25.302445	0.000923	20.738210
974.268089	-2.985000	3.597900	-10.738000	25.291259	0.000922	20.768231
975.263875	-3.007700	3.595500	-10.813000	25.288031	0.000922	20.744601
976.265336	-2.985900	3.594700	-10.732000	25.264365	0.000922	20.740280
977.266680	-3.011200	3.594700	-10.823000	25.231655	0.000921	20.761968
978.268921	-2.999400	3.594400	-10.780000	25.211047	0.000919	20.760718
979.263195	-3.008500	3.594400	-10.812000	25.211523	0.000922	20.750291
980.269528	-2.995600	3.594000	-10.765000	25.208439	0.000919	20.750039
981.262983	-3.008200	3.593200	-10.807000	25.239486	0.000918	20.747071
982.261680	-3.020300	3.592400	-10.849000	25.242911	0.000918	20.744819
983.268181	-3.020800	3.592100	-10.851000	25.272870	0.000917	20.738387
984.266158	-2.989500	3.592900	-10.739000	25.295086	0.000918	20.751684
985.263342	-2.994000	3.592900	-10.756000	25.291558	0.000917	20.738659
986.273590	-2.997600	3.591700	-10.766000	25.306145	0.000917	20.736234
987.273977	-2.987200	3.592500	-10.731000	25.296129	0.000916	20.742774
988.270443	-2.993500	3.592800	-10.753000	25.298539	0.000916	20.731443
989.269211	-2.977300	3.591300	-10.690000	25.294958	0.000915	20.749660
990.262761	-3.001300	3.590000	-10.774000	25.299808	0.000915	20.760694
991.266528	-2.996600	3.590100	-10.757000	25.279969	0.000915	20.768750
992.267316	-2.977400	3.588900	-10.684000	25.289439	0.000914	20.756446
993.266960	-2.983600	3.588800	-10.706000	25.314768	0.000912	20.742048
994.266899	-2.982600	3.590600	-10.708000	25.325005	0.000913	20.757069
995.268179	-2.996800	3.590800	-10.760000	25.336343	0.000912	20.765134
996.270800	-2.996900	3.590600	-10.760000	25.383138	0.000911	20.761386
997.264729	-2.979700	3.589700	-10.696000	25.408686	0.000912	20.746262
998.268722	-3.005600	3.589100	-10.785000	25.429163	0.000912	20.769195
999.268501	-2.991300	3.587800	-10.731000	25.442827	0.000911	20.760157
1000.271053	-3.014100	3.585700	-10.806000	25.463037	0.000910	20.737302
1001.266754	-3.000000	3.587700	-10.761000	25.473347	0.000910	20.750026
1002.270784	-3.029000	3.585700	-10.860000	25.505980	0.000911	20.780427
1003.272573	-3.027900	3.586900	-10.860000	25.485672	0.000909	20.758611
1004.268634	-3.007100	3.586400	-10.782000	25.482638	0.000909	20.758408
1005.271292	-2.989700	3.585400	-10.718000	25.490940	0.000911	20.741615
1006.271277	-2.999200	3.585800	-10.753000	25.505129	0.000911	20.751597
1007.273403	-2.980500	3.587700	-10.691000	25.502493	0.000909	20.770287
1008.275757	-2.981500	3.585600	-10.690000	25.492233	0.000908	20.764725
1009.269247	-3.014300	3.585200	-10.806000	25.500054	0.000908	20.748871
1010.273281	-2.984900	3.585000	-10.700000	25.484695	0.000907	20.740559
1011.271858	-2.994100	3.584800	-10.732000	25.523682	0.000908	20.753633
1012.270844	-2.985900	3.584500	-10.702000	25.473707	0.000907	20.750862
1013.272358	-2.988400	3.583300	-10.706000	25.420823	0.000906	20.757501
1014.274039	-2.990300	3.583300	-10.714000	25.418157	0.000905	20.747712
1015.272144	-2.995000	3.582800	-10.729000	25.401581	0.000905	20.755249
1016.271441	-2.986200	3.583300	-10.699000	25.392708	0.000906	20.738278
1017.275851	-3.000100	3.582300	-10.746000	25.372723	0.000904	20.762782
1018.272479	-3.011400	3.582100	-10.787000	25.398173	0.000903	20.765103
1019.277122	-3.017400	3.580700	-10.803000	25.379531	0.000902	20.763928
1020.281705	-3.011200	3.582300	-10.785000	25.375581	0.000902	20.763281
1021.274193	-2.979000	3.580800	-10.666000	25.409177	0.000900	20.762402
1022.276381	-3.007600	3.580200	-10.767000	25.439717	0.000901	20.758930
1023.278118	-2.986600	3.581700	-10.696000	25.442998	0.000900	20.756535
1024.277035	-2.992200	3.580000	-10.710000	25.469342	0.000900	20.768290
1025.275856	-2.983400	3.582000	-10.685000	25.472819	0.000901	20.773679
1026.280212	-2.989700	3.580600	-10.703000	25.528530	0.000898	20.754234
1027.277261	-3.015000	3.579500	-10.791000	25.520552	0.000897	20.761396
1028.279205	-2.966700	3.581000	-10.623000	25.509348	0.000900	20.775274
1029.277425	-2.985100	3.579900	-10.685000	25.511602	0.000898	20.769003
1030.279999	-2.982800	3.579300	-10.676000	25.550347	0.000897	20.770928
1031.282830	-2.997900	3.578400	-10.726000	25.546688	0.000896	20.770574
1032.277693	-2.987600	3.578200	-10.689000	25.557868	0.000898	20.773740
1033.283971	-3.004500	3.577500	-10.747000	25.590321	0.000896	20.763659
1034.283562	-2.999900	3.577300	-10.730000	25.584779	0.000895	20.770421
1035.284229	-3.000900	3.578000	-10.736000	25.571958	0.000893	20.774614
1036.283449	-2.974000	3.578100	-10.640000	25.515645	0.000893	20.766425
1037.282504	-2.991000	3.575900	-10.693000	25.493803	0.000894	20.785742
1038.280716	-2.984200	3.576100	-10.670000	25.438657	0.000893	20.763556
1039.287297	-3.027600	3.574300	-10.819000	25.388506	0.000893	20.774837
1040.289887	-2.987800	3.576600	-10.684000	25.368742	0.000892	20.780596
1041.287481	-3.006100	3.574100	-10.742000	25.376991	0.000893	20.764223
1042.287601	-2.999500	3.574800	-10.721000	25.348564	0.000892	20.774560
1043.285167	-2.988300	3.575000	-10.682000	25.362156	0.000891	20.779199
1044.284859	-3.011700	3.573900	-10.762000	25.359721	0.000892	20.770589
1045.285918	-3.019100	3.572600	-10.784000	25.380715	0.000890	20.785032
1046.286491	-3.000500	3.573600	-10.721000	25.393888	0.000891	20.771707
1047.283016	-2.985300	3.572600	-10.664000	25.420061	0.000890	20.745355
1048.287606	-2.987200	3.574700	-10.678000	25.442175	0.000887	20.778468
1049.288357	-2.998600	3.574600	-10.717000	25.479206	0.000890	20.770136
1050.289769	-2.989200	3.573400	-10.681000	25.501993	0.000888	20.765518
1051.288241	-3.011700	3.572000	-10.756000	25.507782	0.000889	20.793143
1052.292532	-3.001600	3.571000	-10.718000	25.490534	0.000887	20.785779
1053.288482	-2.984300	3.571000	-10.656000	25.465932	0.000887	20.793790
1054.284800	-2.996800	3.570200	-10.698000	25.499682	0.000887	20.787853
1055.285496	-2.990600	3.571200	-10.679000	25.507010	0.000885	20.780039
1056.285894	-3.004600	3.568300	-10.720000	25.507930	0.000885	20.796136
1057.290012	-3.027700	3.569000	-10.804000	25.504724	0.000884	20.779639
1058.286661	-3.014900	3.570100	-10.762000	25.516252	0.000883	20.791217
1059.290998	-3.009200	3.569300	-10.740000	25.494012	0.000881	20.791167
1060.290466	-3.011200	3.569400	-10.747000	25.527136	0.000882	20.783181
1061.289139	-3.010900	3.568700	-10.744000	25.513144	0.000881	20.798053
1062.293702	-2.982900	3.569400	-10.646000	25.538718	0.000882	20.801925
1063.294622	-2.992800	3.568100	-10.678000	25.543981	0.000881	20.789666
1064.297321	-2.998300	3.568700	-10.699000	25.554590	0.000880	20.780406
1065.291573	-3.005700	3.566400	-10.719000	25.535881	0.000882	20.791963
1066.294390	-2.995800	3.567400	-10.686000	25.544281	0.000878	20.797080
1067.292308	-3.014100	3.565500	-10.745000	25.520124	0.000878	20.795579
1068.298770	-2.999400	3.566300	-10.696000	25.538931	0.000878	20.786965
1069.291435	-2.996900	3.565700	-10.685000	25.562887	0.000879	20.783523
1070.292699	-3.028500	3.564600	-10.794000	25.557620	0.000878	20.777759
1071.296511	-3.006000	3.565000	-10.715000	25.581374	0.000876	20.783123
1072.295994	-2.981500	3.565400	-10.628000	25.591806	0.000875	20.792651
1073.296655	-2.995900	3.564400	-10.678000	25.613100	0.000875	20.805028
1074.299409	-3.004100	3.566100	-10.711000	25.619287	0.000876	20.783267
1075.301426	-2.994200	3.565800	-10.675000	25.638146	0.000874	20.806001
1076.292883	-2.980700	3.564600	-10.624000	25.644329	0.000873	20.793719
1077.299362	-2.995500	3.563200	-10.671000	25.645252	0.000872	20.803655
1078.294244	-2.995000	3.563300	-10.671000	25.630318	0.000871	20.797665
1079.297213	-3.006400	3.561500	-10.707000	25.619603	0.000870	20.793541
1080.293842	-3.010500	3.562800	-10.725000	25.609737	0.000871	20.831048
1081.310712	-2.984100	3.562300	-10.629000	25.586481	0.000872	20.799157
1082.297058	-3.011200	3.562100	-10.725000	25.583964	0.000870	20.815121
1083.294343	-2.986300	3.562500	-10.638000	25.600669	0.000871	20.812458
1084.296731	-2.981000	3.561600	-10.614000	25.605209	0.000870	20.809431
1085.300714	-2.998500	3.559300	-10.672000	25.621187	0.000869	20.807460
1086.298845	-3.010600	3.559600	-10.716000	25.611843	0.000871	20.782429
1087.297037	-2.987500	3.560600	-10.636000	25.646623	0.000866	20.792229
1088.299434	-2.975300	3.561200	-10.595000	25.666898	0.000870	20.823973
1089.299352	-3.008800	3.558800	-10.707000	25.660884	0.000868	20.809398
1090.300913	-3.001400	3.560200	-10.685000	25.675666	0.000869	20.778726
1091.298984	-2.990000	3.558500	-10.639000	25.702550	0.000867	20.809521
1092.302608	-2.999300	3.556700	-10.666000	25.666397	0.000868	20.796443
1093.302969	-3.015400	3.557400	-10.726000	25.664184	0.000865	20.817928
1094.303072	-2.982300	3.558300	-10.611000	25.679759	0.000865	20.809863
1095.304865	-2.973500	3.559200	-10.582000	25.660202	0.000864	20.821041
1096.301665	-2.995700	3.558100	-10.658000	25.643403	0.000864	20.803695
1097.307062	-2.983800	3.558400	-10.616000	25.613710	0.000862	20.817969
1098.301420	-2.970600	3.557300	-10.567000	25.590330	0.000862	20.801126
1099.304585	-2.976900	3.556700	-10.586000	25.595096	0.000861	20.817767
1100.305377	-2.997600	3.556200	-10.659000	25.629133	0.000862	20.797423
1101.305507	-3.004300	3.553600	-10.675000	25.649881	0.000861	20.806882
1102.304505	-2.994800	3.555300	-10.647000	25.637036	0.000862	20.806309
1103.306449	-3.010500	3.554500	-10.700000	25.618423	0.000860	20.828866
1104.302950	-3.006700	3.555100	-10.688000	25.595585	0.000859	20.834852
1105.307881	-3.020000	3.554400	-10.733000	25.564474	0.000861	20.828738
1106.310976	-3.023300	3.552800	-10.739000	25.538005	0.000858	20.830131
1107.305486	-3.017000	3.553600	-10.719000	25.512534	0.000858	20.832526
1108.311103	-2.995700	3.552900	-10.642000	25.482241	0.000856	20.832452
1109.309181	-3.003400	3.552200	-10.666000	25.533407	0.000858	20.844479
1110.311446	-3.003200	3.551600	-10.664000	25.492649	0.000856	20.817300
1111.306549	-2.990700	3.552900	-10.625000	25.499034	0.000857	20.828927
1112.313309	-3.000800	3.551600	-10.656000	25.481933	0.000855	20.800849
1113.308878	-2.999400	3.552400	-10.654000	25.492370	0.000856	20.825080
1114.309742	-2.999700	3.552500	-10.656000	25.518462	0.000855	20.814298
1115.311887	-2.976600	3.551900	-10.572000	25.527753	0.000853	20.831689
1116.308893	-2.996000	3.551400	-10.639000	25.556849	0.000855	20.830089
1117.311543	-3.009300	3.548700	-10.679000	25.585521	0.000853	20.826168
1118.308589	-2.987500	3.549800	-10.604000	25.639765	0.000851	20.821851
1119.316808	-3.009700	3.548300	-10.678000	25.650368	0.000852	20.837242
1120.311924	-3.003700	3.549200	-10.659000	25.676781	0.000854	20.822993
1121.314345	-2.989400	3.550400	-10.613000	25.677450	0.000850	20.834096
1122.317748	-2.974100	3.548800	-10.553000	25.641793	0.000850	20.836215
1123.315611	-2.999000	3.548700	-10.641000	25.647950	0.000849	20.844770
1124.315316	-3.001000	3.546600	-10.642000	25.689715	0.000849	20.835510
1125.319039	-2.993500	3.547800	-10.620000	25.689293	0.000848	20.841723
1126.315887	-2.979400	3.548800	-10.571000	25.690356	0.000848	20.836627
1127.316474	-3.005100	3.546400	-10.656000	25.703771	0.000849	20.852472
1128.318934	-3.019500	3.545000	-10.702000	25.677035	0.000847	20.838895
1129.319216	-3.012400	3.544300	-10.676000	25.673459	0.000847	20.848106
1130.321149	-3.008000	3.545900	-10.665000	25.702921	0.000844	20.856359
1131.314053	-3.006200	3.545000	-10.656000	25.682420	0.000844	20.846675
1132.314501	-2.986100	3.546100	-10.589000	25.689875	0.000845	20.855110
1133.324215	-2.988300	3.544600	-10.591000	25.674789	0.000845	20.832372
1134.315293	-2.983300	3.544600	-10.573000	25.692281	0.000845	20.850888
1135.315115	-3.004600	3.545100	-10.651000	25.693323	0.000843	20.849091
1136.321517	-3.029900	3.543600	-10.734000	25.669444	0.000841	20.851659
1137.314537	-2.980600	3.546100	-10.568000	25.668771	0.000843	20.876112
1138.314825	-3.028900	3.542100	-10.727000	25.648992	0.000842	20.851032
1139.313432	-3.009800	3.542200	-10.660000	25.690064	0.000842	20.860041
1140.313857	-3.016900	3.542000	-10.685000	25.688495	0.000840	20.883120
1141.313549	-2.996200	3.542100	-10.612000	25.703027	0.000839	20.858363
1142.313873	-3.004700	3.541800	-10.641000	25.730805	0.000841	20.849754
1143.313795	-2.989700	3.540900	-10.585000	25.715867	0.000837	20.858457
1144.315609	-2.986200	3.541800	-10.576000	25.728666	0.000839	20.856615
1145.313865	-2.991500	3.541900	-10.595000	25.724044	0.000836	20.854817
1146.316468	-2.992900	3.540600	-10.596000	25.739692	0.000838	20.852042
1147.313486	-2.981800	3.540500	-10.556000	25.698421	0.000837	20.858004
1148.319220	-3.005900	3.539700	-10.639000	25.708187	0.000836	20.862123
1149.323908	-2.989800	3.539200	-10.580000	25.715288	0.000835	20.848393
1150.314789	-2.999100	3.538900	-10.613000	25.722345	0.000837	20.858325
1151.323602	-3.011200	3.538500	-10.655000	25.742023	0.000836	20.855806
1152.327187	-3.010600	3.538700	-10.653000	25.777919	0.000834	20.859146
1153.321588	-2.996300	3.538000	-10.600000	25.826042	0.000835	20.876664
1154.323203	-3.001300	3.539600	-10.622000	25.846437	0.000833	20.856849
1155.324725	-2.994300	3.538700	-10.594000	25.830639	0.000831	20.865635
1156.320159	-3.014900	3.537100	-10.663000	25.862784	0.000831	20.857150
1157.322442	-3.000900	3.537600	-10.615000	25.858188	0.000832	20.858222
1158.325336	-2.990400	3.537200	-10.576000	25.876567	0.000831	20.884270
1159.324625	-2.999700	3.536500	-10.607000	25.897683	0.000830	20.864707
1160.325789	-3.004800	3.536800	-10.625000	25.897236	0.000832	20.877533
1161.334593	-2.975600	3.536400	-10.522000	25.899021	0.000828	20.880749
1162.321699	-3.001800	3.535200	-10.610000	25.919066	0.000829	20.869119
1163.331873	-2.998900	3.535500	-10.602000	25.889109	0.000828	20.867474
1164.338686	-3.014100	3.534800	-10.653000	25.884389	0.000827	20.867948
1165.321210	-2.995100	3.534500	-10.584000	25.877285	0.000828	20.862708
1166.327857	-3.002500	3.535200	-10.613000	25.861163	0.000827	20.852203
1167.326052	-3.011600	3.533600	-10.641000	25.858031	0.000826	20.866126
1168.326587	-3.023700	3.532800	-10.681000	25.840173	0.000825	20.871419
1169.325273	-3.005600	3.533600	-10.618000	25.825939	0.000825	20.876560
1170.327131	-2.986000	3.534100	-10.551000	25.780230	0.000825	20.872846
1171.327893	-2.989100	3.533500	-10.562000	25.754592	0.000825	20.882180
1172.327749	-3.011100	3.531000	-10.631000	25.731810	0.000823	20.862617
1173.326801	-2.999900	3.532300	-10.594000	25.772702	0.000823	20.871448
1174.331325	-2.978700	3.530600	-10.516000	25.791489	0.000821	20.879414
1175.329270	-2.987000	3.531200	-10.546000	25.818723	0.000821	20.872632
1176.331013	-2.994400	3.530800	-10.571000	25.822623	0.000823	20.888401
1177.330630	-2.984800	3.531400	-10.539000	25.850102	0.000822	20.893720
1178.327257	-3.040500	3.529400	-10.729000	25.868662	0.000821	20.888183
1179.328249	-2.994000	3.530200	-10.568000	25.888736	0.000820	20.884641
1180.333542	-3.005000	3.529400	-10.605000	25.878923	0.000819	20.897542
1181.332508	-2.992200	3.529000	-10.557000	25.878952	0.000818	20.887140
1182.330818	-2.993800	3.528500	-10.563000	25.901337	0.000816	20.889713
1183.338840	-2.991200	3.528700	-10.554000	25.908072	0.000817	20.872772
1184.333735	-2.976300	3.528100	-10.500000	25.917240	0.000818	20.884827
1185.332490	-2.991500	3.527700	-10.553000	25.922958	0.000817	20.883933
1186.334998	-2.988400	3.528200	-10.542000	25.935258	0.000815	20.872109
1187.334630	-3.006500	3.525600	-10.597000	25.907218	0.000816	20.874286
1188.330558	-2.984200	3.527500	-10.526000	25.863274	0.000816	20.881348
1189.331653	-2.989000	3.527400	-10.542000	25.847353	0.000814	20.887639
1190.334444	-3.007800	3.525500	-10.602000	25.852098	0.000815	20.863484
1191.332859	-3.019200	3.526100	-10.645000	25.863332	0.000813	20.892311
1192.332491	-2.995100	3.524400	-10.555000	25.864403	0.000815	20.900499
1193.335365	-2.982900	3.526300	-10.516000	25.884034	0.000812	20.881814
1194.330938	-3.001800	3.523200	-10.575000	25.852464	0.000811	20.889928
1195.333845	-3.008600	3.523900	-10.601000	25.843569	0.000813	20.890951
1196.333704	-3.001800	3.522800	-10.573000	25.846882	0.000810	20.899019
1197.335111	-2.996600	3.523300	-10.557000	25.868471	0.000811	20.904585
1198.333713	-2.998400	3.523200	-10.563000	25.858239	0.000809	20.906634
1199.334336	-3.000100	3.522600	-10.567000	25.855735	0.000810	20.889896
1200.334505	-2.994300	3.522600	-10.547000	25.863563	0.000810	20.913878
1201.335925	-2.984000	3.522800	-10.511000	25.803399	0.000809	20.876679
1202.335386	-3.020400	3.521200	-10.634000	25.775353	0.000809	20.896868
1203.333953	-3.018400	3.520400	-10.624000	25.763457	0.000808	20.890610
1204.338466	-2.985800	3.521800	-10.514000	25.764131	0.000808	20.893182
1205.337301	-2.987700	3.520500	-10.517000	25.777077	0.000807	20.912823
1206.336381	-2.991700	3.520500	-10.531000	25.793126	0.000807	20.898126
1207.339205	-3.019400	3.518400	-10.623000	25.843760	0.000807	20.884978
1208.338512	-3.001600	3.518900	-10.562000	25.838740	0.000807	20.862394
1209.337572	-2.995600	3.518600	-10.539000	25.844979	0.000805	20.884306
1210.339386	-2.993000	3.518700	-10.530000	25.871239	0.000804	20.893616
1211.338937	-3.036300	3.515800	-10.674000	25.892507	0.000804	20.887481
1212.348060	-2.996300	3.517600	-10.539000	25.891539	0.000803	20.908792
1213.341029	-2.988100	3.519700	-10.517000	25.889897	0.000803	20.912362
1214.339973	-2.993000	3.516500	-10.523000	25.890447	0.000804	20.908169
1215.347754	-2.992200	3.517400	-10.523000	25.855092	0.000801	20.907266
1216.340332	-2.987200	3.518100	-10.508000	25.898397	0.000802	20.902406
1217.338993	-2.984700	3.516200	-10.492000	25.855741	0.000802	20.908866
1218.340390	-3.002100	3.516100	-10.555000	25.841064	0.000800	20.895546
1219.343625	-2.999400	3.516600	-10.547000	25.819995	0.000800	20.919898
1220.337279	-2.973200	3.517900	-10.457000	25.837115	0.000800	20.908173
1221.342018	-2.977900	3.515500	-10.468000	25.809714	0.000799	20.928535
1222.341695	-3.001800	3.514100	-10.547000	25.835896	0.000799	20.888459
1223.341289	-3.007900	3.514600	-10.571000	25.837755	0.000798	20.910239
1224.340908	-2.987900	3.514200	-10.499000	25.810403	0.000797	20.911212
1225.345308	-2.979600	3.514000	-10.469000	25.806553	0.000798	20.886958
1226.336619	-3.005800	3.513800	-10.560000	25.801188	0.000796	20.906697
1227.338369	-2.977600	3.513600	-10.461000	25.798307	0.000796	20.902855
1228.341705	-3.008900	3.511900	-10.566000	25.772365	0.000797	20.898608
1229.340859	-2.998700	3.512500	-10.532000	25.768815	0.000797	20.903576
1230.341798	-3.006400	3.511900	-10.557000	25.787269	0.000794	20.897932
1231.345675	-3.015800	3.510800	-10.587000	25.785681	0.000795	20.882587
1232.346094	-3.002700	3.510800	-10.540000	25.810079	0.000794	20.875801
1233.346750	-3.012700	3.509300	-10.571000	25.863420	0.000794	20.887659
1234.342606	-2.984100	3.511100	-10.475000	25.891912	0.000793	20.879298
1235.343624	-2.996100	3.509600	-10.514000	25.908132	0.000792	20.870936
1236.342352	-3.009900	3.510500	-10.565000	25.894941	0.000793	20.904149
1237.351527	-3.016000	3.508800	-10.581000	25.912302	0.000791	20.876547
1238.342932	-3.010900	3.508400	-10.563000	25.926038	0.000792	20.883235
1239.343389	-2.995000	3.508100	-10.505000	25.916623	0.000792	20.883733
1240.350434	-2.998400	3.508900	-10.520000	25.936097	0.000791	20.863470
1241.344808	-3.003500	3.507300	-10.532000	25.965733	0.000790	20.888025
1242.340784	-3.031600	3.506400	-10.629000	25.998839	0.000788	20.893784
1243.343416	-3.002800	3.505600	-10.525000	25.992010	0.000790	20.879813
1244.346734	-2.995400	3.507200	-10.504000	25.944687	0.000789	20.885374
1245.353212	-3.008100	3.506200	-10.546000	25.949009	0.000789	20.882603
1246.346207	-2.997500	3.506600	-10.510000	25.934451	0.000786	20.891212
1247.348670	-3.003100	3.505400	-10.526000	25.930450	0.000786	20.872020
1248.351996	-2.994600	3.505600	-10.497000	25.914078	0.000788	20.859367
1249.345833	-3.005200	3.503700	-10.527000	25.925829	0.000785	20.882550
1250.353599	-2.992000	3.504400	-10.484000	25.963290	0.000786	20.862814
1251.345412	-2.992600	3.503800	-10.484000	25.970989	0.000783	20.875290
1252.351244	-3.003000	3.503300	-10.520000	25.994238	0.000784	20.869724
1253.349125	-2.999200	3.503100	-10.506000	25.986888	0.000783	20.881305
1254.360472	-3.002500	3.503400	-10.517000	26.008671	0.000784	20.869526
1255.348358	-2.998400	3.501900	-10.498000	25.995285	0.000782	20.878361
1256.347033	-2.971100	3.505000	-10.412000	25.963492	0.000781	20.885300
1257.351225	-3.015300	3.502500	-10.560000	25.963069	0.000781	20.862117
1258.347833	-3.013300	3.502000	-10.550000	25.954623	0.000779	20.871175
1259.348659	-2.986000	3.500700	-10.452000	25.968810	0.000779	20.881635
1260.350854	-3.011300	3.499700	-10.537000	25.938978	0.000780	20.866838
1261.354908	-3.008400	3.500500	-10.530000	25.893964	0.000777	20.866187
1262.355395	-2.995600	3.500000	-10.483000	25.831881	0.000778	20.864987
1263.358427	-2.969000	3.499600	-10.389000	25.834393	0.000779	20.854235
1264.354901	-2.999600	3.498600	-10.493000	25.856085	0.000776	20.866067
1265.355781	-2.999000	3.498900	-10.492000	25.886987	0.000779	20.866764
1266.354698	-2.998700	3.498400	-10.490000	25.912425	0.000777	20.860551
1267.353027	-2.968300	3.497500	-10.380000	25.903104	0.000778	20.870153
1268.351272	-3.009000	3.497600	-10.523000	25.935847	0.000777	20.853736
1269.356381	-2.992900	3.498100	-10.468000	25.963964	0.000776	20.862068
1270.362050	-2.979000	3.499100	-10.422000	25.975812	0.000776	20.864488
1271.356127	-3.004800	3.495900	-10.503000	25.970399	0.000776	20.860472
1272.355648	-3.013900	3.494700	-10.532000	25.963861	0.000774	20.845844
1273.364112	-3.007600	3.496300	-10.514000	25.984130	0.000773	20.852457
1274.355389	-2.993200	3.496300	-10.464000	25.999778	0.000774	20.858221
1275.357175	-2.982000	3.496600	-10.426000	26.018656	0.000773	20.850161
1276.356069	-2.997500	3.494800	-10.474000	26.018331	0.000773	20.863111
1277.360884	-3.004300	3.494500	-10.498000	26.012492	0.000770	20.855821
1278.353348	-2.998900	3.494800	-10.479000	26.046549	0.000770	20.856374
1279.352845	-3.016900	3.492600	-10.536000	26.036983	0.000772	20.851031
1280.356658	-2.999400	3.493900	-10.478000	26.020318	0.000770	20.857046
1281.357380	-2.994500	3.492500	-10.458000	26.028238	0.000769	20.855046
1282.357347	-2.979900	3.492100	-10.405000	26.036634	0.000767	20.844516
1283.356139	-3.014500	3.492400	-10.526000	26.027864	0.000769	20.848033
1284.355881	-3.001300	3.492300	-10.481000	26.054694	0.000767	20.850808
1285.357470	-2.982100	3.492500	-10.414000	26.064526	0.000768	20.857367
1286.359963	-3.007800	3.490900	-10.498000	26.064383	0.000767	20.835887
1287.355179	-3.001900	3.490400	-10.476000	26.070435	0.000765	20.827744
1288.359839	-3.009500	3.491700	-10.508000	26.057624	0.000765	20.841424
1289.360904	-2.999500	3.491400	-10.470000	26.022800	0.000765	20.855273
1290.361173	-3.002100	3.488900	-10.473000	25.988874	0.000764	20.866232
1291.355990	-2.997700	3.488600	-10.456000	25.934349	0.000762	20.852705
1292.361136	-3.020900	3.487100	-10.533000	25.895975	0.000762	20.833121
1293.362693	-3.000100	3.487400	-10.461000	25.873590	0.000760	20.853781
1294.361757	-2.980700	3.487900	-10.395000	25.868201	0.000759	20.834143
1295.358744	-3.003800	3.486800	-10.473000	25.879829	0.000762	20.833022
1296.362783	-2.982300	3.487600	-10.399000	25.895208	0.000761	20.835669
1297.363750	-3.004900	3.486400	-10.475000	25.921688	0.000758	20.836193
1298.359157	-3.006800	3.485800	-10.480000	25.928423	0.000759	20.846752
1299.363873	-3.007400	3.484700	-10.479000	25.918610	0.000759	20.847325
1300.362416	-2.992200	3.486100	-10.430000	25.907660	0.000759	20.858609
1301.363538	-2.985300	3.485600	-10.405000	25.922464	0.000758	20.837446
1302.365160	-2.968800	3.485200	-10.346000	25.945024	0.000757	20.822179
1303.370873	-3.002500	3.484500	-10.461000	25.945320	0.000758	20.846657
1304.363507	-2.987300	3.483600	-10.406000	25.963726	0.000758	20.830062
1305.360456	-2.995000	3.483900	-10.431000	25.998178	0.000755	20.832433
1306.369574	-3.001300	3.482200	-10.450000	26.001810	0.000757	20.829444
1307.361161	-3.008500	3.482400	-10.476000	26.023893	0.000756	20.828871
1308.365061	-3.005600	3.482100	-10.464000	26.044186	0.000755	20.821759
1309.368026	-3.010400	3.480400	-10.474000	26.069341	0.000754	20.830912
1310.368872	-3.001800	3.481100	-10.449000	26.070014	0.000755	20.820683
1311.365588	-3.010400	3.480900	-10.477000	26.084598	0.000754	20.811629
1312.369078	-3.008100	3.480400	-10.468000	26.081890	0.000751	20.826451
1313.369483	-2.999300	3.479700	-10.435000	26.010954	0.000753	20.831044
1314.363576	-3.007300	3.479400	-10.462000	25.948735	0.000749	20.836338
1315.372324	-3.000900	3.477200	-10.433000	25.923942	0.000751	20.839879
1316.369734	-3.004300	3.477600	-10.447000	25.902929	0.000751	20.832520
1317.368758	-3.004700	3.479100	-10.451000	25.866639	0.000750	20.812186
1318.372534	-2.987700	3.478900	-10.394000	25.853969	0.000751	20.819846
1319.371288	-3.007900	3.479200	-10.464000	25.818494	0.000749	20.811712
1320.365007	-2.986000	3.477900	-10.384000	25.819417	0.000747	20.826864
1321.373322	-3.000200	3.478000	-10.433000	25.840191	0.000749	20.831135
1322.372527	-2.996700	3.479400	-10.425000	25.839148	0.000746	20.812071
1323.367333	-3.011500	3.476100	-10.467000	25.846002	0.000746	20.812318
1324.370910	-3.007500	3.476500	-10.455000	25.870054	0.000747	20.833634
1325.377861	-2.999100	3.475100	-10.421000	25.902794	0.000746	20.839497
1326.368385	-3.010600	3.473700	-10.457000	25.912730	0.000746	20.825297
1327.376703	-2.989000	3.474800	-10.385000	25.940782	0.000745	20.808435
1328.376455	-2.992900	3.474400	-10.397000	25.951440	0.000744	20.830048
1329.369695	-2.991000	3.473200	-10.388000	25.997470	0.000743	20.813230
1330.373469	-2.996400	3.474600	-10.410000	25.999682	0.000744	20.816401
1331.371061	-2.976200	3.473800	-10.337000	26.040219	0.000741	20.808291
1332.370187	-2.993400	3.473100	-10.395000	26.051619	0.000743	20.790347
1333.376046	-3.007700	3.471900	-10.440000	26.074920	0.000742	20.803327
1334.374310	-2.984700	3.471700	-10.361000	26.090070	0.000741	20.829454
1335.369833	-2.991100	3.472500	-10.384000	26.087341	0.000742	20.817230
1336.376522	-2.992000	3.471400	-10.386000	26.075145	0.000742	20.799760
1337.372432	-2.989400	3.471600	-10.377000	26.038956	0.000742	20.788529
1338.370600	-3.002900	3.470600	-10.421000	26.024281	0.000741	20.811717
1339.372615	-2.992200	3.471600	-10.387000	25.970775	0.000740	20.810118
1340.371833	-3.005500	3.470100	-10.428000	25.937462	0.000740	20.796565
1341.372149	-3.005400	3.469500	-10.427000	25.932275	0.000739	20.804156
1342.373765	-2.994600	3.470600	-10.392000	25.923755	0.000738	20.798915
1343.377466	-2.999600	3.468100	-10.402000	25.920746	0.000739	20.798738
1344.374315	-3.002500	3.466800	-10.409000	25.949487	0.000739	20.814810
1345.375655	-2.997800	3.467400	-10.392000	25.945092	0.000737	20.812290
1346.381581	-3.001800	3.467500	-10.408000	25.969207	0.000735	20.813284
1347.375523	-2.982300	3.468000	-10.341000	25.960938	0.000737	20.796441
1348.370792	-3.021700	3.466700	-10.474000	25.956214	0.000737	20.803549
1349.375506	-3.001600	3.466800	-10.405000	25.921661	0.000736	20.799183
1350.372413	-2.999500	3.467100	-10.398000	25.935964	0.000735	20.800275
1351.377801	-2.995200	3.465800	-10.380000	25.929356	0.000735	20.796482
1352.375593	-2.997500	3.465600	-10.388000	25.934076	0.000734	20.786525
1353.377779	-2.988500	3.465100	-10.354000	25.924907	0.000734	20.801970
1354.377356	-3.010100	3.464400	-10.428000	25.896038	0.000734	20.791934
1355.373460	-3.001400	3.463300	-10.394000	25.922120	0.000735	20.813394
1356.375607	-3.019300	3.464300	-10.459000	25.926914	0.000733	20.805882
1357.378061	-3.016500	3.462700	-10.444000	25.928650	0.000733	20.798143
1358.373652	-3.000500	3.462000	-10.387000	25.918266	0.000731	20.809049
1359.371702	-3.001800	3.463300	-10.395000	25.945390	0.000730	20.812590
1360.379369	-2.986600	3.463300	-10.343000	25.960120	0.000732	20.793723
1361.380711	-3.004200	3.460700	-10.396000	25.999763	0.000730	20.782343
1362.372873	-3.004100	3.460700	-10.395000	26.021074	0.000730	20.759657
1363.375719	-3.013900	3.460000	-10.426000	26.047026	0.000728	20.775775
1364.373883	-3.006100	3.457900	-10.394000	26.030730	0.000730	20.801602
1365.374359	-2.981200	3.459600	-10.313000	26.071541	0.000728	20.781914
1366.373782	-2.988900	3.459300	-10.339000	26.081122	0.000726	20.802921
1367.375024	-3.012200	3.459300	-10.419000	26.084175	0.000727	20.779910
1368.374946	-2.999800	3.460000	-10.378000	26.076104	0.000725	20.787921
1369.375716	-3.030400	3.458900	-10.480000	26.062866	0.000726	20.794535
1370.380330	-2.988000	3.460600	-10.339000	26.076354	0.000723	20.791966
1371.377088	-3.017900	3.456500	-10.429000	26.068151	0.000722	20.786094
1372.376512	-3.009600	3.456500	-10.401000	26.071356	0.000722	20.799746
1373.379267	-2.995500	3.458700	-10.360000	26.071926	0.000723	20.789413
1374.376780	-2.986100	3.458900	-10.326000	26.062311	0.000723	20.802038
1375.380050	-2.979600	3.456400	-10.297000	26.054830	0.000720	20.785987
1376.379489	-3.000500	3.454800	-10.365000	26.049561	0.000721	20.788279
1377.377440	-2.985600	3.454600	-10.312000	26.052466	0.000723	20.789776
1378.381736	-2.996900	3.455700	-10.355000	26.093941	0.000719	20.782610
1379.383469	-2.981500	3.455600	-10.301000	26.074494	0.000721	20.786304
1380.379690	-3.017400	3.453600	-10.419000	26.083555	0.000721	20.791614
1381.379779	-2.982900	3.455200	-10.306000	26.124413	0.000720	20.780985
1382.381830	-2.993200	3.454300	-10.338000	26.110051	0.000720	20.791684
1383.381196	-3.004300	3.453700	-10.375000	26.094133	0.000718	20.788019
1384.384432	-3.017800	3.453400	-10.420000	26.112607	0.000717	20.790460
1385.382116	-3.009800	3.451700	-10.388000	26.096562	0.000717	20.781925
1386.379091	-3.007300	3.451800	-10.379000	26.091716	0.000715	20.810720
1387.382823	-2.990300	3.452800	-10.322000	26.056766	0.000716	20.773233
1388.380873	-2.966400	3.450600	-10.235000	26.076488	0.000716	20.782143
1389.382196	-2.977900	3.451900	-10.278000	26.059519	0.000715	20.779793
1390.382778	-3.006500	3.450500	-10.372000	26.051148	0.000715	20.771381
1391.386757	-2.960100	3.450500	-10.212000	26.029558	0.000714	20.778139
1392.388130	-2.982000	3.450600	-10.288000	25.994783	0.000713	20.789193
1393.387535	-3.014400	3.446700	-10.389000	26.019147	0.000715	20.787119
1394.385642	-2.973400	3.448800	-10.253000	26.038890	0.000714	20.769022
1395.386034	-2.987300	3.448200	-10.300000	26.056302	0.000713	20.765180
1396.387730	-3.037200	3.446300	-10.466000	26.089385	0.000713	20.757642
1397.393208	-3.007400	3.446400	-10.363000	26.109327	0.000712	20.789535
1398.386244	-3.001800	3.447300	-10.347000	26.117624	0.000710	20.773216
1399.388229	-3.015600	3.446000	-10.391000	26.106246	0.000710	20.774584
1400.387881	-2.991700	3.445800	-10.308000	26.081579	0.000710	20.762602
1401.390213	-3.013800	3.444500	-10.379000	26.093923	0.000709	20.770737
1402.388993	-3.019800	3.444700	-10.400000	26.091859	0.000709	20.778147
1403.391180	-2.976200	3.444400	-10.250000	26.093471	0.000708	20.759852
1404.389266	-3.002500	3.444000	-10.339000	26.073081	0.000708	20.777771
1405.392082	-2.986400	3.444500	-10.286000	26.089076	0.000708	20.783886
1406.384751	-3.013500	3.443500	-10.376000	26.086471	0.000706	20.778423
1407.392250	-2.987000	3.443500	-10.284000	26.111945	0.000706	20.774621
1408.388535	-3.011200	3.443500	-10.367000	26.129630	0.000705	20.778641
1409.384689	-2.988900	3.443600	-10.292000	26.085170	0.000705	20.787073
1410.388254	-3.009900	3.442100	-10.359000	26.043842	0.000704	20.770205
1411.392918	-3.015600	3.441400	-10.378000	26.039919	0.000703	20.758677
1412.390316	-3.002000	3.442600	-10.333000	26.002062	0.000705	20.769005
1413.385310	-3.001700	3.441400	-10.328000	26.015551	0.000703	20.757428
1414.390989	-2.990900	3.441600	-10.293000	26.052735	0.000703	20.751639
1415.389339	-2.993300	3.440800	-10.298000	26.065231	0.000703	20.765616
1416.388927	-3.010100	3.440500	-10.355000	26.070889	0.000701	20.778414
1417.385014	-3.003000	3.440500	-10.330000	26.016869	0.000700	20.771554
1418.390969	-3.003900	3.438800	-10.329000	26.023275	0.000699	20.790792
1419.390734	-3.032200	3.438400	-10.425000	26.019327	0.000699	20.765488
1420.388378	-3.032800	3.438100	-10.425000	26.037568	0.000700	20.759634
1421.388681	-3.010200	3.436900	-10.345000	26.058554	0.000698	20.760805
1422.386931	-2.988400	3.439300	-10.278000	26.072864	0.000698	20.759061
1423.387877	-2.997400	3.438400	-10.305000	26.084883	0.000697	20.764499
1424.389563	-2.983700	3.438400	-10.258000	26.084760	0.000697	20.748728
1425.393470	-3.019300	3.436500	-10.375000	26.061562	0.000698	20.764775
1426.387318	-3.001900	3.436500	-10.315000	26.043010	0.000696	20.759885
1427.387152	-3.013700	3.434200	-10.348000	26.060471	0.000696	20.773162
1428.390333	-2.994800	3.436300	-10.290000	26.031540	0.000697	20.767802
1429.397480	-2.987300	3.434500	-10.260000	26.010578	0.000695	20.779458
1430.396986	-2.994000	3.433900	-10.281000	26.060602	0.000693	20.756224
1431.394065	-3.015200	3.433600	-10.352000	26.075585	0.000696	20.775071
1432.393050	-2.989400	3.434300	-10.266000	26.102734	0.000695	20.773901
1433.392469	-3.015400	3.433200	-10.352000	26.133681	0.000691	20.767539
1434.396004	-3.006500	3.431500	-10.315000	26.160927	0.000694	20.760302
1435.393059	-2.987400	3.434100	-10.257000	26.175732	0.000693	20.751471
1436.391761	-2.980900	3.434700	-10.238000	26.180327	0.000691	20.762727
1437.392379	-3.008600	3.431000	-10.320000	26.161088	0.000689	20.757619
1438.389518	-3.018200	3.431300	-10.354000	26.166356	0.000690	20.754378
1439.404838	-2.986700	3.430500	-10.245000	26.166631	0.000691	20.757974
1440.399202	-2.991000	3.430600	-10.260000	26.135315	0.000690	20.760171
1441.396499	-2.972000	3.431500	-10.196000	26.105197	0.000689	20.763099
1442.396760	-2.988200	3.430900	-10.250000	26.067769	0.000688	20.752519
1443.398245	-2.979000	3.431100	-10.220000	25.997997	0.000688	20.765396
1444.393077	-2.989100	3.431400	-10.256000	25.950806	0.000688	20.764926
1445.396718	-3.011000	3.428400	-10.322000	25.923289	0.000686	20.771420
1446.396882	-3.004800	3.428200	-10.300000	25.929109	0.000687	20.763042
1447.397529	-3.002800	3.429700	-10.297000	25.939365	0.000687	20.767656
1448.405798	-3.035800	3.426400	-10.401000	25.964334	0.000686	20.761447
1449.403833	-2.995300	3.428400	-10.268000	25.964068	0.000685	20.768291
1450.401838	-2.997200	3.425900	-10.266000	25.982174	0.000684	20.760878
1451.400077	-2.986500	3.426600	-10.233000	25.972243	0.000686	20.751848
1452.399930	-3.011800	3.425600	-10.316000	25.993534	0.000684	20.772291
1453.398036	-2.996300	3.425400	-10.262000	26.017308	0.000683	20.735009
1454.403469	-2.977600	3.425900	-10.200000	26.047983	0.000684	20.762985
1455.402544	-2.979500	3.425300	-10.205000	26.037084	0.000681	20.761518
1456.403956	-3.010800	3.424500	-10.310000	26.059937	0.000683	20.757452
1457.405022	-2.981300	3.425000	-10.210000	26.038652	0.000679	20.751713
1458.399578	-2.985600	3.422700	-10.218000	26.027629	0.000681	20.746328
1459.402500	-2.999400	3.422300	-10.263000	26.015733	0.000681	20.759032
1460.403418	-3.009000	3.423000	-10.298000	25.992558	0.000682	20.740016
1461.406786	-2.986900	3.422700	-10.221000	25.975769	0.000681	20.757762
1462.405421	-3.001900	3.422000	-10.272000	26.012163	0.000681	20.747384
1463.406136	-3.029500	3.421000	-10.363000	26.044430	0.000680	20.762735
1464.402674	-2.990600	3.423000	-10.236000	26.044976	0.000679	20.737678
1465.403368	-2.963900	3.424000	-10.148000	26.106098	0.000679	20.773962
1466.416260	-2.983800	3.421300	-10.207000	26.157636	0.000676	20.756047
1467.401845	-2.998200	3.419600	-10.252000	26.145195	0.000677	20.763461
1468.406309	-2.989800	3.421600	-10.229000	26.188853	0.000677	20.759915
1469.407800	-3.007100	3.419600	-10.282000	26.198020	0.000678	20.738305
1470.405222	-3.011800	3.419900	-10.299000	26.242644	0.000676	20.760863
1471.401989	-2.990200	3.418400	-10.221000	26.226306	0.000675	20.743022
1472.410999	-2.995800	3.417400	-10.237000	26.240162	0.000674	20.754101
1473.404033	-3.000500	3.418400	-10.255000	26.258366	0.000674	20.760068
1474.402277	-3.029900	3.416200	-10.349000	26.243145	0.000674	20.752357
1475.407854	-2.994800	3.417400	-10.233000	26.261374	0.000673	20.757400
1476.402629	-2.996200	3.417200	-10.237000	26.252188	0.000673	20.765713
1477.406488	-2.978700	3.416800	-10.175000	26.266342	0.000673	20.747220
1478.405864	-2.992400	3.416600	-10.223000	26.267335	0.000670	20.747744
1479.405837	-3.010200	3.414400	-10.277000	26.251740	0.000674	20.769057
1480.403015	-3.002500	3.416000	-10.256000	26.233216	0.000672	20.754708
1481.406144	-2.989300	3.416300	-10.212000	26.218810	0.000673	20.751611
1482.407417	-3.003600	3.415300	-10.258000	26.239945	0.000670	20.744874
1483.404850	-2.997800	3.413200	-10.231000	26.253706	0.000670	20.761074
1484.404330	-3.037100	3.411400	-10.359000	26.252109	0.000668	20.759944
1485.406651	-3.001100	3.412500	-10.239000	26.216972	0.000670	20.763515
1486.408913	-2.981500	3.414100	-10.178000	26.217518	0.000668	20.770702
1487.409681	-2.963800	3.413400	-10.115000	26.223077	0.000668	20.758744
1488.408038	-3.001400	3.411100	-10.237000	26.248684	0.000667	20.760295
1489.407368	-2.981300	3.413200	-10.175000	26.235571	0.000665	20.772248
1490.410428	-3.002300	3.412300	-10.244000	26.267532	0.000666	20.762641
1491.411086	-2.995400	3.411200	-10.217000	26.247666	0.000666	20.755953
1492.406226	-3.011300	3.409800	-10.267000	26.240810	0.000668	20.778935
1493.410089	-3.017400	3.410000	-10.289000	26.215827	0.000665	20.763787
1494.409479	-2.986000	3.409300	-10.178000	26.194274	0.000665	20.760146
1495.410052	-2.983300	3.409900	-10.172000	26.153390	0.000663	20.753677
1496.409955	-2.985900	3.409600	-10.180000	26.113235	0.000664	20.765960
1497.411526	-2.993900	3.408300	-10.203000	26.118150	0.000664	20.735336
1498.411840	-3.024100	3.408100	-10.305000	26.102849	0.000664	20.771645
1499.408799	-2.996400	3.408500	-10.213000	26.102131	0.000662	20.766182
1500.411435	-2.994800	3.408100	-10.206000	26.115742	0.000664	20.755202
1501.411982	-3.015700	3.406900	-10.273000	26.119065	0.000660	20.775612
1502.415810	-3.002500	3.406300	-10.226000	26.130292	0.000660	20.793057
1503.410581	-3.001500	3.406000	-10.222000	26.121076	0.000662	20.774313
1504.422287	-3.020800	3.404700	-10.284000	26.141289	0.000660	20.770441
1505.415715	-3.018700	3.403400	-10.273000	26.165354	0.000658	20.776131
1506.416020	-3.021900	3.404200	-10.286000	26.199254	0.000659	20.775109
1507.420945	-3.012500	3.404400	-10.255000	26.180877	0.000659	20.781772
1508.416082	-2.999300	3.403700	-10.207000	26.149930	0.000657	20.768219
1509.414951	-3.009400	3.403000	-10.240000	26.143968	0.000658	20.787832
1510.412505	-3.007800	3.404400	-10.239000	26.151715	0.000657	20.787082
1511.423625	-2.992300	3.402600	-10.180000	26.135499	0.000656	20.766994
1512.414405	-3.028400	3.402000	-10.301000	26.116176	0.000656	20.779347
1513.417532	-2.983000	3.402100	-10.148000	26.078773	0.000657	20.797715
1514.417453	-2.989600	3.402500	-10.171000	26.023362	0.000655	20.784715
1515.419401	-2.986500	3.402500	-10.159000	26.047204	0.000655	20.770264
1516.415971	-2.991900	3.403100	-10.180000	26.056544	0.000654	20.785338
1517.416259	-3.012900	3.399800	-10.242000	26.096061	0.000653	20.778102
1518.420786	-3.007100	3.401800	-10.227000	26.130903	0.000653	20.777075
1519.416805	-3.000800	3.398900	-10.197000	26.135897	0.000652	20.778774
1520.421079	-3.014400	3.399700	-10.246000	26.153701	0.000651	20.778646
1521.420326	-2.982600	3.400100	-10.141000	26.189169	0.000650	20.782518
1522.414509	-3.005200	3.399200	-10.215000	26.224508	0.000652	20.779149
1523.418376	-2.998800	3.398800	-10.191000	26.268217	0.000649	20.786563
1524.423001	-2.989900	3.397800	-10.159000	26.284033	0.000652	20.766895
1525.424724	-3.010100	3.397700	-10.226000	26.292279	0.000648	20.790830
1526.421034	-2.988000	3.397700	-10.151000	26.242861	0.000650	20.785738
1527.426504	-3.001500	3.398100	-10.198000	26.192923	0.000648	20.797670
1528.419834	-3.013600	3.397100	-10.236000	26.216438	0.000648	20.793324
1529.425079	-3.008000	3.397000	-10.217000	26.230721	0.000648	20.788711
1530.418839	-3.014700	3.395600	-10.236000	26.236309	0.000648	20.791007
1531.421788	-3.000800	3.395600	-10.188000	26.264496	0.000646	20.788039
1532.424946	-3.005900	3.394500	-10.202000	26.306910	0.000645	20.803637
1533.423137	-3.014000	3.395500	-10.233000	26.308969	0.000644	20.798594
1534.416714	-2.990000	3.394500	-10.147000	26.318906	0.000646	20.797201
1535.421745	-3.019600	3.394600	-10.250000	26.332436	0.000644	20.802738
1536.423503	-2.981000	3.395500	-10.121000	26.335936	0.000642	20.797246
1537.419402	-3.031400	3.394100	-10.288000	26.343858	0.000644	20.781974
1538.422308	-3.001500	3.394200	-10.186000	26.353269	0.000642	20.792380
1539.423116	-3.005600	3.391900	-10.193000	26.328313	0.000642	20.807603
1540.424289	-2.991400	3.392900	-10.148000	26.289728	0.000641	20.802016
1541.422662	-3.010900	3.391300	-10.210000	26.299808	0.000643	20.793180
1542.428635	-2.990400	3.391800	-10.142000	26.305396	0.000642	20.800693
1543.423446	-3.005900	3.391800	-10.194000	26.333905	0.000640	20.789041
1544.422994	-3.015600	3.391200	-10.225000	26.341031	0.000641	20.789090
1545.427262	-3.027400	3.390000	-10.262000	26.369663	0.000640	20.794158
1546.424947	-2.995700	3.389900	-10.154000	26.400972	0.000641	20.815194
1547.424832	-3.007100	3.389100	-10.191000	26.387118	0.000641	20.785623
1548.424702	-2.998200	3.389900	-10.163000	26.373137	0.000638	20.804288
1549.425712	-3.012500	3.388700	-10.206000	26.372641	0.000636	20.816117
1550.425152	-3.011400	3.387900	-10.200000	26.329138	0.000638	20.790888
1551.423704	-2.984200	3.390500	-10.116000	26.297507	0.000637	20.790394
1552.422093	-3.006300	3.388100	-10.184000	26.273518	0.000637	20.805641
1553.425919	-3.013100	3.387200	-10.204000	26.249381	0.000634	20.801773
1554.425257	-3.002800	3.386300	-10.168000	26.279352	0.000635	20.800598
1555.425599	-2.983600	3.387300	-10.106000	26.268033	0.000635	20.812456
1556.431570	-2.985900	3.385900	-10.108000	26.240843	0.000634	20.779917
1557.429081	-2.996400	3.385700	-10.144000	26.254330	0.000633	20.805324
1558.426067	-2.994800	3.385300	-10.136000	26.211417	0.000632	20.804400
1559.435557	-3.013100	3.385500	-10.200000	26.221974	0.000630	20.828285
1560.424482	-3.006500	3.383900	-10.172000	26.208738	0.000631	20.798389
1561.427810	-2.990100	3.384200	-10.118000	26.193220	0.000632	20.790382
1562.427000	-2.999000	3.383900	-10.148000	26.173082	0.000632	20.798596
1563.431020	-2.992900	3.383600	-10.126000	26.173530	0.000631	20.838873
1564.428810	-2.998800	3.383000	-10.144000	26.216620	0.000631	20.806310
1565.430262	-3.004000	3.382300	-10.160000	26.208082	0.000630	20.797730
1566.430662	-2.991300	3.383700	-10.121000	26.212776	0.000629	20.811456
1567.429421	-2.995400	3.382600	-10.130000	26.256313	0.000629	20.830076
1568.431185	-2.966600	3.383500	-10.036000	26.227059	0.000628	20.800204
1569.429582	-2.978700	3.382400	-10.074000	26.265631	0.000628	20.828534
1570.432264	-2.996900	3.382400	-10.136000	26.280331	0.000628	20.812487
1571.430442	-3.007800	3.379800	-10.165000	26.308713	0.000627	20.813510
1572.427657	-3.020900	3.379500	-10.208000	26.342761	0.000626	20.831132
1573.431520	-3.023600	3.378800	-10.214000	26.355332	0.000625	20.808204
1574.430954	-3.000100	3.380200	-10.139000	26.375171	0.000627	20.811548
1575.430715	-2.999100	3.379800	-10.136000	26.417724	0.000626	20.826341
1576.431786	-3.001100	3.378700	-10.138000	26.386518	0.000626	20.821055
1577.434294	-3.007800	3.379600	-10.164000	26.373461	0.000625	20.828320
1578.434852	-3.039800	3.378200	-10.268000	26.383540	0.000624	20.825648
1579.434119	-3.004200	3.378900	-10.148000	26.346171	0.000624	20.831239
1580.435234	-3.003900	3.378200	-10.146000	26.359086	0.000623	20.814348
1581.435447	-2.999100	3.377400	-10.128000	26.358786	0.000623	20.841073
1582.431634	-3.008800	3.376300	-10.157000	26.343020	0.000622	20.835185
1583.432198	-3.008400	3.376200	-10.156000	26.335693	0.000621	20.818813
1584.435879	-2.989200	3.378700	-10.098000	26.375627	0.000621	20.813429
1585.435401	-3.007500	3.375100	-10.149000	26.340887	0.000620	20.822136
1586.435454	-3.010100	3.375900	-10.159000	26.334980	0.000620	20.817622
1587.433618	-3.017000	3.374000	-10.179000	26.245405	0.000621	20.821010
1588.433857	-3.028900	3.375200	-10.222000	26.269767	0.000618	20.826527
1589.434513	-3.002300	3.375400	-10.133000	26.279553	0.000619	20.846791
1590.435826	-3.006900	3.375200	-10.147000	26.276102	0.000619	20.833841
1591.436215	-3.014500	3.372700	-10.166000	26.320920	0.000617	20.825302
1592.437088	-3.006900	3.373500	-10.143000	26.353203	0.000617	20.835936
1593.437406	-2.994200	3.374300	-10.103000	26.366737	0.000617	20.832943
1594.438133	-3.006300	3.372800	-10.138000	26.356107	0.000616	20.835536
1595.438862	-3.028900	3.372100	-10.213000	26.353679	0.000616	20.830250
1596.437383	-3.049300	3.370600	-10.276000	26.371307	0.000616	20.829949
1597.443004	-3.015900	3.372500	-10.169000	26.385534	0.000614	20.830498
1598.440742	-3.017400	3.371100	-10.171000	26.373096	0.000613	20.832221
1599.437990	-3.007600	3.371000	-10.137000	26.361572	0.000612	20.835338
1600.439638	-2.997000	3.370800	-10.101000	26.308563	0.000611	20.818574
1601.436587	-3.024000	3.370100	-10.190000	26.272106	0.000613	20.838834
1602.436948	-2.986500	3.370800	-10.065000	26.274441	0.000610	20.838810
1603.438474	-2.988700	3.370800	-10.073000	26.299820	0.000612	20.821642
1604.442175	-3.013100	3.369100	-10.149000	26.288649	0.000610	20.852613
1605.437731	-2.987000	3.368800	-10.062000	26.299653	0.000610	20.819577
1606.443539	-3.000100	3.368700	-10.106000	26.317680	0.000609	20.849072
1607.441295	-2.973700	3.369400	-10.018000	26.359226	0.000611	20.845308
1608.439823	-2.998300	3.367200	-10.094000	26.383660	0.000609	20.868916
1609.439132	-2.975100	3.367900	-10.019000	26.444640	0.000610	20.835850
1610.442480	-2.988200	3.369000	-10.065000	26.450375	0.000609	20.845881
1611.441340	-3.021400	3.366700	-10.170000	26.485386	0.000607	20.851200
1612.441689	-3.008100	3.365500	-10.123000	26.440379	0.000607	20.831567
1613.444176	-3.000800	3.365100	-10.097000	26.384112	0.000607	20.851353
1614.440848	-2.985100	3.366000	-10.046000	26.368072	0.000607	20.848508
1615.444239	-3.003900	3.366000	-10.110000	26.335272	0.000605	20.832614
1616.442775	-3.010900	3.364900	-10.129000	26.328873	0.000601	20.847993
1617.448740	-2.978800	3.365700	-10.024000	26.356114	0.000603	20.853085
1618.442318	-2.982500	3.364000	-10.032000	26.387723	0.000605	20.861619
1619.447824	-3.001400	3.364600	-10.098000	26.417547	0.000603	20.832327
1620.448920	-3.013100	3.364600	-10.136000	26.438973	0.000601	20.840585
1621.443760	-2.993400	3.364300	-10.070000	26.447965	0.000603	20.861950
1622.449458	-2.983000	3.363700	-10.033000	26.427557	0.000601	20.870835
1623.443738	-3.011000	3.363800	-10.127000	26.396367	0.000601	20.857031
1624.446823	-3.008200	3.361900	-10.113000	26.400347	0.000600	20.848229
1625.448485	-3.002100	3.362400	-10.094000	26.377878	0.000599	20.869742
1626.446835	-2.978200	3.362100	-10.012000	26.348780	0.000600	20.843344
1627.441923	-2.994400	3.362000	-10.066000	26.374605	0.000600	20.856496
1628.444891	-3.023200	3.360900	-10.160000	26.350396	0.000600	20.861089
1629.447915	-3.002900	3.360300	-10.090000	26.349551	0.000597	20.857869
1630.446546	-3.012400	3.359200	-10.118000	26.372251	0.000599	20.834690
1631.443081	-2.996500	3.360500	-10.068000	26.378290	0.000598	20.853561
1632.446373	-3.009100	3.359400	-10.108000	26.452105	0.000596	20.863267
1633.446997	-3.010100	3.358400	-10.108000	26.462660	0.000597	20.862970
1634.444189	-3.004400	3.358200	-10.088000	26.464596	0.000597	20.876295
1635.446437	-2.998800	3.358500	-10.069000	26.443992	0.000595	20.841836
1636.444547	-2.996600	3.359200	-10.064000	26.408861	0.000593	20.864846
1637.447802	-2.984300	3.357900	-10.020000	26.402699	0.000594	20.846326
1638.448787	-2.995600	3.356800	-10.054000	26.419461	0.000594	20.858431
1639.448454	-3.004100	3.355600	-10.079000	26.439751	0.000593	20.878823
1640.448870	-3.009000	3.356800	-10.099000	26.452635	0.000594	20.871859
1641.448954	-2.996000	3.357800	-10.059000	26.471579	0.000593	20.871933
1642.450300	-3.011500	3.356000	-10.106000	26.508771	0.000594	20.868540
1643.449111	-3.006600	3.356400	-10.091000	26.497175	0.000592	20.881539
1644.452005	-2.997200	3.355500	-10.056000	26.475771	0.000592	20.866664
1645.456211	-2.992100	3.356500	-10.042000	26.474577	0.000591	20.874472
1646.454254	-3.003100	3.355400	-10.075000	26.451815	0.000591	20.873405
1647.456921	-2.998500	3.354600	-10.058000	26.429515	0.000589	20.889397
1648.458520	-2.991600	3.353700	-10.032000	26.416232	0.000589	20.885056
1649.450854	-2.993800	3.352900	-10.037000	26.430110	0.000588	20.871030
1650.454454	-3.004100	3.353100	-10.072000	26.425146	0.000589	20.875998
1651.456622	-3.004800	3.354600	-10.079000	26.437526	0.000588	20.880854
1652.458565	-3.015000	3.351800	-10.103000	26.482169	0.000587	20.880681
1653.454850	-2.998600	3.351500	-10.049000	26.512934	0.000588	20.877465
1654.453414	-2.994800	3.350900	-10.034000	26.513676	0.000586	20.887220
1655.466961	-2.998800	3.351700	-10.050000	26.536048	0.000587	20.890267
1656.459495	-3.015300	3.350900	-10.103000	26.560301	0.000584	20.890939
1657.455917	-3.005300	3.351500	-10.071000	26.537610	0.000585	20.895630
1658.455919	-2.997700	3.350900	-10.044000	26.535100	0.000584	20.878409
1659.458048	-3.009600	3.351500	-10.085000	26.529144	0.000585	20.890440
1660.459149	-2.994100	3.351900	-10.035000	26.562532	0.000585	20.891285
1661.461759	-3.002200	3.351300	-10.059000	26.544789	0.000582	20.883881
1662.461089	-3.011000	3.349600	-10.084000	26.544440	0.000581	20.876418
1663.461220	-2.995200	3.349600	-10.031000	26.568049	0.000581	20.886400
1664.456569	-2.999400	3.348300	-10.041000	26.579792	0.000581	20.893462
1665.459650	-2.998500	3.346500	-10.034000	26.624184	0.000581	20.897783
1666.456605	-3.001700	3.348500	-10.050000	26.638014	0.000580	20.890824
1667.462863	-2.998900	3.348100	-10.039000	26.660653	0.000579	20.885135
1668.461224	-3.004700	3.347000	-10.056000	26.677461	0.000578	20.902030
1669.462149	-3.016200	3.345800	-10.089000	26.692528	0.000579	20.885885
1670.465898	-3.006700	3.344600	-10.054000	26.648149	0.000579	20.889633
1671.461472	-2.999100	3.345900	-10.034000	26.615034	0.000577	20.892853
1672.464067	-3.018400	3.346100	-10.099000	26.602377	0.000577	20.886768
1673.461134	-3.004000	3.345000	-10.047000	26.630304	0.000577	20.900142
1674.463676	-2.984100	3.344200	-9.977300	26.639619	0.000576	20.914721
1675.460214	-2.987900	3.344900	-9.992900	26.635796	0.000576	20.887173
1676.464796	-2.980900	3.345200	-9.970000	26.636793	0.000575	20.901450
1677.461354	-3.015300	3.341900	-10.075000	26.621852	0.000574	20.894965
1678.468691	-3.018500	3.344100	-10.093000	26.619814	0.000575	20.906665
1679.473679	-3.000700	3.342300	-10.029000	26.616693	0.000574	20.885038
1680.466655	-3.007100	3.342000	-10.048000	26.609540	0.000573	20.909613
1681.467209	-2.997800	3.342700	-10.020000	26.596407	0.000572	20.900205
1682.462413	-2.997300	3.343700	-10.020000	26.593679	0.000572	20.890826
1683.467730	-3.005700	3.341000	-10.041000	26.564238	0.000570	20.909119
1684.467249	-2.966100	3.341400	-9.909700	26.560518	0.000571	20.895898
1685.470098	-2.999400	3.341400	-10.021000	26.555748	0.000572	20.913386
1686.464061	-3.006100	3.340200	-10.040000	26.574472	0.000572	20.916561
1687.472616	-2.997300	3.341200	-10.013000	26.583012	0.000568	20.903335
1688.471542	-3.004000	3.340400	-10.034000	26.562631	0.000569	20.893280
1689.467994	-2.998400	3.340700	-10.016000	26.575666	0.000569	20.903538
1690.468825	-3.004100	3.339000	-10.029000	26.579542	0.000570	20.881358
1691.467991	-3.003000	3.338500	-10.025000	26.598656	0.000569	20.914319
1692.470061	-2.996500	3.338600	-10.003000	26.612880	0.000568	20.885946
1693.469078	-2.997600	3.339400	-10.010000	26.609877	0.000568	20.895255
1694.473149	-3.001700	3.337600	-10.017000	26.587507	0.000566	20.905009
1695.466149	-2.978200	3.338800	-9.942900	26.597638	0.000566	20.906185
1696.471021	-3.012300	3.336000	-10.049000	26.585896	0.000565	20.917613
1697.474681	-3.001600	3.335900	-10.012000	26.552238	0.000564	20.899902
1698.474035	-2.981500	3.337400	-9.949400	26.580884	0.000564	20.900722
1699.468050	-2.995200	3.335000	-9.987800	26.575425	0.000563	20.881960
1700.472293	-2.998700	3.336400	-10.004000	26.528431	0.000565	20.880715
1701.467904	-3.010800	3.334000	-10.037000	26.553255	0.000564	20.880063
1702.468724	-2.979200	3.336900	-9.939900	26.582156	0.000563	20.890148
1703.469964	-3.020900	3.335300	-10.074000	26.591364	0.000562	20.899877
1704.469898	-3.004400	3.334000	-10.016000	26.565495	0.000561	20.871979
1705.470338	-3.000400	3.334200	-10.003000	26.577390	0.000563	20.880142
1706.471317	-2.990800	3.333700	-9.968600	26.617207	0.000563	20.887926
1707.475322	-3.011400	3.332400	-10.034000	26.617605	0.000559	20.883110
1708.473598	-2.979200	3.333800	-9.930300	26.616063	0.000560	20.884879
1709.473070	-2.992800	3.333000	-9.974400	26.630164	0.000559	20.870132
1710.474347	-3.001800	3.332500	-10.001000	26.617925	0.000561	20.896233
1711.470845	-3.012900	3.331000	-10.034000	26.637932	0.000556	20.870354
1712.474783	-3.000500	3.331600	-9.995700	26.656375	0.000555	20.868033
1713.473353	-3.025800	3.330600	-10.076000	26.670181	0.000558	20.868161
1714.477074	-2.978300	3.331700	-9.921200	26.646028	0.000557	20.876596
1715.472168	-2.999200	3.331900	-9.993000	26.676238	0.000557	20.889422
1716.475741	-2.972700	3.332500	-9.905000	26.667970	0.000554	20.868309
1717.474494	-2.960600	3.332300	-9.864100	26.639990	0.000555	20.899448
1718.475782	-2.992500	3.328700	-9.959800	26.593595	0.000555	20.888371
1719.476305	-3.019100	3.328700	-10.049000	26.563608	0.000552	20.879090
1720.478659	-3.011900	3.328100	-10.023000	26.480985	0.000552	20.857207
1721.477167	-2.998000	3.328200	-9.977400	26.476911	0.000552	20.871129
1722.480805	-3.000400	3.326600	-9.979900	26.498315	0.000550	20.872255
1723.482886	-3.014100	3.326300	-10.024000	26.559166	0.000551	20.877470
1724.479047	-3.000300	3.327000	-9.981100	26.586180	0.000551	20.871435
1725.483271	-3.006100	3.326500	-9.999200	26.603082	0.000550	20.871830
1726.475866	-3.043400	3.326400	-10.122000	26.620838	0.000549	20.869291
1727.478387	-3.016600	3.325600	-10.030000	26.586229	0.000548	20.869114
1728.482217	-2.992200	3.326100	-9.951600	26.538592	0.000547	20.863429
1729.479320	-2.993300	3.326600	-9.957100	26.546783	0.000548	20.864550
1730.479991	-3.006200	3.325700	-9.995700	26.581197	0.000546	20.875909
1731.475897	-2.996900	3.325500	-9.965500	26.610166	0.000546	20.848133
1732.479857	-3.005300	3.325600	-9.993700	26.588601	0.000546	20.873869
1733.478665	-3.008900	3.323500	-9.998400	26.538228	0.000545	20.855477
1734.483090	-2.987500	3.324600	-9.931200	26.512038	0.000545	20.850014
1735.479078	-3.006300	3.323800	-9.990900	26.544836	0.000544	20.872076
1736.479722	-2.977300	3.323000	-9.892400	26.563331	0.000544	20.860321
1737.481252	-2.976800	3.323000	-9.891300	26.594959	0.000543	20.863665
1738.480380	-3.019300	3.322000	-10.028000	26.657370	0.000543	20.863344
1739.480731	-2.994000	3.322100	-9.945500	26.642459	0.000543	20.859733
1740.480757	-2.984100	3.321900	-9.910800	26.666955	0.000540	20.872031
1741.483845	-2.994700	3.321500	-9.946000	26.672989	0.000540	20.856760
1742.481701	-2.997200	3.319800	-9.949200	26.672193	0.000541	20.842684
1743.482233	-2.998900	3.320000	-9.955400	26.659163	0.000542	20.851870
1744.484636	-2.976900	3.320600	-9.883700	26.703994	0.000537	20.854266
1745.484322	-2.995900	3.319400	-9.943000	26.714727	0.000540	20.845143
1746.477973	-3.008500	3.318900	-9.984300	26.720235	0.000539	20.839774
1747.481962	-3.016700	3.317900	-10.009000	26.714408	0.000539	20.832494
1748.479550	-3.005500	3.317600	-9.970300	26.667293	0.000537	20.852457
1749.482079	-3.003300	3.316100	-9.958500	26.628568	0.000537	20.847192
1750.480718	-2.991100	3.318500	-9.924200	26.567677	0.000539	20.838613
1751.477629	-3.003900	3.317500	-9.964900	26.497590	0.000536	20.851138
1752.481160	-2.996900	3.315900	-9.936900	26.481055	0.000535	20.840682
1753.481465	-3.015200	3.315400	-9.995700	26.483545	0.000535	20.844608
1754.479686	-2.977900	3.316600	-9.875000	26.507874	0.000535	20.857682
1755.479059	-2.975000	3.316100	-9.864000	26.550533	0.000534	20.868319
1756.478502	-2.995900	3.315800	-9.932700	26.590922	0.000536	20.843013
1757.485990	-3.029600	3.314100	-10.039000	26.605372	0.000534	20.849478
1758.478535	-2.987300	3.314400	-9.898900	26.571165	0.000533	20.843067
1759.481393	-3.002600	3.313700	-9.948300	26.594155	0.000534	20.857642
1760.483813	-2.999700	3.313900	-9.939500	26.610663	0.000533	20.851004
1761.481183	-3.015500	3.312800	-9.988200	26.578786	0.000532	20.848357
1762.479152	-3.028600	3.311800	-10.030000	26.580554	0.000530	20.845393
1763.483510	-2.989700	3.312900	-9.903000	26.576825	0.000529	20.851601
1764.482608	-2.992900	3.312800	-9.912800	26.615935	0.000530	20.848716
1765.482689	-3.004800	3.311800	-9.950600	26.626832	0.000529	20.836438
1766.484313	-2.990200	3.311100	-9.898400	26.673571	0.000528	20.847862
1767.484169	-2.991400	3.311900	-9.905400	26.681003	0.000527	20.850119
1768.481090	-2.991800	3.313100	-9.910800	26.683254	0.000528	20.840054
1769.487809	-3.008100	3.309600	-9.953800	26.650744	0.000529	20.835821
1770.486094	-3.001700	3.310700	-9.937100	26.644858	0.000526	20.833697
1771.484526	-3.004800	3.310500	-9.946300	26.677181	0.000526	20.837268
1772.486422	-3.013900	3.309200	-9.972600	26.680733	0.000524	20.837994
1773.488764	-3.003900	3.308900	-9.938600	26.725661	0.000526	20.842384
1774.480929	-2.982900	3.309200	-9.869300	26.769992	0.000524	20.835272
1775.484890	-2.974300	3.309100	-9.840400	26.775032	0.000525	20.827064
1776.485067	-2.998000	3.309300	-9.920300	26.774836	0.000522	20.824969
1777.482844	-3.020000	3.307800	-9.988700	26.813482	0.000521	20.832057
1778.486198	-3.012800	3.307600	-9.964200	26.825374	0.000522	20.846384
1779.483021	-2.989800	3.308100	-9.889500	26.816164	0.000521	20.837598
1780.486339	-3.004300	3.306200	-9.931300	26.787294	0.000520	20.855038
1781.486296	-3.012300	3.304900	-9.954300	26.773421	0.000523	20.838719
1782.488070	-2.987900	3.306700	-9.879200	26.766789	0.000521	20.816880
1783.493256	-2.991800	3.305500	-9.888600	26.780662	0.000518	20.827508
1784.486201	-3.011400	3.304000	-9.948100	26.805588	0.000518	20.807999
1785.492230	-2.992900	3.305300	-9.891700	26.807371	0.000519	20.829232
1786.489227	-3.011800	3.303700	-9.948600	26.782873	0.000519	20.816455
1787.487477	-3.000300	3.304800	-9.914300	26.777705	0.000516	20.813156
1788.487721	-2.999700	3.303300	-9.907800	26.795975	0.000516	20.812084
1789.492116	-2.989100	3.303200	-9.873100	26.795429	0.000516	20.817226
1790.499109	-2.965000	3.304400	-9.795600	26.801359	0.000516	20.829351
1791.490828	-2.997300	3.303100	-9.899500	26.786341	0.000515	20.831322
1792.489961	-3.001500	3.301800	-9.909000	26.735801	0.000517	20.824131
1793.485779	-3.004100	3.301900	-9.917500	26.714627	0.000513	20.822284
1794.491173	-2.996500	3.302800	-9.895700	26.703579	0.000515	20.826349
1795.491005	-2.997300	3.301300	-9.895100	26.746472	0.000513	20.810677
1796.491786	-2.991700	3.301800	-9.876500	26.764565	0.000511	20.825074
1797.491403	-3.030900	3.299000	-9.996700	26.773943	0.000510	20.826917
1798.492003	-2.992200	3.300700	-9.876000	26.787094	0.000511	20.810268
1799.488539	-2.977700	3.300200	-9.826000	26.802927	0.000511	20.834247
1800.491753	-2.981100	3.299700	-9.836200	26.802578	0.000509	20.828207
1801.491940	-3.006100	3.298900	-9.915100	26.809873	0.000510	20.831748
1802.490891	-3.007600	3.298300	-9.918600	26.843675	0.000509	20.817371
1803.489214	-3.003900	3.297900	-9.905200	26.863829	0.000507	20.812032
1804.489073	-3.006800	3.298100	-9.915800	26.889691	0.000507	20.824285
1805.489572	-3.018000	3.298600	-9.954100	26.888326	0.000506	20.835240
1806.492602	-2.991800	3.297300	-9.864000	26.886189	0.000506	20.815548
1807.491440	-3.006300	3.295400	-9.905300	26.883159	0.000503	20.843795
1808.491617	-3.007200	3.297400	-9.914900	26.896362	0.000503	20.809656
1809.492668	-3.012500	3.296600	-9.928900	26.892516	0.000502	20.819539
1810.492191	-3.004700	3.296500	-9.903100	26.873059	0.000502	20.799502
1811.498513	-2.989100	3.296100	-9.851200	26.877382	0.000504	20.821391
1812.496786	-3.039100	3.294100	-10.009000	26.851265	0.000502	20.823105
1813.493711	-3.039300	3.293900	-10.009000	26.850297	0.000501	20.815969
1814.497139	-3.014300	3.293500	-9.926900	26.865141	0.000501	20.804342
1815.495066	-3.001800	3.292800	-9.883700	26.865809	0.000502	20.813548
1816.499006	-2.993000	3.294400	-9.858500	26.850891	0.000498	20.821308
1817.501263	-2.975300	3.294700	-9.801100	26.845360	0.000499	20.804367
1818.496728	-3.006300	3.292300	-9.896900	26.852380	0.000499	20.824227
1819.497667	-3.025500	3.293300	-9.963700	26.833025	0.000499	20.818043
1820.494493	-2.995200	3.294100	-9.865100	26.812821	0.000499	20.810531
1821.496081	-2.987300	3.293300	-9.836700	26.821605	0.000497	20.802767
1822.497778	-2.985700	3.293000	-9.830700	26.772682	0.000498	20.831339
1823.497487	-2.994800	3.292300	-9.857400	26.802766	0.000497	20.824602
1824.497115	-3.003400	3.291700	-9.885200	26.806141	0.000494	20.820883
1825.500902	-3.010200	3.290500	-9.904000	26.838184	0.000495	20.804737
1826.500299	-2.997100	3.290700	-9.861600	26.831081	0.000497	20.811820
1827.503057	-3.025800	3.288400	-9.948900	26.823138	0.000496	20.824222
1828.505165	-2.997000	3.291300	-9.862600	26.810430	0.000494	20.782996
1829.501413	-3.000600	3.291300	-9.874400	26.835291	0.000492	20.832649
1830.506002	-2.998000	3.290100	-9.862900	26.874702	0.000492	20.802575
1831.505633	-3.003500	3.289700	-9.879500	26.853879	0.000492	20.785431
1832.506218	-2.988800	3.289500	-9.830600	26.842763	0.000491	20.788953
1833.498551	-2.993700	3.287700	-9.839900	26.810170	0.000491	20.821141
1834.510642	-2.992500	3.287500	-9.836200	26.796764	0.000489	20.827577
1835.501373	-2.997100	3.288100	-9.854200	26.776211	0.000491	20.791739
1836.500248	-3.002700	3.286700	-9.867100	26.771220	0.000489	20.800946
1837.502253	-2.995600	3.287000	-9.844800	26.762559	0.000489	20.807885
1838.504274	-3.008000	3.286000	-9.882900	26.725572	0.000488	20.813847
1839.503430	-3.044600	3.285400	-10.001000	26.698247	0.000489	20.809609
1840.503872	-3.004200	3.285400	-9.869100	26.714253	0.000485	20.805786
1841.500335	-2.982400	3.285700	-9.797500	26.737982	0.000487	20.827271
1842.508656	-2.994100	3.284800	-9.834300	26.746696	0.000485	20.797627
1843.507360	-2.993600	3.284500	-9.830800	26.749694	0.000483	20.813442
1844.501594	-2.992000	3.283900	-9.824800	26.789357	0.000484	20.808750
1845.501569	-2.970500	3.282900	-9.751100	26.787348	0.000484	20.803411
1846.507596	-2.996600	3.282000	-9.832500	26.815319	0.000482	20.804033
1847.508197	-2.990100	3.282800	-9.814100	26.861185	0.000483	20.793251
1848.508008	-2.971900	3.283100	-9.754900	26.868430	0.000483	20.803382
1849.502896	-2.993400	3.281500	-9.821300	26.858675	0.000481	20.809694
1850.502350	-3.006500	3.281000	-9.863200	26.863965	0.000479	20.803159
1851.504041	-2.994400	3.282500	-9.827600	26.846311	0.000480	20.804375
1852.502944	-3.003300	3.281400	-9.854300	26.851351	0.000479	20.785735
1853.501912	-2.996400	3.280100	-9.827900	26.874708	0.000478	20.803530
1854.505926	-2.993400	3.280000	-9.815700	26.889375	0.000478	20.815433
1855.506566	-3.014800	3.278800	-9.883800	26.882449	0.000475	20.794245
1856.505822	-2.999000	3.279100	-9.833100	26.899872	0.000475	20.812238
1857.511749	-3.002000	3.280200	-9.846000	26.947173	0.000476	20.810489
1858.506484	-3.001400	3.279300	-9.841200	26.966103	0.000477	20.788274
1859.506752	-3.017800	3.277500	-9.889700	27.017001	0.000474	20.767386
1860.509054	-3.019400	3.278100	-9.896600	27.029756	0.000473	20.804869
1861.507369	-3.017800	3.276200	-9.885400	27.073677	0.000473	20.780761
1862.507482	-2.994200	3.278000	-9.813700	27.083701	0.000472	20.790368
1863.507819	-3.011500	3.276200	-9.864300	27.090915	0.000474	20.784348
1864.506375	-2.984700	3.275100	-9.773900	27.070725	0.000473	20.783957
1865.507904	-2.990000	3.276300	-9.794300	27.081958	0.000471	20.786244
1866.509740	-3.001700	3.275200	-9.829500	27.079227	0.000469	20.779705
1867.510664	-2.989200	3.274500	-9.787800	27.098130	0.000468	20.771215
1868.506275	-2.997600	3.273800	-9.812300	27.112348	0.000470	20.781721
1869.509863	-2.987600	3.275200	-9.784400	27.112794	0.000469	20.774584
1870.510406	-2.988200	3.273500	-9.782000	27.100065	0.000467	20.786438
1871.504102	-3.031100	3.272800	-9.918400	27.104824	0.000466	20.791224
1872.506890	-2.985300	3.274300	-9.773000	27.108571	0.000467	20.781242
1873.507970	-3.001100	3.272300	-9.819500	27.054751	0.000463	20.796815
1874.508922	-2.983800	3.272900	-9.764600	27.021148	0.000463	20.781988
1875.507236	-2.997000	3.270900	-9.801900	26.960795	0.000463	20.779617
1876.505907	-3.007500	3.271800	-9.838800	26.951881	0.000462	20.780611
1877.506143	-3.015800	3.271000	-9.862800	26.959676	0.000463	20.784656
1878.516950	-3.004100	3.271100	-9.825600	26.948060	0.000462	20.798105
1879.509377	-3.027600	3.269400	-9.897500	26.984092	0.000459	20.785975
1880.507038	-2.994300	3.269400	-9.788300	27.017171	0.000460	20.777040
1881.506491	-3.012900	3.269200	-9.848100	27.008158	0.000458	20.791685
1882.508419	-3.004400	3.270300	-9.824700	27.020073	0.000459	20.790865
1883.506465	-2.995000	3.269900	-9.792300	26.969450	0.000457	20.772199
1884.505725	-3.003600	3.269200	-9.819000	26.983591	0.000458	20.787368
1885.508286	-2.996200	3.269800	-9.796000	26.991459	0.000456	20.773469
1886.511333	-2.981400	3.269400	-9.746500	26.972103	0.000456	20.793833
1887.508818	-3.013000	3.267000	-9.842000	26.973415	0.000454	20.784247
1888.509049	-3.005300	3.267800	-9.819800	26.971184	0.000455	20.761615
1889.507681	-3.000200	3.265600	-9.795800	26.922642	0.000453	20.772071
1890.510101	-2.988800	3.268000	-9.766500	26.900033	0.000454	20.779208
1891.510970	-3.027200	3.265400	-9.884500	26.898466	0.000454	20.783797
1892.506385	-2.993900	3.265600	-9.774800	26.906339	0.000453	20.782231
1893.506790	-2.988100	3.267200	-9.760500	26.957908	0.000452	20.771972
1894.520776	-3.004100	3.265100	-9.807400	26.998507	0.000450	20.773444
1895.511223	-3.013100	3.263300	-9.830900	27.009233	0.000449	20.774748
1896.507482	-3.005100	3.265600	-9.812600	27.024616	0.000449	20.759397
1897.517700	-3.005800	3.264600	-9.811300	27.026384	0.000451	20.763071
1898.513372	-2.996300	3.264900	-9.781800	27.032410	0.000449	20.763442
1899.510964	-2.988200	3.263300	-9.749200	27.036928	0.000447	20.771305
1900.508862	-3.016000	3.263300	-9.841300	27.051716	0.000446	20.776694
1901.512760	-3.012500	3.263000	-9.828400	27.085117	0.000447	20.765714
1902.509135	-3.004200	3.263100	-9.802100	27.108194	0.000448	20.782285
1903.513113	-2.974900	3.261400	-9.700800	27.106927	0.000446	20.767734
1904.512995	-3.006200	3.260000	-9.799600	27.103926	0.000445	20.778467
1905.508001	-2.971700	3.261600	-9.691200	27.051323	0.000449	20.772505
1906.507799	-2.974200	3.262100	-9.701100	26.985113	0.000445	20.761871
1907.513216	-2.983500	3.261100	-9.728300	26.941856	0.000443	20.766736
1908.509780	-3.003100	3.260200	-9.789300	26.931885	0.000443	20.776624
1909.509723	-3.008300	3.259700	-9.805100	26.951164	0.000443	20.769932
1910.513509	-3.029600	3.258000	-9.869100	26.959680	0.000444	20.772806
1911.514446	-2.988200	3.259000	-9.737200	26.961341	0.000443	20.756457
1912.513207	-3.013000	3.259300	-9.818800	26.936797	0.000441	20.779667
1913.514629	-3.007500	3.258800	-9.800000	26.930815	0.000443	20.762271
1914.511508	-2.995300	3.256900	-9.755200	26.958733	0.000440	20.771853
1915.510549	-3.003000	3.256900	-9.779400	26.997917	0.000439	20.765739
1916.513161	-2.994800	3.258200	-9.756800	27.030053	0.000441	20.780986
1917.513753	-3.004300	3.256100	-9.781400	27.056780	0.000439	20.764716
1918.514162	-2.978200	3.257000	-9.699200	27.119086	0.000439	20.743453
1919.514582	-2.989900	3.255100	-9.730700	27.149234	0.000439	20.773775
1920.511436	-2.966500	3.256000	-9.657700	27.120275	0.000439	20.753183
1921.514316	-2.995200	3.255000	-9.748200	27.134266	0.000436	20.752082
1922.517106	-3.009000	3.254700	-9.792500	27.062384	0.000436	20.754230
1923.516829	-3.010400	3.254300	-9.794900	27.021414	0.000437	20.770401
1924.517368	-3.004500	3.253600	-9.774300	26.976617	0.000435	20.762810
1925.513646	-2.996300	3.254700	-9.751300	26.953980	0.000435	20.768496
1926.514699	-2.996200	3.252400	-9.743600	26.950708	0.000431	20.751455
1927.517292	-2.994000	3.251800	-9.735300	26.952295	0.000433	20.760163
1928.517231	-3.012000	3.251600	-9.793200	27.007564	0.000430	20.783026
1929.519174	-2.997800	3.252100	-9.748100	27.075084	0.000431	20.748511
1930.517231	-3.000000	3.253100	-9.758300	27.097661	0.000430	20.762208
1931.521264	-2.989800	3.251300	-9.719300	27.142645	0.000428	20.778527
1932.521800	-2.987300	3.250700	-9.709500	27.174432	0.000429	20.755970
1933.520012	-2.989500	3.250200	-9.715900	27.208792	0.000428	20.734578
1934.517874	-2.972500	3.250200	-9.659700	27.219134	0.000427	20.757783
1935.517283	-3.011000	3.250300	-9.785300	27.211370	0.000425	20.777476
1936.515429	-2.992800	3.248900	-9.721500	27.212710	0.000426	20.768867
1937.516636	-2.978000	3.248900	-9.674500	27.218043	0.000426	20.745781
1938.524091	-2.997900	3.248700	-9.738800	27.217793	0.000424	20.766392
1939.518785	-3.000000	3.248000	-9.743700	27.188840	0.000423	20.775678
1940.525162	-2.996900	3.247700	-9.732000	27.185418	0.000422	20.752320
1941.525054	-2.998100	3.247400	-9.735100	27.175263	0.000420	20.767712
1942.522036	-2.991000	3.247000	-9.709600	27.192907	0.000422	20.789251
1943.525444	-2.989500	3.246500	-9.703000	27.212333	0.000420	20.775599
1944.525127	-3.009200	3.246500	-9.768000	27.222360	0.000418	20.779046
1945.522046	-2.995400	3.245900	-9.721100	27.250123	0.000418	20.762401
1946.519517	-3.023200	3.243200	-9.804100	27.263445	0.000416	20.787181
1947.520508	-3.027500	3.242600	-9.815200	27.223823	0.000418	20.763923
1948.523198	-2.996100	3.243900	-9.718100	27.157284	0.000416	20.773336
1949.523960	-2.988300	3.244500	-9.694900	27.139242	0.000416	20.771786
1950.529030	-2.999000	3.243300	-9.725500	27.133040	0.000414	20.767918
1951.521346	-2.995200	3.243100	-9.713500	27.152914	0.000415	20.777950
1952.523866	-3.020800	3.243500	-9.796000	27.193702	0.000413	20.750695
1953.526054	-3.002400	3.244000	-9.738500	27.227270	0.000412	20.755536
1954.527877	-3.003600	3.241500	-9.732900	27.211370	0.000414	20.762302
1955.522009	-2.976200	3.242900	-9.650200	27.179412	0.000411	20.771410
1956.521217	-2.974100	3.242600	-9.642600	27.151942	0.000412	20.770808
1957.521821	-3.026200	3.240400	-9.803900	27.130162	0.000409	20.784464
1958.525250	-2.984000	3.240800	-9.669200	27.140283	0.000407	20.768091
1959.526659	-2.999800	3.239800	-9.717700	27.118794	0.000409	20.778721
1960.528119	-3.000600	3.240600	-9.722100	27.141079	0.000408	20.772685
1961.531750	-3.010900	3.239000	-9.751500	27.120262	0.000409	20.789680
1962.527020	-3.001300	3.238000	-9.717500	27.088846	0.000404	20.788431
1963.526659	-2.995100	3.238000	-9.696500	27.080085	0.000406	20.795267
1964.529962	-2.985700	3.237600	-9.665300	27.111997	0.000404	20.785635
1965.528816	-2.989000	3.236400	-9.672800	27.113038	0.000405	20.769139
1966.522934	-2.998200	3.236600	-9.701200	27.126435	0.000404	20.791622
1967.524321	-3.025800	3.238700	-9.797200	27.124947	0.000402	20.792970
1968.526834	-3.008700	3.236700	-9.737100	27.127903	0.000403	20.781244
1969.526864	-3.002500	3.236000	-9.714300	27.127948	0.000402	20.782712
1970.529500	-3.014100	3.234700	-9.748800	27.121274	0.000401	20.788802
1971.524780	-2.998700	3.234800	-9.699100	27.127177	0.000399	20.790471
1972.528167	-3.013300	3.234400	-9.744900	27.164695	0.000398	20.773678
1973.532325	-3.006800	3.234500	-9.725100	27.159829	0.000397	20.794388
1974.530806	-2.998600	3.232900	-9.693500	27.151245	0.000398	20.778642
1975.527468	-3.005500	3.233100	-9.715800	27.167814	0.000397	20.778237
1976.526898	-2.997700	3.232700	-9.687700	27.189701	0.000397	20.800251
1977.528107	-2.977400	3.233100	-9.624500	27.195235	0.000396	20.790170
1978.528215	-2.979800	3.233000	-9.632000	27.195976	0.000397	20.781907
1979.533179	-3.000300	3.232000	-9.696400	27.175755	0.000395	20.789543
1980.530472	-2.992900	3.230700	-9.667700	27.209372	0.000395	20.793011
1981.547036	-2.976400	3.231900	-9.617400	27.222326	0.000393	20.802721
1982.530130	-2.979900	3.230200	-9.624600	27.206269	0.000393	20.785622
1983.535080	-2.980000	3.230300	-9.625400	27.250453	0.000392	20.768424
1984.532630	-2.994900	3.228600	-9.668500	27.237853	0.000389	20.787518
1985.534833	-2.969100	3.230600	-9.591000	27.251421	0.000390	20.799743
1986.530853	-2.991800	3.228300	-9.656800	27.232074	0.000390	20.788343
1987.532452	-3.023300	3.227000	-9.754500	27.232467	0.000387	20.794429
1988.536232	-2.995900	3.228100	-9.670200	27.244748	0.000388	20.797772
1989.532064	-3.003600	3.227400	-9.693000	27.299928	0.000386	20.805862
1990.538510	-3.016800	3.226000	-9.731000	27.353937	0.000385	20.779112
1991.532338	-2.997500	3.227200	-9.672100	27.395833	0.000384	20.819835
1992.535102	-3.001600	3.226200	-9.683200	27.406702	0.000384	20.783829
1993.538705	-2.998800	3.225200	-9.671000	27.470824	0.000383	20.805190
1994.542414	-3.010300	3.224600	-9.706100	27.488208	0.000383	20.798498
1995.532809	-3.028300	3.223200	-9.759200	27.546179	0.000380	20.781433
1996.537510	-2.997700	3.224200	-9.663900	27.551039	0.000383	20.800548
1997.540101	-2.992500	3.224100	-9.647700	27.527550	0.000380	20.803467
1998.533550	-3.026100	3.225200	-9.759200	27.513117	0.000379	20.787523
1999.553184	-2.994400	3.223900	-9.653100	27.532066	0.000379	20.799476
2000.536178	-3.026200	3.223400	-9.753200	27.529316	0.000377	20.791968
2001.540212	-2.977800	3.223200	-9.595700	27.561563	0.000376	20.783635
2002.538284	-2.986400	3.223300	-9.623800	27.540332	0.000375	20.787878
2003.544452	-3.007200	3.221800	-9.687900	27.522674	0.000376	20.788130
2004.535983	-3.005700	3.220300	-9.678200	27.478325	0.000376	20.814633
2005.537792	-3.012900	3.219900	-9.700300	27.477829	0.000375	20.811763
2006.539217	-3.007100	3.220200	-9.682600	27.497181	0.000372	20.806577
2007.540043	-3.005100	3.219800	-9.674700	27.508963	0.000373	20.824120
2008.547474	-3.003900	3.218100	-9.664900	27.500160	0.000371	20.780177
2009.540862	-2.995900	3.220400	-9.646600	27.506365	0.000370	20.797325
2010.541034	-3.007200	3.218500	-9.677400	27.480916	0.000371	20.788316
2011.539491	-2.978300	3.218700	-9.584700	27.489055	0.000370	20.800772
2012.539653	-2.977200	3.218300	-9.579900	27.472142	0.000367	20.803671
2013.539845	-3.003200	3.216600	-9.659200	27.455942	0.000368	20.796856
2014.540323	-2.984500	3.216400	-9.598200	27.426377	0.000369	20.787501
2015.539342	-2.948500	3.219200	-9.490200	27.386294	0.000366	20.791274
2016.546589	-3.009300	3.216300	-9.676300	27.404627	0.000366	20.819199
2017.539801	-3.022400	3.215700	-9.718400	27.346313	0.000365	20.789460
2018.539563	-3.013000	3.214300	-9.683700	27.362638	0.000365	20.811572
2019.545352	-3.016500	3.214700	-9.695800	27.388066	0.000364	20.808229
2020.541076	-3.023600	3.213900	-9.717300	27.390447	0.000364	20.805883
2021.552336	-3.018200	3.213300	-9.697100	27.416276	0.000364	20.810530
2022.548268	-3.014400	3.214400	-9.688400	27.405887	0.000361	20.797233
2023.548161	-3.026200	3.214800	-9.727200	27.404596	0.000361	20.796409
2024.545685	-2.995000	3.212300	-9.620200	27.396088	0.000360	20.817721
2025.546338	-3.018800	3.211100	-9.692000	27.374759	0.000359	20.835619
2026.541062	-2.989800	3.210800	-9.598500	27.379718	0.000360	20.796512
2027.551838	-3.001300	3.211300	-9.637600	27.408925	0.000359	20.816411
2028.548738	-2.998400	3.210200	-9.624000	27.427027	0.000359	20.815181
2029.549601	-3.006700	3.208900	-9.647100	27.449188	0.000357	20.800966
2030.548668	-3.008800	3.208300	-9.652000	27.404315	0.000356	20.809402
2031.540778	-3.020400	3.208400	-9.689800	27.387396	0.000355	20.819883
2032.548307	-2.975100	3.210600	-9.551300	27.398114	0.000355	20.828294
2033.554090	-3.001000	3.208100	-9.626300	27.388437	0.000353	20.807179
2034.549979	-3.016800	3.207400	-9.675400	27.385515	0.000352	20.817991
2035.545673	-2.990400	3.207800	-9.591500	27.356263	0.000353	20.793305
2036.553833	-3.014200	3.205500	-9.661200	27.345697	0.000353	20.816815
2037.565763	-3.006300	3.208100	-9.643700	27.398954	0.000352	20.818233
2038.546898	-3.001400	3.208400	-9.629100	27.448593	0.000353	20.840671
2039.549259	-2.993700	3.205800	-9.597000	27.492203	0.000350	20.813422
2040.552359	-3.006400	3.205700	-9.636200	27.483744	0.000349	20.806809
2041.559320	-3.002100	3.204300	-9.618600	27.517455	0.000347	20.827923
2042.550502	-3.002200	3.206000	-9.624500	27.528314	0.000347	20.816089
2043.560215	-3.018900	3.202800	-9.667100	27.532978	0.000346	20.834531
2044.557950	-3.004000	3.203100	-9.621200	27.541735	0.000345	20.805885
2045.549199	-2.985500	3.204200	-9.564800	27.560364	0.000344	20.802344
2046.550206	-3.012400	3.203200	-9.648400	27.537867	0.000345	20.846088
2047.562422	-3.013000	3.202500	-9.648400	27.580407	0.000341	20.824406
2048.560833	-3.001600	3.202500	-9.611600	27.590578	0.000342	20.803820
2049.546824	-3.014200	3.200500	-9.645400	27.588836	0.000342	20.806335
2050.550049	-2.993500	3.200700	-9.581000	27.593204	0.000341	20.815946
2051.555970	-3.020600	3.202000	-9.671200	27.605088	0.000341	20.826006
2052.553670	-3.001700	3.200000	-9.604400	27.590897	0.000340	20.824530
2053.547897	-3.037800	3.198600	-9.715900	27.563319	0.000342	20.831869
2054.563163	-2.980900	3.199000	-9.533600	27.546010	0.000338	20.814454
2055.553553	-2.991400	3.199400	-9.569500	27.567118	0.000338	20.846596
2056.552355	-2.980700	3.197500	-9.529800	27.585752	0.000337	20.835947
2057.561320	-2.989800	3.196700	-9.556800	27.623897	0.000338	20.819802
2058.552362	-3.007100	3.195800	-9.609000	27.637017	0.000335	20.853866
2059.556834	-2.987200	3.196100	-9.546500	27.638431	0.000334	20.823047
2060.553761	-2.975300	3.197000	-9.510100	27.661501	0.000336	20.841044
2061.549523	-3.002100	3.195400	-9.592400	27.713901	0.000334	20.831660
2062.557468	-2.992200	3.197000	-9.564400	27.731634	0.000333	20.825797
2063.558348	-3.001300	3.195700	-9.590600	27.783762	0.000331	20.842219
2064.548983	-2.973300	3.196000	-9.501700	27.794348	0.000330	20.819683
2065.555774	-2.986800	3.195000	-9.541100	27.819549	0.000330	20.832242
2066.553893	-2.989700	3.193700	-9.546200	27.817910	0.000330	20.824429
2067.556296	-2.974300	3.195400	-9.502900	27.843233	0.000328	20.835689
2068.554954	-3.023400	3.192700	-9.651900	27.874798	0.000330	20.834267
2069.551882	-2.993000	3.193000	-9.555600	27.893569	0.000326	20.846995
2070.553462	-3.011600	3.190600	-9.608000	27.856154	0.000329	20.838262
2071.555880	-3.006600	3.191000	-9.593200	27.872717	0.000326	20.837388
2072.556965	-2.994400	3.189900	-9.550500	27.851644	0.000325	20.841310
2073.556858	-2.998700	3.190500	-9.566200	27.811151	0.000324	20.838964
2074.557283	-3.002200	3.188400	-9.571700	27.824245	0.000323	20.854037
2075.564509	-2.991300	3.190900	-9.543900	27.776610	0.000323	20.834074
2076.558439	-3.000700	3.189200	-9.568900	27.763717	0.000322	20.843858
2077.559494	-2.999300	3.187400	-9.559200	27.711863	0.000319	20.835773
2078.560228	-3.018300	3.187700	-9.620400	27.677785	0.000320	20.850792
2079.559065	-3.011300	3.188000	-9.599200	27.605223	0.000320	20.858857
2080.556733	-3.003800	3.186500	-9.569800	27.546788	0.000319	20.846055
2081.563463	-2.978400	3.186400	-9.488900	27.540838	0.000318	20.826793
2082.557269	-3.001000	3.186400	-9.561700	27.538379	0.000319	20.856560
2083.561620	-2.993200	3.185200	-9.533100	27.579825	0.000320	20.849898
2084.563794	-2.992600	3.185400	-9.531700	27.602547	0.000318	20.851424
2085.568094	-3.014400	3.183300	-9.595100	27.632475	0.000317	20.851192
2086.565264	-2.997600	3.186200	-9.550100	27.680892	0.000315	20.851073
2087.562538	-3.006200	3.186200	-9.577300	27.692795	0.000315	20.847404
2088.567027	-2.972600	3.183400	-9.462000	27.657901	0.000314	20.873930
2089.566122	-3.013500	3.182600	-9.589200	27.629476	0.000312	20.854338
2090.563237	-2.996100	3.183500	-9.535600	27.610632	0.000313	20.848179
2091.563937	-2.976200	3.182900	-9.472100	27.657405	0.000311	20.846406
2092.567217	-2.994100	3.182100	-9.526500	27.682846	0.000312	20.855884
2093.561043	-2.992300	3.181200	-9.518000	27.690787	0.000309	20.852496
2094.570933	-3.006900	3.178800	-9.557700	27.712261	0.000310	20.852767
2095.560803	-2.999200	3.180000	-9.536600	27.757563	0.000308	20.858052
2096.562607	-3.000500	3.179900	-9.540300	27.814621	0.000307	20.861895
2097.564101	-2.986200	3.180200	-9.495300	27.818292	0.000307	20.856106
2098.562746	-3.028300	3.178000	-9.623100	27.865925	0.000307	20.846199
2099.563476	-3.009400	3.177500	-9.560900	27.866892	0.000306	20.853810
2100.564640	-3.038900	3.178300	-9.656400	27.848846	0.000304	20.860778
2101.567998	-2.993500	3.177400	-9.510200	27.867637	0.000307	20.862621
2102.565676	-2.960800	3.179100	-9.411000	27.882615	0.000303	20.853988
2103.565043	-3.001500	3.176300	-9.532300	27.909267	0.000303	20.881759
2104.569954	-2.986600	3.175600	-9.483600	27.914625	0.000303	20.858230
2105.567190	-2.996200	3.175700	-9.514000	27.909943	0.000302	20.858259
2106.567075	-2.995700	3.175000	-9.511000	27.901214	0.000302	20.843784
2107.573202	-3.022900	3.174000	-9.593900	27.923802	0.000301	20.862250
2108.569337	-2.986700	3.174700	-9.481400	27.942301	0.000300	20.855740
2109.568086	-2.989700	3.172000	-9.482200	27.934592	0.000299	20.887334
2110.569445	-2.997000	3.172400	-9.506600	27.912274	0.000298	20.866769
2111.570287	-3.014400	3.172200	-9.560100	27.907740	0.000298	20.855093
2112.569681	-3.006400	3.170900	-9.531500	27.856811	0.000298	20.874483
2113.567737	-2.993300	3.170200	-9.487900	27.817162	0.000296	20.868719
2114.573425	-3.025100	3.169700	-9.586100	27.859589	0.000297	20.866374
2115.568878	-2.997400	3.169300	-9.498500	27.842206	0.000295	20.868794
2116.570409	-2.974500	3.171100	-9.431800	27.835811	0.000295	20.875159
2117.571352	-3.001000	3.168600	-9.507000	27.799951	0.000294	20.886484
2118.568204	-2.997500	3.169700	-9.499800	27.769429	0.000295	20.899389
2119.567752	-3.000700	3.166900	-9.502000	27.780643	0.000293	20.879856
2120.573438	-3.019100	3.167700	-9.562800	27.791627	0.000292	20.888064
2121.573926	-2.992700	3.166600	-9.476000	27.784658	0.000291	20.885792
2122.570570	-3.004600	3.165500	-9.509600	27.822325	0.000292	20.892879
2123.572457	-2.989600	3.166900	-9.466600	27.844071	0.000291	20.887264
2124.570714	-2.987700	3.165800	-9.457800	27.903431	0.000288	20.893902
2125.571043	-3.008900	3.165400	-9.523500	27.957242	0.000291	20.878364
2126.572557	-3.002200	3.162200	-9.491900	28.001994	0.000288	20.857977
2127.573162	-3.002500	3.162500	-9.493900	28.015826	0.000285	20.894657
2128.571079	-2.994000	3.163100	-9.469100	28.051998	0.000287	20.908307
2129.570842	-2.993900	3.162400	-9.467000	28.059436	0.000287	20.871702
2130.574277	-2.980200	3.161900	-9.421900	28.043475	0.000285	20.888350
2131.579170	-3.007000	3.161500	-9.504800	28.059515	0.000285	20.892642
2132.572537	-3.004700	3.161100	-9.497500	28.016380	0.000284	20.881939
2133.574715	-2.991600	3.160300	-9.452800	27.978965	0.000283	20.887900
2134.573862	-2.962100	3.160600	-9.360900	27.912474	0.000282	20.881193
2135.575282	-2.979600	3.160500	-9.415800	27.835863	0.000281	20.882324
2136.576483	-2.997500	3.159600	-9.469900	27.852898	0.000282	20.914163
2137.584888	-2.991700	3.158800	-9.448700	27.833066	0.000279	20.901318
2138.578018	-2.994300	3.159200	-9.458500	27.858752	0.000278	20.900142
2139.576419	-3.006500	3.156200	-9.488400	27.897614	0.000279	20.906063
2140.582483	-3.018300	3.155500	-9.523000	27.936120	0.000278	20.888398
2141.576912	-2.991300	3.155300	-9.437000	27.931238	0.000278	20.898655
2142.576963	-2.984600	3.154800	-9.415000	27.896377	0.000279	20.905767
2143.580070	-2.985800	3.155800	-9.420900	27.880040	0.000277	20.892645
2144.577402	-2.997700	3.154200	-9.454200	27.946440	0.000276	20.882189
2145.580124	-3.020700	3.152100	-9.520500	28.001908	0.000275	20.884441
2146.579818	-2.996700	3.151800	-9.444000	28.017580	0.000274	20.904008
2147.578512	-3.027300	3.152000	-9.541000	28.075297	0.000275	20.890036
2148.580923	-2.967100	3.151900	-9.350700	28.063771	0.000272	20.874642
2149.578335	-2.990700	3.151800	-9.425400	28.052761	0.000274	20.873991
2150.577993	-2.957200	3.151800	-9.319200	28.029734	0.000274	20.868829
2151.578712	-3.015800	3.149600	-9.497100	28.034640	0.000272	20.893207
2152.580605	-3.012300	3.148800	-9.483000	27.995892	0.000271	20.891187
2153.579139	-2.989300	3.151400	-9.419800	27.995249	0.000271	20.886273
2154.581577	-3.034000	3.148100	-9.550400	28.019768	0.000271	20.868755
2155.579823	-3.020600	3.147200	-9.505600	28.067294	0.000272	20.883878
2156.581919	-3.000400	3.146800	-9.440700	28.097468	0.000271	20.874899
2157.579642	-3.000800	3.147100	-9.442300	28.115764	0.000270	20.875299
2158.580204	-2.979200	3.145000	-9.369000	28.141698	0.000270	20.865371
2159.584476	-2.999300	3.145000	-9.431800	28.140923	0.000268	20.873600
2160.582408	-2.991200	3.146300	-9.410400	28.107585	0.000268	20.888401
2161.583525	-3.007100	3.143800	-9.453100	28.094348	0.000268	20.889300
2162.582994	-2.993700	3.142200	-9.405800	28.068613	0.000267	20.875723
2163.585352	-3.007700	3.143800	-9.454800	28.085050	0.000267	20.857657
2164.583650	-3.011900	3.141900	-9.462400	28.115018	0.000267	20.883082
2165.587294	-3.017900	3.140200	-9.476300	28.151908	0.000264	20.859055
2166.585042	-3.004600	3.140500	-9.434200	28.152104	0.000263	20.863046
2167.584064	-3.003900	3.140500	-9.432600	28.162834	0.000263	20.880011
2168.584966	-2.988700	3.140900	-9.385100	28.206140	0.000261	20.857228
2169.585067	-2.999400	3.140200	-9.417500	28.176738	0.000263	20.863189
2170.585115	-3.011800	3.136800	-9.446700	28.142111	0.000260	20.844925
2171.585368	-3.014300	3.137300	-9.455900	28.091365	0.000259	20.855005
2172.583469	-3.004000	3.137800	-9.424800	28.076562	0.000260	20.856700
2173.588091	-3.004100	3.137100	-9.423400	28.049714	0.000258	20.856700
2174.596310	-3.002300	3.136100	-9.414600	28.084594	0.000259	20.880905
2175.591262	-3.000600	3.134100	-9.402800	28.104573	0.000256	20.877309
2176.589055	-3.002400	3.133800	-9.408200	28.123041	0.000257	20.879779
2177.592410	-3.012900	3.133900	-9.440400	28.148646	0.000257	20.856720
2178.599578	-2.986800	3.133500	-9.357800	28.176365	0.000255	20.868503
2179.588149	-3.011300	3.130800	-9.426400	28.185339	0.000255	20.848141
2180.594697	-2.989400	3.133600	-9.366200	28.181321	0.000255	20.861164
2181.593523	-3.002800	3.130500	-9.398900	28.152370	0.000254	20.846244
2182.592241	-3.013200	3.131200	-9.434200	28.148700	0.000254	20.843972
2183.590190	-2.997900	3.131500	-9.387500	28.149691	0.000255	20.852082
2184.591989	-3.009900	3.128500	-9.415400	28.144687	0.000251	20.858897
2185.587644	-3.005600	3.127800	-9.399800	28.133932	0.000250	20.867510
2186.592059	-3.010700	3.127300	-9.414200	28.115862	0.000250	20.851217
2187.589603	-2.990600	3.126100	-9.348000	28.063457	0.000250	20.853464
2188.592187	-3.024600	3.124900	-9.449700	28.080561	0.000248	20.852664
2189.590794	-3.021600	3.125100	-9.440000	28.091026	0.000248	20.843285
2190.594659	-2.995800	3.124800	-9.359800	28.066312	0.000247	20.855390
2191.595345	-3.007000	3.125500	-9.397300	28.057514	0.000248	20.854121
2192.590595	-3.006500	3.123300	-9.388400	28.044075	0.000246	20.834904
2193.590320	-3.011700	3.122800	-9.404000	28.093484	0.000246	20.842914
2194.590897	-2.983300	3.121800	-9.312200	28.136424	0.000243	20.845838
2195.596685	-3.018700	3.121200	-9.421200	28.143832	0.000246	20.842391
2196.591531	-2.996900	3.121600	-9.354300	28.164830	0.000244	20.844564
2197.590111	-2.979900	3.122000	-9.302100	28.191357	0.000243	20.833338
2198.589358	-3.004500	3.118600	-9.368300	28.234146	0.000246	20.831846
2199.589849	-3.027900	3.117600	-9.438900	28.277350	0.000242	20.841679
2200.593174	-2.998600	3.118400	-9.349900	28.305684	0.000241	20.839861
2201.591841	-3.003400	3.117600	-9.362900	28.323628	0.000242	20.838014
2202.589785	-3.025400	3.115200	-9.423700	28.353143	0.000239	20.835965
2203.593790	-3.001100	3.116800	-9.352600	28.328361	0.000242	20.835668
2204.596233	-3.009100	3.114900	-9.371500	28.323579	0.000239	20.822792
2205.591755	-3.019100	3.112800	-9.395900	28.263751	0.000239	20.820876
2206.598088	-3.005300	3.113000	-9.354400	28.226620	0.000238	20.853665
2207.591050	-2.971200	3.114600	-9.252300	28.202336	0.000238	20.836804
2208.593954	-3.017300	3.112100	-9.389100	28.126380	0.000236	20.850899
2209.593234	-3.023800	3.110800	-9.406000	28.076359	0.000237	20.843693
2210.594616	-3.010900	3.110800	-9.364800	28.133950	0.000235	20.836709
2211.600696	-3.042900	3.107800	-9.455200	28.172026	0.000236	20.847066
2212.594637	-2.998100	3.109900	-9.322800	28.220786	0.000234	20.829775
2213.598763	-3.012700	3.107200	-9.360600	28.277177	0.000234	20.848143
2214.599264	-2.993100	3.106700	-9.297400	28.302411	0.000234	20.838937
2215.593649	-2.994800	3.108800	-9.309600	28.282063	0.000232	20.811338
2216.597291	-3.008200	3.104700	-9.338500	28.214698	0.000232	20.831706
2217.593979	-3.010100	3.105700	-9.347400	28.196256	0.000232	20.824045
2218.597088	-3.024200	3.104700	-9.387700	28.183888	0.000232	20.822025
2219.599729	-2.998400	3.105100	-9.309100	28.237480	0.000231	20.832358
2220.595870	-2.987200	3.103400	-9.269200	28.227938	0.000233	20.809001
2221.599485	-2.986900	3.102300	-9.264500	28.256323	0.000232	20.820509
2222.598259	-2.978000	3.101800	-9.236200	28.289632	0.000233	20.815639
2223.597680	-2.996700	3.101000	-9.291500	28.272437	0.000231	20.839104
2224.600461	-3.002300	3.100500	-9.307700	28.295067	0.000231	20.828223
2225.599654	-2.993300	3.098700	-9.274400	28.305349	0.000231	20.812972
2226.599169	-2.996000	3.097700	-9.279900	28.333530	0.000230	20.798673
2227.605558	-2.996600	3.097800	-9.282000	28.260041	0.000230	20.803390
2228.601032	-2.991400	3.096100	-9.260000	28.221001	0.000229	20.817190
2229.604949	-3.008600	3.095200	-9.310200	28.182607	0.000228	20.834012
2230.612453	-2.997600	3.094700	-9.276300	28.163793	0.000230	20.814123
2231.601297	-2.977000	3.094400	-9.210100	28.163547	0.000228	20.820988
2232.606622	-3.018900	3.092200	-9.333000	28.129955	0.000229	20.820835
2233.603252	-2.995300	3.093400	-9.264500	28.161040	0.000228	20.807084
2234.601799	-3.028300	3.090100	-9.356700	28.182808	0.000226	20.813352
2235.605350	-2.999500	3.091800	-9.273100	28.194147	0.000227	20.827611
2236.608706	-2.969400	3.090600	-9.176500	28.172958	0.000226	20.817185
2237.601931	-3.015100	3.089500	-9.314600	28.156498	0.000226	20.807727
2238.603706	-3.025800	3.087300	-9.340500	28.168670	0.000225	20.804808
2239.613492	-3.007500	3.088300	-9.284700	28.204959	0.000226	20.805307
2240.606420	-3.013600	3.086400	-9.299900	28.224313	0.000225	20.813412
2241.603412	-3.020500	3.083900	-9.313200	28.248106	0.000226	20.806073
2242.605555	-2.981200	3.086500	-9.199400	28.258786	0.000223	20.820618
2243.606549	-3.003200	3.084500	-9.261000	28.264638	0.000225	20.799484
2244.604358	-3.006300	3.082600	-9.266500	28.264736	0.000225	20.785358
2245.610250	-2.987700	3.081700	-9.206700	28.277246	0.000225	20.814548
2246.606807	-2.989700	3.081700	-9.212600	28.269642	0.000222	20.796461
2247.603906	-2.996900	3.082100	-9.235500	28.247626	0.000223	20.798477
2248.608939	-3.003800	3.080400	-9.251600	28.226330	0.000223	20.804063
2249.607076	-2.978900	3.078500	-9.168400	28.289436	0.000222	20.802641
2250.604842	-2.980900	3.077400	-9.172400	28.316971	0.000221	20.809027
2251.610205	-2.983200	3.078800	-9.183700	28.309313	0.000222	20.818386
2252.605575	-2.996500	3.076800	-9.219300	28.280185	0.000221	20.811343
2253.609661	-2.986300	3.076400	-9.186200	28.299346	0.000221	20.805980
2254.608258	-2.993800	3.075000	-9.203700	28.287891	0.000219	20.814835
2255.605489	-2.990200	3.073200	-9.188000	28.330103	0.000223	20.819404
2256.609409	-3.005500	3.073000	-9.235300	28.320483	0.000220	20.816357
2257.605327	-2.995300	3.074100	-9.206800	28.301745	0.000220	20.792274
2258.608433	-3.022300	3.069800	-9.276600	28.314352	0.000219	20.796433
2259.609403	-3.012700	3.070000	-9.248600	28.328308	0.000219	20.823761
2260.610891	-3.004200	3.070000	-9.222000	28.368011	0.000218	20.793563
2261.605445	-2.990800	3.068200	-9.175400	28.392914	0.000220	20.800147
2262.605714	-3.023400	3.066800	-9.270400	28.417179	0.000219	20.811779
2263.607302	-2.971000	3.066800	-9.110300	28.439457	0.000218	20.785374
2264.610494	-2.984600	3.065700	-9.148500	28.434003	0.000220	20.799797
2265.609939	-3.007800	3.062900	-9.212100	28.414525	0.000218	20.791563
2266.607309	-3.013000	3.063200	-9.228800	28.346124	0.000217	20.812302
2267.611281	-3.013700	3.061000	-9.224100	28.329171	0.000217	20.799974
2268.609155	-3.010300	3.060000	-9.209600	28.310305	0.000217	20.801842
2269.607676	-2.998200	3.061200	-9.176900	28.307534	0.000217	20.805215
2270.610744	-2.988900	3.059200	-9.142000	28.323540	0.000218	20.804262
2271.609701	-2.987100	3.059100	-9.137300	28.317595	0.000215	20.809181
2272.609208	-3.006100	3.057300	-9.189500	28.316182	0.000214	20.788792
2273.611318	-2.961200	3.056400	-9.049800	28.310506	0.000215	20.775965
2274.610137	-3.002200	3.056000	-9.174200	28.272935	0.000214	20.804044
2275.609001	-2.995500	3.053600	-9.145200	28.270154	0.000215	20.797451
2276.617456	-3.004400	3.054300	-9.175400	28.288221	0.000216	20.801891
2277.608968	-2.969100	3.053000	-9.063800	28.318983	0.000214	20.779284
2278.610987	-3.004400	3.050700	-9.165000	28.351525	0.000214	20.800671
2279.613741	-3.000100	3.049600	-9.148000	28.363003	0.000213	20.803694
2280.609757	-2.995900	3.049200	-9.133700	28.407438	0.000213	20.792961
2281.610652	-3.003300	3.047400	-9.150800	28.408453	0.000213	20.798251
2282.615805	-3.001800	3.047000	-9.145300	28.476949	0.000214	20.795154
2283.611331	-3.001700	3.045400	-9.140700	28.516327	0.000213	20.789291
2284.611651	-3.025800	3.044300	-9.210900	28.561079	0.000214	20.801170
2285.613963	-2.993300	3.044600	-9.112300	28.590760	0.000215	20.792181
2286.614203	-3.002500	3.043600	-9.137200	28.584718	0.000215	20.787518
2287.618521	-3.008800	3.041000	-9.148800	28.575052	0.000213	20.768300
2288.617075	-2.985500	3.040600	-9.076500	28.567391	0.000215	20.793776
2289.613904	-2.990900	3.039900	-9.090000	28.531982	0.000213	20.791781
2290.613654	-2.987700	3.039200	-9.078400	28.546897	0.000214	20.779300
2291.615054	-2.998900	3.037900	-9.109500	28.535327	0.000213	20.788985
2292.612545	-2.981400	3.036600	-9.052400	28.538368	0.000213	20.797264
2293.617303	-2.978300	3.035300	-9.038800	28.589264	0.000214	20.810589
2294.613702	-2.998300	3.034400	-9.097200	28.601304	0.000213	20.775774
2295.613976	-2.996000	3.033600	-9.087300	28.586337	0.000213	20.784407
2296.617080	-3.019900	3.032500	-9.155500	28.576818	0.000213	20.791890
2297.615766	-3.021500	3.031400	-9.156600	28.591830	0.000211	20.784250
2298.615113	-3.023600	3.029800	-9.160200	28.602462	0.000211	20.799699
2299.619055	-2.998800	3.028400	-9.080500	28.638306	0.000212	20.782694
2300.614909	-2.996100	3.027100	-9.068200	28.631911	0.000210	20.777202
2301.620133	-3.021500	3.025100	-9.139600	28.632872	0.000211	20.792395
2302.619030	-3.037900	3.024100	-9.186000	28.642460	0.000211	20.784033
2303.615417	-2.989000	3.023500	-9.036000	28.609451	0.000210	20.810058
2304.621083	-3.007900	3.023900	-9.094200	28.551661	0.000212	20.780305
2305.620230	-3.003900	3.020100	-9.070900	28.549925	0.000210	20.781876
2306.618425	-3.002100	3.019700	-9.064400	28.592715	0.000210	20.762381
2307.620132	-3.002300	3.019600	-9.065200	28.611394	0.000210	20.800635
2308.618490	-2.979200	3.017900	-8.990000	28.615877	0.000209	20.778123
2309.622327	-3.020600	3.016700	-9.109900	28.610890	0.000209	20.782109
2310.621704	-3.015300	3.016200	-9.093000	28.592554	0.000207	20.779289
2311.620081	-3.027500	3.012500	-9.118300	28.570004	0.000207	20.781709
2312.621051	-2.994800	3.012700	-9.021300	28.552584	0.000207	20.781709
2313.619765	-2.997400	3.012000	-9.027000	28.526091	0.000208	20.797702
2314.618735	-2.964100	3.012600	-8.928000	28.564154	0.000208	20.791938
2315.618001	-2.971900	3.009900	-8.943500	28.623940	0.000208	20.773441
2316.619359	-2.994600	3.008400	-9.007900	28.619134	0.000207	20.780929
2317.618654	-2.996000	3.007200	-9.009200	28.622753	0.000207	20.773668
2318.621250	-2.993500	3.005800	-8.997300	28.661028	0.000208	20.749155
2319.621337	-3.026400	3.002500	-9.084600	28.673920	0.000208	20.766408
2320.619747	-3.004500	3.001900	-9.018400	28.698002	0.000206	20.782603
2321.620152	-2.986300	3.000800	-8.959900	28.715767	0.000205	20.770151
2322.618084	-3.020300	2.998600	-9.054500	28.692701	0.000207	20.790540
2323.619440	-3.004400	2.999000	-9.009400	28.693961	0.000205	20.779482
2324.620202	-2.985800	2.997600	-8.949600	28.702591	0.000206	20.767785
2325.620280	-3.031200	2.994600	-9.076600	28.733013	0.000206	20.753857
2326.620752	-3.022700	2.994100	-9.049800	28.661017	0.000205	20.773327
2327.622758	-2.972300	2.995800	-8.903600	28.610865	0.000205	20.773549
2328.623116	-3.025200	2.992000	-9.048700	28.579175	0.000206	20.734519
2329.621858	-3.001200	2.989800	-8.971500	28.553060	0.000205	20.755160
2330.622804	-2.971300	2.991700	-8.888300	28.581661	0.000205	20.754567
2331.623094	-3.002700	2.987700	-8.970700	28.605573	0.000204	20.763478
2332.623986	-3.001500	2.987800	-8.966400	28.578591	0.000205	20.759062
2333.625072	-2.981300	2.986100	-8.901200	28.567689	0.000205	20.743340
2334.626420	-2.968300	2.984900	-8.859800	28.550450	0.000205	20.746367
2335.627959	-2.988900	2.983100	-8.915700	28.551735	0.000205	20.764732
2336.624907	-2.995300	2.981400	-8.928700	28.518557	0.000204	20.766880
2337.627536	-3.029000	2.978700	-9.021200	28.537247	0.000205	20.745873
2338.630369	-3.011700	2.978900	-8.971100	28.551769	0.000205	20.773775
2339.633908	-3.012300	2.977300	-8.967900	28.551798	0.000204	20.751518
2340.632300	-2.983300	2.979400	-8.887700	28.562376	0.000205	20.738938
2341.633277	-3.039300	2.974300	-9.038200	28.574078	0.000206	20.751671
2342.629990	-3.012300	2.971600	-8.950000	28.623138	0.000204	20.755564
2343.627784	-2.989100	2.973200	-8.886300	28.650516	0.000205	20.748999
2344.629600	-2.996800	2.972100	-8.906000	28.631318	0.000204	20.748629
2345.629409	-3.015800	2.968800	-8.951600	28.605106	0.000205	20.745936
2346.627127	-2.986300	2.967200	-8.859800	28.603222	0.000205	20.735030
2347.631677	-3.016200	2.966600	-8.946600	28.537457	0.000204	20.747507
2348.630528	-3.008100	2.964100	-8.915200	28.497142	0.000203	20.767600
2349.630424	-3.014100	2.962400	-8.927800	28.444010	0.000205	20.724524
2350.630541	-3.007700	2.961300	-8.906000	28.466611	0.000204	20.748233
2351.631065	-2.984100	2.961100	-8.835000	28.507898	0.000205	20.731489
2352.630675	-3.021300	2.957700	-8.934900	28.521445	0.000204	20.719052
2353.630593	-2.991900	2.957800	-8.847900	28.538992	0.000202	20.745734
2354.631777	-3.000100	2.956200	-8.866800	28.547418	0.000203	20.756591
2355.633061	-3.019800	2.953700	-8.918400	28.526624	0.000204	20.767892
2356.629700	-3.013500	2.953200	-8.898800	28.550557	0.000204	20.760701
2357.630352	-3.004400	2.952200	-8.867100	28.504637	0.000204	20.743853
2358.630647	-3.020500	2.948800	-8.904400	28.519458	0.000205	20.735071
2359.640205	-3.001900	2.947700	-8.847500	28.524191	0.000204	20.752166
2360.634595	-2.982700	2.947600	-8.790600	28.540047	0.000205	20.739210
2361.633409	-2.972900	2.945300	-8.754700	28.588766	0.000203	20.737540
2362.633629	-2.992200	2.944700	-8.810000	28.644416	0.000203	20.735742
2363.636334	-3.001100	2.943300	-8.832000	28.660938	0.000204	20.735787
2364.635378	-2.977900	2.940200	-8.754300	28.696568	0.000205	20.752235
2365.633247	-3.008000	2.939000	-8.839400	28.710313	0.000205	20.744268
2366.637044	-2.984800	2.937900	-8.768100	28.682764	0.000206	20.726951
2367.632269	-2.974000	2.936000	-8.730400	28.697132	0.000203	20.763235
2368.634563	-3.010600	2.934200	-8.833200	28.731123	0.000205	20.760489
2369.637847	-3.001400	2.932400	-8.800300	28.757136	0.000205	20.751603
2370.636312	-3.028200	2.928900	-8.868100	28.727578	0.000204	20.746486
2371.638247	-2.991600	2.928500	-8.759400	28.741127	0.000205	20.729312
2372.640531	-2.994500	2.927100	-8.764700	28.789930	0.000203	20.747178
2373.635883	-2.983100	2.925000	-8.724100	28.751351	0.000204	20.723489
2374.642045	-2.976600	2.924200	-8.702900	28.749914	0.000202	20.760450
2375.636843	-2.994500	2.921900	-8.747800	28.750954	0.000205	20.747747
2376.639858	-2.997100	2.921700	-8.756100	28.779070	0.000204	20.732445
2377.637891	-3.003800	2.918500	-8.765700	28.777060	0.000204	20.747490
2378.636242	-2.999800	2.917100	-8.749800	28.767743	0.000203	20.742373
2379.640667	-3.028800	2.915900	-8.830500	28.753048	0.000202	20.751279
2380.639504	-2.989500	2.913000	-8.707300	28.737137	0.000203	20.739993
2381.638235	-3.008500	2.912500	-8.761100	28.720441	0.000203	20.761583
2382.639190	-3.019300	2.910800	-8.786600	28.720215	0.000203	20.741914
2383.635316	-2.991700	2.909500	-8.703200	28.710497	0.000202	20.746350
2384.639793	-2.967000	2.907400	-8.625000	28.719858	0.000201	20.742977
2385.641445	-2.990600	2.905300	-8.686900	28.737300	0.000202	20.760072
2386.643006	-2.998900	2.904400	-8.708800	28.736334	0.000204	20.756728
2387.639880	-2.983200	2.902100	-8.657200	28.775002	0.000204	20.731192
2388.638323	-3.014100	2.899500	-8.738200	28.817635	0.000203	20.748534
2389.638851	-3.034700	2.897300	-8.791400	28.850088	0.000201	20.713895
2390.642303	-2.998900	2.898100	-8.689200	28.875823	0.000201	20.738873
2391.640136	-3.024300	2.895700	-8.756600	28.865964	0.000200	20.746959
2392.643814	-3.011500	2.892900	-8.710000	28.841935	0.000200	20.740770
2393.641359	-2.998300	2.892100	-8.669800	28.812973	0.000201	20.742889
2394.642674	-2.995900	2.889400	-8.655100	28.810169	0.000201	20.741961
2395.646418	-3.009300	2.888700	-8.691300	28.848343	0.000201	20.751968
2396.644084	-2.989500	2.885200	-8.624200	28.847897	0.000201	20.733500
2397.639944	-3.009100	2.882800	-8.673700	28.914781	0.000201	20.736394
2398.647388	-2.984100	2.882000	-8.598100	28.952874	0.000202	20.743478
2399.641910	-3.009200	2.879900	-8.665300	28.966203	0.000199	20.755485
2400.643293	-2.997500	2.877700	-8.625100	28.996416	0.000199	20.757950
2401.646030	-3.018800	2.874600	-8.677000	29.026790	0.000201	20.752516
2402.646038	-2.976100	2.875500	-8.556600	29.016804	0.000202	20.744826
2403.643040	-2.978700	2.872300	-8.554200	29.060864	0.000201	20.761245
2404.646978	-2.990600	2.870800	-8.585000	29.043084	0.000202	20.742855
2405.647761	-3.032800	2.868300	-8.697500	28.981729	0.000201	20.777766
2406.646737	-3.025800	2.865500	-8.668800	28.909452	0.000199	20.734819
2407.648853	-3.031900	2.864100	-8.682100	28.829065	0.000200	20.736815
2408.641698	-3.002500	2.863500	-8.595900	28.806349	0.000201	20.747597
2409.641243	-2.996100	2.858600	-8.563900	28.763270	0.000200	20.744979
2410.644209	-3.009200	2.856900	-8.596600	28.774640	0.000198	20.767813
2411.648458	-3.012000	2.856300	-8.602200	28.775111	0.000200	20.742682
2412.646208	-2.986400	2.853500	-8.520600	28.782196	0.000202	20.759303
2413.644763	-2.998200	2.852600	-8.551300	28.760146	0.000201	20.759377
2414.646642	-2.984500	2.850000	-8.503600	28.724425	0.000200	20.753741
2415.644861	-2.971700	2.847500	-8.461100	28.697960	0.000201	20.747948
2416.645817	-2.964600	2.846300	-8.436500	28.691276	0.000199	20.731731
2417.650987	-2.994200	2.844100	-8.515000	28.720659	0.000200	20.756586
2418.648132	-3.037300	2.839800	-8.624000	28.694371	0.000200	20.758557
2419.644838	-2.985200	2.839700	-8.475200	28.659785	0.000200	20.763076
2420.647447	-3.001000	2.836300	-8.511000	28.638375	0.000198	20.761427
2421.653663	-2.990300	2.834000	-8.473100	28.582945	0.000200	20.750644
2422.650846	-3.012200	2.832200	-8.530500	28.580640	0.000202	20.754487
2423.651516	-3.019900	2.829300	-8.543200	28.619666	0.000201	20.747799
2424.647021	-2.982400	2.829600	-8.438100	28.691816	0.000198	20.754087
2425.648829	-2.998300	2.826800	-8.473800	28.743896	0.000199	20.749172
2426.650307	-2.980000	2.824800	-8.416800	28.763421	0.000202	20.778798
2427.649536	-2.966000	2.823200	-8.372800	28.809526	0.000200	20.755539
2428.646264	-2.987800	2.820100	-8.425600	28.765893	0.000201	20.752364
2429.644876	-2.981400	2.817700	-8.398400	28.745956	0.000201	20.767369
2430.650280	-2.969900	2.815900	-8.361800	28.784722	0.000200	20.757579
2431.648169	-3.006000	2.811600	-8.449900	28.828128	0.000198	20.780917
2432.650828	-3.006000	2.810600	-8.447700	28.888076	0.000198	20.759278
2433.653017	-3.014500	2.806600	-8.458200	28.976856	0.000196	20.757209
2434.649555	-3.006500	2.805000	-8.432500	29.015299	0.000198	20.759431
2435.650069	-2.965600	2.803800	-8.313900	29.053761	0.000199	20.753139
2436.655515	-3.010700	2.800600	-8.429400	29.058388	0.000200	20.787674
2437.651976	-3.022100	2.798200	-8.454900	29.037618	0.000199	20.769591
2438.654588	-2.969900	2.796100	-8.303400	29.011235	0.000197	20.753914
2439.651421	-2.995400	2.793600	-8.367600	28.973880	0.000200	20.767013
2440.649813	-2.959400	2.791300	-8.259100	28.929464	0.000200	20.758775
2441.652000	-2.976400	2.788500	-8.298300	28.878560	0.000198	20.762494
2442.650980	-2.967500	2.785500	-8.265000	28.794778	0.000199	20.766287
2443.650305	-2.994600	2.782900	-8.333000	28.779666	0.000199	20.768609
2444.661715	-2.968000	2.781900	-8.254600	28.709475	0.000198	20.771874
2445.650621	-3.002300	2.776800	-8.336100	28.704772	0.000199	20.761447
2446.652297	-2.989700	2.774400	-8.293000	28.698329	0.000199	20.743577
2447.654358	-2.979100	2.771700	-8.256100	28.703658	0.000197	20.764593
2448.652151	-3.031700	2.767900	-8.389700	28.776445	0.000200	20.776744
2449.654561	-3.036200	2.765000	-8.393400	28.824113	0.000198	20.770708
2450.659158	-2.976600	2.764400	-8.227500	28.862439	0.000198	20.764746
2451.654145	-3.002700	2.761100	-8.289600	28.917355	0.000199	20.775499
2452.656590	-3.012400	2.755600	-8.299500	28.993822	0.000199	20.752492
2453.654359	-3.009300	2.754900	-8.289000	29.055525	0.000198	20.761081
2454.653040	-2.988200	2.752300	-8.222600	29.036500	0.000197	20.770836
2455.657153	-2.990600	2.746500	-8.212500	29.064020	0.000198	20.780072
2456.655774	-2.986000	2.744900	-8.195900	29.118140	0.000199	20.777706
2457.652116	-2.986400	2.743300	-8.192400	29.154417	0.000199	20.767319
2458.656707	-3.022700	2.737900	-8.274800	29.149128	0.000200	20.783326
2459.653570	-2.955200	2.736100	-8.084800	29.195044	0.000197	20.794034
2460.655618	-2.994500	2.732500	-8.181400	29.198362	0.000197	20.775567
2461.658373	-2.998100	2.729200	-8.181700	29.200989	0.000199	20.753557
2462.667464	-2.995000	2.725500	-8.161400	29.214237	0.000199	20.773546
2463.660460	-3.001000	2.723000	-8.170400	29.270453	0.000197	20.766187
2464.661400	-2.995200	2.717900	-8.139200	29.282092	0.000199	20.770805
2465.663697	-2.994700	2.715100	-8.130100	29.227715	0.000196	20.769585
2466.660553	-2.995300	2.710800	-8.117900	29.162914	0.000198	20.769243
2467.658936	-2.989500	2.708800	-8.097300	29.170492	0.000200	20.777354
2468.661114	-2.991800	2.705200	-8.092700	29.169355	0.000199	20.780949
2469.659608	-3.011600	2.702000	-8.136700	29.185279	0.000199	20.772814
2470.665733	-2.998900	2.697200	-8.087400	29.212496	0.000199	20.782697
2471.657987	-3.041400	2.693100	-8.190100	29.211609	0.000199	20.759517
2472.662915	-2.975100	2.692900	-8.010100	29.188876	0.000198	20.778810
2473.661811	-3.027600	2.687000	-8.133600	29.219469	0.000199	20.790199
2474.660072	-2.990800	2.683500	-8.024700	29.208893	0.000196	20.786179
2475.662657	-3.011700	2.678000	-8.064500	29.195767	0.000198	20.778167
2476.662087	-3.001800	2.676400	-8.032500	29.146517	0.000199	20.775006
2477.660244	-2.985700	2.672200	-7.977600	29.142262	0.000198	20.772615
2478.661134	-3.002500	2.667800	-8.007700	29.125896	0.000201	20.784572
2479.662281	-3.006200	2.663800	-8.006700	29.104426	0.000199	20.770525
2480.664660	-3.002100	2.659200	-7.981400	29.130880	0.000200	20.779638
2481.670414	-2.995500	2.654400	-7.950300	29.168970	0.000199	20.783406
2482.661141	-3.020600	2.650700	-8.005000	29.242675	0.000199	20.772807
2483.661025	-2.992700	2.646700	-7.919900	29.295767	0.000199	20.781267
2484.669818	-3.002800	2.641800	-7.931900	29.297653	0.000199	20.786014
2485.668884	-3.004900	2.639000	-7.929200	29.324892	0.000199	20.774584
2486.666027	-2.954400	2.634300	-7.781100	29.344406	0.000198	20.781924
2487.670217	-2.999000	2.628200	-7.881300	29.347111	0.000198	20.793659
2488.665981	-2.996400	2.623700	-7.860400	29.359416	0.000196	20.781879
2489.667782	-2.996400	2.619500	-7.847800	29.411709	0.000198	20.788117
2490.665561	-3.037700	2.612800	-7.934800	29.432510	0.000199	20.791066
2491.663336	-2.990700	2.610500	-7.806000	29.473857	0.000200	20.809508
2492.671299	-3.010600	2.604200	-7.839700	29.514335	0.000199	20.781084
2493.665850	-2.996000	2.600300	-7.789300	29.530529	0.000199	20.790769
2494.669671	-3.009800	2.592900	-7.802500	29.516119	0.000199	20.785252
2495.665125	-3.001400	2.588400	-7.768200	29.501459	0.000199	20.785173
2496.668228	-2.977500	2.585400	-7.697400	29.434470	0.000199	20.793041
2497.669017	-3.009200	2.577600	-7.755200	29.405696	0.000199	20.788695
2498.668880	-3.009500	2.572800	-7.742000	29.465615	0.000200	20.799304
2499.669645	-3.014900	2.568500	-7.741700	29.493148	0.000200	20.779641
2500.674809	-3.008500	2.561700	-7.706000	29.519215	0.000201	20.794063
2501.669507	-2.983100	2.557000	-7.626600	29.605017	0.000203	20.788097
2502.666535	-2.981100	2.551300	-7.604600	29.614772	0.000201	20.785603
2503.672623	-2.970800	2.546700	-7.565200	29.641821	0.000201	20.793432
2504.669884	-3.017500	2.537800	-7.657000	29.651899	0.000201	20.805014
2505.668547	-3.006200	2.532700	-7.612200	29.677840	0.000200	20.811726
2506.671603	-3.025400	2.526200	-7.641700	29.714896	0.000200	20.793135
2507.676840	-3.030800	2.518800	-7.633000	29.799844	0.000202	20.809083
2508.673830	-3.004000	2.514000	-7.551500	29.797909	0.000201	20.809503
2509.674017	-3.017300	2.508000	-7.566700	29.737019	0.000201	20.790310
2510.676362	-3.016800	2.502600	-7.548900	29.730190	0.000200	20.788167
2511.672660	-2.999300	2.494800	-7.481800	29.733477	0.000201	20.810921
