LabVIEW Measurement	
Writer_Version	2
Reader_Version	2
Separator	Tab
Decimal_Separator	.
Multi_Headings	No
X_Columns	One
Time_Pref	Absolute
Operator	admin
Description	Clolumns are: time, Current, Voltage, Power, Battery Temp, and Chamber Temp
Date	2024/08/16
Time	13:06:06.104549407958984375
***End_of_Header***	
	
Channels	6						
Samples	1	1	1	1	1	1	
Date	2024/08/29	2024/08/29	2024/08/29	2024/08/29	2024/08/29	2024/08/29	
Time	06:21:49.2862038612365722656	06:21:49.301513671875	06:21:49.3065056800842285156	06:21:49.26169586181640625	06:21:49.26169586181640625	06:21:49.26169586181640625	
X_Dimension	Time	Time	Time	Time	Time	Time	
X0	0.0000000000000000E+0	0.0000000000000000E+0	0.0000000000000000E+0	0.0000000000000000E+0	0.0000000000000000E+0	0.0000000000000000E+0	
Delta_X	1.000000	1.000000	1.000000	1.000000	1.000000	1.000000	
***End_of_Header***							
X_Value	Untitled	Untitled 1	Untitled 2	Untitled 3	Untitled 4	Untitled 5	Comment
0.000000	0.031055	4.107000	0.127390	21.081902	0.000958	20.814514
0.999500	-2.985500	3.944700	-11.776000	21.078400	0.000959	20.821443
1.999952	-3.004400	3.936500	-11.825000	21.105294	0.000958	20.811833
3.002600	-2.984800	3.933100	-11.738000	21.081908	0.000957	20.811675
4.001337	-2.996400	3.927300	-11.767000	21.097601	0.000956	20.810777
4.997671	-3.009100	3.924000	-11.806000	21.094428	0.000957	20.804284
5.998388	-2.968600	3.921600	-11.640000	21.093126	0.000954	20.816258
7.009133	-2.979400	3.919900	-11.678000	21.088405	0.000953	20.795888
8.000279	-2.996600	3.916000	-11.734000	21.089599	0.000953	20.816049
8.999929	-3.005300	3.913000	-11.758000	21.111683	0.000952	20.793094
10.009566	-2.992900	3.913700	-11.711000	21.089447	0.000951	20.784129
10.998211	-2.995200	3.911300	-11.714000	21.118812	0.000951	20.799277
11.999539	-3.000100	3.908200	-11.725000	21.099149	0.000948	20.802368
13.007976	-2.991700	3.909300	-11.693000	21.101190	0.000949	20.807729
14.001603	-2.999900	3.906100	-11.717000	21.090939	0.000949	20.817863
15.005834	-2.996100	3.904600	-11.697000	21.123615	0.000946	20.837271
16.005577	-3.005200	3.903900	-11.731000	21.126307	0.000946	20.814361
16.999821	-3.002600	3.903600	-11.719000	21.124727	0.000946	20.799029
18.005637	-3.011400	3.903000	-11.753000	21.126996	0.000946	20.793713
18.999898	-3.000200	3.900900	-11.702000	21.122805	0.000946	20.815125
20.003558	-2.982600	3.901100	-11.635000	21.144433	0.000944	20.800724
21.001000	-2.992700	3.900400	-11.670000	21.142512	0.000945	20.812552
22.008383	-3.017500	3.898500	-11.762000	21.142714	0.000945	20.807539
23.003403	-3.008900	3.896900	-11.725000	21.159367	0.000942	20.827516
24.006776	-2.991900	3.897700	-11.660000	21.182524	0.000943	20.798523
25.005015	-3.008500	3.896600	-11.722000	21.157098	0.000943	20.803910
26.005160	-3.028600	3.894500	-11.794000	21.190499	0.000941	20.809347
27.003994	-3.000900	3.894400	-11.686000	21.165757	0.000943	20.791708
28.013771	-3.004100	3.893100	-11.694000	21.161712	0.000941	20.825594
29.005730	-2.985900	3.892900	-11.623000	21.182625	0.000941	20.800047
30.007534	-2.978400	3.894000	-11.597000	21.201629	0.000941	20.790134
31.007060	-3.005900	3.892700	-11.700000	21.198879	0.000940	20.805402
32.007438	-2.993700	3.892500	-11.651000	21.184793	0.000938	20.790362
33.007282	-3.011300	3.891100	-11.716000	21.219842	0.000938	20.808354
34.014164	-2.987900	3.892100	-11.629000	21.228089	0.000939	20.801905
35.015633	-2.980900	3.890700	-11.597000	21.207961	0.000937	20.790779
36.008724	-2.986000	3.889000	-11.612000	21.214666	0.000936	20.804598
37.007063	-2.999500	3.888700	-11.663000	21.224373	0.000935	20.788705
38.012966	-2.986700	3.889800	-11.616000	21.199499	0.000935	20.813133
39.008009	-3.004700	3.888600	-11.682000	21.241487	0.000936	20.794445
40.016187	-3.008200	3.886700	-11.690000	21.243402	0.000936	20.793042
41.015772	-3.021400	3.886200	-11.740000	21.250233	0.000935	20.800824
42.011529	-2.985100	3.887100	-11.602000	21.246568	0.000937	20.789571
43.015662	-2.985000	3.887000	-11.602000	21.230472	0.000933	20.794805
44.021150	-3.022600	3.884700	-11.739000	21.260831	0.000933	20.792460
45.011192	-3.004900	3.885200	-11.672000	21.260237	0.000935	20.800401
46.009796	-3.004000	3.885900	-11.672000	21.275871	0.000931	20.788540
47.019556	-2.992100	3.885100	-11.624000	21.272655	0.000934	20.785796
48.017514	-2.978800	3.884800	-11.571000	21.285875	0.000934	20.804238
49.019367	-2.985600	3.883700	-11.594000	21.284377	0.000931	20.768600
50.012378	-2.990000	3.882900	-11.609000	21.328505	0.000932	20.812747
51.013713	-2.987800	3.883500	-11.602000	21.297370	0.000931	20.786340
52.012657	-2.974400	3.883200	-11.548000	21.318046	0.000933	20.787111
53.013680	-2.988500	3.883700	-11.606000	21.316940	0.000932	20.784108
54.013739	-3.005400	3.881900	-11.665000	21.325894	0.000930	20.789747
55.015247	-3.000600	3.881400	-11.645000	21.317313	0.000931	20.783533
56.012067	-3.010600	3.881200	-11.684000	21.332580	0.000929	20.785530
57.014753	-3.019300	3.879600	-11.711000	21.343872	0.000930	20.788293
58.018050	-2.975400	3.880900	-11.545000	21.342577	0.000928	20.772298
59.014330	-3.027000	3.879600	-11.743000	21.358134	0.000929	20.798768
60.017820	-2.995000	3.880500	-11.621000	21.350450	0.000927	20.776382
61.015561	-2.990700	3.879800	-11.602000	21.366165	0.000928	20.790208
62.013046	-2.964100	3.880300	-11.501000	21.371429	0.000929	20.782672
63.020767	-2.977100	3.879800	-11.550000	21.365717	0.000930	20.796872
64.014668	-2.986500	3.879000	-11.583000	21.362728	0.000928	20.792933
65.015844	-2.992500	3.877700	-11.603000	21.360927	0.000927	20.779277
66.022182	-3.025900	3.877700	-11.731000	21.388111	0.000928	20.769016
67.023335	-2.971100	3.878800	-11.523000	21.371947	0.000928	20.784613
68.012538	-2.988700	3.878800	-11.592000	21.390632	0.000930	20.781022
69.022652	-3.008700	3.877600	-11.666000	21.395099	0.000927	20.766051
70.024343	-3.006400	3.877200	-11.654000	21.415945	0.000926	20.784537
71.022586	-2.985100	3.877400	-11.573000	21.411054	0.000928	20.764945
72.021890	-2.988400	3.875600	-11.581000	21.402878	0.000927	20.774308
73.020214	-2.998500	3.876700	-11.623000	21.421613	0.000927	20.765552
74.020158	-2.996200	3.875800	-11.612000	21.425878	0.000926	20.761759
75.020444	-2.996100	3.875000	-11.608000	21.438622	0.000927	20.792529
76.017764	-3.000600	3.876400	-11.630000	21.436828	0.000927	20.785992
77.021008	-2.998600	3.874600	-11.617000	21.450798	0.000927	20.800918
78.027119	-3.005000	3.875000	-11.643000	21.443936	0.000925	20.761335
79.017840	-3.015100	3.875100	-11.683000	21.478884	0.000929	20.781130
80.022053	-2.994400	3.873800	-11.598000	21.480779	0.000929	20.776388
81.026173	-3.007400	3.873000	-11.646000	21.492127	0.000928	20.764035
82.027300	-2.999500	3.873900	-11.617000	21.483307	0.000928	20.769434
83.025444	-2.982400	3.873800	-11.552000	21.498262	0.000927	20.758794
84.018878	-3.001100	3.873000	-11.622000	21.514872	0.000927	20.756448
85.025684	-3.001800	3.872200	-11.622000	21.518316	0.000928	20.739504
86.028490	-2.985900	3.874300	-11.567000	21.518941	0.000928	20.755778
87.024849	-2.994200	3.872800	-11.595000	21.535804	0.000928	20.747047
88.024164	-3.006000	3.872300	-11.639000	21.530712	0.000926	20.757599
89.021497	-2.991700	3.874600	-11.591000	21.532007	0.000928	20.768378
90.018966	-2.990000	3.871400	-11.574000	21.546917	0.000926	20.753900
91.025629	-3.003000	3.872700	-11.629000	21.535090	0.000928	20.769092
92.033000	-3.002100	3.872200	-11.624000	21.531457	0.000926	20.760716
93.022788	-3.003400	3.871700	-11.626000	21.540574	0.000928	20.732379
94.034112	-3.002000	3.872100	-11.622000	21.550872	0.000925	20.756435
95.021022	-3.022100	3.869900	-11.694000	21.549501	0.000926	20.764072
96.030154	-2.992900	3.870300	-11.582000	21.568227	0.000927	20.758629
97.023097	-2.965400	3.871100	-11.478000	21.559749	0.000926	20.754886
98.023115	-3.009400	3.869800	-11.645000	21.570590	0.000929	20.754829
99.026225	-2.988600	3.869600	-11.563000	21.578620	0.000927	20.753381
100.027010	-2.993700	3.871100	-11.588000	21.576371	0.000927	20.765830
101.026524	-2.991500	3.870700	-11.578000	21.581962	0.000927	20.748191
102.031149	-2.981100	3.871100	-11.539000	21.596423	0.000927	20.740376
103.030275	-2.994900	3.867500	-11.581000	21.611655	0.000927	20.761309
104.036502	-2.988500	3.870300	-11.565000	21.631283	0.000929	20.747286
105.030826	-3.004500	3.869500	-11.624000	21.639793	0.000927	20.765286
106.026983	-2.988300	3.868900	-11.561000	21.644575	0.000928	20.761063
107.034883	-3.002000	3.866700	-11.606000	21.644803	0.000926	20.757497
108.031797	-3.005900	3.868500	-11.628000	21.660887	0.000925	20.762688
109.033112	-3.015800	3.867600	-11.663000	21.681904	0.000927	20.752901
110.028543	-3.014300	3.867000	-11.655000	21.663704	0.000927	20.760766
111.027740	-3.028700	3.866300	-11.708000	21.651303	0.000928	20.763528
112.028693	-3.009900	3.867000	-11.638000	21.674349	0.000927	20.751029
113.029788	-3.002100	3.866300	-11.606000	21.687786	0.000928	20.760209
114.032802	-2.989900	3.867400	-11.562000	21.689561	0.000927	20.747286
115.032839	-3.009800	3.866500	-11.637000	21.698910	0.000929	20.768023
116.037900	-2.999400	3.865000	-11.591000	21.703724	0.000928	20.759564
117.030950	-2.990400	3.867300	-11.563000	21.724197	0.000928	20.738802
118.035751	-2.998200	3.865800	-11.590000	21.709510	0.000930	20.753975
119.042142	-3.012600	3.865100	-11.643000	21.739263	0.000927	20.752458
120.032403	-3.008000	3.863500	-11.620000	21.731803	0.000930	20.743569
121.040475	-3.002300	3.865700	-11.604000	21.736143	0.000928	20.752654
122.031890	-2.980300	3.865000	-11.517000	21.748391	0.000928	20.754007
123.032667	-2.993000	3.864500	-11.566000	21.719990	0.000930	20.771103
124.036075	-2.999800	3.863900	-11.589000	21.737520	0.000928	20.763516
125.039988	-3.002500	3.863900	-11.600000	21.764448	0.000929	20.771501
126.040974	-3.004100	3.863500	-11.605000	21.755396	0.000929	20.751535
127.040725	-2.989900	3.865100	-11.555000	21.765345	0.000929	20.743000
128.033306	-3.001800	3.863700	-11.597000	21.777808	0.000930	20.761164
129.041874	-3.032700	3.862700	-11.713000	21.786942	0.000930	20.766987
130.040101	-3.014000	3.862900	-11.641000	21.790429	0.000932	20.740604
131.037476	-3.020200	3.862600	-11.664000	21.817085	0.000933	20.753059
132.038803	-3.017400	3.861700	-11.650000	21.800700	0.000931	20.767480
133.032893	-2.994400	3.862500	-11.565000	21.810225	0.000931	20.771324
134.034238	-2.990400	3.861900	-11.547000	21.808728	0.000931	20.757497
135.034927	-2.993800	3.862500	-11.563000	21.818879	0.000934	20.747742
136.042344	-2.990700	3.862900	-11.552000	21.827229	0.000931	20.750410
137.037044	-2.987000	3.861900	-11.534000	21.839741	0.000932	20.766253
138.037187	-2.993800	3.861800	-11.561000	21.845609	0.000933	20.786352
139.037886	-2.996700	3.861800	-11.572000	21.836703	0.000933	20.756574
140.042376	-2.991100	3.861300	-11.548000	21.849342	0.000933	20.754526
141.041632	-2.973300	3.860500	-11.477000	21.881163	0.000933	20.765988
142.043754	-2.967300	3.861800	-11.457000	21.879370	0.000932	20.762296
143.035926	-3.016100	3.859500	-11.639000	21.884808	0.000932	20.747824
144.036707	-3.008800	3.859400	-11.610000	21.867281	0.000933	20.753988
145.048454	-2.987700	3.861600	-11.536000	21.877601	0.000932	20.758155
146.040114	-2.986400	3.859400	-11.524000	21.911209	0.000933	20.772354
147.039826	-2.977900	3.860000	-11.494000	21.886804	0.000935	20.773530
148.048842	-3.001900	3.860400	-11.588000	21.903749	0.000932	20.775319
149.037134	-3.012300	3.858400	-11.622000	21.930883	0.000934	20.758382
150.044910	-3.019300	3.860200	-11.654000	21.918939	0.000933	20.773929
151.041783	-2.993800	3.860000	-11.555000	21.935493	0.000935	20.766791
152.048050	-2.981700	3.858500	-11.503000	21.947430	0.000934	20.768308
153.049827	-2.978800	3.860100	-11.496000	21.983555	0.000935	20.767012
154.048093	-2.993600	3.857100	-11.546000	21.960143	0.000937	20.762068
155.042529	-3.004400	3.858300	-11.591000	21.968644	0.000937	20.748292
156.043571	-3.011900	3.856600	-11.614000	21.988235	0.000937	20.753678
157.042202	-3.017600	3.856100	-11.634000	21.981427	0.000937	20.777684
158.042391	-2.979500	3.858300	-11.495000	21.989176	0.000936	20.757939
159.044751	-3.018700	3.856600	-11.641000	21.991020	0.000936	20.773062
160.041440	-3.015700	3.858100	-11.632000	21.991241	0.000937	20.780396
161.044715	-2.983800	3.857500	-11.508000	22.011956	0.000937	20.761303
162.044375	-2.996700	3.856200	-11.555000	22.016016	0.000935	20.778170
163.050647	-3.004100	3.855600	-11.582000	22.017753	0.000937	20.780383
164.048278	-3.005800	3.856400	-11.591000	22.018466	0.000939	20.753596
165.045155	-3.004200	3.856900	-11.585000	22.020986	0.000939	20.776507
166.050450	-2.998700	3.857000	-11.565000	22.028931	0.000938	20.756959
167.049562	-3.004600	3.855800	-11.584000	22.008911	0.000938	20.757781
168.051843	-3.014700	3.855000	-11.620000	22.037595	0.000938	20.756624
169.047486	-3.002500	3.856000	-11.575000	22.054021	0.000940	20.778283
170.048493	-2.995200	3.855400	-11.547000	22.081744	0.000940	20.786597
171.050809	-2.988400	3.855800	-11.522000	22.068874	0.000938	20.770393
172.049288	-2.999800	3.856100	-11.566000	22.064580	0.000939	20.769887
173.045636	-3.019500	3.853200	-11.633000	22.083070	0.000941	20.788873
174.046039	-3.029200	3.853900	-11.673000	22.096053	0.000941	20.754455
175.045910	-3.025300	3.854200	-11.659000	22.099836	0.000939	20.784321
176.053191	-3.012200	3.855000	-11.611000	22.073263	0.000942	20.779528
177.050732	-2.990400	3.854600	-11.526000	22.046587	0.000942	20.767048
178.048985	-3.002400	3.853500	-11.568000	22.064699	0.000943	20.783284
179.055839	-3.009400	3.852900	-11.594000	22.095289	0.000941	20.794467
180.056689	-3.007700	3.853100	-11.589000	22.088355	0.000943	20.782310
181.047572	-2.999500	3.853400	-11.557000	22.082116	0.000943	20.768951
182.050401	-3.017800	3.852900	-11.627000	22.091879	0.000943	20.776354
183.052851	-3.003100	3.853400	-11.571000	22.129067	0.000944	20.759057
184.047713	-2.995700	3.852500	-11.540000	22.115155	0.000944	20.770260
185.057480	-2.997500	3.852300	-11.547000	22.137484	0.000944	20.774597
186.052754	-3.013100	3.851600	-11.604000	22.150145	0.000946	20.807187
187.054653	-2.997600	3.852200	-11.547000	22.163702	0.000948	20.783776
188.052473	-2.993800	3.852400	-11.532000	22.168666	0.000945	20.785427
189.054206	-3.005000	3.851700	-11.573000	22.186706	0.000947	20.779781
190.051904	-2.979400	3.852400	-11.477000	22.183511	0.000947	20.775634
191.052722	-2.988000	3.850900	-11.505000	22.194353	0.000949	20.782221
192.049929	-2.990700	3.851700	-11.518000	22.197819	0.000947	20.795649
193.050066	-2.995800	3.850100	-11.533000	22.195224	0.000948	20.757489
194.051627	-2.997100	3.850100	-11.538000	22.189345	0.000948	20.762034
195.060945	-3.003400	3.849500	-11.559000	22.192181	0.000949	20.782891
196.066395	-2.998200	3.850600	-11.544000	22.175681	0.000951	20.757362
197.053760	-3.029000	3.848400	-11.656000	22.198185	0.000951	20.787007
198.048581	-3.018100	3.849100	-11.616000	22.176634	0.000950	20.784870
199.051300	-3.001500	3.849900	-11.553000	22.183959	0.000950	20.789833
200.053882	-3.001800	3.848800	-11.552000	22.201785	0.000951	20.780179
201.049603	-3.006500	3.849800	-11.573000	22.195123	0.000951	20.805278
202.054589	-2.975500	3.849600	-11.453000	22.211300	0.000952	20.802983
203.056520	-2.997500	3.850200	-11.539000	22.230868	0.000951	20.778479
204.053395	-3.018700	3.848100	-11.615000	22.231537	0.000953	20.795744
205.053581	-3.000100	3.847700	-11.542000	22.227553	0.000949	20.796971
206.051278	-3.022700	3.847600	-11.629000	22.227825	0.000952	20.792501
207.051809	-3.000900	3.848700	-11.549000	22.228349	0.000955	20.781646
208.051127	-3.013700	3.846600	-11.592000	22.224055	0.000955	20.782088
209.051186	-3.013200	3.847300	-11.592000	22.241880	0.000953	20.776228
210.053633	-2.997100	3.847800	-11.531000	22.251679	0.000955	20.801213
211.052830	-3.024700	3.845400	-11.631000	22.260153	0.000955	20.800688
212.051591	-3.016200	3.845900	-11.599000	22.282359	0.000954	20.807276
213.058302	-3.018400	3.847300	-11.611000	22.277750	0.000956	20.787013
214.053901	-3.010700	3.845600	-11.576000	22.301875	0.000955	20.810696
215.057363	-3.005100	3.846800	-11.558000	22.293597	0.000955	20.805252
216.058244	-3.011100	3.846200	-11.580000	22.293976	0.000956	20.812270
217.060281	-2.987200	3.846600	-11.489000	22.318398	0.000958	20.820602
218.061695	-2.984000	3.845600	-11.474000	22.301578	0.000958	20.791433
219.054042	-2.990400	3.845900	-11.499000	22.298787	0.000958	20.793854
220.058312	-3.012400	3.843600	-11.576000	22.297417	0.000958	20.801017
221.055738	-2.980200	3.845500	-11.459000	22.304722	0.000959	20.807857
222.059743	-3.010500	3.844000	-11.572000	22.310487	0.000958	20.808414
223.058136	-2.999500	3.846400	-11.536000	22.310140	0.000957	20.807592
224.059171	-2.991000	3.844600	-11.498000	22.343166	0.000960	20.819799
225.058140	-2.990900	3.844700	-11.498000	22.336316	0.000961	20.811044
226.055063	-2.989300	3.843400	-11.488000	22.346614	0.000962	20.800492
227.062252	-3.011500	3.844500	-11.577000	22.358653	0.000961	20.813497
228.056467	-3.005600	3.842900	-11.549000	22.398080	0.000963	20.833537
229.059006	-3.006700	3.844700	-11.559000	22.397253	0.000961	20.814691
230.061870	-2.998300	3.842600	-11.520000	22.407803	0.000962	20.819092
231.054734	-2.984100	3.843600	-11.466000	22.419646	0.000965	20.824314
232.065537	-2.990000	3.844000	-11.493000	22.439109	0.000967	20.805398
233.062478	-2.996200	3.842500	-11.512000	22.440656	0.000964	20.815956
234.060915	-3.013600	3.842000	-11.577000	22.440681	0.000966	20.842533
235.057383	-3.021100	3.841100	-11.603000	22.425088	0.000966	20.816961
236.059092	-2.993700	3.842600	-11.502000	22.422020	0.000966	20.833803
237.058798	-2.994300	3.842800	-11.505000	22.422740	0.000967	20.820299
238.058972	-2.985400	3.842400	-11.469000	22.432992	0.000967	20.829618
239.056945	-3.001500	3.842500	-11.532000	22.431294	0.000969	20.825072
240.064096	-3.001300	3.841700	-11.529000	22.434766	0.000968	20.818118
241.057296	-3.009700	3.841100	-11.558000	22.451767	0.000969	20.842729
242.065010	-2.990300	3.840300	-11.483000	22.462852	0.000969	20.829175
243.073498	-2.993000	3.841200	-11.495000	22.462884	0.000970	20.828259
244.062925	-3.007000	3.838900	-11.543000	22.495155	0.000970	20.828335
245.063834	-3.006400	3.840400	-11.545000	22.470939	0.000971	20.830636
246.064272	-2.998200	3.840200	-11.513000	22.497503	0.000971	20.834480
247.060198	-2.990400	3.840400	-11.483000	22.494214	0.000975	20.834031
248.063011	-3.004300	3.839200	-11.533000	22.514062	0.000972	20.833045
249.060166	-2.996100	3.837700	-11.497000	22.496089	0.000974	20.840176
250.062411	-3.028400	3.837100	-11.620000	22.489789	0.000972	20.835763
251.066923	-2.995800	3.839300	-11.501000	22.470700	0.000972	20.836560
252.068833	-2.993700	3.838500	-11.490000	22.502850	0.000972	20.814705
253.072671	-3.003100	3.837800	-11.523000	22.482644	0.000976	20.836193
254.063123	-3.007700	3.837500	-11.541000	22.512250	0.000974	20.837868
255.065094	-3.020000	3.836400	-11.584000	22.483351	0.000975	20.842591
256.066735	-3.019700	3.837600	-11.588000	22.502169	0.000974	20.845316
257.067667	-2.971600	3.840200	-11.411000	22.507775	0.000976	20.827223
258.074042	-3.005100	3.837000	-11.529000	22.531371	0.000976	20.848957
259.067863	-2.998300	3.838800	-11.508000	22.544236	0.000976	20.844772
260.069876	-3.001300	3.837000	-11.515000	22.552183	0.000978	20.854154
261.070303	-3.017500	3.836000	-11.573000	22.551767	0.000977	20.852314
262.068310	-3.016300	3.836500	-11.571000	22.569952	0.000977	20.863415
263.068663	-3.010900	3.836800	-11.550000	22.588838	0.000978	20.841080
264.071849	-3.009700	3.835900	-11.544000	22.590113	0.000979	20.834771
265.070354	-2.988800	3.837600	-11.469000	22.601955	0.000978	20.856588
266.072209	-2.994700	3.836600	-11.489000	22.612263	0.000980	20.838463
267.072856	-2.997000	3.836000	-11.495000	22.615753	0.000981	20.847649
268.074150	-2.999500	3.834600	-11.501000	22.628825	0.000979	20.860267
269.078071	-2.997000	3.835000	-11.492000	22.636753	0.000983	20.857776
270.078416	-2.999400	3.836100	-11.504000	22.630693	0.000982	20.871620
271.078843	-3.007700	3.834600	-11.532000	22.651118	0.000981	20.848458
272.075922	-2.987700	3.833500	-11.453000	22.653302	0.000981	20.867713
273.079297	-2.994300	3.833700	-11.478000	22.649193	0.000983	20.855064
274.077796	-2.991400	3.834600	-11.468000	22.640369	0.000982	20.869458
275.076547	-3.000800	3.833600	-11.503000	22.628850	0.000983	20.846068
276.075669	-2.983600	3.833800	-11.438000	22.636828	0.000985	20.850740
277.077428	-3.002400	3.833000	-11.507000	22.637668	0.000984	20.856321
278.077574	-2.996000	3.832700	-11.481000	22.655082	0.000982	20.856220
279.078287	-2.996300	3.833900	-11.486000	22.671694	0.000984	20.869540
280.081326	-3.006500	3.832900	-11.522000	22.679565	0.000984	20.861777
281.080269	-3.027300	3.832400	-11.601000	22.650335	0.000985	20.868535
282.079562	-3.003000	3.833400	-11.511000	22.702280	0.000985	20.873624
283.079210	-3.008100	3.833100	-11.528000	22.705941	0.000987	20.879187
284.079219	-3.017000	3.830100	-11.554000	22.692756	0.000987	20.879256
285.083975	-3.017000	3.831600	-11.560000	22.707550	0.000989	20.865152
286.079730	-2.979500	3.831700	-11.416000	22.738817	0.000988	20.859014
287.082628	-2.997400	3.830600	-11.481000	22.737517	0.000989	20.865772
288.078702	-2.995000	3.829800	-11.469000	22.746460	0.000990	20.872833
289.080407	-2.992500	3.831300	-11.464000	22.762944	0.000991	20.850467
290.078812	-2.993700	3.832000	-11.470000	22.739176	0.000993	20.866012
291.083607	-2.974800	3.831800	-11.399000	22.730233	0.000992	20.867485
292.080351	-3.006500	3.828900	-11.510000	22.716676	0.000992	20.884250
293.080179	-2.972800	3.831500	-11.389000	22.728188	0.000994	20.873023
294.081323	-3.001800	3.829500	-11.495000	22.732322	0.000993	20.856302
295.081291	-2.991500	3.830100	-11.457000	22.727633	0.000995	20.881949
296.085694	-2.972400	3.831000	-11.386000	22.733313	0.000995	20.875785
297.081544	-3.006900	3.829200	-11.513000	22.739871	0.000995	20.866707
298.084729	-2.982200	3.830400	-11.421000	22.733420	0.000997	20.892013
299.092640	-3.011400	3.829700	-11.530000	22.740521	0.000995	20.861669
300.082271	-3.007500	3.828100	-11.513000	22.735017	0.000996	20.878440
301.083745	-2.993400	3.828300	-11.458000	22.774204	0.000996	20.894459
302.082868	-2.999300	3.827500	-11.479000	22.776722	0.000996	20.887973
303.082819	-3.023900	3.827000	-11.571000	22.801574	0.000996	20.867826
304.085183	-3.013700	3.827700	-11.533000	22.803872	0.000997	20.887670
305.083138	-2.993900	3.828700	-11.461000	22.826395	0.000998	20.876095
306.084477	-3.010800	3.825800	-11.518000	22.824149	0.000998	20.871474
307.086332	-3.016200	3.826600	-11.541000	22.826881	0.001000	20.881323
308.090922	-2.985300	3.826400	-11.422000	22.831494	0.001001	20.894004
309.088237	-3.011200	3.825900	-11.520000	22.842210	0.001001	20.856852
310.088138	-3.027200	3.824900	-11.577000	22.850124	0.001000	20.888485
311.087761	-3.014600	3.824900	-11.530000	22.851966	0.001001	20.868522
312.092999	-3.012800	3.826100	-11.526000	22.843743	0.001003	20.891102
313.088229	-3.000100	3.826200	-11.478000	22.877625	0.001002	20.885691
314.089730	-3.000200	3.824400	-11.473000	22.881386	0.001002	20.899415
315.086823	-3.024400	3.823200	-11.562000	22.885021	0.001005	20.890255
316.088259	-2.997700	3.826700	-11.470000	22.889754	0.001004	20.896893
317.088212	-2.993700	3.823700	-11.446000	22.867137	0.001006	20.892253
318.091650	-3.025700	3.823800	-11.568000	22.885292	0.001005	20.884364
319.090647	-3.005400	3.824900	-11.494000	22.871693	0.001006	20.913885
320.091620	-3.004500	3.823100	-11.486000	22.869100	0.001005	20.891374
321.095889	-3.010700	3.823900	-11.511000	22.864966	0.001007	20.896242
322.089387	-3.021600	3.822600	-11.549000	22.863540	0.001009	20.896709
323.090115	-3.010700	3.823000	-11.508000	22.868797	0.001007	20.896286
324.100678	-3.013200	3.821500	-11.513000	22.867730	0.001007	20.907545
325.093508	-3.012900	3.822300	-11.515000	22.846400	0.001007	20.899927
326.089791	-2.985700	3.823400	-11.415000	22.847643	0.001009	20.913973
327.090736	-2.982700	3.822000	-11.399000	22.863641	0.001009	20.891121
328.090329	-2.981200	3.823500	-11.398000	22.902917	0.001009	20.902019
329.090170	-2.988000	3.821400	-11.417000	22.889337	0.001009	20.895527
330.090137	-2.997300	3.822000	-11.454000	22.888536	0.001009	20.910370
331.090872	-2.983700	3.820500	-11.396000	22.909114	0.001011	20.909175
332.090401	-3.002300	3.819900	-11.467000	22.925174	0.001012	20.901558
333.089890	-2.998000	3.820300	-11.451000	22.919867	0.001014	20.903353
334.092690	-3.002900	3.820700	-11.472000	22.916207	0.001012	20.899687
335.094681	-2.994500	3.820200	-11.438000	22.958176	0.001013	20.910914
336.091430	-3.011400	3.819400	-11.501000	22.981233	0.001012	20.915522
337.091780	-3.004200	3.818900	-11.472000	22.939662	0.001012	20.937880
338.091232	-2.993200	3.820100	-11.432000	22.958586	0.001015	20.927444
339.095790	-3.005400	3.818800	-11.475000	22.995272	0.001012	20.910623
340.092805	-3.031600	3.818000	-11.573000	23.004213	0.001013	20.915787
341.095076	-3.020200	3.818400	-11.531000	23.002364	0.001015	20.930055
342.093990	-3.030100	3.817400	-11.564000	23.006958	0.001013	20.918537
343.094822	-2.993000	3.819300	-11.430000	23.003399	0.001015	20.932514
344.097610	-2.993600	3.818500	-11.430000	23.037194	0.001015	20.909478
345.096510	-2.989400	3.817100	-11.410000	23.034121	0.001015	20.915882
346.094604	-3.000300	3.818400	-11.454000	23.031995	0.001015	20.918019
347.095558	-2.999900	3.817400	-11.451000	23.028203	0.001018	20.898574
348.097435	-2.986700	3.817700	-11.401000	23.035926	0.001018	20.915319
349.094439	-3.008100	3.817300	-11.482000	23.052791	0.001017	20.934587
350.097387	-2.991600	3.817700	-11.420000	23.062559	0.001016	20.923986
351.102353	-3.008000	3.817600	-11.483000	23.056773	0.001019	20.927197
352.099103	-3.010300	3.815900	-11.486000	23.045983	0.001019	20.922077
353.101783	-3.010900	3.815700	-11.487000	23.056666	0.001020	20.917134
354.096043	-3.012100	3.816300	-11.494000	23.073644	0.001019	20.923240
355.101837	-3.006200	3.815600	-11.469000	23.056407	0.001020	20.921616
356.098700	-2.993700	3.816100	-11.423000	23.071215	0.001021	20.915117
357.101343	-2.995300	3.815900	-11.428000	23.076414	0.001020	20.929334
358.104102	-3.004800	3.815300	-11.463000	23.062565	0.001021	20.905503
359.101761	-3.006600	3.813800	-11.465000	23.087961	0.001021	20.901552
360.105397	-2.971500	3.814400	-11.333000	23.070275	0.001021	20.907538
361.104739	-2.971900	3.813500	-11.333000	23.070913	0.001022	20.894428
362.102715	-2.982300	3.814000	-11.373000	23.079727	0.001024	20.895199
363.101048	-2.993900	3.813700	-11.417000	23.090579	0.001025	20.900382
364.106153	-2.977200	3.813800	-11.353000	23.103772	0.001025	20.906489
365.101140	-2.986200	3.813300	-11.386000	23.121425	0.001022	20.906160
366.104833	-2.984500	3.812300	-11.377000	23.102864	0.001025	20.891830
367.103352	-2.975900	3.812600	-11.344000	23.122605	0.001025	20.886956
368.106526	-3.011000	3.812100	-11.477000	23.116378	0.001025	20.916275
369.105331	-3.000000	3.811800	-11.434000	23.119388	0.001027	20.906489
370.105455	-3.021000	3.811700	-11.514000	23.087129	0.001026	20.893606
371.105865	-3.008700	3.811300	-11.466000	23.118549	0.001028	20.884314
372.107357	-2.994400	3.811900	-11.413000	23.108227	0.001026	20.898626
373.105824	-2.992100	3.811300	-11.402000	23.111306	0.001027	20.863308
374.105056	-3.022000	3.810600	-11.515000	23.125281	0.001028	20.879681
375.106298	-3.005800	3.809900	-11.451000	23.148902	0.001029	20.887229
376.105835	-3.012700	3.810900	-11.479000	23.156095	0.001028	20.863618
377.108858	-2.997200	3.809400	-11.415000	23.152146	0.001029	20.870091
378.105458	-3.000800	3.807700	-11.425000	23.143080	0.001030	20.883291
379.108206	-3.003700	3.808900	-11.440000	23.138216	0.001030	20.863245
380.110099	-3.002000	3.809200	-11.434000	23.138304	0.001029	20.855274
381.105560	-3.005700	3.808900	-11.448000	23.120065	0.001030	20.876825
382.106310	-3.002400	3.810300	-11.438000	23.112368	0.001031	20.880965
383.109065	-2.992900	3.809300	-11.400000	23.110110	0.001030	20.859264
384.107584	-2.994100	3.808200	-11.401000	23.105624	0.001031	20.865674
385.111871	-3.014500	3.807900	-11.478000	23.082829	0.001033	20.855635
386.107048	-2.997000	3.807900	-11.412000	23.106003	0.001033	20.879329
387.108586	-2.995800	3.808300	-11.408000	23.135435	0.001033	20.856666
388.110794	-3.004400	3.807900	-11.439000	23.141871	0.001032	20.861219
389.108354	-2.988700	3.807500	-11.379000	23.132578	0.001035	20.853329
390.110194	-2.996300	3.806900	-11.406000	23.183725	0.001035	20.875183
391.108750	-3.017600	3.806100	-11.484000	23.168868	0.001035	20.861245
392.110620	-2.999900	3.808200	-11.423000	23.167625	0.001033	20.848146
393.111623	-3.006300	3.806300	-11.443000	23.158421	0.001035	20.857889
394.108747	-3.006000	3.805900	-11.440000	23.162396	0.001036	20.869932
395.113167	-3.000100	3.805800	-11.417000	23.186471	0.001035	20.836686
396.109674	-2.985900	3.806500	-11.364000	23.198395	0.001036	20.849109
397.110659	-3.007100	3.805600	-11.443000	23.192806	0.001038	20.859154
398.110518	-2.988900	3.805000	-11.372000	23.201910	0.001037	20.849786
399.112720	-2.994600	3.804700	-11.393000	23.198365	0.001038	20.858561
400.111678	-2.995000	3.802800	-11.387000	23.192807	0.001038	20.854414
401.110599	-2.983000	3.804900	-11.349000	23.186599	0.001038	20.846297
402.110736	-2.979900	3.804900	-11.337000	23.174985	0.001039	20.869745
403.112046	-2.988200	3.804300	-11.366000	23.190247	0.001038	20.846633
404.114604	-3.002900	3.803200	-11.420000	23.213204	0.001040	20.847354
405.112195	-2.996000	3.803200	-11.394000	23.214145	0.001040	20.849245
406.112794	-3.013300	3.802500	-11.457000	23.218296	0.001040	20.836810
407.111791	-3.001000	3.801000	-11.405000	23.209073	0.001040	20.857913
408.113670	-2.984400	3.802300	-11.347000	23.204266	0.001041	20.851673
409.113790	-3.004900	3.801800	-11.423000	23.185384	0.001040	20.844132
410.118072	-2.975900	3.801000	-11.310000	23.195138	0.001042	20.853905
411.113855	-2.998900	3.801300	-11.398000	23.215604	0.001044	20.851655
412.114606	-3.016300	3.799300	-11.458000	23.241772	0.001043	20.834258
413.117584	-3.018600	3.799200	-11.465000	23.242371	0.001043	20.825376
414.114627	-3.014200	3.799600	-11.452000	23.259745	0.001044	20.841838
415.118134	-2.994300	3.800700	-11.380000	23.263057	0.001045	20.860329
416.113285	-3.019000	3.797900	-11.465000	23.260982	0.001044	20.844974
417.117698	-3.004200	3.799600	-11.413000	23.261058	0.001044	20.863541
418.113258	-2.982000	3.799200	-11.329000	23.297709	0.001045	20.838634
419.114892	-3.002800	3.799400	-11.407000	23.276892	0.001045	20.826306
420.115610	-2.989000	3.798000	-11.352000	23.286872	0.001047	20.846264
421.114807	-3.007200	3.797600	-11.419000	23.300611	0.001045	20.826844
422.115071	-2.999100	3.797100	-11.386000	23.305740	0.001044	20.830087
423.114961	-3.017800	3.796700	-11.457000	23.328020	0.001046	20.858106
424.115437	-2.982400	3.798100	-11.327000	23.373266	0.001047	20.821426
425.114858	-2.966300	3.798700	-11.266000	23.352867	0.001048	20.830853
426.118233	-3.006800	3.795800	-11.412000	23.344869	0.001047	20.817147
427.117257	-3.012700	3.796000	-11.435000	23.352338	0.001046	20.814201
428.116854	-2.981800	3.797600	-11.323000	23.340883	0.001047	20.826428
429.117478	-3.001400	3.795800	-11.392000	23.354476	0.001048	20.834362
430.117359	-3.004600	3.794600	-11.398000	23.374914	0.001047	20.824974
431.121284	-3.025000	3.795000	-11.479000	23.357763	0.001049	20.823431
432.117815	-2.989200	3.795700	-11.344000	23.330645	0.001048	20.848883
433.119736	-3.030400	3.793500	-11.493000	23.364304	0.001049	20.820979
434.117699	-2.992500	3.795100	-11.356000	23.363705	0.001047	20.816585
435.121745	-3.000500	3.793900	-11.383000	23.406951	0.001049	20.831954
436.118704	-2.997300	3.794300	-11.372000	23.424202	0.001049	20.812736
437.120212	-2.993700	3.795100	-11.360000	23.416678	0.001048	20.831272
438.118922	-3.013100	3.793800	-11.429000	23.425817	0.001052	20.840906
439.120673	-3.011700	3.794100	-11.426000	23.439309	0.001049	20.835938
440.118550	-3.013100	3.792400	-11.427000	23.480217	0.001051	20.830475
441.119049	-3.009200	3.793200	-11.414000	23.485566	0.001051	20.832992
442.122346	-2.981000	3.792700	-11.305000	23.493014	0.001051	20.814380
443.119027	-2.976900	3.793000	-11.290000	23.478843	0.001051	20.840477
444.123968	-3.000200	3.793000	-11.379000	23.462236	0.001051	20.802021
445.121262	-2.999700	3.792000	-11.373000	23.452750	0.001051	20.827125
446.120874	-2.988300	3.792400	-11.332000	23.446978	0.001052	20.813280
447.122971	-2.979900	3.792000	-11.299000	23.471697	0.001052	20.820987
448.122087	-2.991600	3.789300	-11.334000	23.457209	0.001054	20.814525
449.120734	-2.992800	3.790900	-11.344000	23.452926	0.001053	20.831095
450.122483	-3.010900	3.789900	-11.410000	23.476251	0.001053	20.829818
451.122089	-3.008700	3.789800	-11.401000	23.493677	0.001052	20.830691
452.121343	-2.985500	3.790700	-11.316000	23.495720	0.001053	20.828946
453.124461	-2.999600	3.790100	-11.368000	23.511551	0.001055	20.831538
454.121212	-2.995000	3.788900	-11.347000	23.518893	0.001053	20.818509
455.122222	-2.983700	3.790300	-11.308000	23.503037	0.001054	20.833435
456.121568	-3.023800	3.788000	-11.453000	23.479858	0.001055	20.819685
457.122040	-3.008700	3.788900	-11.398000	23.495242	0.001053	20.827044
458.127223	-2.992500	3.789000	-11.337000	23.452517	0.001056	20.799391
459.122234	-2.987700	3.788100	-11.317000	23.453161	0.001054	20.804304
460.125099	-2.994700	3.787500	-11.341000	23.472953	0.001055	20.822720
461.122433	-2.999900	3.787200	-11.360000	23.452984	0.001055	20.812188
462.123618	-3.015500	3.787500	-11.420000	23.492593	0.001055	20.820122
463.123583	-2.994600	3.787800	-11.342000	23.516888	0.001057	20.805120
464.126080	-3.000400	3.785700	-11.357000	23.511786	0.001056	20.826558
465.125415	-2.998200	3.787100	-11.353000	23.536673	0.001058	20.824004
466.127750	-3.011500	3.784400	-11.396000	23.521884	0.001055	20.812498
467.127561	-3.004700	3.785600	-11.374000	23.516977	0.001057	20.826072
468.126550	-3.002800	3.785300	-11.366000	23.531237	0.001057	20.810021
469.130222	-3.012800	3.784600	-11.399000	23.513534	0.001057	20.822621
470.127868	-3.007800	3.785200	-11.383000	23.542527	0.001055	20.798579
471.129970	-3.003300	3.784800	-11.366000	23.551772	0.001057	20.807372
472.128025	-2.994300	3.784800	-11.331000	23.564487	0.001057	20.823911
473.128145	-3.004600	3.784300	-11.369000	23.551584	0.001058	20.828994
474.130660	-3.023800	3.781700	-11.433000	23.542698	0.001057	20.807759
475.133088	-3.008500	3.782900	-11.379000	23.548141	0.001056	20.809422
476.129941	-3.004700	3.782300	-11.364000	23.526982	0.001058	20.801962
477.129642	-3.013800	3.782000	-11.397000	23.539451	0.001059	20.810668
478.128699	-3.005000	3.781600	-11.363000	23.524289	0.001059	20.800211
479.131313	-2.988200	3.781300	-11.299000	23.553938	0.001058	20.796740
480.133384	-2.988000	3.782800	-11.303000	23.544377	0.001059	20.796165
481.131703	-2.983700	3.781600	-11.282000	23.566678	0.001059	20.800028
482.132243	-2.999000	3.780000	-11.335000	23.581119	0.001058	20.811661
483.132550	-2.993600	3.781500	-11.320000	23.596994	0.001058	20.806237
484.133619	-2.990000	3.782100	-11.308000	23.598583	0.001060	20.813520
485.136009	-3.006500	3.780400	-11.365000	23.579941	0.001061	20.803841
486.133066	-3.007200	3.780400	-11.367000	23.581278	0.001060	20.822725
487.137767	-3.006000	3.780300	-11.363000	23.574184	0.001062	20.815613
488.132663	-2.998400	3.780700	-11.334000	23.590184	0.001060	20.805574
489.134184	-3.010600	3.779500	-11.378000	23.588034	0.001060	20.792040
490.135488	-2.986900	3.780100	-11.290000	23.570590	0.001060	20.790200
491.138409	-3.000200	3.779900	-11.338000	23.566226	0.001060	20.804791
492.136135	-3.005200	3.779400	-11.357000	23.602237	0.001060	20.799640
493.137003	-3.003300	3.778000	-11.346000	23.619542	0.001062	20.800392
494.136947	-2.998700	3.777800	-11.327000	23.653469	0.001061	20.798843
495.137637	-3.003300	3.777500	-11.344000	23.668150	0.001061	20.798388
496.140566	-3.009500	3.776700	-11.364000	23.677503	0.001061	20.804446
497.138134	-2.999800	3.777800	-11.331000	23.650015	0.001062	20.795380
498.141384	-3.009000	3.776700	-11.363000	23.658996	0.001062	20.794426
499.137756	-2.992800	3.777100	-11.301000	23.640721	0.001064	20.792227
500.137775	-2.997100	3.777200	-11.319000	23.645350	0.001064	20.786910
501.142879	-3.018700	3.775500	-11.396000	23.652640	0.001064	20.816978
502.147223	-3.001300	3.775900	-11.331000	23.651537	0.001063	20.779836
503.140323	-2.998700	3.775700	-11.321000	23.670254	0.001062	20.782953
504.140497	-3.020300	3.775200	-11.401000	23.680381	0.001062	20.792159
505.142266	-3.001400	3.776200	-11.332000	23.700290	0.001063	20.778927
506.142447	-3.018200	3.774100	-11.390000	23.702377	0.001064	20.791452
507.144495	-2.987400	3.775100	-11.277000	23.713848	0.001065	20.783037
508.142736	-2.992900	3.773400	-11.292000	23.708167	0.001064	20.791092
509.143689	-3.000700	3.773200	-11.320000	23.748909	0.001064	20.800171
510.144163	-3.025200	3.772700	-11.411000	23.747440	0.001064	20.780206
511.145012	-3.005500	3.772500	-11.337000	23.764061	0.001064	20.793552
512.148858	-3.002300	3.772100	-11.323000	23.765329	0.001063	20.768270
513.146618	-3.023600	3.771400	-11.401000	23.765922	0.001066	20.777874
514.146954	-3.006500	3.771200	-11.337000	23.756886	0.001064	20.780669
515.148063	-3.006000	3.771600	-11.336000	23.745455	0.001065	20.773949
516.146506	-3.012300	3.769800	-11.354000	23.759340	0.001064	20.761318
517.145516	-2.996400	3.771100	-11.298000	23.737404	0.001064	20.783421
518.149318	-2.990100	3.770800	-11.273000	23.716368	0.001066	20.780348
519.146519	-2.996000	3.770800	-11.296000	23.723532	0.001062	20.776151
520.146214	-3.015800	3.769800	-11.368000	23.703442	0.001065	20.801054
521.146523	-2.982900	3.770300	-11.245000	23.703386	0.001064	20.786299
522.147001	-3.012600	3.770200	-11.357000	23.688820	0.001065	20.784972
523.150928	-2.985900	3.768800	-11.253000	23.726882	0.001066	20.790415
524.147970	-3.044100	3.768600	-11.471000	23.727444	0.001064	20.779599
525.152367	-3.009900	3.769500	-11.345000	23.762787	0.001063	20.768567
526.146166	-2.999200	3.769400	-11.305000	23.773356	0.001066	20.778690
527.146299	-3.001100	3.768700	-11.309000	23.760708	0.001065	20.768379
528.147988	-2.989200	3.768300	-11.263000	23.756396	0.001064	20.765003
529.147007	-2.996600	3.769100	-11.294000	23.752702	0.001065	20.774576
530.152086	-3.016800	3.767900	-11.365000	23.797301	0.001063	20.784680
531.155107	-2.996500	3.767900	-11.288000	23.788763	0.001063	20.762843
532.150077	-3.005400	3.766800	-11.320000	23.770384	0.001067	20.801788
533.149783	-3.009000	3.765700	-11.329000	23.765302	0.001063	20.766347
534.152819	-3.001000	3.765400	-11.299000	23.752800	0.001067	20.770407
535.149334	-3.017500	3.764800	-11.359000	23.747838	0.001065	20.750259
536.151277	-3.029600	3.765500	-11.405000	23.769707	0.001064	20.760332
537.150932	-3.028300	3.765800	-11.403000	23.742171	0.001066	20.754061
538.150870	-2.991300	3.766400	-11.265000	23.750779	0.001066	20.756053
539.155202	-2.990200	3.764700	-11.256000	23.722121	0.001065	20.769520
540.154914	-3.018000	3.763300	-11.356000	23.715117	0.001066	20.775774
541.152779	-2.981100	3.764800	-11.222000	23.709808	0.001065	20.738208
542.153070	-2.992400	3.764000	-11.262000	23.709128	0.001063	20.762658
543.152873	-3.002700	3.763400	-11.299000	23.723008	0.001065	20.767565
544.155445	-3.003100	3.763400	-11.300000	23.735444	0.001064	20.752058
545.155751	-2.988300	3.764000	-11.246000	23.755800	0.001065	20.746862
546.156294	-3.002900	3.762400	-11.297000	23.787423	0.001068	20.749645
547.154775	-3.004200	3.761700	-11.300000	23.784535	0.001066	20.743904
548.153503	-3.007300	3.762100	-11.313000	23.791688	0.001065	20.752499
549.154423	-3.011600	3.763300	-11.333000	23.792256	0.001065	20.753542
550.158167	-2.992200	3.762200	-11.256000	23.802679	0.001066	20.746450
551.156116	-3.002700	3.760600	-11.290000	23.802889	0.001066	20.751402
552.158497	-2.987400	3.761400	-11.236000	23.823837	0.001065	20.776199
553.157218	-2.987100	3.760400	-11.230000	23.831644	0.001066	20.750836
554.157066	-2.997700	3.760700	-11.273000	23.829822	0.001066	20.752802
555.160914	-3.001100	3.759200	-11.280000	23.808461	0.001065	20.741815
556.158172	-3.021000	3.758400	-11.353000	23.793720	0.001064	20.753114
557.160098	-3.002100	3.759800	-11.285000	23.771855	0.001065	20.747786
558.158992	-3.005600	3.757100	-11.292000	23.766250	0.001066	20.744537
559.157463	-3.002300	3.757800	-11.281000	23.735676	0.001064	20.752290
560.158570	-3.010400	3.758100	-11.312000	23.723369	0.001063	20.753227
561.160188	-3.005600	3.757800	-11.294000	23.729461	0.001066	20.746533
562.158197	-2.985600	3.760000	-11.224000	23.756387	0.001066	20.756934
563.158721	-3.006000	3.756500	-11.291000	23.753710	0.001066	20.751405
564.158311	-3.011800	3.756600	-11.313000	23.801941	0.001064	20.744761
565.157770	-3.009700	3.756000	-11.303000	23.795435	0.001064	20.737289
566.160152	-3.010700	3.756900	-11.309000	23.813666	0.001066	20.737551
567.158306	-3.004600	3.755700	-11.284000	23.833270	0.001065	20.727335
568.159763	-3.007700	3.755200	-11.294000	23.829773	0.001065	20.730941
569.159253	-3.001600	3.756000	-11.273000	23.843507	0.001064	20.736651
570.158895	-2.983700	3.754600	-11.200000	23.858502	0.001064	20.749791
571.160886	-2.992500	3.755900	-11.239000	23.883307	0.001065	20.716815
572.160738	-2.980700	3.755500	-11.193000	23.863089	0.001067	20.734475
573.159238	-2.989600	3.755600	-11.227000	23.877566	0.001066	20.745674
574.159174	-3.011000	3.752800	-11.299000	23.902989	0.001065	20.753149
575.159127	-2.994400	3.754400	-11.242000	23.893426	0.001064	20.749723
576.159849	-2.984200	3.753300	-11.199000	23.877087	0.001066	20.754676
577.162236	-3.027200	3.753300	-11.360000	23.914955	0.001065	20.726265
578.163071	-3.016200	3.753200	-11.319000	23.902354	0.001066	20.737338
579.161708	-3.016700	3.753000	-11.320000	23.887136	0.001065	20.713542
580.160437	-2.995300	3.750800	-11.233000	23.898977	0.001064	20.728262
581.161351	-3.005500	3.752000	-11.275000	23.930668	0.001065	20.742497
582.164223	-2.999300	3.750900	-11.250000	23.950642	0.001066	20.714636
583.161423	-2.979300	3.751100	-11.175000	23.972010	0.001065	20.725632
584.163734	-2.986100	3.751700	-11.202000	23.912850	0.001065	20.731741
585.161188	-2.986800	3.750800	-11.202000	23.916250	0.001064	20.714761
586.162303	-3.002000	3.750900	-11.259000	23.901450	0.001065	20.711300
587.161882	-2.985400	3.750800	-11.198000	23.903703	0.001066	20.729682
588.164920	-3.000200	3.750200	-11.250000	23.912355	0.001065	20.709433
589.162547	-2.998000	3.750800	-11.243000	23.909633	0.001065	20.719506
590.161751	-2.998700	3.749100	-11.241000	23.931349	0.001065	20.742706
591.161591	-3.027300	3.748500	-11.347000	23.945720	0.001066	20.713967
592.162050	-3.017900	3.748500	-11.312000	23.947847	0.001067	20.699030
593.164743	-2.980400	3.749400	-11.173000	23.959532	0.001066	20.709326
594.161160	-2.998100	3.748100	-11.236000	23.963028	0.001065	20.707141
595.164408	-3.011000	3.747900	-11.284000	23.957268	0.001064	20.698520
596.162315	-2.994400	3.748000	-11.223000	23.972067	0.001065	20.700083
597.163466	-2.989000	3.747800	-11.201000	23.978424	0.001066	20.714521
598.165952	-2.998700	3.746200	-11.233000	23.927872	0.001065	20.695594
599.167242	-2.982700	3.747700	-11.177000	23.941368	0.001067	20.704386
600.163754	-3.007700	3.746600	-11.268000	23.927555	0.001066	20.694327
601.164684	-3.011200	3.745300	-11.277000	23.931674	0.001065	20.703201
602.163223	-2.979300	3.747300	-11.163000	23.946347	0.001066	20.694680
603.164707	-2.998100	3.746100	-11.230000	23.929959	0.001066	20.699110
604.165025	-3.008500	3.745600	-11.267000	23.949340	0.001065	20.717124
605.165191	-2.998300	3.744600	-11.227000	23.941539	0.001066	20.702661
606.166142	-2.984200	3.744700	-11.173000	23.930930	0.001065	20.701506
607.169890	-3.011400	3.744900	-11.276000	23.916685	0.001065	20.709981
608.163640	-3.007700	3.743400	-11.258000	23.896915	0.001066	20.703433
609.168479	-3.015300	3.743300	-11.285000	23.912681	0.001067	20.721140
610.165105	-2.998300	3.743000	-11.221000	23.905789	0.001065	20.702848
611.167021	-2.994700	3.743300	-11.209000	23.920759	0.001065	20.705058
612.165419	-3.010600	3.742200	-11.264000	23.939070	0.001063	20.716307
613.164937	-3.001100	3.741600	-11.228000	23.924281	0.001065	20.715702
614.165998	-2.978000	3.743100	-11.146000	23.949684	0.001062	20.718416
615.167561	-2.981500	3.741800	-11.155000	23.955805	0.001063	20.697527
616.164872	-2.987500	3.742700	-11.181000	23.951988	0.001064	20.701285
617.164943	-2.979000	3.741600	-11.146000	23.983013	0.001065	20.708691
618.172521	-3.013900	3.742000	-11.276000	23.999833	0.001065	20.710860
619.167552	-3.029200	3.740300	-11.329000	23.969095	0.001066	20.712278
620.168234	-2.993700	3.741300	-11.199000	23.974296	0.001066	20.707062
621.170168	-3.008200	3.739400	-11.247000	23.993501	0.001065	20.714467
622.171868	-3.004400	3.739400	-11.234000	24.031245	0.001062	20.719603
623.173179	-3.011300	3.738400	-11.256000	24.045600	0.001065	20.706497
624.167798	-2.994200	3.739900	-11.197000	24.084791	0.001065	20.715930
625.170360	-2.987400	3.738900	-11.168000	24.072544	0.001064	20.707440
626.170650	-2.996300	3.738400	-11.200000	24.104416	0.001065	20.703370
627.169421	-2.970500	3.740700	-11.111000	24.095956	0.001064	20.723810
628.173100	-2.974400	3.738400	-11.118000	24.098416	0.001063	20.695455
629.177465	-2.989100	3.739200	-11.176000	24.050982	0.001064	20.721853
630.171615	-3.011800	3.737600	-11.255000	24.074023	0.001064	20.694224
631.171166	-2.989100	3.737900	-11.172000	24.041969	0.001063	20.704752
632.169751	-2.990600	3.736700	-11.174000	24.040375	0.001064	20.715482
633.171716	-2.986500	3.738200	-11.163000	24.066449	0.001065	20.723140
634.169878	-2.996400	3.736000	-11.194000	24.064930	0.001062	20.714029
635.169569	-2.990000	3.735600	-11.168000	24.059699	0.001062	20.730122
636.174036	-3.016000	3.734400	-11.262000	24.053573	0.001063	20.716865
637.170198	-3.009800	3.735300	-11.242000	24.065765	0.001063	20.726722
638.174452	-3.012600	3.734300	-11.249000	24.058845	0.001063	20.723574
639.170818	-2.999000	3.735800	-11.202000	24.095319	0.001064	20.719377
640.170734	-3.008300	3.734200	-11.231000	24.109372	0.001063	20.712134
641.171298	-3.002400	3.735300	-11.213000	24.106585	0.001062	20.739687
642.174938	-2.966200	3.734700	-11.077000	24.112450	0.001064	20.715221
643.170212	-3.001900	3.733400	-11.206000	24.131652	0.001062	20.728791
644.171638	-2.985200	3.732600	-11.141000	24.115578	0.001062	20.723101
645.171687	-2.988900	3.733900	-11.159000	24.120452	0.001062	20.730360
646.172220	-2.998300	3.732000	-11.189000	24.119376	0.001062	20.725013
647.176236	-3.011300	3.731800	-11.236000	24.118974	0.001061	20.726507
648.171570	-2.989100	3.733300	-11.159000	24.124074	0.001063	20.707438
649.175248	-2.999100	3.732700	-11.194000	24.107673	0.001061	20.726552
650.172275	-2.989500	3.732600	-11.158000	24.072955	0.001063	20.748632
651.171958	-2.998500	3.730900	-11.186000	24.070666	0.001061	20.745863
652.172659	-3.006100	3.731100	-11.215000	24.057867	0.001062	20.719274
653.173234	-2.980600	3.732600	-11.124000	24.056896	0.001061	20.723042
654.180963	-3.004100	3.731200	-11.208000	24.088969	0.001061	20.736244
655.176679	-3.032000	3.728400	-11.303000	24.081994	0.001060	20.723557
656.173782	-3.003500	3.729500	-11.200000	24.065241	0.001062	20.701064
657.174105	-2.996400	3.731100	-11.178000	24.044459	0.001060	20.745658
658.175054	-3.017100	3.728900	-11.249000	24.052416	0.001061	20.734671
659.175567	-2.984600	3.729400	-11.130000	24.052854	0.001061	20.710453
660.174738	-2.987100	3.729200	-11.136000	24.068632	0.001063	20.739555
661.175764	-3.005100	3.726800	-11.199000	24.061359	0.001063	20.731787
662.177280	-2.996200	3.728100	-11.170000	24.088031	0.001061	20.726768
663.186518	-2.974200	3.728500	-11.088000	24.106339	0.001060	20.723318
664.178384	-3.003200	3.727200	-11.193000	24.126859	0.001061	20.721139
665.180493	-2.982000	3.727500	-11.115000	24.152011	0.001060	20.729770
666.178085	-3.010500	3.727100	-11.220000	24.180868	0.001058	20.734532
667.179687	-3.002300	3.726400	-11.187000	24.182161	0.001060	20.736777
668.182034	-2.997000	3.725600	-11.164000	24.166234	0.001060	20.727440
669.181850	-3.008100	3.726100	-11.208000	24.179119	0.001059	20.747003
670.178110	-3.004700	3.725600	-11.193000	24.180457	0.001059	20.732697
671.178707	-3.002000	3.725200	-11.182000	24.221383	0.001059	20.758101
672.182426	-2.987300	3.724400	-11.125000	24.214116	0.001060	20.739906
673.179143	-2.987300	3.724900	-11.127000	24.221001	0.001058	20.718836
674.183647	-3.015000	3.723600	-11.226000	24.232442	0.001060	20.735054
675.178281	-3.006100	3.723600	-11.193000	24.181715	0.001060	20.751029
676.186512	-3.007100	3.722300	-11.193000	24.155634	0.001060	20.762803
677.179167	-3.025200	3.723200	-11.262000	24.153120	0.001061	20.771187
678.179854	-2.976100	3.724700	-11.084000	24.179045	0.001060	20.741713
679.181029	-3.029300	3.721800	-11.273000	24.195164	0.001059	20.739388
680.183142	-2.999500	3.724300	-11.170000	24.216260	0.001057	20.730676
681.180728	-3.008900	3.722600	-11.200000	24.217181	0.001058	20.762895
682.180353	-3.003100	3.722700	-11.178000	24.224468	0.001057	20.755505
683.182769	-2.997400	3.722100	-11.155000	24.240414	0.001059	20.740205
684.180620	-2.995900	3.721700	-11.148000	24.234863	0.001058	20.747439
685.182451	-3.001000	3.722200	-11.169000	24.227872	0.001058	20.742324
686.181380	-2.975500	3.721500	-11.072000	24.221476	0.001055	20.770048
687.180728	-2.999400	3.721900	-11.162000	24.211519	0.001057	20.754845
688.180727	-2.987600	3.721100	-11.116000	24.211665	0.001056	20.752147
689.181600	-2.999800	3.719700	-11.158000	24.223378	0.001056	20.750144
690.182727	-3.001900	3.720200	-11.166000	24.194195	0.001056	20.779669
691.181836	-2.997100	3.718900	-11.144000	24.193692	0.001057	20.760672
692.185667	-2.988500	3.720500	-11.117000	24.178665	0.001059	20.745600
693.185069	-3.021700	3.718400	-11.234000	24.163508	0.001057	20.759321
694.185523	-2.991200	3.719100	-11.123000	24.197792	0.001057	20.759094
695.183669	-3.006200	3.718900	-11.179000	24.222967	0.001058	20.759690
696.187416	-3.018300	3.717200	-11.219000	24.203756	0.001057	20.748481
697.183615	-2.991100	3.718600	-11.123000	24.235454	0.001056	20.750877
698.183551	-3.010900	3.717000	-11.191000	24.200970	0.001056	20.763231
699.187018	-3.045200	3.716800	-11.317000	24.194599	0.001055	20.760159
700.184338	-2.983400	3.717900	-11.091000	24.210345	0.001056	20.763151
701.189469	-2.996300	3.717300	-11.138000	24.248509	0.001055	20.770137
702.186903	-2.983500	3.717400	-11.088000	24.249555	0.001056	20.755539
703.188586	-2.991900	3.716500	-11.117000	24.250249	0.001056	20.797013
704.188107	-3.008600	3.715700	-11.178000	24.293390	0.001055	20.774854
705.186625	-2.988400	3.715700	-11.103000	24.299057	0.001056	20.776746
706.190913	-3.006300	3.714600	-11.166000	24.304583	0.001055	20.773754
707.191414	-3.005600	3.714400	-11.163000	24.295397	0.001054	20.757900
708.188921	-2.984800	3.714700	-11.087000	24.303588	0.001054	20.804050
709.189121	-2.999100	3.714800	-11.141000	24.305972	0.001055	20.771828
710.189124	-3.011900	3.714500	-11.186000	24.333684	0.001053	20.788247
711.188673	-2.998100	3.714600	-11.136000	24.313977	0.001054	20.777014
712.196656	-2.981100	3.715400	-11.075000	24.299425	0.001052	20.780908
713.189212	-2.983900	3.714400	-11.083000	24.323326	0.001055	20.772641
714.189410	-3.003300	3.713300	-11.151000	24.328023	0.001054	20.777352
715.188267	-3.009400	3.711800	-11.168000	24.341705	0.001052	20.795819
716.188193	-3.004400	3.712800	-11.154000	24.343415	0.001053	20.775724
717.193686	-2.997800	3.712700	-11.129000	24.355031	0.001054	20.766039
718.189329	-2.988800	3.712800	-11.096000	24.355545	0.001053	20.767028
719.191290	-3.002300	3.710500	-11.137000	24.358109	0.001052	20.783352
720.193214	-2.982100	3.712300	-11.070000	24.365445	0.001051	20.795453
721.189445	-2.989700	3.711600	-11.096000	24.373978	0.001052	20.779831
722.189326	-2.987600	3.712700	-11.091000	24.388324	0.001051	20.796119
723.192218	-2.991500	3.710900	-11.100000	24.402453	0.001051	20.790853
724.189414	-2.987900	3.711100	-11.087000	24.424365	0.001053	20.780119
725.193605	-3.001800	3.709100	-11.133000	24.429987	0.001051	20.793346
726.191151	-2.996600	3.710200	-11.115000	24.416084	0.001048	20.796468
727.190567	-3.004900	3.709700	-11.147000	24.450159	0.001049	20.796988
728.192178	-2.986800	3.709100	-11.077000	24.446202	0.001050	20.781164
729.193810	-2.998600	3.709500	-11.122000	24.434361	0.001051	20.792044
730.198743	-2.984000	3.709900	-11.069000	24.405853	0.001049	20.807540
731.192610	-2.980200	3.708900	-11.052000	24.414687	0.001050	20.803600
732.190353	-2.988700	3.709400	-11.085000	24.386822	0.001048	20.772327
733.192633	-2.990900	3.707600	-11.089000	24.405125	0.001049	20.786895
734.190726	-2.992400	3.707900	-11.095000	24.424503	0.001049	20.799223
735.190721	-3.026700	3.707200	-11.219000	24.436314	0.001049	20.818185
736.191615	-2.994700	3.708100	-11.103000	24.442850	0.001048	20.782543
737.192813	-2.997200	3.706300	-11.107000	24.412130	0.001047	20.804828
738.191923	-2.989800	3.706500	-11.080000	24.383541	0.001050	20.815502
739.194529	-3.018700	3.705000	-11.183000	24.372469	0.001048	20.797757
740.191154	-2.983400	3.706300	-11.055000	24.376225	0.001049	20.799155
741.192730	-3.002500	3.706300	-11.127000	24.383386	0.001049	20.816295
742.192410	-3.012700	3.705500	-11.163000	24.384799	0.001049	20.804911
743.193084	-3.014300	3.704900	-11.166000	24.381089	0.001048	20.811620
744.197245	-3.011800	3.704400	-11.156000	24.372376	0.001048	20.804776
745.202103	-3.006400	3.703600	-11.133000	24.385785	0.001047	20.808745
746.197242	-3.025600	3.702800	-11.202000	24.379310	0.001046	20.812207
747.196386	-2.999500	3.703200	-11.107000	24.355623	0.001047	20.808359
748.196388	-2.997900	3.704100	-11.104000	24.359676	0.001045	20.812898
749.200149	-2.986300	3.703400	-11.058000	24.329345	0.001045	20.804758
750.204548	-2.988100	3.703300	-11.064000	24.283914	0.001047	20.820824
751.199042	-2.989400	3.703300	-11.068000	24.321598	0.001045	20.810736
752.199383	-2.974500	3.703200	-11.014000	24.324359	0.001043	20.823937
753.198272	-2.987000	3.702200	-11.058000	24.336568	0.001044	20.827176
754.199037	-2.987800	3.701500	-11.059000	24.347017	0.001044	20.810631
755.202398	-2.982000	3.702600	-11.040000	24.366533	0.001044	20.820252
756.198566	-2.987800	3.702100	-11.059000	24.375982	0.001043	20.815980
757.202543	-2.975400	3.701800	-11.013000	24.394511	0.001044	20.834568
758.204391	-3.010700	3.701100	-11.142000	24.378784	0.001045	20.816420
759.199479	-2.978000	3.700500	-11.019000	24.395226	0.001044	20.819638
760.198415	-2.998100	3.701000	-11.095000	24.381439	0.001045	20.811498
761.200067	-2.994800	3.699200	-11.078000	24.368854	0.001042	20.822580
762.199354	-2.979400	3.699700	-11.022000	24.360065	0.001042	20.806651
763.200356	-2.986500	3.699500	-11.047000	24.366034	0.001039	20.815484
764.200230	-2.991300	3.698900	-11.063000	24.407672	0.001042	20.814581
765.202333	-2.995300	3.699400	-11.080000	24.414461	0.001043	20.822814
766.203505	-2.988100	3.698500	-11.050000	24.415134	0.001043	20.843877
767.201455	-3.020700	3.697200	-11.166000	24.417045	0.001042	20.812131
768.202262	-2.973900	3.698200	-10.997000	24.460004	0.001042	20.825830
769.201381	-2.983600	3.699300	-11.036000	24.452291	0.001042	20.823783
770.202170	-2.986700	3.697600	-11.042000	24.446097	0.001042	20.832741
771.205112	-3.004900	3.697100	-11.109000	24.441889	0.001042	20.823778
772.202111	-2.992700	3.697600	-11.064000	24.470146	0.001041	20.836005
773.203727	-3.005500	3.696500	-11.109000	24.476507	0.001040	20.838120
774.205942	-3.003200	3.698300	-11.106000	24.486507	0.001041	20.831083
775.204575	-2.992800	3.696200	-11.061000	24.497050	0.001039	20.823643
776.207858	-2.990400	3.696600	-11.053000	24.496950	0.001040	20.850094
777.208121	-2.997100	3.695800	-11.074000	24.519961	0.001038	20.865120
778.206062	-3.019100	3.694700	-11.153000	24.550503	0.001040	20.856409
779.207246	-3.015800	3.694700	-11.141000	24.539110	0.001041	20.842135
780.207971	-3.007200	3.695900	-11.113000	24.532218	0.001038	20.853237
781.209129	-2.996800	3.696300	-11.075000	24.531148	0.001039	20.848844
782.212191	-2.989200	3.695800	-11.047000	24.529680	0.001038	20.835518
783.210243	-2.998300	3.694400	-11.075000	24.508187	0.001037	20.842403
784.212695	-2.998300	3.694900	-11.078000	24.523381	0.001036	20.850060
785.212379	-3.008500	3.693100	-11.109000	24.520616	0.001038	20.855821
786.213357	-3.006900	3.694600	-11.108000	24.530486	0.001037	20.860508
787.220133	-3.005600	3.693100	-11.099000	24.552476	0.001036	20.854122
788.213517	-3.018200	3.691900	-11.141000	24.532853	0.001038	20.861460
789.213370	-2.997400	3.693700	-11.071000	24.531833	0.001037	20.877505
790.213293	-3.018900	3.692000	-11.145000	24.545809	0.001037	20.846959
791.214651	-2.994400	3.692600	-11.056000	24.551279	0.001036	20.851499
792.213886	-2.989200	3.693300	-11.039000	24.559614	0.001037	20.857491
793.217669	-2.990400	3.691900	-11.039000	24.528320	0.001037	20.855489
794.214547	-2.981600	3.692400	-11.007000	24.530607	0.001036	20.861103
795.214058	-3.002300	3.691100	-11.080000	24.533714	0.001035	20.864695
796.214983	-3.002000	3.690700	-11.079000	24.530783	0.001034	20.853694
797.215569	-2.994000	3.691200	-11.051000	24.527847	0.001034	20.850274
798.217454	-3.000100	3.689700	-11.069000	24.532272	0.001034	20.866566
799.214337	-2.999900	3.689700	-11.068000	24.506551	0.001033	20.869684
800.216086	-3.010500	3.690100	-11.108000	24.479910	0.001034	20.861447
801.215833	-3.018400	3.688100	-11.131000	24.487220	0.001033	20.863566
802.216143	-3.007100	3.688400	-11.090000	24.485230	0.001034	20.878163
803.219569	-3.021000	3.688900	-11.143000	24.519227	0.001033	20.865332
804.218289	-3.013600	3.688000	-11.112000	24.522861	0.001032	20.869927
805.216945	-3.013100	3.688100	-11.111000	24.558673	0.001032	20.855124
806.216745	-2.978700	3.688900	-10.986000	24.541037	0.001032	20.883894
807.217260	-2.980900	3.689300	-10.996000	24.530590	0.001031	20.875784
808.216823	-2.981300	3.688400	-10.994000	24.522305	0.001031	20.890704
809.218519	-2.987100	3.688600	-11.018000	24.543320	0.001029	20.892348
810.217854	-2.984000	3.687900	-11.004000	24.539188	0.001030	20.877772
811.218627	-3.007600	3.686600	-11.087000	24.547222	0.001032	20.883462
812.218071	-2.997300	3.686800	-11.050000	24.550354	0.001029	20.888501
813.217027	-2.999500	3.685300	-11.053000	24.506575	0.001028	20.888673
814.223353	-2.999000	3.686000	-11.054000	24.507098	0.001028	20.874499
815.218489	-3.006000	3.685900	-11.078000	24.511794	0.001030	20.891538
816.220191	-3.014600	3.685900	-11.111000	24.482297	0.001030	20.890393
817.218705	-3.007200	3.685900	-11.083000	24.485053	0.001028	20.893158
818.221434	-3.027400	3.685100	-11.155000	24.482117	0.001030	20.867928
819.218210	-3.005600	3.686200	-11.077000	24.474873	0.001029	20.880574
820.220273	-2.987300	3.685200	-11.007000	24.461222	0.001027	20.895327
821.217559	-2.996600	3.684400	-11.039000	24.452639	0.001029	20.909949
822.219676	-2.981500	3.685700	-10.988000	24.420451	0.001028	20.882874
823.225460	-2.988900	3.684500	-11.011000	24.429054	0.001026	20.881548
824.221743	-2.987400	3.684900	-11.007000	24.436637	0.001026	20.881569
825.226360	-3.023100	3.683500	-11.134000	24.445818	0.001028	20.881770
826.222308	-3.018200	3.680900	-11.108000	24.462334	0.001028	20.884590
827.225732	-3.018900	3.682600	-11.116000	24.454053	0.001025	20.902833
828.223562	-2.984500	3.684000	-10.992000	24.466613	0.001024	20.895994
829.223105	-3.007900	3.681900	-11.074000	24.499394	0.001025	20.897588
830.223643	-2.997400	3.681400	-11.033000	24.527875	0.001026	20.901507
831.222737	-3.005800	3.680000	-11.060000	24.550880	0.001029	20.904200
832.222739	-2.993700	3.681500	-11.021000	24.569039	0.001025	20.888282
833.222319	-3.002100	3.680900	-11.050000	24.603979	0.001025	20.914328
834.223557	-2.994300	3.682400	-11.025000	24.623704	0.001023	20.904725
835.223869	-3.004800	3.679900	-11.056000	24.651609	0.001026	20.887208
836.224723	-3.014400	3.679500	-11.090000	24.666132	0.001025	20.901779
837.222463	-2.995500	3.680200	-11.023000	24.646934	0.001024	20.887258
838.223471	-3.002700	3.678900	-11.045000	24.689365	0.001022	20.906126
839.225113	-3.000000	3.679000	-11.036000	24.689837	0.001022	20.882420
840.229723	-3.005900	3.679000	-11.058000	24.706421	0.001023	20.902853
841.228528	-2.987100	3.680100	-10.992000	24.689089	0.001023	20.872661
842.227662	-3.012900	3.678700	-11.081000	24.671359	0.001023	20.887585
843.228870	-3.012800	3.679100	-11.083000	24.646043	0.001020	20.883046
844.228102	-3.028000	3.678900	-11.139000	24.682578	0.001021	20.883671
845.226826	-3.015100	3.677700	-11.087000	24.652513	0.001020	20.886692
846.229073	-2.999900	3.678900	-11.035000	24.659726	0.001020	20.903412
847.232532	-2.979400	3.677800	-10.956000	24.599044	0.001021	20.893732
848.229383	-2.990500	3.677800	-10.996000	24.570670	0.001020	20.880436
849.230402	-2.972500	3.679300	-10.933000	24.540300	0.001020	20.880784
850.234794	-2.989400	3.676500	-10.989000	24.549334	0.001021	20.874201
851.230732	-2.996300	3.677800	-11.019000	24.556774	0.001020	20.869813
852.233142	-3.005900	3.676200	-11.049000	24.548071	0.001022	20.875779
853.230748	-3.003000	3.677200	-11.042000	24.556330	0.001019	20.874109
854.232573	-3.027100	3.674900	-11.123000	24.532777	0.001019	20.871340
855.233406	-2.999200	3.674800	-11.021000	24.569717	0.001020	20.880429
856.230186	-2.990800	3.674400	-10.988000	24.608220	0.001018	20.872121
857.234791	-2.998100	3.673900	-11.013000	24.596114	0.001020	20.868509
858.230728	-2.995200	3.676000	-11.009000	24.623919	0.001018	20.873174
859.233990	-2.993900	3.674200	-10.999000	24.620912	0.001019	20.884381
860.236678	-2.990600	3.674900	-10.989000	24.592162	0.001019	20.878293
861.231931	-2.984000	3.674800	-10.965000	24.608831	0.001020	20.870838
862.233349	-2.974000	3.675000	-10.928000	24.598235	0.001015	20.883912
863.233939	-2.986500	3.674100	-10.972000	24.620223	0.001019	20.890327
864.233268	-3.005700	3.671900	-11.036000	24.598666	0.001019	20.876758
865.234709	-3.006700	3.672600	-11.040000	24.580633	0.001018	20.873364
866.236191	-3.013300	3.672200	-11.064000	24.591402	0.001017	20.873737
867.235447	-3.036600	3.671700	-11.148000	24.601250	0.001014	20.881248
868.239887	-2.997000	3.672000	-11.004000	24.631945	0.001017	20.875063
869.235800	-3.007600	3.671900	-11.043000	24.650650	0.001015	20.866332
870.237735	-3.008700	3.670800	-11.042000	24.647764	0.001015	20.883350
871.236670	-3.001600	3.670400	-11.015000	24.690663	0.001015	20.867603
872.236300	-3.013900	3.670700	-11.061000	24.706402	0.001015	20.852104
873.238318	-3.021100	3.669500	-11.085000	24.699721	0.001015	20.878588
874.240299	-2.989400	3.669600	-10.968000	24.679775	0.001014	20.869005
875.237136	-3.009600	3.670500	-11.046000	24.686269	0.001015	20.833798
876.237207	-3.013400	3.668100	-11.053000	24.686921	0.001014	20.876176
877.238715	-2.976200	3.668800	-10.919000	24.645661	0.001012	20.864646
878.237983	-2.988400	3.669100	-10.963000	24.665829	0.001013	20.868762
879.242028	-3.008100	3.669700	-11.037000	24.651905	0.001013	20.868065
880.238327	-3.002600	3.669700	-11.017000	24.660887	0.001012	20.850527
881.241643	-2.997900	3.668600	-10.997000	24.659465	0.001011	20.866169
882.238350	-2.998100	3.669200	-10.999000	24.661213	0.001010	20.860811
883.239495	-2.989000	3.668100	-10.963000	24.588915	0.001010	20.862708
884.243732	-2.997200	3.667400	-10.991000	24.596128	0.001010	20.856670
885.244728	-3.008000	3.668100	-11.032000	24.594635	0.001011	20.845215
886.243871	-3.012400	3.668000	-11.049000	24.615754	0.001011	20.859767
887.242373	-2.998100	3.667300	-10.994000	24.643463	0.001010	20.857698
888.241442	-3.012400	3.667300	-11.046000	24.679123	0.001008	20.858869
889.242332	-2.992900	3.667800	-10.976000	24.671768	0.001008	20.873773
890.246789	-2.987900	3.665700	-10.952000	24.655979	0.001009	20.865041
891.244587	-3.010900	3.666000	-11.036000	24.644859	0.001008	20.852936
892.244218	-2.991200	3.667100	-10.968000	24.611389	0.001008	20.855387
893.243896	-2.988100	3.666700	-10.955000	24.605789	0.001008	20.854036
894.244097	-2.992100	3.666400	-10.969000	24.591989	0.001008	20.861051
895.246017	-3.009000	3.663900	-11.024000	24.572836	0.001007	20.855584
896.244209	-3.007400	3.664800	-11.021000	24.592959	0.001008	20.859180
897.246800	-2.989100	3.664200	-10.952000	24.627455	0.001008	20.861076
898.244638	-2.958300	3.667000	-10.846000	24.610247	0.001006	20.845707
899.244858	-2.978900	3.665200	-10.918000	24.617059	0.001003	20.852068
900.246244	-2.988200	3.663200	-10.946000	24.630642	0.001005	20.845309
901.246520	-2.998200	3.663100	-10.982000	24.626636	0.001004	20.850297
902.244837	-3.006300	3.661800	-11.007000	24.639817	0.001005	20.859730
903.245172	-2.983500	3.663200	-10.928000	24.669356	0.001005	20.839111
904.244804	-2.989000	3.662800	-10.947000	24.695294	0.001006	20.857551
905.245494	-3.009200	3.661900	-11.018000	24.675352	0.001005	20.863145
906.246841	-3.000600	3.661800	-10.984000	24.681842	0.001005	20.856855
907.245622	-2.992700	3.661100	-10.956000	24.665555	0.001005	20.860900
908.246904	-2.996700	3.660900	-10.970000	24.655878	0.001003	20.848820
909.247159	-2.994000	3.661400	-10.961000	24.650455	0.001004	20.858550
910.246681	-2.996700	3.660300	-10.968000	24.632921	0.001002	20.838112
911.251171	-2.986700	3.660400	-10.932000	24.615361	0.001001	20.859847
912.247621	-3.003400	3.661200	-10.995000	24.636078	0.001001	20.864512
913.249334	-3.001400	3.659700	-10.982000	24.634213	0.001002	20.867382
914.248317	-3.007800	3.659300	-11.005000	24.664701	0.001002	20.844397
915.248216	-2.984300	3.659900	-10.920000	24.681758	0.001000	20.851555
916.248366	-3.025300	3.658400	-11.066000	24.697878	0.001000	20.860144
917.258572	-3.020500	3.659500	-11.053000	24.712973	0.001004	20.830723
918.248045	-2.990500	3.659300	-10.942000	24.713541	0.001002	20.831768
919.248871	-2.994400	3.659100	-10.956000	24.740001	0.001000	20.848836
920.248523	-2.993200	3.658700	-10.949000	24.742389	0.000998	20.854551
921.249990	-3.015300	3.658000	-11.029000	24.686508	0.000998	20.838305
922.253035	-2.996700	3.656800	-10.957000	24.709360	0.001000	20.859338
923.249729	-3.021100	3.655800	-11.044000	24.661581	0.000998	20.834629
924.252350	-2.983000	3.658000	-10.912000	24.636019	0.000996	20.831264
925.249658	-2.991300	3.657500	-10.940000	24.661983	0.000999	20.834083
926.249727	-3.018500	3.656500	-11.036000	24.661008	0.000995	20.846381
927.252926	-2.991700	3.655600	-10.935000	24.643102	0.000996	20.838371
928.252089	-2.992700	3.656400	-10.941000	24.616866	0.000995	20.834331
929.251044	-2.993300	3.655000	-10.939000	24.627534	0.000997	20.846457
930.252154	-2.997200	3.655100	-10.953000	24.648421	0.000996	20.835648
931.251599	-2.998700	3.655400	-10.960000	24.655032	0.000998	20.837540
932.251987	-3.020600	3.654000	-11.036000	24.682911	0.000995	20.835170
933.254779	-3.001100	3.653800	-10.964000	24.745975	0.000997	20.818323
934.253811	-2.985400	3.656600	-10.915000	24.786855	0.000996	20.838010
935.256477	-2.982800	3.654700	-10.900000	24.772083	0.000994	20.826979
936.255635	-2.986500	3.655100	-10.915000	24.783523	0.000994	20.842726
937.261040	-2.990700	3.653600	-10.926000	24.765669	0.000994	20.861792
938.262471	-3.001600	3.653200	-10.964000	24.779191	0.000994	20.841224
939.257854	-3.020700	3.651300	-11.027000	24.804930	0.000994	20.825804
940.260704	-2.998100	3.652700	-10.950000	24.809805	0.000993	20.821214
941.259884	-3.012200	3.653300	-11.001000	24.812962	0.000993	20.858045
942.260346	-2.998900	3.653400	-10.955000	24.772401	0.000992	20.835358
943.258325	-3.004300	3.653500	-10.975000	24.790208	0.000993	20.856073
944.263350	-2.981800	3.652700	-10.890000	24.755617	0.000993	20.827524
945.260035	-2.991600	3.653900	-10.930000	24.717642	0.000993	20.836356
946.259634	-2.988200	3.651800	-10.911000	24.719265	0.000992	20.819019
947.262027	-3.013400	3.650700	-11.000000	24.709660	0.000989	20.840674
948.261000	-2.995300	3.651300	-10.935000	24.703019	0.000992	20.815045
949.264363	-3.001000	3.651800	-10.956000	24.708242	0.000989	20.824079
950.260743	-3.009300	3.650100	-10.983000	24.723579	0.000990	20.824297
951.261850	-2.981300	3.650600	-10.882000	24.739824	0.000988	20.842969
952.266048	-3.013200	3.648100	-10.991000	24.770139	0.000988	20.838778
953.262670	-2.990600	3.650000	-10.914000	24.781327	0.000991	20.829618
954.266229	-3.020400	3.647900	-11.017000	24.796074	0.000990	20.821184
955.266344	-2.982800	3.650800	-10.888000	24.796869	0.000992	20.833361
956.264277	-3.022800	3.648600	-11.027000	24.784484	0.000987	20.817139
957.264378	-2.984800	3.648600	-10.889000	24.772869	0.000987	20.826345
958.263950	-2.976100	3.648500	-10.857000	24.750466	0.000990	20.828518
959.263393	-3.010900	3.647600	-10.981000	24.733632	0.000988	20.841496
960.264603	-3.004400	3.648000	-10.959000	24.715150	0.000988	20.832907
961.263479	-2.995300	3.647900	-10.925000	24.698064	0.000987	20.817185
962.264564	-3.007000	3.647200	-10.966000	24.703810	0.000986	20.841916
963.268140	-3.002000	3.646400	-10.946000	24.725319	0.000986	20.825568
964.263506	-2.969800	3.648500	-10.835000	24.743294	0.000987	20.829856
965.269270	-2.985000	3.644900	-10.879000	24.778634	0.000985	20.820751
966.264865	-3.000500	3.645600	-10.938000	24.814542	0.000986	20.843036
967.268523	-3.012400	3.645100	-10.978000	24.807505	0.000986	20.835500
968.264699	-2.985000	3.645300	-10.879000	24.803796	0.000984	20.812338
969.266466	-3.010500	3.645700	-10.975000	24.753070	0.000983	20.817856
970.267516	-3.013800	3.644400	-10.983000	24.727857	0.000981	20.818158
971.269031	-2.990600	3.644600	-10.898000	24.736679	0.000983	20.798089
972.266697	-3.025500	3.644000	-11.023000	24.752945	0.000981	20.823420
973.268523	-2.975200	3.646900	-10.849000	24.787582	0.000981	20.793695
974.271356	-2.992000	3.644000	-10.901000	24.794498	0.000981	20.814860
975.268249	-2.998600	3.644000	-10.927000	24.841020	0.000982	20.809393
976.272604	-2.996600	3.644400	-10.920000	24.836471	0.000984	20.822371
977.268989	-2.969800	3.644000	-10.821000	24.876821	0.000981	20.806443
978.272178	-3.016700	3.643000	-10.989000	24.881419	0.000979	20.821015
979.268411	-2.987900	3.642100	-10.881000	24.886294	0.000979	20.811684
980.269350	-2.994800	3.641800	-10.905000	24.864905	0.000981	20.803019
981.268667	-3.007900	3.640700	-10.949000	24.850556	0.000980	20.804265
982.273293	-3.011600	3.641500	-10.965000	24.870052	0.000979	20.822408
983.270864	-3.018700	3.640700	-10.989000	24.868308	0.000977	20.833934
984.270504	-3.017300	3.640900	-10.985000	24.877953	0.000977	20.830338
985.271308	-2.991200	3.642000	-10.893000	24.847019	0.000977	20.813517
986.272761	-3.001400	3.640300	-10.925000	24.843139	0.000976	20.812942
987.274921	-2.985100	3.641700	-10.869000	24.820603	0.000977	20.808817
988.271760	-3.005100	3.639000	-10.935000	24.859841	0.000977	20.794143
989.273259	-3.001500	3.639400	-10.921000	24.839769	0.000978	20.782533
990.270993	-2.996300	3.638800	-10.901000	24.892727	0.000975	20.808183
991.271487	-2.998800	3.639500	-10.914000	24.873550	0.000975	20.801263
992.272677	-2.989400	3.638600	-10.876000	24.856316	0.000976	20.808623
993.271998	-2.997900	3.638600	-10.907000	24.854100	0.000976	20.794545
994.270734	-2.993800	3.639300	-10.894000	24.877342	0.000975	20.805543
995.271103	-3.004000	3.637200	-10.924000	24.909667	0.000973	20.813805
996.271824	-2.992900	3.638100	-10.888000	24.924906	0.000973	20.803021
997.272555	-3.009300	3.636900	-10.944000	24.952848	0.000972	20.782704
998.274959	-3.015000	3.637500	-10.966000	24.944989	0.000973	20.802790
999.274070	-2.998400	3.637600	-10.906000	24.917685	0.000972	20.815214
1000.273632	-3.023800	3.636700	-10.994000	24.886230	0.000971	20.791704
1001.274026	-3.006000	3.634700	-10.924000	24.891748	0.000972	20.771638
1002.275832	-2.995800	3.635500	-10.890000	24.863022	0.000971	20.787852
1003.277422	-2.986800	3.636000	-10.858000	24.867324	0.000970	20.789325
1004.274107	-2.986000	3.635100	-10.853000	24.840340	0.000971	20.777890
1005.275543	-2.974300	3.636800	-10.816000	24.847452	0.000969	20.794037
1006.275359	-2.983900	3.636500	-10.850000	24.835143	0.000972	20.780261
1007.275694	-3.011300	3.634700	-10.944000	24.822780	0.000970	20.790613
1008.278846	-3.009000	3.634700	-10.935000	24.833002	0.000969	20.790441
1009.280830	-2.997500	3.634600	-10.894000	24.867516	0.000969	20.798527
1010.277540	-3.005500	3.632700	-10.917000	24.904587	0.000968	20.783102
1011.277328	-3.009400	3.634100	-10.936000	24.937254	0.000969	20.790760
1012.278152	-2.995200	3.633800	-10.883000	24.933973	0.000969	20.804061
1013.277932	-2.991700	3.633200	-10.869000	24.948023	0.000966	20.783551
1014.280554	-3.000700	3.632100	-10.897000	24.956472	0.000965	20.791557
1015.278358	-2.986200	3.633400	-10.849000	24.971810	0.000967	20.787038
1016.279860	-3.007300	3.631700	-10.920000	24.976881	0.000967	20.778377
1017.278341	-3.004000	3.630900	-10.906000	24.941824	0.000967	20.772586
1018.277943	-3.015900	3.631800	-10.951000	24.900724	0.000964	20.772586
1019.281697	-2.994700	3.631900	-10.876000	24.902563	0.000963	20.796244
1020.278398	-3.018300	3.630600	-10.957000	24.894833	0.000963	20.768570
1021.281867	-2.977800	3.633200	-10.818000	24.901267	0.000962	20.800633
1022.283582	-3.013500	3.630700	-10.940000	24.885577	0.000964	20.793894
1023.279673	-3.018800	3.631000	-10.961000	24.881446	0.000962	20.764618
1024.280716	-3.030600	3.628700	-10.997000	24.846310	0.000961	20.772976
1025.287575	-3.022900	3.630100	-10.973000	24.864062	0.000963	20.778939
1026.280856	-3.003600	3.629000	-10.899000	24.854191	0.000962	20.780886
1027.281096	-2.999900	3.628900	-10.884000	24.856202	0.000960	20.790965
1028.281928	-3.012800	3.628900	-10.932000	24.856474	0.000959	20.777487
1029.282858	-2.994800	3.628900	-10.867000	24.892826	0.000963	20.771772
1030.283780	-3.006200	3.628400	-10.906000	24.891053	0.000961	20.772363
1031.281496	-3.015700	3.627700	-10.938000	24.884168	0.000960	20.771142
1032.281991	-2.996400	3.627300	-10.866000	24.855897	0.000957	20.771692
1033.282569	-2.996300	3.628400	-10.870000	24.825706	0.000959	20.788808
1034.282458	-2.989900	3.625900	-10.840000	24.810040	0.000958	20.794422
1035.287225	-3.023500	3.627000	-10.965000	24.787290	0.000958	20.755944
1036.284800	-3.007100	3.627800	-10.908000	24.804914	0.000959	20.772682
1037.282702	-3.009300	3.627200	-10.914000	24.784100	0.000957	20.753216
1038.283135	-2.991700	3.626500	-10.848000	24.743266	0.000958	20.762498
1039.282816	-2.994100	3.626200	-10.856000	24.777184	0.000958	20.760501
1040.281930	-3.008300	3.625800	-10.907000	24.807276	0.000957	20.787855
1041.285833	-3.037100	3.623700	-11.005000	24.827809	0.000956	20.788074
1042.285135	-2.978400	3.624500	-10.794000	24.869062	0.000955	20.765939
1043.285626	-2.975700	3.626000	-10.789000	24.889975	0.000955	20.761323
1044.284179	-2.966700	3.625900	-10.756000	24.890447	0.000956	20.750891
1045.285350	-2.994200	3.624600	-10.850000	24.894277	0.000956	20.760899
1046.288389	-2.985500	3.624200	-10.818000	24.884979	0.000954	20.773853
1047.287801	-2.993600	3.625100	-10.849000	24.884481	0.000952	20.763396
1048.289775	-3.005400	3.622900	-10.887000	24.897705	0.000952	20.776669
1049.287282	-3.040000	3.621500	-11.008000	24.946142	0.000952	20.778343
1050.287080	-3.007400	3.624100	-10.899000	24.943006	0.000953	20.756229
1051.286786	-3.008600	3.624100	-10.900000	24.933880	0.000954	20.752759
1052.292552	-2.999900	3.621800	-10.864000	24.894051	0.000952	20.746448
1053.288178	-2.998700	3.622600	-10.862000	24.907927	0.000950	20.742356
1054.289231	-3.020600	3.621100	-10.936000	24.939327	0.000950	20.767710
1055.288143	-2.989200	3.621800	-10.825000	24.928408	0.000951	20.747740
1056.287545	-3.029100	3.619300	-10.962000	24.947680	0.000950	20.755230
1057.292504	-3.018100	3.619700	-10.923000	24.927287	0.000951	20.761789
1058.287317	-3.010600	3.619700	-10.896000	24.901058	0.000948	20.763438
1059.295244	-3.008100	3.619700	-10.888000	24.857920	0.000947	20.762817
1060.288558	-3.004300	3.619200	-10.872000	24.856917	0.000948	20.752801
1061.288563	-3.016500	3.619000	-10.916000	24.900481	0.000947	20.726348
1062.290094	-3.004100	3.618300	-10.869000	24.919081	0.000947	20.765880
1063.295123	-2.988900	3.619000	-10.813000	24.941902	0.000946	20.760337
1064.290341	-2.974000	3.618400	-10.759000	24.965949	0.000946	20.754601
1065.290405	-3.005100	3.618700	-10.873000	24.985338	0.000948	20.753199
1066.291245	-2.998500	3.617700	-10.846000	25.005474	0.000946	20.749230
1067.291936	-3.017400	3.616700	-10.912000	25.013258	0.000945	20.752301
1068.292922	-2.945600	3.619800	-10.662000	25.031852	0.000945	20.736351
1069.293737	-2.960800	3.619600	-10.716000	25.053037	0.000945	20.745764
1070.293855	-3.007400	3.617500	-10.878000	25.067751	0.000946	20.746309
1071.295092	-3.021300	3.617000	-10.927000	25.083639	0.000943	20.740921
1072.294731	-3.005600	3.618400	-10.874000	25.073244	0.000943	20.750400
1073.302619	-2.991200	3.617300	-10.817000	25.085700	0.000943	20.776182
1074.295938	-3.002500	3.614700	-10.852000	25.070907	0.000942	20.734304
1075.298121	-2.995000	3.615400	-10.827000	25.028892	0.000942	20.763728
1076.296643	-2.991400	3.615500	-10.814000	25.004647	0.000942	20.742709
1077.299335	-2.990900	3.614800	-10.810000	25.010223	0.000943	20.740720
1078.296154	-2.999100	3.615900	-10.842000	25.005199	0.000941	20.740418
1079.300609	-2.989100	3.614800	-10.804000	24.995454	0.000941	20.751500
1080.297498	-3.004600	3.613900	-10.858000	25.006419	0.000941	20.753497
1081.296159	-2.995200	3.612900	-10.820000	24.993740	0.000939	20.760211
1082.297177	-3.014800	3.613400	-10.891000	24.970819	0.000938	20.737203
1083.295680	-2.991200	3.613000	-10.806000	24.977211	0.000939	20.740774
1084.300594	-2.988500	3.612500	-10.795000	24.967466	0.000937	20.758969
1085.297390	-2.993200	3.613200	-10.814000	25.003221	0.000937	20.753606
1086.298675	-2.994300	3.612800	-10.817000	25.003342	0.000938	20.738554
1087.297042	-3.009500	3.612500	-10.870000	25.022789	0.000937	20.757127
1088.296079	-2.997000	3.612400	-10.825000	25.022643	0.000938	20.729478
1089.298086	-2.999600	3.612500	-10.835000	25.039201	0.000936	20.736142
1090.299654	-2.999800	3.611400	-10.832000	25.058421	0.000936	20.745953
1091.298730	-3.016300	3.611400	-10.891000	25.070130	0.000936	20.751068
1092.299849	-3.000100	3.610700	-10.832000	25.086290	0.000935	20.756859
1093.304575	-3.002300	3.609900	-10.837000	25.123759	0.000935	20.766497
1094.299914	-2.988500	3.610800	-10.789000	25.112172	0.000934	20.751546
1095.301606	-2.992000	3.608800	-10.796000	25.124135	0.000934	20.753598
1096.298147	-3.033600	3.607900	-10.944000	25.076153	0.000932	20.729138
1097.298394	-2.992400	3.609100	-10.799000	25.062781	0.000933	20.767874
1098.299364	-2.975200	3.610200	-10.738000	25.023525	0.000931	20.751227
1099.299308	-2.978500	3.609000	-10.747000	25.043761	0.000931	20.766799
1100.302570	-2.986800	3.609300	-10.779000	25.070017	0.000932	20.772292
1101.299378	-2.999500	3.609300	-10.825000	25.069022	0.000931	20.755646
1102.300417	-2.967300	3.608600	-10.707000	25.100146	0.000930	20.757966
1103.299211	-2.989400	3.608300	-10.786000	25.086352	0.000929	20.738903
1104.299861	-3.007500	3.607500	-10.848000	25.030761	0.000929	20.758491
1105.298635	-2.994500	3.607500	-10.802000	25.043686	0.000930	20.741593
1106.300407	-2.998500	3.606100	-10.811000	25.059675	0.000930	20.743418
1107.300441	-3.007200	3.604800	-10.839000	25.063182	0.000929	20.742197
1108.300407	-3.010900	3.605600	-10.855000	25.084643	0.000927	20.754257
1109.300460	-3.022500	3.606000	-10.898000	25.101171	0.000926	20.732915
1110.301435	-3.004700	3.606200	-10.834000	25.076881	0.000925	20.748835
1111.304563	-3.017200	3.604500	-10.874000	25.076458	0.000926	20.754576
1112.301834	-3.035100	3.603100	-10.934000	25.063057	0.000926	20.736855
1113.311658	-3.012100	3.604000	-10.854000	25.053368	0.000926	20.750363
1114.301744	-3.003700	3.605400	-10.828000	25.087795	0.000923	20.751257
1115.302063	-3.004900	3.604200	-10.830000	25.113551	0.000924	20.745818
1116.304175	-3.000600	3.604600	-10.814000	25.114446	0.000924	20.746716
1117.304742	-3.001500	3.603600	-10.815000	25.141314	0.000924	20.738601
1118.302694	-3.014000	3.602400	-10.856000	25.146171	0.000923	20.741106
1119.301922	-3.001200	3.603900	-10.815000	25.166727	0.000924	20.759372
1120.302673	-3.008100	3.602300	-10.835000	25.148031	0.000923	20.765259
1121.303371	-3.005900	3.602200	-10.827000	25.086909	0.000921	20.753212
1122.303879	-2.978100	3.601800	-10.725000	25.075372	0.000920	20.761546
1123.303275	-2.995200	3.601800	-10.787000	25.049045	0.000921	20.745076
1124.303570	-3.006700	3.601300	-10.827000	25.030301	0.000920	20.763720
1125.304017	-2.994600	3.600800	-10.782000	25.036221	0.000922	20.772980
1126.304376	-3.011000	3.601000	-10.841000	25.029633	0.000920	20.748823
1127.309953	-2.968700	3.601800	-10.691000	25.038307	0.000919	20.741408
1128.304798	-2.998700	3.599500	-10.793000	25.010888	0.000920	20.764622
1129.308312	-3.027300	3.599200	-10.894000	24.963148	0.000919	20.736142
1130.304813	-3.001800	3.599100	-10.802000	24.937421	0.000917	20.756788
1131.304760	-2.998700	3.598800	-10.791000	24.926209	0.000916	20.759284
1132.305202	-2.989100	3.599000	-10.757000	24.952492	0.000916	20.743465
1133.308222	-2.989800	3.600400	-10.763000	24.985685	0.000918	20.758290
1134.305601	-3.031600	3.598400	-10.907000	25.022029	0.000917	20.766795
1135.306890	-3.008800	3.598600	-10.826000	25.050797	0.000917	20.763904
1136.307575	-2.998400	3.597100	-10.782000	25.086917	0.000916	20.772187
1137.305886	-2.997600	3.598100	-10.785000	25.063429	0.000915	20.767576
1138.310159	-3.016700	3.597300	-10.851000	25.071932	0.000917	20.757619
1139.307210	-2.979800	3.598300	-10.721000	25.075414	0.000914	20.762062
1140.310850	-2.997600	3.597500	-10.783000	25.079289	0.000913	20.785393
1141.307126	-3.004400	3.596300	-10.804000	25.089730	0.000913	20.766002
1142.307034	-2.998900	3.595300	-10.779000	25.092589	0.000914	20.758915
1143.309249	-3.000800	3.594800	-10.786000	25.138802	0.000914	20.785867
1144.308423	-2.994400	3.594800	-10.762000	25.139049	0.000912	20.772364
1145.308159	-2.969500	3.595700	-10.677000	25.116749	0.000912	20.775582
1146.309772	-2.971200	3.596000	-10.683000	25.120678	0.000913	20.769569
1147.308914	-2.984600	3.595500	-10.731000	25.099499	0.000912	20.779602
1148.309584	-3.001500	3.593200	-10.783000	25.074853	0.000910	20.778570
1149.313260	-3.005600	3.593500	-10.800000	25.068445	0.000912	20.774034
1150.312099	-2.995400	3.592100	-10.758000	25.091335	0.000910	20.771407
1151.311754	-3.025500	3.592700	-10.869000	25.105752	0.000909	20.779715
1152.312731	-3.012300	3.592700	-10.821000	25.101697	0.000910	20.772800
1153.312078	-3.010700	3.591600	-10.811000	25.091578	0.000910	20.767857
1154.315776	-3.010200	3.590400	-10.807000	25.120762	0.000911	20.778188
1155.312280	-2.995800	3.591000	-10.757000	25.112134	0.000908	20.780907
1156.314686	-2.997400	3.591800	-10.765000	25.145720	0.000907	20.774319
1157.312420	-3.006500	3.591600	-10.798000	25.169406	0.000907	20.761588
1158.313108	-3.002600	3.592000	-10.784000	25.182681	0.000906	20.764483
1159.314561	-2.981100	3.590300	-10.703000	25.236496	0.000907	20.776786
1160.314754	-2.998500	3.589300	-10.761000	25.228417	0.000906	20.781003
1161.313508	-2.981800	3.591200	-10.707000	25.237090	0.000905	20.798719
1162.312011	-2.999300	3.588600	-10.762000	25.237261	0.000903	20.797943
1163.312984	-2.973200	3.591000	-10.674000	25.203950	0.000906	20.785837
1164.313638	-2.968700	3.588900	-10.653000	25.176854	0.000905	20.802730
1165.319793	-2.984400	3.589500	-10.712000	25.154058	0.000904	20.771784
1166.318988	-2.990800	3.588600	-10.732000	25.108218	0.000902	20.801631
1167.316559	-3.010500	3.588500	-10.802000	25.130438	0.000903	20.795962
1168.311368	-2.999700	3.587400	-10.760000	25.145034	0.000901	20.795916
1169.312030	-2.979600	3.588600	-10.692000	25.142472	0.000900	20.784809
1170.315811	-2.981400	3.587500	-10.695000	25.137297	0.000899	20.786727
1171.315668	-2.987600	3.587800	-10.718000	25.111771	0.000900	20.782912
1172.312906	-2.993400	3.587500	-10.738000	25.077039	0.000900	20.784083
1173.313198	-3.013600	3.584700	-10.802000	25.061452	0.000899	20.784557
1174.312619	-2.980500	3.587500	-10.692000	25.053422	0.000900	20.788350
1175.312881	-2.980900	3.586700	-10.690000	25.087807	0.000899	20.814332
1176.315187	-2.975700	3.585800	-10.668000	25.107545	0.000897	20.775825
1177.312744	-2.984800	3.585400	-10.700000	25.133573	0.000897	20.794842
1178.315076	-2.987300	3.584800	-10.708000	25.157439	0.000897	20.824017
1179.313733	-3.008000	3.583000	-10.776000	25.181205	0.000896	20.795719
1180.314985	-2.990700	3.584500	-10.719000	25.168257	0.000896	20.803108
1181.317297	-2.998600	3.583000	-10.743000	25.144194	0.000896	20.798392
1182.314196	-3.010600	3.583800	-10.788000	25.157042	0.000896	20.798014
1183.317729	-3.000600	3.584300	-10.754000	25.155579	0.000894	20.783269
1184.315270	-3.011400	3.582000	-10.785000	25.187767	0.000894	20.825540
1185.314390	-3.013500	3.582700	-10.795000	25.208573	0.000894	20.806599
1186.313373	-2.986100	3.582400	-10.696000	25.223314	0.000894	20.799588
1187.317860	-3.001400	3.581400	-10.748000	25.241160	0.000894	20.802332
1188.322615	-3.014000	3.581000	-10.792000	25.250259	0.000891	20.803880
1189.315915	-2.988700	3.581200	-10.702000	25.262713	0.000892	20.811643
1190.316795	-2.992300	3.581000	-10.715000	25.314757	0.000890	20.818851
1191.316262	-3.002200	3.580400	-10.747000	25.340709	0.000888	20.807925
1192.321938	-2.973500	3.580800	-10.645000	25.378236	0.000890	20.823320
1193.316197	-2.995500	3.580100	-10.723000	25.346681	0.000888	20.791162
1194.316793	-2.987900	3.579800	-10.695000	25.320132	0.000890	20.803385
1195.315111	-2.998300	3.580600	-10.735000	25.288316	0.000888	20.812692
1196.318716	-2.982200	3.579900	-10.675000	25.303031	0.000888	20.807078
1197.317316	-3.004000	3.578700	-10.749000	25.286226	0.000891	20.793524
1198.317539	-3.003800	3.577500	-10.745000	25.265576	0.000887	20.802189
1199.316148	-3.023900	3.576300	-10.813000	25.300201	0.000886	20.805185
1200.317479	-2.997600	3.577900	-10.724000	25.315681	0.000888	20.797020
1201.317618	-2.975300	3.578600	-10.647000	25.296219	0.000885	20.808773
1202.317965	-2.981700	3.579300	-10.671000	25.321670	0.000884	20.796869
1203.320162	-2.960300	3.578600	-10.592000	25.337680	0.000884	20.822426
1204.319171	-2.980200	3.577100	-10.659000	25.330521	0.000883	20.811446
1205.318940	-2.998400	3.577200	-10.725000	25.314168	0.000884	20.795027
1206.319244	-2.980600	3.576600	-10.658000	25.275941	0.000881	20.808328
1207.318966	-2.993100	3.575700	-10.701000	25.264506	0.000882	20.834305
1208.322961	-2.989400	3.576900	-10.692000	25.284638	0.000882	20.814689
1209.319899	-2.996300	3.575700	-10.713000	25.305889	0.000883	20.806154
1210.324007	-2.985100	3.575300	-10.672000	25.284542	0.000884	20.807480
1211.320374	-3.006900	3.575500	-10.750000	25.311184	0.000881	20.845609
1212.320728	-2.989900	3.574500	-10.686000	25.357693	0.000881	20.821659
1213.323165	-3.015700	3.573900	-10.777000	25.305768	0.000881	20.828792
1214.325508	-3.002100	3.573900	-10.728000	25.270826	0.000880	20.829270
1215.324423	-2.997300	3.573400	-10.709000	25.271544	0.000880	20.797276
1216.324038	-3.020700	3.570600	-10.785000	25.229567	0.000879	20.835262
1217.326356	-3.000400	3.572800	-10.718000	25.189744	0.000879	20.843645
1218.323060	-2.979200	3.573800	-10.646000	25.203892	0.000879	20.827504
1219.325682	-3.026500	3.572500	-10.811000	25.215624	0.000877	20.835489
1220.323951	-2.999700	3.571900	-10.713000	25.201731	0.000878	20.825334
1221.325806	-2.999100	3.570900	-10.709000	25.235811	0.000878	20.832522
1222.322938	-3.001500	3.572300	-10.722000	25.268226	0.000878	20.842781
1223.328549	-3.018600	3.569800	-10.775000	25.256127	0.000876	20.822099
1224.326156	-3.017900	3.570800	-10.775000	25.225329	0.000874	20.816309
1225.328178	-3.013700	3.569100	-10.755000	25.198409	0.000876	20.841438
1226.324736	-3.003100	3.569400	-10.717000	25.185360	0.000877	20.828339
1227.323737	-2.973800	3.571400	-10.619000	25.211491	0.000876	20.842718
1228.325372	-2.992500	3.570600	-10.684000	25.265430	0.000874	20.842819
1229.326825	-2.998200	3.569400	-10.700000	25.269455	0.000874	20.851601
1230.325778	-3.005600	3.568600	-10.724000	25.294017	0.000872	20.845916
1231.325703	-3.004000	3.568200	-10.717000	25.309998	0.000874	20.813599
1232.326362	-2.998500	3.568600	-10.698000	25.282286	0.000870	20.872068
1233.328935	-3.005300	3.568200	-10.722000	25.289867	0.000870	20.844120
1234.326756	-3.007000	3.567200	-10.725000	25.273493	0.000871	20.838586
1235.327868	-2.993500	3.568100	-10.680000	25.302747	0.000871	20.833819
1236.326695	-3.004600	3.567300	-10.718000	25.298401	0.000872	20.828981
1237.334177	-3.011800	3.566100	-10.739000	25.310855	0.000869	20.837218
1238.327830	-2.997800	3.567100	-10.693000	25.327805	0.000869	20.837642
1239.328118	-2.989000	3.567100	-10.661000	25.361509	0.000868	20.840663
1240.335595	-3.012500	3.565400	-10.739000	25.387535	0.000869	20.831235
1241.330278	-2.975500	3.565800	-10.609000	25.410130	0.000867	20.835431
1242.328165	-2.985500	3.564700	-10.641000	25.384481	0.000867	20.833857
1243.328064	-3.012800	3.564700	-10.739000	25.376085	0.000868	20.851505
1244.333377	-2.998400	3.564100	-10.686000	25.373181	0.000866	20.861391
1245.337505	-2.965300	3.566200	-10.573000	25.381313	0.000864	20.850591
1246.332767	-2.977400	3.564800	-10.611000	25.369608	0.000864	20.855433
1247.329131	-3.003700	3.563400	-10.702000	25.366378	0.000865	20.850767
1248.330561	-2.981500	3.564200	-10.625000	25.378464	0.000865	20.844410
1249.333808	-3.008800	3.561600	-10.716000	25.412910	0.000864	20.856239
1250.332132	-2.998400	3.562400	-10.680000	25.426557	0.000863	20.849081
1251.331791	-3.006300	3.562900	-10.709000	25.407519	0.000862	20.858412
1252.333317	-2.989400	3.561800	-10.647000	25.398777	0.000861	20.841574
1253.335577	-3.012500	3.561700	-10.729000	25.387791	0.000861	20.851879
1254.332842	-2.989000	3.561500	-10.644000	25.382948	0.000859	20.850335
1255.338300	-2.985800	3.560700	-10.630000	25.406036	0.000860	20.855500
1256.334327	-2.980000	3.562000	-10.614000	25.402835	0.000861	20.872674
1257.335870	-2.991300	3.560400	-10.649000	25.392451	0.000859	20.845653
1258.341524	-2.982600	3.560500	-10.619000	25.375100	0.000859	20.881334
1259.332899	-2.981700	3.559700	-10.613000	25.370011	0.000857	20.852043
1260.336235	-2.977300	3.559500	-10.597000	25.329871	0.000858	20.852992
1261.332841	-2.987100	3.559600	-10.632000	25.314392	0.000858	20.871588
1262.340668	-3.005600	3.557600	-10.692000	25.313147	0.000856	20.856114
1263.341745	-3.008700	3.559000	-10.707000	25.340018	0.000853	20.856542
1264.336769	-3.007900	3.556600	-10.697000	25.311438	0.000856	20.880475
1265.351702	-2.978800	3.559200	-10.601000	25.328171	0.000856	20.877836
1266.333217	-2.984200	3.557600	-10.615000	25.322855	0.000855	20.857327
1267.334434	-2.974700	3.558100	-10.583000	25.340253	0.000854	20.875742
1268.338376	-2.999400	3.557100	-10.668000	25.351390	0.000853	20.867011
1269.341831	-3.011100	3.556300	-10.706000	25.341001	0.000853	20.881234
1270.334982	-2.994600	3.557000	-10.651000	25.363024	0.000855	20.889122
1271.334329	-3.016300	3.553700	-10.718000	25.375106	0.000854	20.885132
1272.334459	-3.012500	3.554000	-10.706000	25.384855	0.000853	20.892077
1273.338963	-2.994000	3.554300	-10.641000	25.377596	0.000850	20.876729
1274.340211	-2.995500	3.555900	-10.651000	25.402402	0.000850	20.907798
1275.337224	-2.996900	3.553800	-10.650000	25.412740	0.000850	20.882145
1276.342297	-3.000900	3.554900	-10.667000	25.426288	0.000850	20.890059
1277.334471	-3.000000	3.552600	-10.657000	25.456040	0.000848	20.894330
1278.343026	-2.996700	3.552800	-10.645000	25.457482	0.000851	20.902889
1279.338243	-2.996100	3.552900	-10.642000	25.485540	0.000848	20.903091
1280.335042	-3.002600	3.554500	-10.672000	25.449685	0.000848	20.871829
1281.348851	-3.001400	3.554500	-10.667000	25.505380	0.000849	20.891721
1282.335804	-2.996600	3.553400	-10.647000	25.508063	0.000848	20.895363
1283.338587	-3.021900	3.552200	-10.733000	25.509287	0.000848	20.890429
1284.342913	-3.018400	3.553100	-10.723000	25.476683	0.000846	20.888507
1285.341819	-3.014700	3.551100	-10.704000	25.503705	0.000846	20.915167
1286.342710	-3.015300	3.551000	-10.707000	25.502611	0.000846	20.905534
1287.343801	-3.004400	3.549600	-10.664000	25.510144	0.000847	20.896505
1288.335704	-2.977300	3.551900	-10.574000	25.553833	0.000844	20.896283
1289.341524	-3.011200	3.550000	-10.689000	25.556198	0.000846	20.901028
1290.338228	-3.020100	3.549000	-10.717000	25.554836	0.000843	20.916255
1291.342963	-3.004900	3.549900	-10.665000	25.560974	0.000844	20.911513
1292.337336	-2.999700	3.549800	-10.647000	25.556357	0.000841	20.910196
1293.343191	-2.993400	3.548000	-10.620000	25.574499	0.000844	20.907079
1294.337604	-3.005600	3.550400	-10.670000	25.591997	0.000841	20.904264
1295.342079	-2.986700	3.549500	-10.600000	25.588772	0.000842	20.911930
1296.340239	-3.005700	3.547600	-10.662000	25.577090	0.000841	20.935282
1297.342034	-2.978500	3.548500	-10.568000	25.618148	0.000839	20.929577
1298.339477	-2.987300	3.548500	-10.599000	25.613652	0.000840	20.924588
1299.342938	-3.007700	3.545700	-10.664000	25.636564	0.000840	20.918677
1300.344899	-3.004400	3.546000	-10.653000	25.631426	0.000838	20.908302
1301.342231	-3.002000	3.546300	-10.645000	25.651776	0.000838	20.922101
1302.345157	-3.004800	3.544900	-10.650000	25.655829	0.000837	20.911474
1303.347559	-3.001600	3.546200	-10.643000	25.659982	0.000837	20.919911
1304.345874	-2.982300	3.546800	-10.576000	25.647215	0.000838	20.923209
1305.342718	-3.007000	3.545700	-10.661000	25.623660	0.000834	20.936534
1306.341784	-3.004500	3.546400	-10.654000	25.600435	0.000836	20.922694
1307.342034	-2.990000	3.544300	-10.596000	25.589752	0.000835	20.926189
1308.340181	-2.991100	3.543700	-10.598000	25.548229	0.000836	20.920525
1309.344052	-2.990900	3.544900	-10.601000	25.556632	0.000833	20.925644
1310.341824	-2.988100	3.543400	-10.587000	25.542794	0.000835	20.912696
1311.348962	-2.990300	3.544200	-10.597000	25.505745	0.000834	20.939498
1312.342264	-2.992400	3.542400	-10.599000	25.488927	0.000832	20.926878
1313.344174	-2.982700	3.543300	-10.568000	25.453790	0.000833	20.937111
1314.343572	-2.993000	3.542900	-10.603000	25.458612	0.000831	20.932471
1315.348730	-2.979200	3.543300	-10.555000	25.443085	0.000831	20.919725
1316.342161	-3.016900	3.542400	-10.686000	25.440357	0.000831	20.927890
1317.350141	-2.994000	3.541400	-10.601000	25.420650	0.000832	20.951721
1318.344359	-2.992000	3.541200	-10.595000	25.414094	0.000829	20.938027
1319.346018	-3.017600	3.541300	-10.685000	25.422865	0.000830	20.937826
1320.348019	-2.995900	3.540000	-10.604000	25.479256	0.000829	20.955569
1321.345614	-3.005500	3.540900	-10.642000	25.492184	0.000827	20.933467
1322.349833	-2.990700	3.540700	-10.588000	25.524964	0.000825	20.934143
1323.346018	-2.989300	3.541000	-10.584000	25.538214	0.000826	20.927061
1324.349793	-2.990400	3.538800	-10.582000	25.512717	0.000827	20.925165
1325.346240	-3.004900	3.538100	-10.631000	25.563212	0.000824	20.954059
1326.346691	-3.002200	3.538300	-10.622000	25.584382	0.000826	20.944502
1327.352738	-2.975300	3.538900	-10.529000	25.616536	0.000824	20.951664
1328.349759	-2.985400	3.539400	-10.566000	25.614623	0.000824	20.975817
1329.352799	-3.010600	3.538000	-10.651000	25.627771	0.000823	20.971953
1330.347706	-3.005800	3.538100	-10.634000	25.638002	0.000824	20.968953
1331.348686	-2.989900	3.537700	-10.577000	25.652667	0.000823	20.950493
1332.353381	-3.022400	3.535400	-10.683000	25.672841	0.000821	20.966960
1333.356024	-2.991000	3.537000	-10.578000	25.654651	0.000820	20.967657
1334.350608	-2.987400	3.536400	-10.562000	25.649734	0.000821	20.939962
1335.358431	-3.024000	3.534100	-10.686000	25.656836	0.000821	20.948043
1336.358441	-2.977000	3.536100	-10.525000	25.668739	0.000820	20.974692
1337.350740	-3.003700	3.535900	-10.619000	25.650925	0.000820	20.951588
1338.353816	-2.991800	3.535200	-10.576000	25.666654	0.000820	20.946524
1339.352958	-2.983300	3.535500	-10.546000	25.697982	0.000821	20.929628
1340.352539	-2.988400	3.534500	-10.562000	25.687250	0.000819	20.946348
1341.357159	-3.010500	3.533500	-10.636000	25.666725	0.000817	20.951336
1342.360170	-2.969200	3.535600	-10.497000	25.695526	0.000817	20.939488
1343.360612	-3.004600	3.533400	-10.615000	25.696094	0.000816	20.955230
1344.354650	-2.993700	3.531900	-10.572000	25.691900	0.000817	20.941062
1345.359321	-2.961900	3.533400	-10.465000	25.694783	0.000815	20.949172
1346.360160	-2.998000	3.532900	-10.590000	25.711004	0.000816	20.949344
1347.356204	-3.025700	3.530600	-10.681000	25.698936	0.000815	20.957135
1348.358796	-2.992800	3.532700	-10.571000	25.699403	0.000815	20.922996
1349.360810	-2.992800	3.531100	-10.566000	25.720179	0.000815	20.921104
1350.361426	-3.012200	3.530800	-10.635000	25.696575	0.000814	20.946705
1351.359542	-3.002200	3.529100	-10.594000	25.682116	0.000813	20.939770
1352.358940	-2.997900	3.531200	-10.586000	25.705745	0.000812	20.926995
1353.359187	-3.005800	3.530800	-10.611000	25.687088	0.000812	20.933385
1354.365385	-2.987300	3.530000	-10.544000	25.691111	0.000813	20.928417
1355.361844	-3.005700	3.529600	-10.608000	25.683713	0.000812	20.920987
1356.364270	-2.988700	3.528900	-10.546000	25.677872	0.000811	20.923181
1357.365791	-3.020200	3.527800	-10.653000	25.674392	0.000810	20.916367
1358.361906	-2.987900	3.528800	-10.541000	25.657176	0.000810	20.924205
1359.365731	-3.009400	3.526800	-10.612000	25.630291	0.000810	20.925652
1360.363432	-2.982700	3.529100	-10.525000	25.611954	0.000809	20.921461
1361.363516	-3.012200	3.527100	-10.623000	25.618961	0.000809	20.909533
1362.366493	-2.990400	3.528800	-10.551000	25.604255	0.000806	20.913255
1363.364683	-3.014200	3.526800	-10.629000	25.607831	0.000806	20.931069
1364.364515	-2.996000	3.528100	-10.569000	25.619583	0.000806	20.907313
1365.366615	-3.000500	3.526300	-10.578000	25.627885	0.000808	20.917547
1366.367016	-2.986600	3.525700	-10.529000	25.641124	0.000805	20.926575
1367.368230	-3.005600	3.525900	-10.596000	25.642887	0.000804	20.932613
1368.367968	-2.986800	3.525200	-10.528000	25.630633	0.000805	20.916514
1369.366375	-2.978900	3.525100	-10.500000	25.648226	0.000805	20.901943
1370.372077	-3.019100	3.523100	-10.635000	25.665518	0.000806	20.927368
1371.369137	-3.004900	3.524000	-10.588000	25.639206	0.000803	20.931287
1372.371466	-2.981900	3.524300	-10.508000	25.614953	0.000802	20.905983
1373.371670	-2.980200	3.524800	-10.504000	25.588782	0.000800	20.913836
1374.371554	-3.009300	3.523200	-10.602000	25.579962	0.000802	20.900239
1375.371151	-3.015400	3.522000	-10.619000	25.604667	0.000802	20.917462
1376.375056	-2.998700	3.522800	-10.562000	25.613086	0.000803	20.894625
1377.372371	-2.980000	3.521800	-10.494000	25.623050	0.000801	20.904631
1378.371849	-3.018100	3.521300	-10.626000	25.601805	0.000801	20.894675
1379.372254	-2.988000	3.521800	-10.522000	25.583338	0.000799	20.901732
1380.372920	-3.007600	3.520000	-10.586000	25.541172	0.000799	20.904904
1381.377158	-3.020900	3.519000	-10.630000	25.519453	0.000796	20.894474
1382.374041	-3.000900	3.521300	-10.566000	25.477305	0.000800	20.902882
1383.379302	-3.013700	3.518400	-10.602000	25.471559	0.000798	20.881466
1384.374441	-2.996900	3.520800	-10.551000	25.497805	0.000799	20.897863
1385.373995	-3.015600	3.519400	-10.612000	25.500015	0.000794	20.903876
1386.380179	-2.992000	3.519200	-10.529000	25.506771	0.000796	20.910660
1387.375035	-3.001400	3.519000	-10.561000	25.511593	0.000796	20.913131
1388.375515	-3.004500	3.517500	-10.568000	25.523744	0.000796	20.894515
1389.375587	-3.015200	3.516200	-10.601000	25.537682	0.000794	20.863470
1390.375446	-3.008300	3.517800	-10.582000	25.558849	0.000794	20.903690
1391.374684	-3.014500	3.517300	-10.602000	25.535864	0.000791	20.892937
1392.376185	-2.992800	3.517600	-10.527000	25.540932	0.000792	20.893759
1393.376164	-3.024600	3.514500	-10.629000	25.558080	0.000792	20.893910
1394.375654	-3.016000	3.516300	-10.603000	25.576865	0.000791	20.892387
1395.377788	-3.007700	3.517000	-10.576000	25.609687	0.000790	20.875092
1396.376070	-3.001700	3.516000	-10.553000	25.590698	0.000791	20.886840
1397.379559	-2.993000	3.516400	-10.523000	25.642730	0.000789	20.875088
1398.378578	-2.989200	3.515800	-10.508000	25.631918	0.000790	20.875608
1399.379595	-2.978600	3.516100	-10.472000	25.645312	0.000789	20.880525
1400.377975	-2.987000	3.514400	-10.497000	25.639245	0.000788	20.875855
1401.378801	-3.011200	3.513100	-10.578000	25.655960	0.000790	20.893590
1402.381543	-2.954200	3.515000	-10.383000	25.672162	0.000787	20.890896
1403.381176	-2.974800	3.513300	-10.450000	25.637118	0.000786	20.894105
1404.377874	-2.991600	3.512900	-10.508000	25.582478	0.000786	20.888542
1405.379118	-2.988300	3.511500	-10.492000	25.524029	0.000783	20.881526
1406.382272	-2.987600	3.512500	-10.493000	25.525265	0.000786	20.893672
1407.379395	-2.999900	3.512200	-10.535000	25.521856	0.000783	20.865120
1408.383197	-2.980800	3.512700	-10.469000	25.510992	0.000783	20.887873
1409.381558	-2.990600	3.510400	-10.497000	25.532886	0.000783	20.853913
1410.383132	-2.975100	3.511700	-10.446000	25.554596	0.000783	20.863386
1411.380731	-2.989400	3.511600	-10.497000	25.511053	0.000782	20.881298
1412.382229	-2.970600	3.510900	-10.428000	25.475491	0.000782	20.884465
1413.385433	-2.986800	3.510700	-10.485000	25.451781	0.000782	20.874408
1414.384065	-3.014700	3.509000	-10.577000	25.448864	0.000781	20.873850
1415.385306	-2.993200	3.510000	-10.506000	25.475432	0.000780	20.845528
1416.383631	-3.001300	3.509100	-10.531000	25.480274	0.000778	20.871726
1417.382946	-3.000300	3.508200	-10.525000	25.490060	0.000779	20.863536
1418.383356	-2.988400	3.508000	-10.482000	25.476467	0.000779	20.872171
1419.386769	-2.997000	3.509100	-10.516000	25.459932	0.000778	20.855568
1420.384962	-2.992400	3.509100	-10.500000	25.469447	0.000780	20.882664
1421.383618	-2.990100	3.507200	-10.486000	25.450475	0.000779	20.870726
1422.384207	-2.972900	3.508200	-10.428000	25.465088	0.000775	20.858848
1423.383877	-2.999700	3.507000	-10.518000	25.444558	0.000776	20.854828
1424.387780	-3.017100	3.505900	-10.576000	25.398158	0.000776	20.853280
1425.383435	-3.010400	3.505400	-10.552000	25.398053	0.000775	20.865028
1426.383408	-2.998100	3.505400	-10.508000	25.382913	0.000775	20.854093
1427.384462	-3.008300	3.505500	-10.544000	25.363121	0.000775	20.847971
1428.384162	-3.008400	3.504300	-10.542000	25.370326	0.000774	20.872747
1429.389382	-2.993900	3.504000	-10.489000	25.398905	0.000774	20.855452
1430.384175	-2.988000	3.504500	-10.470000	25.430985	0.000773	20.863957
1431.383686	-3.021300	3.503100	-10.582000	25.450144	0.000774	20.856643
1432.384410	-3.027800	3.503400	-10.607000	25.476556	0.000772	20.850924
1433.386796	-2.992900	3.503500	-10.485000	25.513777	0.000772	20.846577
1434.384763	-3.005100	3.502800	-10.525000	25.530871	0.000771	20.842880
1435.389806	-2.990600	3.503000	-10.474000	25.556015	0.000773	20.855804
1436.387750	-3.000100	3.501400	-10.503000	25.545127	0.000772	20.850559
1437.388937	-3.023400	3.499300	-10.579000	25.613108	0.000768	20.855770
1438.384418	-2.996100	3.501500	-10.490000	25.595937	0.000769	20.847533
1439.387303	-3.012000	3.500800	-10.543000	25.557740	0.000769	20.857062
1440.387671	-3.005100	3.500100	-10.517000	25.553462	0.000767	20.842808
1441.386878	-2.979500	3.499800	-10.427000	25.583699	0.000768	20.860846
1442.388185	-2.982900	3.500000	-10.439000	25.593584	0.000770	20.861765
1443.390633	-2.998200	3.500000	-10.492000	25.598155	0.000767	20.839330
1444.386395	-2.991700	3.499500	-10.469000	25.608537	0.000767	20.842644
1445.388171	-3.000100	3.499100	-10.497000	25.649927	0.000768	20.844385
1446.389971	-2.984000	3.499500	-10.440000	25.668882	0.000766	20.837344
1447.388073	-2.999600	3.498100	-10.491000	25.645072	0.000766	20.850889
1448.388461	-2.989600	3.497900	-10.455000	25.639307	0.000765	20.827555
1449.393682	-3.013100	3.497000	-10.536000	25.656649	0.000765	20.847343
1450.390592	-2.991400	3.497700	-10.462000	25.669291	0.000764	20.831117
1451.392513	-2.975500	3.497200	-10.404000	25.653231	0.000763	20.842488
1452.389944	-2.999100	3.496400	-10.484000	25.655270	0.000763	20.845484
1453.391772	-3.007800	3.494700	-10.510000	25.687814	0.000764	20.840713
1454.392856	-3.010200	3.495800	-10.522000	25.682442	0.000762	20.818722
1455.390694	-3.004100	3.495700	-10.500000	25.707040	0.000763	20.821143
1456.393706	-2.996600	3.494600	-10.471000	25.687334	0.000763	20.823161
1457.392819	-2.984300	3.496500	-10.432000	25.703806	0.000762	20.830697
1458.392025	-2.986200	3.494300	-10.434000	25.732995	0.000762	20.836307
1459.393816	-3.010200	3.493400	-10.514000	25.692493	0.000760	20.834033
1460.391946	-2.991400	3.494900	-10.454000	25.718678	0.000761	20.842315
1461.394208	-2.975000	3.494800	-10.396000	25.707746	0.000761	20.826593
1462.395144	-2.993800	3.493700	-10.458000	25.683423	0.000757	20.826820
1463.393901	-2.993500	3.493200	-10.456000	25.678101	0.000758	20.823371
1464.394858	-2.980800	3.493300	-10.410000	25.707641	0.000758	20.811316
1465.394274	-2.987700	3.491900	-10.432000	25.679960	0.000757	20.816229
1466.395799	-2.990100	3.491200	-10.438000	25.674917	0.000756	20.824915
1467.402407	-2.996100	3.490700	-10.457000	25.683515	0.000754	20.812688
1468.395441	-3.013200	3.490700	-10.517000	25.697030	0.000758	20.826262
1469.396085	-2.982300	3.490200	-10.407000	25.716953	0.000754	20.838686
1470.395260	-2.990400	3.489700	-10.434000	25.706371	0.000753	20.838489
1471.394484	-3.009200	3.488100	-10.495000	25.737849	0.000754	20.814156
1472.394466	-2.996200	3.488700	-10.452000	25.738668	0.000754	20.805022
1473.399009	-3.006600	3.489000	-10.487000	25.723361	0.000752	20.828053
1474.394965	-2.990400	3.488100	-10.430000	25.694168	0.000753	20.818172
1475.396356	-3.006100	3.488000	-10.484000	25.670635	0.000752	20.827252
1476.395637	-2.997800	3.486200	-10.449000	25.649763	0.000751	20.818142
1477.395924	-3.005800	3.487300	-10.482000	25.658436	0.000752	20.811681
1478.401199	-3.017900	3.487100	-10.523000	25.660521	0.000751	20.818516
1479.398962	-3.017300	3.485800	-10.517000	25.677537	0.000752	20.835132
1480.401521	-2.988300	3.486100	-10.417000	25.708593	0.000748	20.810850
1481.399607	-3.041200	3.484800	-10.596000	25.738776	0.000750	20.807501
1482.401517	-2.984400	3.486000	-10.402000	25.711422	0.000748	20.807527
1483.402844	-2.975900	3.485800	-10.373000	25.686251	0.000748	20.825393
1484.402310	-2.992700	3.485200	-10.429000	25.672009	0.000748	20.821520
1485.401794	-3.005200	3.484700	-10.472000	25.663813	0.000749	20.817081
1486.402632	-3.004500	3.482700	-10.463000	25.676058	0.000747	20.824638
1487.401976	-3.004400	3.484100	-10.466000	25.639209	0.000747	20.814181
1488.401589	-2.995300	3.483600	-10.433000	25.613640	0.000747	20.801304
1489.402605	-3.023300	3.481900	-10.525000	25.643107	0.000746	20.808139
1490.402378	-3.003200	3.482500	-10.458000	25.654036	0.000745	20.808210
1491.409281	-2.993200	3.481800	-10.421000	25.662413	0.000745	20.808563
1492.403007	-3.017000	3.482000	-10.504000	25.646729	0.000744	20.782854
1493.403449	-3.017200	3.480600	-10.500000	25.656322	0.000746	20.818092
1494.405083	-2.998600	3.481600	-10.437000	25.630578	0.000744	20.805038
1495.403036	-2.995100	3.482100	-10.428000	25.652537	0.000743	20.803385
1496.404867	-3.010500	3.479600	-10.474000	25.636143	0.000744	20.827222
1497.403870	-2.997100	3.480900	-10.430000	25.637931	0.000742	20.799147
1498.404047	-2.997300	3.481300	-10.433000	25.646153	0.000743	20.792232
1499.403737	-3.010700	3.479500	-10.474000	25.642673	0.000744	20.807228
1500.407932	-3.009200	3.478600	-10.467000	25.641708	0.000743	20.811475
1501.403502	-2.997100	3.478300	-10.423000	25.636736	0.000740	20.809801
1502.403769	-3.000200	3.478100	-10.434000	25.626245	0.000742	20.807799
1503.402756	-3.012700	3.477600	-10.477000	25.630841	0.000741	20.804828
1504.404381	-2.991000	3.478400	-10.403000	25.660261	0.000739	20.790281
1505.407804	-2.985800	3.477600	-10.381000	25.688883	0.000739	20.796268
1506.404480	-3.015500	3.476500	-10.482000	25.705209	0.000739	20.789433
1507.408472	-3.029000	3.475700	-10.527000	25.736687	0.000740	20.801610
1508.403566	-3.003500	3.474700	-10.435000	25.715891	0.000738	20.793050
1509.404366	-2.995200	3.477400	-10.414000	25.701483	0.000736	20.774784
1510.404534	-3.018800	3.474100	-10.486000	25.668884	0.000738	20.779027
1511.403510	-2.987900	3.476100	-10.384000	25.668959	0.000738	20.799491
1512.404650	-2.980600	3.476100	-10.360000	25.674223	0.000735	20.817106
1513.404100	-2.995600	3.474800	-10.407000	25.668458	0.000737	20.791875
1514.404734	-3.013800	3.472400	-10.464000	25.623764	0.000736	20.790608
1515.405333	-2.969700	3.474900	-10.318000	25.578887	0.000735	20.805281
1516.406249	-3.015900	3.472700	-10.472000	25.611409	0.000733	20.782942
1517.407392	-2.999000	3.472200	-10.412000	25.625552	0.000734	20.798094
1518.405894	-3.003900	3.472300	-10.430000	25.620826	0.000733	20.777227
1519.406103	-2.994700	3.473500	-10.402000	25.650544	0.000733	20.791426
1520.405904	-2.991600	3.471800	-10.385000	25.647239	0.000733	20.787633
1521.409315	-2.972200	3.472500	-10.319000	25.695864	0.000733	20.780046
1522.406433	-3.001800	3.471500	-10.419000	25.722124	0.000732	20.783189
1523.408767	-2.997000	3.470900	-10.402000	25.728261	0.000732	20.803578
1524.410084	-2.997400	3.470200	-10.400000	25.724856	0.000733	20.803951
1525.406806	-3.003100	3.470100	-10.420000	25.717207	0.000731	20.796268
1526.411005	-3.034000	3.470300	-10.528000	25.730993	0.000732	20.795417
1527.411289	-3.009500	3.469200	-10.440000	25.721506	0.000731	20.789206
1528.408517	-2.965900	3.471800	-10.295000	25.687859	0.000730	20.768687
1529.409673	-2.992500	3.469400	-10.380000	25.656230	0.000729	20.780541
1530.410090	-2.977100	3.468900	-10.327000	25.661623	0.000728	20.778372
1531.408809	-3.015800	3.467300	-10.455000	25.650393	0.000730	20.796965
1532.412249	-2.994700	3.468900	-10.388000	25.648526	0.000728	20.798882
1533.409793	-3.020300	3.467000	-10.470000	25.618437	0.000728	20.773404
1534.412406	-2.981000	3.468000	-10.337000	25.571977	0.000729	20.786487
1535.411788	-3.022900	3.466000	-10.475000	25.580224	0.000727	20.785761
1536.411126	-2.993200	3.466500	-10.375000	25.566884	0.000726	20.776631
1537.414622	-3.023600	3.464800	-10.474000	25.584052	0.000726	20.784863
1538.409771	-3.012300	3.465400	-10.438000	25.622736	0.000724	20.780567
1539.414556	-3.019100	3.464900	-10.460000	25.627887	0.000725	20.780525
1540.411991	-3.003800	3.464900	-10.407000	25.612880	0.000724	20.767349
1541.411743	-3.003200	3.463400	-10.400000	25.613101	0.000725	20.781322
1542.413589	-2.987300	3.464800	-10.349000	25.641056	0.000724	20.770517
1543.415519	-3.018400	3.462500	-10.450000	25.672193	0.000722	20.791359
1544.414115	-3.022000	3.463000	-10.464000	25.697113	0.000722	20.789362
1545.413870	-2.996400	3.463600	-10.377000	25.723724	0.000722	20.765356
1546.413355	-3.003700	3.462700	-10.400000	25.721514	0.000720	20.776413
1547.414233	-2.996900	3.461900	-10.374000	25.731820	0.000719	20.789135
1548.415657	-3.004100	3.461000	-10.395000	25.697364	0.000719	20.763535
1549.413180	-2.997300	3.461300	-10.374000	25.681359	0.000718	20.756942
1550.414649	-2.993800	3.462100	-10.362000	25.678326	0.000719	20.781872
1551.414256	-3.014000	3.461000	-10.431000	25.680043	0.000717	20.780751
1552.412870	-3.002300	3.461000	-10.390000	25.692142	0.000716	20.784368
1553.417297	-2.977600	3.461200	-10.305000	25.664635	0.000714	20.765276
1554.416248	-3.017600	3.460000	-10.440000	25.668508	0.000714	20.763476
1555.413634	-3.003500	3.459500	-10.388000	25.664978	0.000714	20.751395
1556.414439	-3.009400	3.458700	-10.408000	25.657575	0.000714	20.776677
1557.416674	-2.992200	3.457500	-10.344000	25.619999	0.000716	20.748894
1558.414386	-3.007600	3.457300	-10.397000	25.585263	0.000715	20.771855
1559.415407	-2.971500	3.459300	-10.278000	25.582456	0.000715	20.770458
1560.413995	-2.983300	3.458200	-10.316000	25.576736	0.000715	20.768981
1561.413654	-2.990300	3.457200	-10.337000	25.577855	0.000713	20.774373
1562.415129	-3.008800	3.457400	-10.402000	25.590051	0.000711	20.763388
1563.415285	-3.007000	3.456400	-10.393000	25.567264	0.000712	20.775590
1564.420618	-3.007500	3.456800	-10.395000	25.594175	0.000713	20.777013
1565.416762	-3.009300	3.455700	-10.398000	25.599364	0.000712	20.790759
1566.417471	-2.981600	3.455500	-10.302000	25.595462	0.000712	20.785891
1567.417493	-3.026600	3.454100	-10.454000	25.605452	0.000712	20.757991
1568.419071	-3.011700	3.454700	-10.403000	25.612533	0.000711	20.748508
1569.418823	-3.006800	3.453300	-10.382000	25.623091	0.000709	20.758163
1570.421606	-3.014900	3.454300	-10.413000	25.578160	0.000711	20.755239
1571.418123	-3.005600	3.453400	-10.378000	25.553635	0.000710	20.748151
1572.420146	-3.012500	3.453800	-10.403000	25.514668	0.000708	20.747425
1573.424927	-3.005200	3.452000	-10.374000	25.554253	0.000708	20.763946
1574.421651	-3.014300	3.453200	-10.407000	25.549678	0.000708	20.756980
1575.421667	-3.007600	3.452300	-10.383000	25.588217	0.000706	20.749691
1576.420727	-3.011100	3.450500	-10.388000	25.576339	0.000708	20.752935
1577.422282	-3.014600	3.450000	-10.399000	25.578720	0.000708	20.742998
1578.420558	-3.022700	3.450000	-10.427000	25.577179	0.000705	20.745243
1579.421074	-2.999100	3.451000	-10.349000	25.619862	0.000706	20.759187
1580.422769	-2.999600	3.449100	-10.345000	25.619419	0.000706	20.738827
1581.423710	-3.003000	3.449000	-10.356000	25.643960	0.000706	20.754467
1582.420809	-2.984800	3.450800	-10.299000	25.672260	0.000705	20.741639
1583.421799	-2.996400	3.449200	-10.333000	25.684731	0.000704	20.742310
1584.421421	-2.986200	3.448300	-10.296000	25.718941	0.000707	20.753913
1585.421945	-2.998900	3.447700	-10.338000	25.692723	0.000705	20.758399
1586.424199	-2.994900	3.448200	-10.326000	25.704052	0.000705	20.733742
1587.428151	-2.998200	3.447000	-10.333000	25.684250	0.000705	20.731870
1588.427402	-3.012600	3.446000	-10.381000	25.665810	0.000703	20.728996
1589.426129	-3.004000	3.445200	-10.349000	25.683277	0.000701	20.750808
1590.425983	-3.014600	3.445700	-10.386000	25.641432	0.000702	20.747187
1591.429390	-2.997100	3.446000	-10.326000	25.663592	0.000701	20.748106
1592.425661	-3.003400	3.444700	-10.344000	25.677955	0.000701	20.731237
1593.426040	-3.019000	3.444300	-10.398000	25.670798	0.000701	20.751551
1594.429443	-2.981600	3.445100	-10.270000	25.696265	0.000703	20.738723
1595.426972	-3.020900	3.444300	-10.404000	25.692936	0.000699	20.729214
1596.427413	-3.017200	3.443800	-10.389000	25.679492	0.000699	20.729936
1597.427774	-3.021100	3.443400	-10.401000	25.716414	0.000700	20.742365
1598.429037	-3.001000	3.442800	-10.331000	25.715248	0.000699	20.744988
1599.427101	-3.015700	3.442800	-10.381000	25.704215	0.000699	20.738647
1600.427381	-2.998700	3.443300	-10.325000	25.700882	0.000698	20.745731
1601.427337	-2.995200	3.442600	-10.310000	25.697999	0.000697	20.744258
1602.429997	-3.004700	3.441600	-10.340000	25.705699	0.000696	20.762423
1603.428432	-3.015500	3.442300	-10.380000	25.698242	0.000698	20.725534
1604.429051	-3.030100	3.439600	-10.421000	25.682839	0.000697	20.713382
1605.430728	-2.994400	3.441200	-10.303000	25.703760	0.000694	20.729181
1606.430187	-2.980000	3.441200	-10.253000	25.728675	0.000695	20.742827
1607.430562	-3.001500	3.440100	-10.323000	25.730016	0.000696	20.733742
1608.431667	-2.977800	3.442100	-10.248000	25.732920	0.000695	20.739504
1609.430314	-2.990600	3.440500	-10.289000	25.750461	0.000693	20.738157
1610.430875	-2.984800	3.440100	-10.267000	25.779999	0.000692	20.739852
1611.429643	-2.973000	3.440300	-10.226000	25.807331	0.000692	20.739332
1612.429410	-2.985700	3.438900	-10.266000	25.791679	0.000692	20.743049
1613.436356	-3.001400	3.438600	-10.319000	25.815552	0.000692	20.742374
1614.431493	-3.021400	3.437200	-10.384000	25.769142	0.000692	20.737481
1615.437468	-3.004800	3.437700	-10.328000	25.799010	0.000692	20.744250
1616.432498	-2.993300	3.437300	-10.286000	25.755879	0.000692	20.740280
1617.433578	-3.002100	3.436400	-10.315000	25.751455	0.000692	20.742000
1618.435373	-2.998600	3.436900	-10.305000	25.703974	0.000689	20.748362
1619.434061	-2.994100	3.436500	-10.288000	25.668150	0.000690	20.751736
1620.434214	-3.000900	3.436500	-10.312000	25.647699	0.000689	20.749688
1621.434068	-3.010300	3.434500	-10.338000	25.656694	0.000689	20.734065
1622.436258	-2.997600	3.434100	-10.293000	25.698146	0.000688	20.749621
1623.436699	-2.992200	3.433700	-10.273000	25.689794	0.000688	20.761148
1624.438006	-2.995100	3.435300	-10.288000	25.711932	0.000684	20.768684
1625.435396	-3.008100	3.434700	-10.331000	25.736458	0.000686	20.756335
1626.434828	-3.015000	3.434100	-10.353000	25.736262	0.000688	20.756137
1627.435226	-3.017500	3.432200	-10.356000	25.744036	0.000685	20.732177
1628.436046	-3.004700	3.432200	-10.312000	25.710127	0.000685	20.742688
1629.438026	-2.977600	3.434400	-10.224000	25.684184	0.000685	20.746503
1630.435596	-3.006300	3.432000	-10.317000	25.740239	0.000683	20.748752
1631.437905	-3.023800	3.431900	-10.376000	25.721331	0.000682	20.752994
1632.437286	-3.031700	3.429500	-10.396000	25.718595	0.000683	20.752617
1633.438573	-3.006000	3.430800	-10.313000	25.709951	0.000682	20.749151
1634.439616	-2.979700	3.431700	-10.224000	25.701947	0.000681	20.768138
1635.442650	-2.974100	3.432000	-10.205000	25.713110	0.000683	20.759435
1636.439601	-2.988100	3.431500	-10.253000	25.663487	0.000682	20.757958
1637.440589	-2.975800	3.429900	-10.206000	25.649303	0.000682	20.760308
1638.439734	-2.991000	3.430300	-10.259000	25.628280	0.000680	20.769066
1639.442244	-3.004300	3.428200	-10.298000	25.633252	0.000682	20.787810
1640.447155	-2.979500	3.429400	-10.217000	25.628055	0.000679	20.751295
1641.443494	-2.985100	3.428000	-10.233000	25.681226	0.000679	20.748748
1642.447853	-2.993700	3.426700	-10.257000	25.737181	0.000678	20.761802
1643.443408	-2.988800	3.429200	-10.249000	25.718394	0.000677	20.762373
1644.444101	-2.996100	3.428100	-10.270000	25.709179	0.000678	20.742684
1645.445039	-2.993100	3.426800	-10.256000	25.689673	0.000677	20.749172
1646.444488	-2.981500	3.426100	-10.215000	25.695585	0.000678	20.744677
1647.447440	-2.993300	3.426300	-10.254000	25.701070	0.000677	20.753032
1648.443315	-2.998600	3.425900	-10.272000	25.708406	0.000676	20.762772
1649.444193	-3.003500	3.425800	-10.288000	25.722935	0.000676	20.762667
1650.443617	-2.999400	3.424500	-10.270000	25.754120	0.000676	20.776447
1651.444431	-2.997500	3.425100	-10.265000	25.780505	0.000677	20.743679
1652.442875	-2.979900	3.425200	-10.206000	25.757199	0.000673	20.749193
1653.443566	-3.012900	3.424100	-10.316000	25.775859	0.000674	20.775524
1654.445471	-3.008700	3.423400	-10.299000	25.746346	0.000675	20.755361
1655.444769	-3.013400	3.423100	-10.313000	25.733797	0.000674	20.768361
1656.448584	-3.004000	3.424100	-10.285000	25.749847	0.000674	20.765990
1657.448466	-3.011200	3.422000	-10.304000	25.798070	0.000674	20.781239
1658.445447	-3.003800	3.421700	-10.277000	25.830443	0.000673	20.789576
1659.446301	-2.983500	3.422900	-10.211000	25.840627	0.000673	20.781788
1660.446300	-3.018000	3.422800	-10.329000	25.855163	0.000673	20.771734
1661.445269	-3.019600	3.421600	-10.330000	25.861525	0.000671	20.762952
1662.448511	-3.003800	3.422100	-10.278000	25.849821	0.000672	20.761152
1663.446233	-2.998700	3.421100	-10.258000	25.853973	0.000670	20.781444
1664.446203	-3.011200	3.420100	-10.297000	25.841178	0.000670	20.769540
1665.448014	-3.007900	3.419500	-10.285000	25.814720	0.000670	20.764299
1666.446640	-3.006200	3.418800	-10.277000	25.783395	0.000671	20.767920
1667.451478	-2.990200	3.419100	-10.222000	25.746948	0.000668	20.765449
1668.447168	-3.005700	3.420100	-10.279000	25.739173	0.000668	20.793676
1669.452982	-3.001800	3.418000	-10.259000	25.720391	0.000667	20.771017
1670.446746	-3.013700	3.417800	-10.299000	25.689882	0.000668	20.774512
1671.448447	-2.998400	3.417800	-10.246000	25.660838	0.000667	20.776635
1672.451113	-3.015900	3.416000	-10.301000	25.646646	0.000667	20.778029
1673.447307	-2.963800	3.417400	-10.127000	25.637384	0.000666	20.791485
1674.447019	-2.981900	3.418100	-10.191000	25.670180	0.000666	20.774638
1675.447702	-2.990300	3.416300	-10.213000	25.669988	0.000666	20.782506
1676.447770	-2.999300	3.416600	-10.246000	25.667151	0.000666	20.774441
1677.446649	-3.001500	3.415600	-10.251000	25.677340	0.000662	20.782304
1678.449790	-3.015200	3.414700	-10.295000	25.708029	0.000664	20.781360
1679.448894	-3.006000	3.414900	-10.264000	25.718365	0.000662	20.779413
1680.447349	-3.002200	3.414600	-10.251000	25.737055	0.000661	20.773056
1681.448726	-3.029400	3.413200	-10.339000	25.709897	0.000663	20.780391
1682.449502	-3.006000	3.413700	-10.261000	25.672356	0.000660	20.784411
1683.451288	-2.982100	3.415600	-10.185000	25.635311	0.000661	20.790826
1684.448703	-2.993400	3.413700	-10.217000	25.625376	0.000661	20.789383
1685.451495	-2.993700	3.413300	-10.217000	25.590461	0.000663	20.803154
1686.451697	-3.001700	3.412500	-10.243000	25.588326	0.000658	20.770664
1687.450912	-3.002300	3.412100	-10.243000	25.578984	0.000660	20.774084
1688.458240	-3.008500	3.410900	-10.261000	25.627265	0.000659	20.781322
1689.453808	-2.998000	3.411300	-10.225000	25.679270	0.000658	20.783768
1690.450050	-2.991300	3.411600	-10.204000	25.714801	0.000658	20.769195
1691.449728	-2.997200	3.411700	-10.225000	25.731027	0.000660	20.799718
1692.451541	-2.997700	3.411300	-10.225000	25.766681	0.000657	20.794280
1693.452606	-2.991200	3.409900	-10.198000	25.777584	0.000658	20.798119
1694.455417	-2.993400	3.409500	-10.205000	25.825134	0.000657	20.805580
1695.451065	-2.983600	3.408600	-10.168000	25.814749	0.000655	20.781398
1696.454025	-3.003000	3.408700	-10.234000	25.810259	0.000655	20.781628
1697.452296	-2.992500	3.408100	-10.197000	25.798579	0.000654	20.810673
1698.453297	-2.996300	3.408700	-10.212000	25.783428	0.000654	20.794506
1699.478344	-3.014300	3.408000	-10.271000	25.781515	0.000655	20.817240
1700.463382	-3.016600	3.407100	-10.276000	25.786532	0.000654	20.799046
1701.457612	-3.000200	3.408100	-10.224000	25.796374	0.000654	20.792337
1702.463246	-2.997600	3.407300	-10.213000	25.796800	0.000653	20.820265
1703.455077	-2.986000	3.407400	-10.173000	25.813939	0.000653	20.793386
1704.458057	-3.010400	3.407500	-10.257000	25.840447	0.000653	20.811479
1705.458640	-3.006900	3.404600	-10.236000	25.861265	0.000652	20.810581
1706.457762	-2.995000	3.406100	-10.200000	25.840547	0.000650	20.816795
1707.459405	-3.001300	3.406100	-10.222000	25.820597	0.000652	20.792962
1708.460738	-3.028800	3.404900	-10.312000	25.832924	0.000649	20.817672
1709.459322	-2.982100	3.405100	-10.154000	25.850067	0.000652	20.795064
1710.461814	-3.009300	3.404200	-10.243000	25.835409	0.000647	20.821117
1711.462714	-3.016100	3.403600	-10.265000	25.850363	0.000650	20.791095
1712.462508	-3.016500	3.403100	-10.263000	25.843337	0.000648	20.822443
1713.461018	-2.993500	3.403800	-10.189000	25.848083	0.000648	20.799709
1714.460114	-2.980000	3.403200	-10.140000	25.798245	0.000646	20.818872
1715.460688	-2.998900	3.403000	-10.204000	25.794594	0.000646	20.823265
1716.465487	-3.016100	3.400400	-10.255000	25.746446	0.000646	20.799558
1717.463026	-2.994600	3.401200	-10.184000	25.702251	0.000647	20.835774
1718.461011	-3.007400	3.400700	-10.226000	25.690872	0.000646	20.820077
1719.460060	-3.017500	3.400200	-10.260000	25.675640	0.000645	20.790553
1720.461847	-2.975700	3.401000	-10.118000	25.684438	0.000645	20.799864
1721.466164	-2.980400	3.400800	-10.135000	25.714697	0.000646	20.811290
1722.463203	-2.993800	3.400600	-10.180000	25.714575	0.000645	20.815436
1723.467548	-2.986700	3.399900	-10.153000	25.687492	0.000644	20.813363
1724.462654	-2.972600	3.400400	-10.106000	25.683715	0.000643	20.822846
1725.464868	-3.015000	3.398300	-10.244000	25.690872	0.000643	20.814861
1726.464543	-2.991600	3.398600	-10.166000	25.746304	0.000643	20.824071
1727.462700	-3.007800	3.398200	-10.220000	25.729184	0.000642	20.805928
1728.462876	-2.990600	3.399000	-10.164000	25.722379	0.000640	20.836076
1729.463587	-2.987200	3.397400	-10.148000	25.703421	0.000640	20.827940
1730.465499	-2.993300	3.397800	-10.168000	25.699670	0.000641	20.814689
1731.463230	-3.024800	3.395600	-10.270000	25.696211	0.000639	20.840611
1732.463768	-2.980300	3.397600	-10.124000	25.731294	0.000638	20.822271
1733.466789	-3.002100	3.395300	-10.192000	25.740957	0.000639	20.840985
1734.462767	-2.989500	3.396500	-10.153000	25.761677	0.000638	20.838090
1735.465634	-2.979600	3.396900	-10.120000	25.765750	0.000638	20.835543
1736.463735	-2.993600	3.395200	-10.163000	25.781924	0.000637	20.824289
1737.466821	-3.029400	3.395000	-10.284000	25.828129	0.000637	20.819967
1738.464422	-2.990400	3.394000	-10.149000	25.862468	0.000636	20.844505
1739.464460	-3.044500	3.393700	-10.331000	25.877693	0.000634	20.821394
1740.467785	-3.021900	3.392100	-10.250000	25.930355	0.000637	20.829253
1741.464674	-3.009700	3.392400	-10.209000	25.889493	0.000634	20.812859
1742.465732	-3.019100	3.391500	-10.237000	25.862836	0.000635	20.831124
1743.469225	-3.006900	3.392200	-10.199000	25.819816	0.000633	20.843859
1744.466222	-2.983100	3.393900	-10.122000	25.778348	0.000633	20.830180
1745.465210	-3.023400	3.391000	-10.251000	25.753827	0.000634	20.823568
1746.467171	-2.969300	3.393100	-10.074000	25.750920	0.000630	20.839613
1747.467059	-2.994600	3.392400	-10.157000	25.746621	0.000630	20.834821
1748.469317	-2.997600	3.392400	-10.168000	25.753727	0.000631	20.829157
1749.467532	-3.007100	3.389800	-10.192000	25.804235	0.000633	20.843855
1750.469301	-2.989400	3.389500	-10.131000	25.839269	0.000631	20.824994
1751.468000	-2.983600	3.391300	-10.118000	25.875588	0.000628	20.829236
1752.468317	-2.999100	3.389300	-10.164000	25.924892	0.000630	20.828506
1753.469058	-2.988200	3.388700	-10.125000	25.867017	0.000629	20.817781
1754.468407	-2.990400	3.388800	-10.132000	25.842226	0.000631	20.856413
1755.472059	-2.997700	3.388700	-10.157000	25.866821	0.000629	20.842239
1756.468939	-2.990500	3.388600	-10.132000	25.858304	0.000628	20.856916
1757.468431	-2.996100	3.388000	-10.150000	25.814277	0.000628	20.837821
1758.469447	-2.989600	3.387200	-10.125000	25.798429	0.000627	20.852721
1759.472253	-2.994700	3.388900	-10.148000	25.766827	0.000628	20.836151
1760.468938	-2.992800	3.389000	-10.139000	25.786106	0.000629	20.870213
1761.468198	-2.970100	3.386900	-10.058000	25.818475	0.000628	20.862426
1762.470139	-3.021900	3.385300	-10.229000	25.817209	0.000625	20.860206
1763.469402	-3.010200	3.385500	-10.190000	25.863492	0.000626	20.847430
1764.473905	-3.016900	3.386200	-10.215000	25.895140	0.000626	20.846032
1765.470411	-3.005800	3.384500	-10.172000	25.896531	0.000624	20.867343
1766.472244	-3.026800	3.386100	-10.248000	25.879711	0.000622	20.829110
1767.473957	-3.014900	3.385100	-10.205000	25.852757	0.000623	20.859405
1768.477220	-2.981100	3.384900	-10.089000	25.854524	0.000624	20.845059
1769.472208	-3.024300	3.383400	-10.232000	25.864883	0.000623	20.838870
1770.472400	-2.964000	3.385900	-10.035000	25.881252	0.000625	20.867167
1771.473173	-2.965900	3.384800	-10.038000	25.892555	0.000622	20.854340
1772.480671	-3.012200	3.383800	-10.192000	25.909822	0.000623	20.847979
1773.474478	-3.012100	3.383900	-10.192000	25.934465	0.000620	20.880321
1774.478731	-3.014200	3.383900	-10.199000	25.943436	0.000620	20.865627
1775.484567	-2.997700	3.383000	-10.140000	25.954835	0.000618	20.859061
1776.476795	-3.013600	3.382900	-10.193000	25.952224	0.000620	20.859757
1777.482251	-3.008400	3.383700	-10.178000	25.917720	0.000620	20.846905
1778.475710	-3.021300	3.381500	-10.215000	25.897847	0.000621	20.859182
1779.479968	-2.980600	3.381000	-10.077000	25.872907	0.000616	20.870163
1780.480781	-2.980800	3.382300	-10.081000	25.841282	0.000617	20.881067
1781.476595	-2.970900	3.382200	-10.047000	25.805380	0.000617	20.867763
1782.477095	-2.984800	3.382300	-10.094000	25.776586	0.000616	20.867763
1783.482357	-3.006200	3.380700	-10.161000	25.776611	0.000615	20.854512
1784.479093	-2.982700	3.381000	-10.084000	25.789402	0.000613	20.855033
1785.479169	-2.982300	3.380400	-10.081000	25.799686	0.000616	20.876742
1786.478952	-3.001400	3.380900	-10.146000	25.783086	0.000613	20.865283
1787.477182	-3.013100	3.378300	-10.178000	25.820200	0.000614	20.864633
1788.477793	-3.004800	3.378100	-10.150000	25.857932	0.000611	20.883568
1789.481690	-2.986300	3.379100	-10.090000	25.889360	0.000614	20.883371
1790.478064	-2.986800	3.378500	-10.091000	25.881954	0.000612	20.873087
1791.478404	-3.001400	3.376800	-10.133000	25.862076	0.000611	20.878722
1792.481134	-2.989800	3.377500	-10.097000	25.855271	0.000611	20.879473
1793.480203	-2.993900	3.376700	-10.108000	25.884957	0.000611	20.881319
1794.480141	-2.991400	3.376500	-10.098000	25.874519	0.000611	20.870360
1795.478128	-3.014500	3.375300	-10.172000	25.869799	0.000609	20.895014
1796.481382	-3.006600	3.375100	-10.147000	25.891561	0.000610	20.876100
1797.480207	-2.992700	3.376300	-10.104000	25.889748	0.000610	20.880442
1798.479416	-3.007900	3.373700	-10.145000	25.904852	0.000608	20.875227
1799.483819	-3.005600	3.373600	-10.139000	25.932368	0.000608	20.880585
1800.479245	-2.977500	3.375500	-10.050000	25.974076	0.000608	20.865115
1801.481215	-3.002500	3.374400	-10.130000	25.995389	0.000609	20.880837
1802.479464	-3.020000	3.374300	-10.189000	26.021868	0.000607	20.868086
1803.491148	-2.963900	3.375600	-10.004000	26.062578	0.000608	20.888125
1804.482162	-3.024200	3.372700	-10.198000	26.065828	0.000607	20.882855
1805.480504	-2.998600	3.372200	-10.111000	26.064191	0.000605	20.849918
1806.491766	-2.998500	3.372800	-10.113000	26.044170	0.000603	20.882431
1807.485060	-3.012300	3.372100	-10.156000	26.067540	0.000607	20.904488
1808.490544	-2.997800	3.371400	-10.105000	26.069824	0.000604	20.900620
1809.482962	-3.015800	3.371200	-10.166000	26.088901	0.000604	20.907933
1810.482242	-2.981900	3.372000	-10.054000	26.094167	0.000604	20.880036
1811.487868	-2.998800	3.371300	-10.109000	26.086516	0.000605	20.896529
1812.485030	-3.018700	3.370100	-10.173000	26.064316	0.000604	20.902671
1813.487325	-3.013100	3.371200	-10.156000	26.053261	0.000603	20.886350
1814.487599	-2.995700	3.370300	-10.095000	26.035821	0.000603	20.885897
1815.488971	-2.979100	3.371800	-10.043000	25.993698	0.000601	20.904266
1816.485490	-3.014900	3.369100	-10.156000	25.962603	0.000603	20.900527
1817.487667	-2.980200	3.369800	-10.041000	25.933291	0.000601	20.888150
1818.483343	-2.996700	3.368600	-10.094000	25.921688	0.000600	20.910156
1819.483259	-2.988900	3.368900	-10.069000	25.937761	0.000599	20.913974
1820.486795	-2.977700	3.369900	-10.034000	25.926554	0.000597	20.912674
1821.484438	-3.006200	3.368900	-10.127000	25.918652	0.000598	20.903788
1822.496462	-3.016100	3.368200	-10.158000	25.924215	0.000597	20.903687
1823.490819	-3.005800	3.367700	-10.122000	25.896093	0.000599	20.900091
1824.485929	-3.025500	3.365600	-10.181000	25.876766	0.000598	20.914340
1825.490626	-3.003900	3.366300	-10.111000	25.908857	0.000596	20.905802
1826.486466	-3.003000	3.366000	-10.107000	25.883742	0.000596	20.937466
1827.485806	-3.013500	3.365600	-10.141000	25.874398	0.000597	20.898212
1828.490177	-2.991000	3.366700	-10.069000	25.875292	0.000595	20.886783
1829.497212	-3.000600	3.365200	-10.096000	25.858989	0.000593	20.905965
1830.488445	-3.016900	3.365500	-10.152000	25.846834	0.000593	20.901342
1831.492089	-3.016400	3.364800	-10.148000	25.857440	0.000592	20.909150
1832.489225	-3.001700	3.365400	-10.101000	25.855001	0.000592	20.894847
1833.490075	-3.000500	3.364600	-10.094000	25.876165	0.000594	20.907573
1834.487972	-3.020600	3.363900	-10.159000	25.896232	0.000593	20.915402
1835.489541	-2.985800	3.363800	-10.043000	25.897046	0.000590	20.903419
1836.487771	-2.992800	3.364400	-10.068000	25.920566	0.000591	20.900021
1837.491705	-2.967400	3.363800	-9.980400	25.938451	0.000589	20.921779
1838.496276	-3.003400	3.364000	-10.102000	25.973840	0.000591	20.924616
1839.490842	-2.995500	3.363900	-10.074000	26.001981	0.000588	20.907372
1840.487676	-2.983800	3.362500	-10.031000	25.988688	0.000588	20.902077
1841.495238	-2.971500	3.363300	-9.993400	26.034436	0.000588	20.903470
1842.488802	-2.986000	3.361300	-10.037000	26.054103	0.000588	20.923228
1843.489509	-2.997200	3.362100	-10.076000	26.035919	0.000589	20.909701
1844.493946	-2.997900	3.361100	-10.075000	26.017088	0.000589	20.914014
1845.493967	-2.996800	3.360600	-10.070000	26.023917	0.000587	20.918030
1846.497805	-2.998700	3.360000	-10.074000	26.016587	0.000587	20.922519
1847.500615	-2.994500	3.361900	-10.066000	26.058906	0.000587	20.915252
1848.496534	-2.987800	3.359800	-10.037000	26.082773	0.000586	20.923585
1849.502431	-3.002200	3.358900	-10.083000	26.090670	0.000586	20.913977
1850.499261	-3.001600	3.359300	-10.082000	26.130981	0.000586	20.917497
1851.493533	-2.981900	3.360500	-10.020000	26.118754	0.000582	20.894782
1852.491445	-3.011300	3.357000	-10.108000	26.142971	0.000585	20.898726
1853.504635	-2.983200	3.359700	-10.022000	26.169216	0.000583	20.912295
1854.492322	-2.997900	3.358700	-10.068000	26.171450	0.000582	20.901265
1855.498201	-3.027000	3.358100	-10.163000	26.201649	0.000582	20.895101
1856.491761	-2.987500	3.357900	-10.030000	26.200706	0.000581	20.912169
1857.496815	-2.984800	3.357100	-10.019000	26.212874	0.000580	20.889311
1858.492881	-2.998300	3.356300	-10.062000	26.220423	0.000580	20.877932
1859.497805	-2.991900	3.356900	-10.042000	26.180959	0.000580	20.876208
1860.494466	-2.981700	3.356400	-10.007000	26.171718	0.000581	20.900585
1861.495124	-3.012100	3.354500	-10.103000	26.176265	0.000580	20.895198
1862.497590	-2.979400	3.356300	-9.998100	26.184805	0.000580	20.886236
1863.494456	-2.983800	3.355400	-10.011000	26.197277	0.000577	20.904932
1864.497263	-3.004000	3.354100	-10.075000	26.214532	0.000578	20.897615
1865.495545	-2.995900	3.354500	-10.049000	26.213488	0.000577	20.878550
1866.495705	-3.004800	3.352900	-10.074000	26.254538	0.000578	20.896092
1867.504405	-2.998200	3.353600	-10.053000	26.240725	0.000577	20.854239
1868.496883	-3.010800	3.352600	-10.091000	26.236153	0.000574	20.876670
1869.496684	-3.001800	3.353100	-10.065000	26.267645	0.000575	20.895513
1870.499275	-3.011600	3.352600	-10.096000	26.260638	0.000575	20.894162
1871.497699	-2.985400	3.354200	-10.013000	26.274647	0.000575	20.858930
1872.498791	-2.976900	3.352200	-9.978100	26.266793	0.000575	20.878538
1873.502410	-2.990700	3.352800	-10.026000	26.215313	0.000575	20.885599
1874.500169	-2.989100	3.351500	-10.017000	26.212211	0.000573	20.894808
1875.502726	-2.995500	3.352200	-10.041000	26.214445	0.000574	20.858175
1876.501239	-2.992500	3.351800	-10.029000	26.140058	0.000573	20.869248
1877.504483	-2.989000	3.351900	-10.017000	26.112989	0.000571	20.854378
1878.504215	-3.005300	3.351900	-10.073000	26.082437	0.000571	20.877732
1879.503624	-2.995400	3.351600	-10.038000	26.052706	0.000571	20.906179
1880.505172	-2.981200	3.350800	-9.988800	26.046496	0.000572	20.875760
1881.504757	-3.008700	3.350400	-10.079000	26.069520	0.000570	20.873289
1882.502381	-2.999200	3.349800	-10.046000	26.085565	0.000569	20.875186
1883.506728	-2.999300	3.348700	-10.043000	26.071804	0.000569	20.858516
1884.522264	-3.009200	3.349100	-10.078000	26.042249	0.000570	20.878131
1885.502843	-3.010400	3.347700	-10.077000	26.030872	0.000568	20.858167
1886.507531	-2.984300	3.349100	-9.993500	25.988398	0.000570	20.864805
1887.503788	-3.012000	3.348400	-10.084000	25.983654	0.000569	20.842496
1888.508901	-2.992000	3.346800	-10.013000	25.991330	0.000567	20.869173
1889.508599	-3.007400	3.347100	-10.065000	26.028388	0.000567	20.880325
1890.504327	-3.003400	3.347400	-10.052000	26.044483	0.000568	20.853825
1891.510526	-2.990300	3.346200	-10.004000	26.089215	0.000567	20.837604
1892.507991	-2.997600	3.345700	-10.027000	26.086659	0.000566	20.860165
1893.507225	-2.982600	3.347200	-9.982300	26.047340	0.000565	20.850057
1894.508847	-3.003900	3.345200	-10.047000	26.003204	0.000566	20.855499
1895.507223	-2.996000	3.345200	-10.021000	25.975230	0.000563	20.870541
1896.507745	-2.980300	3.343800	-9.964300	25.990507	0.000566	20.863131
1897.511026	-2.996600	3.343200	-10.017000	26.014205	0.000564	20.864180
1898.513526	-2.978700	3.344900	-9.962300	26.021831	0.000561	20.869471
1899.512047	-3.009800	3.342800	-10.060000	26.017755	0.000562	20.845463
1900.509449	-3.005900	3.343300	-10.049000	26.022378	0.000564	20.859590
1901.513550	-2.990900	3.343300	-9.998700	26.063381	0.000561	20.862854
1902.511507	-2.982200	3.343500	-9.969900	26.089708	0.000561	20.846633
1903.509184	-2.995900	3.343000	-10.014000	26.090401	0.000560	20.859657
1904.514590	-3.007700	3.341200	-10.048000	26.107961	0.000562	20.864499
1905.509634	-3.004800	3.341600	-10.040000	26.122093	0.000561	20.863052
1906.515703	-2.998700	3.342100	-10.021000	26.067799	0.000558	20.843587
1907.516530	-2.983300	3.341000	-9.966400	26.064968	0.000559	20.846906
1908.521753	-2.991400	3.341300	-9.992600	26.049817	0.000559	20.850649
1909.510260	-3.022000	3.340300	-10.093000	26.091566	0.000560	20.854664
1910.510577	-3.008300	3.340000	-10.047000	26.111164	0.000554	20.835002
1911.515364	-3.014500	3.340200	-10.069000	26.133590	0.000555	20.846155
1912.510164	-3.009800	3.340000	-10.052000	26.141440	0.000555	20.864948
1913.513359	-2.985100	3.340200	-9.970200	26.135652	0.000555	20.838745
1914.511726	-3.002200	3.339100	-10.024000	26.157856	0.000555	20.842089
1915.519769	-2.980500	3.339500	-9.952000	26.163765	0.000554	20.855613
1916.511159	-2.999000	3.339200	-10.013000	26.136475	0.000552	20.821080
1917.511598	-2.990800	3.338000	-9.982100	26.096264	0.000553	20.851798
1918.519529	-2.997700	3.338100	-10.005000	26.069019	0.000552	20.841493
1919.513911	-3.012100	3.337700	-10.052000	26.084963	0.000553	20.847556
1920.515768	-2.985100	3.337000	-9.960900	26.038169	0.000553	20.845584
1921.522952	-2.975600	3.336500	-9.927800	26.072001	0.000552	20.832636
1922.513817	-2.984900	3.337100	-9.959800	26.057396	0.000550	20.839773
1923.515953	-3.015200	3.335900	-10.057000	26.042295	0.000550	20.846885
1924.526734	-3.000000	3.336900	-10.009000	26.042395	0.000551	20.851253
1925.519736	-3.017200	3.334600	-10.060000	26.012342	0.000551	20.828645
1926.519073	-3.011500	3.336300	-10.047000	26.010851	0.000549	20.852751
1927.515302	-3.022800	3.334100	-10.077000	26.007698	0.000549	20.845790
1928.520227	-2.984700	3.335200	-9.953600	26.038423	0.000547	20.851530
1929.516982	-2.998600	3.334800	-9.998600	26.071679	0.000548	20.860761
1930.524774	-2.984400	3.333400	-9.945900	26.087352	0.000546	20.840474
1931.517301	-3.002900	3.332700	-10.007000	26.103847	0.000548	20.853728
1932.517146	-2.979800	3.335100	-9.936300	26.081267	0.000547	20.836257
1933.520643	-3.015700	3.332700	-10.049000	26.063982	0.000544	20.870096
1934.519196	-2.997700	3.331500	-9.985900	26.099300	0.000546	20.857219
1935.519612	-3.004800	3.331400	-10.009000	26.052903	0.000544	20.841422
1936.523463	-2.987300	3.332400	-9.954000	26.074218	0.000545	20.841027
1937.525764	-2.981100	3.331200	-9.929000	26.084625	0.000543	20.834414
1938.520712	-2.996400	3.332100	-9.982700	26.070664	0.000542	20.835086
1939.523291	-3.024600	3.330500	-10.071000	26.074118	0.000544	20.836659
1940.522822	-3.010500	3.330300	-10.025000	26.084378	0.000543	20.825158
1941.523398	-3.010500	3.331500	-10.028000	26.113511	0.000543	20.811282
1942.520720	-3.013900	3.330100	-10.035000	26.155855	0.000543	20.841027
1943.521186	-3.002800	3.329300	-9.996400	26.157496	0.000541	20.824659
1944.529421	-3.001800	3.329000	-9.991500	26.103952	0.000540	20.837712
1945.522192	-3.008300	3.328900	-10.013000	26.103434	0.000540	20.813959
1946.525705	-2.995000	3.329500	-9.970700	26.116321	0.000540	20.816951
1947.524273	-2.972100	3.329100	-9.892400	26.140587	0.000539	20.842755
1948.524227	-3.017700	3.326800	-10.039000	26.192368	0.000539	20.846897
1949.523784	-2.982400	3.329500	-9.929300	26.216336	0.000539	20.842059
1950.522877	-2.992300	3.328500	-9.958300	26.249068	0.000536	20.822321
1951.522231	-3.018600	3.326400	-10.040000	26.265407	0.000534	20.836843
1952.530127	-2.986800	3.326100	-9.933800	26.283762	0.000537	20.827788
1953.523519	-3.005700	3.325700	-9.995000	26.307820	0.000535	20.853388
1954.531230	-2.999800	3.326600	-9.978300	26.270647	0.000535	20.821721
1955.525399	-3.015400	3.325200	-10.026000	26.257611	0.000534	20.824742
1956.525769	-2.988400	3.327200	-9.941100	26.245347	0.000536	20.837548
1957.525069	-3.001300	3.324800	-9.978200	26.223639	0.000534	20.842759
1958.525228	-2.984800	3.324700	-9.922100	26.193691	0.000533	20.832106
1959.524184	-2.988300	3.324900	-9.934100	26.134411	0.000533	20.838920
1960.527010	-2.989300	3.324800	-9.937800	26.088270	0.000533	20.822430
1961.524085	-2.974600	3.325800	-9.891400	26.137317	0.000531	20.843263
1962.527574	-3.013200	3.323600	-10.013000	26.150659	0.000530	20.823479
1963.523818	-2.985200	3.324000	-9.922400	26.213713	0.000531	20.821406
1964.529515	-2.993100	3.323200	-9.945600	26.213045	0.000531	20.828321
1965.532017	-3.014000	3.321800	-10.011000	26.221738	0.000528	20.827574
1966.528493	-3.007800	3.322200	-9.991600	26.227701	0.000529	20.834040
1967.526419	-3.026100	3.321200	-10.049000	26.186103	0.000529	20.820688
1968.533022	-3.017900	3.320600	-10.020000	26.208581	0.000527	20.818145
1969.532295	-3.028600	3.320200	-10.055000	26.170039	0.000527	20.823512
1970.524500	-3.012800	3.320700	-10.004000	26.142524	0.000526	20.817201
1971.537970	-3.006000	3.320800	-9.980800	26.182136	0.000524	20.851314
1972.525035	-3.023900	3.320200	-10.038000	26.205879	0.000524	20.821594
1973.527441	-2.991500	3.319600	-9.929800	26.211942	0.000523	20.819152
1974.543716	-3.006200	3.319000	-9.976700	26.217579	0.000525	20.829558
1975.533677	-2.995600	3.318300	-9.939100	26.193519	0.000522	20.830036
1976.530286	-3.004400	3.319100	-9.970800	26.184553	0.000522	20.831933
1977.535399	-3.007200	3.317700	-9.976000	26.164685	0.000521	20.826193
1978.528697	-3.003600	3.317900	-9.964400	26.115538	0.000523	20.814268
1979.533703	-2.989200	3.319200	-9.921300	26.101156	0.000521	20.813567
1980.530151	-3.007600	3.318400	-9.978600	26.083971	0.000521	20.806732
1981.530176	-2.993500	3.318100	-9.932100	26.076596	0.000519	20.828244
1982.532684	-3.008200	3.316200	-9.974800	26.098972	0.000520	20.827019
1983.528689	-3.002000	3.317900	-9.959400	26.124233	0.000520	20.819685
1984.531123	-3.007500	3.316600	-9.974300	26.175220	0.000518	20.835831
1985.531793	-3.003200	3.316700	-9.958400	26.231763	0.000518	20.834803
1986.531839	-3.013800	3.314600	-9.988300	26.273234	0.000518	20.830959
1987.535495	-3.001100	3.314700	-9.946700	26.323447	0.000518	20.834005
1988.532891	-3.004900	3.314000	-9.957800	26.360718	0.000517	20.818833
1989.533792	-3.002400	3.314300	-9.949400	26.362183	0.000516	20.819832
1990.531287	-3.010700	3.314600	-9.978200	26.362676	0.000514	20.817956
1991.531493	-3.003300	3.312500	-9.946800	26.344155	0.000515	20.796972
1992.534907	-3.019500	3.312500	-10.001000	26.372412	0.000515	20.815413
1993.532864	-2.973900	3.313000	-9.852000	26.381176	0.000514	20.818057
1994.534927	-3.017200	3.312800	-9.993100	26.392849	0.000515	20.818409
1995.532604	-3.016900	3.311100	-9.987500	26.324190	0.000514	20.820528
1996.531723	-3.006400	3.312000	-9.956000	26.287585	0.000511	20.801285
1997.533380	-2.982800	3.312100	-9.877700	26.232857	0.000511	20.806031
1998.532804	-3.009300	3.311200	-9.963200	26.222155	0.000512	20.819458
1999.534279	-2.997700	3.311200	-9.924700	26.239116	0.000513	20.802364
2000.541626	-2.994200	3.311200	-9.913600	26.272566	0.000511	20.812745
2001.534560	-2.976400	3.311300	-9.854100	26.306587	0.000510	20.826071
2002.534879	-2.988400	3.310100	-9.891100	26.291238	0.000511	20.794051
2003.536986	-3.005000	3.310900	-9.947500	26.331066	0.000512	20.807051
2004.535560	-3.012200	3.308200	-9.963300	26.336774	0.000507	20.799985
2005.546489	-3.005300	3.309100	-9.943600	26.383159	0.000511	20.807722
2006.537309	-3.016100	3.307800	-9.975600	26.355817	0.000510	20.809640
2007.535905	-3.004300	3.308500	-9.937400	26.324286	0.000509	20.796917
2008.539247	-3.029000	3.307300	-10.016000	26.287878	0.000508	20.794941
2009.535731	-3.008500	3.307800	-9.950700	26.268136	0.000508	20.799758
2010.549325	-3.016700	3.306800	-9.974900	26.281995	0.000506	20.810366
2011.537081	-3.003300	3.306800	-9.930700	26.292399	0.000506	20.807546
2012.539119	-2.995700	3.306800	-9.905500	26.263418	0.000506	20.798810
2013.538756	-2.994700	3.305600	-9.898000	26.286241	0.000504	20.795193
2014.542319	-3.032700	3.305600	-10.024000	26.281022	0.000503	20.792319
2015.538663	-3.002800	3.305700	-9.925500	26.250011	0.000504	20.811889
2016.548967	-3.002700	3.305300	-9.923900	26.258078	0.000504	20.802452
2017.541335	-3.006700	3.304500	-9.935000	26.294483	0.000504	20.803950
2018.546745	-3.021300	3.303600	-9.980300	26.305063	0.000502	20.818376
2019.541725	-3.015700	3.303700	-9.962100	26.265702	0.000503	20.809166
2020.540758	-3.027500	3.303100	-9.999800	26.219759	0.000502	20.796188
2021.541153	-3.006100	3.305000	-9.934300	26.208084	0.000501	20.793464
2022.541635	-3.005300	3.303800	-9.928000	26.184098	0.000498	20.800182
2023.538496	-2.977000	3.303500	-9.833200	26.197879	0.000499	20.799330
2024.543391	-2.989700	3.302100	-9.870300	26.199019	0.000500	20.797157
2025.552506	-2.997700	3.302600	-9.899100	26.256733	0.000499	20.804420
2026.544071	-2.980400	3.302500	-9.842600	26.287101	0.000499	20.791316
2027.546950	-2.980100	3.302800	-9.841200	26.269794	0.000499	20.787200
2028.545466	-2.985100	3.302800	-9.858100	26.262988	0.000498	20.779412
2029.539538	-2.995200	3.301900	-9.888900	26.297406	0.000494	20.796456
2030.543745	-3.002400	3.300900	-9.909200	26.323456	0.000496	20.786126
2031.539125	-3.002300	3.300400	-9.907200	26.364723	0.000494	20.785874
2032.545286	-3.008400	3.299100	-9.923500	26.355458	0.000494	20.805012
2033.544634	-3.017300	3.298800	-9.952100	26.346098	0.000493	20.797027
2034.541512	-3.004900	3.299500	-9.913800	26.336315	0.000492	20.773445
2035.544205	-3.000500	3.299100	-9.898100	26.344211	0.000493	20.790389
2036.542761	-3.019500	3.299000	-9.960500	26.367800	0.000494	20.785647
2037.549968	-3.007800	3.297500	-9.917100	26.367420	0.000493	20.794275
2038.543860	-3.017400	3.297900	-9.949300	26.389497	0.000491	20.782798
2039.542840	-3.007300	3.297200	-9.914400	26.421502	0.000488	20.765179
2040.546143	-2.975200	3.298300	-9.812200	26.452638	0.000490	20.802637
2041.548124	-2.995800	3.298100	-9.878000	26.475953	0.000489	20.783398
2042.546414	-2.996500	3.296700	-9.877900	26.544055	0.000488	20.803015
2043.554313	-2.973700	3.298000	-9.806000	26.565253	0.000487	20.776907
2044.545523	-2.992600	3.295300	-9.861000	26.547625	0.000486	20.770093
2045.543409	-2.991200	3.297300	-9.861900	26.534221	0.000485	20.787914
2046.545271	-3.012900	3.293600	-9.922400	26.491716	0.000486	20.792605
2047.546310	-2.999700	3.296300	-9.886700	26.430165	0.000484	20.797594
2048.548503	-2.997900	3.294900	-9.876500	26.395576	0.000484	20.773735
2049.554173	-3.000400	3.294100	-9.881900	26.331765	0.000484	20.759862
2050.546934	-2.992800	3.293700	-9.855800	26.272931	0.000483	20.761902
2051.551426	-3.012000	3.293700	-9.919000	26.263002	0.000482	20.772313
2052.554244	-2.974000	3.293700	-9.794200	26.269507	0.000481	20.772686
2053.559618	-2.993900	3.291800	-9.853800	26.252425	0.000479	20.758839
2054.552867	-2.994000	3.292700	-9.857400	26.241794	0.000480	20.762854
2055.550355	-2.993900	3.291400	-9.853100	26.253987	0.000480	20.792177
2056.554604	-3.004900	3.292000	-9.891100	26.285056	0.000477	20.790683
2057.555609	-2.999800	3.290200	-9.868600	26.282547	0.000479	20.787213
2058.553540	-3.006100	3.291000	-9.891500	26.341472	0.000477	20.758713
2059.552685	-3.022000	3.289900	-9.941100	26.367023	0.000477	20.787238
2060.551929	-3.019100	3.289600	-9.929900	26.395630	0.000476	20.761461
2061.553869	-2.996700	3.291000	-9.861100	26.430666	0.000475	20.763958
2062.554596	-3.002700	3.288600	-9.873100	26.469570	0.000474	20.778405
2063.551226	-3.001000	3.289700	-9.871700	26.468752	0.000474	20.765254
2064.551453	-3.013100	3.288600	-9.906900	26.494250	0.000475	20.770495
2065.552724	-2.990900	3.289800	-9.838300	26.482553	0.000474	20.763954
2066.553063	-2.999700	3.288900	-9.863900	26.495244	0.000473	20.768649
2067.555986	-3.021000	3.287600	-9.931100	26.491441	0.000472	20.773362
2068.555274	-3.011600	3.287800	-9.900400	26.529332	0.000471	20.772094
2069.555283	-2.989600	3.288000	-9.829100	26.566668	0.000471	20.770269
2070.558237	-2.982600	3.287600	-9.804500	26.556212	0.000470	20.768293
2071.556560	-2.991000	3.286500	-9.829300	26.508331	0.000472	20.771846
2072.555713	-3.009200	3.285900	-9.886400	26.483751	0.000470	20.767529
2073.559089	-2.971400	3.287400	-9.767400	26.458895	0.000470	20.749183
2074.556664	-2.984300	3.285600	-9.803700	26.462544	0.000470	20.774662
2075.557822	-2.980600	3.286900	-9.796200	26.424161	0.000468	20.776861
2076.559715	-2.990300	3.284900	-9.822500	26.424833	0.000467	20.757147
2077.556805	-2.992100	3.285200	-9.828400	26.402615	0.000467	20.757101
2078.559538	-2.986800	3.284400	-9.808900	26.399212	0.000468	20.766009
2079.562201	-3.007600	3.283000	-9.872800	26.426996	0.000466	20.765011
2080.557979	-2.979200	3.284600	-9.784400	26.431814	0.000465	20.730971
2081.557824	-3.005800	3.283400	-9.868500	26.450587	0.000462	20.757428
2082.563204	-3.020400	3.282400	-9.912200	26.444054	0.000463	20.763190
2083.558340	-3.007600	3.282000	-9.869600	26.461062	0.000463	20.766534
2084.558584	-3.004600	3.281900	-9.859800	26.498700	0.000462	20.751734
2085.560846	-2.984700	3.284200	-9.801300	26.492396	0.000462	20.764364
2086.557031	-3.004600	3.282200	-9.861000	26.525859	0.000464	20.757223
2087.559060	-3.022600	3.281800	-9.918500	26.494551	0.000460	20.750882
2088.562775	-3.015100	3.280000	-9.886800	26.462573	0.000462	20.746715
2089.558632	-3.002200	3.280500	-9.847400	26.447106	0.000460	20.744919
2090.560740	-2.994000	3.278900	-9.815900	26.402511	0.000461	20.747039
2091.563654	-2.994100	3.279700	-9.819500	26.388829	0.000461	20.756522
2092.560489	-2.973700	3.279800	-9.752200	26.367800	0.000459	20.754353
2093.561629	-3.000400	3.278700	-9.836200	26.349300	0.000458	20.755674
2094.566790	-2.981200	3.278700	-9.772600	26.339046	0.000458	20.766232
2095.564052	-3.003200	3.279300	-9.846000	26.344632	0.000459	20.753828
2096.564603	-2.999000	3.278600	-9.830900	26.388286	0.000458	20.758821
2097.568294	-2.955300	3.278600	-9.688400	26.400874	0.000457	20.771473
2098.567089	-3.004300	3.278000	-9.846800	26.430394	0.000457	20.746141
2099.565511	-2.999400	3.276600	-9.825800	26.473945	0.000454	20.749611
2100.568016	-2.980700	3.278700	-9.771100	26.507266	0.000456	20.749913
2101.569458	-2.996600	3.276500	-9.816800	26.506223	0.000454	20.734639
2102.567008	-2.986700	3.276100	-9.783700	26.511683	0.000456	20.755775
2103.568494	-2.995800	3.275700	-9.811800	26.531545	0.000456	20.772421
2104.568793	-3.011500	3.275600	-9.863200	26.540161	0.000455	20.741252
2105.568107	-3.001800	3.273600	-9.825000	26.530798	0.000452	20.739427
2106.571066	-2.994900	3.274300	-9.805100	26.545871	0.000452	20.745096
2107.570918	-3.008100	3.274400	-9.848600	26.567448	0.000452	20.749716
2108.569102	-3.012300	3.274700	-9.863000	26.575291	0.000451	20.749065
2109.571275	-3.008100	3.273000	-9.843300	26.590882	0.000451	20.749565
2110.570294	-2.991800	3.273300	-9.791900	26.621566	0.000450	20.727303
2111.568757	-3.000500	3.274800	-9.824400	26.632619	0.000447	20.744105
2112.570937	-2.995000	3.271000	-9.795700	26.636885	0.000450	20.768783
2113.571230	-2.980700	3.273100	-9.754600	26.681345	0.000448	20.756580
2114.568431	-2.992300	3.271100	-9.787100	26.673577	0.000448	20.745926
2115.573995	-3.003400	3.271400	-9.824100	26.697681	0.000445	20.726535
2116.571575	-3.011800	3.270200	-9.847600	26.705102	0.000446	20.767188
2117.568890	-3.035300	3.269400	-9.922500	26.703712	0.000443	20.752514
2118.573218	-3.016400	3.270500	-9.862900	26.686462	0.000442	20.747026
2119.571629	-3.020800	3.269300	-9.875600	26.638975	0.000443	20.751444
2120.572263	-3.016400	3.267600	-9.855500	26.625498	0.000442	20.755913
2121.571910	-3.001000	3.268500	-9.807600	26.651685	0.000441	20.748574
2122.569433	-2.996800	3.267500	-9.791900	26.631183	0.000442	20.753567
2123.569274	-3.013700	3.267800	-9.846300	26.575800	0.000439	20.756215
2124.576721	-2.991200	3.267300	-9.772100	26.557676	0.000441	20.765971
2125.571850	-2.994100	3.267500	-9.781200	26.582976	0.000440	20.779076
2126.569696	-3.005800	3.267800	-9.821800	26.566241	0.000439	20.757986
2127.576116	-2.987000	3.268200	-9.761600	26.564108	0.000437	20.790930
2128.573184	-2.969100	3.266900	-9.699100	26.528781	0.000436	20.759211
2129.571882	-3.009000	3.266900	-9.828800	26.527165	0.000439	20.768493
2130.575590	-3.019000	3.266200	-9.859500	26.572056	0.000435	20.755770
2131.573951	-3.014600	3.265700	-9.843800	26.609886	0.000436	20.771514
2132.574013	-2.992000	3.266600	-9.772200	26.598666	0.000435	20.757390
2133.581297	-2.989900	3.265900	-9.763000	26.640348	0.000433	20.755195
2134.573144	-2.963600	3.264300	-9.672800	26.648963	0.000431	20.764804
2135.573923	-3.014500	3.263700	-9.837300	26.643850	0.000434	20.752077
2136.572866	-2.966400	3.264900	-9.683000	26.635536	0.000432	20.754150
2137.572605	-2.997100	3.262900	-9.777900	26.612228	0.000430	20.762014
2138.572540	-2.995900	3.263700	-9.777300	26.635335	0.000431	20.753475
2139.573434	-2.996400	3.263000	-9.776400	26.630515	0.000430	20.784665
2140.573595	-2.972600	3.262500	-9.696900	26.607332	0.000431	20.779852
2141.573527	-3.017900	3.262700	-9.846200	26.629772	0.000429	20.756416
2142.573187	-3.001600	3.260600	-9.785900	26.670906	0.000429	20.753672
2143.573744	-2.989100	3.261900	-9.749500	26.687384	0.000428	20.768342
2144.574499	-3.014600	3.260900	-9.829200	26.693419	0.000430	20.750701
2145.577444	-3.012800	3.260000	-9.820700	26.733303	0.000427	20.738167
2146.575795	-2.990300	3.260000	-9.746600	26.761036	0.000425	20.763680
2147.575650	-2.998800	3.259200	-9.772900	26.797767	0.000426	20.766471
2148.575346	-2.972400	3.259700	-9.687600	26.777960	0.000424	20.763626
2149.575211	-3.000900	3.259500	-9.780200	26.765941	0.000427	20.793267
2150.577524	-2.981100	3.258500	-9.713000	26.757406	0.000422	20.764297
2151.575385	-3.010800	3.257200	-9.805700	26.712377	0.000422	20.746526
2152.575557	-3.022600	3.256800	-9.842900	26.658885	0.000422	20.786159
2153.574152	-3.022300	3.256400	-9.840900	26.620898	0.000421	20.775946
2154.578230	-3.032900	3.256200	-9.874900	26.598558	0.000421	20.779093
2155.575713	-3.007300	3.256400	-9.791500	26.620752	0.000421	20.786704
2156.577859	-2.990100	3.256100	-9.734700	26.647712	0.000421	20.788677
2157.577998	-3.007700	3.254700	-9.787800	26.640232	0.000420	20.777364
2158.576823	-3.007700	3.254300	-9.786700	26.687326	0.000420	20.782034
2159.579040	-2.989000	3.255800	-9.730600	26.721254	0.000418	20.790066
2160.576718	-3.009800	3.254300	-9.793800	26.739176	0.000418	20.767780
2161.578374	-3.018300	3.254200	-9.820400	26.765286	0.000417	20.776013
2162.579203	-2.998400	3.253400	-9.754900	26.765186	0.000416	20.770223
2163.577789	-2.992500	3.254500	-9.737600	26.772731	0.000415	20.764058
2164.581779	-2.979600	3.254400	-9.695300	26.786007	0.000416	20.765078
2165.579904	-3.017200	3.252600	-9.812400	26.803577	0.000414	20.778951
2166.579734	-3.012400	3.251700	-9.795000	26.798611	0.000413	20.768268
2167.579554	-3.014300	3.251100	-9.798200	26.747228	0.000412	20.775401
2168.593934	-2.989000	3.251600	-9.718000	26.736105	0.000411	20.774176
2169.584337	-3.014800	3.249500	-9.794700	26.692465	0.000411	20.772028
2170.581404	-2.999000	3.251000	-9.748800	26.690007	0.000412	20.793264
2171.581436	-2.992900	3.249800	-9.725500	26.695659	0.000412	20.773342
2172.583884	-2.994400	3.249700	-9.729300	26.693776	0.000408	20.785200
2173.581462	-2.986800	3.251100	-9.709200	26.696498	0.000407	20.785565
2174.582328	-3.021100	3.247800	-9.810300	26.739316	0.000406	20.765550
2175.587658	-2.987000	3.249600	-9.705800	26.744700	0.000406	20.767170
2176.583499	-2.965000	3.249300	-9.633400	26.770434	0.000404	20.776448
2177.585210	-2.973400	3.247700	-9.655600	26.805954	0.000404	20.767589
2178.587020	-2.967200	3.247500	-9.634800	26.808078	0.000403	20.775890
2179.584583	-2.998900	3.246800	-9.736000	26.841039	0.000403	20.790064
2180.585937	-2.987000	3.246900	-9.695700	26.849769	0.000401	20.765178
2181.584754	-3.000600	3.246700	-9.741700	26.874662	0.000402	20.775983
2182.583391	-2.977400	3.245900	-9.662300	26.866124	0.000402	20.774510
2183.585426	-2.988500	3.245600	-9.698000	26.876641	0.000401	20.774653
2184.587358	-2.991600	3.246700	-9.710600	26.836979	0.000400	20.767016
2185.589150	-3.020700	3.242900	-9.794600	26.833403	0.000401	20.761049
2186.585831	-2.991800	3.245500	-9.708800	26.862014	0.000399	20.778439
2187.586548	-2.985700	3.244000	-9.684500	26.890955	0.000398	20.790943
2188.585516	-2.979800	3.245200	-9.669700	26.926020	0.000398	20.786373
2189.588199	-3.022000	3.242900	-9.798900	26.961409	0.000397	20.782131
2190.587390	-2.988900	3.243000	-9.692400	26.972221	0.000395	20.800590
2191.587859	-2.989000	3.242700	-9.690900	26.972468	0.000395	20.793726
2192.588501	-3.016600	3.242200	-9.779400	26.969313	0.000393	20.775381
2193.585090	-2.997300	3.242100	-9.716100	27.002172	0.000395	20.778078
2194.588051	-3.008000	3.241100	-9.748700	26.993932	0.000395	20.789706
2195.587041	-2.988200	3.239100	-9.677200	26.965316	0.000393	20.818302
2196.587156	-2.984800	3.241900	-9.675600	26.957597	0.000393	20.764072
2197.594666	-3.001500	3.240200	-9.724300	26.931784	0.000391	20.793118
2198.589871	-2.998200	3.238500	-9.708500	26.881722	0.000389	20.793987
2199.586607	-2.992800	3.239900	-9.695800	26.902445	0.000390	20.775470
2200.587950	-2.989200	3.239100	-9.681100	26.927557	0.000389	20.810679
2201.588412	-3.015300	3.239500	-9.767400	26.940685	0.000387	20.800646
2202.588156	-2.992600	3.238200	-9.689800	26.975106	0.000390	20.781680
2203.588494	-3.014000	3.236700	-9.755000	26.967312	0.000388	20.800869
2204.589051	-2.980700	3.236300	-9.645300	26.998974	0.000385	20.810423
2205.590054	-2.989600	3.236100	-9.673500	27.016290	0.000388	20.797018
2206.591022	-2.986300	3.236000	-9.662600	27.022495	0.000386	20.805628
2207.590999	-2.983000	3.235300	-9.649400	27.013261	0.000385	20.807722
2208.592380	-2.992900	3.234700	-9.680600	26.980999	0.000386	20.795193
2209.592684	-2.989900	3.234600	-9.668600	26.937123	0.000383	20.801806
2210.592409	-3.020800	3.233500	-9.766900	26.923645	0.000382	20.792046
2211.593391	-2.995300	3.233500	-9.684000	26.964989	0.000383	20.795214
2212.593870	-3.038000	3.232600	-9.819400	26.989482	0.000384	20.803249
2213.597506	-3.019600	3.233000	-9.761000	26.954565	0.000381	20.800853
2214.594139	-3.001000	3.232600	-9.699500	26.956426	0.000379	20.807940
2215.597661	-2.989100	3.232300	-9.660600	26.937044	0.000380	20.791769
2216.593897	-3.017400	3.230900	-9.748000	26.903193	0.000378	20.794715
2217.595202	-2.987100	3.230400	-9.648400	26.871228	0.000378	20.796712
2218.597837	-2.964300	3.232000	-9.579700	26.868320	0.000377	20.795684
2219.593730	-2.993500	3.230300	-9.669000	26.861343	0.000378	20.808583
2220.596109	-3.006500	3.229000	-9.707000	26.845334	0.000376	20.802918
2221.598897	-3.007100	3.229500	-9.709900	26.850672	0.000375	20.813026
2222.598230	-2.998200	3.230700	-9.685200	26.875389	0.000375	20.813698
2223.597843	-2.972200	3.229600	-9.598200	26.920011	0.000375	20.805461
2224.598839	-3.004900	3.229200	-9.702400	26.939040	0.000372	20.814639
2225.598716	-3.001800	3.229700	-9.694500	26.971128	0.000372	20.814664
2226.599295	-3.002200	3.227600	-9.689000	26.968667	0.000371	20.807447
2227.601914	-3.010600	3.226600	-9.712500	26.972067	0.000370	20.809444
2228.599342	-3.000000	3.226300	-9.678000	26.929702	0.000370	20.834171
2229.599005	-3.022100	3.224700	-9.744700	26.893414	0.000369	20.814279
2230.602480	-3.003600	3.226900	-9.690800	26.881550	0.000369	20.808039
2231.598978	-2.993900	3.226800	-9.660500	26.884923	0.000368	20.798154
2232.600948	-2.988600	3.225300	-9.638500	26.827367	0.000368	20.810931
2233.603409	-3.016800	3.223800	-9.724200	26.837041	0.000366	20.817339
2234.599896	-3.009700	3.222400	-9.697100	26.866749	0.000369	20.805485
2235.600247	-2.996500	3.222100	-9.654200	26.914272	0.000366	20.813915
2236.605335	-3.006400	3.222400	-9.686900	26.947200	0.000365	20.824267
2237.602143	-2.990600	3.222500	-9.636300	26.986361	0.000365	20.814335
2238.601747	-2.986500	3.222700	-9.624000	26.972955	0.000365	20.818397
2239.608842	-3.022100	3.221900	-9.735300	26.969404	0.000364	20.831896
2240.604816	-2.985000	3.221600	-9.615500	26.989575	0.000363	20.796705
2241.601532	-2.998600	3.221900	-9.660300	27.036200	0.000362	20.805660
2242.603875	-2.983100	3.221100	-9.607800	27.047611	0.000360	20.830886
2243.606233	-3.005200	3.220100	-9.675400	27.077664	0.000360	20.821755
2244.603074	-3.011300	3.218200	-9.690100	27.062148	0.000360	20.828436
2245.606991	-3.023300	3.219300	-9.731200	27.074824	0.000359	20.830279
2246.608007	-2.993500	3.219200	-9.635800	27.084996	0.000359	20.803051
2247.604139	-3.004100	3.220200	-9.672900	27.128466	0.000359	20.814528
2248.608723	-2.995700	3.217400	-9.636900	27.163945	0.000357	20.806589
2249.606599	-2.998300	3.217200	-9.645400	27.164760	0.000357	20.824003
2250.605917	-2.995400	3.216600	-9.633600	27.165674	0.000356	20.820655
2251.608918	-3.006400	3.217800	-9.672700	27.138527	0.000355	20.818482
2252.607353	-2.991400	3.215500	-9.617700	27.127534	0.000357	20.821650
2253.606191	-2.991800	3.215400	-9.619500	27.091053	0.000355	20.824789
2254.610169	-2.976700	3.213900	-9.565200	27.091124	0.000355	20.811585
2255.607052	-3.014600	3.213900	-9.687500	27.068765	0.000354	20.842203
2256.607982	-3.010600	3.214000	-9.675000	27.090003	0.000354	20.810457
2257.608278	-3.000500	3.213400	-9.640800	27.115215	0.000354	20.819692
2258.606132	-2.997400	3.215200	-9.635600	27.128958	0.000354	20.821186
2259.607123	-3.006100	3.212500	-9.656200	27.085781	0.000353	20.828496
2260.608080	-3.009000	3.212100	-9.664300	27.125183	0.000351	20.819286
2261.607027	-3.024200	3.210200	-9.706300	27.105357	0.000350	20.832062
2262.607934	-3.007800	3.211300	-9.657600	27.098131	0.000350	20.834753
2263.609471	-3.027700	3.210500	-9.719800	27.088706	0.000348	20.826696
2264.608614	-3.005300	3.211100	-9.649100	27.086095	0.000350	20.819803
2265.608337	-2.993100	3.209500	-9.605100	27.129247	0.000348	20.829063
2266.607639	-3.022500	3.209700	-9.700500	27.115350	0.000348	20.831681
2267.607343	-3.019500	3.209400	-9.689600	27.110461	0.000346	20.818703
2268.608721	-2.985700	3.208900	-9.580600	27.097685	0.000347	20.839993
2269.609417	-2.996600	3.207600	-9.610800	27.044505	0.000346	20.848625
2270.610634	-3.001000	3.209000	-9.628400	27.031254	0.000346	20.837669
2271.609999	-2.983400	3.207500	-9.568000	27.036915	0.000344	20.823449
2272.610025	-2.985000	3.207200	-9.572900	27.035969	0.000342	20.831979
2273.609632	-2.974900	3.209500	-9.547200	27.015595	0.000342	20.844681
2274.612376	-2.965900	3.206500	-9.509000	27.049141	0.000342	20.844278
2275.611620	-3.001200	3.204600	-9.616500	27.055421	0.000341	20.839688
2276.610264	-2.984000	3.205800	-9.565200	27.037701	0.000344	20.853635
2277.612131	-3.035800	3.205200	-9.728800	27.053356	0.000342	20.848991
2278.611641	-3.022400	3.203100	-9.679600	27.041423	0.000341	20.838887
2279.612463	-2.974500	3.205400	-9.533100	27.056806	0.000341	20.843452
2280.610852	-3.032900	3.201700	-9.708400	27.112360	0.000339	20.851433
2281.612339	-2.977700	3.204500	-9.541300	27.154047	0.000340	20.837410
2282.611517	-3.000200	3.201800	-9.604900	27.138715	0.000339	20.846645
2283.612747	-2.999300	3.201400	-9.600700	27.142233	0.000338	20.853502
2284.613986	-3.033400	3.200700	-9.708300	27.159797	0.000339	20.838926
2285.613643	-2.993200	3.203100	-9.586400	27.185779	0.000337	20.848463
2286.613626	-3.006800	3.200300	-9.621000	27.215574	0.000336	20.844292
2287.615148	-2.988800	3.199600	-9.561800	27.240016	0.000337	20.848962
2288.616312	-2.995000	3.198800	-9.579400	27.267649	0.000335	20.857791
2289.615852	-3.028900	3.198300	-9.686300	27.255247	0.000336	20.862385
2290.617030	-3.012500	3.197800	-9.632400	27.223885	0.000335	20.843168
2291.619774	-2.998800	3.197600	-9.587700	27.220906	0.000335	20.846810
2292.620813	-3.032300	3.198400	-9.697800	27.217481	0.000334	20.859486
2293.617464	-3.015100	3.196000	-9.634400	27.262760	0.000333	20.862356
2294.619214	-2.956000	3.197700	-9.451600	27.243583	0.000332	20.861084
2295.621554	-2.993200	3.195800	-9.564400	27.250926	0.000331	20.854719
2296.618218	-2.976600	3.196400	-9.513200	27.256036	0.000331	20.838049
2297.620493	-3.009800	3.194700	-9.613500	27.225917	0.000331	20.858487
2298.619398	-2.995100	3.193900	-9.565000	27.194204	0.000332	20.866892
2299.618745	-2.991800	3.194900	-9.556300	27.151079	0.000331	20.865718
2300.619358	-3.025100	3.192900	-9.657500	27.147604	0.000330	20.876446
2301.620736	-3.001800	3.192900	-9.582500	27.150829	0.000329	20.845079
2302.619327	-3.011000	3.192700	-9.611600	27.173558	0.000327	20.884532
2303.621529	-2.989400	3.192300	-9.541300	27.142293	0.000326	20.875847
2304.626132	-2.959800	3.193100	-9.449900	27.148943	0.000327	20.852191
2305.621875	-2.977300	3.191400	-9.500700	27.138347	0.000327	20.854335
2306.625141	-3.001600	3.192500	-9.581500	27.143482	0.000326	20.851440
2307.622864	-2.993100	3.190300	-9.548000	27.186429	0.000325	20.866184
2308.622957	-3.001700	3.192700	-9.581200	27.207246	0.000323	20.865786
2309.623287	-3.008700	3.190500	-9.598800	27.236966	0.000326	20.877186
2310.622942	-2.990900	3.189700	-9.538800	27.278694	0.000324	20.848038
2311.624063	-3.023700	3.187700	-9.637400	27.295613	0.000322	20.859367
2312.624990	-3.006700	3.188700	-9.586300	27.312629	0.000323	20.859414
2313.623247	-3.001900	3.188200	-9.569800	27.295038	0.000323	20.855470
2314.622403	-3.003100	3.187200	-9.569400	27.272137	0.000320	20.867995
2315.624801	-2.991000	3.186100	-9.528900	27.272684	0.000321	20.877552
2316.623745	-3.007500	3.185500	-9.579600	27.293271	0.000319	20.875027
2317.623137	-2.976100	3.188700	-9.489500	27.333240	0.000320	20.867344
2318.624635	-3.021700	3.182900	-9.617200	27.337825	0.000321	20.869112
2319.626568	-2.985600	3.186800	-9.513600	27.310536	0.000319	20.856835
2320.624779	-3.014300	3.184500	-9.597500	27.297734	0.000320	20.885681
2321.628916	-3.009700	3.182400	-9.576600	27.272702	0.000319	20.869984
2322.626962	-3.008600	3.182700	-9.575200	27.225166	0.000318	20.867689
2323.624907	-3.003100	3.182600	-9.556200	27.228141	0.000316	20.869733
2324.627231	-2.981700	3.182800	-9.488400	27.253078	0.000315	20.903823
2325.628554	-3.006700	3.179900	-9.560100	27.269795	0.000316	20.878439
2326.626308	-2.973300	3.180700	-9.455700	27.288525	0.000315	20.903442
2327.627740	-3.002900	3.180400	-9.548600	27.328044	0.000315	20.874919
2328.630275	-3.023900	3.177700	-9.606400	27.375450	0.000313	20.872348
2329.624523	-3.000600	3.177700	-9.533500	27.396785	0.000314	20.881482
2330.627214	-2.991400	3.178000	-9.505300	27.455499	0.000312	20.886022
2331.632486	-3.008400	3.178900	-9.562200	27.435008	0.000313	20.891959
2332.624513	-2.980600	3.178600	-9.472700	27.381356	0.000313	20.892512
2333.629101	-3.019300	3.176500	-9.589900	27.346473	0.000311	20.889664
2334.629286	-3.005400	3.175400	-9.542100	27.349773	0.000311	20.901043
2335.630935	-3.021500	3.175300	-9.592400	27.357464	0.000311	20.894556
2336.631259	-2.988000	3.176400	-9.490400	27.395717	0.000310	20.904113
2337.631857	-2.984800	3.174600	-9.474600	27.404323	0.000308	20.897124
2338.627774	-3.008400	3.177000	-9.556900	27.449447	0.000310	20.885623
2339.630089	-2.986100	3.173800	-9.476200	27.428810	0.000307	20.896628
2340.628937	-3.007100	3.172500	-9.539200	27.437689	0.000308	20.905087
2341.628484	-2.991200	3.174100	-9.493700	27.479610	0.000307	20.929241
2342.633605	-3.017800	3.173100	-9.574400	27.514785	0.000307	20.896355
2343.641974	-3.020700	3.170800	-9.575900	27.548219	0.000307	20.908183
2344.629172	-2.999400	3.171400	-9.511100	27.535467	0.000306	20.901517
2345.634346	-3.030200	3.170300	-9.604900	27.489703	0.000307	20.896725
2346.629428	-2.983800	3.171300	-9.461900	27.476607	0.000305	20.895878
2347.629447	-2.994000	3.170000	-9.490400	27.476011	0.000305	20.915190
2348.630014	-3.000500	3.170500	-9.511900	27.483323	0.000303	20.923968
2349.630692	-3.000000	3.167700	-9.502100	27.492306	0.000301	20.891284
2350.631493	-2.982000	3.167500	-9.444400	27.508897	0.000302	20.904656
2351.634094	-3.003900	3.166600	-9.511200	27.542729	0.000302	20.913089
2352.638955	-2.992300	3.167600	-9.476300	27.582785	0.000301	20.929683
2353.634009	-3.026300	3.165100	-9.576400	27.596301	0.000300	20.895870
2354.635962	-3.007000	3.166800	-9.521700	27.598136	0.000301	20.902458
2355.634363	-3.011300	3.164700	-9.528400	27.639946	0.000299	20.904225
2356.633067	-3.020200	3.163900	-9.553100	27.598232	0.000296	20.894969
2357.637704	-2.996100	3.163200	-9.476400	27.549594	0.000296	20.913359
2358.635513	-2.998700	3.163800	-9.486800	27.514545	0.000299	20.884262
2359.634398	-2.992000	3.163700	-9.464400	27.482545	0.000298	20.906592
2360.636330	-2.992900	3.162900	-9.465400	27.505116	0.000298	20.872879
2361.635873	-3.006900	3.161300	-9.504000	27.523967	0.000294	20.879517
2362.634338	-3.000300	3.162800	-9.488300	27.552539	0.000294	20.892616
2363.638076	-2.985900	3.161000	-9.437700	27.536984	0.000295	20.875070
2364.636280	-2.998600	3.160800	-9.477100	27.569872	0.000295	20.884452
2365.634122	-3.006900	3.157700	-9.494300	27.603726	0.000293	20.876791
2366.636408	-2.985400	3.160200	-9.433600	27.626713	0.000291	20.877635
2367.635159	-3.033300	3.156000	-9.571300	27.625771	0.000293	20.889488
2368.635895	-3.002900	3.157600	-9.481100	27.658252	0.000291	20.887559
2369.640277	-2.983500	3.158800	-9.423100	27.639108	0.000292	20.903855
2370.637218	-2.992100	3.157600	-9.446600	27.662961	0.000294	20.860530
2371.639758	-2.992100	3.155900	-9.441700	27.684190	0.000292	20.870038
2372.639780	-3.028500	3.152900	-9.548000	27.692050	0.000290	20.870835
2373.640090	-3.020300	3.154400	-9.526800	27.728724	0.000293	20.872179
2374.638851	-3.044400	3.151400	-9.592600	27.716270	0.000291	20.877190
2375.641645	-3.014100	3.153000	-9.502000	27.745283	0.000289	20.855179
2376.641224	-3.033300	3.151100	-9.556500	27.756192	0.000290	20.883224
2377.641026	-2.979300	3.153000	-9.391900	27.719019	0.000285	20.852930
2378.642098	-2.988700	3.150000	-9.413200	27.766896	0.000286	20.868867
2379.644194	-2.982500	3.150100	-9.394300	27.769299	0.000289	20.842363
2380.644667	-2.989100	3.150100	-9.415000	27.729717	0.000286	20.863695
2381.645592	-3.004100	3.149800	-9.461100	27.691498	0.000288	20.891140
2382.645342	-3.008900	3.148800	-9.472600	27.666895	0.000286	20.872075
2383.645163	-2.995400	3.148400	-9.429400	27.633828	0.000287	20.859665
2384.644989	-3.000400	3.145400	-9.436300	27.657039	0.000287	20.846038
2385.645558	-2.995100	3.147400	-9.426300	27.641957	0.000284	20.852672
2386.645265	-2.989200	3.147000	-9.405800	27.649097	0.000284	20.843261
2387.649748	-2.993700	3.147400	-9.421500	27.659856	0.000286	20.854088
2388.647154	-2.990900	3.145700	-9.407400	27.707986	0.000284	20.856052
2389.648255	-2.984900	3.146000	-9.389700	27.724131	0.000282	20.852859
2390.647660	-3.008800	3.142400	-9.454000	27.754754	0.000283	20.836261
2391.648254	-3.011800	3.142700	-9.464300	27.735336	0.000282	20.845169
2392.648385	-3.022600	3.142600	-9.498100	27.684170	0.000280	20.859587
2393.647591	-3.015500	3.140700	-9.470800	27.657729	0.000282	20.834879
2394.650098	-3.031100	3.139500	-9.514300	27.629206	0.000281	20.866868
2395.648473	-3.005500	3.140400	-9.437200	27.665636	0.000281	20.840938
2396.648767	-3.001800	3.140200	-9.425600	27.705563	0.000282	20.846502
2397.649027	-3.018900	3.139900	-9.477500	27.737475	0.000279	20.845425
2398.648312	-3.012300	3.137400	-9.448800	27.769982	0.000282	20.859645
2399.649484	-2.975600	3.139100	-9.339800	27.780694	0.000280	20.845770
2400.650883	-3.007900	3.136500	-9.434000	27.780094	0.000281	20.846115
2401.648695	-3.012800	3.135400	-9.444900	27.763404	0.000277	20.826474
2402.651143	-3.016300	3.134200	-9.452000	27.714252	0.000279	20.832487
2403.648758	-2.980300	3.134100	-9.339800	27.683350	0.000280	20.835530
2404.648443	-3.006500	3.134300	-9.422600	27.680866	0.000278	20.830185
2405.651347	-2.983700	3.134900	-9.351600	27.698968	0.000280	20.836072
2406.649582	-3.013200	3.132100	-9.436400	27.644701	0.000279	20.832200
2407.651945	-3.001500	3.131800	-9.398900	27.628283	0.000279	20.843655
2408.652376	-3.003700	3.130200	-9.401000	27.578279	0.000276	20.825584
2409.652420	-3.018600	3.129200	-9.445000	27.537951	0.000278	20.822466
2410.650970	-3.024900	3.129800	-9.466500	27.514110	0.000278	20.836411
2411.650370	-3.012800	3.127900	-9.423200	27.522964	0.000276	20.839155
2412.657455	-3.035000	3.126900	-9.488900	27.548016	0.000277	20.843972
2413.658260	-3.044400	3.126200	-9.515400	27.562550	0.000276	20.821612
2414.654204	-3.001400	3.125000	-9.378300	27.550122	0.000277	20.829496
2415.658983	-2.962100	3.126500	-9.260200	27.552503	0.000276	20.828573
2416.657843	-3.009300	3.125600	-9.405100	27.573810	0.000275	20.813501
2417.656265	-2.992000	3.123600	-9.345100	27.552325	0.000275	20.824126
2418.660367	-2.976300	3.123400	-9.295600	27.558676	0.000275	20.820085
2419.659740	-2.973700	3.123200	-9.286600	27.556816	0.000276	20.837179
2420.655912	-2.988800	3.121500	-9.328600	27.565717	0.000275	20.819583
2421.660738	-3.016400	3.121300	-9.413400	27.614358	0.000272	20.826799
2422.659744	-2.999900	3.120400	-9.360400	27.656018	0.000274	20.823200
2423.657292	-3.016400	3.118800	-9.406100	27.640000	0.000273	20.820832
2424.661104	-3.000400	3.118200	-9.354000	27.658299	0.000272	20.828814
2425.661937	-3.003900	3.118700	-9.367100	27.654651	0.000273	20.813764
2426.657299	-3.008600	3.117000	-9.376600	27.681734	0.000274	20.821102
2427.660370	-3.012900	3.116600	-9.388700	27.715657	0.000272	20.821573
2428.662456	-3.007100	3.116100	-9.369300	27.730810	0.000271	20.819752
2429.658228	-3.000700	3.115100	-9.346500	27.730610	0.000273	20.816706
2430.661938	-3.003600	3.114200	-9.351900	27.742318	0.000270	20.808099
2431.661193	-2.990800	3.113600	-9.310800	27.742985	0.000272	20.809245
2432.661080	-3.014200	3.109300	-9.370400	27.766543	0.000270	20.821573
2433.662582	-3.001500	3.111400	-9.337300	27.787124	0.000269	20.812888
2434.662950	-2.974800	3.111100	-9.253000	27.836123	0.000269	20.826164
2435.660795	-2.974600	3.110700	-9.251900	27.843957	0.000269	20.813660
2436.664423	-2.986100	3.108200	-9.279900	27.836594	0.000269	20.801034
2437.667660	-2.990700	3.108300	-9.293600	27.835652	0.000268	20.805775
2438.660539	-2.990200	3.106500	-9.287600	27.832154	0.000267	20.806048
2439.664666	-3.011100	3.106300	-9.352200	27.858316	0.000267	20.797765
2440.667196	-3.010700	3.104900	-9.347200	27.879716	0.000268	20.815984
2441.667927	-2.997400	3.104900	-9.305100	27.831165	0.000268	20.836347
2442.665636	-3.029800	3.102100	-9.397800	27.813858	0.000266	20.789058
2443.666321	-3.006700	3.101900	-9.326000	27.714493	0.000266	20.828462
2444.662353	-3.027700	3.100400	-9.386300	27.717370	0.000266	20.803857
2445.663975	-3.012400	3.100100	-9.337900	27.744352	0.000267	20.817733
2446.665292	-2.995900	3.100100	-9.286300	27.740236	0.000264	20.816436
2447.668691	-2.992300	3.099600	-9.273200	27.742642	0.000266	20.797995
2448.666013	-2.983100	3.099100	-9.244200	27.713879	0.000264	20.817887
2449.665009	-2.989600	3.097600	-9.259800	27.697930	0.000263	20.794252
2450.664428	-3.011800	3.096300	-9.323300	27.724070	0.000265	20.812021
2451.666762	-3.009600	3.094900	-9.312800	27.700289	0.000262	20.798048
2452.665114	-3.001000	3.094300	-9.284600	27.693193	0.000266	20.807503
2453.665213	-2.987000	3.095300	-9.245100	27.669262	0.000264	20.800965
2454.665312	-3.009800	3.093300	-9.310200	27.631265	0.000263	20.792603
2455.665494	-2.994700	3.092500	-9.259800	27.605940	0.000262	20.820700
2456.664849	-2.975700	3.092200	-9.199300	27.574938	0.000262	20.820326
2457.667631	-3.020500	3.089900	-9.331200	27.555492	0.000263	20.784165
2458.666120	-2.981700	3.090100	-9.212700	27.558988	0.000261	20.799062
2459.665157	-3.000200	3.088600	-9.265700	27.553629	0.000262	20.806946
2460.666995	-2.987400	3.087500	-9.222100	27.527956	0.000262	20.802927
2461.666768	-2.994100	3.087300	-9.242600	27.552633	0.000262	20.804048
2462.665814	-3.007800	3.086700	-9.283500	27.558385	0.000261	20.825482
2463.667768	-2.972900	3.086100	-9.173700	27.565404	0.000259	20.783232
2464.665586	-3.009100	3.083600	-9.277500	27.567507	0.000260	20.811901
2465.667732	-3.003600	3.083100	-9.259200	27.566389	0.000261	20.811251
2466.668855	-3.002600	3.082600	-9.255400	27.593397	0.000260	20.809976
2467.666796	-2.997900	3.080700	-9.235100	27.629750	0.000263	20.793923
2468.668306	-2.977700	3.080500	-9.172200	27.667347	0.000261	20.783391
2469.668789	-2.996300	3.080300	-9.228800	27.727088	0.000260	20.787558
2470.668607	-3.003000	3.079300	-9.246100	27.735591	0.000260	20.807968
2471.668739	-2.997700	3.076800	-9.222600	27.713471	0.000260	20.808468
2472.672661	-3.005400	3.075700	-9.242800	27.729934	0.000262	20.802749
2473.669771	-3.008400	3.075900	-9.252800	27.750044	0.000262	20.798805
2474.671528	-2.995200	3.074600	-9.207200	27.737915	0.000261	20.792290
2475.672035	-3.020600	3.072100	-9.278400	27.734417	0.000260	20.794459
2476.670382	-3.010500	3.070700	-9.243500	27.760700	0.000260	20.807632
2477.668783	-3.008700	3.070300	-9.236500	27.763102	0.000259	20.804360
2478.672237	-3.016600	3.070600	-9.261600	27.784183	0.000259	20.786219
2479.668752	-3.001400	3.069400	-9.211500	27.762852	0.000261	20.778030
2480.671080	-3.025400	3.067200	-9.277900	27.729125	0.000260	20.793875
2481.672036	-3.020100	3.067600	-9.262200	27.739912	0.000259	20.796669
2482.670643	-3.006300	3.065300	-9.214600	27.749235	0.000259	20.781396
2483.667019	-3.005700	3.066700	-9.216300	27.776488	0.000260	20.803606
2484.671999	-2.997900	3.064100	-9.184600	27.779311	0.000259	20.792697
2485.669821	-3.020900	3.063400	-9.253200	27.765273	0.000258	20.783785
2486.669625	-3.019200	3.062300	-9.244300	27.766509	0.000258	20.779813
2487.670730	-2.999900	3.061100	-9.182100	27.817568	0.000258	20.775247
2488.669965	-2.957900	3.060500	-9.051500	27.808784	0.000259	20.776365
2489.669623	-3.006400	3.058600	-9.194300	27.753438	0.000258	20.794634
2490.671407	-2.987300	3.058500	-9.135600	27.760031	0.000258	20.788941
2491.671763	-2.974500	3.057400	-9.093400	27.762062	0.000257	20.771070
2492.671918	-2.989300	3.056800	-9.135600	27.769226	0.000257	20.781125
2493.673101	-3.023300	3.053000	-9.228300	27.838830	0.000258	20.775783
2494.675086	-3.014300	3.051900	-9.198200	27.863971	0.000257	20.785439
2495.675830	-2.973400	3.054100	-9.079500	27.882292	0.000258	20.790601
2496.676871	-3.005300	3.051200	-9.168500	27.880108	0.000258	20.782239
2497.676305	-2.990300	3.050300	-9.120300	27.900141	0.000258	20.753089
2498.675491	-3.018700	3.049000	-9.203300	27.875765	0.000258	20.774549
2499.678009	-2.975500	3.048200	-9.069700	27.859450	0.000256	20.771405
2500.674445	-2.991000	3.047900	-9.114800	27.813201	0.000258	20.777017
2501.675528	-2.981600	3.045500	-9.079900	27.810418	0.000256	20.756197
2502.674994	-2.995300	3.044800	-9.119900	27.789984	0.000257	20.764556
2503.676535	-2.997700	3.044600	-9.126000	27.759905	0.000255	20.754200
2504.675460	-3.011300	3.041500	-9.157700	27.752313	0.000254	20.765052
2505.675280	-2.996100	3.041600	-9.111600	27.771178	0.000255	20.795891
2506.676804	-3.004300	3.040500	-9.133700	27.825581	0.000256	20.769087
2507.676877	-2.968600	3.040800	-9.025000	27.840533	0.000255	20.772281
2508.677098	-2.983200	3.038100	-9.062000	27.872591	0.000254	20.766139
2509.679087	-2.993200	3.037900	-9.091700	27.881735	0.000254	20.775342
2510.684028	-2.967800	3.036600	-9.010700	27.897603	0.000256	20.785623
2511.680284	-3.009700	3.034700	-9.132400	27.903549	0.000254	20.758891
2512.681589	-3.001400	3.033000	-9.100900	27.925317	0.000254	20.752350
2513.681087	-2.998800	3.032800	-9.093600	27.933571	0.000257	20.746908
2514.682163	-2.989800	3.031700	-9.063300	27.946809	0.000254	20.762602
2515.682953	-2.959300	3.032300	-8.971500	27.973061	0.000255	20.771009
2516.680614	-3.013700	3.027900	-9.122600	27.979107	0.000254	20.765714
2517.681242	-2.994200	3.028100	-9.065400	27.987439	0.000254	20.770782
2518.681337	-3.037100	3.025200	-9.185700	27.997824	0.000254	20.756105
2519.682372	-2.974400	3.026300	-8.999900	28.006200	0.000254	20.756476
2520.683118	-2.995700	3.023100	-9.055800	28.025782	0.000252	20.770497
2521.683042	-2.990100	3.022900	-9.037600	28.062941	0.000256	20.780875
2522.683091	-2.965700	3.022800	-8.963200	28.075877	0.000253	20.751696
2523.683250	-2.987000	3.020300	-9.020200	28.093479	0.000254	20.756140
2524.683106	-3.009600	3.018500	-9.083400	28.133337	0.000254	20.782988
2525.686005	-3.021600	3.016500	-9.113600	28.105944	0.000253	20.761101
2526.682225	-3.008900	3.015400	-9.073100	28.089826	0.000254	20.762420
2527.686041	-3.004300	3.015800	-9.059800	28.035433	0.000251	20.743701
2528.685744	-3.004300	3.013900	-9.052800	27.958576	0.000253	20.749790
2529.683980	-3.023100	3.012100	-9.105800	27.854460	0.000252	20.739355
2530.686183	-3.019800	3.010600	-9.090100	27.830779	0.000250	20.752032
2531.684647	-3.000000	3.011100	-9.031500	27.782494	0.000252	20.746113
2532.682746	-3.018500	3.010200	-9.085400	27.787702	0.000251	20.760363
2533.686786	-2.985500	3.008300	-8.980200	27.738601	0.000252	20.740822
2534.684959	-3.016000	3.007700	-9.070400	27.754992	0.000250	20.731238
2535.682463	-2.990400	3.005600	-8.987600	27.771926	0.000251	20.747331
2536.689860	-2.994000	3.004900	-8.994900	27.788367	0.000251	20.752023
2537.689142	-2.957600	3.004800	-8.885300	27.810557	0.000252	20.735474
2538.683696	-3.014600	3.001300	-9.046300	27.781097	0.000252	20.749922
2539.684486	-3.023900	3.000600	-9.072300	27.776210	0.000252	20.753540
2540.687096	-2.997400	2.998600	-8.987500	27.793019	0.000250	20.761447
2541.685582	-2.985000	2.998100	-8.948400	27.761005	0.000252	20.738237
2542.685413	-3.017200	2.995400	-9.036400	27.753292	0.000251	20.741381
2543.685848	-2.982800	2.995200	-8.932600	27.781980	0.000251	20.737534
2544.688626	-2.976400	2.994800	-8.912600	27.759910	0.000252	20.739032
2545.686592	-2.968800	2.993700	-8.886700	27.802314	0.000253	20.735713
2546.686531	-2.984100	2.992000	-8.927200	27.771861	0.000252	20.728298
2547.687073	-3.018800	2.990600	-9.027300	27.770915	0.000251	20.754849
2548.688250	-2.974800	2.989500	-8.892500	27.773518	0.000251	20.744665
2549.686344	-3.028000	2.986100	-9.040600	27.809004	0.000250	20.735333
2550.685777	-3.001800	2.986100	-8.962900	27.835337	0.000249	20.727696
2551.686606	-3.011000	2.983700	-8.982500	27.816841	0.000252	20.723305
2552.690226	-3.004700	2.983500	-8.963600	27.804389	0.000253	20.718834
2553.692572	-2.976100	2.981800	-8.873300	27.771237	0.000252	20.764656
2554.689791	-3.000000	2.980700	-8.940700	27.744574	0.000252	20.723598
2555.690141	-2.989300	2.978700	-8.903300	27.717221	0.000251	20.738746
2556.687821	-2.985900	2.979200	-8.894800	27.701597	0.000254	20.745784
2557.690039	-2.997200	2.976700	-8.920600	27.739613	0.000252	20.735675
2558.689226	-3.000500	2.974700	-8.924500	27.802945	0.000252	20.739666
2559.686819	-2.995800	2.973900	-8.907600	27.844726	0.000253	20.726239
2560.689058	-3.002000	2.971700	-8.919000	27.853777	0.000252	20.716855
2561.690157	-3.008800	2.970100	-8.935400	27.897194	0.000251	20.722621
2562.687850	-2.999400	2.968800	-8.903600	27.867911	0.000252	20.731555
2563.691434	-3.006900	2.966400	-8.918500	27.889432	0.000253	20.719076
2564.688982	-2.991700	2.966500	-8.873800	27.869196	0.000251	20.742333
2565.690642	-3.019000	2.964100	-8.947400	27.848816	0.000252	20.717553
2566.692249	-2.989000	2.964000	-8.858500	27.827463	0.000252	20.736366
2567.690845	-3.016600	2.962800	-8.936600	27.802149	0.000253	20.715631
2568.691650	-3.010000	2.961000	-8.911300	27.794957	0.000253	20.738266
2569.692917	-2.981100	2.959300	-8.820500	27.863689	0.000254	20.721616
2570.694363	-3.029400	2.957000	-8.957200	27.891934	0.000253	20.714956
2571.692088	-3.006200	2.956000	-8.885000	27.941050	0.000254	20.734520
2572.695517	-2.989600	2.955300	-8.834200	27.997329	0.000252	20.710085
2573.693500	-2.997000	2.953900	-8.851800	28.015481	0.000250	20.711288
2574.694537	-3.033900	2.951700	-8.954500	28.044015	0.000250	20.712509
2575.695073	-3.031000	2.948900	-8.937200	28.059213	0.000251	20.733025
2576.698536	-3.006500	2.948100	-8.862100	28.052644	0.000250	20.721670
2577.693957	-2.998800	2.948300	-8.839700	28.048404	0.000252	20.722144
2578.695186	-3.015300	2.945300	-8.880000	28.017191	0.000251	20.740985
2579.698085	-3.005800	2.943800	-8.847400	27.990066	0.000248	20.714155
2580.696507	-3.010700	2.941200	-8.854400	27.911025	0.000250	20.721368
2581.698073	-2.994400	2.941000	-8.806000	27.904233	0.000252	20.740612
2582.697891	-2.996300	2.939900	-8.807600	27.896271	0.000252	20.708889
2583.695150	-3.010200	2.938400	-8.843400	27.894811	0.000250	20.714057
2584.698591	-3.009700	2.936600	-8.837000	27.907702	0.000250	20.727033
2585.698610	-2.997700	2.935600	-8.798900	27.957066	0.000252	20.718872
2586.696431	-2.994900	2.932100	-8.779800	28.001518	0.000249	20.726631
2587.701838	-2.995100	2.932800	-8.782900	27.997376	0.000249	20.733841
2588.701634	-3.061500	2.928200	-8.963400	27.973304	0.000250	20.718146
2589.697258	-2.991500	2.928800	-8.759500	27.957831	0.000250	20.723435
2590.704132	-3.014900	2.926700	-8.823200	28.002904	0.000251	20.748890
2591.700944	-3.007900	2.924400	-8.794500	28.046808	0.000250	20.727649
2592.698133	-2.988500	2.924600	-8.739400	28.082135	0.000250	20.726226
2593.703544	-3.025800	2.921700	-8.840000	28.112205	0.000250	20.724254
2594.702881	-3.005300	2.920400	-8.775300	28.139270	0.000251	20.731587
2595.697918	-3.003100	2.918900	-8.763700	28.167704	0.000249	20.711373
2596.701438	-2.983500	2.917500	-8.702800	28.153771	0.000249	20.725796
2597.699949	-3.012000	2.915200	-8.778500	28.109647	0.000252	20.711722
2598.698724	-2.999200	2.912500	-8.734300	28.046820	0.000249	20.706324
2599.701418	-2.982100	2.912100	-8.681800	28.062611	0.000248	20.727910
2600.699586	-2.990700	2.909900	-8.701400	28.101063	0.000248	20.704028
2601.700929	-2.994600	2.910100	-8.712200	28.116132	0.000251	20.718251
2602.704270	-3.010400	2.907000	-8.750800	28.096968	0.000249	20.711760
2603.705647	-3.015800	2.905000	-8.759300	28.077902	0.000249	20.732398
2604.701086	-2.998900	2.903800	-8.707400	28.075348	0.000249	20.721765
2605.703654	-2.956700	2.902800	-8.581500	28.074799	0.000250	20.710306
2606.701993	-2.988800	2.900000	-8.666400	28.072147	0.000251	20.724707
2607.700490	-3.011700	2.897500	-8.725300	28.086225	0.000251	20.729870
2608.705466	-3.003800	2.895300	-8.695600	28.060044	0.000249	20.721533
2609.706410	-2.973100	2.894600	-8.605000	28.101962	0.000248	20.714891
2610.703371	-3.024400	2.893100	-8.749200	28.135475	0.000250	20.727292
2611.708847	-2.980800	2.891800	-8.618400	28.165394	0.000249	20.721376
2612.705130	-3.000600	2.891000	-8.673600	28.170697	0.000248	20.711541
2613.705690	-2.992300	2.887900	-8.640700	28.171489	0.000247	20.721822
2614.707542	-2.995300	2.885600	-8.642400	28.138071	0.000249	20.734647
2615.705557	-3.001800	2.883200	-8.654000	28.086903	0.000247	20.742407
2616.706238	-3.002300	2.883600	-8.656400	28.105862	0.000247	20.719766
2617.707562	-3.010800	2.881200	-8.673400	28.136350	0.000250	20.712524
2618.705969	-2.996900	2.880000	-8.629100	28.173657	0.000249	20.721634
2619.705379	-3.005200	2.876300	-8.642700	28.211407	0.000248	20.723603
2620.705437	-2.988200	2.875500	-8.591500	28.230985	0.000249	20.742841
2621.712085	-3.010900	2.871100	-8.643100	28.195120	0.000250	20.742769
2622.709330	-2.988700	2.872300	-8.583400	28.236611	0.000249	20.728590
2623.707147	-2.981000	2.868000	-8.548400	28.253216	0.000249	20.711642
2624.708285	-2.961500	2.867500	-8.489900	28.261594	0.000248	20.716284
2625.705888	-2.977000	2.865400	-8.528600	28.248750	0.000250	20.726113
2626.706726	-3.001100	2.861700	-8.587000	28.245401	0.000249	20.729853
2627.708357	-2.993600	2.861500	-8.564700	28.229095	0.000247	20.753267
2628.708260	-3.017500	2.858000	-8.623000	28.289148	0.000250	20.718897
2629.708722	-3.010000	2.857900	-8.600000	28.338545	0.000248	20.726908
2630.710730	-2.994200	2.855500	-8.548600	28.378571	0.000249	20.726908
2631.707780	-2.983300	2.854000	-8.513300	28.307933	0.000250	20.720741
2632.708562	-2.983400	2.852400	-8.509200	28.265577	0.000248	20.723614
2633.711261	-2.999600	2.847800	-8.541600	28.252016	0.000251	20.721340
2634.708095	-3.035200	2.844800	-8.633100	28.219595	0.000249	20.738960
2635.707901	-3.015100	2.844300	-8.574800	28.249811	0.000249	20.730500
2636.712679	-2.961900	2.844000	-8.422800	28.276976	0.000249	20.728927
2637.709950	-3.041900	2.840600	-8.639400	28.290287	0.000249	20.738062
2638.710428	-3.024300	2.838800	-8.584700	28.303420	0.000246	20.727103
2639.714260	-2.995100	2.835800	-8.490900	28.323672	0.000247	20.727106
2640.710509	-3.016100	2.833000	-8.544200	28.355516	0.000248	20.745420
2641.710406	-3.011900	2.830900	-8.525600	28.367192	0.000249	20.732046
2642.713286	-3.015900	2.829600	-8.532800	28.401464	0.000248	20.730046
2643.711022	-2.993300	2.827900	-8.463300	28.462555	0.000249	20.738458
2644.709818	-3.001900	2.825700	-8.481800	28.483541	0.000249	20.744893
2645.715030	-2.984300	2.823400	-8.423900	28.518108	0.000251	20.726124
2646.711832	-2.993700	2.821400	-8.445000	28.498832	0.000249	20.729471
2647.710520	-2.992000	2.819000	-8.433200	28.474666	0.000249	20.724101
2648.717966	-2.996200	2.817400	-8.439200	28.447061	0.000250	20.721906
2649.713363	-3.007600	2.814500	-8.463600	28.439552	0.000250	20.735683
2650.712240	-3.004200	2.811100	-8.444400	28.471395	0.000249	20.749258
2651.715797	-2.996000	2.810200	-8.418500	28.515136	0.000249	20.727398
2652.724206	-3.020000	2.806300	-8.473400	28.536642	0.000248	20.735306
2653.712010	-3.030100	2.803700	-8.493800	28.586473	0.000250	20.732385
2654.719416	-3.012400	2.802600	-8.440900	28.584094	0.000249	20.759862
2655.712182	-2.988800	2.800000	-8.367700	28.581194	0.000250	20.749830
2656.713548	-2.988800	2.797800	-8.360700	28.554533	0.000250	20.749531
2657.714953	-2.983400	2.795800	-8.339200	28.495034	0.000248	20.752200
2658.713114	-3.023400	2.790500	-8.435700	28.459674	0.000248	20.734609
2659.712708	-2.994100	2.789800	-8.351700	28.396874	0.000248	20.739175
2660.716462	-2.993500	2.786800	-8.341000	28.359724	0.000251	20.750131
2661.714296	-3.009000	2.784000	-8.376400	28.341830	0.000250	20.750131
2662.711670	-3.014700	2.781000	-8.382600	28.350874	0.000249	20.722252
2663.720631	-2.994600	2.780600	-8.326000	28.330630	0.000248	20.761140
2664.715039	-2.995600	2.775500	-8.313200	28.284998	0.000250	20.729418
2665.720686	-2.964800	2.774500	-8.224600	28.245342	0.000253	20.759667
2666.720850	-2.996300	2.770900	-8.301900	28.252260	0.000249	20.749088
2667.722990	-2.985800	2.767600	-8.263100	28.230793	0.000248	20.736957
2668.715828	-3.008800	2.764000	-8.314400	28.241771	0.000248	20.732837
2669.720713	-3.017200	2.759300	-8.324800	28.246384	0.000253	20.754552
2670.722305	-2.995200	2.760100	-8.264500	28.245096	0.000249	20.760368
2671.718332	-3.001400	2.754800	-8.266600	28.247575	0.000249	20.744845
2672.721940	-3.000600	2.751500	-8.254700	28.233547	0.000247	20.753481
2673.717615	-2.976000	2.750500	-8.184200	28.198053	0.000248	20.764214
2674.719627	-2.994100	2.745700	-8.219700	28.244753	0.000248	20.761919
2675.725120	-2.995500	2.743500	-8.217100	28.257097	0.000248	20.762967
2676.722223	-2.980600	2.739800	-8.164600	28.316733	0.000250	20.734344
2677.719833	-3.011800	2.735500	-8.237300	28.363378	0.000248	20.753336
2678.720306	-2.961900	2.735800	-8.101800	28.431110	0.000248	20.764167
2679.720573	-3.005200	2.731500	-8.207000	28.478470	0.000248	20.728880
2680.719315	-2.986300	2.727400	-8.144500	28.518269	0.000250	20.752366
2681.717407	-2.996900	2.722700	-8.159700	28.525107	0.000249	20.757830
2682.731708	-2.990500	2.721000	-8.135900	28.494210	0.000249	20.767966
2683.718184	-2.979900	2.718200	-8.099200	28.494307	0.000249	20.750045
2684.716766	-2.992800	2.714600	-8.123000	28.503555	0.000249	20.758410
2685.718567	-3.015700	2.710900	-8.173700	28.477487	0.000248	20.751125
2686.718949	-2.978900	2.706400	-8.061500	28.455357	0.000247	20.755867
2687.721129	-2.985800	2.703100	-8.069600	28.464079	0.000247	20.777452
2688.721607	-3.029800	2.698700	-8.175300	28.470995	0.000250	20.756441
2689.724340	-2.986500	2.696500	-8.052700	28.521820	0.000247	20.757839
2690.720721	-3.005700	2.691400	-8.089100	28.565759	0.000247	20.761786
2691.728210	-3.006000	2.687800	-8.078400	28.555451	0.000249	20.771793
2692.721024	-3.023400	2.683900	-8.113700	28.570195	0.000251	20.764357
2693.724836	-2.996200	2.680400	-8.029100	28.623943	0.000249	20.781031
2694.727092	-2.969600	2.679000	-7.954900	28.637300	0.000249	20.755602
2695.722386	-2.992800	2.673900	-8.001700	28.613190	0.000247	20.772572
2696.721319	-3.014900	2.669600	-8.047800	28.611332	0.000248	20.771174
2697.724260	-3.005100	2.665200	-8.008700	28.673327	0.000250	20.767233
2698.722811	-3.033400	2.659600	-8.066000	28.675064	0.000248	20.774672
2699.721426	-3.004900	2.656300	-7.980500	28.681804	0.000247	20.785255
2700.728124	-3.009500	2.652600	-7.981500	28.651850	0.000249	20.775473
2701.725270	-3.001600	2.650100	-7.954000	28.650241	0.000248	20.773853
2702.726575	-3.021900	2.643300	-7.987200	28.688743	0.000248	20.770907
2703.731249	-2.958100	2.641300	-7.811800	28.698529	0.000245	20.786928
2704.723552	-3.002100	2.636500	-7.913900	28.679603	0.000249	20.769287
2705.723700	-3.018500	2.630500	-7.937800	28.640822	0.000250	20.780962
2706.729627	-2.973000	2.628600	-7.814200	28.650116	0.000250	20.792219
2707.726240	-2.992500	2.621500	-7.844700	28.625215	0.000251	20.780890
2708.727053	-2.995100	2.617700	-7.838700	28.657302	0.000248	20.781439
2709.727222	-2.988500	2.612000	-7.804400	28.673557	0.000248	20.791173
2710.731684	-3.023400	2.606700	-7.880000	28.675883	0.000249	20.782136
2711.725751	-2.953700	2.603100	-7.686300	28.737822	0.000250	20.784306
2712.727326	-2.981200	2.597400	-7.742300	28.785043	0.000248	20.787776
2713.727327	-3.007000	2.592600	-7.795100	28.806970	0.000249	20.775250
2714.727562	-2.986700	2.587100	-7.726100	28.780508	0.000250	20.806441
2715.728498	-2.997200	2.581900	-7.737900	28.779492	0.000249	20.791667
2716.726803	-2.978200	2.577400	-7.674900	28.792500	0.000247	20.782485
2717.728870	-3.000500	2.568700	-7.706300	28.824186	0.000248	20.788325
2718.731426	-3.005700	2.565000	-7.708600	28.754173	0.000249	20.796983
2719.727401	-3.026800	2.560200	-7.747200	28.758830	0.000251	20.783656
2720.728519	-3.026800	2.552600	-7.724400	28.796487	0.000250	20.812105
2721.733158	-3.000700	2.547500	-7.643600	28.847322	0.000249	20.807364
2722.734681	-2.988900	2.541700	-7.596200	28.893101	0.000252	20.813653
2723.731636	-2.970700	2.537100	-7.536200	28.883043	0.000249	20.781709
2724.733745	-2.990100	2.529800	-7.563700	28.856140	0.000250	20.792066
2725.732566	-2.998200	2.522800	-7.563400	28.890302	0.000249	20.797557
2726.732374	-2.996900	2.517900	-7.545100	28.918096	0.000250	20.806117
2727.736564	-3.009500	2.513000	-7.561700	28.921836	0.000250	20.794238
2728.733801	-3.040800	2.504000	-7.613300	28.952375	0.000250	20.804142
2729.732612	-2.995500	2.500100	-7.487900	28.902661	0.000251	20.804318
2730.734992	-3.012800	2.492300	-7.507100	28.872193	0.000251	20.808711
