LabVIEW Measurement	
Writer_Version	2
Reader_Version	2
Separator	Tab
Decimal_Separator	.
Multi_Headings	No
X_Columns	One
Time_Pref	Absolute
Operator	admin
Description	Clolumns are: time, Current, Voltage, Power, Battery Temp, and Chamber Temp
Date	2024/08/16
Time	13:06:06.104549407958984375
***End_of_Header***	
	
Channels	6						
Samples	1	1	1	1	1	1	
Date	2024/08/22	2024/08/22	2024/08/22	2024/08/22	2024/08/22	2024/08/22	
Time	14:36:09.9292278289794921875	14:36:09.9462270736694335938	14:36:09.9522271156311035157	14:36:09.9142289161682128906	14:36:09.9142289161682128906	14:36:09.9142289161682128906	
X_Dimension	Time	Time	Time	Time	Time	Time	
X0	0.0000000000000000E+0	0.0000000000000000E+0	0.0000000000000000E+0	0.0000000000000000E+0	0.0000000000000000E+0	0.0000000000000000E+0	
Delta_X	1.000000	1.000000	1.000000	1.000000	1.000000	1.000000	
***End_of_Header***							
X_Value	Untitled	Untitled 1	Untitled 2	Untitled 3	Untitled 4	Untitled 5	Comment
0.000000	0.011489	4.110700	0.047200	21.059749	0.000989	20.804210
1.003998	-3.006600	3.957600	-11.897000	21.055482	0.000989	20.820804
2.000998	-3.007000	3.949100	-11.874000	21.043754	0.000987	20.811445
3.000422	-3.003500	3.944400	-11.846000	21.031128	0.000985	20.812093
3.999425	-2.999600	3.939200	-11.815000	21.066880	0.000987	20.814661
5.000524	-2.977400	3.937400	-11.723000	21.044825	0.000986	20.816783
6.003788	-3.007300	3.933200	-11.828000	21.048466	0.000985	20.811416
7.001126	-3.002200	3.930500	-11.799000	21.051210	0.000983	20.812264
8.000212	-2.984200	3.930300	-11.727000	21.049638	0.000983	20.822071
9.015218	-3.000700	3.927000	-11.782000	21.041677	0.000983	20.799885
10.001262	-3.005300	3.924800	-11.794000	21.070968	0.000982	20.801681
11.002544	-3.012700	3.922500	-11.817000	21.042499	0.000983	20.797388
12.003203	-3.003400	3.922800	-11.780000	21.054950	0.000981	20.804151
13.003145	-3.005800	3.919900	-11.781000	21.051654	0.000978	20.806070
14.002140	-2.974700	3.920400	-11.660000	21.064303	0.000980	20.803549
15.002936	-2.991500	3.916800	-11.717000	21.063154	0.000980	20.799556
16.004433	-3.001000	3.915700	-11.749000	21.055568	0.000976	20.792916
17.005116	-2.997100	3.916000	-11.735000	21.069915	0.000977	20.784032
18.009435	-3.007000	3.914900	-11.771000	21.101848	0.000975	20.783731
19.009362	-2.988900	3.912500	-11.693000	21.082062	0.000977	20.777690
20.007884	-2.980500	3.913200	-11.662000	21.061879	0.000975	20.771727
21.006405	-3.019100	3.910200	-11.804000	21.103542	0.000976	20.786374
22.008115	-2.993500	3.911100	-11.707000	21.084530	0.000974	20.788694
23.011550	-2.992600	3.909600	-11.699000	21.089544	0.000973	20.787545
24.008782	-2.992900	3.909200	-11.699000	21.108579	0.000974	20.792835
25.007364	-3.003600	3.908100	-11.737000	21.116936	0.000971	20.791711
26.007367	-3.005600	3.907000	-11.742000	21.106757	0.000971	20.787219
27.008636	-2.997400	3.905900	-11.705000	21.122822	0.000971	20.797124
28.009004	-2.995100	3.905600	-11.696000	21.137641	0.000969	20.800093
29.008986	-3.003700	3.906900	-11.735000	21.129781	0.000971	20.804559
30.007984	-2.990000	3.904800	-11.674000	21.127185	0.000968	20.806704
31.008986	-3.010100	3.903600	-11.749000	21.149538	0.000969	20.794451
32.013669	-2.971300	3.904200	-11.599000	21.124838	0.000969	20.793925
33.009688	-2.995500	3.903000	-11.690000	21.151533	0.000968	20.770368
34.009391	-2.984600	3.902800	-11.647000	21.153177	0.000964	20.781495
35.010701	-2.996200	3.901000	-11.687000	21.179197	0.000966	20.779074
36.009403	-3.004200	3.900400	-11.716000	21.168893	0.000967	20.780620
37.028679	-2.998700	3.899700	-11.693000	21.166870	0.000965	20.790451
38.020152	-2.996200	3.900000	-11.685000	21.175028	0.000965	20.791025
39.010996	-3.010700	3.899000	-11.738000	21.181538	0.000965	20.789002
40.015264	-3.012300	3.899300	-11.745000	21.181437	0.000964	20.777047
41.016684	-2.998500	3.899800	-11.692000	21.196928	0.000964	20.766465
42.011026	-3.033000	3.897100	-11.820000	21.190615	0.000962	20.769159
43.015027	-3.002600	3.897600	-11.701000	21.193657	0.000962	20.779314
44.016919	-2.984800	3.897600	-11.632000	21.187670	0.000963	20.761945
45.014929	-2.990100	3.897500	-11.653000	21.214561	0.000961	20.771777
46.015636	-2.998200	3.896500	-11.682000	21.224014	0.000960	20.770802
47.014598	-3.013200	3.895000	-11.735000	21.204905	0.000960	20.783928
48.014600	-2.983400	3.895800	-11.621000	21.213983	0.000961	20.761715
49.018078	-2.994600	3.894900	-11.663000	21.231671	0.000960	20.777513
50.017076	-2.975000	3.895500	-11.587000	21.251001	0.000959	20.754176
51.021075	-3.010200	3.895300	-11.725000	21.229846	0.000959	20.775214
52.019479	-2.984100	3.895800	-11.624000	21.238103	0.000960	20.772568
53.017988	-3.014500	3.892600	-11.733000	21.225304	0.000957	20.757867
54.026542	-3.010900	3.893600	-11.722000	21.241192	0.000958	20.756691
55.017540	-3.012500	3.893900	-11.730000	21.251894	0.000959	20.778778
56.018707	-3.009000	3.892600	-11.712000	21.239618	0.000959	20.774083
57.020796	-3.005800	3.891800	-11.697000	21.256606	0.000958	20.766421
58.018443	-3.016500	3.892100	-11.740000	21.269603	0.000956	20.759983
59.023727	-3.008400	3.892300	-11.709000	21.249444	0.000957	20.757360
60.021728	-3.021300	3.891200	-11.756000	21.287859	0.000957	20.748375
61.020919	-3.010600	3.890900	-11.714000	21.286985	0.000958	20.765993
62.020919	-2.999200	3.890500	-11.666000	21.287906	0.000957	20.765018
63.022034	-2.976300	3.890300	-11.578000	21.288379	0.000958	20.749844
64.024498	-3.005100	3.890100	-11.688000	21.306239	0.000955	20.777670
65.023495	-2.996400	3.889800	-11.655000	21.298156	0.000954	20.724536
66.021901	-3.007100	3.888300	-11.691000	21.334174	0.000955	20.753934
67.038425	-2.991600	3.889800	-11.636000	21.309330	0.000955	20.757527
68.022245	-2.983500	3.890500	-11.605000	21.316962	0.000956	20.736238
69.021336	-2.997600	3.888300	-11.654000	21.315040	0.000956	20.749489
70.025107	-2.979600	3.889900	-11.589000	21.325690	0.000956	20.758722
71.023227	-2.987000	3.889200	-11.616000	21.332025	0.000955	20.748465
72.023225	-2.995000	3.886200	-11.638000	21.352503	0.000953	20.761366
73.025022	-3.003300	3.888200	-11.677000	21.354747	0.000954	20.763137
74.026452	-2.995400	3.887700	-11.645000	21.348087	0.000954	20.747464
75.028407	-3.009500	3.886500	-11.695000	21.359335	0.000956	20.728371
76.025631	-2.995300	3.887400	-11.643000	21.344268	0.000954	20.742221
77.024632	-3.016100	3.886200	-11.720000	21.370932	0.000955	20.738552
78.027566	-3.005500	3.886700	-11.681000	21.387868	0.000953	20.752178
79.024402	-2.979300	3.886600	-11.578000	21.377291	0.000954	20.742543
80.025603	-2.996200	3.885600	-11.641000	21.399914	0.000954	20.748582
81.034783	-2.969800	3.886600	-11.541000	21.411111	0.000952	20.746509
82.027776	-2.985900	3.885800	-11.602000	21.412158	0.000955	20.752299
83.026299	-3.036300	3.883300	-11.790000	21.404949	0.000954	20.726593
84.026299	-2.992700	3.885500	-11.626000	21.422358	0.000952	20.736899
85.029153	-2.993900	3.885200	-11.631000	21.420635	0.000954	20.727588
86.026153	-2.995500	3.884300	-11.634000	21.448296	0.000954	20.742463
87.031155	-3.007600	3.883300	-11.678000	21.433903	0.000953	20.742287
88.027982	-3.018100	3.884200	-11.722000	21.455727	0.000953	20.751321
89.029983	-3.018900	3.881800	-11.718000	21.460839	0.000954	20.744582
90.028388	-2.998700	3.882100	-11.641000	21.474580	0.000951	20.737468
91.033389	-3.004500	3.883700	-11.668000	21.473134	0.000951	20.727959
92.036053	-3.011300	3.882400	-11.690000	21.472409	0.000955	20.735769
93.029615	-3.005500	3.882500	-11.668000	21.482236	0.000953	20.728058
94.030612	-3.007100	3.883000	-11.675000	21.501116	0.000956	20.739838
95.030063	-2.985700	3.883100	-11.593000	21.498622	0.000952	20.737816
96.030947	-3.001700	3.881200	-11.649000	21.497074	0.000953	20.729155
97.034521	-2.992900	3.882200	-11.618000	21.515230	0.000952	20.750642
98.033519	-2.992500	3.881400	-11.615000	21.505653	0.000957	20.759551
99.035522	-3.011600	3.881300	-11.687000	21.515255	0.000953	20.740709
100.034519	-2.986000	3.880400	-11.585000	21.527075	0.000954	20.728829
101.035854	-2.975700	3.882200	-11.551000	21.521514	0.000955	20.732273
102.037850	-2.981100	3.882800	-11.574000	21.524681	0.000955	20.725959
103.035854	-2.980500	3.881100	-11.567000	21.517348	0.000955	20.727630
104.038851	-3.007700	3.880300	-11.670000	21.542114	0.000954	20.737713
105.035853	-2.990800	3.880400	-11.604000	21.547326	0.000956	20.718746
106.039031	-2.995100	3.881500	-11.625000	21.554783	0.000956	20.733796
107.039708	-3.000300	3.879900	-11.640000	21.547525	0.000956	20.735541
108.053558	-3.017100	3.880100	-11.705000	21.552663	0.000958	20.737364
109.036600	-3.014400	3.878200	-11.689000	21.567950	0.000958	20.735117
110.036515	-2.982000	3.880100	-11.569000	21.565506	0.000954	20.733619
111.036515	-3.004700	3.879900	-11.657000	21.576229	0.000956	20.752886
112.038080	-3.001600	3.878600	-11.641000	21.597203	0.000956	20.752536
113.043104	-2.997300	3.878500	-11.624000	21.591368	0.000956	20.760448
114.038300	-2.983300	3.878200	-11.568000	21.601243	0.000955	20.725284
115.043049	-3.011300	3.878300	-11.678000	21.580544	0.000955	20.741555
116.039096	-2.996500	3.877700	-11.619000	21.586779	0.000957	20.725509
117.037876	-3.003000	3.878600	-11.646000	21.610396	0.000957	20.737289
118.041855	-3.011600	3.877700	-11.677000	21.617203	0.000956	20.755956
119.040283	-3.003500	3.877100	-11.644000	21.623164	0.000953	20.758127
120.039728	-3.006600	3.876800	-11.656000	21.615558	0.000955	20.763792
121.039957	-3.007500	3.876400	-11.658000	21.640271	0.000957	20.742056
122.039059	-3.013100	3.875700	-11.677000	21.622689	0.000954	20.740582
123.044054	-3.002400	3.876700	-11.639000	21.632141	0.000956	20.744351
124.043400	-3.022900	3.875200	-11.713000	21.649248	0.000954	20.738237
125.038398	-3.002200	3.876200	-11.635000	21.656529	0.000957	20.735566
126.040073	-3.030000	3.875400	-11.741000	21.662490	0.000957	20.752437
127.041075	-3.001700	3.876200	-11.634000	21.681167	0.000956	20.755481
128.041990	-3.022300	3.875400	-11.712000	21.673461	0.000956	20.764840
129.045790	-3.000500	3.875100	-11.626000	21.712187	0.000955	20.737688
130.040787	-2.997300	3.875600	-11.615000	21.713659	0.000957	20.734893
131.042378	-2.984200	3.875600	-11.565000	21.717049	0.000956	20.743502
132.043672	-2.993200	3.874600	-11.596000	21.733582	0.000955	20.746298
133.042264	-2.990300	3.874900	-11.585000	21.719767	0.000954	20.741480
134.043267	-3.002500	3.873900	-11.628000	21.726151	0.000955	20.737912
135.043274	-3.001300	3.872300	-11.620000	21.725652	0.000956	20.751164
136.047035	-3.006800	3.874600	-11.649000	21.718470	0.000956	20.731174
137.044261	-2.996400	3.873600	-11.606000	21.749041	0.000956	20.750390
138.052111	-2.992100	3.873800	-11.590000	21.748144	0.000957	20.752337
139.044942	-2.986000	3.874500	-11.567000	21.758092	0.000954	20.746172
140.044932	-3.015800	3.873400	-11.681000	21.758516	0.000957	20.730474
141.048598	-2.992100	3.872700	-11.586000	21.762431	0.000957	20.750515
142.047400	-3.000800	3.872400	-11.619000	21.777715	0.000957	20.738310
143.046742	-3.010100	3.871800	-11.654000	21.791528	0.000956	20.752136
144.052387	-2.981800	3.872100	-11.543000	21.778587	0.000956	20.757202
145.049079	-2.989800	3.873200	-11.579000	21.789608	0.000956	20.744525
146.056231	-3.003300	3.872100	-11.629000	21.796415	0.000959	20.758450
147.058231	-3.008700	3.871600	-11.647000	21.781404	0.000958	20.736787
148.048491	-2.998100	3.871200	-11.606000	21.823318	0.000957	20.753134
149.054377	-3.013400	3.872900	-11.670000	21.822968	0.000958	20.749464
150.050764	-2.970200	3.872600	-11.501000	21.835210	0.000957	20.757924
151.049097	-2.981400	3.870500	-11.538000	21.809554	0.000959	20.745521
152.050168	-2.998700	3.871500	-11.609000	21.815189	0.000958	20.750687
153.065653	-2.971000	3.871700	-11.503000	21.847077	0.000960	20.761742
154.054652	-2.975800	3.870800	-11.518000	21.823565	0.000960	20.771399
155.051654	-2.980900	3.870300	-11.534000	21.870864	0.000960	20.762317
156.049653	-2.982000	3.871900	-11.545000	21.850269	0.000960	20.745496
157.052242	-2.997200	3.869600	-11.597000	21.852961	0.000961	20.751035
158.053298	-2.970700	3.871900	-11.501000	21.879564	0.000960	20.793311
159.051826	-2.971900	3.870000	-11.500000	21.884126	0.000962	20.768953
160.054043	-2.986900	3.869300	-11.555000	21.873828	0.000959	20.755801
161.052202	-3.015700	3.869000	-11.666000	21.900854	0.000962	20.760093
162.050155	-2.997600	3.868600	-11.594000	21.872631	0.000961	20.760767
163.053150	-2.989900	3.869700	-11.569000	21.894747	0.000961	20.735013
164.053783	-2.971500	3.869100	-11.496000	21.905940	0.000961	20.763287
165.055005	-3.006000	3.869000	-11.628000	21.921348	0.000961	20.757373
166.056235	-3.002300	3.867300	-11.610000	21.943561	0.000961	20.764909
167.056860	-2.989600	3.868400	-11.564000	21.925087	0.000963	20.746891
168.064890	-3.012400	3.868400	-11.651000	21.912771	0.000962	20.775341
169.053461	-3.025200	3.867600	-11.699000	21.956848	0.000962	20.760666
170.055461	-2.983500	3.868000	-11.539000	21.930720	0.000961	20.775290
171.057838	-3.001000	3.867900	-11.608000	21.935432	0.000963	20.756298
172.056062	-3.025300	3.867500	-11.699000	21.933612	0.000963	20.767279
173.057514	-2.984100	3.866800	-11.538000	21.928850	0.000964	20.754926
174.055964	-2.995800	3.865600	-11.580000	21.938798	0.000963	20.768202
175.055967	-3.021000	3.865500	-11.677000	21.949517	0.000964	20.778932
176.067496	-3.007900	3.866200	-11.628000	21.960512	0.000964	20.780455
177.055496	-3.003200	3.867200	-11.613000	21.964451	0.000963	20.764010
178.057048	-3.004800	3.866500	-11.617000	21.973451	0.000965	20.768277
179.058381	-3.016000	3.865500	-11.658000	21.970908	0.000965	20.774740
180.057407	-2.998200	3.866500	-11.592000	21.995539	0.000966	20.769999
181.056968	-2.988100	3.865300	-11.549000	21.998879	0.000967	20.767179
182.057970	-3.019500	3.865300	-11.670000	21.976842	0.000966	20.786845
183.057655	-3.015400	3.864200	-11.649000	21.984120	0.000966	20.787018
184.058968	-3.010600	3.863700	-11.632000	22.005734	0.000966	20.764084
185.066640	-3.016400	3.865200	-11.658000	22.007179	0.000966	20.773591
186.060571	-3.001200	3.863700	-11.595000	22.012564	0.000965	20.767602
187.058395	-2.999600	3.863800	-11.589000	22.008078	0.000968	20.758369
188.068361	-3.023300	3.863700	-11.680000	22.014783	0.000968	20.761762
189.056105	-2.990200	3.864400	-11.555000	22.041482	0.000967	20.768101
190.057084	-2.991600	3.864300	-11.559000	22.042379	0.000967	20.783699
191.068068	-3.001700	3.863600	-11.596000	22.052475	0.000970	20.786219
192.059651	-3.020900	3.864100	-11.672000	22.037718	0.000969	20.792308
193.058655	-3.003400	3.863200	-11.602000	22.076431	0.000970	20.782700
194.058556	-2.999700	3.864200	-11.591000	22.067632	0.000969	20.801866
195.061027	-3.024100	3.863200	-11.682000	22.076081	0.000972	20.814118
196.058986	-2.995700	3.863900	-11.573000	22.081666	0.000972	20.781777
197.067983	-2.985300	3.864600	-11.536000	22.111329	0.000970	20.771644
198.059983	-3.001600	3.863600	-11.595000	22.099513	0.000970	20.774514
199.057156	-2.990100	3.863300	-11.551000	22.096796	0.000971	20.791235
200.060152	-2.993400	3.862100	-11.559000	22.086651	0.000971	20.773017
201.059342	-2.999500	3.862700	-11.585000	22.111577	0.000971	20.773316
202.062510	-3.000900	3.861300	-11.586000	22.115564	0.000972	20.771143
203.059440	-2.997800	3.861900	-11.576000	22.128353	0.000972	20.768774
204.058663	-3.034200	3.859400	-11.709000	22.139494	0.000972	20.774238
205.071663	-3.000000	3.860500	-11.580000	22.158288	0.000974	20.793529
206.059741	-3.014900	3.859800	-11.636000	22.169904	0.000974	20.808004
207.059740	-2.974000	3.860800	-11.480000	22.178428	0.000973	20.791407
208.063706	-2.993200	3.860500	-11.554000	22.176159	0.000973	20.800989
209.063974	-2.991400	3.861500	-11.549000	22.210929	0.000975	20.804033
210.065984	-2.976500	3.859800	-11.488000	22.194129	0.000976	20.790532
211.060528	-2.993700	3.861500	-11.558000	22.189243	0.000976	20.797969
212.060527	-2.984300	3.862000	-11.524000	22.198989	0.000975	20.784492
213.061385	-3.010600	3.860100	-11.620000	22.197543	0.000977	20.779251
214.065935	-3.002600	3.859200	-11.587000	22.200010	0.000977	20.789782
215.063192	-3.009500	3.859800	-11.615000	22.215663	0.000976	20.787910
216.066483	-3.013500	3.858900	-11.627000	22.226853	0.000980	20.802907
217.063488	-3.004900	3.859600	-11.596000	22.231887	0.000979	20.793249
218.062991	-2.981400	3.859400	-11.505000	22.235201	0.000978	20.794671
219.069658	-2.992500	3.858200	-11.545000	22.223960	0.000981	20.796692
220.062880	-2.993100	3.858200	-11.547000	22.217379	0.000978	20.796267
221.063793	-2.998900	3.857100	-11.566000	22.208880	0.000978	20.792499
222.063795	-2.982400	3.859100	-11.508000	22.206411	0.000979	20.799036
223.062435	-2.995500	3.858900	-11.558000	22.218899	0.000980	20.783090
224.064990	-2.987700	3.859000	-11.528000	22.221839	0.000981	20.804525
225.065725	-3.010500	3.857700	-11.613000	22.222811	0.000984	20.808818
226.064686	-2.986800	3.856800	-11.517000	22.250451	0.000980	20.796190
227.065546	-2.997900	3.856900	-11.562000	22.255510	0.000981	20.788453
228.064891	-2.995100	3.857800	-11.553000	22.241428	0.000980	20.817026
229.064890	-3.023600	3.856200	-11.658000	22.259746	0.000982	20.801229
230.067212	-2.986400	3.856600	-11.516000	22.281902	0.000985	20.811086
231.065856	-3.009300	3.857100	-11.607000	22.270462	0.000984	20.793940
232.066236	-2.995500	3.856400	-11.551000	22.264281	0.000983	20.808140
233.068642	-2.992200	3.856400	-11.538000	22.300444	0.000986	20.775597
234.066641	-2.976200	3.857400	-11.479000	22.283071	0.000984	20.811307
235.068107	-3.002000	3.856300	-11.575000	22.286037	0.000985	20.806217
236.067041	-2.994200	3.855300	-11.541000	22.279581	0.000985	20.787899
237.098377	-2.994000	3.856400	-11.544000	22.308591	0.000984	20.802248
238.067904	-2.986800	3.855900	-11.515000	22.308241	0.000986	20.808536
239.067909	-2.997600	3.856100	-11.557000	22.315443	0.000986	20.816221
240.071907	-2.998800	3.854500	-11.558000	22.303555	0.000987	20.818542
241.075931	-2.989100	3.855000	-11.521000	22.324739	0.000986	20.787597
242.069771	-2.982100	3.856100	-11.498000	22.316365	0.000988	20.807662
243.070458	-2.985300	3.855500	-11.508000	22.334533	0.000988	20.805939
244.071795	-3.011100	3.855000	-11.606000	22.346570	0.000989	20.810406
245.083855	-3.011900	3.854300	-11.608000	22.362445	0.000990	20.796430
246.073918	-3.020800	3.853000	-11.638000	22.358557	0.000990	20.803917
247.073598	-3.014600	3.853300	-11.615000	22.367428	0.000991	20.804265
248.077596	-3.004000	3.852400	-11.571000	22.359004	0.000990	20.816693
249.072546	-3.007000	3.852000	-11.581000	22.396735	0.000992	20.832665
250.074215	-3.010700	3.852200	-11.597000	22.401420	0.000992	20.816967
251.083945	-2.996500	3.853400	-11.545000	22.411088	0.000993	20.822382
252.082170	-3.007900	3.852600	-11.587000	22.416521	0.000992	20.820710
253.072370	-2.987700	3.851800	-11.507000	22.440270	0.000993	20.816992
254.071873	-3.001000	3.852200	-11.560000	22.439572	0.000992	20.810603
255.076873	-2.993900	3.851800	-11.531000	22.460853	0.000996	20.819587
256.071433	-2.994900	3.852400	-11.537000	22.433316	0.000995	20.807183
257.075434	-3.016800	3.851200	-11.617000	22.461948	0.000996	20.821632
258.073043	-2.979800	3.853300	-11.480000	22.459680	0.000996	20.833110
259.082043	-2.983400	3.852000	-11.491000	22.461000	0.000995	20.814993
260.073804	-2.995900	3.849800	-11.531000	22.456889	0.000996	20.838376
261.108927	-2.983000	3.851200	-11.487000	22.478019	0.000997	20.825398
262.075928	-2.993000	3.851000	-11.524000	22.464762	0.000999	20.833459
263.073971	-3.009100	3.851300	-11.588000	22.476574	0.001002	20.816839
264.075970	-3.005900	3.850600	-11.573000	22.495736	0.000999	20.817537
265.073987	-2.992000	3.850900	-11.520000	22.465360	0.000999	20.842117
266.074724	-3.010600	3.850200	-11.590000	22.475078	0.000998	20.830987
267.082037	-3.004900	3.848800	-11.563000	22.489456	0.000999	20.837326
268.091039	-2.986200	3.849700	-11.495000	22.494515	0.001001	20.836702
269.078336	-2.998600	3.848700	-11.540000	22.490178	0.001002	20.830462
270.077687	-2.980000	3.849000	-11.469000	22.499796	0.001001	20.850051
271.082686	-2.999500	3.848400	-11.543000	22.490576	0.001002	20.841767
272.079470	-3.001200	3.848600	-11.549000	22.488981	0.001002	20.840643
273.079684	-2.998400	3.848400	-11.537000	22.471314	0.001003	20.844761
274.078206	-2.989700	3.849000	-11.506000	22.442805	0.001003	20.819531
275.077980	-2.989000	3.847700	-11.500000	22.466229	0.001005	20.845832
276.094035	-2.995300	3.847300	-11.523000	22.490599	0.001005	20.841789
277.080500	-3.020700	3.847200	-11.620000	22.505849	0.001003	20.832407
278.082423	-3.024500	3.845600	-11.629000	22.503905	0.001006	20.838994
279.080193	-3.014700	3.846400	-11.594000	22.505076	0.001006	20.843960
280.079195	-2.982500	3.848100	-11.475000	22.532161	0.001005	20.837421
281.086196	-3.019500	3.846600	-11.613000	22.546862	0.001007	20.841239
282.079213	-2.997300	3.846800	-11.528000	22.562659	0.001007	20.829085
283.083247	-3.003500	3.845500	-11.548000	22.574119	0.001008	20.832029
284.081304	-2.992900	3.845800	-11.509000	22.601006	0.001007	20.834775
285.082303	-2.994400	3.846300	-11.516000	22.565423	0.001009	20.837543
286.081318	-2.991500	3.846300	-11.504000	22.564327	0.001009	20.852566
287.086526	-2.972600	3.846300	-11.432000	22.576511	0.001010	20.828734
288.088856	-2.984700	3.846600	-11.480000	22.594176	0.001010	20.837892
289.081923	-3.005000	3.844300	-11.551000	22.593005	0.001011	20.840512
290.105972	-2.976200	3.845800	-11.445000	22.599831	0.001011	20.844030
291.083995	-3.007200	3.844600	-11.561000	22.587048	0.001010	20.847822
292.083994	-2.998900	3.843700	-11.525000	22.572248	0.001011	20.833473
293.084898	-3.025400	3.844800	-11.631000	22.594622	0.001010	20.847347
294.090051	-3.015200	3.842800	-11.586000	22.596765	0.001013	20.837165
295.085863	-3.009200	3.843700	-11.564000	22.643282	0.001012	20.854358
296.087396	-2.998600	3.844000	-11.525000	22.646146	0.001013	20.858650
297.084390	-2.978200	3.844500	-11.449000	22.647815	0.001013	20.850839
298.088670	-3.015200	3.843700	-11.588000	22.637400	0.001015	20.867433
299.096672	-2.980600	3.844400	-11.458000	22.630224	0.001014	20.843177
300.085268	-3.021700	3.841900	-11.608000	22.647888	0.001014	20.858972
301.090001	-3.009500	3.842100	-11.562000	22.656358	0.001014	20.851335
302.087982	-3.005000	3.842900	-11.547000	22.648635	0.001015	20.834591
303.101398	-3.021400	3.841300	-11.605000	22.691462	0.001016	20.840504
304.087396	-3.018700	3.841300	-11.595000	22.703321	0.001016	20.855701
305.089940	-3.032300	3.840300	-11.644000	22.708702	0.001019	20.870099
306.097119	-3.001000	3.842100	-11.529000	22.709648	0.001018	20.853030
307.087730	-2.977600	3.841000	-11.436000	22.728781	0.001018	20.865082
308.088727	-3.005800	3.842000	-11.548000	22.720609	0.001020	20.874440
309.089726	-3.005800	3.841200	-11.545000	22.718466	0.001018	20.847639
310.093090	-3.002600	3.841100	-11.532000	22.713756	0.001020	20.858567
311.089512	-3.003100	3.840700	-11.533000	22.728430	0.001020	20.860938
312.099407	-3.000000	3.841400	-11.523000	22.732815	0.001021	20.862485
313.088412	-3.020700	3.841200	-11.602000	22.745844	0.001022	20.862260
314.088836	-3.013800	3.838900	-11.569000	22.762161	0.001020	20.870069
315.101837	-2.990300	3.840900	-11.484000	22.759993	0.001022	20.855571
316.088497	-2.994400	3.840400	-11.497000	22.773171	0.001024	20.863082
317.092744	-2.988400	3.839900	-11.475000	22.781417	0.001024	20.868022
318.089614	-3.001500	3.838100	-11.519000	22.788841	0.001024	20.875932
319.090915	-2.972600	3.839500	-11.412000	22.770554	0.001025	20.861408
320.092905	-3.008900	3.838300	-11.548000	22.769956	0.001025	20.866973
321.091903	-2.999900	3.838000	-11.512000	22.778525	0.001026	20.872237
322.090903	-2.989100	3.838000	-11.471000	22.784455	0.001027	20.866324
323.092600	-2.991000	3.838100	-11.478000	22.780842	0.001026	20.843266
324.096612	-3.007800	3.837400	-11.541000	22.782536	0.001026	20.854445
325.095285	-3.006900	3.838400	-11.540000	22.773268	0.001028	20.867446
326.093484	-3.012200	3.837800	-11.559000	22.773218	0.001030	20.862654
327.094507	-2.987200	3.836900	-11.460000	22.796610	0.001028	20.867595
328.093416	-3.005600	3.836600	-11.529000	22.795987	0.001030	20.870764
329.096416	-3.007000	3.836100	-11.534000	22.838535	0.001029	20.881144
330.096080	-3.019400	3.835500	-11.580000	22.841425	0.001032	20.887357
331.096231	-2.999300	3.835400	-11.502000	22.834624	0.001033	20.882915
332.097657	-2.983100	3.835000	-11.439000	22.862175	0.001034	20.883963
333.099923	-2.992700	3.835800	-11.477000	22.877867	0.001033	20.895890
334.105958	-2.969800	3.837100	-11.395000	22.874978	0.001034	20.879246
335.099603	-3.002600	3.834500	-11.513000	22.867430	0.001033	20.901555
336.099498	-3.015300	3.834300	-11.560000	22.889051	0.001033	20.868216
337.096480	-2.988300	3.836300	-11.463000	22.894232	0.001034	20.882889
338.103695	-2.985400	3.835300	-11.448000	22.908256	0.001034	20.902627
339.099777	-2.994800	3.835200	-11.484000	22.894356	0.001034	20.890599
340.096753	-2.985600	3.834700	-11.447000	22.898665	0.001036	20.884011
341.101753	-3.000500	3.834000	-11.503000	22.922354	0.001035	20.863174
342.096746	-3.012700	3.833300	-11.548000	22.933040	0.001038	20.894740
343.097520	-3.007400	3.832600	-11.525000	22.908679	0.001036	20.884560
344.098678	-2.992500	3.833700	-11.471000	22.909401	0.001037	20.884335
345.104075	-3.020000	3.831100	-11.569000	22.947685	0.001039	20.887129
346.109044	-2.984500	3.833100	-11.438000	22.934310	0.001040	20.889375
347.098339	-3.035100	3.831100	-11.626000	22.961883	0.001038	20.887129
348.100255	-3.005400	3.833200	-11.518000	22.949105	0.001041	20.882861
349.099910	-3.002000	3.832700	-11.505000	22.977773	0.001040	20.880291
350.114497	-3.006500	3.833100	-11.523000	22.967711	0.001041	20.896286
351.101554	-2.992900	3.831800	-11.467000	22.943126	0.001042	20.865967
352.099502	-3.003300	3.832300	-11.509000	22.966913	0.001038	20.898806
353.112503	-2.997700	3.832000	-11.485000	22.961882	0.001042	20.899929
354.100773	-3.019400	3.830200	-11.563000	22.957971	0.001042	20.871831
355.105475	-2.994300	3.830900	-11.469000	22.962180	0.001044	20.897383
356.107840	-3.021800	3.828700	-11.569000	22.970724	0.001042	20.894090
357.111842	-2.990500	3.830700	-11.454000	22.947659	0.001044	20.881887
358.104064	-3.026800	3.829600	-11.591000	22.947633	0.001043	20.892292
359.106070	-2.993000	3.829400	-11.461000	22.958519	0.001046	20.888500
360.105099	-2.999800	3.830500	-11.489000	22.957074	0.001046	20.887052
361.104118	-2.987900	3.829700	-11.441000	22.984672	0.001045	20.876297
362.104118	-2.991600	3.829000	-11.453000	22.995830	0.001046	20.908811
363.104570	-2.997900	3.829400	-11.479000	22.979765	0.001045	20.894139
364.105572	-3.016300	3.828200	-11.546000	22.970599	0.001047	20.882112
365.104570	-2.998300	3.828400	-11.478000	22.999840	0.001047	20.885330
366.106467	-3.004000	3.828000	-11.498000	22.976701	0.001048	20.882061
367.108824	-3.004800	3.828500	-11.502000	22.992418	0.001049	20.909660
368.110063	-3.016600	3.827200	-11.544000	22.985967	0.001048	20.888974
369.107061	-3.000500	3.828300	-11.486000	23.018322	0.001049	20.874925
370.111619	-3.010100	3.827400	-11.520000	23.026964	0.001049	20.885480
371.112139	-3.005200	3.826700	-11.499000	23.021585	0.001050	20.856384
372.109126	-3.002100	3.827500	-11.489000	23.014535	0.001052	20.893415
373.105167	-2.987700	3.826200	-11.430000	23.018122	0.001050	20.878992
374.108176	-3.001700	3.826700	-11.486000	23.016901	0.001050	20.873027
375.105178	-2.979400	3.826200	-11.398000	23.018321	0.001050	20.877769
376.106355	-2.984900	3.825600	-11.417000	23.022231	0.001053	20.864618
377.111154	-3.019700	3.825600	-11.551000	23.018470	0.001051	20.875547
378.110786	-3.030400	3.824100	-11.588000	23.030798	0.001053	20.869882
379.108954	-3.013700	3.824900	-11.527000	23.042877	0.001054	20.859227
380.109953	-2.979800	3.827300	-11.403000	23.050424	0.001052	20.878167
381.108492	-3.031200	3.824200	-11.591000	23.038021	0.001054	20.878067
382.110275	-2.984200	3.824900	-11.413000	23.030299	0.001055	20.858477
383.110878	-2.990700	3.824700	-11.438000	23.039190	0.001054	20.862644
384.111930	-2.996300	3.823400	-11.455000	23.041258	0.001056	20.858552
385.112357	-3.010700	3.823800	-11.512000	23.056176	0.001055	20.872551
386.152620	-2.996200	3.823700	-11.455000	23.071966	0.001058	20.881734
387.111626	-2.982300	3.823800	-11.403000	23.067931	0.001059	20.861097
388.119779	-2.994300	3.825000	-11.453000	23.083223	0.001056	20.834221
389.110777	-3.011600	3.821900	-11.509000	23.074680	0.001058	20.885401
390.110897	-2.994100	3.824000	-11.448000	23.092064	0.001058	20.882431
391.110898	-2.986100	3.823000	-11.415000	23.121801	0.001056	20.853910
392.111840	-2.982600	3.822800	-11.401000	23.126408	0.001057	20.857577
393.115641	-2.985200	3.822300	-11.409000	23.108576	0.001059	20.855357
394.115256	-2.975100	3.823000	-11.372000	23.121202	0.001057	20.893610
395.111392	-2.997900	3.821000	-11.453000	23.101029	0.001061	20.867234
396.111392	-2.988100	3.821300	-11.417000	23.124390	0.001059	20.858874
397.111714	-2.979500	3.821300	-11.385000	23.123766	0.001061	20.855879
398.125711	-3.012900	3.819200	-11.506000	23.132035	0.001061	20.861319
399.116304	-2.994600	3.820500	-11.440000	23.122621	0.001062	20.864688
400.114304	-2.994200	3.820500	-11.438000	23.126357	0.001065	20.854681
401.116760	-3.021000	3.819000	-11.536000	23.129021	0.001064	20.851661
402.115177	-3.006800	3.819900	-11.484000	23.149716	0.001065	20.855329
403.115176	-3.004400	3.819300	-11.473000	23.156091	0.001066	20.869303
404.115967	-2.991200	3.819100	-11.423000	23.146353	0.001065	20.853382
405.114966	-2.993800	3.820100	-11.436000	23.158781	0.001066	20.852559
406.117063	-3.008300	3.819100	-11.488000	23.153501	0.001067	20.822614
407.129062	-3.020800	3.819100	-11.536000	23.145482	0.001067	20.851087
408.117182	-3.005400	3.819000	-11.477000	23.126953	0.001068	20.844373
409.116178	-3.006200	3.817900	-11.476000	23.138658	0.001067	20.844249
410.122182	-2.996100	3.817900	-11.438000	23.116393	0.001068	20.850862
411.121756	-2.975600	3.819600	-11.364000	23.124288	0.001068	20.851660
412.119118	-3.021900	3.817900	-11.536000	23.116120	0.001070	20.830200
413.120857	-2.993400	3.817500	-11.425000	23.145855	0.001069	20.832970
414.118878	-3.002400	3.817400	-11.460000	23.129419	0.001070	20.860594
415.120122	-3.008200	3.816900	-11.481000	23.127278	0.001072	20.847070
416.120120	-2.992600	3.816800	-11.422000	23.136392	0.001071	20.846720
417.123672	-2.967000	3.817200	-11.325000	23.139431	0.001072	20.828903
418.123130	-2.990200	3.815700	-11.409000	23.127054	0.001072	20.838785
419.122495	-2.989000	3.815700	-11.403000	23.137987	0.001071	20.846422
420.129116	-2.995400	3.815500	-11.427000	23.140527	0.001072	20.831898
421.126123	-2.999200	3.815200	-11.441000	23.153478	0.001073	20.842030
422.122315	-2.993900	3.815300	-11.421000	23.178656	0.001074	20.837389
423.122319	-3.000400	3.815100	-11.446000	23.185156	0.001073	20.840583
424.123294	-2.996000	3.814100	-11.426000	23.159157	0.001072	20.830178
425.123774	-2.996900	3.813700	-11.428000	23.154326	0.001072	20.850466
426.131416	-3.008900	3.813700	-11.474000	23.147901	0.001072	20.860148
427.134428	-2.989300	3.813000	-11.397000	23.132063	0.001072	20.854235
428.126433	-2.988900	3.814200	-11.399000	23.140057	0.001074	20.833323
429.123338	-3.011500	3.812100	-11.480000	23.144390	0.001073	20.830553
430.123351	-3.010700	3.812200	-11.476000	23.152634	0.001073	20.841184
431.125186	-3.004500	3.812800	-11.455000	23.163243	0.001073	20.828582
432.126186	-3.017000	3.811600	-11.499000	23.181422	0.001074	20.845376
433.126978	-3.019100	3.812100	-11.508000	23.176342	0.001074	20.833174
434.125006	-3.004100	3.813000	-11.454000	23.172682	0.001074	20.835670
435.124200	-2.986100	3.811400	-11.379000	23.158263	0.001073	20.851092
436.129198	-2.989100	3.811500	-11.392000	23.169519	0.001075	20.827759
437.125675	-2.989400	3.812100	-11.395000	23.161650	0.001075	20.855434
438.129746	-2.993600	3.811900	-11.410000	23.185183	0.001076	20.833025
439.135747	-2.993100	3.810200	-11.403000	23.193127	0.001076	20.830554
440.127794	-3.011200	3.810000	-11.471000	23.218080	0.001074	20.840386
441.128792	-3.023700	3.808900	-11.516000	23.194547	0.001077	20.822020
442.130792	-3.013900	3.809200	-11.479000	23.236134	0.001077	20.828134
443.125345	-2.997200	3.810100	-11.418000	23.241762	0.001079	20.822394
444.125115	-2.997700	3.809000	-11.418000	23.222812	0.001077	20.821421
445.129686	-3.000600	3.810200	-11.432000	23.222835	0.001077	20.830928
446.126725	-3.004500	3.808600	-11.441000	23.243106	0.001080	20.831802
447.130758	-2.986700	3.808700	-11.374000	23.232099	0.001076	20.822668
448.126888	-3.011400	3.806600	-11.462000	23.265467	0.001079	20.813908
449.127037	-2.993100	3.807300	-11.394000	23.278490	0.001079	20.824589
450.127743	-2.995500	3.809100	-11.408000	23.290043	0.001079	20.825736
451.126830	-3.006100	3.807100	-11.443000	23.279859	0.001079	20.833547
452.127828	-2.986000	3.806900	-11.366000	23.301448	0.001080	20.822467
453.127139	-3.005800	3.806600	-11.441000	23.293678	0.001079	20.816577
454.129219	-3.007200	3.806800	-11.446000	23.305058	0.001080	20.828455
455.130754	-2.977600	3.807800	-11.336000	23.323782	0.001080	20.816876
456.146311	-2.978600	3.806900	-11.338000	23.319275	0.001080	20.809988
457.127311	-2.987200	3.806400	-11.369000	23.320769	0.001080	20.836140
458.129102	-3.025800	3.805500	-11.514000	23.339294	0.001082	20.829103
459.128306	-2.993000	3.806000	-11.389000	23.348307	0.001081	20.815851
460.129823	-2.986700	3.805900	-11.366000	23.354806	0.001083	20.823313
461.128133	-3.002900	3.804800	-11.424000	23.335558	0.001081	20.811608
462.128652	-3.006500	3.804200	-11.435000	23.327739	0.001083	20.819419
463.130307	-2.972800	3.805900	-11.313000	23.356597	0.001083	20.818944
464.128309	-3.006500	3.804900	-11.439000	23.358091	0.001081	20.802424
465.128897	-2.999300	3.803800	-11.408000	23.342479	0.001083	20.802424
466.128253	-3.008800	3.804100	-11.445000	23.344271	0.001085	20.824134
467.129685	-3.013300	3.803900	-11.461000	23.341880	0.001083	20.812729
468.131409	-2.995400	3.803300	-11.391000	23.344967	0.001084	20.805392
469.130407	-3.009500	3.802600	-11.443000	23.349922	0.001083	20.802771
470.132147	-3.008200	3.802300	-11.438000	23.328035	0.001084	20.821138
471.149147	-3.002800	3.802200	-11.416000	23.315061	0.001082	20.806713
472.129972	-2.992300	3.802100	-11.376000	23.337570	0.001083	20.802246
473.132970	-2.981300	3.801100	-11.331000	23.332491	0.001084	20.790042
474.131131	-3.001300	3.800500	-11.405000	23.342823	0.001082	20.800398
475.131124	-3.005700	3.800100	-11.422000	23.324696	0.001085	20.799774
476.141513	-3.010300	3.801400	-11.443000	23.328954	0.001085	20.785075
477.139668	-3.007900	3.801200	-11.433000	23.336348	0.001084	20.804814
478.133561	-2.983300	3.800800	-11.338000	23.337518	0.001086	20.796503
479.133292	-2.979700	3.800500	-11.324000	23.372626	0.001086	20.797551
480.132276	-2.988400	3.799500	-11.352000	23.378128	0.001087	20.789790
481.133454	-2.996400	3.799800	-11.385000	23.399914	0.001088	20.806409
482.140450	-3.007000	3.797200	-11.417000	23.418387	0.001086	20.796002
483.135006	-2.993600	3.798500	-11.370000	23.443260	0.001088	20.810501
484.134456	-2.997700	3.798500	-11.386000	23.460712	0.001087	20.787217
485.135951	-3.002000	3.798600	-11.402000	23.467833	0.001087	20.803838
486.134129	-3.002000	3.797600	-11.399000	23.465193	0.001084	20.814942
487.134129	-3.000300	3.798100	-11.394000	23.459491	0.001087	20.791683
488.133387	-2.993200	3.796200	-11.362000	23.480005	0.001086	20.795176
489.134385	-3.020100	3.795700	-11.462000	23.485532	0.001087	20.786017
490.134247	-3.002100	3.795900	-11.395000	23.485855	0.001088	20.783022
491.136609	-2.981900	3.796700	-11.321000	23.484137	0.001088	20.789360
492.142612	-3.007800	3.795300	-11.414000	23.480178	0.001088	20.816686
493.142610	-2.970900	3.797000	-11.279000	23.490211	0.001089	20.781224
494.144612	-2.984300	3.795600	-11.326000	23.492301	0.001088	20.786639
495.139479	-3.017500	3.794700	-11.449000	23.480749	0.001088	20.772688
496.137226	-2.982200	3.794600	-11.315000	23.500119	0.001088	20.800164
497.136395	-3.003300	3.794600	-11.396000	23.500467	0.001089	20.778702
498.138397	-2.996700	3.794200	-11.370000	23.510749	0.001089	20.773836
499.137179	-2.991800	3.793200	-11.347000	23.501562	0.001091	20.785490
500.141715	-2.983500	3.793800	-11.318000	23.481570	0.001090	20.784890
501.138999	-2.988500	3.792400	-11.333000	23.489536	0.001091	20.769168
502.146034	-2.972100	3.793300	-11.272000	23.481544	0.001090	20.775856
503.140988	-2.994900	3.791900	-11.354000	23.511096	0.001091	20.783193
504.145988	-2.986800	3.792300	-11.326000	23.499444	0.001090	20.771987
505.151766	-2.989300	3.791700	-11.333000	23.516946	0.001090	20.781470
506.143065	-2.983400	3.793200	-11.316000	23.495660	0.001092	20.779099
507.142619	-3.008700	3.791900	-11.408000	23.489884	0.001093	20.775680
508.253262	-3.001600	3.792100	-11.382000	23.517418	0.001093	20.780521
509.147262	-2.992500	3.792600	-11.348000	23.493792	0.001092	20.774856
510.149537	-2.969300	3.790800	-11.255000	23.522347	0.001092	20.776453
511.147555	-2.988600	3.792100	-11.332000	23.522770	0.001089	20.764549
512.150671	-3.007300	3.790100	-11.397000	23.527425	0.001092	20.761629
513.149673	-2.975200	3.790300	-11.276000	23.502729	0.001091	20.769590
514.149947	-3.001000	3.788400	-11.368000	23.531110	0.001092	20.789030
515.153948	-3.001100	3.790200	-11.374000	23.501259	0.001093	20.769065
516.150591	-2.999000	3.788500	-11.361000	23.489434	0.001093	20.759582
517.169962	-2.995600	3.788100	-11.347000	23.487019	0.001094	20.784188
518.151063	-2.986900	3.790000	-11.320000	23.474470	0.001094	20.756437
519.157412	-3.017800	3.788300	-11.431000	23.493192	0.001092	20.767617
520.155411	-3.005600	3.787700	-11.383000	23.489284	0.001093	20.770811
521.152251	-2.996700	3.788400	-11.352000	23.502926	0.001094	20.752244
522.154250	-2.987900	3.789400	-11.321000	23.493914	0.001093	20.752692
523.150500	-3.017300	3.786800	-11.424000	23.515598	0.001094	20.782490
524.151319	-2.987900	3.786700	-11.313000	23.540643	0.001094	20.774404
525.152839	-2.981900	3.787400	-11.292000	23.538178	0.001093	20.770036
526.158458	-2.991900	3.787300	-11.330000	23.532302	0.001095	20.758457
527.152979	-2.998000	3.786700	-11.351000	23.530036	0.001093	20.747650
528.164183	-2.979400	3.786000	-11.279000	23.552144	0.001096	20.768389
529.152182	-2.987500	3.787400	-11.313000	23.560159	0.001094	20.760777
530.152380	-3.018200	3.784300	-11.420000	23.548284	0.001096	20.773530
531.155378	-3.003700	3.784900	-11.367000	23.528368	0.001095	20.764944
532.153473	-3.014200	3.784800	-11.407000	23.533173	0.001096	20.747475
533.152481	-2.986000	3.784900	-11.301000	23.524559	0.001095	20.768712
534.155028	-3.001100	3.784100	-11.355000	23.519181	0.001094	20.767589
535.156910	-3.013800	3.784400	-11.404000	23.510343	0.001095	20.746875
536.154418	-2.965200	3.783400	-11.218000	23.510442	0.001095	20.762149
537.177862	-3.007800	3.782900	-11.377000	23.494982	0.001094	20.763721
538.168862	-2.993700	3.783000	-11.324000	23.509247	0.001098	20.754786
539.156321	-3.003400	3.783700	-11.363000	23.528964	0.001096	20.767913
540.165322	-3.003800	3.783900	-11.365000	23.498641	0.001096	20.754586
541.157338	-3.000100	3.781300	-11.343000	23.536308	0.001095	20.763895
542.160337	-2.996500	3.781000	-11.328000	23.540092	0.001097	20.744454
543.159314	-3.011500	3.780600	-11.384000	23.537851	0.001097	20.738888
544.159475	-2.996000	3.781600	-11.328000	23.559236	0.001095	20.760800
545.161475	-2.984100	3.781400	-11.283000	23.535984	0.001096	20.745077
546.179067	-2.995100	3.781800	-11.325000	23.544099	0.001097	20.761273
547.165130	-2.997400	3.780800	-11.331000	23.522615	0.001096	20.749694
548.161810	-2.991000	3.780900	-11.307000	23.533992	0.001097	20.748296
549.160194	-2.998000	3.779100	-11.328000	23.533693	0.001098	20.753212
550.167134	-2.995300	3.778300	-11.317000	23.558762	0.001097	20.769334
551.163399	-3.014700	3.778700	-11.390000	23.569292	0.001097	20.765191
552.163428	-3.007600	3.778000	-11.361000	23.580520	0.001097	20.746099
553.162151	-2.982200	3.779000	-11.269000	23.589780	0.001096	20.749219
554.161152	-3.019800	3.778700	-11.410000	23.589880	0.001097	20.767337
555.162475	-2.999800	3.778400	-11.334000	23.610691	0.001097	20.748370
556.161475	-2.997100	3.777000	-11.319000	23.632597	0.001098	20.738088
557.162406	-2.994300	3.777000	-11.308000	23.646910	0.001098	20.750541
558.164404	-2.992000	3.776500	-11.298000	23.663240	0.001098	20.750791
559.163660	-3.014700	3.775600	-11.381000	23.667695	0.001098	20.735342
560.188582	-2.990000	3.776800	-11.290000	23.678349	0.001099	20.739385
561.165042	-2.968200	3.777000	-11.210000	23.670184	0.001098	20.746373
562.164282	-2.989300	3.776800	-11.289000	23.675188	0.001098	20.727206
563.167287	-2.994000	3.774500	-11.300000	23.669960	0.001099	20.737613
564.169197	-3.005900	3.775300	-11.347000	23.665231	0.001098	20.746623
565.165197	-2.986000	3.775600	-11.273000	23.700652	0.001100	20.745150
566.164678	-2.989500	3.773800	-11.280000	23.713496	0.001099	20.764192
567.164088	-2.995700	3.774600	-11.306000	23.724398	0.001100	20.733395
568.164276	-3.005900	3.774500	-11.345000	23.740303	0.001100	20.753136
569.170487	-2.986400	3.774900	-11.272000	23.725344	0.001100	20.744776
570.164454	-2.979000	3.774400	-11.242000	23.731666	0.001100	20.746373
571.167693	-2.987900	3.773100	-11.272000	23.678647	0.001097	20.752013
572.164690	-2.993700	3.772800	-11.293000	23.693607	0.001099	20.741406
573.164738	-2.988400	3.772300	-11.271000	23.709090	0.001100	20.740333
574.166732	-2.968700	3.773500	-11.200000	23.701747	0.001100	20.750515
575.164148	-2.999800	3.771700	-11.313000	23.706426	0.001099	20.740034
576.172147	-2.999900	3.772300	-11.315000	23.725742	0.001100	20.719569
577.167068	-2.986200	3.772100	-11.262000	23.713695	0.001099	20.740682
578.166155	-2.995700	3.771000	-11.295000	23.702294	0.001099	20.740158
579.167383	-3.005500	3.771600	-11.334000	23.693035	0.001098	20.728504
580.165382	-3.004100	3.769900	-11.324000	23.701871	0.001100	20.742579
581.170382	-2.987700	3.769500	-11.261000	23.688405	0.001099	20.731448
582.168972	-2.992900	3.770200	-11.283000	23.707497	0.001099	20.731623
583.165912	-2.981800	3.769100	-11.238000	23.723352	0.001099	20.722389
584.165408	-2.994400	3.768300	-11.283000	23.706103	0.001101	20.744925
585.167406	-2.969900	3.770300	-11.195000	23.687160	0.001102	20.737788
586.166606	-3.015400	3.765900	-11.354000	23.694304	0.001101	20.737363
587.167606	-3.010600	3.768500	-11.344000	23.693284	0.001099	20.750565
588.166898	-2.989400	3.767600	-11.262000	23.716806	0.001100	20.737164
589.167896	-3.008300	3.768800	-11.336000	23.698461	0.001100	20.749118
590.172742	-2.994100	3.769400	-11.284000	23.711579	0.001102	20.742829
591.169234	-2.994400	3.767000	-11.279000	23.736793	0.001101	20.750565
592.170160	-2.997500	3.767300	-11.291000	23.739233	0.001102	20.747795
593.170716	-3.002300	3.766100	-11.306000	23.741697	0.001101	20.740308
594.168959	-3.021100	3.765700	-11.374000	23.720341	0.001100	20.738811
595.170643	-2.981500	3.768400	-11.234000	23.741249	0.001103	20.748868
596.174648	-3.002400	3.765600	-11.304000	23.731940	0.001101	20.738112
597.169679	-3.004300	3.765900	-11.312000	23.725369	0.001100	20.747171
598.169679	-3.007700	3.764300	-11.321000	23.687434	0.001104	20.749442
599.170588	-3.006600	3.764200	-11.316000	23.687534	0.001101	20.737214
600.171587	-2.991900	3.764600	-11.263000	23.705779	0.001101	20.751239
601.172139	-3.006800	3.762700	-11.313000	23.704858	0.001101	20.746997
602.178136	-3.014000	3.763200	-11.341000	23.715661	0.001101	20.728429
603.172138	-3.008300	3.763900	-11.322000	23.736868	0.001103	20.754908
604.172794	-3.000600	3.762600	-11.289000	23.739183	0.001103	20.768609
605.172363	-2.998500	3.763000	-11.282000	23.763551	0.001102	20.736140
606.176253	-3.005100	3.761700	-11.303000	23.769126	0.001101	20.750740
607.180243	-2.986600	3.762800	-11.236000	23.752723	0.001103	20.758002
608.171217	-2.994200	3.762600	-11.265000	23.759917	0.001102	20.745299
609.172777	-3.004800	3.762200	-11.304000	23.759693	0.001101	20.760248
610.171368	-2.993300	3.762000	-11.260000	23.773457	0.001104	20.753186
611.171364	-2.991800	3.760200	-11.249000	23.788117	0.001102	20.756031
612.173119	-2.979700	3.761400	-11.207000	23.803474	0.001102	20.762894
613.175550	-3.001800	3.760300	-11.286000	23.796953	0.001102	20.760149
614.173858	-2.985100	3.760400	-11.224000	23.841006	0.001101	20.769707
615.175982	-2.987900	3.760100	-11.233000	23.837298	0.001101	20.748444
616.174985	-2.984700	3.760400	-11.222000	23.834859	0.001100	20.768284
617.179008	-2.977900	3.760200	-11.197000	23.839015	0.001102	20.758227
618.174365	-2.987700	3.758700	-11.229000	23.863156	0.001103	20.746872
619.186044	-2.992700	3.759100	-11.249000	23.878437	0.001102	20.765040
620.174046	-2.983000	3.757900	-11.209000	23.874978	0.001101	20.766787
621.183383	-3.007300	3.756200	-11.294000	23.887795	0.001100	20.780113
622.173382	-2.994000	3.758200	-11.251000	23.889911	0.001102	20.782709
623.183300	-3.006000	3.756500	-11.291000	23.889015	0.001102	20.771379
624.176301	-3.008700	3.756300	-11.301000	23.848174	0.001101	20.764566
625.173978	-3.006100	3.755800	-11.289000	23.813031	0.001100	20.789547
626.174685	-3.001800	3.757700	-11.279000	23.840085	0.001099	20.775896
627.175141	-2.997800	3.757000	-11.262000	23.847875	0.001100	20.767585
628.179911	-3.003800	3.757100	-11.285000	23.860792	0.001100	20.771529
629.175252	-3.027100	3.756100	-11.369000	23.884759	0.001099	20.765689
630.179251	-2.998400	3.756800	-11.263000	23.878811	0.001099	20.778691
631.175254	-3.011200	3.754400	-11.303000	23.863679	0.001101	20.774423
632.180402	-2.983500	3.755300	-11.201000	23.854421	0.001101	20.785529
633.179401	-3.013800	3.753700	-11.311000	23.850264	0.001098	20.786577
634.176201	-3.010200	3.754900	-11.302000	23.845934	0.001101	20.769432
635.175200	-2.985300	3.753300	-11.204000	23.840757	0.001100	20.783682
636.175240	-3.015600	3.751800	-11.314000	23.837671	0.001099	20.776794
637.177804	-2.989900	3.752200	-11.216000	23.874331	0.001098	20.805967
638.178072	-3.023300	3.751000	-11.340000	23.889936	0.001099	20.802174
639.178711	-3.012800	3.752600	-11.305000	23.897277	0.001099	20.776819
640.177710	-2.997100	3.751700	-11.243000	23.910866	0.001099	20.788548
641.177024	-2.999900	3.751500	-11.253000	23.926445	0.001099	20.797058
642.183026	-3.010800	3.750800	-11.291000	23.936300	0.001099	20.798406
643.177395	-2.987200	3.752000	-11.207000	23.916589	0.001099	20.790495
644.182411	-3.019200	3.749800	-11.320000	23.899318	0.001097	20.802099
645.195414	-3.002100	3.750200	-11.258000	23.856760	0.001098	20.789297
646.180410	-3.018600	3.750000	-11.318000	23.894316	0.001097	20.767685
647.178976	-3.007400	3.749000	-11.274000	23.896083	0.001099	20.774673
648.178649	-3.013900	3.747800	-11.294000	23.908551	0.001098	20.786227
649.181353	-2.999100	3.748900	-11.242000	23.906510	0.001098	20.777543
650.182940	-2.982600	3.749700	-11.182000	23.924230	0.001097	20.784406
651.193457	-3.001200	3.748500	-11.249000	23.936499	0.001097	20.773949
652.180524	-3.008700	3.748700	-11.278000	23.970294	0.001097	20.782235
653.188926	-3.014500	3.747300	-11.296000	23.991496	0.001097	20.787850
654.192305	-2.987900	3.748000	-11.198000	23.992914	0.001096	20.809186
655.183955	-3.000500	3.747300	-11.241000	23.977958	0.001097	20.776644
656.182049	-2.998900	3.747300	-11.237000	23.968651	0.001096	20.787226
657.182047	-3.022100	3.746900	-11.322000	23.969572	0.001098	20.809960
658.181948	-3.002200	3.747500	-11.250000	23.955188	0.001096	20.784630
659.183977	-3.005600	3.746100	-11.258000	23.975967	0.001096	20.789347
660.186032	-3.001600	3.745500	-11.242000	23.984603	0.001096	20.797058
661.181560	-2.988200	3.745300	-11.189000	23.982089	0.001097	20.801176
662.187560	-2.997700	3.746600	-11.230000	23.996821	0.001097	20.788449
663.183978	-2.994200	3.746000	-11.215000	23.993113	0.001095	20.791843
664.183372	-3.002600	3.745300	-11.243000	24.003142	0.001096	20.784356
665.185726	-2.993900	3.745000	-11.211000	24.039871	0.001096	20.802698
666.181721	-3.019000	3.743700	-11.300000	24.032804	0.001097	20.801301
667.187050	-3.003100	3.743400	-11.241000	24.051741	0.001095	20.780463
668.192048	-2.993000	3.744600	-11.207000	24.063436	0.001096	20.804520
669.193049	-2.998800	3.743900	-11.226000	24.068114	0.001095	20.790720
670.238046	-2.984400	3.743700	-11.171000	24.061719	0.001095	20.785255
671.185402	-2.996000	3.742700	-11.212000	24.038229	0.001093	20.807690
672.184390	-3.021100	3.741500	-11.303000	24.033676	0.001096	20.812132
673.186097	-2.984000	3.742200	-11.166000	23.992268	0.001095	20.807590
674.192094	-2.988400	3.742100	-11.182000	24.011753	0.001094	20.786827
675.184222	-2.995000	3.742000	-11.207000	24.019541	0.001094	20.817397
676.188052	-2.991300	3.742400	-11.194000	24.040519	0.001093	20.796235
677.185215	-3.011800	3.741900	-11.267000	24.027131	0.001095	20.807465
678.185218	-3.022800	3.740500	-11.306000	24.060675	0.001093	20.804595
679.185215	-2.995100	3.741900	-11.206000	24.068264	0.001095	20.812207
680.185472	-3.004700	3.739300	-11.234000	24.091505	0.001092	20.806118
681.187835	-3.016400	3.740200	-11.280000	24.098671	0.001096	20.803348
682.188111	-3.001700	3.739700	-11.225000	24.106783	0.001093	20.807216
683.186113	-3.010000	3.738800	-11.254000	24.110764	0.001091	20.803622
684.190810	-2.994000	3.739400	-11.195000	24.096531	0.001093	20.792193
685.192864	-3.009800	3.738300	-11.250000	24.107679	0.001093	20.822813
686.187701	-3.007700	3.738300	-11.243000	24.122981	0.001090	20.802125
687.188699	-3.014700	3.738600	-11.270000	24.144753	0.001093	20.813056
688.188071	-3.000000	3.737500	-11.211000	24.145699	0.001092	20.823961
689.188160	-2.981200	3.738200	-11.143000	24.139926	0.001092	20.792568
690.188599	-2.989800	3.738200	-11.176000	24.107132	0.001092	20.812781
691.187643	-2.999500	3.738200	-11.212000	24.099891	0.001092	20.805519
692.199643	-3.023700	3.735800	-11.294000	24.085683	0.001091	20.815452
693.196846	-3.020800	3.735500	-11.283000	24.072246	0.001093	20.798657
694.191920	-3.000300	3.737000	-11.211000	24.045696	0.001092	20.817548
695.190955	-2.992500	3.735800	-11.178000	24.050324	0.001093	20.800853
696.198951	-2.988300	3.736900	-11.165000	24.028302	0.001091	20.810062
697.190945	-2.988000	3.736100	-11.162000	24.067195	0.001091	20.810661
698.201954	-3.004900	3.735700	-11.224000	24.064707	0.001089	20.822390
699.191462	-2.989500	3.734700	-11.164000	24.058536	0.001093	20.814779
700.192465	-3.005500	3.734200	-11.223000	24.067594	0.001090	20.815328
701.192687	-2.998500	3.734100	-11.195000	24.048060	0.001090	20.810911
702.193446	-3.005900	3.734800	-11.225000	24.064633	0.001091	20.838436
703.196906	-2.993300	3.733700	-11.175000	24.045746	0.001089	20.829453
704.202169	-3.008700	3.734400	-11.235000	24.029323	0.001089	20.801129
705.195170	-3.006600	3.733300	-11.224000	24.016209	0.001089	20.803624
706.193353	-3.023000	3.732600	-11.283000	24.007624	0.001090	20.827731
707.193247	-2.984900	3.733800	-11.144000	23.997322	0.001089	20.819297
708.197369	-3.007000	3.731700	-11.220000	24.030170	0.001090	20.830901
709.196369	-2.989700	3.733300	-11.160000	24.046718	0.001089	20.839436
710.196129	-2.984000	3.731800	-11.135000	24.045922	0.001088	20.815404
711.195177	-2.982500	3.731900	-11.129000	24.043633	0.001088	20.832548
712.196176	-2.976700	3.732500	-11.109000	24.066999	0.001087	20.827533
713.199017	-2.988800	3.731800	-11.153000	24.071702	0.001089	20.820396
714.196518	-2.995900	3.729900	-11.173000	24.103054	0.001089	20.835244
715.196338	-3.013000	3.729600	-11.236000	24.118730	0.001088	20.839112
716.211336	-3.007800	3.730100	-11.218000	24.130500	0.001087	20.829580
717.198649	-3.009000	3.728100	-11.217000	24.142269	0.001088	20.809616
718.196649	-3.008500	3.729000	-11.218000	24.146648	0.001088	20.798835
719.200503	-2.988700	3.729000	-11.144000	24.129828	0.001086	20.831751
720.197557	-3.019700	3.727800	-11.256000	24.127141	0.001087	20.833798
721.201077	-2.982900	3.728900	-11.122000	24.121568	0.001086	20.833424
722.202347	-3.019600	3.728300	-11.257000	24.118831	0.001085	20.820722
723.196370	-3.021800	3.728300	-11.264000	24.093949	0.001087	20.829431
724.197216	-2.990400	3.728700	-11.149000	24.099000	0.001084	20.822644
725.200216	-3.014100	3.726500	-11.231000	24.124754	0.001086	20.837567
726.198779	-2.998400	3.727300	-11.175000	24.118658	0.001086	20.824341
727.200061	-2.990000	3.727500	-11.144000	24.135478	0.001088	20.856857
728.199498	-2.991900	3.726600	-11.149000	24.152323	0.001085	20.823019
729.201498	-2.985600	3.726000	-11.123000	24.153070	0.001086	20.839888
730.204034	-3.004900	3.725800	-11.194000	24.199199	0.001084	20.821198
731.202041	-3.004100	3.725200	-11.189000	24.167750	0.001084	20.843707
732.202035	-2.987900	3.725400	-11.130000	24.184395	0.001085	20.834324
733.199315	-2.990500	3.725500	-11.139000	24.190168	0.001085	20.844855
734.201318	-2.989800	3.724800	-11.135000	24.211540	0.001084	20.822671
735.203088	-2.976400	3.725700	-11.088000	24.233633	0.001084	20.841037
736.200055	-2.987300	3.725500	-11.128000	24.199399	0.001083	20.823769
737.200424	-2.979200	3.724400	-11.095000	24.237515	0.001084	20.836871
738.200422	-2.996100	3.724600	-11.158000	24.241347	0.001082	20.833601
739.201522	-2.979700	3.724200	-11.096000	24.230823	0.001083	20.854339
740.208524	-2.998900	3.723100	-11.164000	24.257817	0.001083	20.860078
741.206005	-3.012600	3.723100	-11.215000	24.264137	0.001083	20.851245
742.227692	-3.000100	3.722600	-11.167000	24.281352	0.001082	20.850496
743.201958	-2.981900	3.722700	-11.099000	24.299315	0.001083	20.847178
744.201252	-3.001700	3.723700	-11.176000	24.315411	0.001082	20.857634
745.201655	-3.019200	3.721100	-11.234000	24.311605	0.001085	20.840540
746.204655	-2.987600	3.722500	-11.120000	24.324168	0.001081	20.854091
747.204715	-3.000900	3.721500	-11.167000	24.345737	0.001081	20.842063
748.204726	-2.990400	3.721900	-11.130000	24.341135	0.001080	20.855464
749.205692	-2.979700	3.721000	-11.087000	24.343225	0.001081	20.846181
750.205576	-3.002300	3.721100	-11.171000	24.334120	0.001082	20.863125
751.217742	-3.020000	3.720500	-11.235000	24.303322	0.001081	20.866369
752.214639	-3.002700	3.720900	-11.171000	24.272498	0.001080	20.848253
753.206775	-2.976600	3.720200	-11.073000	24.274837	0.001081	20.848228
754.207094	-2.985800	3.720100	-11.107000	24.255556	0.001081	20.870138
755.206095	-2.982500	3.719100	-11.090000	24.240405	0.001081	20.867743
756.216331	-3.005100	3.718100	-11.172000	24.235878	0.001081	20.841866
757.208326	-3.023100	3.718000	-11.239000	24.207490	0.001079	20.873134
758.205399	-3.006600	3.718700	-11.180000	24.220130	0.001080	20.874906
759.209394	-2.998000	3.718200	-11.146000	24.242671	0.001079	20.866223
760.205334	-3.009200	3.717800	-11.187000	24.268247	0.001080	20.858213
761.208602	-3.013700	3.717500	-11.203000	24.258993	0.001078	20.856516
762.210146	-2.997100	3.718400	-11.144000	24.266631	0.001079	20.860385
763.208790	-3.001400	3.717600	-11.157000	24.236279	0.001077	20.865027
764.211299	-2.995100	3.716700	-11.130000	24.250460	0.001077	20.851751
765.217736	-2.990700	3.717400	-11.117000	24.270513	0.001078	20.858115
766.208779	-2.998300	3.716600	-11.143000	24.257949	0.001076	20.884392
767.209305	-3.012100	3.716500	-11.194000	24.272405	0.001076	20.851004
768.221303	-3.014700	3.716200	-11.202000	24.268649	0.001078	20.868572
769.213048	-2.976400	3.717600	-11.064000	24.252428	0.001078	20.867000
770.215046	-2.999000	3.715400	-11.141000	24.267107	0.001077	20.866078
771.211683	-3.005000	3.714500	-11.162000	24.259295	0.001077	20.862984
772.228613	-3.005400	3.715700	-11.166000	24.286886	0.001077	20.886390
773.217003	-2.981500	3.716200	-11.078000	24.265143	0.001076	20.860789
774.212310	-3.015200	3.714400	-11.197000	24.307685	0.001076	20.877858
775.217307	-2.999400	3.714800	-11.141000	24.294375	0.001075	20.872567
776.213105	-2.985900	3.714200	-11.089000	24.301242	0.001077	20.869499
777.212370	-2.974300	3.715900	-11.052000	24.316867	0.001076	20.886119
778.215915	-3.009300	3.712700	-11.171000	24.330300	0.001076	20.865457
779.214913	-2.994700	3.713800	-11.120000	24.332665	0.001075	20.893431
780.213878	-2.994600	3.713800	-11.120000	24.351696	0.001076	20.888341
781.213877	-3.004900	3.713800	-11.159000	24.371373	0.001074	20.870150
782.214635	-3.002800	3.711100	-11.142000	24.346846	0.001075	20.881105
783.215670	-2.986800	3.713500	-11.091000	24.354359	0.001075	20.888168
784.215519	-3.001400	3.711800	-11.140000	24.326821	0.001076	20.883777
785.216008	-3.007600	3.710900	-11.160000	24.323189	0.001075	20.877763
786.220020	-3.016200	3.710300	-11.190000	24.312268	0.001074	20.882929
787.228399	-2.988700	3.711500	-11.092000	24.341276	0.001075	20.883104
788.223503	-2.981700	3.711600	-11.066000	24.329585	0.001075	20.889867
789.218427	-2.999000	3.710000	-11.125000	24.350481	0.001075	20.871951
790.219339	-2.992000	3.709600	-11.098000	24.340456	0.001074	20.871377
791.217241	-2.988800	3.710500	-11.087000	24.377001	0.001074	20.888122
792.218237	-2.996200	3.708800	-11.110000	24.363244	0.001073	20.886176
793.217896	-2.998800	3.709600	-11.124000	24.379116	0.001071	20.879339
794.229897	-3.011000	3.709100	-11.167000	24.369042	0.001072	20.883457
795.229097	-2.995100	3.709300	-11.108000	24.392327	0.001073	20.883583
796.219294	-2.977600	3.708700	-11.042000	24.380038	0.001070	20.883108
797.218231	-3.037100	3.707300	-11.259000	24.383347	0.001072	20.874101
798.220587	-2.990900	3.709500	-11.094000	24.377627	0.001072	20.899654
799.219588	-2.995200	3.708900	-11.107000	24.359865	0.001072	20.891794
800.237794	-2.983100	3.709200	-11.064000	24.355090	0.001071	20.897434
801.220794	-2.972200	3.708100	-11.020000	24.369393	0.001070	20.896137
802.222402	-3.014600	3.706200	-11.172000	24.364270	0.001070	20.889101
803.220418	-3.026800	3.706700	-11.218000	24.369768	0.001071	20.877548
804.219528	-3.010000	3.707000	-11.157000	24.392380	0.001068	20.881266
805.224530	-3.022300	3.705100	-11.196000	24.361908	0.001071	20.887680
806.223596	-2.997800	3.706800	-11.111000	24.359073	0.001068	20.881991
807.226626	-3.003300	3.705500	-11.128000	24.375939	0.001069	20.893694
808.219519	-3.013700	3.705300	-11.164000	24.394024	0.001069	20.888604
809.228514	-2.992900	3.706700	-11.093000	24.388403	0.001070	20.887706
810.220426	-2.998500	3.704900	-11.108000	24.409124	0.001068	20.885735
811.223427	-3.005400	3.704000	-11.131000	24.407508	0.001068	20.888855
812.219951	-3.010500	3.705100	-11.153000	24.371165	0.001067	20.887483
813.224963	-2.986100	3.705400	-11.063000	24.374846	0.001065	20.886435
814.221644	-2.987600	3.705000	-11.068000	24.379300	0.001066	20.866722
815.220337	-2.993800	3.705800	-11.093000	24.380891	0.001067	20.866422
816.222335	-3.001700	3.703600	-11.115000	24.355320	0.001065	20.887709
817.221746	-2.996600	3.704000	-11.099000	24.379823	0.001068	20.873411
818.222975	-3.023000	3.701800	-11.189000	24.394526	0.001065	20.886262
819.226189	-3.007600	3.703100	-11.137000	24.397287	0.001063	20.881447
820.222191	-3.011000	3.703600	-11.150000	24.418332	0.001063	20.873637
821.223236	-3.016900	3.702800	-11.169000	24.425721	0.001063	20.847385
822.223263	-3.019500	3.702600	-11.179000	24.434228	0.001064	20.870144
823.224042	-2.990200	3.702300	-11.070000	24.443084	0.001065	20.874286
824.223531	-3.002900	3.702000	-11.115000	24.453507	0.001065	20.849657
825.222531	-3.021500	3.702000	-11.185000	24.440124	0.001064	20.856145
826.222530	-2.999400	3.701200	-11.101000	24.458955	0.001062	20.873614
827.226531	-2.994600	3.700800	-11.081000	24.447040	0.001063	20.866876
828.222153	-3.013500	3.700300	-11.150000	24.437762	0.001062	20.857569
829.224159	-3.013600	3.700000	-11.150000	24.418634	0.001063	20.882947
830.222995	-2.984900	3.700900	-11.045000	24.448012	0.001062	20.854101
831.223001	-3.000700	3.699400	-11.099000	24.453086	0.001066	20.866304
832.223830	-3.016200	3.699200	-11.155000	24.452067	0.001062	20.859592
833.237558	-2.992700	3.698600	-11.068000	24.450600	0.001063	20.852904
834.224020	-2.975400	3.699300	-11.006000	24.465276	0.001060	20.862887
835.224015	-3.009500	3.698200	-11.129000	24.478734	0.001059	20.863112
836.223367	-3.020800	3.697900	-11.170000	24.454557	0.001060	20.869201
837.225368	-2.994900	3.698300	-11.075000	24.441448	0.001063	20.856051
838.225745	-3.009400	3.697100	-11.125000	24.439682	0.001059	20.862813
839.224575	-2.993600	3.697300	-11.067000	24.401001	0.001061	20.856725
840.237575	-3.004000	3.698200	-11.107000	24.435927	0.001059	20.835340
841.237551	-2.991700	3.696900	-11.058000	24.445306	0.001060	20.845697
842.225770	-2.983100	3.698200	-11.031000	24.446649	0.001061	20.857950
843.229019	-2.998800	3.697700	-11.087000	24.431003	0.001059	20.857426
844.226617	-3.015000	3.695800	-11.142000	24.438789	0.001060	20.870926
845.226396	-2.994700	3.696500	-11.069000	24.413616	0.001061	20.854207
846.235399	-2.991500	3.696500	-11.057000	24.429511	0.001058	20.855455
847.226789	-2.991300	3.695400	-11.053000	24.450631	0.001060	20.856255
848.226806	-3.000500	3.695700	-11.088000	24.467297	0.001058	20.847846
849.231601	-2.993800	3.695000	-11.060000	24.468342	0.001059	20.840834
850.226700	-2.996500	3.695000	-11.071000	24.486774	0.001060	20.842256
851.228703	-2.988000	3.695400	-11.041000	24.516648	0.001059	20.842357
852.228667	-2.995900	3.693900	-11.065000	24.513439	0.001058	20.845301
853.228542	-2.991000	3.693600	-11.046000	24.535799	0.001059	20.850192
854.233284	-3.001600	3.693300	-11.085000	24.545276	0.001061	20.845476
855.229908	-3.005500	3.693100	-11.099000	24.556519	0.001058	20.824040
856.236766	-3.013700	3.693500	-11.129000	24.534134	0.001058	20.860849
857.228765	-3.028100	3.692200	-11.180000	24.493938	0.001058	20.823840
858.228467	-3.002000	3.692800	-11.085000	24.436604	0.001058	20.830804
859.237469	-2.991800	3.693500	-11.048000	24.440011	0.001057	20.844653
860.230444	-3.009500	3.691800	-11.109000	24.448593	0.001060	20.818650
861.241445	-3.004500	3.692800	-11.094000	24.455954	0.001056	20.830303
862.229648	-2.987900	3.692100	-11.031000	24.434213	0.001059	20.846422
863.229647	-2.987500	3.692200	-11.029000	24.440159	0.001058	20.855706
864.229446	-2.997100	3.691100	-11.061000	24.451277	0.001059	20.831300
865.232445	-2.994900	3.690400	-11.051000	24.469286	0.001058	20.833720
866.231025	-3.001000	3.690500	-11.075000	24.482866	0.001058	20.843551
867.232023	-2.998700	3.689700	-11.063000	24.447196	0.001058	20.838585
868.231979	-2.988900	3.690900	-11.031000	24.420157	0.001058	20.841329
869.231977	-3.011200	3.688300	-11.106000	24.418713	0.001058	20.842252
870.233974	-2.989500	3.691000	-11.033000	24.445727	0.001056	20.829999
871.232018	-2.979300	3.690100	-10.993000	24.434482	0.001054	20.839580
872.232100	-2.996400	3.687700	-11.049000	24.461594	0.001059	20.852081
873.233910	-2.985700	3.690000	-11.016000	24.468161	0.001057	20.855350
874.231265	-2.979300	3.688900	-10.989000	24.466669	0.001056	20.832043
875.231513	-3.001200	3.686800	-11.064000	24.474204	0.001057	20.835809
876.234515	-2.985600	3.687900	-11.009000	24.459403	0.001057	20.840400
877.230512	-2.991200	3.687800	-11.030000	24.478654	0.001056	20.831265
878.231513	-2.979700	3.687300	-10.987000	24.487981	0.001056	20.843468
879.230262	-3.031200	3.684500	-11.168000	24.510714	0.001057	20.859637
880.233308	-3.001800	3.687600	-11.068000	24.512579	0.001057	20.847284
881.234713	-3.002100	3.686900	-11.067000	24.529964	0.001055	20.842441
882.234712	-2.984000	3.687300	-11.002000	24.530660	0.001055	20.842665
883.234166	-3.020000	3.686400	-11.132000	24.530361	0.001055	20.850425
884.233177	-3.007000	3.685900	-11.082000	24.519663	0.001056	20.856761
885.232207	-3.007100	3.685300	-11.081000	24.473199	0.001054	20.833853
886.235442	-2.994200	3.685700	-11.035000	24.472154	0.001054	20.847503
887.238976	-3.019900	3.684200	-11.125000	24.491753	0.001053	20.842036
888.242010	-3.028200	3.685800	-11.160000	24.487897	0.001053	20.850969
889.236012	-2.974200	3.686200	-10.963000	24.485881	0.001050	20.840886
890.247026	-3.008800	3.685000	-11.087000	24.496103	0.001050	20.840711
891.237031	-2.982000	3.684500	-10.986000	24.500356	0.001050	20.840710
892.237432	-2.987900	3.684500	-11.007000	24.529034	0.001049	20.866162
893.235433	-3.011100	3.683200	-11.089000	24.548583	0.001048	20.862070
894.239511	-3.008800	3.683500	-11.081000	24.558879	0.001048	20.852961
895.236511	-2.996900	3.683600	-11.039000	24.546219	0.001048	20.840732
896.237657	-3.003800	3.682800	-11.061000	24.533682	0.001046	20.840008
897.237591	-2.994600	3.681900	-11.025000	24.544178	0.001048	20.832047
898.237124	-3.003100	3.682900	-11.058000	24.508087	0.001046	20.840406
899.238303	-3.002800	3.682400	-11.056000	24.518160	0.001044	20.862365
900.238553	-3.000100	3.684000	-11.051000	24.533556	0.001044	20.853157
901.239182	-2.991900	3.682100	-11.016000	24.551290	0.001046	20.840130
902.239498	-3.005700	3.682100	-11.066000	24.505996	0.001045	20.869127
903.242431	-2.989600	3.682400	-11.008000	24.482142	0.001045	20.871272
904.240429	-2.997900	3.680100	-11.032000	24.509652	0.001043	20.842924
905.238635	-3.006000	3.680500	-11.062000	24.528381	0.001043	20.837059
906.246636	-3.016400	3.678800	-11.095000	24.509552	0.001044	20.878383
907.239881	-2.981100	3.681300	-10.973000	24.486519	0.001044	20.852431
908.241880	-3.012100	3.679000	-11.080000	24.482390	0.001042	20.838806
909.239180	-2.964000	3.680700	-10.908000	24.461744	0.001042	20.833266
910.240852	-3.016900	3.679200	-11.099000	24.472564	0.001042	20.835112
911.240852	-2.986900	3.680400	-10.992000	24.475324	0.001043	20.854950
912.240278	-3.011000	3.678300	-11.074000	24.519052	0.001045	20.849984
913.240280	-2.977400	3.679000	-10.953000	24.540716	0.001043	20.839004
914.243703	-2.989000	3.679200	-10.996000	24.546934	0.001043	20.861837
915.240719	-3.002600	3.677200	-11.040000	24.561608	0.001044	20.839578
916.241915	-2.991000	3.678000	-10.999000	24.592921	0.001042	20.856770
917.241370	-2.973200	3.677600	-10.933000	24.611748	0.001042	20.837730
918.244002	-2.977800	3.678600	-10.952000	24.601327	0.001041	20.866153
919.245004	-2.976800	3.676900	-10.944000	24.616647	0.001041	20.839800
920.241009	-2.985600	3.677700	-10.979000	24.608290	0.001043	20.850855
921.245009	-2.987200	3.676200	-10.980000	24.610055	0.001040	20.852626
922.241140	-2.979500	3.676900	-10.955000	24.585631	0.001041	20.843767
923.242439	-2.988400	3.675600	-10.983000	24.594211	0.001043	20.837204
924.246036	-3.011300	3.674400	-11.064000	24.584760	0.001039	20.848582
925.243032	-2.989000	3.675900	-10.986000	24.627736	0.001041	20.850927
926.242399	-2.996700	3.674600	-11.011000	24.624080	0.001041	20.839672
927.242418	-3.018600	3.673500	-11.087000	24.609828	0.001040	20.861407
928.249352	-2.991800	3.673900	-10.989000	24.600576	0.001039	20.867296
929.243948	-3.006000	3.674100	-11.043000	24.569710	0.001041	20.845336
930.245578	-2.998000	3.673800	-11.012000	24.573938	0.001039	20.835353
931.244728	-2.996700	3.673400	-11.006000	24.556328	0.001039	20.859883
932.244518	-2.995100	3.672500	-10.998000	24.559014	0.001039	20.852621
933.247011	-2.994500	3.673100	-10.998000	24.545955	0.001037	20.852795
934.244473	-3.003300	3.672600	-11.029000	24.534811	0.001040	20.838770
935.246888	-2.955700	3.674800	-10.861000	24.504665	0.001039	20.846929
936.244792	-2.991900	3.673500	-10.988000	24.511778	0.001037	20.855488
937.252791	-2.989200	3.673400	-10.980000	24.509091	0.001036	20.855638
938.244792	-3.012100	3.672100	-11.060000	24.483869	0.001036	20.837445
939.246810	-2.990200	3.671500	-10.977000	24.488768	0.001038	20.848524
940.246810	-3.003900	3.670800	-11.026000	24.469317	0.001038	20.847975
941.247359	-2.990500	3.670600	-10.975000	24.460685	0.001038	20.818927
942.244360	-3.008100	3.671400	-11.042000	24.453098	0.001037	20.848773
943.243417	-3.004200	3.671300	-11.027000	24.469663	0.001038	20.857805
944.244423	-3.006600	3.670200	-11.034000	24.444291	0.001037	20.839938
945.246840	-2.998500	3.669700	-11.002000	24.446082	0.001035	20.829881
946.256839	-2.982800	3.670000	-10.946000	24.465135	0.001034	20.828607
947.244748	-2.989600	3.668800	-10.967000	24.482248	0.001035	20.832974
948.257749	-2.974900	3.670800	-10.920000	24.486252	0.001034	20.837940
949.246803	-2.970900	3.670400	-10.902000	24.505902	0.001034	20.844378
950.246351	-2.988600	3.670000	-10.967000	24.480779	0.001034	20.827707
951.248690	-2.997600	3.667800	-10.994000	24.496350	0.001034	20.829105
952.247081	-2.996900	3.669100	-10.995000	24.502966	0.001032	20.850915
953.247444	-2.991700	3.669400	-10.976000	24.526695	0.001032	20.855755
954.248738	-2.999100	3.669100	-11.004000	24.544602	0.001032	20.841007
955.248706	-3.009800	3.668500	-11.039000	24.557934	0.001033	20.863865
956.248967	-3.019900	3.667500	-11.073000	24.561590	0.001031	20.847145
957.249969	-2.990500	3.668600	-10.969000	24.567534	0.001030	20.842678
958.260041	-2.992100	3.668300	-10.975000	24.560196	0.001029	20.822989
959.251040	-3.001500	3.667200	-11.006000	24.603597	0.001029	20.834293
960.255324	-3.010800	3.665900	-11.036000	24.620260	0.001030	20.844374
961.251295	-2.996700	3.667400	-10.989000	24.619688	0.001029	20.857076
962.255200	-2.984600	3.666900	-10.943000	24.601980	0.001028	20.854006
963.274199	-3.002700	3.665100	-11.005000	24.622249	0.001029	20.864861
964.252948	-2.997500	3.666500	-10.988000	24.641374	0.001028	20.844698
965.253260	-3.013100	3.666800	-11.047000	24.608296	0.001029	20.852758
966.254424	-2.992300	3.665200	-10.966000	24.608744	0.001027	20.837087
967.257535	-3.014000	3.664800	-11.045000	24.623542	0.001027	20.846245
968.256345	-3.012600	3.662800	-11.034000	24.636823	0.001029	20.832070
969.257342	-3.003000	3.663200	-11.000000	24.649581	0.001025	20.849139
970.254180	-2.981600	3.665600	-10.928000	24.678604	0.001025	20.856925
971.257247	-3.019600	3.662800	-11.060000	24.698673	0.001025	20.873270
972.255901	-2.985300	3.665100	-10.940000	24.693873	0.001023	20.837635
973.263754	-3.003600	3.663700	-11.002000	24.663906	0.001023	20.845970
974.256756	-3.001100	3.664500	-10.996000	24.644010	0.001022	20.846394
975.256660	-3.016600	3.661000	-11.043000	24.655002	0.001022	20.830872
976.265659	-3.006000	3.662800	-11.008000	24.613593	0.001023	20.862340
977.256590	-3.011100	3.661600	-11.024000	24.627247	0.001022	20.840480
978.262609	-3.002000	3.661500	-10.991000	24.619811	0.001020	20.855777
979.257453	-3.006600	3.662000	-11.010000	24.660300	0.001020	20.839032
980.261448	-3.009000	3.660000	-11.011000	24.652565	0.001021	20.853082
981.265738	-2.984200	3.660900	-10.924000	24.664851	0.001020	20.846918
982.259737	-2.977600	3.661200	-10.900000	24.667139	0.001021	20.850636
983.259963	-2.990700	3.661700	-10.950000	24.698822	0.001020	20.841653
984.272372	-2.990400	3.660600	-10.946000	24.693575	0.001017	20.844922
985.263047	-3.007500	3.658800	-11.003000	24.722398	0.001019	20.845870
986.263046	-3.022800	3.657700	-11.056000	24.755547	0.001016	20.848790
987.263055	-2.984800	3.660500	-10.925000	24.760396	0.001017	20.826156
988.273056	-3.005500	3.658900	-10.994000	24.753408	0.001018	20.835739
989.265452	-3.014000	3.658600	-11.027000	24.721354	0.001017	20.849564
990.262095	-2.988700	3.658500	-10.933000	24.723318	0.001016	20.833044
991.267983	-3.000400	3.657500	-10.972000	24.723517	0.001017	20.836562
992.271292	-3.007400	3.658900	-11.000000	24.740154	0.001018	20.833817
993.278290	-2.983600	3.658400	-10.914000	24.710586	0.001017	20.822638
994.264112	-3.000100	3.658000	-10.973000	24.708323	0.001016	20.823686
995.264199	-3.006900	3.657300	-10.997000	24.713918	0.001015	20.845421
996.271271	-3.000700	3.656500	-10.972000	24.719762	0.001017	20.833269
997.264267	-3.008600	3.655700	-10.996000	24.736772	0.001016	20.835165
998.264940	-3.012100	3.655100	-11.009000	24.720757	0.001015	20.819569
999.264280	-2.980800	3.658100	-10.903000	24.729586	0.001015	20.808040
1000.267007	-2.979700	3.655700	-10.892000	24.720857	0.001013	20.830100
1001.265172	-2.982900	3.656400	-10.906000	24.682982	0.001012	20.810585
1002.265986	-2.990200	3.654200	-10.925000	24.701062	0.001012	20.842952
1003.271181	-3.003100	3.656000	-10.978000	24.702306	0.001012	20.819544
1004.265854	-3.008000	3.653300	-10.988000	24.700192	0.001014	20.833070
1005.267854	-3.003300	3.654200	-10.973000	24.700864	0.001011	20.826158
1006.266003	-2.998100	3.653000	-10.950000	24.669703	0.001011	20.820019
1007.269004	-2.997700	3.654100	-10.953000	24.670772	0.001011	20.831523
1008.267072	-2.987500	3.653800	-10.913000	24.660576	0.001010	20.817499
1009.267748	-2.985300	3.654700	-10.910000	24.678208	0.001008	20.838985
1010.267713	-3.009400	3.651700	-10.989000	24.666644	0.001008	20.845399
1011.271461	-2.998500	3.652300	-10.950000	24.662989	0.001011	20.829877
1012.268464	-3.019400	3.652100	-11.025000	24.685943	0.001011	20.849591
1013.275544	-3.023300	3.652700	-11.042000	24.699994	0.001008	20.818174
1014.284545	-3.006000	3.652200	-10.977000	24.678980	0.001008	20.819846
1015.268125	-2.992700	3.652700	-10.931000	24.675922	0.001009	20.828630
1016.271125	-2.995600	3.651800	-10.938000	24.676618	0.001007	20.813682
1017.267879	-3.033100	3.650600	-11.072000	24.696862	0.001009	20.816453
1018.267368	-2.999000	3.650800	-10.948000	24.710963	0.001008	20.837240
1019.269843	-3.009800	3.650400	-10.984000	24.689451	0.001007	20.822292
1020.268839	-3.024000	3.650100	-11.037000	24.674804	0.001004	20.815181
1021.270726	-2.993700	3.650800	-10.929000	24.629714	0.001004	20.822093
1022.278898	-2.984100	3.650800	-10.893000	24.657619	0.001005	20.834920
1023.271587	-2.988700	3.649500	-10.906000	24.653665	0.001004	20.820522
1024.271651	-3.003800	3.649100	-10.959000	24.682589	0.001004	20.825837
1025.272099	-2.988300	3.649100	-10.903000	24.678237	0.001003	20.824315
1026.270589	-2.981500	3.650500	-10.881000	24.707383	0.001004	20.833174
1027.273593	-2.997300	3.648400	-10.933000	24.701688	0.001002	20.817977
1028.282946	-2.997500	3.648300	-10.934000	24.750878	0.001002	20.823243
1029.271950	-2.979700	3.649000	-10.872000	24.748690	0.001003	20.818676
1030.270817	-3.007800	3.647400	-10.970000	24.732850	0.001001	20.837867
1031.272003	-2.995300	3.647200	-10.924000	24.742797	0.001001	20.819400
1032.272670	-3.020600	3.646500	-11.014000	24.750357	0.001001	20.820823
1033.271670	-2.988400	3.647600	-10.900000	24.772266	0.001000	20.809145
1034.279378	-2.991500	3.646100	-10.906000	24.748020	0.001002	20.818478
1035.272383	-3.008600	3.646400	-10.970000	24.761573	0.000999	20.821647
1036.271796	-3.009400	3.645800	-10.970000	24.742798	0.001000	20.821298
1037.272795	-3.011900	3.645300	-10.977000	24.737825	0.001000	20.800660
1038.274645	-3.019600	3.644300	-11.003000	24.744092	0.000998	20.819752
1039.271642	-2.991800	3.646400	-10.908000	24.757744	0.000999	20.801684
1040.276639	-2.988000	3.645300	-10.890000	24.733697	0.000998	20.838717
1041.272639	-3.015300	3.645000	-10.989000	24.727754	0.000998	20.816158
1042.272861	-3.001400	3.644600	-10.937000	24.740561	0.000997	20.823321
1043.275054	-2.989800	3.644700	-10.896000	24.754637	0.000999	20.812316
1044.274182	-3.017100	3.642400	-10.989000	24.736682	0.000997	20.809471
1045.275516	-2.994400	3.644600	-10.912000	24.699827	0.000996	20.813264
1046.274971	-3.011100	3.643700	-10.971000	24.677743	0.000996	20.811492
1047.299972	-2.998800	3.642700	-10.921000	24.637827	0.000995	20.826441
1048.276975	-3.001600	3.643700	-10.936000	24.622681	0.000995	20.818355
1049.276556	-3.003500	3.643100	-10.941000	24.605272	0.000993	20.816534
1050.276553	-3.002300	3.642600	-10.935000	24.619622	0.000994	20.812915
1051.299553	-2.989200	3.643000	-10.888000	24.626561	0.000994	20.819878
1052.275556	-3.006600	3.643200	-10.953000	24.639568	0.000994	20.822972
1053.275819	-2.984900	3.642700	-10.871000	24.635639	0.000993	20.808124
1054.277821	-2.982100	3.642600	-10.861000	24.664861	0.000992	20.813264
1055.274304	-2.995400	3.640700	-10.905000	24.669064	0.000992	20.817956
1056.283305	-3.011200	3.640600	-10.961000	24.687840	0.000991	20.810245
1057.275492	-2.996000	3.641100	-10.908000	24.719946	0.000988	20.815910
1058.275771	-3.008200	3.641200	-10.953000	24.713057	0.000990	20.806152
1059.279799	-3.019300	3.640300	-10.989000	24.729445	0.000989	20.825442
1060.275863	-2.986000	3.639600	-10.866000	24.723626	0.000987	20.804904
1061.278422	-3.029400	3.637900	-11.019000	24.730962	0.000989	20.822223
1062.275661	-3.011000	3.639500	-10.957000	24.772392	0.000986	20.814486
1063.275270	-3.016600	3.638300	-10.974000	24.771745	0.000988	20.820476
1064.276320	-2.984900	3.639800	-10.864000	24.778981	0.000986	20.830108
1065.283510	-3.000800	3.638200	-10.916000	24.760405	0.000988	20.812889
1066.277567	-3.000100	3.639000	-10.915000	24.725839	0.000985	20.808547
1067.279011	-3.018400	3.637500	-10.978000	24.754934	0.000983	20.814036
1068.279447	-3.014100	3.636700	-10.960000	24.760529	0.000984	20.823918
1069.279761	-3.013000	3.637800	-10.960000	24.789673	0.000984	20.803854
1070.285109	-3.029600	3.636700	-11.017000	24.754087	0.000983	20.828834
1071.280526	-2.986500	3.636800	-10.860000	24.778084	0.000984	20.819725
1072.285464	-3.020500	3.636300	-10.982000	24.757370	0.000981	20.807946
1073.281473	-3.008400	3.636800	-10.940000	24.730661	0.000983	20.799162
1074.282266	-3.012000	3.636700	-10.952000	24.735237	0.000981	20.815133
1075.284269	-3.025600	3.633800	-10.993000	24.683311	0.000983	20.800484
1076.287198	-3.021000	3.634900	-10.980000	24.685449	0.000982	20.817328
1077.283931	-2.997500	3.634800	-10.894000	24.680227	0.000980	20.813984
1078.284523	-2.993900	3.633300	-10.877000	24.683957	0.000981	20.808719
1079.298522	-3.000000	3.634400	-10.902000	24.715092	0.000980	20.800134
1080.285992	-3.001400	3.634100	-10.906000	24.698505	0.000980	20.788230
1081.285991	-2.994400	3.633400	-10.878000	24.690173	0.000980	20.805474
1082.284731	-2.975000	3.634000	-10.810000	24.683160	0.000978	20.811238
1083.285731	-3.000800	3.632900	-10.901000	24.660553	0.000979	20.797562
1084.285768	-3.006600	3.632900	-10.921000	24.665055	0.000977	20.790225
1085.285197	-3.010800	3.633400	-10.939000	24.700045	0.000977	20.812061
1086.290060	-2.995100	3.632800	-10.880000	24.719095	0.000977	20.808417
1087.287752	-2.988800	3.632900	-10.856000	24.753562	0.000977	20.811711
1088.287371	-2.980600	3.633700	-10.829000	24.766269	0.000978	20.804075
1089.288728	-2.992100	3.632400	-10.867000	24.787207	0.000977	20.812285
1090.287244	-2.989000	3.632400	-10.857000	24.812098	0.000977	20.813558
1091.294133	-2.994700	3.631800	-10.875000	24.837014	0.000975	20.806321
1092.290134	-2.996800	3.632100	-10.884000	24.832985	0.000976	20.800381
1093.287905	-2.975800	3.631800	-10.806000	24.867300	0.000975	20.784085
1094.287905	-2.971900	3.632500	-10.795000	24.885650	0.000973	20.802028
1095.291539	-2.972100	3.632100	-10.794000	24.890573	0.000976	20.803650
1096.301556	-2.995900	3.630600	-10.876000	24.905666	0.000973	20.822591
1097.291556	-3.012000	3.629600	-10.931000	24.894327	0.000972	20.798883
1098.289558	-2.990800	3.630700	-10.858000	24.849894	0.000970	20.814505
1099.292836	-3.013000	3.629700	-10.935000	24.852007	0.000973	20.799083
1100.289837	-3.006800	3.629900	-10.912000	24.850988	0.000971	20.805172
1101.291080	-2.989500	3.630300	-10.851000	24.880776	0.000972	20.808042
1102.290901	-3.004800	3.628200	-10.901000	24.880204	0.000969	20.814106
1103.290558	-2.999300	3.629400	-10.885000	24.893705	0.000972	20.820070
1104.291539	-3.021500	3.628300	-10.962000	24.905665	0.000972	20.809314
1105.290965	-3.003500	3.628300	-10.896000	24.929161	0.000969	20.833371
1106.292003	-2.980100	3.628500	-10.812000	24.934930	0.000969	20.812134
1107.291097	-2.998900	3.628100	-10.880000	24.911732	0.000969	20.835317
1108.294024	-2.985800	3.627300	-10.830000	24.874162	0.000967	20.808990
1109.292023	-3.000000	3.625700	-10.877000	24.896764	0.000967	20.808915
1110.303703	-2.996200	3.626700	-10.864000	24.877071	0.000967	20.820444
1111.291755	-3.010900	3.626100	-10.917000	24.889578	0.000968	20.827781
1112.295810	-2.994100	3.625800	-10.855000	24.902035	0.000968	20.835541
1113.294788	-3.008500	3.624600	-10.903000	24.890149	0.000966	20.799432
1114.305815	-3.006900	3.626000	-10.900000	24.906709	0.000968	20.832173
1115.293333	-3.014300	3.623700	-10.922000	24.893680	0.000965	20.823838
1116.293503	-3.005500	3.624000	-10.890000	24.912801	0.000966	20.832597
1117.291504	-2.994700	3.624900	-10.855000	24.929111	0.000966	20.805346
1118.290390	-3.011800	3.623500	-10.912000	24.949400	0.000964	20.808640
1119.314392	-2.990300	3.624100	-10.835000	24.971180	0.000964	20.821966
1120.301193	-2.989400	3.623800	-10.832000	24.995197	0.000963	20.826158
1121.298197	-2.995100	3.623300	-10.851000	25.004321	0.000963	20.844325
1122.308255	-2.996700	3.623000	-10.856000	25.040594	0.000962	20.818622
1123.292255	-3.013400	3.622600	-10.916000	25.021102	0.000962	20.829402
1124.296577	-3.004300	3.622700	-10.883000	25.027144	0.000962	20.817923
1125.292588	-3.017400	3.620500	-10.924000	25.008174	0.000960	20.838236
1126.295866	-2.987900	3.622200	-10.821000	25.015334	0.000960	20.826457
1127.299284	-3.011300	3.620100	-10.899000	24.996340	0.000960	20.811659
1128.295880	-2.953100	3.623900	-10.701000	24.984232	0.000959	20.831273
1129.297597	-2.993900	3.621000	-10.840000	24.946192	0.000958	20.827705
1130.295668	-3.004900	3.621600	-10.880000	24.923765	0.000957	20.831273
1131.297767	-3.003400	3.619500	-10.870000	24.894599	0.000958	20.822389
1132.295846	-2.986300	3.620300	-10.810000	24.912824	0.000958	20.808439
1133.295846	-2.997700	3.620000	-10.850000	24.919090	0.000959	20.814254
1134.296248	-3.007000	3.619200	-10.882000	24.962775	0.000957	20.811159
1135.300925	-2.996300	3.618600	-10.842000	24.975082	0.000957	20.831572
1136.296927	-3.008500	3.617800	-10.883000	24.989502	0.000957	20.819968
1137.302896	-3.016700	3.617200	-10.910000	24.982441	0.000956	20.819519
1138.298895	-3.013700	3.617800	-10.902000	24.945569	0.000956	20.816649
1139.299042	-2.984500	3.617800	-10.796000	24.936146	0.000955	20.808139
1140.303235	-2.999800	3.616300	-10.847000	24.955539	0.000955	20.819069
1141.298162	-2.995900	3.618200	-10.838000	24.934206	0.000955	20.822787
1142.299160	-2.988600	3.616600	-10.807000	24.911705	0.000954	20.818695
1143.311682	-3.019100	3.615200	-10.914000	24.928736	0.000955	20.833418
1144.299684	-2.997900	3.616000	-10.839000	24.910411	0.000954	20.834466
1145.301574	-3.018900	3.615400	-10.912000	24.927493	0.000953	20.815101
1146.300575	-2.999700	3.616500	-10.847000	24.935723	0.000953	20.822413
1147.299427	-3.006600	3.614500	-10.867000	24.948801	0.000952	20.818470
1148.299460	-2.999900	3.615000	-10.843000	24.955141	0.000952	20.827678
1149.299451	-2.999200	3.614600	-10.840000	24.954370	0.000953	20.812206
1150.300451	-2.985100	3.615400	-10.792000	24.985250	0.000951	20.821864
1151.300043	-2.975900	3.614700	-10.755000	24.984951	0.000951	20.841004
1152.301037	-2.985200	3.614800	-10.790000	24.984802	0.000951	20.810983
1153.301998	-2.992600	3.614300	-10.815000	24.952232	0.000951	20.824284
1154.300960	-2.979000	3.613700	-10.763000	24.964564	0.000949	20.808687
1155.302893	-2.988500	3.614600	-10.801000	24.986915	0.000950	20.828751
1156.305932	-3.009100	3.612400	-10.868000	25.009540	0.000948	20.835813
1157.301890	-3.013500	3.611500	-10.882000	25.029255	0.000948	20.820516
1158.309103	-2.996600	3.612600	-10.825000	25.015482	0.000949	20.840829
1159.301395	-2.990000	3.613700	-10.804000	24.983459	0.000949	20.820541
1160.305237	-3.012400	3.612100	-10.878000	24.965906	0.000945	20.824259
1161.302039	-3.037000	3.609900	-10.961000	24.949746	0.000946	20.840754
1162.315913	-2.996800	3.611300	-10.821000	24.926772	0.000944	20.806791
1163.302918	-3.005100	3.609800	-10.847000	24.932018	0.000947	20.822962
1164.301113	-3.002300	3.609900	-10.837000	24.933212	0.000943	20.836013
1165.310139	-3.006000	3.610800	-10.853000	24.939776	0.000944	20.843075
1166.302769	-3.018200	3.610500	-10.896000	24.991068	0.000945	20.812531
1167.304770	-3.010400	3.609400	-10.864000	25.017173	0.000944	20.828777
1168.302982	-2.960900	3.610800	-10.689000	25.020703	0.000944	20.814777
1169.303981	-2.993300	3.609700	-10.804000	25.005214	0.000942	20.817248
1170.302258	-2.979200	3.610900	-10.756000	25.000366	0.000943	20.849838
1171.304259	-3.015400	3.609400	-10.883000	24.981595	0.000942	20.836213
1172.312258	-3.007000	3.608500	-10.849000	24.997756	0.000941	20.828727
1173.308223	-3.000100	3.607000	-10.820000	25.010510	0.000941	20.828727
1174.310670	-3.019600	3.606800	-10.889000	25.013618	0.000940	20.842277
1175.303671	-3.000300	3.607300	-10.821000	25.022941	0.000941	20.836937
1176.303179	-2.967800	3.608600	-10.709000	25.002082	0.000942	20.826905
1177.306175	-3.005500	3.605600	-10.835000	25.002729	0.000941	20.831822
1178.307496	-3.000700	3.607400	-10.824000	25.006135	0.000942	20.830499
1179.306498	-3.003900	3.607600	-10.835000	25.000392	0.000940	20.837536
1180.306201	-3.000400	3.606000	-10.819000	25.019884	0.000940	20.861368
1181.307202	-3.018100	3.605100	-10.879000	25.032911	0.000940	20.829875
1182.306636	-3.003900	3.605500	-10.830000	25.036789	0.000939	20.862690
1183.310638	-2.992400	3.605800	-10.789000	24.998602	0.000939	20.846645
1184.308559	-2.998600	3.604400	-10.807000	25.032414	0.000939	20.840756
1185.314561	-2.969100	3.605600	-10.703000	25.036914	0.000937	20.837686
1186.309923	-2.980100	3.605300	-10.743000	25.022991	0.000936	20.827505
1187.310926	-2.981500	3.605100	-10.747000	25.032414	0.000937	20.836963
1188.309680	-2.965900	3.604200	-10.689000	25.036093	0.000938	20.833544
1189.317042	-2.995900	3.602900	-10.793000	25.053123	0.000934	20.838310
1190.311035	-3.018000	3.601700	-10.869000	25.064609	0.000934	20.855055
1191.314054	-2.999900	3.603400	-10.809000	25.091806	0.000934	20.859122
1192.312486	-3.005700	3.602100	-10.826000	25.097946	0.000934	20.847269
1193.319489	-2.997100	3.602200	-10.795000	25.109506	0.000934	20.845597
1194.314429	-3.016600	3.601300	-10.863000	25.119674	0.000931	20.849166
1195.312462	-3.018100	3.600800	-10.867000	25.110202	0.000933	20.868106
1196.316004	-2.994200	3.601800	-10.783000	25.079774	0.000930	20.852260
1197.311997	-3.030200	3.599100	-10.905000	25.076666	0.000931	20.857201
1198.313997	-2.980800	3.601400	-10.734000	25.059836	0.000932	20.843626
1199.324371	-2.995800	3.599700	-10.783000	25.059115	0.000931	20.852385
1200.315442	-2.984500	3.600400	-10.745000	25.086760	0.000928	20.858324
1201.314686	-2.992500	3.599900	-10.772000	25.111942	0.000928	20.845198
1202.316008	-2.989200	3.599300	-10.758000	25.133346	0.000927	20.846296
1203.327547	-3.015500	3.598700	-10.850000	25.099388	0.000927	20.845872
1204.316548	-3.015800	3.597600	-10.848000	25.074777	0.000927	20.864787
1205.322250	-3.016700	3.598400	-10.854000	25.104982	0.000928	20.856228
1206.315247	-3.011400	3.597900	-10.834000	25.099761	0.000924	20.881806
1207.315642	-2.983500	3.597400	-10.732000	25.113211	0.000925	20.867333
1208.315359	-3.004100	3.596800	-10.804000	25.123651	0.000925	20.865960
1209.317038	-3.010400	3.598000	-10.829000	25.130711	0.000924	20.853134
1210.319035	-2.984000	3.598000	-10.735000	25.127753	0.000922	20.865336
1211.317847	-2.988800	3.595000	-10.744000	25.115324	0.000924	20.867557
1212.316901	-3.005800	3.595200	-10.806000	25.103640	0.000922	20.855355
1213.318299	-2.986300	3.596200	-10.738000	25.101900	0.000922	20.853134
1214.317300	-2.987200	3.595800	-10.740000	25.074529	0.000921	20.872598
1215.317300	-3.026000	3.594200	-10.876000	25.091856	0.000922	20.868655
1216.318298	-3.010100	3.594900	-10.820000	25.098494	0.000921	20.877215
1217.318569	-3.000600	3.595200	-10.787000	25.128673	0.000921	20.891862
1218.316668	-3.009600	3.593800	-10.815000	25.179956	0.000920	20.857526
1219.317836	-2.987900	3.594900	-10.740000	25.176203	0.000918	20.872723
1220.318543	-3.020700	3.593900	-10.854000	25.159722	0.000919	20.875618
1221.321543	-3.011300	3.592400	-10.817000	25.114280	0.000919	20.876466
1222.318654	-3.021100	3.591900	-10.850000	25.092727	0.000919	20.878537
1223.321867	-2.993000	3.592900	-10.753000	25.091906	0.000918	20.879610
1224.318786	-3.016400	3.592600	-10.836000	25.106623	0.000918	20.870203
1225.322344	-2.988600	3.593700	-10.739000	25.121117	0.000916	20.884277
1226.322138	-2.996200	3.592300	-10.761000	25.128674	0.000917	20.868631
1227.320775	-2.987200	3.592700	-10.731000	25.128027	0.000915	20.881258
1228.320875	-3.012300	3.591200	-10.816000	25.148312	0.000916	20.870802
1229.321876	-3.007800	3.591000	-10.800000	25.138444	0.000915	20.896929
1230.322022	-3.010000	3.590500	-10.806000	25.148312	0.000914	20.896879
1231.321022	-3.001700	3.591700	-10.780000	25.156044	0.000915	20.874770
1232.326020	-3.011000	3.590600	-10.809000	25.163278	0.000915	20.900048
1233.322022	-3.008600	3.589100	-10.798000	25.177273	0.000913	20.863840
1234.320159	-3.009600	3.588600	-10.799000	25.193729	0.000913	20.878463
1235.323112	-3.004200	3.589800	-10.784000	25.206182	0.000913	20.873897
1236.321108	-2.978400	3.589300	-10.689000	25.228007	0.000911	20.898651
1237.325107	-3.001000	3.588600	-10.768000	25.223508	0.000911	20.903142
1238.324175	-2.985100	3.589400	-10.714000	25.250005	0.000911	20.882805
1239.326423	-2.986900	3.588000	-10.714000	25.281622	0.000911	20.903642
1240.324461	-2.987900	3.588300	-10.721000	25.273842	0.000911	20.881608
1241.325461	-3.004100	3.588000	-10.777000	25.294397	0.000909	20.903193
1242.326369	-3.008600	3.586600	-10.790000	25.297480	0.000907	20.884004
1243.329370	-2.986400	3.587000	-10.711000	25.256567	0.000909	20.896505
1244.325807	-2.999000	3.587000	-10.755000	25.245009	0.000908	20.895332
1245.325808	-3.002000	3.587400	-10.768000	25.235787	0.000907	20.897454
1246.324395	-2.996900	3.586800	-10.748000	25.247271	0.000908	20.896181
1247.325949	-2.984600	3.586500	-10.703000	25.252590	0.000906	20.923330
1248.327431	-2.984400	3.585100	-10.698000	25.221172	0.000908	20.896056
1249.328434	-3.002700	3.585900	-10.767000	25.188708	0.000906	20.893810
1250.325358	-2.987300	3.585100	-10.709000	25.172849	0.000906	20.895906
1251.330790	-3.009400	3.584200	-10.785000	25.177323	0.000906	20.893286
1252.328341	-2.976500	3.585100	-10.670000	25.210160	0.000905	20.907285
1253.331339	-3.012300	3.582900	-10.792000	25.217145	0.000905	20.891540
1254.332148	-2.999400	3.584300	-10.749000	25.221097	0.000907	20.895507
1255.328146	-2.986400	3.583000	-10.699000	25.185974	0.000905	20.901970
1256.328359	-2.998100	3.582300	-10.739000	25.207600	0.000904	20.899500
1257.343355	-3.002900	3.581000	-10.752000	25.194575	0.000900	20.915819
1258.328161	-2.996400	3.582500	-10.733000	25.171855	0.000900	20.927622
1259.346678	-3.009300	3.582100	-10.779000	25.147742	0.000901	20.910529
1260.330679	-3.003300	3.582200	-10.758000	25.168076	0.000900	20.908184
1261.332679	-2.989100	3.581300	-10.704000	25.172153	0.000898	20.903268
1262.331667	-3.020400	3.580700	-10.814000	25.204020	0.000900	20.894484
1263.333137	-3.008000	3.581000	-10.770000	25.210906	0.000897	20.905664
1264.335950	-3.025200	3.580100	-10.829000	25.225746	0.000897	20.906812
1265.332675	-3.002000	3.580600	-10.748000	25.267007	0.000897	20.917891
1266.333953	-3.005100	3.578800	-10.754000	25.258556	0.000896	20.908933
1267.333044	-3.010900	3.580000	-10.778000	25.292062	0.000897	20.893262
1268.333045	-3.024700	3.578300	-10.823000	25.310256	0.000896	20.905364
1269.340595	-3.011300	3.578600	-10.776000	25.268275	0.000895	20.896880
1270.338638	-3.002400	3.578400	-10.743000	25.285078	0.000895	20.908533
1271.334299	-2.994000	3.578200	-10.712000	25.268424	0.000893	20.918365
1272.334300	-2.965700	3.579700	-10.614000	25.263254	0.000894	20.907011
1273.337768	-2.979300	3.578100	-10.660000	25.238622	0.000894	20.895084
1274.336060	-3.004700	3.577600	-10.747000	25.228381	0.000893	20.889070
1275.337708	-2.985000	3.578400	-10.681000	25.192214	0.000894	20.908708
1276.335189	-3.008800	3.576400	-10.759000	25.196837	0.000893	20.878265
1277.338881	-2.983300	3.577000	-10.670000	25.197011	0.000890	20.894560
1278.338880	-2.983800	3.577000	-10.672000	25.192164	0.000893	20.905814
1279.336164	-2.982400	3.578200	-10.669000	25.215555	0.000892	20.910330
1280.337163	-3.014200	3.574900	-10.775000	25.241207	0.000892	20.923755
1281.337731	-3.012400	3.575500	-10.769000	25.260296	0.000890	20.882233
1282.337127	-3.009000	3.576000	-10.758000	25.250379	0.000889	20.882707
1283.336319	-2.983800	3.575100	-10.666000	25.287066	0.000888	20.904366
1284.336321	-3.010100	3.574700	-10.759000	25.296859	0.000889	20.883381
1285.336510	-2.963700	3.575700	-10.596000	25.298152	0.000888	20.887523
1286.343513	-2.984000	3.575200	-10.668000	25.287439	0.000887	20.902370
1287.340077	-3.007500	3.573900	-10.747000	25.319552	0.000888	20.888147
1288.338071	-2.996100	3.574300	-10.707000	25.318781	0.000887	20.880261
1289.338752	-2.971500	3.574600	-10.621000	25.335235	0.000886	20.877816
1290.342607	-2.990600	3.573600	-10.687000	25.336304	0.000886	20.869881
1291.340391	-2.990200	3.573400	-10.684000	25.341598	0.000887	20.884204
1292.340191	-3.010500	3.572300	-10.753000	25.334912	0.000884	20.871328
1293.341523	-3.014900	3.571700	-10.767000	25.352087	0.000884	20.897106
1294.354527	-3.013600	3.571400	-10.761000	25.361506	0.000883	20.874797
1295.338141	-2.975900	3.571900	-10.628000	25.319726	0.000883	20.885003
1296.342142	-2.997500	3.571200	-10.703000	25.321715	0.000884	20.881310
1297.341329	-3.009600	3.571700	-10.748000	25.308542	0.000883	20.881835
1298.340331	-2.994100	3.570300	-10.688000	25.277249	0.000882	20.886925
1299.340696	-3.022200	3.569000	-10.785000	25.282717	0.000883	20.869183
1300.339694	-3.000800	3.571200	-10.715000	25.295121	0.000882	20.877842
1301.339805	-3.020200	3.569600	-10.780000	25.333322	0.000879	20.877318
1302.344129	-3.005100	3.569900	-10.727000	25.328575	0.000879	20.874923
1303.341166	-2.983700	3.570100	-10.650000	25.334366	0.000878	20.866987
1304.340170	-2.998900	3.568600	-10.701000	25.345800	0.000877	20.879889
1305.342452	-2.995700	3.567900	-10.688000	25.332503	0.000877	20.864168
1306.341447	-2.979200	3.569300	-10.631000	25.333249	0.000878	20.864917
1307.347522	-2.985900	3.568300	-10.653000	25.282495	0.000878	20.865641
1308.362522	-2.999800	3.568000	-10.701000	25.253190	0.000875	20.862297
1309.345217	-2.991000	3.568300	-10.671000	25.267557	0.000876	20.862023
1310.353215	-2.994000	3.567200	-10.679000	25.264649	0.000877	20.868112
1311.343681	-3.011900	3.566300	-10.740000	25.285404	0.000875	20.873302
1312.343711	-2.998400	3.566000	-10.692000	25.325495	0.000873	20.866615
1313.345914	-3.005400	3.565300	-10.714000	25.343639	0.000875	20.843582
1314.343683	-2.997600	3.565900	-10.688000	25.346100	0.000874	20.861225
1315.343635	-2.994400	3.565500	-10.675000	25.337749	0.000873	20.860427
1316.344046	-2.984700	3.567000	-10.646000	25.364815	0.000874	20.860577
1317.344377	-2.985300	3.565700	-10.644000	25.341179	0.000870	20.850595
1318.349185	-3.029200	3.563000	-10.791000	25.319780	0.000872	20.840489
1319.344181	-2.996500	3.564000	-10.679000	25.283690	0.000873	20.846927
1320.343892	-3.003600	3.563900	-10.704000	25.264030	0.000870	20.852792
1321.344180	-2.981100	3.565400	-10.627000	25.257642	0.000871	20.838793
1322.343376	-2.997300	3.563600	-10.679000	25.274221	0.000870	20.855912
1323.347382	-2.996900	3.562100	-10.675000	25.298679	0.000871	20.850123
1324.344978	-2.993200	3.562100	-10.661000	25.308597	0.000870	20.851545
1325.345866	-2.991400	3.562200	-10.655000	25.297313	0.000868	20.851595
1326.344521	-3.013900	3.561000	-10.731000	25.309567	0.000870	20.845881
1327.344519	-3.019500	3.560600	-10.750000	25.347743	0.000869	20.854341
1328.347535	-2.988000	3.561300	-10.639000	25.304124	0.000869	20.845632
1329.348501	-3.003400	3.561300	-10.694000	25.332607	0.000869	20.856687
1330.366503	-2.985600	3.559800	-10.626000	25.312500	0.000867	20.822749
1331.347503	-2.992800	3.561300	-10.658000	25.327562	0.000867	20.825544
1332.351261	-2.966200	3.560700	-10.561000	25.336436	0.000866	20.842514
1333.351261	-3.001400	3.558400	-10.678000	25.346825	0.000868	20.811221
1334.350359	-2.993900	3.558600	-10.653000	25.331540	0.000867	20.852770
1335.348984	-2.996400	3.558900	-10.663000	25.323537	0.000866	20.865597
1336.361589	-2.994300	3.557900	-10.652000	25.343097	0.000865	20.828814
1337.348910	-3.031900	3.558100	-10.787000	25.339841	0.000864	20.819856
1338.347999	-2.984600	3.559600	-10.623000	25.366063	0.000865	20.845235
1339.352949	-3.004300	3.557500	-10.687000	25.369393	0.000865	20.840044
1340.348020	-3.002500	3.558800	-10.683000	25.364770	0.000863	20.827342
1341.355021	-3.013400	3.556500	-10.716000	25.368076	0.000862	20.830661
1342.348631	-3.006300	3.557600	-10.694000	25.382739	0.000859	20.836376
1343.354633	-3.003300	3.554900	-10.675000	25.374960	0.000859	20.837100
1344.349042	-3.012000	3.555800	-10.710000	25.415222	0.000858	20.834854
1345.353043	-3.008100	3.555900	-10.696000	25.432420	0.000859	20.836950
1346.354719	-3.015500	3.554900	-10.719000	25.433365	0.000858	20.834580
1347.349715	-3.002100	3.555400	-10.672000	25.443280	0.000856	20.835053
1348.350461	-3.011600	3.553700	-10.700000	25.446710	0.000857	20.827118
1349.350733	-3.002800	3.553700	-10.670000	25.417384	0.000856	20.827542
1350.355047	-3.003400	3.553700	-10.672000	25.424467	0.000856	20.806205
1351.351048	-3.012500	3.552500	-10.700000	25.432172	0.000856	20.831960
1352.355340	-2.988900	3.554000	-10.622000	25.431028	0.000855	20.828915
1353.356337	-2.992500	3.554100	-10.634000	25.387363	0.000852	20.823001
1354.351338	-2.983200	3.553600	-10.597000	25.337357	0.000852	20.845335
1355.354342	-2.995800	3.552100	-10.640000	25.252576	0.000853	20.825647
1356.363315	-3.020700	3.552800	-10.731000	25.254241	0.000852	20.820206
1357.352301	-3.003000	3.551200	-10.663000	25.261425	0.000851	20.826470
1358.353667	-3.015200	3.553000	-10.711000	25.271964	0.000851	20.802912
1359.354073	-2.970500	3.552800	-10.553000	25.288344	0.000852	20.828841
1360.354732	-2.988500	3.552000	-10.615000	25.269031	0.000850	20.829365
1361.354167	-2.974700	3.551800	-10.565000	25.256281	0.000849	20.824150
1362.354960	-2.976000	3.550900	-10.567000	25.235054	0.000850	20.824650
1363.353955	-2.988500	3.549900	-10.609000	25.249496	0.000849	20.818287
1364.352861	-3.003300	3.550000	-10.660000	25.265602	0.000850	20.817388
1365.353863	-2.993000	3.550400	-10.624000	25.247682	0.000847	20.808405
1366.358863	-3.004200	3.549500	-10.662000	25.253225	0.000848	20.809703
1367.353820	-2.973200	3.550100	-10.553000	25.234533	0.000848	20.802791
1368.354686	-3.005700	3.549800	-10.669000	25.235304	0.000849	20.825849
1369.365504	-3.042500	3.548100	-10.794000	25.210273	0.000848	20.803564
1370.353714	-3.003300	3.548000	-10.654000	25.192575	0.000849	20.805711
1371.355878	-3.015900	3.547100	-10.696000	25.199983	0.000848	20.803665
1372.357071	-3.000300	3.548600	-10.645000	25.224393	0.000847	20.809206
1373.362069	-2.995800	3.547600	-10.626000	25.245869	0.000846	20.809904
1374.353339	-2.990100	3.547800	-10.608000	25.269880	0.000846	20.813148
1375.354340	-2.969900	3.548400	-10.537000	25.252158	0.000843	20.818114
1376.354833	-3.013900	3.546400	-10.687000	25.274006	0.000844	20.801644
1377.358831	-3.015200	3.548000	-10.696000	25.293593	0.000845	20.804240
1378.356338	-3.022200	3.545900	-10.714000	25.289218	0.000843	20.808856
1379.362339	-3.001100	3.546300	-10.642000	25.304853	0.000842	20.781880
1380.357913	-3.018400	3.546000	-10.703000	25.306642	0.000843	20.797427
1381.356152	-3.011700	3.543900	-10.672000	25.328540	0.000842	20.819887
1382.358129	-2.996700	3.544300	-10.620000	25.327819	0.000840	20.795456
1383.358530	-3.008900	3.544100	-10.663000	25.344372	0.000841	20.809232
1384.358201	-2.971100	3.544500	-10.530000	25.361024	0.000840	20.795606
1385.363201	-2.983000	3.544200	-10.571000	25.362914	0.000839	20.811254
1386.356141	-3.004400	3.542900	-10.642000	25.368655	0.000839	20.805165
1387.358172	-2.995800	3.542900	-10.613000	25.387942	0.000840	20.803668
1388.357359	-3.014700	3.542400	-10.678000	25.384636	0.000839	20.796082
1389.365030	-3.009200	3.541800	-10.657000	25.384264	0.000836	20.807561
1390.358183	-2.998400	3.541900	-10.619000	25.378722	0.000837	20.779711
1391.357187	-3.012500	3.540300	-10.665000	25.372186	0.000837	20.797805
1392.359941	-3.000100	3.542300	-10.626000	25.335228	0.000836	20.812378
1393.362940	-2.984800	3.541700	-10.570000	25.332768	0.000835	20.798529
1394.360164	-2.983200	3.540600	-10.562000	25.355286	0.000834	20.784629
1395.360465	-2.986200	3.540100	-10.570000	25.387074	0.000835	20.793788
1396.362108	-2.998700	3.540700	-10.617000	25.384638	0.000832	20.802248
1397.361132	-2.995200	3.539900	-10.602000	25.415904	0.000832	20.794762
1398.364151	-3.009200	3.540200	-10.653000	25.398085	0.000832	20.797732
1399.361151	-3.000200	3.539600	-10.618000	25.383820	0.000830	20.784356
1400.362646	-3.003200	3.539300	-10.628000	25.371144	0.000831	20.782534
1401.362427	-3.024500	3.537400	-10.697000	25.385485	0.000831	20.789822
1402.363097	-3.015600	3.537800	-10.668000	25.355488	0.000831	20.784831
1403.364808	-3.016900	3.538300	-10.674000	25.374476	0.000829	20.776870
1404.364236	-3.001700	3.538900	-10.622000	25.348106	0.000828	20.783583
1405.367231	-2.971000	3.537700	-10.509000	25.338364	0.000830	20.790871
1406.361212	-3.005700	3.537500	-10.631000	25.324271	0.000826	20.777195
1407.362358	-2.984700	3.537700	-10.558000	25.285423	0.000829	20.809788
1408.362072	-2.977500	3.537000	-10.530000	25.254453	0.000827	20.791970
1409.362483	-3.016000	3.534500	-10.658000	25.270858	0.000827	20.785207
1410.362932	-2.986900	3.535800	-10.560000	25.300586	0.000826	20.788502
1411.365272	-2.998800	3.535700	-10.601000	25.342093	0.000825	20.790823
1412.369564	-3.010500	3.536100	-10.644000	25.358771	0.000825	20.775326
1413.380009	-3.009400	3.535200	-10.638000	25.373882	0.000824	20.785284
1414.367011	-2.988500	3.535500	-10.564000	25.370851	0.000824	20.770385
1415.367796	-3.000000	3.534000	-10.601000	25.382805	0.000821	20.782864
1416.367798	-3.011500	3.533400	-10.640000	25.401843	0.000822	20.805773
1417.365795	-2.993800	3.533600	-10.577000	25.401421	0.000823	20.798711
1418.364911	-3.005200	3.531600	-10.612000	25.406019	0.000822	20.775353
1419.364733	-2.991300	3.533400	-10.568000	25.421229	0.000822	20.796790
1420.366395	-2.995300	3.532400	-10.579000	25.412109	0.000822	20.764872
1421.366024	-3.014800	3.532400	-10.648000	25.405150	0.000818	20.776851
1422.366470	-3.018100	3.531000	-10.657000	25.388946	0.000818	20.771012
1423.366155	-2.988400	3.531700	-10.553000	25.383107	0.000818	20.780795
1424.367497	-3.008100	3.532100	-10.623000	25.359869	0.000819	20.760781
1425.402496	-2.977500	3.530700	-10.512000	25.333176	0.000819	20.778076
1426.367496	-3.008900	3.530100	-10.620000	25.354924	0.000818	20.769092
1427.373651	-3.011900	3.531200	-10.635000	25.314287	0.000816	20.774283
1428.368670	-3.027500	3.530400	-10.687000	25.332208	0.000813	20.776629
1429.375064	-2.987300	3.530500	-10.545000	25.370310	0.000814	20.759411
1430.372068	-2.997100	3.528500	-10.574000	25.372398	0.000816	20.757240
1431.369487	-3.007700	3.529700	-10.614000	25.384378	0.000816	20.781597
1432.375454	-2.995700	3.528100	-10.569000	25.390268	0.000814	20.774236
1433.374956	-3.014300	3.528300	-10.634000	25.410922	0.000812	20.778853
1434.370963	-3.011300	3.527900	-10.622000	25.366286	0.000816	20.780027
1435.370744	-3.023900	3.525900	-10.659000	25.416192	0.000813	20.765179
1436.372749	-3.007200	3.527300	-10.605000	25.376104	0.000812	20.768548
1437.371500	-3.000700	3.526800	-10.582000	25.384331	0.000811	20.750256
1438.372803	-2.991200	3.528500	-10.553000	25.395491	0.000812	20.753875
1439.373939	-3.002500	3.526200	-10.586000	25.402426	0.000811	20.775064
1440.373940	-2.991100	3.526100	-10.545000	25.398151	0.000812	20.781203
1441.377045	-3.003500	3.526000	-10.589000	25.387863	0.000811	20.774192
1442.388042	-2.980500	3.526200	-10.509000	25.393406	0.000810	20.765533
1443.374905	-2.981100	3.524600	-10.506000	25.412394	0.000810	20.765158
1444.373936	-2.989600	3.525900	-10.540000	25.413264	0.000807	20.753704
1445.373844	-2.997800	3.524900	-10.565000	25.409537	0.000809	20.749961
1446.378874	-3.014800	3.523600	-10.622000	25.371587	0.000808	20.762590
1447.377497	-2.996000	3.523400	-10.554000	25.317679	0.000808	20.774370
1448.374496	-3.013200	3.522300	-10.612000	25.281217	0.000809	20.758149
1449.392145	-3.011600	3.524100	-10.611000	25.304532	0.000806	20.753108
1450.374144	-2.980100	3.524300	-10.501000	25.327548	0.000805	20.768157
1451.374307	-2.994800	3.522500	-10.548000	25.347034	0.000805	20.747893
1452.396899	-3.034600	3.520300	-10.680000	25.342486	0.000805	20.741904
1453.374610	-2.994600	3.522500	-10.547000	25.348453	0.000803	20.745050
1454.377612	-3.015900	3.521100	-10.618000	25.336299	0.000805	20.764616
1455.381428	-3.008500	3.521700	-10.594000	25.335952	0.000801	20.772329
1456.374429	-2.995700	3.522000	-10.550000	25.320245	0.000801	20.750392
1457.375203	-2.995400	3.521800	-10.548000	25.296260	0.000801	20.723939
1458.379786	-2.991100	3.521500	-10.531000	25.286642	0.000802	20.745577
1459.377745	-3.011100	3.520200	-10.599000	25.296162	0.000798	20.730479
1460.376742	-3.012100	3.521200	-10.605000	25.313934	0.000802	20.747375
1461.377984	-3.009100	3.518600	-10.587000	25.328350	0.000799	20.738141
1462.397982	-2.978600	3.518900	-10.481000	25.356138	0.000798	20.711514
1463.379672	-2.983200	3.517900	-10.493000	25.342369	0.000796	20.744158
1464.376670	-2.985300	3.518000	-10.502000	25.355095	0.000798	20.744608
1465.378770	-3.000600	3.517000	-10.553000	25.389692	0.000797	20.745681
1466.378774	-3.004000	3.518300	-10.567000	25.376471	0.000796	20.736198
1467.378403	-3.015500	3.517500	-10.606000	25.412657	0.000796	20.739817
1468.382402	-2.988800	3.517400	-10.512000	25.421357	0.000796	20.740492
1469.378200	-2.988800	3.516700	-10.510000	25.387333	0.000796	20.751374
1470.379215	-2.990000	3.517400	-10.515000	25.392752	0.000796	20.733581
1471.380123	-2.976900	3.516500	-10.467000	25.392604	0.000796	20.746235
1472.380116	-3.015500	3.516800	-10.604000	25.389349	0.000794	20.734905
1473.381117	-3.014600	3.514800	-10.595000	25.382216	0.000796	20.726794
1474.382116	-3.011900	3.514300	-10.584000	25.338747	0.000794	20.747633
1475.381695	-2.973000	3.516400	-10.453000	25.360446	0.000795	20.742868
1476.381784	-2.996200	3.515300	-10.531000	25.372128	0.000792	20.738950
1477.382582	-3.022900	3.513600	-10.620000	25.400263	0.000794	20.749658
1478.383581	-3.035500	3.513600	-10.663000	25.426582	0.000792	20.736730
1479.383580	-2.991200	3.514300	-10.511000	25.408739	0.000792	20.738728
1480.382689	-2.999200	3.513200	-10.535000	25.367012	0.000790	20.751832
1481.395715	-3.010300	3.511800	-10.570000	25.345265	0.000790	20.743746
1482.382915	-2.982700	3.513000	-10.477000	25.366938	0.000791	20.740852
1483.382112	-2.989100	3.510700	-10.493000	25.387020	0.000790	20.725454
1484.384113	-2.984500	3.512300	-10.482000	25.402082	0.000790	20.749588
1485.384299	-3.021600	3.513000	-10.614000	25.409389	0.000787	20.736536
1486.383313	-2.990900	3.511300	-10.501000	25.378846	0.000789	20.747119
1487.382587	-2.995800	3.511000	-10.517000	25.374274	0.000788	20.746321
1488.385590	-3.000900	3.511800	-10.537000	25.397810	0.000786	20.733443
1489.382772	-3.012600	3.509200	-10.571000	25.382800	0.000787	20.750141
1490.384769	-3.008500	3.509900	-10.558000	25.418788	0.000787	20.733645
1491.383058	-2.972400	3.510800	-10.434000	25.415657	0.000785	20.740933
1492.383931	-3.004400	3.508800	-10.541000	25.401517	0.000786	20.729105
1493.385069	-3.001100	3.508800	-10.530000	25.425425	0.000785	20.744578
1494.385072	-3.018500	3.508300	-10.588000	25.451298	0.000783	20.745428
1495.393555	-2.989000	3.509200	-10.488000	25.468322	0.000785	20.750196
1496.390318	-3.019600	3.508200	-10.592000	25.470856	0.000784	20.739464
1497.386739	-2.992800	3.506500	-10.494000	25.490167	0.000783	20.746055
1498.394235	-2.986500	3.507200	-10.473000	25.487757	0.000782	20.733676
1499.384535	-3.010300	3.507200	-10.555000	25.496406	0.000783	20.730034
1500.385535	-3.016100	3.505300	-10.571000	25.495040	0.000782	20.738146
1501.389538	-2.989200	3.506600	-10.481000	25.484479	0.000780	20.726117
1502.410540	-3.002700	3.504700	-10.522000	25.509977	0.000781	20.739869
1503.392417	-2.998100	3.506500	-10.511000	25.509033	0.000781	20.732757
1504.389417	-3.002500	3.504800	-10.522000	25.547402	0.000781	20.745685
1505.390895	-3.006100	3.503800	-10.531000	25.464876	0.000779	20.741519
1506.394894	-2.991200	3.505100	-10.484000	25.449865	0.000780	20.734506
1507.390433	-2.999200	3.503800	-10.508000	25.446015	0.000779	20.739649
1508.394434	-3.000600	3.503600	-10.510000	25.441343	0.000779	20.744915
1509.389446	-2.996900	3.502800	-10.496000	25.385997	0.000778	20.736280
1510.390191	-2.990200	3.502300	-10.471000	25.358435	0.000778	20.734210
1511.392900	-3.013900	3.501800	-10.553000	25.361244	0.000776	20.764532
1512.406962	-3.020000	3.501000	-10.572000	25.388384	0.000776	20.740101
1513.389419	-2.998200	3.502200	-10.500000	25.377400	0.000777	20.730493
1514.392421	-2.985800	3.501400	-10.454000	25.412617	0.000774	20.758745
1515.403248	-2.975400	3.502500	-10.420000	25.448927	0.000776	20.738780
1516.401248	-2.989800	3.499200	-10.461000	25.493163	0.000774	20.769452
1517.390485	-2.984000	3.500900	-10.445000	25.503004	0.000774	20.735711
1518.390501	-3.001900	3.501200	-10.509000	25.537820	0.000775	20.736536
1519.390360	-2.986900	3.501600	-10.458000	25.541201	0.000773	20.752260
1520.392362	-3.002100	3.498900	-10.504000	25.537623	0.000772	20.737286
1521.399491	-2.992700	3.499200	-10.471000	25.545401	0.000773	20.725183
1522.391545	-2.997200	3.498600	-10.485000	25.546769	0.000774	20.743627
1523.392508	-2.998400	3.499600	-10.493000	25.529673	0.000771	20.752536
1524.393511	-3.009000	3.497800	-10.523000	25.527586	0.000772	20.749492
1525.395076	-3.009100	3.497500	-10.522000	25.545802	0.000770	20.770157
1526.394074	-2.994300	3.497100	-10.471000	25.568913	0.000771	20.754486
1527.397964	-2.989000	3.498600	-10.457000	25.551296	0.000771	20.751018
1528.402964	-2.988700	3.496900	-10.450000	25.553260	0.000770	20.742085
1529.396077	-3.000700	3.497100	-10.493000	25.538996	0.000769	20.729656
1530.400076	-2.990900	3.496100	-10.455000	25.540414	0.000771	20.763324
1531.395118	-2.983400	3.495000	-10.426000	25.551248	0.000770	20.738642
1532.401173	-3.018800	3.494600	-10.549000	25.548615	0.000769	20.745006
1533.398547	-3.004000	3.495200	-10.498000	25.546206	0.000769	20.750648
1534.398547	-3.005500	3.494500	-10.502000	25.514174	0.000768	20.746929
1535.397775	-2.996600	3.493400	-10.466000	25.530501	0.000767	20.756213
1536.397430	-3.018400	3.493800	-10.544000	25.512758	0.000769	20.752620
1537.396569	-2.998200	3.493600	-10.473000	25.531942	0.000769	20.758609
1538.400572	-2.985300	3.493600	-10.428000	25.548193	0.000769	20.757860
1539.399042	-2.992000	3.493700	-10.452000	25.509974	0.000766	20.757411
1540.398044	-2.985400	3.493100	-10.427000	25.455053	0.000769	20.747303
1541.400146	-2.996800	3.493300	-10.468000	25.441384	0.000768	20.762975
1542.398969	-2.982800	3.492900	-10.417000	25.398662	0.000768	20.734299
1543.401816	-2.997300	3.493000	-10.468000	25.386559	0.000767	20.755812
1544.400530	-2.999500	3.489700	-10.466000	25.392820	0.000765	20.743607
1545.403187	-3.002400	3.492200	-10.483000	25.356410	0.000766	20.764895
1546.399186	-2.983900	3.491000	-10.415000	25.380517	0.000764	20.761599
1547.417939	-2.995000	3.490600	-10.454000	25.393589	0.000765	20.764768
1548.400940	-3.010500	3.490100	-10.505000	25.430544	0.000763	20.767262
1549.411694	-3.005800	3.489400	-10.487000	25.443963	0.000762	20.762246
1550.400697	-3.021200	3.488400	-10.538000	25.476219	0.000764	20.774723
1551.400676	-2.999900	3.490200	-10.469000	25.477685	0.000763	20.753435
1552.400680	-3.011300	3.487200	-10.499000	25.462426	0.000762	20.776993
1553.401779	-3.010100	3.488100	-10.498000	25.494333	0.000761	20.752609
1554.404781	-2.992500	3.487400	-10.435000	25.472241	0.000760	20.762666
1555.406921	-3.029000	3.486200	-10.558000	25.462598	0.000759	20.775743
1556.404371	-2.986000	3.486900	-10.410000	25.466524	0.000757	20.769254
1557.408784	-3.011800	3.485100	-10.493000	25.470003	0.000757	20.766583
1558.404783	-3.006700	3.486000	-10.480000	25.483919	0.000759	20.752582
1559.405777	-2.998200	3.485400	-10.449000	25.478004	0.000759	20.774618
1560.407781	-3.012300	3.485000	-10.496000	25.487968	0.000758	20.782254
1561.404767	-3.005000	3.485000	-10.471000	25.480910	0.000756	20.781804
1562.407316	-2.995000	3.485400	-10.437000	25.446043	0.000758	20.777136
1563.405821	-2.974300	3.485300	-10.364000	25.453771	0.000755	20.786320
1564.405848	-2.999700	3.484300	-10.451000	25.455958	0.000758	20.799421
1565.407004	-2.989200	3.483900	-10.413000	25.472384	0.000755	20.787466
1566.405420	-3.007300	3.483300	-10.475000	25.463388	0.000754	20.795976
1567.405084	-2.978800	3.483400	-10.375000	25.490376	0.000753	20.761437
1568.406277	-3.014200	3.483200	-10.497000	25.509236	0.000755	20.758566
1569.413746	-2.994400	3.482700	-10.428000	25.518556	0.000753	20.764606
1570.406748	-2.955900	3.483300	-10.294000	25.515971	0.000753	20.800891
1571.406071	-3.015900	3.481000	-10.497000	25.527599	0.000754	20.804508
1572.411078	-3.003300	3.481400	-10.455000	25.522405	0.000754	20.780326
1573.410382	-3.004700	3.479900	-10.455000	25.510874	0.000753	20.790084
1574.406381	-3.005100	3.481300	-10.461000	25.512763	0.000753	20.794825
1575.418443	-3.012500	3.479500	-10.481000	25.538805	0.000755	20.790157
1576.409442	-2.994000	3.480800	-10.420000	25.525161	0.000752	20.782146
1577.420310	-3.004700	3.481200	-10.459000	25.527645	0.000753	20.795071
1578.406311	-3.010000	3.479600	-10.473000	25.497303	0.000752	20.801585
1579.406848	-3.009100	3.479200	-10.469000	25.490717	0.000751	20.806351
1580.408851	-2.982700	3.480000	-10.379000	25.466759	0.000752	20.795095
1581.410855	-2.996300	3.478400	-10.422000	25.471357	0.000750	20.797341
1582.412857	-3.024400	3.477900	-10.517000	25.458931	0.000751	20.802880
1583.411247	-2.978700	3.478000	-10.359000	25.455027	0.000751	20.801331
1584.410246	-2.993900	3.477600	-10.411000	25.411610	0.000749	20.799459
1585.411450	-2.989400	3.477500	-10.395000	25.397592	0.000748	20.785383
1586.410842	-2.988400	3.477500	-10.392000	25.378504	0.000750	20.812209
1587.415614	-3.003600	3.475500	-10.438000	25.367568	0.000749	20.804073
1588.411470	-3.008700	3.474300	-10.452000	25.354618	0.000748	20.819519
1589.414083	-2.972900	3.476000	-10.332000	25.353795	0.000749	20.804943
1590.412081	-2.977300	3.475500	-10.346000	25.359809	0.000749	20.803396
1591.418252	-2.981800	3.475400	-10.362000	25.400045	0.000747	20.808235
1592.413229	-3.001700	3.474000	-10.427000	25.448456	0.000748	20.830768
1593.412706	-3.008900	3.473100	-10.448000	25.475617	0.000748	20.809680
1594.435703	-3.027000	3.472200	-10.509000	25.497708	0.000747	20.823329
1595.424651	-3.017200	3.472200	-10.475000	25.508765	0.000747	20.801716
1596.413652	-2.986300	3.473900	-10.373000	25.531254	0.000747	20.812920
1597.430736	-2.966300	3.473000	-10.300000	25.548398	0.000747	20.821128
1598.416735	-2.993900	3.472800	-10.396000	25.555628	0.000744	20.822225
1599.418286	-3.012200	3.473100	-10.460000	25.579408	0.000744	20.815287
1600.414339	-3.009500	3.471400	-10.446000	25.610416	0.000745	20.837420
1601.413386	-3.005500	3.470500	-10.429000	25.618591	0.000744	20.831880
1602.418385	-2.999200	3.472000	-10.412000	25.608948	0.000743	20.822669
1603.419411	-2.973300	3.471700	-10.322000	25.650293	0.000743	20.834322
1604.416336	-2.998700	3.470600	-10.406000	25.636651	0.000743	20.825362
1605.417336	-2.976200	3.470400	-10.326000	25.619754	0.000743	20.844900
1606.417761	-3.003400	3.468500	-10.416000	25.636449	0.000741	20.835116
1607.418286	-3.014600	3.467400	-10.452000	25.592691	0.000738	20.837636
1608.418938	-2.998000	3.468000	-10.396000	25.554298	0.000742	20.845071
1609.423934	-2.995500	3.468800	-10.390000	25.519880	0.000738	20.842274
1610.417733	-2.986600	3.467600	-10.355000	25.532900	0.000738	20.849660
1611.430250	-2.971400	3.469400	-10.308000	25.496344	0.000738	20.826700
1612.417149	-2.973100	3.467900	-10.309000	25.489633	0.000737	20.829444
1613.418339	-2.995200	3.466800	-10.383000	25.509910	0.000735	20.837004
1614.421085	-3.015000	3.465000	-10.446000	25.518856	0.000735	20.848358
1615.419322	-3.029900	3.464800	-10.496000	25.474272	0.000734	20.846734
1616.421630	-2.978400	3.465700	-10.320000	25.468680	0.000733	20.851076
1617.422219	-2.980700	3.467000	-10.333000	25.469598	0.000731	20.854842
1618.420770	-3.002300	3.464900	-10.400000	25.456848	0.000733	20.868591
1619.422479	-3.000800	3.464300	-10.394000	25.449741	0.000732	20.839170
1620.448149	-2.987600	3.464200	-10.349000	25.476778	0.000732	20.845457
1621.423795	-3.003900	3.463500	-10.403000	25.472155	0.000730	20.855987
1622.419530	-3.006000	3.465200	-10.416000	25.468874	0.000730	20.844632
1623.420224	-3.018900	3.462700	-10.452000	25.428514	0.000729	20.862898
1624.420737	-3.010000	3.462400	-10.421000	25.429457	0.000728	20.862423
1625.424613	-3.018700	3.462500	-10.451000	25.431346	0.000727	20.870009
1626.420932	-2.979000	3.463700	-10.317000	25.457117	0.000726	20.872180
1627.432935	-2.985400	3.461400	-10.331000	25.465516	0.000727	20.862597
1628.420573	-2.991400	3.461900	-10.355000	25.506296	0.000728	20.872253
1629.419572	-3.016000	3.459800	-10.434000	25.522150	0.000726	20.859252
1630.425744	-2.993700	3.460600	-10.357000	25.509973	0.000727	20.874523
1631.419703	-3.023000	3.459500	-10.457000	25.523541	0.000725	20.856382
1632.420335	-2.998400	3.461200	-10.376000	25.534948	0.000725	20.864043
1633.449336	-3.002800	3.460700	-10.391000	25.535369	0.000724	20.859251
1634.420523	-3.010200	3.459700	-10.413000	25.525081	0.000724	20.887798
1635.424517	-2.991800	3.459900	-10.350000	25.504406	0.000724	20.863243
1636.421713	-3.009400	3.457400	-10.404000	25.502641	0.000722	20.862893
1637.419493	-2.995000	3.458500	-10.357000	25.509723	0.000723	20.863368
1638.420278	-2.982500	3.458700	-10.314000	25.528386	0.000720	20.868359
1639.419291	-3.005600	3.457100	-10.390000	25.561286	0.000721	20.880536
1640.420451	-3.006200	3.456900	-10.390000	25.556241	0.000720	20.870255
1641.422446	-3.005600	3.457400	-10.391000	25.602237	0.000721	20.885626
1642.419905	-3.003500	3.455800	-10.379000	25.618338	0.000721	20.876193
1643.425977	-2.987600	3.456500	-10.325000	25.621543	0.000720	20.869930
1644.421046	-3.011700	3.455100	-10.405000	25.646515	0.000720	20.870828
1645.421045	-2.994100	3.455700	-10.346000	25.646241	0.000720	20.903742
1646.425591	-3.004500	3.454200	-10.378000	25.672827	0.000719	20.875919
1647.422587	-2.991100	3.454800	-10.333000	25.671809	0.000718	20.897653
1648.424306	-3.001700	3.454900	-10.369000	25.692854	0.000718	20.880386
1649.422170	-3.002700	3.455300	-10.374000	25.731166	0.000716	20.885676
1650.423066	-2.995600	3.454100	-10.346000	25.702121	0.000717	20.888745
1651.423068	-3.012300	3.453500	-10.402000	25.717053	0.000716	20.881933
1652.425404	-3.011100	3.452600	-10.395000	25.716433	0.000716	20.868508
1653.423403	-2.993900	3.453200	-10.337000	25.671287	0.000715	20.880061
1654.422562	-3.000700	3.452500	-10.359000	25.683536	0.000715	20.882407
1655.422149	-2.992400	3.452500	-10.330000	25.675611	0.000716	20.910480
1656.423180	-3.014600	3.452100	-10.404000	25.695736	0.000715	20.893711
1657.430180	-3.014200	3.450500	-10.399000	25.706520	0.000714	20.879413
1658.423132	-3.020400	3.449800	-10.419000	25.702966	0.000715	20.860198
1659.437135	-2.998700	3.450000	-10.345000	25.719861	0.000711	20.911303
1660.423955	-2.983000	3.450200	-10.290000	25.715190	0.000710	20.889069
1661.436955	-3.004600	3.447700	-10.358000	25.699562	0.000715	20.886649
1662.427466	-3.005800	3.449700	-10.368000	25.698891	0.000710	20.882182
1663.426468	-3.003700	3.449300	-10.360000	25.721824	0.000712	20.891939
1664.424403	-3.007400	3.448800	-10.371000	25.675585	0.000709	20.883904
1665.426406	-3.008200	3.447200	-10.369000	25.698270	0.000710	20.905264
1666.424643	-3.002500	3.448800	-10.354000	25.671188	0.000708	20.897504
1667.454610	-2.977400	3.448000	-10.265000	25.699960	0.000707	20.885626
1668.438612	-2.990700	3.447100	-10.308000	25.643608	0.000708	20.906786
1669.425614	-2.977600	3.448100	-10.265000	25.605219	0.000705	20.897629
1670.426932	-2.997900	3.447500	-10.335000	25.624948	0.000708	20.896581
1671.437932	-3.025900	3.445500	-10.424000	25.624799	0.000705	20.903543
1672.426460	-3.024300	3.445700	-10.419000	25.626340	0.000706	20.918365
1673.435459	-3.001100	3.445000	-10.338000	25.650442	0.000706	20.890892
1674.427923	-2.989100	3.445400	-10.297000	25.662765	0.000707	20.908483
1675.428184	-3.029800	3.443300	-10.431000	25.691960	0.000706	20.899401
1676.428824	-3.012200	3.444800	-10.375000	25.692383	0.000705	20.902670
1677.441823	-3.014100	3.442800	-10.376000	25.698843	0.000703	20.883082
1678.431602	-3.007000	3.443300	-10.353000	25.682966	0.000704	20.900324
1679.432605	-3.014200	3.443300	-10.377000	25.702943	0.000703	20.894785
1680.429007	-3.007900	3.443300	-10.357000	25.656952	0.000702	20.888896
1681.430006	-2.986000	3.442700	-10.279000	25.624551	0.000703	20.904242
1682.430892	-3.002700	3.442000	-10.334000	25.601344	0.000702	20.899901
1683.430894	-2.969700	3.443300	-10.224000	25.627906	0.000702	20.903819
1684.433511	-3.006700	3.440800	-10.344000	25.634889	0.000703	20.918891
1685.430510	-3.007500	3.441700	-10.350000	25.626267	0.000701	20.909758
1686.433347	-3.031500	3.439300	-10.424000	25.648381	0.000700	20.921062
1687.432233	-3.014600	3.440500	-10.371000	25.645002	0.000700	20.916246
1688.438854	-2.982600	3.441100	-10.262000	25.668010	0.000699	20.914225
1689.443851	-3.013800	3.438800	-10.363000	25.697304	0.000699	20.911406
1690.432799	-2.970700	3.440500	-10.219000	25.681105	0.000699	20.915998
1691.431802	-2.979000	3.440000	-10.246000	25.649003	0.000699	20.926427
1692.435070	-2.996500	3.439400	-10.305000	25.653923	0.000699	20.907663
1693.433074	-2.990100	3.439300	-10.283000	25.624455	0.000697	20.909835
1694.431359	-2.980300	3.438500	-10.247000	25.656135	0.000696	20.903247
1695.433500	-3.016300	3.438100	-10.369000	25.605074	0.000697	20.936834
1696.436101	-3.003800	3.436100	-10.320000	25.609373	0.000696	20.895163
1697.432109	-3.010600	3.437400	-10.348000	25.600875	0.000696	20.917921
1698.433753	-3.025300	3.436100	-10.393000	25.618616	0.000696	20.919617
1699.433754	-3.012100	3.437500	-10.353000	25.669827	0.000696	20.913679
1700.437867	-3.001000	3.436000	-10.311000	25.647416	0.000695	20.904447
1701.434870	-3.013700	3.435300	-10.351000	25.672511	0.000695	20.911159
1702.448585	-2.996500	3.435800	-10.294000	25.668486	0.000693	20.934615
1703.439585	-3.005800	3.434700	-10.323000	25.669057	0.000693	20.904846
1704.434454	-3.012900	3.433700	-10.344000	25.647788	0.000692	20.927104
1705.435584	-2.990000	3.434400	-10.268000	25.617028	0.000694	20.945520
1706.437122	-3.010200	3.434300	-10.337000	25.647044	0.000693	20.917823
1707.435152	-2.975000	3.434200	-10.216000	25.630198	0.000692	20.930774
1708.438522	-2.987500	3.434200	-10.258000	25.638422	0.000693	20.927180
1709.436521	-2.997200	3.433600	-10.291000	25.624732	0.000690	20.911061
1710.435407	-2.990100	3.432500	-10.262000	25.655816	0.000691	20.931848
1711.440410	-2.981000	3.432800	-10.233000	25.683223	0.000691	20.920495
1712.439424	-3.002400	3.431700	-10.302000	25.681384	0.000692	20.939983
1713.439423	-2.988400	3.433000	-10.258000	25.687770	0.000689	20.944499
1714.449264	-3.024900	3.430800	-10.378000	25.703349	0.000687	20.927433
1715.438265	-3.003800	3.432000	-10.308000	25.719374	0.000685	20.931200
1716.445069	-2.991000	3.431200	-10.261000	25.701263	0.000688	20.918226
1717.440070	-2.965600	3.431000	-10.174000	25.696666	0.000688	20.912661
1718.439217	-3.005600	3.429700	-10.307000	25.717587	0.000686	20.911863
1719.442651	-3.014200	3.429400	-10.336000	25.706829	0.000687	20.927135
1720.441078	-2.991100	3.430700	-10.261000	25.730060	0.000687	20.924390
1721.441158	-3.007300	3.428400	-10.309000	25.750706	0.000684	20.919051
1722.444167	-3.010100	3.427300	-10.316000	25.753241	0.000687	20.946249
1723.443978	-2.994200	3.427900	-10.262000	25.782433	0.000685	20.915832
1724.444975	-2.991000	3.427400	-10.251000	25.793042	0.000681	20.927436
1725.447977	-3.015200	3.427400	-10.333000	25.788696	0.000682	20.881349
1726.444977	-3.025300	3.426700	-10.365000	25.828644	0.000681	20.929533
1727.445824	-2.996500	3.427300	-10.269000	25.807180	0.000683	20.918879
1728.443828	-2.987900	3.427600	-10.241000	25.801764	0.000680	20.926714
1729.444666	-3.009300	3.426700	-10.311000	25.796771	0.000680	20.910321
1730.444664	-3.001300	3.425700	-10.280000	25.825392	0.000679	20.901139
1731.443768	-2.989000	3.426500	-10.239000	25.800548	0.000680	20.913640
1732.458767	-2.992800	3.426800	-10.254000	25.825889	0.000680	20.906380
1733.448173	-2.995800	3.424900	-10.260000	25.798860	0.000678	20.905307
1734.444170	-3.002400	3.424500	-10.282000	25.805022	0.000678	20.916711
1735.445978	-2.990200	3.425000	-10.240000	25.774812	0.000679	20.894903
1736.445978	-2.979300	3.425400	-10.204000	25.775732	0.000680	20.900094
1737.446171	-2.990600	3.425000	-10.242000	25.741795	0.000680	20.877387
1738.458171	-3.004300	3.423300	-10.284000	25.708180	0.000677	20.916165
1739.446851	-3.005400	3.423200	-10.288000	25.650164	0.000679	20.923327
1740.448849	-3.004800	3.423100	-10.285000	25.649717	0.000676	20.908181
1741.468001	-3.003100	3.422100	-10.276000	25.628672	0.000678	20.895106
1742.449001	-3.007500	3.421800	-10.290000	25.653594	0.000675	20.909230
1743.453985	-2.990000	3.421300	-10.228000	25.669125	0.000675	20.886897
1744.455985	-2.995000	3.420100	-10.242000	25.683263	0.000676	20.909631
1745.451323	-3.011400	3.419200	-10.296000	25.679984	0.000675	20.906812
1746.451324	-2.986200	3.421300	-10.216000	25.651934	0.000675	20.920837
1747.448902	-3.000700	3.420200	-10.262000	25.651064	0.000675	20.883457
1748.449900	-3.018500	3.420000	-10.323000	25.602437	0.000673	20.889146
1749.452786	-2.972100	3.419800	-10.163000	25.573912	0.000675	20.904594
1750.449770	-3.025500	3.418300	-10.341000	25.614019	0.000674	20.911682
1751.449348	-3.002600	3.418000	-10.261000	25.630295	0.000674	20.911907
1752.455351	-2.997500	3.419200	-10.248000	25.606540	0.000673	20.906068
1753.462899	-2.997400	3.418900	-10.248000	25.642521	0.000672	20.886731
1754.453358	-3.021500	3.416400	-10.321000	25.674549	0.000672	20.886656
1755.461502	-2.973500	3.417000	-10.159000	25.690800	0.000674	20.890650
1756.456093	-2.993500	3.418800	-10.234000	25.705534	0.000672	20.886483
1757.459876	-3.019900	3.416300	-10.315000	25.684863	0.000674	20.895592
1758.453713	-3.002100	3.415600	-10.252000	25.669185	0.000671	20.891225
1759.455948	-2.997300	3.417200	-10.241000	25.623243	0.000673	20.853620
1760.454046	-3.001000	3.417100	-10.253000	25.585971	0.000673	20.883515
1761.456647	-3.009600	3.414800	-10.276000	25.584357	0.000671	20.882368
1762.455869	-2.994800	3.414800	-10.225000	25.582319	0.000671	20.882218
1763.469465	-3.005000	3.414400	-10.260000	25.603118	0.000672	20.882244
1764.458974	-2.956500	3.416600	-10.100000	25.605875	0.000670	20.880746
1765.460480	-2.998800	3.413900	-10.237000	25.608361	0.000671	20.855743
1766.459481	-2.994000	3.414900	-10.223000	25.634153	0.000670	20.882594
1767.458968	-3.009300	3.413500	-10.270000	25.677064	0.000670	20.866424
1768.460994	-2.999300	3.412900	-10.236000	25.682778	0.000670	20.872163
1769.460802	-3.008500	3.412600	-10.267000	25.729860	0.000668	20.878675
1770.465435	-2.978800	3.413800	-10.168000	25.724593	0.000666	20.882393
1771.460222	-2.972500	3.412100	-10.141000	25.730357	0.000669	20.878226
1772.463433	-2.978800	3.413400	-10.166000	25.721512	0.000667	20.876928
1773.462494	-3.008900	3.411600	-10.264000	25.730134	0.000667	20.880372
1774.461591	-2.996500	3.411800	-10.223000	25.726804	0.000668	20.864701
1775.463387	-2.995400	3.410300	-10.214000	25.722879	0.000666	20.870241
1776.465393	-3.033600	3.410800	-10.346000	25.702580	0.000665	20.867870
1777.461330	-3.015400	3.411800	-10.287000	25.691374	0.000664	20.863727
1778.462330	-3.008400	3.409400	-10.255000	25.704442	0.000662	20.868793
1779.462770	-2.981600	3.410700	-10.169000	25.709038	0.000665	20.864399
1780.462286	-3.020500	3.410000	-10.299000	25.724417	0.000665	20.899759
1781.468396	-2.983100	3.409900	-10.172000	25.704342	0.000664	20.868217
1782.463808	-3.003200	3.410200	-10.241000	25.718950	0.000662	20.884786
1783.468956	-3.009400	3.407500	-10.254000	25.668736	0.000664	20.866594
1784.463356	-2.997500	3.408100	-10.215000	25.668959	0.000663	20.856387
1785.463897	-2.997300	3.408700	-10.216000	25.702601	0.000662	20.865520
1786.465448	-3.002700	3.408000	-10.233000	25.707122	0.000661	20.885233
1787.463447	-3.007200	3.407400	-10.246000	25.732713	0.000661	20.873006
1788.470890	-3.000800	3.406900	-10.222000	25.722923	0.000657	20.857484
1789.463894	-2.988400	3.405800	-10.177000	25.756638	0.000659	20.870959
1790.465908	-3.014300	3.404900	-10.261000	25.737357	0.000657	20.867714
1791.467910	-3.008200	3.404700	-10.240000	25.707691	0.000658	20.863047
1792.469905	-3.009100	3.404600	-10.244000	25.674396	0.000657	20.861848
1793.465908	-3.021800	3.404700	-10.286000	25.676981	0.000656	20.863496
1794.466130	-3.009900	3.404700	-10.247000	25.684559	0.000657	20.863046
1795.466131	-3.009900	3.404300	-10.245000	25.685552	0.000654	20.893913
1796.478104	-2.989200	3.404900	-10.176000	25.664034	0.000653	20.858079
1797.471066	-2.991700	3.404500	-10.183000	25.687092	0.000654	20.861323
1798.469640	-3.002800	3.404700	-10.223000	25.693328	0.000653	20.878017
1799.470435	-3.004800	3.403500	-10.226000	25.710720	0.000652	20.872727
1800.469142	-2.990500	3.404000	-10.178000	25.750845	0.000653	20.845701
1801.469098	-3.009100	3.402300	-10.236000	25.750870	0.000653	20.857580
1802.470767	-3.019900	3.401000	-10.269000	25.747218	0.000651	20.854386
1803.473238	-2.982300	3.403300	-10.148000	25.726521	0.000652	20.870106
1804.470907	-2.995200	3.402400	-10.189000	25.700830	0.000650	20.888397
1805.471735	-2.993000	3.401800	-10.181000	25.712035	0.000648	20.875944
1806.471726	-2.975600	3.401600	-10.121000	25.667586	0.000648	20.865913
1807.472982	-3.023800	3.400400	-10.281000	25.658417	0.000649	20.864765
1808.478352	-3.008800	3.399700	-10.228000	25.642987	0.000648	20.860647
1809.473594	-3.006100	3.400700	-10.221000	25.615306	0.000648	20.848494
1810.473339	-3.013700	3.398700	-10.242000	25.632725	0.000649	20.865040
1811.473373	-2.989600	3.400000	-10.164000	25.638986	0.000647	20.839087
1812.474002	-3.019000	3.398800	-10.260000	25.704209	0.000646	20.878514
1813.478827	-3.014600	3.398500	-10.243000	25.733352	0.000648	20.861321
1814.481774	-3.026700	3.396700	-10.280000	25.734098	0.000645	20.853535
1815.478669	-3.017800	3.397900	-10.253000	25.718917	0.000645	20.864839
1816.475667	-3.001600	3.397700	-10.197000	25.725327	0.000643	20.887397
1817.477668	-3.000100	3.397600	-10.192000	25.718718	0.000644	20.858950
1818.479157	-3.004700	3.397500	-10.208000	25.726122	0.000643	20.872076
1819.481514	-3.021000	3.397500	-10.263000	25.713624	0.000642	20.864739
1820.479466	-3.008600	3.397400	-10.221000	25.710295	0.000643	20.853809
1821.479471	-2.994400	3.397200	-10.172000	25.719687	0.000642	20.854234
1822.480473	-2.996000	3.397200	-10.177000	25.696705	0.000641	20.874297
1823.480471	-2.995700	3.396700	-10.175000	25.698569	0.000641	20.854359
1824.482000	-2.981900	3.395300	-10.123000	25.702419	0.000641	20.858226
1825.480423	-2.980900	3.395800	-10.121000	25.730172	0.000639	20.872825
1826.491292	-3.004900	3.395000	-10.201000	25.754148	0.000639	20.851864
1827.482861	-2.996900	3.394900	-10.173000	25.767539	0.000640	20.852039
1828.482192	-2.987200	3.393600	-10.136000	25.765899	0.000637	20.844701
1829.483192	-3.009900	3.394000	-10.214000	25.794718	0.000637	20.861795
1830.487386	-2.996200	3.394300	-10.169000	25.785004	0.000636	20.835443
1831.484316	-2.996700	3.393100	-10.166000	25.811786	0.000639	20.852388
1832.485395	-2.980300	3.394100	-10.114000	25.797849	0.000639	20.855457
1833.486731	-2.974900	3.393600	-10.094000	25.799364	0.000635	20.838962
1834.488023	-3.012000	3.392700	-10.218000	25.821500	0.000634	20.862619
1835.490455	-3.004300	3.391100	-10.187000	25.832877	0.000634	20.866461
1836.488199	-3.001300	3.390700	-10.175000	25.862886	0.000635	20.840658
1837.489388	-3.034400	3.391500	-10.290000	25.864104	0.000634	20.844252
1838.492425	-2.988100	3.392500	-10.136000	25.862713	0.000634	20.849492
1839.488422	-3.021300	3.390500	-10.243000	25.832678	0.000635	20.828330
1840.490422	-2.990300	3.390600	-10.138000	25.818543	0.000634	20.839261
1841.492282	-2.988400	3.390200	-10.131000	25.790843	0.000634	20.843205
1842.488937	-3.004800	3.389200	-10.183000	25.794520	0.000632	20.830777
1843.490146	-3.004700	3.389500	-10.183000	25.807761	0.000631	20.842655
1844.489147	-2.995500	3.390300	-10.154000	25.823289	0.000630	20.841183
1845.490664	-3.011200	3.388700	-10.204000	25.826096	0.000631	20.852538
1846.506657	-3.010400	3.387300	-10.196000	25.841648	0.000632	20.826910
1847.494756	-3.003400	3.389100	-10.178000	25.853449	0.000630	20.843979
1848.492752	-3.009300	3.386500	-10.189000	25.888799	0.000631	20.853412
1849.490684	-3.005700	3.386500	-10.177000	25.896748	0.000629	20.846699
1850.490684	-2.992100	3.387800	-10.136000	25.911554	0.000628	20.847823
1851.496965	-3.008200	3.387000	-10.188000	25.916970	0.000629	20.843307
1852.490963	-3.013200	3.386700	-10.204000	25.912276	0.000627	20.851867
1853.493375	-3.014100	3.385100	-10.202000	25.930609	0.000627	20.838043
1854.498377	-2.999200	3.386200	-10.154000	25.930882	0.000629	20.844007
1855.493324	-3.019900	3.384200	-10.219000	25.922413	0.000627	20.831231
1856.493324	-3.008500	3.385100	-10.182000	25.938634	0.000625	20.831406
1857.496475	-3.001700	3.385600	-10.162000	25.931630	0.000625	20.831482
1858.500509	-2.986900	3.386300	-10.112000	25.899262	0.000625	20.830734
1859.494359	-2.993200	3.384100	-10.128000	25.864484	0.000628	20.827091
1860.494359	-2.993200	3.384900	-10.130000	25.821408	0.000624	20.823174
1861.495147	-2.977800	3.385100	-10.079000	25.784342	0.000624	20.837149
1862.500145	-3.004600	3.384300	-10.167000	25.751324	0.000624	20.822475
1863.527174	-2.999300	3.383800	-10.147000	25.736344	0.000624	20.824024
1864.500177	-2.994100	3.383100	-10.129000	25.731449	0.000623	20.833806
1865.498385	-2.989700	3.381600	-10.109000	25.717662	0.000622	20.843665
1866.497374	-2.983100	3.382900	-10.090000	25.734905	0.000622	20.823527
1867.501904	-3.009500	3.383000	-10.180000	25.733042	0.000620	20.826398
1868.500902	-3.008400	3.380800	-10.170000	25.738185	0.000620	20.823977
1869.498870	-2.993900	3.381300	-10.122000	25.759005	0.000621	20.803165
1870.498870	-3.011000	3.380200	-10.177000	25.786162	0.000621	20.825227
1871.499727	-3.005500	3.380100	-10.157000	25.796871	0.000621	20.824604
1872.500718	-3.008100	3.380100	-10.167000	25.794535	0.000619	20.824629
1873.505698	-2.986500	3.381700	-10.097000	25.820895	0.000618	20.815072
1874.500698	-2.982900	3.380700	-10.083000	25.830063	0.000618	20.832816
1875.500635	-2.987100	3.379500	-10.094000	25.803879	0.000618	20.807463
1876.501635	-3.019200	3.377100	-10.194000	25.806761	0.000619	20.820315
1877.503698	-2.979900	3.379400	-10.070000	25.769571	0.000619	20.831795
1878.503979	-3.011600	3.378200	-10.172000	25.746193	0.000621	20.832494
1879.505295	-3.004900	3.377500	-10.148000	25.710168	0.000617	20.791568
1880.502294	-3.000100	3.376500	-10.129000	25.688378	0.000617	20.794813
1881.501082	-3.013100	3.376700	-10.172000	25.705174	0.000618	20.819743
1882.502085	-3.025200	3.376200	-10.213000	25.696826	0.000618	20.781961
1883.502913	-3.023200	3.377000	-10.208000	25.704331	0.000617	20.801353
1884.507432	-3.000700	3.376700	-10.131000	25.749921	0.000617	20.815851
1885.502679	-3.009600	3.375600	-10.158000	25.776630	0.000614	20.811385
1886.501441	-2.997800	3.376700	-10.121000	25.784232	0.000613	20.800055
1887.500570	-2.991500	3.376300	-10.098000	25.805126	0.000614	20.815353
1888.502571	-2.991200	3.375000	-10.095000	25.792928	0.000615	20.816376
1889.507826	-2.992000	3.374900	-10.096000	25.797523	0.000613	20.800604
1890.503809	-2.989000	3.375900	-10.090000	25.809871	0.000612	20.789300
1891.504457	-2.976500	3.375000	-10.045000	25.842589	0.000613	20.799406
1892.509278	-2.996200	3.374000	-10.108000	25.854140	0.000610	20.809588
1893.508278	-3.001800	3.374500	-10.128000	25.856053	0.000610	20.798233
1894.507309	-2.995600	3.372800	-10.103000	25.888672	0.000610	20.794016
1895.507336	-2.996700	3.373500	-10.109000	25.912420	0.000609	20.812658
1896.506159	-3.004800	3.373700	-10.137000	25.908396	0.000610	20.804348
1897.505948	-3.008600	3.372200	-10.145000	25.892894	0.000608	20.812008
1898.506006	-2.989900	3.373600	-10.085000	25.928715	0.000608	20.791096
1899.506017	-2.986300	3.373500	-10.073000	25.936565	0.000607	20.799930
1900.508188	-3.008200	3.372100	-10.142000	25.937061	0.000608	20.791421
1901.508188	-2.984700	3.372600	-10.065000	25.966722	0.000607	20.795614
1902.506240	-2.998300	3.371100	-10.106000	25.986815	0.000608	20.795887
1903.507243	-2.991900	3.370900	-10.084000	25.966597	0.000607	20.796911
1904.505280	-2.969400	3.371900	-10.011000	25.981153	0.000606	20.795414
1905.511279	-2.974900	3.371500	-10.029000	25.957282	0.000605	20.797511
1906.506918	-3.013300	3.369500	-10.153000	25.940490	0.000604	20.789649
1907.511917	-3.014600	3.369100	-10.155000	25.904372	0.000604	20.815953
1908.511682	-3.021200	3.369700	-10.180000	25.860800	0.000603	20.797786
1909.507685	-3.001100	3.368700	-10.109000	25.823288	0.000603	20.802303
1910.507568	-2.984900	3.368800	-10.054000	25.775588	0.000601	20.779044
1911.510681	-2.997600	3.367200	-10.093000	25.767390	0.000601	20.789776
1912.506663	-3.019400	3.367700	-10.167000	25.760186	0.000599	20.800083
1913.511143	-3.019100	3.368000	-10.168000	25.763913	0.000600	20.779171
1914.507140	-2.979100	3.367500	-10.030000	25.782398	0.000600	20.793471
1915.509452	-2.980800	3.367900	-10.038000	25.786547	0.000599	20.788630
1916.511449	-3.019700	3.366700	-10.165000	25.806497	0.000599	20.765047
1917.509779	-3.009700	3.366200	-10.131000	25.818073	0.000599	20.785685
1918.511780	-3.009900	3.365900	-10.130000	25.824261	0.000598	20.785737
1919.509127	-3.000100	3.366600	-10.099000	25.848483	0.000597	20.772137
1920.516130	-2.987200	3.366100	-10.055000	25.837107	0.000597	20.776829
1921.512827	-3.028400	3.364100	-10.187000	25.841455	0.000599	20.771714
1922.512825	-3.016200	3.364900	-10.148000	25.828586	0.000594	20.767322
1923.519009	-2.980400	3.365400	-10.029000	25.850001	0.000595	20.774136
1924.511012	-2.990500	3.364200	-10.060000	25.848760	0.000595	20.782372
1925.510954	-2.987200	3.364300	-10.049000	25.853978	0.000595	20.789984
1926.511960	-2.999800	3.364200	-10.091000	25.891887	0.000593	20.772590
1927.513412	-2.985400	3.363800	-10.041000	25.895341	0.000593	20.774163
1928.511402	-2.980200	3.365700	-10.030000	25.918469	0.000592	20.744292
1929.513061	-3.003400	3.361900	-10.095000	25.921103	0.000592	20.772543
1930.512534	-2.985900	3.363500	-10.042000	25.896263	0.000593	20.782676
1931.515612	-3.022100	3.363000	-10.162000	25.939884	0.000591	20.768651
1932.514712	-2.989500	3.362300	-10.051000	25.925130	0.000592	20.784175
1933.511985	-3.001100	3.362200	-10.089000	25.902475	0.000590	20.779434
1934.514980	-2.985400	3.361100	-10.032000	25.898824	0.000587	20.753480
1935.514027	-2.997400	3.361800	-10.075000	25.904637	0.000591	20.772123
1936.514439	-2.990200	3.361600	-10.051000	25.930747	0.000587	20.785551
1937.516777	-3.011600	3.361000	-10.121000	25.920563	0.000588	20.786699
1938.517464	-3.010900	3.361300	-10.119000	25.907099	0.000587	20.752310
1939.514462	-3.006800	3.361100	-10.105000	25.908863	0.000589	20.760721
1940.514462	-2.997800	3.359800	-10.072000	25.898381	0.000586	20.758726
1941.513731	-2.979800	3.359300	-10.009000	25.913908	0.000586	20.757728
1942.515484	-3.018200	3.359500	-10.139000	25.920118	0.000586	20.785779
1943.518479	-2.995200	3.359800	-10.062000	25.926925	0.000586	20.765590
1944.515477	-2.991200	3.359800	-10.048000	25.914407	0.000585	20.783834
1945.517434	-2.993400	3.359800	-10.057000	25.943049	0.000585	20.756183
1946.515199	-2.994800	3.358600	-10.058000	25.954626	0.000583	20.764495
1947.530199	-3.020800	3.358200	-10.144000	25.944292	0.000584	20.770709
1948.518669	-3.014200	3.356600	-10.116000	25.928369	0.000583	20.766092
1949.514668	-2.987500	3.357400	-10.029000	25.889940	0.000582	20.752142
1950.518780	-2.990500	3.357300	-10.038000	25.879656	0.000582	20.769787
1951.515983	-2.999800	3.356000	-10.067000	25.865199	0.000583	20.773755
1952.516736	-3.002000	3.355600	-10.073000	25.851113	0.000582	20.763398
1953.515378	-3.008100	3.355500	-10.093000	25.872379	0.000583	20.756786
1954.517669	-2.997600	3.357000	-10.062000	25.835936	0.000583	20.760480
1955.515668	-2.981900	3.357400	-10.009000	25.858989	0.000582	20.757085
1956.517194	-3.002700	3.356000	-10.076000	25.865199	0.000579	20.765220
1957.516194	-3.001200	3.354500	-10.066000	25.873224	0.000581	20.746729
1958.516770	-3.011700	3.354100	-10.100000	25.867783	0.000577	20.759756
1959.519770	-2.987300	3.354100	-10.018000	25.860629	0.000578	20.760155
1960.525566	-2.989600	3.354200	-10.026000	25.854642	0.000577	20.760305
1961.525568	-3.015800	3.354300	-10.115000	25.821626	0.000577	20.755589
1962.528567	-2.998700	3.352700	-10.053000	25.834867	0.000577	20.742810
1963.516911	-2.987400	3.352600	-10.014000	25.835588	0.000576	20.753018
1964.517139	-2.995600	3.353800	-10.046000	25.853499	0.000576	20.739242
1965.522393	-2.979500	3.352200	-9.986300	25.906983	0.000575	20.763574
1966.516300	-3.019000	3.351400	-10.117000	25.920546	0.000575	20.754913
1967.517302	-2.999800	3.352600	-10.057000	25.901518	0.000575	20.748600
1968.518073	-2.990700	3.352300	-10.024000	25.916397	0.000575	20.765445
1969.517914	-2.994500	3.350700	-10.033000	25.935997	0.000575	20.769962
1970.523792	-2.992200	3.350300	-10.023000	25.941958	0.000573	20.751294
1971.520418	-3.005600	3.350400	-10.069000	25.942008	0.000573	20.763673
1972.524414	-3.007000	3.349600	-10.071000	25.964886	0.000571	20.765794
1973.520057	-3.019800	3.349400	-10.114000	25.908796	0.000572	20.753066
1974.519886	-2.982200	3.349300	-9.985900	25.878688	0.000571	20.750321
1975.521224	-3.003900	3.348500	-10.056000	25.839436	0.000570	20.750245
1976.521225	-2.995600	3.348000	-10.028000	25.809352	0.000570	20.762225
1977.521996	-3.001800	3.349900	-10.054000	25.801203	0.000571	20.766368
1978.521995	-2.986900	3.348100	-9.998500	25.831240	0.000570	20.762401
1979.521825	-2.993400	3.348200	-10.021000	25.849275	0.000568	20.765819
1980.521823	-2.981000	3.349300	-9.983000	25.892674	0.000569	20.744457
1981.528753	-3.003400	3.347500	-10.052000	25.918882	0.000568	20.745655
1982.522719	-2.993300	3.347500	-10.018000	25.929290	0.000567	20.761327
1983.522892	-2.991100	3.347700	-10.012000	25.961756	0.000566	20.744632
1984.522894	-3.001700	3.346900	-10.045000	25.963322	0.000568	20.783664
1985.522485	-2.969400	3.347000	-9.937600	25.929838	0.000565	20.772310
1986.524485	-3.018100	3.346500	-10.099000	25.913070	0.000563	20.739816
1987.531405	-3.007400	3.344500	-10.057000	25.934385	0.000566	20.761704
1988.525407	-3.002300	3.345800	-10.043000	25.900005	0.000565	20.754192
1989.527735	-3.014000	3.343100	-10.075000	25.912576	0.000563	20.761131
1990.525907	-3.015300	3.342800	-10.079000	25.926684	0.000563	20.740217
1991.527694	-2.999900	3.344100	-10.031000	25.938560	0.000562	20.756890
1992.529698	-3.017000	3.342900	-10.085000	25.969560	0.000562	20.744411
1993.526023	-3.006700	3.343500	-10.052000	25.989730	0.000562	20.755192
1994.525778	-3.007500	3.344500	-10.056000	25.984837	0.000560	20.767346
1995.527812	-3.048100	3.342400	-10.186000	25.968567	0.000561	20.754320
1996.526679	-3.012100	3.342600	-10.067000	25.948325	0.000560	20.759113
1997.535052	-2.984400	3.343400	-9.977000	25.935433	0.000558	20.745213
1998.526886	-2.990000	3.343000	-9.994400	25.888211	0.000560	20.763208
1999.537886	-2.991700	3.343400	-10.002000	25.910047	0.000559	20.773765
2000.526152	-2.976600	3.342000	-9.947200	25.918618	0.000556	20.750132
2001.527151	-2.989200	3.342000	-9.988000	25.948974	0.000554	20.777784
2002.535369	-3.011900	3.341500	-10.063000	25.968326	0.000557	20.759767
2003.541368	-2.997900	3.342400	-10.019000	25.980822	0.000556	20.768528
2004.529353	-2.995000	3.339300	-9.999400	25.998756	0.000556	20.754303
2005.528352	-2.985400	3.341400	-9.975100	26.018875	0.000556	20.768354
2006.527393	-2.996000	3.339700	-10.004000	25.990860	0.000555	20.757750
2007.533391	-2.995300	3.339700	-10.003000	25.954097	0.000553	20.769180
2008.532695	-2.976600	3.339500	-9.939600	25.945554	0.000555	20.762494
2009.528775	-3.015400	3.338000	-10.064000	25.902604	0.000555	20.768658
2010.533878	-2.991900	3.337800	-9.984200	25.943717	0.000553	20.760648
2011.528879	-3.014000	3.336900	-10.056000	25.915201	0.000553	20.754760
2012.546651	-2.995800	3.337500	-9.996700	25.916272	0.000552	20.749197
2013.530652	-2.999900	3.337500	-10.012000	25.917564	0.000551	20.757607
2014.539354	-2.982600	3.337700	-9.953400	25.884128	0.000553	20.777124
2015.530512	-2.987500	3.337200	-9.968300	25.850767	0.000550	20.790078
2016.537930	-3.006300	3.335900	-10.027000	25.834322	0.000550	20.744634
2017.531450	-3.009900	3.335700	-10.039000	25.878295	0.000550	20.773161
2018.530635	-3.002900	3.334100	-10.011000	25.879885	0.000548	20.769068
2019.548621	-3.012500	3.334300	-10.044000	25.852785	0.000549	20.763181
2020.532062	-2.976000	3.336200	-9.927600	25.899263	0.000549	20.775733
2021.531163	-2.994700	3.335100	-9.986200	25.885974	0.000548	20.767599
2022.530679	-2.989500	3.335000	-9.968900	25.918170	0.000547	20.759165
2023.532851	-3.000700	3.334100	-10.003000	25.931114	0.000548	20.752254
2024.534814	-3.012300	3.333200	-10.039000	25.942118	0.000546	20.768050
2025.532124	-3.004000	3.333500	-10.013000	25.971778	0.000546	20.773193
2026.532163	-3.010900	3.333400	-10.035000	26.010924	0.000544	20.755150
2027.532791	-2.996400	3.333700	-9.987700	26.011149	0.000544	20.755375
2028.531789	-3.019200	3.332200	-10.058000	26.009561	0.000545	20.766582
2029.532387	-3.016200	3.331800	-10.048000	26.008469	0.000544	20.776865
2030.536386	-2.976700	3.333300	-9.920100	26.019349	0.000545	20.746543
2031.533179	-2.993800	3.332000	-9.974100	25.999006	0.000544	20.769254
2032.535178	-2.983800	3.331100	-9.937800	26.009390	0.000545	20.776841
2033.552179	-3.008300	3.331200	-10.020000	26.007379	0.000541	20.793314
2034.535179	-3.019600	3.331000	-10.057000	26.024270	0.000542	20.777567
2035.537803	-3.001700	3.331400	-9.998500	26.055740	0.000542	20.773150
2036.536807	-2.987900	3.330100	-9.948400	26.076108	0.000542	20.760424
2037.543956	-3.004500	3.329900	-10.003000	26.114854	0.000540	20.764268
2038.538960	-2.998600	3.329800	-9.983000	26.122155	0.000539	20.772079
2039.536959	-3.025000	3.329000	-10.069000	26.121288	0.000542	20.758879
2040.540957	-2.989900	3.329800	-9.955200	26.108970	0.000538	20.767838
2041.537451	-3.005000	3.328100	-9.999100	26.128467	0.000538	20.760402
2042.540129	-3.021600	3.328800	-10.057000	26.151216	0.000537	20.752915
2043.538131	-2.999200	3.326900	-9.976300	26.157253	0.000535	20.775103
2044.537414	-2.979300	3.327700	-9.912700	26.181766	0.000535	20.774605
2045.538342	-2.959000	3.327300	-9.845300	26.201114	0.000534	20.784563
2046.541714	-2.997700	3.326800	-9.972100	26.208887	0.000535	20.753494
2047.547714	-3.004700	3.327000	-9.996000	26.197589	0.000536	20.773909
2048.538068	-2.988000	3.326900	-9.939900	26.161927	0.000536	20.778377
2049.540105	-3.012000	3.326400	-10.018000	26.155967	0.000533	20.760060
2050.539802	-2.980100	3.326400	-9.911200	26.176483	0.000533	20.770244
2051.540798	-3.002400	3.326100	-9.984800	26.184976	0.000531	20.760761
2052.542031	-3.010300	3.325600	-10.010000	26.166946	0.000532	20.788163
2053.541032	-3.006300	3.325500	-9.996900	26.197743	0.000533	20.772167
2054.540747	-3.000300	3.325200	-9.975400	26.177926	0.000532	20.781651
2055.553748	-3.011100	3.324100	-10.008000	26.162577	0.000530	20.793255
2056.542227	-2.987200	3.324200	-9.928300	26.133099	0.000530	20.772169
2057.541230	-3.013400	3.323700	-10.015000	26.147381	0.000530	20.781304
2058.548704	-2.998300	3.322200	-9.960300	26.129376	0.000529	20.798300
2059.540706	-3.007200	3.322300	-9.989300	26.158855	0.000528	20.776713
2060.541106	-3.010200	3.322000	-9.998000	26.174503	0.000528	20.792436
2061.542907	-2.978700	3.324200	-9.901000	26.156598	0.000527	20.785350
2062.550958	-2.987100	3.323200	-9.925600	26.187096	0.000528	20.768580
2063.542958	-2.995900	3.321000	-9.948200	26.227602	0.000528	20.792689
2064.543393	-3.002800	3.321200	-9.971400	26.239299	0.000525	20.766985
2065.542841	-2.996100	3.320000	-9.946100	26.234879	0.000528	20.790993
2066.544166	-3.000100	3.320900	-9.962500	26.203067	0.000525	20.784156
2067.547454	-3.000000	3.320200	-9.958800	26.227752	0.000526	20.781460
2068.543732	-2.999500	3.320400	-9.958200	26.252213	0.000525	20.779489
2069.545197	-3.022600	3.319400	-10.031000	26.229020	0.000524	20.796011
2070.542182	-2.994900	3.318200	-9.937000	26.224674	0.000522	20.796859
2071.542539	-2.980100	3.319000	-9.889900	26.176670	0.000522	20.790347
2072.544056	-2.978300	3.320000	-9.886700	26.204287	0.000523	20.797710
2073.546332	-2.991500	3.318400	-9.925900	26.197111	0.000521	20.787180
2074.542332	-2.994700	3.319600	-9.940600	26.183154	0.000520	20.783586
2075.544925	-2.996500	3.319200	-9.944400	26.216955	0.000521	20.768240
2076.543646	-3.020300	3.316600	-10.016000	26.207445	0.000522	20.789029
2077.544642	-3.003000	3.317000	-9.959500	26.246334	0.000520	20.783064
2078.549695	-3.002000	3.317000	-9.956500	26.285075	0.000521	20.805875
2079.544673	-2.992300	3.318600	-9.929000	26.293097	0.000520	20.780272
2080.548671	-3.003700	3.316200	-9.959500	26.330320	0.000518	20.766946
2081.544671	-2.999500	3.317700	-9.950200	26.344797	0.000518	20.775805
2082.544672	-3.017600	3.316400	-10.005000	26.317830	0.000518	20.789481
2083.545150	-2.997200	3.315100	-9.935300	26.317210	0.000519	20.789332
2084.543150	-2.992300	3.316100	-9.921500	26.307031	0.000516	20.792853
2085.543327	-3.010900	3.315400	-9.980800	26.285402	0.000519	20.795298
2086.550692	-3.003500	3.314200	-9.952300	26.280934	0.000516	20.805507
2087.553394	-3.024700	3.313300	-10.021000	26.274875	0.000514	20.810797
2088.544392	-3.017900	3.311900	-9.992400	26.262510	0.000514	20.777034
2089.543910	-2.988000	3.313600	-9.900800	26.255782	0.000513	20.796826
2090.568912	-2.995900	3.313800	-9.927000	26.246296	0.000514	20.799147
2091.548909	-2.999300	3.313300	-9.936000	26.239219	0.000513	20.784923
2092.548052	-3.019600	3.311000	-9.996200	26.225363	0.000513	20.793758
2093.545084	-2.997400	3.312700	-9.928200	26.166928	0.000511	20.814697
2094.546272	-3.005200	3.312200	-9.952100	26.151581	0.000512	20.797379
2095.548272	-3.003400	3.310200	-9.940500	26.198123	0.000509	20.800525
2096.545810	-2.986100	3.311500	-9.888000	26.175723	0.000510	20.784180
2097.546166	-3.000300	3.310400	-9.930100	26.153968	0.000510	20.804519
2098.546288	-2.989800	3.310500	-9.896500	26.202223	0.000508	20.822662
2099.546480	-3.005200	3.309800	-9.945400	26.225368	0.000508	20.805143
2100.547492	-2.997300	3.309900	-9.919800	26.184767	0.000509	20.798009
2101.547494	-3.004100	3.310300	-9.942300	26.196264	0.000507	20.793440
2102.547681	-3.001400	3.309100	-9.931000	26.223187	0.000508	20.793468
2103.548306	-2.991300	3.309900	-9.899500	26.227209	0.000507	20.794665
2104.548354	-3.002800	3.308200	-9.932900	26.262225	0.000507	20.777696
2105.550582	-3.022900	3.306900	-9.994800	26.284103	0.000503	20.789252
2106.554035	-2.979800	3.309000	-9.858200	26.306976	0.000505	20.809393
2107.549004	-3.002800	3.307800	-9.931200	26.293120	0.000501	20.825340
2108.556510	-2.990000	3.307700	-9.888300	26.295032	0.000502	20.815407
2109.550822	-2.999100	3.306800	-9.916400	26.255104	0.000505	20.790929
2110.551819	-3.004900	3.305800	-9.932100	26.300572	0.000504	20.813862
2111.554996	-3.005800	3.305300	-9.934000	26.306159	0.000503	20.810943
2112.551991	-2.996400	3.306000	-9.904700	26.295258	0.000503	20.813263
2113.552608	-2.977400	3.306100	-9.841800	26.267124	0.000502	20.813913
2114.551607	-2.998900	3.306900	-9.915900	26.267894	0.000502	20.826067
2115.552592	-2.995800	3.305500	-9.900900	26.283564	0.000501	20.807202
2116.559594	-3.016900	3.303200	-9.964400	26.256027	0.000499	20.830262
2117.567476	-3.008300	3.304000	-9.937300	26.265414	0.000500	20.802238
2118.553785	-3.017700	3.303900	-9.968400	26.266557	0.000500	20.801016
2119.552624	-3.015700	3.303000	-9.958900	26.302763	0.000499	20.812271
2120.553665	-3.002600	3.302400	-9.915400	26.305298	0.000498	20.808181
2121.556620	-2.991700	3.303300	-9.881500	26.362559	0.000498	20.801717
2122.555276	-2.999100	3.302700	-9.904000	26.381332	0.000497	20.812524
2123.558852	-3.003000	3.301300	-9.913100	26.421656	0.000499	20.824129
2124.554143	-2.992600	3.303300	-9.884100	26.396206	0.000497	20.833163
2125.558038	-2.971600	3.302100	-9.811800	26.430697	0.000496	20.806189
2126.553954	-2.976000	3.303400	-9.830200	26.466353	0.000494	20.821164
2127.556133	-3.003400	3.301600	-9.914500	26.470622	0.000496	20.808386
2128.555130	-2.993200	3.301800	-9.882200	26.475266	0.000495	20.809735
2129.558786	-2.995400	3.300400	-9.884200	26.477874	0.000494	20.837960
2130.557041	-2.991500	3.299900	-9.871100	26.409621	0.000493	20.824835
2131.555113	-2.991000	3.301300	-9.872100	26.378135	0.000493	20.822587
2132.556598	-2.997400	3.299600	-9.888900	26.367335	0.000491	20.825483
2133.559937	-3.001400	3.298700	-9.899800	26.393954	0.000495	20.821416
2134.555650	-3.002500	3.299000	-9.904500	26.428070	0.000491	20.833420
2135.578649	-3.016500	3.298000	-9.948100	26.449225	0.000492	20.824811
2136.557693	-3.008100	3.298600	-9.921700	26.437778	0.000493	20.819470
2137.557777	-2.984800	3.297600	-9.841900	26.453645	0.000492	20.830676
2138.560216	-2.998800	3.296900	-9.886200	26.438571	0.000492	20.831172
2139.557215	-2.988200	3.298400	-9.854100	26.462059	0.000493	20.827754
2140.560231	-3.008100	3.296600	-9.914300	26.489024	0.000491	20.821192
2141.558233	-2.991400	3.296200	-9.858700	26.467075	0.000488	20.839433
2142.568657	-2.997400	3.295600	-9.877500	26.429657	0.000490	20.840705
2143.560657	-3.015300	3.295000	-9.934500	26.378085	0.000489	20.832968
2144.562901	-3.005900	3.295400	-9.904100	26.361820	0.000488	20.824682
2145.560839	-3.006300	3.294400	-9.902400	26.364600	0.000488	20.828898
2146.560238	-3.016900	3.295200	-9.939600	26.364351	0.000488	20.852829
2147.559237	-3.031900	3.293500	-9.984600	26.384860	0.000491	20.837881
2148.560969	-3.005500	3.294400	-9.899800	26.393078	0.000487	20.829545
2149.560946	-3.018500	3.292800	-9.937800	26.439309	0.000487	20.838078
2150.564219	-2.988700	3.293500	-9.841000	26.440946	0.000488	20.829766
2151.560317	-2.991100	3.293100	-9.848200	26.482382	0.000486	20.858611
2152.560434	-3.001500	3.291800	-9.877300	26.509468	0.000484	20.864499
2153.560814	-2.990300	3.291800	-9.841200	26.520738	0.000486	20.851647
2154.563998	-2.998900	3.292200	-9.871600	26.556759	0.000482	20.846130
2155.561233	-2.993200	3.290900	-9.849300	26.567111	0.000485	20.861276
2156.568231	-2.997600	3.290700	-9.862400	26.557476	0.000484	20.846376
2157.561999	-3.012200	3.290600	-9.910800	26.559411	0.000484	20.863019
2158.563003	-3.006300	3.291000	-9.892800	26.583687	0.000481	20.835740
2159.562470	-3.025800	3.289500	-9.952200	26.560101	0.000482	20.869876
2160.566046	-2.990600	3.290800	-9.840600	26.558189	0.000481	20.860843
2161.563899	-3.003600	3.289500	-9.880000	26.552426	0.000480	20.854576
2162.563227	-3.006500	3.289400	-9.888200	26.567519	0.000481	20.881125
2163.562225	-2.979800	3.289500	-9.801100	26.583628	0.000480	20.878826
2164.563289	-2.999400	3.290400	-9.869100	26.568234	0.000481	20.869991
2165.567333	-2.998100	3.287400	-9.855400	26.595540	0.000479	20.874206
2166.563333	-2.996200	3.286900	-9.847900	26.590995	0.000479	20.870111
2167.566189	-2.989000	3.287500	-9.824500	26.606236	0.000478	20.875949
2168.564397	-3.003200	3.286100	-9.868200	26.556656	0.000479	20.873526
2169.568394	-2.981700	3.287000	-9.800000	26.521327	0.000476	20.882582
2170.571793	-3.005600	3.287300	-9.878900	26.498856	0.000475	20.873273
2171.563796	-2.995300	3.286700	-9.843400	26.481201	0.000476	20.883501
2172.563239	-3.003400	3.285000	-9.865700	26.490459	0.000475	20.887591
2173.578236	-3.003100	3.286500	-9.866900	26.495869	0.000474	20.874063
2174.563476	-2.989800	3.285800	-9.822800	26.488543	0.000473	20.885190
2175.565474	-3.029900	3.284700	-9.951400	26.502418	0.000473	20.900084
2176.567506	-2.995200	3.284600	-9.836900	26.475728	0.000473	20.878474
2177.564618	-2.988700	3.286000	-9.820000	26.477164	0.000473	20.866642
2178.565194	-2.997500	3.285100	-9.846500	26.432645	0.000470	20.897757
2179.565200	-3.004100	3.283900	-9.864700	26.408409	0.000471	20.871978
2180.570587	-3.014500	3.282000	-9.891900	26.417421	0.000468	20.879139
2181.569590	-2.994700	3.284000	-9.833600	26.437257	0.000468	20.886747
2182.567193	-2.994800	3.282500	-9.829000	26.467694	0.000469	20.919233
2183.569193	-2.999500	3.281200	-9.840300	26.465928	0.000467	20.896598
2184.575259	-3.006900	3.281000	-9.864500	26.470719	0.000468	20.895723
2185.567546	-2.981800	3.281400	-9.783000	26.490354	0.000468	20.910717
2186.569061	-2.998800	3.280300	-9.836100	26.494822	0.000466	20.923266
2187.572620	-3.001500	3.280100	-9.843500	26.490798	0.000466	20.905947
2188.568424	-3.011200	3.279500	-9.874300	26.540822	0.000466	20.895540
2189.568417	-3.000500	3.279500	-9.839600	26.556584	0.000463	20.920390
2190.569416	-2.987000	3.281100	-9.798800	26.552435	0.000465	20.908635
2191.569533	-2.990900	3.278700	-9.805600	26.590516	0.000464	20.912301
2192.570787	-2.979600	3.279600	-9.770700	26.586790	0.000464	20.921830
2193.573906	-2.978900	3.279100	-9.766300	26.625863	0.000463	20.926495
2194.573903	-3.008700	3.277700	-9.859900	26.613573	0.000463	20.908453
2195.569484	-2.990900	3.277400	-9.800700	26.619530	0.000461	20.918232
2196.569486	-3.010500	3.276800	-9.863800	26.604607	0.000463	20.932153
2197.571365	-3.003000	3.277500	-9.840100	26.604679	0.000460	20.923218
2198.583382	-2.998400	3.275300	-9.819200	26.583775	0.000459	20.935393
2199.571657	-2.995500	3.275100	-9.809300	26.568703	0.000459	20.926408
2200.575659	-2.990500	3.275800	-9.795000	26.581188	0.000459	20.911459
2201.572466	-2.997400	3.275700	-9.817600	26.599433	0.000457	20.918893
2202.576467	-3.011700	3.274600	-9.861500	26.627658	0.000458	20.936833
2203.586185	-2.983100	3.276700	-9.773400	26.640986	0.000457	20.916095
2204.576188	-3.016600	3.274200	-9.876300	26.661787	0.000457	20.947908
2205.584504	-3.011400	3.272800	-9.854000	26.674221	0.000457	20.939546
2206.575497	-3.008300	3.274200	-9.849400	26.594608	0.000455	20.952919
2207.574495	-3.015100	3.272600	-9.865900	26.621169	0.000454	20.938370
2208.576499	-3.012300	3.272900	-9.857100	26.590260	0.000452	20.934800
2209.576310	-3.001500	3.272700	-9.821500	26.629605	0.000453	20.942583
2210.575151	-3.019200	3.271900	-9.877400	26.668106	0.000453	20.911590
2211.574401	-3.022200	3.271200	-9.885100	26.687194	0.000452	20.923192
2212.575430	-2.999000	3.272100	-9.811200	26.675177	0.000452	20.933395
2213.578558	-2.989100	3.271600	-9.778500	26.603929	0.000451	20.930050
2214.576148	-2.971300	3.271200	-9.719300	26.593948	0.000449	20.909587
2215.582148	-3.000100	3.269800	-9.806700	26.643075	0.000450	20.926728
2216.575146	-2.980400	3.271600	-9.750100	26.619737	0.000449	20.919863
2217.576151	-3.002200	3.268900	-9.812900	26.596748	0.000447	20.950803
2218.577516	-2.986100	3.270500	-9.765500	26.567924	0.000448	20.925625
2219.580516	-2.986000	3.269700	-9.762400	26.589521	0.000450	20.915093
2220.575982	-2.985000	3.268200	-9.754700	26.582294	0.000447	20.908778
2221.576985	-2.992400	3.268100	-9.778400	26.624867	0.000446	20.905108
2222.577826	-2.995000	3.268600	-9.788700	26.649292	0.000446	20.914488
2223.575767	-3.004700	3.267500	-9.816800	26.680817	0.000445	20.914885
2224.580600	-3.008300	3.266400	-9.825200	26.681261	0.000447	20.903954
2225.575412	-3.013800	3.266300	-9.842500	26.723707	0.000445	20.924813
2226.580435	-2.995200	3.267900	-9.787000	26.751704	0.000444	20.908867
2227.577315	-2.992000	3.267200	-9.774900	26.741700	0.000443	20.913032
2228.579315	-3.000800	3.266800	-9.802600	26.748201	0.000444	20.919094
2229.580530	-3.014700	3.264400	-9.839900	26.739065	0.000440	20.922711
2230.578526	-2.985500	3.265600	-9.748200	26.776668	0.000442	20.918792
2231.577650	-3.008200	3.263800	-9.817000	26.799651	0.000439	20.911554
2232.583648	-2.992800	3.265000	-9.769600	26.805383	0.000438	20.911627
2233.579082	-3.031800	3.264400	-9.895800	26.815930	0.000438	20.935506
2234.579087	-2.997100	3.263900	-9.781300	26.832012	0.000437	20.927968
2235.599010	-3.017400	3.262800	-9.844100	26.793937	0.000439	20.909128
2236.578880	-3.010500	3.263400	-9.823500	26.860353	0.000437	20.923749
2237.581073	-2.992300	3.262700	-9.761600	26.851789	0.000436	20.899019
2238.581068	-2.989100	3.261500	-9.747500	26.844863	0.000436	20.917184
2239.580062	-2.982200	3.261300	-9.725000	26.858637	0.000434	20.905429
2240.582444	-3.000700	3.261900	-9.786300	26.861291	0.000433	20.905253
2241.579445	-2.996500	3.259800	-9.767600	26.854093	0.000433	20.881896
2242.581496	-3.007600	3.261700	-9.808300	26.871664	0.000433	20.905252
2243.580495	-3.009000	3.259500	-9.806700	26.866550	0.000432	20.902481
2244.580916	-2.991100	3.259200	-9.747700	26.864836	0.000431	20.906921
2245.581920	-3.005600	3.258600	-9.792800	26.848182	0.000429	20.918150
2246.585764	-2.985000	3.259200	-9.727400	26.789481	0.000427	20.916501
2247.589795	-2.976900	3.258900	-9.700800	26.780993	0.000429	20.904649
2248.582440	-2.980800	3.258700	-9.712100	26.792135	0.000427	20.913006
2249.584764	-3.000200	3.257400	-9.770500	26.815665	0.000426	20.912956
2250.597307	-2.998700	3.256700	-9.765000	26.840211	0.000426	20.911558
2251.587309	-2.999100	3.256600	-9.766600	26.848871	0.000425	20.899404
2252.586732	-2.977800	3.257800	-9.700200	26.829835	0.000425	20.898755
2253.588716	-3.010200	3.255400	-9.798100	26.818963	0.000425	20.900626
2254.590510	-3.001300	3.256400	-9.772700	26.808464	0.000425	20.889596
2255.586465	-3.016600	3.255700	-9.820000	26.807768	0.000423	20.889846
2256.588462	-3.003300	3.255000	-9.774200	26.800445	0.000423	20.901922
2257.590463	-2.994100	3.256200	-9.747700	26.803051	0.000421	20.906912
2258.585832	-2.981300	3.255500	-9.705300	26.823452	0.000424	20.904666
2259.586205	-2.997800	3.254100	-9.754200	26.827548	0.000423	20.904990
2260.594205	-3.011300	3.252100	-9.792100	26.848495	0.000420	20.888595
2261.587598	-3.022700	3.253100	-9.830900	26.861450	0.000417	20.885975
2262.588596	-3.004400	3.252300	-9.770800	26.856660	0.000418	20.893959
2263.588950	-2.993900	3.253400	-9.738500	26.875348	0.000418	20.883828
2264.587947	-2.975800	3.253100	-9.679300	26.878053	0.000419	20.892237
2265.591992	-3.006500	3.251600	-9.775000	26.840998	0.000418	20.898126
2266.588997	-3.010800	3.250200	-9.783900	26.790116	0.000416	20.885848
2267.590522	-3.005300	3.249500	-9.764900	26.743700	0.000416	20.893234
2268.589638	-3.005400	3.250400	-9.768200	26.700360	0.000417	20.894232
2269.590677	-3.005000	3.248900	-9.761600	26.719498	0.000415	20.889292
2270.589292	-2.973800	3.250100	-9.663400	26.688991	0.000413	20.887070
2271.589888	-3.009200	3.250300	-9.779800	26.695618	0.000415	20.884724
2272.592473	-2.976400	3.249500	-9.669400	26.690306	0.000413	20.881280
2273.591412	-3.013800	3.247700	-9.786900	26.725826	0.000412	20.881429
2274.590602	-2.989600	3.246900	-9.705500	26.737368	0.000412	20.896825
2275.599601	-3.016100	3.245700	-9.787600	26.725105	0.000410	20.876912
2276.589551	-3.009100	3.246800	-9.768500	26.730765	0.000412	20.862688
2277.603551	-3.018800	3.246700	-9.800100	26.779067	0.000410	20.875688
2278.605983	-2.991300	3.245200	-9.705900	26.831041	0.000409	20.869151
2279.592984	-2.998500	3.245500	-9.729700	26.844419	0.000410	20.887816
2280.591984	-2.975800	3.245800	-9.657400	26.882639	0.000409	20.893055
2281.597452	-2.990500	3.245800	-9.704600	26.907606	0.000408	20.869798
2282.592452	-2.984800	3.246100	-9.687500	26.891846	0.000410	20.871494
2283.598021	-2.982300	3.246100	-9.679800	26.846501	0.000410	20.888488
2284.592409	-2.975900	3.244700	-9.655200	26.802892	0.000408	20.890632
2285.593114	-2.985500	3.243800	-9.683400	26.782439	0.000406	20.891406
2286.593114	-2.991300	3.243500	-9.701500	26.752678	0.000406	20.868124
2287.599151	-2.995700	3.242900	-9.713700	26.730263	0.000404	20.867873
2288.593151	-3.014800	3.241800	-9.771300	26.711845	0.000405	20.896295
2289.594000	-2.998900	3.242700	-9.724000	26.726440	0.000403	20.855495
2290.601038	-3.007700	3.240700	-9.746300	26.720929	0.000401	20.862282
2291.619153	-2.983000	3.242800	-9.672200	26.719389	0.000402	20.883018
2292.595150	-3.011100	3.241500	-9.759900	26.730161	0.000401	20.869667
2293.595246	-3.018900	3.239500	-9.777500	26.745525	0.000401	20.877053
2294.599047	-2.994100	3.240300	-9.700000	26.794869	0.000399	20.872136
2295.597083	-2.972400	3.241400	-9.633300	26.813683	0.000398	20.883939
2296.595401	-2.992500	3.240900	-9.697300	26.799361	0.000398	20.869066
2297.596546	-2.993700	3.238400	-9.693800	26.798765	0.000397	20.854243
2298.595629	-2.995100	3.239500	-9.701900	26.799633	0.000397	20.885460
2299.597630	-3.007500	3.236500	-9.732300	26.833339	0.000396	20.887107
2300.597829	-3.029900	3.236000	-9.801400	26.849620	0.000395	20.869814
2301.600825	-2.972700	3.239100	-9.627800	26.879849	0.000393	20.852320
2302.596018	-3.001400	3.237200	-9.715200	26.907372	0.000392	20.875253
2303.596022	-3.014300	3.234800	-9.749200	26.930452	0.000392	20.879494
2304.597672	-3.005300	3.235700	-9.722700	26.923701	0.000391	20.866543
2305.603672	-3.000800	3.235000	-9.706700	26.955418	0.000391	20.895115
2306.599111	-3.000500	3.234500	-9.703800	26.956187	0.000388	20.868389
2307.599112	-2.993600	3.233400	-9.678100	26.914940	0.000389	20.874328
2308.597282	-3.010200	3.232400	-9.729500	26.885431	0.000390	20.873105
2309.598285	-2.997100	3.233900	-9.690400	26.826758	0.000390	20.867690
2310.605220	-3.000900	3.232800	-9.699600	26.793872	0.000389	20.869237
2311.599222	-3.005600	3.231600	-9.711500	26.762249	0.000388	20.853091
2312.602413	-2.991800	3.231900	-9.668200	26.712084	0.000386	20.859554
2313.598418	-3.008800	3.231200	-9.720400	26.679368	0.000387	20.867914
2314.600310	-3.008800	3.230800	-9.720200	26.657572	0.000385	20.878244
2315.600672	-3.026400	3.229900	-9.772300	26.674949	0.000383	20.863946
2316.604175	-3.003300	3.230000	-9.699500	26.709875	0.000383	20.871557
2317.618030	-3.006400	3.228400	-9.704100	26.752742	0.000382	20.853490
2318.601063	-3.009200	3.228900	-9.715100	26.811493	0.000384	20.870833
2319.600751	-3.010400	3.228100	-9.717500	26.811269	0.000381	20.869186
2320.610752	-3.048500	3.226400	-9.834000	26.821917	0.000380	20.856185
2321.602279	-3.025400	3.229500	-9.769100	26.794218	0.000381	20.862947
2322.599724	-3.010200	3.228000	-9.715400	26.800795	0.000378	20.856284
2323.604071	-3.022500	3.226600	-9.750700	26.815687	0.000376	20.870783
2324.611077	-3.006500	3.227700	-9.703000	26.870415	0.000378	20.858481
2325.601171	-2.976800	3.227100	-9.604200	26.897194	0.000377	20.848424
2326.603170	-3.000400	3.227900	-9.683800	26.896499	0.000375	20.869535
2327.603441	-2.991900	3.226300	-9.651900	26.873169	0.000376	20.839440
2328.602586	-2.992000	3.227400	-9.655400	26.841724	0.000374	20.848124
2329.602659	-3.002100	3.223900	-9.678000	26.809334	0.000374	20.821722
2330.602510	-3.003600	3.224900	-9.685100	26.773766	0.000374	20.844282
2331.601695	-3.025800	3.224700	-9.755800	26.765153	0.000374	20.828984
2332.603730	-3.000000	3.223100	-9.667800	26.782354	0.000373	20.848649
2333.606755	-2.987200	3.222700	-9.625600	26.772351	0.000373	20.825791
2334.609411	-3.013000	3.223100	-9.710600	26.785531	0.000371	20.847102
2335.601526	-3.040200	3.220400	-9.789500	26.791339	0.000371	20.843458
2336.601746	-3.001900	3.222000	-9.671100	26.793846	0.000371	20.838393
2337.621742	-3.001200	3.221100	-9.665600	26.761803	0.000371	20.840314
2338.627767	-2.988500	3.220900	-9.624000	26.798463	0.000371	20.839716
2339.605772	-2.985800	3.220300	-9.613500	26.797669	0.000370	20.834650
2340.615770	-2.992100	3.218700	-9.629200	26.872649	0.000370	20.826116
2341.604770	-2.987100	3.219300	-9.615600	26.903945	0.000369	20.820600
2342.605409	-2.999500	3.218200	-9.652500	26.942437	0.000369	20.836547
2343.607684	-3.005800	3.218700	-9.672700	26.948915	0.000368	20.836422
2344.631723	-2.993600	3.218700	-9.634400	26.976337	0.000367	20.810893
2345.605051	-3.018000	3.217400	-9.709400	26.987679	0.000365	20.824669
2346.608047	-2.993000	3.216800	-9.626500	27.005844	0.000366	20.815435
2347.604459	-3.005400	3.217800	-9.668700	27.029642	0.000366	20.825143
2348.609465	-3.000900	3.215700	-9.648000	27.052273	0.000365	20.827040
2349.606131	-3.001200	3.215400	-9.649300	27.052323	0.000364	20.833254
2350.613131	-2.990500	3.215400	-9.614800	27.032744	0.000366	20.842012
2351.609400	-2.992400	3.215500	-9.620800	27.038179	0.000363	20.810021
2352.607402	-3.008100	3.213600	-9.665300	27.058601	0.000364	20.822024
2353.610286	-2.975100	3.213700	-9.560300	27.074954	0.000361	20.814288
2354.608478	-2.990900	3.214200	-9.612200	27.015821	0.000361	20.815985
2355.609198	-2.987100	3.212400	-9.594700	27.030015	0.000361	20.815561
2356.610267	-3.004500	3.213400	-9.654100	27.028526	0.000360	20.836823
2357.610267	-3.001800	3.212200	-9.642000	27.074657	0.000359	20.792652
2358.611266	-3.002300	3.211200	-9.639100	27.073515	0.000359	20.800987
2359.612641	-3.003300	3.210700	-9.642000	27.073044	0.000358	20.809522
2360.611176	-2.983100	3.211400	-9.577700	27.081804	0.000358	20.798418
2361.610236	-3.017400	3.209600	-9.683700	27.087982	0.000359	20.828339
2362.611513	-3.026900	3.208200	-9.709400	27.073293	0.000354	20.799815
2363.610517	-2.999200	3.208800	-9.622800	27.052424	0.000357	20.813915
2364.612970	-3.002700	3.207600	-9.631000	27.085427	0.000357	20.813915
2365.610971	-2.996600	3.208300	-9.612700	27.085179	0.000355	20.822675
2366.627416	-2.975900	3.208100	-9.545900	27.063417	0.000356	20.792254
2367.611415	-3.006400	3.206900	-9.640600	27.087288	0.000355	20.803934
2368.616211	-2.993400	3.206800	-9.598400	27.114162	0.000353	20.807253
2369.617214	-3.005300	3.206400	-9.634800	27.117065	0.000353	20.794052
2370.616157	-2.995900	3.205200	-9.601200	27.148280	0.000353	20.813118
2371.612889	-2.985600	3.206200	-9.570800	27.148305	0.000349	20.815988
2372.612839	-2.987000	3.206500	-9.576500	27.159297	0.000352	20.797172
2373.615109	-2.997300	3.205500	-9.607000	27.165848	0.000350	20.801864
2374.614754	-2.992200	3.205300	-9.589900	27.165898	0.000349	20.795751
2375.615686	-3.002400	3.202700	-9.614900	27.098978	0.000350	20.809052
2376.613684	-3.012700	3.202900	-9.648500	27.056943	0.000350	20.796650
2377.616003	-2.979500	3.202400	-9.540900	26.989223	0.000348	20.805833
2378.612286	-2.989600	3.201700	-9.570900	27.017339	0.000348	20.793805
2379.613728	-2.981900	3.203300	-9.550800	27.041658	0.000347	20.764208
2380.613728	-3.012000	3.199900	-9.637200	27.052577	0.000348	20.779931
2381.612993	-2.990300	3.201600	-9.573100	27.105829	0.000346	20.805510
2382.630987	-2.969400	3.201200	-9.505000	27.104365	0.000350	20.788865
2383.612841	-2.999900	3.200800	-9.602000	27.131312	0.000345	20.793682
2384.613080	-2.983500	3.198900	-9.543500	27.110271	0.000345	20.776788
2385.613758	-2.979600	3.199300	-9.531100	27.119576	0.000344	20.798948
2386.619760	-2.998200	3.198400	-9.588700	27.165381	0.000343	20.776264
2387.620721	-2.981100	3.197900	-9.532200	27.194138	0.000345	20.762040
2388.615110	-3.001800	3.197500	-9.597600	27.236639	0.000342	20.782504
2389.615639	-3.018500	3.198400	-9.653500	27.250632	0.000344	20.782355
2390.614873	-3.007700	3.196700	-9.613600	27.261177	0.000342	20.776365
2391.614923	-2.990700	3.195100	-9.554600	27.237211	0.000341	20.786872
2392.614448	-3.019000	3.195200	-9.645400	27.217238	0.000340	20.781956
2393.633449	-2.984800	3.195800	-9.537400	27.196919	0.000342	20.770527
2394.615450	-3.000200	3.195500	-9.586400	27.119803	0.000342	20.783055
2395.633448	-2.988900	3.193400	-9.544000	27.074171	0.000339	20.781258
2396.616447	-3.018900	3.193200	-9.639000	27.096578	0.000341	20.770602
2397.621450	-3.010000	3.192000	-9.606800	27.088688	0.000339	20.771202
2398.616839	-3.025800	3.192700	-9.659000	27.097075	0.000338	20.750239
2399.617806	-2.986400	3.192500	-9.532800	27.111095	0.000338	20.777616
2400.617081	-2.996700	3.191200	-9.562600	27.144320	0.000338	20.760297
2401.619081	-2.999300	3.190400	-9.567500	27.167396	0.000337	20.774972
2402.622079	-2.978000	3.190700	-9.501100	27.153477	0.000336	20.766662
2403.616358	-2.990900	3.189800	-9.539500	27.183971	0.000335	20.766038
2404.616357	-3.022500	3.189400	-9.639200	27.183649	0.000336	20.771404
2405.616175	-3.013100	3.188700	-9.606400	27.207145	0.000336	20.796934
2406.616178	-3.023500	3.186900	-9.634900	27.236894	0.000335	20.755733
2407.618581	-3.019500	3.185700	-9.617900	27.282023	0.000336	20.767937
2408.618611	-3.005000	3.187100	-9.576800	27.246497	0.000333	20.753064
2409.617435	-2.988600	3.186300	-9.521200	27.215807	0.000334	20.780990
2410.619069	-2.997500	3.185200	-9.546000	27.206428	0.000332	20.766341
2411.619346	-2.981800	3.186600	-9.500600	27.189558	0.000334	20.774977
2412.618586	-2.977400	3.184300	-9.479400	27.222259	0.000331	20.777997
2413.619584	-2.994900	3.183500	-9.533200	27.201046	0.000334	20.763298
2414.619799	-3.000100	3.185300	-9.555500	27.199285	0.000331	20.755363
2415.618799	-2.975000	3.184000	-9.471500	27.160753	0.000332	20.780618
2416.619622	-3.006200	3.183400	-9.569100	27.134453	0.000331	20.763175
2417.625623	-3.006800	3.184300	-9.573400	27.160307	0.000329	20.753617
2418.620827	-3.002300	3.180800	-9.548100	27.177428	0.000329	20.748551
2419.622825	-2.990600	3.182100	-9.516200	27.223875	0.000329	20.760656
2420.620653	-3.011900	3.180500	-9.578200	27.222213	0.000328	20.774157
2421.621650	-2.984000	3.182300	-9.495600	27.264217	0.000328	20.765673
2422.621077	-2.966200	3.180500	-9.433600	27.298851	0.000328	20.776803
2423.620666	-2.992000	3.178400	-9.507800	27.304161	0.000328	20.740892
2424.624664	-3.017900	3.178800	-9.592800	27.322470	0.000326	20.742715
2425.622827	-3.005800	3.179000	-9.555000	27.331749	0.000326	20.768170
2426.620899	-2.993800	3.178700	-9.514800	27.348619	0.000328	20.755269
2427.620346	-2.985500	3.176800	-9.483000	27.361370	0.000326	20.765252
2428.620343	-3.007400	3.176200	-9.551500	27.331948	0.000326	20.758414
2429.623413	-2.984900	3.178000	-9.484700	27.270175	0.000325	20.753174
2430.621411	-2.986500	3.176000	-9.484400	27.261566	0.000326	20.762532
2431.628608	-2.992100	3.175800	-9.501200	27.252884	0.000325	20.769920
2432.622571	-3.007500	3.173600	-9.543800	27.282407	0.000326	20.758365
2433.626626	-2.980400	3.173900	-9.457100	27.318852	0.000323	20.766577
2434.624628	-2.992700	3.175700	-9.502900	27.325253	0.000325	20.765429
2435.622468	-2.985800	3.174700	-9.477900	27.376431	0.000325	20.756694
2436.623467	-2.990600	3.172000	-9.485400	27.378590	0.000326	20.765979
2437.623550	-2.990000	3.173000	-9.486700	27.394887	0.000322	20.759614
2438.623960	-2.977500	3.173600	-9.449000	27.410540	0.000324	20.773939
2439.623012	-3.010500	3.170200	-9.542500	27.403247	0.000324	20.779879
2440.623407	-2.965900	3.172600	-9.407900	27.382658	0.000321	20.758691
2441.622208	-2.992100	3.169600	-9.483200	27.367575	0.000322	20.771494
2442.623339	-2.978500	3.169200	-9.438100	27.423687	0.000321	20.766776
2443.631340	-3.001100	3.169300	-9.511100	27.406745	0.000322	20.761112
2444.624088	-3.017400	3.167200	-9.555800	27.437926	0.000322	20.772092
2445.632092	-2.994500	3.167800	-9.483300	27.487735	0.000319	20.765779
2446.624091	-2.977500	3.166900	-9.428300	27.496168	0.000318	20.762884
2447.626091	-2.998100	3.165900	-9.490300	27.473769	0.000318	20.753624
2448.629349	-3.030200	3.164500	-9.588200	27.464318	0.000319	20.771143
2449.623353	-3.014500	3.164600	-9.539000	27.482526	0.000319	20.777608
2450.627977	-2.990300	3.163500	-9.459000	27.453528	0.000317	20.771668
2451.626184	-3.011500	3.163900	-9.527200	27.433138	0.000318	20.789087
2452.636182	-3.021200	3.163000	-9.554900	27.426639	0.000317	20.751254
2453.623183	-2.995100	3.163300	-9.473600	27.421281	0.000315	20.777633
2454.623183	-3.004500	3.161100	-9.495900	27.431030	0.000315	20.787440
2455.623968	-3.001300	3.160300	-9.484200	27.398683	0.000314	20.776709
2456.626966	-3.007700	3.159400	-9.501400	27.372363	0.000314	20.800492
2457.622371	-2.990700	3.159200	-9.446800	27.316968	0.000315	20.764207
2458.639375	-3.003100	3.158900	-9.485500	27.344454	0.000313	20.770994
2459.622292	-3.000400	3.158700	-9.475700	27.308359	0.000314	20.764083
2460.624306	-3.006600	3.156800	-9.489300	27.293796	0.000316	20.778831
2461.625855	-2.980600	3.158000	-9.412400	27.267549	0.000314	20.766179
2462.625914	-3.011800	3.156100	-9.503200	27.249562	0.000312	20.745715
2463.625913	-3.005700	3.155000	-9.482400	27.247999	0.000314	20.768326
2464.624911	-2.996800	3.155500	-9.455400	27.228300	0.000315	20.771745
2465.624912	-2.997100	3.155800	-9.457300	27.260032	0.000313	20.774740
2466.625180	-3.003900	3.154600	-9.475100	27.264623	0.000313	20.765133
2467.625247	-2.991900	3.153800	-9.434800	27.274646	0.000311	20.783749
2468.624126	-2.991700	3.151800	-9.427500	27.301092	0.000311	20.772419
2469.624126	-2.977600	3.153400	-9.388100	27.330541	0.000311	20.780706
2470.624531	-2.973200	3.150800	-9.366000	27.348502	0.000309	20.771747
2471.625535	-3.004600	3.150200	-9.464200	27.334312	0.000309	20.772646
2472.629032	-2.981600	3.149900	-9.391000	27.311960	0.000309	20.772446
2473.629034	-3.000000	3.148400	-9.444100	27.337092	0.000307	20.760743
2474.629032	-3.000800	3.148100	-9.446700	27.346494	0.000309	20.792013
2475.629033	-2.984800	3.148200	-9.394100	27.383731	0.000310	20.780160
2476.646030	-2.968600	3.146800	-9.340500	27.362398	0.000309	20.764863
2477.629032	-3.004100	3.146000	-9.449800	27.338012	0.000307	20.780161
2478.635034	-2.982600	3.145800	-9.381700	27.371057	0.000308	20.758875
2479.628355	-3.003300	3.147000	-9.449200	27.401620	0.000306	20.773500
2480.629355	-2.998300	3.143800	-9.425400	27.428038	0.000306	20.772576
2481.632314	-3.018000	3.143500	-9.486300	27.416653	0.000305	20.772502
2482.630315	-2.986000	3.143700	-9.386400	27.383687	0.000306	20.795288
2483.632524	-2.984100	3.142700	-9.377000	27.355506	0.000307	20.794440
2484.630772	-3.004200	3.141800	-9.437600	27.360096	0.000305	20.774875
2485.633298	-2.991900	3.140300	-9.395400	27.369449	0.000303	20.787604
2486.631293	-2.983600	3.141300	-9.371100	27.353895	0.000307	20.789027
2487.631422	-2.994900	3.138900	-9.399800	27.377266	0.000304	20.779820
2488.634582	-2.980800	3.140500	-9.359500	27.358909	0.000303	20.801182
2489.630463	-3.013000	3.138200	-9.453600	27.325989	0.000303	20.801257
2490.632348	-3.000800	3.137500	-9.414300	27.339783	0.000304	20.795693
2491.630577	-3.000700	3.135800	-9.408100	27.306764	0.000303	20.796618
2492.630380	-2.998400	3.135400	-9.399900	27.283494	0.000301	20.784115
2493.630379	-2.999500	3.135800	-9.404400	27.270024	0.000302	20.778626
2494.635658	-2.993800	3.135500	-9.386200	27.209859	0.000303	20.774060
2495.632655	-3.015200	3.134700	-9.451300	27.163364	0.000302	20.810746
2496.630503	-2.998800	3.133500	-9.395400	27.159766	0.000302	20.767298
2497.633510	-2.982700	3.134300	-9.346500	27.190558	0.000302	20.767923
2498.643555	-2.989600	3.131600	-9.361000	27.203064	0.000302	20.798993
2499.638540	-2.999200	3.130200	-9.387100	27.220582	0.000302	20.774413
2500.633247	-2.991500	3.130000	-9.362100	27.260329	0.000301	20.778832
2501.634147	-2.998900	3.128200	-9.380000	27.286007	0.000302	20.772418
2502.633144	-2.975100	3.127700	-9.304000	27.306277	0.000300	20.789489
2503.635070	-3.010300	3.127300	-9.413400	27.317119	0.000301	20.791386
2504.635104	-2.997600	3.126900	-9.372400	27.338530	0.000300	20.794906
2505.637492	-3.011900	3.125600	-9.412700	27.370060	0.000300	20.784899
2506.633491	-3.002800	3.124900	-9.381600	27.410099	0.000300	20.779185
2507.637332	-3.001100	3.124800	-9.376700	27.426001	0.000300	20.782855
2508.635334	-2.997200	3.123700	-9.361200	27.461003	0.000299	20.795309
2509.634609	-3.001600	3.122200	-9.370900	27.455719	0.000299	20.778140
2510.637609	-2.992200	3.120600	-9.336800	27.477896	0.000302	20.767260
2511.637583	-3.012600	3.120500	-9.400200	27.524851	0.000300	20.802174
2512.641014	-2.984400	3.119700	-9.309300	27.583114	0.000299	20.788723
2513.638158	-3.003800	3.119000	-9.368000	27.609578	0.000301	20.790221
2514.638995	-3.006000	3.119000	-9.374200	27.600824	0.000301	20.771930
2515.640991	-2.999900	3.118100	-9.352300	27.578849	0.000301	20.783484
2516.642971	-2.993800	3.116000	-9.328200	27.554692	0.000300	20.784782
2517.638971	-2.987900	3.116000	-9.309300	27.559231	0.000299	20.775125
2518.638722	-3.000900	3.114200	-9.342800	27.556156	0.000298	20.786256
2519.639721	-3.008600	3.114200	-9.368400	27.524110	0.000299	20.795264
2520.638879	-3.001100	3.113200	-9.342300	27.578379	0.000299	20.780640
2521.643928	-3.010300	3.113300	-9.371200	27.554841	0.000299	20.782088
2522.639508	-2.999300	3.111800	-9.332000	27.573816	0.000298	20.802128
2523.644496	-3.020900	3.110500	-9.395300	27.552138	0.000299	20.784110
2524.639499	-2.990000	3.111000	-9.300800	27.522473	0.000297	20.786030
2525.640496	-3.018000	3.108300	-9.379800	27.513495	0.000297	20.805921
2526.649496	-3.018500	3.106800	-9.375400	27.484820	0.000295	20.790822
2527.640499	-2.984700	3.107500	-9.274300	27.483108	0.000296	20.813281
2528.640496	-3.004700	3.105900	-9.330400	27.507392	0.000296	20.804997
2529.644743	-3.027000	3.105700	-9.399800	27.451035	0.000296	20.796186
2530.642742	-2.970100	3.104800	-9.219900	27.425386	0.000298	20.799306
2531.654058	-3.017600	3.103100	-9.362500	27.438781	0.000296	20.806617
2532.646271	-3.016200	3.102800	-9.357200	27.481942	0.000294	20.805470
2533.643416	-2.998600	3.101900	-9.300100	27.498760	0.000294	20.808639
2534.643020	-2.985100	3.102300	-9.259700	27.529814	0.000293	20.794365
2535.648018	-2.987500	3.101700	-9.264700	27.551491	0.000293	20.811434
2536.643588	-2.996300	3.099700	-9.286600	27.567837	0.000295	20.799430
2537.642752	-2.996900	3.099400	-9.287900	27.614588	0.000294	20.813280
2538.643956	-2.983100	3.099500	-9.244400	27.642366	0.000297	20.793815
2539.646954	-3.011000	3.096600	-9.323000	27.665084	0.000294	20.821891
2540.642555	-2.976200	3.097300	-9.217300	27.632817	0.000295	20.794639
2541.643677	-2.997300	3.094700	-9.275000	27.648963	0.000293	20.816575
2542.643948	-3.004300	3.093700	-9.292800	27.640803	0.000293	20.796511
2543.651905	-2.980000	3.093800	-9.219400	27.676565	0.000292	20.819693
2544.658571	-3.010200	3.091300	-9.304400	27.726636	0.000292	20.822664
2545.645578	-3.020300	3.091900	-9.336900	27.759692	0.000293	20.839333
2546.650885	-3.012700	3.090600	-9.310100	27.762370	0.000293	20.821641
2547.646100	-3.012400	3.088400	-9.303100	27.753095	0.000291	20.815151
2548.649101	-3.037400	3.088100	-9.379100	27.781936	0.000293	20.819520
2549.645841	-2.986100	3.089100	-9.223200	27.812114	0.000291	20.819071
2550.648701	-3.001100	3.087000	-9.262800	27.800262	0.000292	20.826582
2551.649704	-3.027300	3.083500	-9.333600	27.801502	0.000291	20.815977
2552.645701	-2.996700	3.084900	-9.244300	27.776481	0.000291	20.805022
2553.659816	-3.008000	3.081900	-9.269100	27.742012	0.000292	20.839085
2554.647817	-2.988800	3.082000	-9.210600	27.670144	0.000290	20.844052
2555.647816	-3.004900	3.081500	-9.258100	27.626768	0.000292	20.835492
2556.649816	-3.028800	3.078600	-9.323200	27.618063	0.000289	20.838113
2557.649148	-2.986300	3.079700	-9.195900	27.642691	0.000289	20.832549
2558.650464	-3.001500	3.077900	-9.236500	27.657324	0.000290	20.816928
2559.662169	-2.967800	3.077800	-9.132600	27.671832	0.000291	20.810190
2560.652171	-2.985500	3.077400	-9.186100	27.696534	0.000289	20.823192
2561.654129	-3.017700	3.074900	-9.278300	27.690160	0.000290	20.829580
2562.654033	-3.013200	3.074100	-9.261700	27.699385	0.000291	20.826062
2563.655661	-3.012200	3.073200	-9.256000	27.696608	0.000289	20.838439
2564.660219	-3.023500	3.072200	-9.287400	27.688722	0.000289	20.841409
2565.657097	-2.984900	3.073100	-9.172200	27.723689	0.000290	20.826811
2566.658889	-3.005000	3.071200	-9.227900	27.741124	0.000289	20.817329
2567.659888	-2.991500	3.071000	-9.185800	27.738744	0.000289	20.839115
2568.657829	-2.991400	3.068900	-9.179400	27.770510	0.000289	20.843108
2569.657828	-2.980300	3.068200	-9.142500	27.725874	0.000289	20.832328
2570.659193	-2.982400	3.067500	-9.147700	27.700207	0.000286	20.842061
2571.658330	-2.992300	3.066200	-9.173500	27.695247	0.000288	20.828536
2572.658851	-3.000000	3.065600	-9.195700	27.727090	0.000288	20.825966
2573.658854	-3.015400	3.061500	-9.230500	27.726719	0.000288	20.853566
2574.661000	-3.011500	3.061200	-9.217500	27.771504	0.000288	20.847427
2575.662344	-3.014400	3.060400	-9.224200	27.796055	0.000287	20.826142
2576.664345	-2.987000	3.060800	-9.140700	27.813660	0.000290	20.831058
2577.664921	-2.994200	3.058400	-9.156700	27.820480	0.000289	20.867317
2578.660970	-2.998100	3.060000	-9.172800	27.794940	0.000288	20.826443
2579.661969	-3.022700	3.056800	-9.238500	27.756975	0.000288	20.829962
2580.663971	-2.993000	3.056900	-9.148500	27.715463	0.000288	20.848877
2581.664839	-2.994400	3.054900	-9.146300	27.669362	0.000288	20.853695
2582.666840	-2.973500	3.055000	-9.083200	27.673701	0.000289	20.836252
2583.670290	-3.002300	3.053800	-9.167300	27.657954	0.000288	20.860233
2584.663281	-3.000600	3.052100	-9.156400	27.660955	0.000289	20.837650
2585.666321	-2.986700	3.051200	-9.112100	27.646151	0.000286	20.844564
2586.665315	-2.992200	3.051200	-9.129000	27.671050	0.000289	20.853024
2587.663363	-3.002400	3.048300	-9.150900	27.690765	0.000289	20.837776
2588.665125	-2.973000	3.048700	-9.062900	27.711400	0.000290	20.850479
2589.664124	-2.996800	3.046400	-9.128600	27.755468	0.000288	20.850255
2590.666343	-2.992200	3.045600	-9.112100	27.791002	0.000287	20.845238
2591.667343	-3.008200	3.044400	-9.156600	27.828818	0.000287	20.853424
2592.672090	-3.010900	3.042300	-9.159100	27.903106	0.000287	20.859438
2593.670094	-2.987900	3.042300	-9.088900	27.884164	0.000288	20.855547
2594.670097	-2.991100	3.041100	-9.095400	27.866064	0.000287	20.868149
2595.668098	-2.964100	3.040500	-9.011300	27.872437	0.000287	20.835684
2596.672609	-3.005700	3.037200	-9.127700	27.896811	0.000287	20.848835
2597.668785	-3.010300	3.036000	-9.138000	27.910374	0.000286	20.850158
2598.667783	-3.012700	3.035400	-9.143200	27.917166	0.000286	20.863158
2599.667872	-2.996500	3.033000	-9.086900	27.918952	0.000286	20.859740
2600.668872	-3.007200	3.033600	-9.120900	27.929764	0.000286	20.867302
2601.668465	-2.990100	3.031800	-9.064700	27.943126	0.000286	20.849933
2602.673391	-2.965500	3.032400	-8.991100	27.938218	0.000286	20.887665
2603.672173	-2.999700	3.031000	-9.090600	27.922425	0.000290	20.870821
2604.671172	-3.006900	3.028300	-9.104900	27.922252	0.000287	20.866854
2605.696398	-2.977200	3.029800	-9.018800	27.948656	0.000288	20.850758
2606.673141	-3.009100	3.026300	-9.105500	27.978880	0.000286	20.866954
2607.672151	-3.003300	3.025400	-9.085200	27.982922	0.000285	20.845893
2608.673491	-3.003100	3.024200	-9.081500	28.018821	0.000285	20.889138
2609.672418	-2.991000	3.022700	-9.039500	28.013541	0.000285	20.877185
2610.673634	-2.977200	3.022100	-8.996900	28.017732	0.000287	20.870024
2611.686635	-3.000900	3.020100	-9.062800	28.033524	0.000287	20.875963
2612.673292	-3.011000	3.019300	-9.090500	28.016169	0.000286	20.873667
2613.674291	-2.981000	3.018700	-8.998000	27.974742	0.000285	20.885072
2614.674523	-2.980600	3.017800	-8.994600	28.011954	0.000286	20.875114
2615.688524	-3.005400	3.015500	-9.061900	28.013146	0.000284	20.882003
2616.674693	-2.974800	3.015200	-8.968200	28.027600	0.000283	20.866682
2617.675691	-2.998500	3.013300	-9.034500	28.038855	0.000282	20.883700
2618.675634	-3.034300	3.010100	-9.132400	28.023312	0.000285	20.869478
2619.676698	-3.011400	3.010600	-9.065000	27.960809	0.000285	20.881006
2620.675115	-3.033000	3.007900	-9.121600	27.959496	0.000285	20.878262
2621.675560	-3.005200	3.007900	-9.038000	27.980175	0.000286	20.887695
2622.678297	-2.997200	3.008200	-9.015000	27.947621	0.000286	20.894283
2623.676051	-3.007700	3.006500	-9.041800	27.956102	0.000286	20.865837
2624.677814	-2.980600	3.005800	-8.957500	27.957490	0.000285	20.873398
2625.675487	-2.999700	3.004300	-9.010800	27.955408	0.000282	20.867509
2626.674485	-2.995700	3.003000	-8.995700	27.939987	0.000284	20.879962
2627.678505	-2.971800	3.001800	-8.920000	27.913260	0.000284	20.891466
2628.685503	-2.988600	3.000100	-8.965200	27.853552	0.000285	20.884479
2629.678504	-2.984500	2.999800	-8.951800	27.831931	0.000284	20.879315
2630.676588	-2.984300	2.999500	-8.950800	27.866646	0.000283	20.878691
2631.679564	-3.004300	2.996400	-9.001400	27.906169	0.000284	20.894287
2632.676564	-3.009300	2.994200	-9.009200	27.932652	0.000283	20.891070
2633.679410	-2.988800	2.993600	-8.946600	27.972271	0.000283	20.889222
2634.676744	-3.006400	2.992700	-8.994200	27.987692	0.000284	20.894787
2635.680263	-2.990500	2.990900	-8.941500	27.934907	0.000283	20.888125
2636.676240	-3.009900	2.989900	-8.998100	27.920675	0.000285	20.892292
2637.678259	-2.983400	2.988400	-8.914400	27.951866	0.000282	20.883858
2638.681441	-3.000200	2.987500	-8.960600	27.977056	0.000283	20.876497
2639.678440	-3.008600	2.985100	-8.979800	27.991462	0.000284	20.914701
2640.677995	-3.032300	2.982400	-9.042000	27.999619	0.000284	20.901576
2641.678997	-3.017500	2.982300	-8.998000	27.989131	0.000285	20.891494
2642.678652	-3.004800	2.981900	-8.960100	27.973414	0.000282	20.907915
2643.681656	-2.992600	2.980700	-8.919000	27.961314	0.000283	20.895737
2644.684824	-3.004600	2.978400	-8.947300	27.914826	0.000283	20.886880
2645.681823	-3.011500	2.976900	-8.963800	27.926679	0.000284	20.892171
2646.683427	-3.008000	2.975000	-8.947600	27.959258	0.000283	20.916425
2647.684427	-2.988500	2.975600	-8.891200	27.963548	0.000283	20.893719
2648.692425	-3.019400	2.973200	-8.975200	27.934961	0.000281	20.893868
2649.691209	-2.973100	2.971300	-8.832600	27.864842	0.000281	20.889677
2650.689207	-2.993100	2.969900	-8.888100	27.860801	0.000281	20.917849
2651.681421	-2.981700	2.968000	-8.848400	27.822417	0.000283	20.892498
2652.682718	-2.987400	2.967600	-8.864400	27.836229	0.000284	20.922991
2653.681377	-2.987700	2.966600	-8.862500	27.893481	0.000283	20.904750
2654.684378	-2.993100	2.964200	-8.870100	27.916566	0.000282	20.910914
2655.683224	-3.010300	2.963000	-8.918900	27.970072	0.000280	20.901233
2656.683223	-2.999700	2.961900	-8.884000	27.994519	0.000283	20.903555
2657.688288	-3.061100	2.959600	-9.058800	28.029079	0.000282	20.891876
2658.684504	-3.033300	2.957600	-8.970300	28.079778	0.000282	20.892651
2659.693107	-2.986500	2.958400	-8.834700	28.096488	0.000284	20.924167
2660.687043	-3.004500	2.956800	-8.883300	28.077796	0.000284	20.909621
2661.687043	-3.007800	2.955900	-8.889600	28.041180	0.000283	20.895522
2662.687630	-3.006200	2.954000	-8.879200	28.007438	0.000283	20.899016
2663.686631	-2.982400	2.953200	-8.806000	28.002605	0.000283	20.905056
2664.692924	-2.978800	2.952100	-8.791400	28.034488	0.000282	20.902536
2665.691492	-2.972000	2.950200	-8.765800	28.060892	0.000282	20.882175
2666.688431	-2.998800	2.947600	-8.838200	28.058835	0.000281	20.891957
2667.686311	-3.001700	2.946200	-8.842800	28.064314	0.000282	20.914066
2668.691752	-3.031700	2.942100	-8.918300	28.047185	0.000283	20.874542
2669.688979	-2.988700	2.943900	-8.797900	28.010270	0.000282	20.896177
2670.688965	-2.983500	2.941100	-8.773400	28.014361	0.000283	20.905510
2671.692481	-3.003600	2.939200	-8.827300	28.038187	0.000284	20.885398
2672.690324	-3.006400	2.937500	-8.830300	28.020759	0.000281	20.882554
2673.689649	-3.001200	2.936300	-8.811700	28.046171	0.000284	20.891063
2674.690649	-3.017000	2.934500	-8.852400	28.029140	0.000282	20.878188
2675.709830	-3.024900	2.932700	-8.870200	28.063551	0.000283	20.878213
2676.693830	-2.978200	2.931700	-8.730900	28.090077	0.000283	20.883579
2677.694228	-2.994600	2.930100	-8.773700	28.098308	0.000283	20.887597
2678.693836	-2.999800	2.930000	-8.788200	28.089410	0.000281	20.879114
2679.692873	-3.021300	2.926100	-8.839400	28.094047	0.000283	20.881885
2680.695618	-2.999900	2.926300	-8.777500	28.132348	0.000281	20.877769
2681.697796	-3.011900	2.924700	-8.808200	28.107782	0.000284	20.879592
2682.693264	-3.012500	2.923600	-8.806800	28.102651	0.000282	20.891020
2683.725265	-3.002900	2.920800	-8.770100	28.127615	0.000282	20.868264
2684.695937	-3.008400	2.919200	-8.781300	28.110288	0.000283	20.884010
2685.693936	-3.010400	2.916000	-8.776800	28.132723	0.000281	20.880043
2686.713010	-3.005800	2.915800	-8.763700	28.118917	0.000282	20.881791
2687.707016	-2.986300	2.914800	-8.703400	28.099828	0.000282	20.895291
2688.696064	-2.976900	2.914700	-8.675800	28.093212	0.000283	20.874407
2689.696203	-2.957200	2.913600	-8.614800	28.068272	0.000284	20.852148
2690.698209	-2.981600	2.911100	-8.679000	28.056001	0.000283	20.863976
2691.699226	-2.973000	2.908800	-8.647100	28.066563	0.000282	20.879824
2692.698221	-2.990500	2.906700	-8.691300	28.078240	0.000284	20.857914
2693.697101	-3.024300	2.905100	-8.784500	28.069216	0.000283	20.871115
2694.695098	-2.972800	2.903400	-8.630300	28.090017	0.000282	20.847485
2695.695782	-2.985900	2.901400	-8.662400	28.078192	0.000284	20.855495
2696.696786	-2.992400	2.900700	-8.679100	28.081069	0.000282	20.861710
2697.698625	-2.983100	2.898900	-8.647100	28.097628	0.000284	20.867000
2698.697965	-2.966500	2.896300	-8.591000	28.147035	0.000281	20.854624
2699.698818	-2.971800	2.895800	-8.604800	28.190837	0.000284	20.862210
2700.697375	-3.023800	2.892900	-8.747000	28.197406	0.000283	20.847961
2701.696480	-2.977000	2.892000	-8.608600	28.168876	0.000284	20.859068
2702.700804	-3.022300	2.887600	-8.725700	28.126833	0.000284	20.862261
2703.700398	-2.989300	2.889200	-8.634900	28.155987	0.000284	20.872643
2704.713432	-2.966800	2.886800	-8.563900	28.194357	0.000283	20.861013
2705.698426	-3.018700	2.884400	-8.706000	28.233572	0.000282	20.853552
2706.697500	-2.984300	2.882000	-8.600000	28.205736	0.000283	20.848287
2707.698506	-3.002800	2.880200	-8.647100	28.189303	0.000282	20.865407
2708.712255	-2.985000	2.877700	-8.589200	28.206330	0.000284	20.869273
2709.699258	-3.007500	2.875200	-8.645800	28.235359	0.000282	20.855352
2710.706254	-2.988700	2.875400	-8.593200	28.241555	0.000280	20.877709
2711.699255	-3.005800	2.872000	-8.630400	28.287236	0.000284	20.869175
2712.707260	-3.003200	2.870200	-8.619000	28.262253	0.000281	20.856824
2713.713919	-3.015400	2.867700	-8.647100	28.234689	0.000281	20.876013
2714.700921	-3.003700	2.865600	-8.606400	28.208291	0.000283	20.858445
2715.702720	-3.002900	2.863900	-8.598800	28.170812	0.000284	20.856749
2716.701591	-2.998300	2.862000	-8.580600	28.148875	0.000282	20.857898
2717.700589	-3.035200	2.859700	-8.679400	28.106062	0.000282	20.865532
2718.702602	-3.010600	2.858900	-8.605900	28.115954	0.000282	20.850836
2719.705042	-3.004300	2.856800	-8.581400	28.145330	0.000283	20.865709
2720.701438	-3.003300	2.854300	-8.571500	28.118013	0.000282	20.862864
2721.707633	-2.991700	2.852000	-8.531300	28.073044	0.000281	20.865011
2722.700629	-3.007600	2.851400	-8.575000	28.085267	0.000281	20.877314
2723.704628	-3.017200	2.847000	-8.589300	28.117617	0.000282	20.865785
2724.714708	-3.005800	2.846700	-8.554700	28.120989	0.000280	20.857801
2725.702146	-3.007600	2.843100	-8.549200	28.139531	0.000283	20.873621
2726.708040	-2.998600	2.842800	-8.523000	28.134872	0.000282	20.857552
2727.704055	-3.020100	2.839700	-8.575400	28.160207	0.000283	20.860297
2728.702551	-3.030900	2.837200	-8.598100	28.198753	0.000282	20.856429
2729.705786	-3.001700	2.837300	-8.515400	28.233877	0.000282	20.846273
2730.705859	-2.981300	2.833700	-8.446400	28.256881	0.000284	20.843829
2731.704643	-3.001800	2.831500	-8.498200	28.260796	0.000281	20.842556
2732.704642	-3.006400	2.829800	-8.506700	28.296736	0.000282	20.866886
2733.704453	-2.994400	2.827600	-8.466000	28.263821	0.000281	20.839912
2734.704459	-3.054000	2.824000	-8.622300	28.256237	0.000280	20.837491
2735.712455	-3.002700	2.823700	-8.477000	28.268530	0.000282	20.847498
2736.706456	-2.998600	2.820900	-8.458200	28.316417	0.000280	20.857305
2737.713998	-2.986400	2.818000	-8.414400	28.357237	0.000282	20.850992
2738.713002	-2.999400	2.816200	-8.445600	28.350447	0.000282	20.851741
2739.708587	-2.979000	2.814300	-8.383100	28.339616	0.000283	20.844629
2740.713741	-3.012200	2.810800	-8.465700	28.331537	0.000283	20.845029
2741.710131	-3.003500	2.807500	-8.431400	28.317410	0.000283	20.838866
2742.708830	-2.987900	2.805700	-8.382300	28.322169	0.000284	20.836545
2743.716247	-3.042000	2.802100	-8.522900	28.366582	0.000283	20.837643
2744.708328	-2.987900	2.801100	-8.368500	28.395604	0.000285	20.846003
2745.719327	-3.013000	2.798500	-8.430800	28.353397	0.000285	20.838591
2746.713080	-2.991300	2.795900	-8.361400	28.330346	0.000284	20.828184
2747.709083	-3.012100	2.792000	-8.409700	28.325117	0.000285	20.832401
2748.709670	-2.978600	2.791200	-8.312600	28.352602	0.000285	20.845851
2749.709680	-2.985300	2.788500	-8.323800	28.408240	0.000286	20.855408
2750.708875	-3.027400	2.784100	-8.426900	28.379961	0.000287	20.820769
2751.712879	-2.999600	2.782700	-8.346400	28.402068	0.000285	20.834969
2752.711806	-3.017700	2.779100	-8.385200	28.455769	0.000287	20.836414
2753.711255	-3.014600	2.776700	-8.369800	28.477578	0.000284	20.849840
2754.709253	-2.978000	2.775100	-8.263100	28.495047	0.000285	20.840880
2755.709212	-3.014500	2.770900	-8.351800	28.516630	0.000284	20.859295
2756.710212	-3.015500	2.769200	-8.349200	28.558259	0.000286	20.845743
2757.709527	-3.001800	2.765900	-8.301300	28.572953	0.000282	20.820714
2758.709525	-3.013600	2.763700	-8.327100	28.619683	0.000283	20.830320
2759.709644	-2.991900	2.759900	-8.256100	28.647507	0.000286	20.835584
2760.716643	-3.013200	2.755600	-8.302100	28.598744	0.000284	20.837680
2761.733243	-2.971200	2.754100	-8.181800	28.566406	0.000284	20.843517
2762.712247	-3.032000	2.750600	-8.338200	28.582562	0.000284	20.843193
2763.720502	-2.995100	2.747900	-8.229400	28.607884	0.000284	20.844988
2764.712155	-2.998400	2.744900	-8.229200	28.569476	0.000283	20.852298
2765.711996	-3.012600	2.741300	-8.257100	28.558795	0.000282	20.834905
2766.713011	-2.988800	2.739600	-8.187200	28.575123	0.000284	20.842339
2767.716110	-3.037600	2.733800	-8.303000	28.582829	0.000283	20.851048
2768.713087	-2.971300	2.731600	-8.114500	28.615362	0.000281	20.835450
2769.719088	-3.009500	2.729200	-8.213100	28.642617	0.000283	20.860529
2770.723089	-3.024100	2.724800	-8.239300	28.654384	0.000283	20.851044
2771.712613	-3.006500	2.722000	-8.183200	28.685479	0.000283	20.859604
2772.716951	-3.004100	2.718100	-8.164400	28.698065	0.000283	20.832452
2773.717953	-3.015600	2.714600	-8.184500	28.719941	0.000281	20.843582
2774.716447	-2.995800	2.712300	-8.124100	28.722716	0.000282	20.831678
2775.716083	-2.998200	2.707900	-8.117400	28.751181	0.000280	20.837117
2776.715082	-3.039500	2.703500	-8.216200	28.737308	0.000281	20.847324
2777.719882	-3.004700	2.699600	-8.110400	28.701159	0.000282	20.827983
2778.725879	-2.991600	2.697000	-8.067000	28.644890	0.000281	20.844801
2779.715981	-2.983000	2.693900	-8.034400	28.654776	0.000283	20.843379
2780.719082	-2.963600	2.690400	-7.971800	28.630593	0.000282	20.841781
2781.726210	-2.997400	2.686000	-8.050300	28.602668	0.000284	20.844477
2782.715209	-3.013200	2.681100	-8.077400	28.582920	0.000281	20.853510
2783.719302	-2.985400	2.678300	-7.994700	28.531327	0.000279	20.842329
2784.715484	-3.002700	2.673600	-8.027500	28.496139	0.000281	20.822066
2785.716541	-2.985800	2.670800	-7.973100	28.449426	0.000283	20.831923
2786.717920	-2.996300	2.666700	-7.989500	28.454332	0.000280	20.847294
2787.726241	-2.999300	2.662400	-7.984700	28.486995	0.000280	20.837513
2788.719243	-3.009900	2.656700	-7.995400	28.507315	0.000281	20.838062
2789.719240	-3.026900	2.652800	-8.027900	28.551671	0.000279	20.836739
2790.718325	-3.000100	2.650600	-7.951400	28.594366	0.000281	20.835641
2791.735322	-3.004800	2.646400	-7.950400	28.611389	0.000282	20.840932
2792.721714	-3.003000	2.641400	-7.931400	28.578780	0.000282	20.824212
2793.724716	-3.003400	2.637800	-7.921400	28.519631	0.000282	20.825335
2794.723589	-3.050700	2.630500	-8.023300	28.513857	0.000281	20.816202
2795.721124	-3.016300	2.626500	-7.921100	28.526892	0.000281	20.831225
2796.724811	-3.001000	2.621800	-7.867500	28.525480	0.000280	20.837388
2797.721774	-3.015200	2.616700	-7.889700	28.570950	0.000281	20.813955
2798.724794	-2.975400	2.612300	-7.771100	28.622539	0.000281	20.810437
2799.725916	-2.979000	2.607500	-7.766700	28.662754	0.000280	20.823439
2800.724915	-3.022700	2.602700	-7.866000	28.717831	0.000281	20.814431
2801.721207	-2.977100	2.597300	-7.731400	28.762601	0.000280	20.831076
2802.722206	-2.965500	2.594600	-7.692800	28.721275	0.000279	20.825485
2803.744231	-2.994200	2.586000	-7.741500	28.743845	0.000280	20.818822
2804.725237	-3.009400	2.581100	-7.765800	28.722886	0.000279	20.828056
2805.725584	-3.010000	2.574900	-7.749800	28.721202	0.000282	20.840110
2806.723760	-2.969100	2.572800	-7.637900	28.746424	0.000282	20.830428
2807.728145	-2.995100	2.565400	-7.682600	28.776154	0.000280	20.812961
2808.725111	-3.005200	2.559300	-7.690000	28.807741	0.000282	20.818226
2809.722407	-3.002500	2.554200	-7.667800	28.775288	0.000281	20.823468
2810.731777	-3.018600	2.547500	-7.688200	28.782347	0.000280	20.794069
2811.723779	-2.988100	2.543800	-7.600100	28.729255	0.000280	20.836368
2812.724393	-3.009400	2.535800	-7.630400	28.740555	0.000281	20.828784
2813.725391	-3.028200	2.530400	-7.661200	28.765180	0.000282	20.807123
2814.727391	-3.005800	2.525600	-7.590500	28.764314	0.000279	20.826638
2815.727394	-3.009800	2.518800	-7.578600	28.793325	0.000280	20.821723
2816.729903	-2.970500	2.512200	-7.461600	28.800808	0.000281	20.816932
2817.728908	-2.995700	2.505600	-7.505000	28.849241	0.000279	20.821151
2818.728625	-3.023100	2.498700	-7.553300	28.899454	0.000281	20.817683
