LabVIEW Measurement	
Writer_Version	2
Reader_Version	2
Separator	Tab
Decimal_Separator	.
Multi_Headings	No
X_Columns	One
Time_Pref	Absolute
Operator	admin
Description	Clolumns are: time, Current, Voltage, Power, Battery Temp, and Chamber Temp
Date	2024/08/16
Time	13:06:06.104549407958984375
***End_of_Header***	
	
Channels	6						
Samples	1	1	1	1	1	1	
Date	2024/09/09	2024/09/09	2024/09/09	2024/09/09	2024/09/09	2024/09/09	
Time	15:26:47.7062830924987792969	15:26:47.7122721672058105469	15:26:47.7173066139221191406	15:26:47.68929290771484375	15:26:47.68929290771484375	15:26:47.68929290771484375	
X_Dimension	Time	Time	Time	Time	Time	Time	
X0	0.0000000000000000E+0	0.0000000000000000E+0	0.0000000000000000E+0	0.0000000000000000E+0	0.0000000000000000E+0	0.0000000000000000E+0	
Delta_X	1.000000	1.000000	1.000000	1.000000	1.000000	1.000000	
***End_of_Header***							
X_Value	Untitled	Untitled 1	Untitled 2	Untitled 3	Untitled 4	Untitled 5	Comment
0.000000	0.008270	4.097100	0.033844	21.037822	0.000912	20.842495
0.998575	-3.002600	3.923000	-11.777000	21.036331	0.000911	20.853331
2.001318	-3.010000	3.916100	-11.787000	21.041768	0.000909	20.868251
2.998227	-3.017900	3.910200	-11.799000	21.032815	0.000907	20.838436
4.004076	-3.015200	3.906000	-11.776000	21.023858	0.000907	20.852709
4.999260	-3.016800	3.903200	-11.774000	21.024134	0.000907	20.850615
6.000705	-3.015900	3.899500	-11.759000	21.044672	0.000908	20.859302
7.002653	-2.997900	3.898700	-11.687000	21.044346	0.000904	20.852813
7.998793	-2.984100	3.895800	-11.623000	21.054731	0.000904	20.840915
8.999002	-2.983800	3.894500	-11.620000	21.065935	0.000901	20.865397
10.001270	-3.001500	3.893500	-11.685000	21.054212	0.000902	20.857465
11.000191	-2.990500	3.891400	-11.636000	21.045353	0.000902	20.846234
12.000498	-3.000100	3.890900	-11.672000	21.055062	0.000903	20.833660
13.010614	-3.001000	3.887900	-11.666000	21.075223	0.000902	20.864256
14.002511	-3.012500	3.887100	-11.709000	21.074177	0.000902	20.839029
15.004066	-3.001400	3.886400	-11.664000	21.050677	0.000901	20.826904
16.004290	-3.004600	3.883600	-11.668000	21.075154	0.000899	20.833843
17.001236	-2.998200	3.882500	-11.639000	21.068370	0.000899	20.830376
18.006185	-3.000500	3.882500	-11.649000	21.071871	0.000900	20.851421
19.002934	-3.001800	3.880300	-11.647000	21.098713	0.000900	20.854088
20.008991	-3.005500	3.880000	-11.660000	21.105508	0.000897	20.856143
21.003735	-3.012400	3.878200	-11.682000	21.083623	0.000896	20.839943
22.008788	-2.999200	3.879000	-11.633000	21.091712	0.000899	20.862731
23.004231	-3.012300	3.877300	-11.679000	21.106481	0.000898	20.846211
24.009274	-3.017100	3.876700	-11.695000	21.118786	0.000898	20.822484
25.002698	-2.989900	3.876300	-11.589000	21.142383	0.000896	20.840872
26.003221	-2.995300	3.876600	-11.610000	21.130538	0.000899	20.856049
27.003311	-3.001400	3.874500	-11.626000	21.134651	0.000896	20.847361
28.004574	-2.986800	3.874900	-11.573000	21.136097	0.000897	20.847386
29.005645	-2.988000	3.875100	-11.577000	21.134522	0.000896	20.829690
30.007867	-3.000400	3.872400	-11.618000	21.150747	0.000896	20.835489
31.009498	-2.995500	3.873200	-11.600000	21.166335	0.000897	20.849658
32.003204	-3.001700	3.870900	-11.618000	21.144679	0.000896	20.852651
33.004795	-3.001900	3.871400	-11.619000	21.166508	0.000895	20.832288
34.009646	-2.997100	3.869700	-11.597000	21.175790	0.000896	20.814073
35.004521	-2.992400	3.870400	-11.581000	21.170823	0.000897	20.828544
36.006468	-3.002300	3.869800	-11.618000	21.197466	0.000896	20.825324
37.007332	-3.009700	3.869200	-11.644000	21.180175	0.000894	20.825097
38.007796	-2.993100	3.868900	-11.579000	21.197663	0.000896	20.848280
39.010125	-2.997700	3.868800	-11.596000	21.196187	0.000895	20.826889
40.011362	-3.008400	3.868300	-11.636000	21.215793	0.000894	20.824691
41.018909	-3.007500	3.867800	-11.632000	21.223648	0.000894	20.827334
42.014091	-3.012600	3.865800	-11.645000	21.240287	0.000893	20.825012
43.007132	-3.030500	3.866900	-11.717000	21.232273	0.000894	20.832643
44.009834	-3.012400	3.866000	-11.645000	21.248364	0.000894	20.833092
45.013292	-3.000400	3.866400	-11.599000	21.251884	0.000892	20.835666
46.011938	-3.001700	3.865400	-11.602000	21.262104	0.000893	20.821234
47.008032	-3.019600	3.863200	-11.665000	21.250684	0.000893	20.822138
48.010817	-3.003500	3.864400	-11.606000	21.272832	0.000893	20.831018
49.011000	-2.985900	3.863200	-11.533000	21.283002	0.000893	20.824123
50.010854	-3.000400	3.863700	-11.591000	21.277857	0.000894	20.832726
51.011808	-3.024800	3.862500	-11.682000	21.282301	0.000892	20.829585
52.016160	-2.994500	3.862100	-11.564000	21.298089	0.000893	20.830682
53.016525	-2.989500	3.862300	-11.546000	21.321535	0.000894	20.828059
54.014491	-3.010300	3.861300	-11.622000	21.333205	0.000894	20.822665
55.019231	-3.002200	3.860000	-11.587000	21.301520	0.000894	20.823683
56.012074	-3.023500	3.859300	-11.667000	21.289894	0.000894	20.834810
57.017587	-2.983800	3.859800	-11.516000	21.310416	0.000894	20.821203
58.016342	-3.006700	3.858700	-11.601000	21.323232	0.000895	20.832128
59.015103	-2.983800	3.860800	-11.518000	21.328771	0.000895	20.839566
60.015765	-2.989400	3.860000	-11.539000	21.339593	0.000894	20.821944
61.021067	-3.027300	3.857700	-11.677000	21.348168	0.000894	20.840479
62.017980	-3.000800	3.858300	-11.577000	21.352196	0.000893	20.809423
63.018181	-3.002900	3.858200	-11.585000	21.371005	0.000894	20.821128
64.020045	-2.983400	3.857800	-11.508000	21.375566	0.000893	20.821899
65.022631	-2.993100	3.858100	-11.546000	21.395342	0.000894	20.826986
66.019707	-2.994100	3.857400	-11.548000	21.386802	0.000893	20.824131
67.019014	-3.000800	3.858100	-11.575000	21.397425	0.000894	20.849932
68.022126	-2.983000	3.858100	-11.508000	21.425750	0.000895	20.822797
69.021818	-3.008700	3.856600	-11.602000	21.424126	0.000895	20.831129
70.022875	-2.989600	3.857700	-11.531000	21.423248	0.000893	20.843526
71.026906	-2.985900	3.855600	-11.512000	21.429304	0.000895	20.824457
72.023809	-2.993000	3.856200	-11.540000	21.446661	0.000894	20.823805
73.021683	-3.002700	3.855400	-11.575000	21.431738	0.000893	20.834478
74.028064	-3.026100	3.854900	-11.665000	21.456276	0.000894	20.818727
75.024724	-3.006500	3.856000	-11.593000	21.458118	0.000896	20.821992
76.022775	-3.004500	3.856800	-11.586000	21.455116	0.000895	20.836058
77.026697	-2.996300	3.854800	-11.550000	21.469273	0.000895	20.825567
78.035830	-3.008000	3.853700	-11.591000	21.479274	0.000895	20.836522
79.027399	-3.001900	3.853600	-11.568000	21.488490	0.000894	20.831993
80.023700	-2.986000	3.855400	-11.511000	21.476090	0.000895	20.814371
81.030024	-3.009000	3.852700	-11.592000	21.474338	0.000894	20.808350
82.029628	-3.001800	3.852700	-11.563000	21.487522	0.000896	20.812059
83.029776	-2.982400	3.852600	-11.487000	21.494946	0.000897	20.812375
84.024208	-2.962000	3.854000	-11.415000	21.502972	0.000895	20.819458
85.026803	-2.990100	3.851900	-11.517000	21.494260	0.000894	20.835870
86.031083	-3.008300	3.851000	-11.583000	21.499418	0.000897	20.829652
87.028868	-2.999000	3.851200	-11.548000	21.506062	0.000897	20.805006
88.030087	-2.996800	3.850900	-11.540000	21.537233	0.000896	20.820549
89.032884	-3.005300	3.850600	-11.571000	21.538502	0.000895	20.827983
90.032157	-3.006700	3.850100	-11.575000	21.534149	0.000895	20.811299
91.030939	-3.013700	3.849400	-11.600000	21.557288	0.000896	20.804582
92.035829	-2.992100	3.851900	-11.525000	21.558330	0.000897	20.807520
93.036921	-3.026600	3.849800	-11.651000	21.552757	0.000898	20.821384
94.032526	-3.009300	3.849600	-11.583000	21.568162	0.000898	20.825894
95.027739	-2.998100	3.850200	-11.543000	21.602495	0.000897	20.801930
96.027528	-3.009400	3.850300	-11.586000	21.602959	0.000896	20.817093
97.030509	-2.992900	3.849200	-11.519000	21.597491	0.000897	20.832009
98.032835	-2.999700	3.848600	-11.543000	21.590122	0.000897	20.811359
99.029068	-2.999800	3.848700	-11.545000	21.605852	0.000899	20.836583
100.029719	-3.008300	3.847800	-11.574000	21.614672	0.000898	20.843038
101.030225	-3.008100	3.847200	-11.571000	21.638931	0.000899	20.829382
102.030706	-2.994200	3.848100	-11.520000	21.627871	0.000899	20.813573
103.032606	-3.003100	3.847100	-11.551000	21.635146	0.000898	20.830810
104.029467	-3.002600	3.847300	-11.550000	21.650150	0.000897	20.802203
105.032962	-3.017400	3.846400	-11.604000	21.665953	0.000898	20.813751
106.029680	-3.009200	3.846700	-11.575000	21.666467	0.000898	20.819481
107.030938	-3.008300	3.845700	-11.568000	21.666956	0.000896	20.829453
108.036189	-3.016600	3.846300	-11.601000	21.663778	0.000898	20.809203
109.036035	-3.000200	3.846600	-11.540000	21.697185	0.000898	20.828886
110.036435	-2.987300	3.845100	-11.485000	21.704934	0.000900	20.825735
111.037783	-2.963700	3.845500	-11.395000	21.734728	0.000898	20.822836
112.035487	-2.973100	3.844900	-11.430000	21.731822	0.000900	20.825143
113.037097	-2.987400	3.845400	-11.486000	21.731393	0.000898	20.813334
114.035174	-2.989100	3.845000	-11.493000	21.728091	0.000899	20.825677
115.032900	-2.989000	3.844800	-11.491000	21.740425	0.000897	20.802459
116.033166	-2.997300	3.843300	-11.518000	21.744432	0.000897	20.827333
117.040902	-2.978500	3.846700	-11.455000	21.723306	0.000898	20.826577
118.032927	-2.991300	3.845000	-11.500000	21.750829	0.000900	20.827570
119.042748	-2.985200	3.843900	-11.474000	21.743491	0.000898	20.816433
120.038520	-3.017200	3.843200	-11.593000	21.734702	0.000899	20.823759
121.036970	-3.004000	3.843200	-11.543000	21.761006	0.000898	20.809781
122.039230	-3.004700	3.842400	-11.544000	21.751847	0.000898	20.816262
123.039830	-3.006200	3.842800	-11.552000	21.763563	0.000897	20.812815
124.045123	-3.016300	3.843600	-11.593000	21.751389	0.000899	20.817700
125.035916	-3.010200	3.843000	-11.567000	21.751083	0.000900	20.830670
126.037885	-3.030000	3.841000	-11.636000	21.784666	0.000901	20.823504
127.035434	-3.010900	3.841300	-11.565000	21.778004	0.000899	20.817311
128.039875	-2.995200	3.842100	-11.506000	21.779293	0.000898	20.831402
129.041154	-2.988800	3.842500	-11.484000	21.780038	0.000899	20.815553
130.042064	-2.978200	3.842000	-11.441000	21.783053	0.000900	20.817148
131.039973	-2.998600	3.841500	-11.519000	21.821220	0.000898	20.833062
132.044376	-3.006400	3.841200	-11.547000	21.833112	0.000900	20.811775
133.043157	-2.994400	3.840800	-11.499000	21.797079	0.000900	20.819332
134.041186	-2.997700	3.840500	-11.512000	21.822809	0.000899	20.801463
135.043092	-3.013800	3.840600	-11.573000	21.829066	0.000900	20.806778
136.043304	-3.009400	3.840600	-11.557000	21.832950	0.000900	20.827734
137.044512	-3.002200	3.840800	-11.528000	21.839780	0.000900	20.825087
138.037783	-3.003800	3.839800	-11.532000	21.866057	0.000902	20.817723
139.038974	-2.977200	3.841100	-11.435000	21.856488	0.000901	20.814784
140.046171	-2.997700	3.840500	-11.511000	21.866757	0.000901	20.792346
141.041507	-3.008000	3.839800	-11.547000	21.861394	0.000902	20.809737
142.041638	-3.009000	3.839500	-11.551000	21.864858	0.000900	20.809411
143.042690	-2.978800	3.840000	-11.438000	21.876454	0.000902	20.821966
144.043694	-3.009000	3.838400	-11.548000	21.889639	0.000902	20.802447
145.043280	-3.011900	3.837800	-11.559000	21.916739	0.000901	20.802546
146.043651	-2.995400	3.838300	-11.496000	21.927115	0.000901	20.813881
147.041173	-2.995700	3.839000	-11.499000	21.926365	0.000902	20.805544
148.041750	-2.994000	3.837000	-11.487000	21.929602	0.000906	20.816845
149.051807	-3.002900	3.837400	-11.522000	21.950745	0.000903	20.804344
150.044475	-3.021600	3.836000	-11.590000	21.959321	0.000903	20.802971
151.046793	-3.017000	3.837500	-11.577000	21.944439	0.000903	20.789971
152.044853	-3.008300	3.836800	-11.541000	21.977823	0.000903	20.806793
153.044253	-2.984400	3.836900	-11.448000	21.957974	0.000905	20.797829
154.044336	-2.998300	3.836900	-11.503000	21.985727	0.000904	20.795265
155.044343	-3.002600	3.836600	-11.518000	21.981785	0.000905	20.800328
156.044751	-3.006900	3.834200	-11.527000	22.005868	0.000905	20.777494
157.041961	-2.982100	3.836900	-11.441000	21.997544	0.000907	20.808517
158.049049	-2.993000	3.836400	-11.482000	22.002853	0.000907	20.805297
159.045432	-2.960200	3.838000	-11.359000	22.012524	0.000905	20.797434
160.043289	-2.991900	3.835500	-11.473000	22.020951	0.000906	20.794964
161.051729	-2.993700	3.834800	-11.479000	22.018958	0.000907	20.806245
162.048687	-2.990100	3.835300	-11.467000	22.014196	0.000906	20.801479
163.046637	-2.986600	3.835200	-11.453000	21.999217	0.000905	20.786009
164.044969	-2.979300	3.834500	-11.423000	22.016865	0.000906	20.795142
165.046667	-2.997100	3.834900	-11.492000	22.020181	0.000907	20.795142
166.048427	-3.011400	3.833000	-11.542000	22.040700	0.000907	20.801933
167.052451	-2.990600	3.832600	-11.461000	22.030424	0.000906	20.805395
168.042508	-3.002700	3.834100	-11.510000	22.061639	0.000907	20.800609
169.048034	-3.001800	3.833100	-11.506000	22.063608	0.000908	20.780769
170.049611	-3.007000	3.832600	-11.523000	22.062438	0.000910	20.776279
171.049625	-2.979400	3.833200	-11.419000	22.064387	0.000912	20.782971
172.051619	-2.996900	3.832000	-11.483000	22.085054	0.000911	20.776160
173.050589	-3.028600	3.830900	-11.601000	22.068926	0.000912	20.785618
174.055161	-2.986700	3.832300	-11.445000	22.083431	0.000912	20.781647
175.046474	-3.019800	3.830200	-11.566000	22.075936	0.000911	20.780308
176.049973	-3.034100	3.830500	-11.622000	22.096474	0.000912	20.797077
177.051392	-2.997700	3.830800	-11.483000	22.073745	0.000913	20.779538
178.049187	-3.010100	3.831200	-11.531000	22.080800	0.000913	20.780436
179.045959	-3.004700	3.830300	-11.508000	22.104935	0.000913	20.755760
180.052014	-3.016000	3.830000	-11.550000	22.110371	0.000916	20.790601
181.054686	-3.009800	3.830800	-11.528000	22.117105	0.000915	20.778376
182.049748	-3.011400	3.829500	-11.531000	22.118600	0.000916	20.786511
183.055333	-3.005800	3.829800	-11.510000	22.159157	0.000917	20.781596
184.050066	-2.982800	3.831300	-11.426000	22.151386	0.000918	20.774291
185.049807	-2.993600	3.828200	-11.459000	22.159990	0.000917	20.765835
186.053707	-3.004900	3.828000	-11.501000	22.160888	0.000918	20.781432
187.055946	-2.992200	3.829300	-11.457000	22.209469	0.000919	20.774122
188.051452	-2.970300	3.830200	-11.374000	22.171691	0.000920	20.760954
189.049041	-2.998600	3.828000	-11.478000	22.181064	0.000919	20.774132
190.047341	-3.007600	3.827300	-11.510000	22.200308	0.000919	20.762105
191.049689	-3.014100	3.827700	-11.537000	22.214495	0.000920	20.777732
192.056006	-3.017500	3.827000	-11.546000	22.221450	0.000922	20.761936
193.055271	-3.000200	3.827600	-11.483000	22.247180	0.000923	20.779638
194.049520	-3.007900	3.826400	-11.507000	22.245063	0.000922	20.777993
195.057301	-2.990300	3.828600	-11.448000	22.261362	0.000924	20.771078
196.047391	-2.982000	3.827300	-11.412000	22.284047	0.000924	20.779568
197.053178	-2.995900	3.825300	-11.459000	22.275750	0.000924	20.782640
198.052745	-2.999000	3.826900	-11.476000	22.291904	0.000924	20.781272
199.049055	-3.007300	3.825000	-11.501000	22.285847	0.000924	20.761456
200.053266	-2.992800	3.826000	-11.449000	22.290933	0.000927	20.767971
201.056348	-2.988100	3.825900	-11.431000	22.286972	0.000927	20.767798
202.052332	-3.005900	3.824700	-11.494000	22.301577	0.000928	20.761559
203.051860	-2.995700	3.825900	-11.460000	22.288220	0.000928	20.767151
204.053095	-3.003900	3.825400	-11.490000	22.306115	0.000929	20.764207
205.052558	-3.013600	3.824400	-11.524000	22.316434	0.000930	20.757470
206.048161	-3.015500	3.823200	-11.529000	22.323063	0.000931	20.761737
207.053625	-2.981100	3.825500	-11.403000	22.334951	0.000931	20.771744
208.052680	-3.007400	3.823800	-11.498000	22.336993	0.000931	20.767151
209.049026	-3.002900	3.823400	-11.481000	22.359441	0.000933	20.771611
210.054922	-3.015100	3.823200	-11.526000	22.370060	0.000932	20.767072
211.056849	-2.992300	3.824300	-11.443000	22.391116	0.000931	20.767294
212.054123	-2.987900	3.823000	-11.422000	22.383136	0.000934	20.761674
213.059597	-2.999200	3.823000	-11.464000	22.377434	0.000932	20.761654
214.057850	-2.991400	3.823200	-11.436000	22.389938	0.000933	20.760424
215.052538	-3.003200	3.821400	-11.474000	22.415176	0.000934	20.773844
216.059435	-2.989800	3.823200	-11.430000	22.415975	0.000934	20.784128
217.057488	-3.000100	3.822700	-11.468000	22.437174	0.000934	20.775485
218.051812	-2.974500	3.823000	-11.371000	22.440488	0.000935	20.762682
219.057577	-3.019000	3.821500	-11.536000	22.444596	0.000936	20.777703
220.057861	-3.016800	3.821200	-11.527000	22.450998	0.000935	20.766096
221.053814	-2.992400	3.822300	-11.435000	22.468393	0.000937	20.767869
222.055766	-3.004700	3.820700	-11.479000	22.484387	0.000935	20.767291
223.060629	-2.997500	3.821200	-11.452000	22.461632	0.000936	20.810884
224.057938	-2.999000	3.821600	-11.460000	22.454954	0.000937	20.784756
225.058218	-3.016800	3.819200	-11.520000	22.442841	0.000938	20.775471
226.062650	-3.028500	3.819200	-11.565000	22.445085	0.000937	20.781511
227.056527	-2.995100	3.819700	-11.440000	22.471294	0.000939	20.775516
228.065861	-2.999000	3.818200	-11.450000	22.469627	0.000941	20.780484
229.063392	-3.003500	3.818200	-11.466000	22.454817	0.000941	20.768023
230.058875	-2.987200	3.819700	-11.410000	22.467250	0.000940	20.775733
231.065351	-3.007100	3.819100	-11.484000	22.468799	0.000941	20.758792
232.063397	-2.995100	3.819600	-11.439000	22.477539	0.000942	20.758535
233.060750	-3.005200	3.819000	-11.475000	22.484443	0.000941	20.763553
234.063795	-3.018200	3.817700	-11.522000	22.481692	0.000941	20.788774
235.062570	-3.020500	3.819100	-11.534000	22.526423	0.000944	20.776198
236.065005	-3.012000	3.817700	-11.497000	22.527986	0.000944	20.791041
237.062155	-3.012600	3.817200	-11.497000	22.523799	0.000943	20.783528
238.061954	-3.025500	3.817900	-11.550000	22.524495	0.000943	20.785648
239.061756	-2.996800	3.818100	-11.440000	22.518932	0.000945	20.778180
240.068954	-3.000000	3.816900	-11.449000	22.517813	0.000944	20.780378
241.060290	-3.011800	3.817000	-11.494000	22.552566	0.000945	20.763027
242.062191	-2.978300	3.817600	-11.369000	22.547309	0.000946	20.763452
243.069122	-3.000100	3.817900	-11.452000	22.555826	0.000945	20.779569
244.067650	-3.003900	3.818100	-11.468000	22.569284	0.000945	20.786883
245.060546	-2.987400	3.815500	-11.397000	22.594972	0.000947	20.801231
246.067185	-3.000600	3.815400	-11.447000	22.586027	0.000946	20.785634
247.067636	-3.002300	3.815700	-11.455000	22.599805	0.000947	20.779045
248.061369	-2.993400	3.815500	-11.420000	22.613780	0.000947	20.783560
249.067681	-3.009200	3.814300	-11.477000	22.607276	0.000948	20.780838
250.067233	-2.996200	3.814500	-11.427000	22.633486	0.000948	20.790020
251.063939	-2.983600	3.814300	-11.379000	22.623564	0.000951	20.785299
252.064466	-3.002500	3.814000	-11.450000	22.609244	0.000951	20.790396
253.067819	-2.983200	3.814800	-11.379000	22.611310	0.000950	20.785353
254.064647	-2.991400	3.814700	-11.411000	22.655607	0.000952	20.789892
255.072857	-2.995200	3.813400	-11.421000	22.633102	0.000951	20.792007
256.070090	-3.003400	3.813100	-11.451000	22.631933	0.000952	20.787043
257.067690	-3.000800	3.813900	-11.443000	22.640183	0.000951	20.787719
258.070734	-2.976100	3.813100	-11.346000	22.636692	0.000951	20.794654
259.070542	-2.980400	3.813000	-11.363000	22.643393	0.000952	20.809901
260.068311	-3.012700	3.811900	-11.482000	22.657821	0.000951	20.802067
261.067496	-2.996800	3.812400	-11.424000	22.679148	0.000955	20.792609
262.070160	-3.002500	3.811400	-11.442000	22.696337	0.000954	20.795128
263.068249	-3.010900	3.811000	-11.474000	22.670504	0.000954	20.774467
264.072312	-2.996500	3.810700	-11.418000	22.679099	0.000954	20.808206
265.068870	-3.025500	3.810200	-11.527000	22.655578	0.000955	20.811674
266.069623	-2.994800	3.810100	-11.408000	22.672422	0.000956	20.819062
267.070534	-3.005600	3.811400	-11.455000	22.697309	0.000957	20.821231
268.071791	-2.987900	3.810800	-11.385000	22.703388	0.000956	20.792234
269.070771	-3.003400	3.810200	-11.443000	22.703837	0.000956	20.812597
270.071252	-2.978400	3.811100	-11.350000	22.738619	0.000957	20.787694
271.071086	-2.984500	3.810900	-11.372000	22.743451	0.000957	20.804389
272.067682	-3.006100	3.808200	-11.447000	22.758080	0.000960	20.789645
273.072090	-2.993100	3.808500	-11.397000	22.753095	0.000956	20.827799
274.071351	-3.005300	3.808600	-11.445000	22.761364	0.000958	20.804789
275.072459	-3.013800	3.808100	-11.476000	22.761842	0.000960	20.815699
276.073675	-2.999700	3.809500	-11.425000	22.779256	0.000959	20.794737
277.074578	-2.986800	3.808200	-11.374000	22.774099	0.000962	20.795735
278.071104	-3.029800	3.806700	-11.532000	22.770761	0.000962	20.811357
279.071998	-2.974600	3.808100	-11.326000	22.773852	0.000963	20.786005
280.074686	-3.017300	3.806700	-11.485000	22.775124	0.000962	20.801503
281.070600	-2.996500	3.807800	-11.408000	22.758932	0.000964	20.802353
282.072258	-3.009100	3.806700	-11.453000	22.769272	0.000962	20.807968
283.069723	-2.994900	3.807500	-11.402000	22.780360	0.000965	20.805326
284.071770	-3.004700	3.806100	-11.434000	22.806941	0.000965	20.808245
285.072111	-3.014900	3.806700	-11.475000	22.802331	0.000965	20.797937
286.074429	-3.008200	3.805900	-11.448000	22.796651	0.000965	20.794618
287.072773	-3.007800	3.805900	-11.446000	22.822836	0.000967	20.794297
288.077592	-3.015200	3.805500	-11.473000	22.820050	0.000965	20.802411
289.073878	-2.999600	3.805200	-11.413000	22.824828	0.000965	20.789654
290.070751	-3.007500	3.805500	-11.443000	22.800117	0.000969	20.794297
291.076882	-3.003200	3.804400	-11.424000	22.784279	0.000967	20.803088
292.073462	-3.016100	3.803800	-11.471000	22.774586	0.000968	20.792904
293.073151	-3.002800	3.805600	-11.425000	22.801916	0.000971	20.810798
294.074896	-3.003900	3.804400	-11.426000	22.820005	0.000970	20.803315
295.076299	-3.020100	3.803200	-11.485000	22.798484	0.000968	20.811627
296.075491	-3.010900	3.804200	-11.454000	22.815001	0.000970	20.811104
297.078860	-2.996800	3.805200	-11.402000	22.809050	0.000968	20.800875
298.074996	-2.999300	3.803900	-11.408000	22.823200	0.000969	20.813153
299.072235	-2.997600	3.803900	-11.401000	22.822780	0.000970	20.832647
300.071461	-3.004500	3.802800	-11.425000	22.836930	0.000970	20.796562
301.075613	-3.005100	3.802100	-11.425000	22.854689	0.000972	20.797758
302.074001	-2.997100	3.802800	-11.397000	22.840717	0.000973	20.798459
303.076646	-2.986600	3.804200	-11.361000	22.856764	0.000972	20.806475
304.074821	-3.005400	3.802200	-11.426000	22.856316	0.000974	20.811241
305.074576	-3.007300	3.801200	-11.431000	22.860333	0.000973	20.812895
306.079113	-3.006000	3.800200	-11.423000	22.869597	0.000973	20.801787
307.077884	-2.974200	3.803200	-11.310000	22.886340	0.000974	20.826146
308.075475	-3.012800	3.800100	-11.447000	22.883455	0.000975	20.802394
309.082561	-2.953500	3.802400	-11.228000	22.929392	0.000975	20.834665
310.077290	-3.002500	3.800200	-11.408000	22.936915	0.000976	20.800003
311.082545	-2.997900	3.800000	-11.391000	22.942397	0.000975	20.830625
312.077064	-2.997400	3.799800	-11.389000	22.970221	0.000975	20.822466
313.079391	-2.993500	3.799700	-11.373000	22.952636	0.000977	20.818850
314.081438	-3.003500	3.800300	-11.414000	22.941583	0.000977	20.808947
315.083624	-2.986200	3.799700	-11.346000	22.953489	0.000977	20.821349
316.081016	-2.996800	3.799400	-11.386000	22.969905	0.000976	20.809347
317.080626	-3.001600	3.799100	-11.402000	22.972769	0.000979	20.805105
318.082651	-2.994000	3.798400	-11.371000	22.999398	0.000977	20.833207
319.078114	-2.979100	3.798500	-11.315000	23.003366	0.000979	20.837657
320.081053	-3.002600	3.797500	-11.402000	23.019757	0.000979	20.804294
321.079831	-2.992200	3.798200	-11.364000	23.015626	0.000979	20.807741
322.082810	-2.995400	3.797500	-11.374000	23.030675	0.000983	20.810018
323.079607	-2.988600	3.797500	-11.348000	23.028407	0.000980	20.815806
324.085449	-3.010400	3.795700	-11.426000	23.042683	0.000981	20.831058
325.083654	-3.003600	3.796500	-11.402000	23.063435	0.000983	20.820557
326.083326	-2.996800	3.796900	-11.378000	23.070434	0.000983	20.824251
327.081389	-3.021900	3.795200	-11.468000	23.081273	0.000985	20.813301
328.080476	-2.995400	3.796200	-11.369000	23.089865	0.000983	20.816220
329.088530	-3.001900	3.794600	-11.390000	23.109019	0.000983	20.824034
330.080459	-2.997300	3.794400	-11.371000	23.087582	0.000982	20.810140
331.083131	-3.006400	3.795600	-11.409000	23.110000	0.000983	20.826438
332.082649	-2.994200	3.795500	-11.362000	23.091274	0.000985	20.843236
333.085487	-2.974300	3.795200	-11.288000	23.102064	0.000986	20.813745
334.083819	-2.970400	3.795500	-11.273000	23.117827	0.000985	20.816264
335.080882	-2.986100	3.793500	-11.327000	23.108047	0.000986	20.823059
336.081554	-3.003300	3.794600	-11.395000	23.132086	0.000985	20.817750
337.079570	-2.993800	3.792800	-11.354000	23.127004	0.000985	20.819770
338.086407	-2.987300	3.792900	-11.329000	23.151067	0.000988	20.820175
339.080157	-2.988200	3.794700	-11.338000	23.180881	0.000989	20.833929
340.078403	-3.021700	3.791500	-11.456000	23.192887	0.000988	20.831262
341.085260	-3.025700	3.791400	-11.470000	23.173966	0.000988	20.827474
342.081465	-2.980100	3.793700	-11.304000	23.164704	0.000988	20.841426
343.086328	-2.994100	3.792300	-11.352000	23.163713	0.000989	20.834269
344.085745	-3.012400	3.791400	-11.420000	23.180826	0.000990	20.813012
345.085690	-2.994800	3.791800	-11.354000	23.160509	0.000991	20.832007
346.083304	-3.006600	3.790000	-11.394000	23.163649	0.000991	20.808127
347.086232	-3.037200	3.789300	-11.507000	23.157552	0.000991	20.842319
348.082611	-3.009200	3.789800	-11.403000	23.165403	0.000992	20.831695
349.087568	-3.007400	3.790100	-11.397000	23.203157	0.000994	20.842976
350.088126	-3.004500	3.789900	-11.385000	23.220373	0.000993	20.834150
351.086640	-3.018500	3.789100	-11.436000	23.214596	0.000993	20.831206
352.087719	-3.001700	3.788700	-11.372000	23.221772	0.000995	20.833181
353.086633	-3.028200	3.787500	-11.468000	23.237864	0.000996	20.834609
354.089108	-2.980200	3.788900	-11.291000	23.231565	0.000994	20.845366
355.085105	-2.987100	3.789100	-11.318000	23.228406	0.000996	20.854053
356.091407	-2.999200	3.787000	-11.356000	23.251446	0.000996	20.832099
357.086791	-3.019600	3.787100	-11.435000	23.217158	0.000995	20.847523
358.094479	-2.999600	3.787400	-11.360000	23.207227	0.000997	20.829037
359.091815	-3.001700	3.788700	-11.372000	23.217370	0.000996	20.834934
360.089544	-2.999200	3.788000	-11.359000	23.226182	0.000997	20.821006
361.091515	-3.022000	3.785300	-11.438000	23.207335	0.000997	20.836731
362.087056	-2.995400	3.786300	-11.340000	23.198399	0.000996	20.839156
363.090182	-3.041600	3.784700	-11.510000	23.217178	0.000998	20.851810
364.087598	-3.016300	3.785500	-11.416000	23.223156	0.000997	20.841206
365.091136	-2.974000	3.785700	-11.258000	23.247641	0.000997	20.847725
366.091930	-3.005900	3.784100	-11.374000	23.241317	0.000998	20.828113
367.092094	-3.005600	3.784300	-11.373000	23.263806	0.001000	20.833580
368.091730	-2.997300	3.785000	-11.344000	23.263017	0.001000	20.842272
369.094949	-3.015200	3.783900	-11.407000	23.296209	0.000999	20.850881
370.093655	-3.011300	3.783500	-11.392000	23.320816	0.001002	20.847567
371.093397	-3.008000	3.785000	-11.384000	23.317878	0.000999	20.838933
372.093611	-3.024600	3.783100	-11.441000	23.350305	0.001003	20.846302
373.089430	-2.998600	3.784800	-11.348000	23.339877	0.001002	20.836800
374.094296	-3.010800	3.782000	-11.385000	23.334525	0.001002	20.845186
375.094511	-3.012000	3.782100	-11.389000	23.325044	0.001000	20.838054
376.095841	-3.003300	3.781800	-11.356000	23.300866	0.001001	20.831367
377.090334	-3.018500	3.781600	-11.412000	23.296361	0.001003	20.842973
378.094332	-2.988600	3.781700	-11.301000	23.309042	0.001004	20.836241
379.097834	-2.996500	3.782000	-11.332000	23.309490	0.001004	20.842380
380.096983	-2.995900	3.781600	-11.328000	23.331928	0.001003	20.836419
381.095514	-3.010000	3.780600	-11.378000	23.359875	0.001003	20.873910
382.090294	-2.997800	3.781100	-11.334000	23.371283	0.001002	20.858318
383.095198	-2.979900	3.782200	-11.270000	23.372254	0.001003	20.850282
384.095968	-2.989800	3.781300	-11.303000	23.373357	0.001004	20.849018
385.094678	-3.001000	3.779900	-11.342000	23.404501	0.001004	20.832344
386.094263	-3.001500	3.778700	-11.341000	23.408670	0.001003	20.845057
387.094602	-2.991800	3.779200	-11.306000	23.394626	0.001006	20.853265
388.096154	-3.007300	3.778200	-11.361000	23.428445	0.001005	20.845911
389.098654	-3.001800	3.778500	-11.341000	23.423044	0.001006	20.862782
390.098503	-2.987200	3.779000	-11.288000	23.422251	0.001004	20.831168
391.096941	-2.983400	3.777900	-11.269000	23.419664	0.001006	20.862713
392.096482	-3.001700	3.778000	-11.338000	23.422876	0.001006	20.863088
393.099561	-2.992300	3.777900	-11.302000	23.419890	0.001006	20.848716
394.100334	-3.015100	3.777000	-11.386000	23.424453	0.001007	20.875573
395.101815	-3.009900	3.777200	-11.368000	23.420999	0.001006	20.868318
396.102845	-3.019100	3.777300	-11.402000	23.419979	0.001011	20.847857
397.100937	-3.011400	3.774700	-11.366000	23.427449	0.001008	20.868145
398.097463	-2.978700	3.777200	-11.251000	23.409379	0.001010	20.844345
399.103019	-3.015200	3.775700	-11.383000	23.428878	0.001009	20.861043
400.109232	-2.987100	3.776100	-11.279000	23.422709	0.001009	20.870032
401.099570	-2.996100	3.775400	-11.310000	23.432766	0.001010	20.873000
402.102947	-2.971500	3.774500	-11.215000	23.457123	0.001011	20.865646
403.103907	-3.014900	3.775100	-11.380000	23.438078	0.001009	20.856040
404.099731	-2.987100	3.775100	-11.276000	23.423970	0.001010	20.852805
405.104327	-2.983000	3.775000	-11.260000	23.452974	0.001013	20.857221
406.103652	-2.992100	3.775300	-11.295000	23.480213	0.001012	20.852756
407.100420	-2.998700	3.774600	-11.317000	23.476902	0.001010	20.876462
408.108514	-3.004600	3.773200	-11.335000	23.461795	0.001011	20.859898
409.105444	-3.003200	3.772200	-11.327000	23.482485	0.001010	20.866886
410.107922	-3.002100	3.772200	-11.324000	23.457793	0.001013	20.881016
411.109613	-3.000600	3.773300	-11.321000	23.469619	0.001012	20.855413
412.107514	-2.990500	3.773100	-11.282000	23.483889	0.001011	20.868294
413.104659	-3.015500	3.772900	-11.376000	23.476469	0.001014	20.865123
414.107437	-2.990100	3.772000	-11.277000	23.487348	0.001013	20.874131
415.111714	-2.990200	3.771000	-11.275000	23.497385	0.001013	20.880399
416.107501	-2.980100	3.772000	-11.239000	23.471965	0.001015	20.871514
417.112095	-3.003800	3.770200	-11.324000	23.490093	0.001013	20.861236
418.105884	-3.003000	3.770600	-11.323000	23.501002	0.001012	20.889239
419.105781	-2.982900	3.770600	-11.246000	23.503939	0.001013	20.864683
420.111193	-2.983000	3.770000	-11.244000	23.500105	0.001015	20.881228
421.109663	-2.992000	3.769100	-11.276000	23.517888	0.001014	20.890992
422.112335	-2.990400	3.769700	-11.271000	23.523840	0.001014	20.870407
423.112671	-2.996800	3.769500	-11.295000	23.550752	0.001015	20.875099
424.113015	-2.986900	3.769100	-11.256000	23.523343	0.001014	20.883658
425.109081	-3.010000	3.768400	-11.342000	23.565967	0.001016	20.895565
426.115007	-2.990400	3.767900	-11.266000	23.580783	0.001015	20.874383
427.111354	-3.015700	3.768400	-11.364000	23.562188	0.001018	20.885614
428.111869	-2.984700	3.768600	-11.248000	23.618996	0.001015	20.881870
429.112362	-3.007100	3.767100	-11.327000	23.605107	0.001016	20.889758
430.116644	-2.980300	3.767100	-11.226000	23.608669	0.001014	20.886217
431.112590	-2.995500	3.766200	-11.281000	23.634190	0.001016	20.879559
432.113437	-3.003600	3.766600	-11.312000	23.609270	0.001016	20.850786
433.112782	-2.984900	3.767000	-11.242000	23.592667	0.001018	20.866383
434.111786	-2.979200	3.767100	-11.222000	23.597870	0.001018	20.852633
435.124605	-3.008100	3.765800	-11.327000	23.569771	0.001019	20.860026
436.115317	-3.001500	3.765200	-11.301000	23.577911	0.001017	20.867237
437.121354	-2.994900	3.766100	-11.279000	23.582769	0.001017	20.866891
438.116230	-3.015900	3.764400	-11.352000	23.604900	0.001018	20.855414
439.115454	-2.999800	3.764200	-11.291000	23.631392	0.001017	20.849255
440.116826	-2.999700	3.764900	-11.292000	23.616878	0.001018	20.841343
441.117150	-2.996800	3.764000	-11.278000	23.628806	0.001019	20.856619
442.119619	-2.990900	3.762700	-11.253000	23.634481	0.001017	20.835757
443.122571	-3.005200	3.763100	-11.308000	23.641280	0.001018	20.852055
444.119471	-2.987700	3.763500	-11.244000	23.640157	0.001021	20.853300
445.120738	-2.981500	3.762900	-11.218000	23.673545	0.001020	20.854056
446.118864	-3.010700	3.761700	-11.324000	23.671205	0.001021	20.858347
447.121534	-3.017300	3.760600	-11.346000	23.684556	0.001019	20.845181
448.119139	-3.011300	3.760500	-11.322000	23.708966	0.001021	20.852584
449.123813	-3.002100	3.760200	-11.288000	23.715991	0.001020	20.861997
450.117165	-2.993300	3.762200	-11.260000	23.684181	0.001020	20.844805
451.122310	-3.018200	3.761500	-11.352000	23.688689	0.001019	20.843161
452.119938	-3.006500	3.761500	-11.308000	23.705942	0.001019	20.844336
453.120134	-2.982200	3.762000	-11.218000	23.715750	0.001021	20.831411
454.123759	-2.973800	3.761700	-11.186000	23.726677	0.001021	20.840469
455.120891	-3.011000	3.759000	-11.318000	23.728623	0.001019	20.852377
456.120645	-2.976400	3.760800	-11.192000	23.730012	0.001021	20.840968
457.121084	-2.996500	3.759700	-11.265000	23.722598	0.001020	20.866250
458.123204	-3.012600	3.758900	-11.323000	23.697986	0.001022	20.831144
459.123617	-2.991000	3.759100	-11.242000	23.708814	0.001021	20.837733
460.127162	-3.022800	3.758500	-11.361000	23.709612	0.001021	20.849912
461.123297	-2.999600	3.759400	-11.275000	23.731796	0.001020	20.839437
462.119833	-2.996800	3.757300	-11.260000	23.696222	0.001022	20.840281
463.125295	-2.986000	3.757700	-11.220000	23.696897	0.001021	20.849967
464.125332	-2.988700	3.756400	-11.226000	23.653331	0.001023	20.835688
465.120956	-2.980100	3.758200	-11.200000	23.697651	0.001022	20.842662
466.128691	-2.990500	3.758100	-11.238000	23.685049	0.001024	20.830028
467.121527	-2.985700	3.756100	-11.211000	23.693340	0.001022	20.854461
468.124362	-3.004400	3.754900	-11.281000	23.679580	0.001020	20.823598
469.124779	-2.966800	3.756000	-11.142000	23.669427	0.001022	20.834755
470.124536	-2.990900	3.755000	-11.229000	23.682098	0.001021	20.835605
471.124506	-2.990200	3.755700	-11.230000	23.656593	0.001023	20.847493
472.128469	-3.004300	3.755200	-11.280000	23.661717	0.001021	20.829871
473.128502	-2.996200	3.754200	-11.247000	23.685764	0.001022	20.821736
474.124736	-2.998200	3.752700	-11.250000	23.697592	0.001024	20.831224
475.123792	-2.984300	3.753200	-11.199000	23.700908	0.001022	20.834074
476.124313	-2.986700	3.752700	-11.207000	23.733786	0.001022	20.831002
477.124766	-2.990200	3.753800	-11.224000	23.746807	0.001023	20.834573
478.126873	-2.994300	3.751400	-11.232000	23.753132	0.001023	20.822897
479.126832	-2.987700	3.752400	-11.209000	23.779319	0.001023	20.815963
480.127567	-2.990600	3.752800	-11.223000	23.756896	0.001022	20.816239
481.132040	-3.005600	3.751800	-11.275000	23.774664	0.001024	20.824571
482.131746	-2.998200	3.750600	-11.243000	23.755723	0.001024	20.837823
483.129078	-3.002100	3.750800	-11.259000	23.759615	0.001025	20.830345
484.128787	-2.982100	3.752300	-11.189000	23.764891	0.001025	20.825204
485.128864	-2.998100	3.750700	-11.244000	23.802723	0.001024	20.841799
486.125067	-2.998300	3.749800	-11.241000	23.812433	0.001024	20.803171
487.129642	-2.983300	3.749100	-11.183000	23.813703	0.001022	20.811558
488.139458	-3.007300	3.749600	-11.275000	23.813531	0.001024	20.809962
489.132066	-2.990800	3.749300	-11.213000	23.809305	0.001023	20.826113
490.135522	-3.008500	3.747500	-11.273000	23.784665	0.001025	20.807572
491.137130	-3.009700	3.747200	-11.277000	23.780384	0.001024	20.804228
492.130925	-2.997600	3.748800	-11.236000	23.748901	0.001025	20.813914
493.133501	-2.996100	3.746900	-11.225000	23.774960	0.001026	20.816808
494.135443	-3.000400	3.748500	-11.246000	23.766773	0.001027	20.807651
495.128507	-3.014500	3.746700	-11.293000	23.791517	0.001029	20.804959
496.135292	-2.984700	3.748400	-11.187000	23.775143	0.001026	20.815569
497.137627	-2.996000	3.746700	-11.224000	23.813374	0.001027	20.798899
498.132422	-2.994300	3.746000	-11.214000	23.814699	0.001029	20.797857
499.135630	-2.999400	3.745800	-11.234000	23.863253	0.001028	20.815248
500.137170	-3.009700	3.745400	-11.272000	23.886429	0.001027	20.819520
501.130032	-2.985100	3.744500	-11.176000	23.881651	0.001029	20.812833
502.137053	-2.986600	3.746100	-11.186000	23.874632	0.001028	20.815752
503.137013	-2.999800	3.743800	-11.230000	23.912337	0.001029	20.793817
504.133877	-2.989800	3.744300	-11.193000	23.909874	0.001027	20.818848
505.134279	-3.001100	3.744400	-11.236000	23.936334	0.001029	20.814562
506.134795	-3.004800	3.742900	-11.246000	23.942259	0.001029	20.801537
507.133010	-3.013800	3.742200	-11.277000	23.929788	0.001028	20.789031
508.136145	-2.982000	3.742800	-11.160000	23.935364	0.001030	20.799364
509.135390	-3.008800	3.742200	-11.259000	23.944096	0.001028	20.803854
510.133997	-3.026600	3.742400	-11.325000	23.943703	0.001029	20.813416
511.133666	-2.989200	3.743100	-11.188000	23.933172	0.001028	20.807597
512.133943	-3.000500	3.741300	-11.225000	23.919962	0.001030	20.792454
513.133917	-2.983200	3.742100	-11.163000	23.934024	0.001029	20.789960
514.133183	-2.981500	3.741600	-11.155000	23.914564	0.001027	20.800792
515.131066	-2.993700	3.741800	-11.200000	23.904806	0.001029	20.782472
516.129198	-3.009900	3.740100	-11.254000	23.923001	0.001028	20.796450
517.139661	-2.990600	3.740600	-11.185000	23.914446	0.001028	20.784078
518.134240	-2.993400	3.740200	-11.195000	23.905344	0.001027	20.782537
519.133286	-2.995700	3.740300	-11.203000	23.935231	0.001028	20.793067
520.132867	-3.020900	3.737500	-11.289000	23.942496	0.001029	20.792292
521.131704	-3.022600	3.738600	-11.298000	23.926395	0.001030	20.774723
522.130008	-3.016400	3.738200	-11.275000	23.912486	0.001031	20.792070
523.131843	-3.022300	3.738400	-11.297000	23.926819	0.001028	20.792692
524.133334	-3.021100	3.737100	-11.289000	23.940640	0.001028	20.783318
525.131955	-3.008100	3.737800	-11.242000	23.977121	0.001029	20.783392
526.135272	-3.015800	3.736300	-11.267000	23.989464	0.001029	20.784390
527.133904	-3.030900	3.736000	-11.323000	23.979387	0.001028	20.789931
528.137992	-3.004200	3.736900	-11.226000	23.991109	0.001029	20.807850
529.134712	-3.021300	3.735500	-11.285000	23.993079	0.001031	20.792283
530.136621	-2.982500	3.737100	-11.145000	24.021792	0.001029	20.794051
531.131812	-3.010800	3.735700	-11.247000	24.048614	0.001028	20.795819
532.135405	-3.006600	3.735900	-11.232000	24.039931	0.001029	20.795172
533.135978	-3.009900	3.736100	-11.244000	24.060261	0.001028	20.784740
534.131834	-3.012500	3.734000	-11.248000	24.060788	0.001028	20.795226
535.137181	-2.978800	3.737100	-11.130000	24.076188	0.001029	20.795024
536.139747	-2.997700	3.734000	-11.192000	24.084654	0.001029	20.785022
537.134402	-3.025200	3.733200	-11.293000	24.097138	0.001029	20.765300
538.145144	-2.995300	3.733400	-11.182000	24.078852	0.001029	20.777781
539.135644	-2.980200	3.734500	-11.128000	24.032046	0.001030	20.768772
540.138932	-2.979700	3.733000	-11.122000	24.015025	0.001028	20.767350
541.144826	-2.994500	3.733300	-11.179000	24.016064	0.001029	20.801108
542.138050	-3.002300	3.732100	-11.203000	24.009106	0.001027	20.794604
543.143316	-2.988400	3.733000	-11.155000	23.995645	0.001027	20.779683
544.140174	-2.996400	3.730700	-11.177000	24.030283	0.001029	20.793557
545.140272	-2.962800	3.732900	-11.058000	24.043093	0.001027	20.775109
546.140156	-3.010200	3.731800	-11.232000	24.042128	0.001027	20.788366
547.139388	-3.001700	3.730400	-11.196000	24.041808	0.001028	20.773346
548.144068	-2.975500	3.732100	-11.104000	24.042433	0.001029	20.756429
549.139150	-2.990700	3.730600	-11.156000	24.029397	0.001027	20.790772
550.148354	-2.997500	3.730600	-11.182000	24.022798	0.001029	20.793636
551.148011	-2.996000	3.729800	-11.174000	24.017582	0.001028	20.772759
552.143867	-2.999200	3.729400	-11.184000	23.999714	0.001028	20.780918
553.141879	-2.999100	3.729100	-11.182000	24.043616	0.001026	20.791281
554.150828	-3.002800	3.729100	-11.196000	24.007437	0.001028	20.760688
555.143824	-2.992100	3.728900	-11.156000	24.019681	0.001028	20.762535
556.150617	-2.996200	3.729300	-11.172000	24.021818	0.001026	20.755195
557.152324	-3.017100	3.728000	-11.245000	24.059627	0.001029	20.758974
558.147644	-2.991200	3.727500	-11.148000	24.055471	0.001025	20.782307
559.151113	-3.009000	3.727300	-11.214000	24.070526	0.001027	20.775595
560.154231	-3.004800	3.726700	-11.197000	24.100040	0.001025	20.757779
561.150733	-2.997900	3.727200	-11.172000	24.088945	0.001026	20.766566
562.149586	-3.034800	3.725100	-11.304000	24.119374	0.001025	20.774325
563.150379	-3.018000	3.726400	-11.245000	24.113657	0.001026	20.761479
564.145394	-2.991200	3.725400	-11.141000	24.116001	0.001025	20.773787
565.150339	-3.000500	3.725600	-11.177000	24.128509	0.001026	20.766892
566.148694	-2.962500	3.726100	-11.037000	24.131228	0.001026	20.766774
567.148402	-2.992500	3.724800	-11.146000	24.156062	0.001026	20.758965
568.152287	-3.001600	3.723900	-11.176000	24.153871	0.001027	20.787587
569.151878	-2.983500	3.725500	-11.114000	24.172313	0.001026	20.765781
570.147954	-2.983800	3.723600	-11.110000	24.191143	0.001026	20.758590
571.148842	-2.995100	3.724500	-11.154000	24.200288	0.001026	20.763969
572.148304	-3.028600	3.723000	-11.274000	24.194290	0.001025	20.767436
573.145036	-3.022600	3.722000	-11.249000	24.194886	0.001026	20.762344
574.152398	-3.021000	3.721900	-11.241000	24.183718	0.001025	20.768212
575.146720	-2.993900	3.722500	-11.144000	24.189134	0.001027	20.769377
576.150062	-2.984500	3.722300	-11.108000	24.197801	0.001027	20.761001
577.147833	-3.003000	3.722100	-11.177000	24.166527	0.001022	20.746227
578.150458	-3.011900	3.721600	-11.208000	24.139807	0.001025	20.767318
579.147306	-3.011800	3.719900	-11.203000	24.102134	0.001024	20.758457
580.151865	-3.012700	3.720600	-11.208000	24.113584	0.001024	20.754293
581.150244	-3.017500	3.720500	-11.225000	24.098653	0.001025	20.747852
582.163988	-2.997100	3.720700	-11.149000	24.118790	0.001023	20.755247
583.154748	-2.991700	3.720000	-11.128000	24.112264	0.001024	20.765298
584.155745	-3.018700	3.718800	-11.224000	24.110256	0.001023	20.766602
585.150760	-2.998400	3.719400	-11.151000	24.120533	0.001022	20.760315
586.155239	-3.009600	3.719200	-11.193000	24.151587	0.001023	20.748312
587.158887	-3.023700	3.718600	-11.242000	24.144398	0.001024	20.749162
588.154331	-2.992400	3.718700	-11.126000	24.123277	0.001024	20.746470
589.158157	-2.987500	3.718900	-11.109000	24.149081	0.001025	20.753385
590.158061	-2.980000	3.719700	-11.083000	24.139479	0.001023	20.743754
591.157746	-3.013000	3.715900	-11.194000	24.120096	0.001024	20.754660
592.159569	-3.014200	3.716300	-11.200000	24.146895	0.001024	20.757831
593.154596	-2.994200	3.717600	-11.130000	24.151046	0.001024	20.741131
594.155400	-3.029800	3.716900	-11.260000	24.161777	0.001025	20.741462
595.158788	-3.001100	3.716400	-11.152000	24.175259	0.001024	20.741235
596.152408	-3.011400	3.716000	-11.189000	24.178967	0.001022	20.752067
597.155968	-3.017600	3.716800	-11.215000	24.192406	0.001025	20.752744
598.159183	-2.991200	3.715700	-11.113000	24.181607	0.001024	20.753292
599.158429	-3.011400	3.715800	-11.189000	24.193351	0.001023	20.743260
600.156235	-3.003300	3.714800	-11.154000	24.163501	0.001023	20.741769
601.158990	-2.995600	3.715000	-11.127000	24.171611	0.001021	20.738049
602.155662	-3.005300	3.713200	-11.157000	24.197882	0.001022	20.741640
603.156422	-3.017600	3.714400	-11.207000	24.226521	0.001022	20.735278
604.161023	-3.019900	3.714100	-11.216000	24.203934	0.001021	20.728744
605.158231	-3.018700	3.713600	-11.208000	24.252446	0.001023	20.737575
606.157417	-3.011000	3.712600	-11.178000	24.240229	0.001023	20.734804
607.162533	-2.999800	3.712500	-11.135000	24.253244	0.001021	20.745488
608.159513	-2.991900	3.712600	-11.106000	24.233385	0.001023	20.739319
609.155594	-2.981300	3.712500	-11.067000	24.280680	0.001021	20.751198
610.168930	-2.977400	3.712300	-11.051000	24.279715	0.001023	20.747385
611.154169	-3.005800	3.711200	-11.154000	24.267769	0.001024	20.730186
612.157831	-2.998300	3.710800	-11.126000	24.239555	0.001023	20.752146
613.159864	-2.983200	3.711200	-11.071000	24.230549	0.001023	20.738370
614.159054	-2.994900	3.710900	-11.113000	24.246798	0.001023	20.758464
615.158879	-2.998000	3.709600	-11.119000	24.221493	0.001022	20.743512
616.157930	-3.020000	3.709200	-11.201000	24.259733	0.001021	20.751998
617.164103	-2.989200	3.709700	-11.088000	24.252244	0.001021	20.744011
618.156380	-2.999300	3.708300	-11.122000	24.266168	0.001022	20.743280
619.165705	-2.989400	3.709700	-11.089000	24.264258	0.001022	20.749899
620.161953	-2.993000	3.708000	-11.096000	24.278237	0.001020	20.727410
621.160898	-2.974600	3.708900	-11.031000	24.251741	0.001020	20.746826
622.168843	-2.997500	3.708700	-11.116000	24.264056	0.001020	20.751593
623.165316	-2.993600	3.708600	-11.101000	24.286470	0.001020	20.744203
624.163499	-3.008300	3.706900	-11.150000	24.265696	0.001020	20.751341
625.167404	-2.997100	3.706500	-11.108000	24.265696	0.001020	20.737115
626.164943	-3.004000	3.706800	-11.134000	24.285672	0.001020	20.729178
627.164527	-3.000200	3.707400	-11.122000	24.281718	0.001018	20.738489
628.168038	-2.990300	3.705900	-11.081000	24.273958	0.001019	20.735920
629.169024	-2.996900	3.707000	-11.108000	24.273210	0.001018	20.725211
630.167168	-2.997200	3.706000	-11.106000	24.282486	0.001017	20.709385
631.168906	-2.981400	3.706600	-11.050000	24.281497	0.001019	20.739215
632.166526	-2.971300	3.706000	-11.010000	24.293540	0.001017	20.734700
633.165549	-3.003400	3.704200	-11.124000	24.307489	0.001020	20.748693
634.165043	-3.011600	3.705300	-11.158000	24.289527	0.001020	20.736839
635.165655	-3.001000	3.704200	-11.115000	24.281841	0.001016	20.729603
636.163888	-2.983800	3.704500	-11.051000	24.212132	0.001017	20.733648
637.167610	-2.999200	3.703700	-11.107000	24.224048	0.001016	20.740859
638.171669	-2.998000	3.703900	-11.103000	24.220912	0.001018	20.735342
639.164079	-2.999100	3.702500	-11.103000	24.220188	0.001016	20.762592
640.172509	-3.002900	3.701800	-11.114000	24.199590	0.001018	20.723438
641.170823	-3.011500	3.702800	-11.150000	24.172565	0.001017	20.729523
642.168974	-2.984300	3.702800	-11.049000	24.190406	0.001017	20.746470
643.168083	-2.995500	3.702700	-11.090000	24.224590	0.001017	20.735238
644.166159	-3.013100	3.699700	-11.145000	24.225068	0.001017	20.748994
645.164382	-2.998700	3.702600	-11.102000	24.217849	0.001016	20.749340
646.171935	-2.995700	3.701500	-11.087000	24.243823	0.001016	20.742677
647.169396	-2.983800	3.700500	-11.041000	24.268428	0.001015	20.739856
648.165221	-3.023600	3.698500	-11.181000	24.246187	0.001016	20.752160
649.170863	-3.001800	3.701200	-11.108000	24.280502	0.001017	20.745330
650.169031	-3.003300	3.698800	-11.107000	24.288656	0.001015	20.748767
651.167923	-2.977100	3.700400	-11.015000	24.295992	0.001015	20.733840
652.169098	-3.000100	3.698500	-11.095000	24.316746	0.001015	20.730477
653.169479	-2.997600	3.699000	-11.087000	24.340379	0.001014	20.731899
654.171571	-3.001800	3.698800	-11.100000	24.349133	0.001016	20.744475
655.173869	-2.997900	3.698500	-11.086000	24.360354	0.001015	20.731074
656.173501	-2.999700	3.697400	-11.090000	24.376646	0.001014	20.742677
657.171627	-2.993900	3.697500	-11.068000	24.401745	0.001016	20.741778
658.171194	-2.987600	3.698000	-11.047000	24.409731	0.001013	20.750738
659.170647	-3.009400	3.695200	-11.119000	24.421251	0.001016	20.741432
660.175584	-2.994000	3.696300	-11.065000	24.417293	0.001013	20.755480
661.172745	-2.998000	3.696300	-11.081000	24.396920	0.001013	20.737412
662.171533	-3.009400	3.696100	-11.122000	24.418016	0.001014	20.759999
663.176208	-3.002100	3.695100	-11.092000	24.435946	0.001012	20.740528
664.178381	-3.026200	3.694600	-11.180000	24.453704	0.001012	20.758344
665.173440	-2.999000	3.694500	-11.078000	24.466691	0.001014	20.749088
666.174194	-3.022700	3.694100	-11.165000	24.471097	0.001013	20.733119
667.174854	-3.019300	3.693600	-11.151000	24.476616	0.001012	20.750036
668.187993	-2.997700	3.695000	-11.076000	24.480023	0.001013	20.755351
669.175326	-3.011500	3.693100	-11.121000	24.449524	0.001013	20.765531
670.175841	-3.003300	3.693800	-11.093000	24.448062	0.001013	20.748890
671.174624	-2.991000	3.692700	-11.043000	24.442361	0.001013	20.743645
672.171349	-3.000700	3.692000	-11.078000	24.443902	0.001012	20.751829
673.176847	-2.994300	3.692500	-11.055000	24.424372	0.001010	20.754047
674.173826	-3.002600	3.692500	-11.086000	24.452724	0.001012	20.747877
675.177505	-2.998300	3.692800	-11.072000	24.471358	0.001013	20.758986
676.176463	-2.975400	3.692500	-10.986000	24.458346	0.001013	20.756363
677.179965	-2.983400	3.692900	-11.015000	24.414441	0.001012	20.757835
678.182275	-2.990100	3.691800	-11.037000	24.406377	0.001012	20.756857
679.183211	-3.003200	3.690200	-11.081000	24.410434	0.001010	20.774203
680.176144	-3.017900	3.689600	-11.133000	24.415952	0.001011	20.754609
681.178195	-3.014200	3.690300	-11.123000	24.414879	0.001010	20.744049
682.187547	-3.006000	3.690700	-11.093000	24.423883	0.001011	20.741702
683.181289	-2.996300	3.690500	-11.056000	24.430599	0.001010	20.766458
684.179068	-3.010200	3.688100	-11.101000	24.445526	0.001013	20.738759
685.177891	-3.004900	3.690200	-11.087000	24.454175	0.001010	20.751230
686.183029	-2.985600	3.689300	-11.013000	24.439652	0.001010	20.788344
687.178391	-2.963100	3.690300	-10.933000	24.464253	0.001009	20.767031
688.189386	-2.994800	3.689100	-11.047000	24.490088	0.001010	20.760234
689.186087	-2.989400	3.689900	-11.029000	24.509120	0.001009	20.764156
690.182583	-2.998600	3.688100	-11.059000	24.503523	0.001008	20.759014
691.182234	-3.004600	3.687900	-11.079000	24.500461	0.001007	20.772064
692.184065	-2.991000	3.689000	-11.032000	24.476383	0.001009	20.757389
693.181914	-3.011400	3.686700	-11.101000	24.514712	0.001008	20.772138
694.182180	-3.013700	3.687500	-11.112000	24.531597	0.001009	20.766319
695.185619	-3.017900	3.685800	-11.123000	24.522987	0.001009	20.766689
696.185986	-2.997000	3.686800	-11.048000	24.532168	0.001005	20.744606
697.184682	-3.000200	3.687300	-11.062000	24.554896	0.001006	20.756504
698.188373	-3.014200	3.684800	-11.105000	24.526418	0.001008	20.787676
699.185196	-2.990800	3.685200	-11.020000	24.543111	0.001008	20.789252
700.189953	-3.011700	3.684800	-11.096000	24.557431	0.001006	20.761419
701.189074	-2.989200	3.685800	-11.017000	24.540271	0.001008	20.771228
702.186307	-3.006100	3.685000	-11.077000	24.558800	0.001006	20.764215
703.183230	-3.022200	3.683900	-11.132000	24.539695	0.001006	20.762589
704.188610	-2.996700	3.685000	-11.041000	24.583693	0.001006	20.783028
705.184155	-3.011400	3.683600	-11.092000	24.557800	0.001006	20.768902
706.187193	-3.014200	3.682400	-11.099000	24.577500	0.001005	20.776814
707.188443	-2.975800	3.683500	-10.961000	24.607793	0.001006	20.772596
708.186651	-2.993300	3.683700	-11.024000	24.620995	0.001005	20.792955
709.188612	-2.976400	3.683900	-10.964000	24.615846	0.001006	20.769771
710.187560	-2.999900	3.682700	-11.047000	24.628230	0.001006	20.793578
711.188974	-2.991900	3.682600	-11.016000	24.598509	0.001004	20.766126
712.188074	-3.019400	3.680300	-11.110000	24.615393	0.001005	20.771687
713.186742	-3.015300	3.680100	-11.094000	24.610968	0.001007	20.791903
714.191379	-3.017500	3.681600	-11.107000	24.573562	0.001004	20.773337
715.191442	-3.014400	3.680700	-11.093000	24.571696	0.001007	20.782845
716.192456	-3.008800	3.681400	-11.076000	24.578829	0.001004	20.780992
717.194691	-3.006100	3.680800	-11.064000	24.595245	0.001004	20.773756
718.190099	-3.020300	3.679300	-11.111000	24.632552	0.001004	20.759981
719.192599	-2.977000	3.680900	-10.956000	24.639787	0.001003	20.777673
720.190394	-2.983900	3.680100	-10.980000	24.636731	0.001002	20.777925
721.189188	-2.993300	3.678800	-11.010000	24.622948	0.001002	20.793967
722.191858	-3.009800	3.678800	-11.071000	24.587261	0.001003	20.788979
723.187282	-2.999600	3.678300	-11.032000	24.582904	0.001002	20.776073
724.192866	-2.977400	3.679400	-10.953000	24.567984	0.001000	20.782914
725.188837	-2.986100	3.677000	-10.979000	24.594945	0.001002	20.790051
726.192016	-3.002300	3.677100	-11.039000	24.574871	0.001001	20.794565
727.189202	-2.990300	3.677600	-10.997000	24.552813	0.001000	20.801356
728.196449	-2.981400	3.677700	-10.963000	24.537366	0.000999	20.815729
729.193109	-2.992000	3.676000	-10.998000	24.544287	0.001000	20.780948
730.192452	-3.013000	3.676900	-11.077000	24.521554	0.000999	20.785166
731.194491	-2.989000	3.676600	-10.989000	24.518822	0.000999	20.792382
732.191780	-2.991500	3.675100	-10.993000	24.544587	0.001001	20.788836
733.191672	-3.021200	3.673800	-11.099000	24.571450	0.000998	20.808202
734.199749	-2.994200	3.674500	-11.001000	24.566803	0.001000	20.787893
735.195489	-2.993100	3.674700	-10.998000	24.602447	0.000998	20.774819
736.191391	-3.006500	3.674000	-11.044000	24.589792	0.000999	20.779190
737.194988	-3.022200	3.673000	-11.099000	24.587306	0.001000	20.777170
738.190714	-3.003100	3.675600	-11.038000	24.601256	0.000999	20.784530
739.194786	-3.000600	3.673700	-11.021000	24.597181	0.000998	20.796087
740.200172	-3.034400	3.671800	-11.141000	24.598382	0.000997	20.792551
741.192104	-3.002900	3.673000	-11.028000	24.662893	0.000999	20.779047
742.193709	-3.001900	3.673200	-11.026000	24.625041	0.000999	20.786110
743.194487	-3.008600	3.672900	-11.050000	24.675080	0.001000	20.810243
744.195123	-2.999300	3.673800	-11.018000	24.668441	0.000996	20.797416
745.191930	-2.988200	3.672000	-10.972000	24.645568	0.000997	20.790586
746.199832	-3.009900	3.671500	-11.050000	24.632834	0.000998	20.801516
747.192647	-2.994700	3.671800	-10.995000	24.656293	0.000997	20.790917
748.199281	-3.001800	3.671700	-11.021000	24.662638	0.000997	20.788275
749.200804	-2.971200	3.671100	-10.907000	24.675569	0.000996	20.799353
750.198099	-2.969200	3.670300	-10.895000	24.688878	0.000995	20.787104
751.195877	-3.002500	3.670400	-11.019000	24.671813	0.000996	20.797481
752.196996	-2.994000	3.669600	-10.986000	24.650604	0.000996	20.801329
753.197635	-3.015600	3.667200	-11.057000	24.620317	0.000997	20.799388
754.196064	-2.985600	3.668100	-10.950000	24.596911	0.000996	20.799136
755.201666	-2.985100	3.670000	-10.953000	24.600722	0.000995	20.795847
756.194270	-3.010000	3.669000	-11.043000	24.602912	0.000995	20.817959
757.197040	-2.998600	3.668500	-11.000000	24.634332	0.000993	20.809183
758.199102	-2.986500	3.669600	-10.958000	24.661414	0.000994	20.804590
759.199153	-3.002400	3.669600	-11.015000	24.675117	0.000994	20.809805
760.198927	-2.998900	3.668300	-11.000000	24.701902	0.000993	20.814399
761.199661	-2.982100	3.668100	-10.936000	24.710708	0.000993	20.798579
762.204841	-2.999900	3.667100	-10.999000	24.727295	0.000993	20.806215
763.198153	-3.010900	3.666800	-11.039000	24.734535	0.000993	20.806368
764.205890	-3.002300	3.667100	-11.009000	24.755950	0.000992	20.828806
765.203987	-2.990000	3.666400	-10.961000	24.770252	0.000991	20.819926
766.197032	-3.015300	3.665300	-11.050000	24.796164	0.000989	20.797567
767.199768	-2.988300	3.665300	-10.952000	24.800742	0.000990	20.800738
768.208350	-3.009700	3.664700	-11.028000	24.824640	0.000991	20.792006
769.201171	-3.023500	3.664300	-11.077000	24.799300	0.000992	20.805929
770.205509	-3.002100	3.665700	-11.004000	24.765533	0.000989	20.822776
771.202234	-3.011900	3.664000	-11.035000	24.769411	0.000990	20.809599
772.199462	-2.997800	3.663700	-10.982000	24.756634	0.000991	20.804364
773.204722	-3.006400	3.662800	-11.011000	24.750866	0.000987	20.824179
774.205123	-3.019900	3.663600	-11.063000	24.730598	0.000991	20.821858
775.204329	-2.985500	3.664000	-10.937000	24.738281	0.000989	20.803015
776.203403	-2.998500	3.663500	-10.983000	24.748750	0.000989	20.818262
777.202749	-3.005600	3.663000	-11.007000	24.753554	0.000990	20.815971
778.199404	-2.990900	3.663200	-10.955000	24.759819	0.000988	20.814671
779.206155	-2.992800	3.662500	-10.960000	24.790677	0.000989	20.798224
780.203063	-3.007300	3.662000	-11.012000	24.809551	0.000986	20.820959
781.202089	-3.007000	3.660800	-11.007000	24.809330	0.000988	20.811254
782.202676	-2.969700	3.663000	-10.876000	24.772576	0.000988	20.840275
783.202037	-2.995300	3.661400	-10.966000	24.792253	0.000986	20.822090
784.203845	-2.986700	3.661700	-10.933000	24.791800	0.000988	20.824006
785.206896	-3.007900	3.659700	-11.007000	24.770735	0.000986	20.825152
786.207373	-2.977900	3.660100	-10.898000	24.747589	0.000989	20.825631
787.200822	-2.996500	3.660900	-10.969000	24.736268	0.000986	20.841772
788.208894	-3.012200	3.660600	-11.024000	24.729782	0.000987	20.829573
789.204445	-2.995300	3.658900	-10.958000	24.741766	0.000985	20.828797
790.204344	-3.015400	3.659600	-11.034000	24.745600	0.000986	20.822688
791.213120	-3.023200	3.658200	-11.059000	24.767556	0.000986	20.827177
792.202981	-2.994300	3.659400	-10.955000	24.787951	0.000985	20.824412
793.206794	-2.987000	3.659000	-10.927000	24.783945	0.000986	20.818495
794.209086	-3.021300	3.657700	-11.050000	24.773256	0.000984	20.836690
795.208319	-3.016400	3.658000	-11.032000	24.739906	0.000985	20.816499
796.205663	-2.997100	3.658500	-10.965000	24.737789	0.000983	20.836660
797.223138	-3.021300	3.656500	-11.046000	24.753589	0.000983	20.840661
798.204662	-3.012300	3.657200	-11.015000	24.754750	0.000985	20.830447
799.206199	-2.995200	3.657200	-10.952000	24.776558	0.000983	20.812503
800.213863	-2.990800	3.656800	-10.935000	24.810581	0.000982	20.826259
801.207687	-2.987800	3.658000	-10.929000	24.817465	0.000983	20.856401
802.211526	-2.990800	3.656400	-10.934000	24.839873	0.000981	20.837164
803.211849	-3.009600	3.656900	-11.005000	24.856064	0.000981	20.838241
804.213226	-2.994400	3.656500	-10.948000	24.872545	0.000983	20.840557
805.207860	-2.988200	3.656600	-10.925000	24.890675	0.000980	20.833623
806.214103	-2.983700	3.656300	-10.907000	24.920909	0.000981	20.826511
807.212247	-2.995800	3.654200	-10.946000	24.902859	0.000981	20.841585
808.208960	-2.996200	3.654900	-10.950000	24.899178	0.000981	20.836942
809.211644	-3.000700	3.653300	-10.961000	24.904247	0.000981	20.821641
810.213938	-2.993000	3.654800	-10.937000	24.912849	0.000981	20.854929
811.210215	-3.001400	3.654300	-10.967000	24.866783	0.000981	20.818653
812.209073	-2.992100	3.654000	-10.932000	24.869071	0.000981	20.829959
813.210303	-2.995100	3.653600	-10.942000	24.868648	0.000979	20.844232
814.213737	-2.999400	3.652300	-10.954000	24.880439	0.000978	20.832833
815.219055	-3.008100	3.650800	-10.980000	24.859529	0.000979	20.833658
816.214296	-2.979600	3.653000	-10.884000	24.857659	0.000979	20.865919
817.217454	-2.989400	3.652300	-10.916000	24.861517	0.000979	20.851300
818.212584	-3.010900	3.650900	-10.991000	24.875242	0.000978	20.845161
819.215947	-3.011200	3.651500	-10.994000	24.910128	0.000978	20.867845
820.211689	-2.999900	3.651000	-10.950000	24.919306	0.000978	20.850979
821.217631	-3.006300	3.650600	-10.974000	24.904819	0.000977	20.826957
822.216609	-3.004800	3.648500	-10.962000	24.864540	0.000977	20.859074
823.211894	-3.016500	3.648500	-11.005000	24.866386	0.000977	20.836746
824.214464	-2.991800	3.651300	-10.922000	24.883019	0.000976	20.859129
825.222530	-2.988900	3.648900	-10.905000	24.890731	0.000976	20.855964
826.220349	-2.992200	3.649300	-10.919000	24.902866	0.000976	20.867195
827.212389	-3.009200	3.650100	-10.983000	24.933278	0.000975	20.851726
828.216990	-3.006300	3.648300	-10.967000	24.962296	0.000974	20.869472
829.212358	-3.011000	3.648400	-10.984000	24.935064	0.000976	20.868691
830.214103	-2.982700	3.648400	-10.881000	24.928608	0.000972	20.853677
831.217689	-2.992700	3.647300	-10.914000	24.948602	0.000972	20.871374
832.211722	-3.004200	3.646300	-10.954000	24.962755	0.000974	20.869932
833.215000	-3.015600	3.647800	-10.999000	24.960816	0.000974	20.860874
834.212002	-2.993400	3.648400	-10.920000	24.969521	0.000974	20.871982
835.215197	-3.006500	3.647600	-10.965000	25.007593	0.000972	20.865152
836.215850	-3.012800	3.645700	-10.983000	25.023304	0.000974	20.865275
837.218184	-3.026500	3.645400	-11.032000	25.027669	0.000972	20.873450
838.213487	-3.005200	3.645300	-10.953000	25.033780	0.000974	20.857300
839.213985	-3.002300	3.645200	-10.944000	25.009493	0.000971	20.875593
840.212918	-2.990900	3.645600	-10.903000	25.043582	0.000971	20.881362
841.213354	-2.983000	3.645300	-10.873000	25.014970	0.000971	20.877297
842.219468	-3.027100	3.644500	-11.032000	25.030834	0.000970	20.868566
843.216825	-2.979200	3.645500	-10.859000	25.003968	0.000972	20.849187
844.216751	-3.001000	3.643800	-10.934000	25.020349	0.000972	20.860887
845.215660	-2.996700	3.643000	-10.916000	25.022593	0.000971	20.855079
846.216535	-2.980400	3.644700	-10.862000	25.011832	0.000970	20.874148
847.220985	-2.994900	3.643400	-10.911000	24.997838	0.000970	20.884757
848.220246	-2.989300	3.642800	-10.889000	24.983942	0.000970	20.862276
849.215109	-3.005200	3.643100	-10.947000	24.975868	0.000969	20.874559
850.214651	-2.992500	3.642300	-10.899000	24.995137	0.000970	20.882994
851.218869	-2.974800	3.643800	-10.838000	25.009407	0.000968	20.885464
852.218648	-3.010300	3.640600	-10.958000	25.025700	0.000969	20.880955
853.223518	-3.012700	3.641300	-10.968000	25.044771	0.000969	20.872125
854.222143	-3.018200	3.640800	-10.987000	25.044728	0.000969	20.880141
855.224961	-3.007300	3.640100	-10.945000	25.066682	0.000969	20.878946
856.224524	-2.988700	3.641300	-10.882000	25.060542	0.000968	20.862352
857.222760	-3.000300	3.639300	-10.917000	25.061246	0.000969	20.882972
858.223784	-3.016200	3.640700	-10.978000	25.095058	0.000968	20.876611
859.223093	-3.010900	3.639500	-10.955000	25.092972	0.000969	20.869302
860.219064	-3.013400	3.639100	-10.965000	25.107787	0.000968	20.863785
861.219606	-3.007500	3.639200	-10.944000	25.114700	0.000966	20.874043
862.224511	-3.009900	3.638500	-10.950000	25.110203	0.000968	20.864314
863.221782	-3.007200	3.639100	-10.942000	25.094395	0.000968	20.878789
864.223734	-3.000100	3.639100	-10.918000	25.051062	0.000969	20.870379
865.223300	-2.991700	3.638600	-10.884000	25.005193	0.000968	20.871277
866.224437	-2.993400	3.637700	-10.888000	25.007058	0.000966	20.876468
867.223023	-3.011000	3.636900	-10.950000	25.035130	0.000967	20.852965
868.223276	-3.012600	3.637000	-10.954000	25.019763	0.000965	20.876893
869.223889	-2.990200	3.638600	-10.879000	24.961635	0.000967	20.868808
870.219946	-3.019000	3.636200	-10.977000	24.949470	0.000963	20.876038
871.221344	-3.010000	3.637400	-10.946000	24.968224	0.000965	20.862146
872.222171	-3.002500	3.636600	-10.918000	24.988310	0.000966	20.852910
873.228885	-2.997500	3.636300	-10.899000	25.030297	0.000963	20.863760
874.225734	-2.993200	3.636500	-10.884000	25.041344	0.000964	20.865840
875.225596	-3.018100	3.634400	-10.967000	25.035498	0.000961	20.866136
876.226654	-3.003300	3.634800	-10.915000	25.035616	0.000963	20.862935
877.226018	-3.004300	3.634700	-10.919000	25.052700	0.000962	20.864437
878.225859	-3.000400	3.634300	-10.904000	25.089396	0.000962	20.863341
879.226219	-3.009000	3.634500	-10.935000	25.113908	0.000958	20.861395
880.223047	-3.003900	3.634900	-10.919000	25.123177	0.000961	20.851260
881.222751	-3.001400	3.633900	-10.906000	25.104112	0.000962	20.838760
882.227895	-3.008100	3.632600	-10.926000	25.087531	0.000961	20.877115
883.226882	-2.996100	3.633100	-10.884000	25.076746	0.000960	20.851592
884.227790	-2.992000	3.632100	-10.866000	25.102695	0.000961	20.867208
885.227183	-3.001200	3.632300	-10.899000	25.109553	0.000961	20.852282
886.227418	-3.003700	3.631000	-10.906000	25.093002	0.000960	20.853211
887.231090	-2.999200	3.632500	-10.892000	25.074084	0.000959	20.856506
888.224842	-2.999200	3.631800	-10.891000	25.082813	0.000959	20.856259
889.228652	-3.003900	3.631700	-10.908000	25.102020	0.000959	20.842824
890.227056	-3.005800	3.631900	-10.916000	25.117564	0.000958	20.858901
891.226807	-3.007800	3.630800	-10.920000	25.127379	0.000958	20.868279
892.231092	-2.998200	3.630100	-10.882000	25.146375	0.000957	20.840884
893.231057	-2.967700	3.631900	-10.776000	25.160116	0.000956	20.871272
894.231082	-3.018200	3.629700	-10.953000	25.169912	0.000957	20.853606
895.232927	-2.990400	3.628300	-10.849000	25.178020	0.000955	20.858427
896.230292	-3.016800	3.628800	-10.946000	25.187859	0.000954	20.854554
897.231480	-3.027600	3.627700	-10.982000	25.182743	0.000954	20.850367
898.230714	-2.993800	3.629200	-10.863000	25.182934	0.000955	20.846765
899.228550	-3.009500	3.628600	-10.919000	25.190191	0.000952	20.863059
900.227969	-3.007600	3.628300	-10.911000	25.191313	0.000951	20.860866
901.228664	-3.005000	3.627900	-10.901000	25.200360	0.000952	20.846242
902.228858	-2.999500	3.626900	-10.877000	25.163791	0.000952	20.853625
903.230828	-3.005300	3.626900	-10.899000	25.161134	0.000950	20.841002
904.231723	-3.023600	3.626600	-10.964000	25.141524	0.000954	20.831272
905.231119	-2.984100	3.628000	-10.825000	25.144456	0.000950	20.842750
906.232140	-3.007700	3.626800	-10.908000	25.150124	0.000951	20.836112
907.231839	-2.981800	3.626700	-10.813000	25.134734	0.000951	20.837732
908.233068	-3.018800	3.626800	-10.947000	25.163226	0.000952	20.834093
909.233541	-3.008400	3.626100	-10.908000	25.185577	0.000952	20.834246
910.231059	-2.999300	3.625700	-10.873000	25.189754	0.000949	20.850292
911.232003	-3.009700	3.624700	-10.908000	25.155993	0.000951	20.837263
912.237119	-3.014100	3.624600	-10.923000	25.142646	0.000951	20.825287
913.235280	-3.005200	3.624900	-10.893000	25.114680	0.000948	20.841309
914.238387	-3.009900	3.623300	-10.905000	25.104467	0.000950	20.856659
915.236761	-2.975500	3.625700	-10.787000	25.090941	0.000950	20.834073
916.238221	-2.979900	3.623900	-10.796000	25.130021	0.000949	20.837743
917.238162	-2.998100	3.623600	-10.862000	25.136579	0.000950	20.849542
918.236814	-2.998500	3.622000	-10.860000	25.136058	0.000947	20.819147
919.235328	-3.011800	3.621600	-10.907000	25.146301	0.000947	20.824689
920.237370	-3.038400	3.621900	-11.002000	25.170157	0.000947	20.815922
921.236786	-2.999100	3.622500	-10.863000	25.157165	0.000945	20.836543
922.235627	-2.995900	3.622400	-10.850000	25.154577	0.000946	20.833470
923.236725	-3.003400	3.620700	-10.873000	25.166734	0.000946	20.842830
924.238041	-3.001400	3.622200	-10.871000	25.170635	0.000946	20.829677
925.238187	-3.019500	3.621500	-10.932000	25.159600	0.000944	20.816229
926.236571	-2.999200	3.620400	-10.858000	25.165164	0.000944	20.829400
927.239220	-3.011800	3.619900	-10.901000	25.174187	0.000943	20.844148
928.236582	-3.003200	3.620100	-10.871000	25.169071	0.000944	20.820995
929.237354	-2.983600	3.620400	-10.800000	25.143989	0.000942	20.817626
930.238122	-2.992600	3.619600	-10.831000	25.142075	0.000943	20.808593
931.237549	-3.008100	3.619300	-10.886000	25.133254	0.000943	20.818229
932.240777	-3.024400	3.618200	-10.942000	25.091236	0.000940	20.818723
933.247827	-3.013100	3.618400	-10.901000	25.061882	0.000940	20.830508
934.237288	-2.995700	3.619000	-10.840000	25.037492	0.000938	20.812189
935.239100	-2.993100	3.618600	-10.830000	25.001843	0.000940	20.809122
936.241917	-3.029500	3.616000	-10.952000	25.018529	0.000939	20.838672
937.241862	-3.000300	3.619000	-10.855000	24.995284	0.000939	20.813444
938.243084	-2.993000	3.617900	-10.827000	24.990530	0.000938	20.840440
939.240892	-3.007400	3.617400	-10.879000	25.013879	0.000940	20.828315
940.247011	-3.024700	3.617000	-10.940000	25.029964	0.000938	20.823124
941.243807	-3.006700	3.615900	-10.871000	25.027902	0.000937	20.827219
942.241426	-3.009700	3.616000	-10.882000	25.051127	0.000937	20.811651
943.243273	-2.993500	3.616600	-10.825000	25.054109	0.000936	20.814170
944.243669	-2.994500	3.617000	-10.830000	25.093038	0.000935	20.827169
945.246877	-2.989500	3.616000	-10.808000	25.092797	0.000936	20.832143
946.246640	-2.993200	3.613700	-10.815000	25.133816	0.000935	20.837759
947.245366	-2.994900	3.616100	-10.828000	25.163941	0.000934	20.832440
948.250658	-3.016900	3.614100	-10.901000	25.174651	0.000934	20.819010
949.241034	-2.984700	3.615300	-10.790000	25.166829	0.000935	20.822063
950.246899	-3.008200	3.613500	-10.869000	25.173116	0.000932	20.820315
951.245331	-2.995900	3.613800	-10.825000	25.178937	0.000933	20.806244
952.246162	-2.976400	3.613600	-10.755000	25.186321	0.000931	20.828830
953.242230	-3.011400	3.612000	-10.875000	25.235660	0.000931	20.801077
954.245768	-2.997500	3.612200	-10.827000	25.220081	0.000931	20.803928
955.246259	-3.017300	3.611200	-10.894000	25.241063	0.000931	20.800337
956.250381	-2.996100	3.611700	-10.819000	25.253814	0.000929	20.818355
957.245811	-2.999200	3.611100	-10.829000	25.271736	0.000932	20.813115
958.246718	-3.009400	3.610300	-10.864000	25.290227	0.000931	20.824568
959.245459	-2.997200	3.611500	-10.823000	25.284860	0.000931	20.811119
960.248921	-3.048800	3.609600	-11.002000	25.302290	0.000930	20.811550
961.251251	-2.991600	3.609600	-10.798000	25.300647	0.000930	20.826495
962.248299	-3.026700	3.608600	-10.921000	25.291404	0.000929	20.830016
963.250797	-3.010000	3.608700	-10.861000	25.287577	0.000929	20.807682
964.248738	-2.997300	3.609400	-10.817000	25.281615	0.000928	20.799800
965.247142	-3.031300	3.609200	-10.939000	25.327919	0.000927	20.805988
966.251180	-3.005800	3.608000	-10.843000	25.312360	0.000926	20.803642
967.252789	-3.000600	3.607700	-10.824000	25.309177	0.000928	20.809930
968.247748	-3.022100	3.608100	-10.903000	25.311667	0.000926	20.806265
969.250846	-3.023700	3.607500	-10.906000	25.327250	0.000927	20.798679
970.247350	-3.033500	3.606100	-10.938000	25.299688	0.000924	20.808463
971.250342	-3.006400	3.607300	-10.844000	25.310231	0.000925	20.795341
972.260640	-3.016700	3.607200	-10.880000	25.311869	0.000924	20.805046
973.246821	-2.992600	3.608100	-10.796000	25.296413	0.000923	20.797114
974.250748	-3.016900	3.606000	-10.878000	25.259306	0.000924	20.799687
975.265635	-2.980100	3.606100	-10.743000	25.248119	0.000924	20.808844
976.251270	-2.980900	3.606400	-10.749000	25.203755	0.000921	20.816461
977.247455	-2.998500	3.606700	-10.814000	25.189734	0.000922	20.806177
978.253549	-2.976000	3.605600	-10.730000	25.215316	0.000920	20.791084
979.259398	-2.981300	3.604500	-10.745000	25.239255	0.000925	20.801367
980.251749	-3.019900	3.603100	-10.879000	25.261476	0.000920	20.782426
981.257195	-2.974800	3.606700	-10.727000	25.255012	0.000919	20.783996
982.250097	-2.993600	3.603500	-10.787000	25.257581	0.000919	20.808861
983.254335	-3.017000	3.603800	-10.872000	25.284303	0.000921	20.819094
984.249925	-3.000100	3.605000	-10.814000	25.319372	0.000920	20.787450
985.252299	-2.982500	3.603700	-10.747000	25.345665	0.000920	20.800098
986.253782	-3.000700	3.603100	-10.810000	25.344382	0.000919	20.776051
987.252837	-2.978900	3.603200	-10.732000	25.348632	0.000918	20.800707
988.251741	-3.000000	3.601900	-10.804000	25.341322	0.000919	20.802850
989.251531	-3.016100	3.600300	-10.857000	25.314582	0.000915	20.788329
990.255203	-2.984300	3.602000	-10.748000	25.331533	0.000919	20.783064
991.251533	-2.993900	3.602300	-10.784000	25.347589	0.000916	20.772159
992.253951	-2.992100	3.600800	-10.772000	25.345725	0.000914	20.805848
993.255483	-2.990300	3.602000	-10.770000	25.362602	0.000915	20.788656
994.251410	-2.979800	3.600300	-10.727000	25.360841	0.000915	20.775982
995.249514	-2.993300	3.600000	-10.775000	25.377467	0.000914	20.788409
996.256306	-3.000200	3.599400	-10.798000	25.382912	0.000916	20.789609
997.251441	-2.996400	3.600800	-10.788000	25.379552	0.000916	20.772485
998.253105	-3.006100	3.599900	-10.820000	25.353960	0.000912	20.800367
999.254039	-3.007700	3.599400	-10.825000	25.351077	0.000913	20.765230
1000.254305	-2.999800	3.598700	-10.794000	25.354806	0.000913	20.788414
1001.254980	-3.034300	3.596500	-10.909000	25.377019	0.000912	20.788433
1002.256510	-3.000100	3.598300	-10.794000	25.381471	0.000911	20.797645
1003.253749	-3.015300	3.596100	-10.842000	25.358087	0.000914	20.786967
1004.249743	-2.999300	3.597400	-10.788000	25.326398	0.000912	20.785021
1005.256307	-2.996800	3.597200	-10.779000	25.299702	0.000909	20.780027
1006.250314	-3.014000	3.596300	-10.838000	25.292765	0.000910	20.776856
1007.255260	-2.996400	3.595700	-10.772000	25.280634	0.000911	20.765150
1008.258605	-2.981700	3.597300	-10.724000	25.291005	0.000911	20.782201
1009.256979	-3.016100	3.595800	-10.844000	25.299494	0.000910	20.774603
1010.249707	-3.000400	3.595500	-10.787000	25.286350	0.000908	20.771364
1011.255576	-2.998700	3.596500	-10.783000	25.281057	0.000909	20.776955
1012.255459	-3.012900	3.595000	-10.830000	25.277948	0.000906	20.772411
1013.252549	-2.995000	3.595000	-10.766000	25.276433	0.000907	20.766148
1014.256876	-3.027600	3.593300	-10.878000	25.262039	0.000908	20.781568
1015.259012	-2.982800	3.593600	-10.718000	25.264572	0.000906	20.768938
1016.256379	-3.000600	3.595400	-10.788000	25.288461	0.000905	20.768267
1017.258876	-3.003500	3.592600	-10.789000	25.314552	0.000904	20.777394
1018.258536	-2.995800	3.594700	-10.768000	25.330460	0.000904	20.779142
1019.263089	-2.969800	3.593100	-10.669000	25.351159	0.000904	20.778589
1020.258881	-3.005900	3.593400	-10.801000	25.357978	0.000902	20.783538
1021.258000	-3.009600	3.591100	-10.807000	25.375936	0.000901	20.769327
1022.267976	-2.996200	3.593000	-10.765000	25.376438	0.000902	20.778367
1023.259120	-2.989400	3.590900	-10.734000	25.365105	0.000900	20.782634
1024.259415	-2.973000	3.592900	-10.681000	25.377181	0.000902	20.753981
1025.259473	-2.980200	3.590800	-10.700000	25.357224	0.000901	20.799378
1026.262609	-2.996200	3.589700	-10.754000	25.300084	0.000900	20.750065
1027.261127	-2.986000	3.590700	-10.721000	25.291780	0.000898	20.785350
1028.262042	-2.991000	3.590400	-10.738000	25.261831	0.000899	20.779937
1029.263157	-3.006600	3.588600	-10.789000	25.272221	0.000898	20.777566
1030.260736	-2.985400	3.590400	-10.718000	25.269688	0.000897	20.755108
1031.257951	-2.987100	3.589400	-10.721000	25.305653	0.000897	20.767036
1032.261319	-2.992400	3.590000	-10.742000	25.315196	0.000898	20.770928
1033.260762	-2.997100	3.589000	-10.756000	25.310075	0.000894	20.767209
1034.261325	-3.001200	3.588300	-10.768000	25.283432	0.000897	20.761321
1035.262205	-2.983600	3.587600	-10.702000	25.297876	0.000896	20.742631
1036.264448	-2.994100	3.587700	-10.741000	25.291589	0.000894	20.773304
1037.263073	-2.980900	3.587200	-10.692000	25.258009	0.000894	20.766142
1038.263489	-2.992400	3.588000	-10.735000	25.225772	0.000895	20.752268
1039.265718	-2.998100	3.587500	-10.755000	25.192387	0.000893	20.769486
1040.264682	-3.007700	3.586000	-10.785000	25.195846	0.000894	20.756363
1041.267510	-3.003400	3.587300	-10.773000	25.190823	0.000893	20.772183
1042.265260	-2.991200	3.586400	-10.726000	25.208942	0.000893	20.755286
1043.267537	-2.994200	3.585300	-10.733000	25.245957	0.000894	20.751671
1044.261544	-2.974000	3.585900	-10.663000	25.257616	0.000893	20.754368
1045.266825	-2.988700	3.584800	-10.711000	25.319457	0.000893	20.762878
1046.265993	-2.981300	3.585500	-10.688000	25.339291	0.000893	20.769991
1047.264928	-3.001300	3.584200	-10.756000	25.329876	0.000892	20.756744
1048.261485	-2.976700	3.585300	-10.671000	25.370856	0.000892	20.735776
1049.267020	-2.988200	3.584500	-10.710000	25.392100	0.000892	20.766592
1050.265697	-2.995400	3.583100	-10.731000	25.405155	0.000891	20.743665
1051.265671	-3.012200	3.582700	-10.791000	25.438970	0.000891	20.750594
1052.268736	-3.019100	3.581300	-10.810000	25.445035	0.000889	20.746252
1053.263723	-3.012100	3.582100	-10.789000	25.459482	0.000888	20.760285
1054.269792	-3.023900	3.581500	-10.829000	25.454282	0.000889	20.748900
1055.262228	-2.985000	3.582100	-10.690000	25.423817	0.000888	20.775681
1056.267605	-2.978000	3.581200	-10.663000	25.383349	0.000887	20.774875
1057.265935	-2.999700	3.580700	-10.741000	25.330883	0.000885	20.755385
1058.269087	-2.992000	3.581200	-10.714000	25.320027	0.000886	20.762503
1059.262279	-3.027200	3.580300	-10.837000	25.334096	0.000885	20.748179
1060.263459	-3.001700	3.579800	-10.744000	25.366448	0.000885	20.764542
1061.266170	-2.993300	3.579200	-10.713000	25.380944	0.000883	20.757287
1062.264335	-3.005200	3.579800	-10.758000	25.404132	0.000885	20.765871
1063.268339	-2.985100	3.580000	-10.685000	25.376842	0.000882	20.763599
1064.265465	-2.972000	3.579900	-10.638000	25.367152	0.000884	20.729212
1065.274083	-3.015600	3.577500	-10.786000	25.346049	0.000883	20.746904
1066.271689	-2.988000	3.577600	-10.689000	25.305713	0.000883	20.739594
1067.271015	-2.993500	3.578400	-10.711000	25.331833	0.000882	20.747329
1068.267842	-2.985600	3.578500	-10.683000	25.338647	0.000880	20.735678
1069.267600	-2.975200	3.578400	-10.645000	25.342370	0.000880	20.750796
1070.270253	-3.006800	3.576900	-10.754000	25.378534	0.000881	20.748228
1071.264644	-2.986100	3.577200	-10.681000	25.398195	0.000881	20.756591
1072.271259	-3.015300	3.576000	-10.782000	25.420634	0.000878	20.736448
1073.269100	-3.020400	3.575700	-10.799000	25.436271	0.000878	20.773488
1074.264739	-3.005900	3.575300	-10.746000	25.458114	0.000878	20.750377
1075.273258	-3.001600	3.574700	-10.729000	25.456526	0.000876	20.748782
1076.264995	-3.000200	3.575500	-10.726000	25.445488	0.000877	20.749078
1077.273114	-3.002600	3.574900	-10.734000	25.437939	0.000874	20.754299
1078.267141	-3.005200	3.574300	-10.740000	25.438607	0.000876	20.750703
1079.271653	-3.018900	3.574400	-10.790000	25.428667	0.000876	20.768223
1080.267744	-3.000500	3.575100	-10.727000	25.428200	0.000874	20.734562
1081.277747	-3.038000	3.572000	-10.851000	25.441918	0.000873	20.732216
1082.272226	-2.985800	3.574300	-10.670000	25.466196	0.000873	20.736681
1083.271826	-2.979700	3.574200	-10.649000	25.496936	0.000873	20.760439
1084.273918	-3.007800	3.572500	-10.744000	25.476313	0.000871	20.745893
1085.277564	-2.995500	3.572700	-10.700000	25.498377	0.000870	20.746712
1086.272002	-2.980300	3.572600	-10.646000	25.505012	0.000871	20.758591
1087.274643	-2.995800	3.571300	-10.697000	25.518636	0.000871	20.734340
1088.273510	-2.994700	3.572100	-10.696000	25.530961	0.000872	20.746718
1089.270158	-3.005300	3.571300	-10.732000	25.546665	0.000870	20.749686
1090.274367	-3.005000	3.571000	-10.729000	25.561571	0.000871	20.751380
1091.271438	-2.972100	3.572100	-10.615000	25.562766	0.000871	20.753529
1092.274382	-3.006100	3.570600	-10.731000	25.577501	0.000869	20.753153
1093.274902	-3.003900	3.570100	-10.723000	25.578445	0.000868	20.735135
1094.278115	-3.006500	3.569300	-10.730000	25.565053	0.000867	20.744446
1095.274674	-3.007400	3.569000	-10.733000	25.571565	0.000869	20.740554
1096.271453	-2.995200	3.569200	-10.690000	25.520574	0.000865	20.768530
1097.276762	-2.998600	3.568000	-10.698000	25.540374	0.000866	20.755223
1098.272395	-2.965600	3.570100	-10.586000	25.555862	0.000864	20.750388
1099.279082	-3.007400	3.566500	-10.724000	25.543488	0.000865	20.746496
1100.277506	-3.003700	3.566000	-10.710000	25.551913	0.000862	20.749267
1101.273900	-3.002800	3.567300	-10.710000	25.597109	0.000864	20.753880
1102.279088	-3.003500	3.566000	-10.709000	25.573036	0.000862	20.755782
1103.276502	-3.012700	3.565900	-10.741000	25.598623	0.000862	20.753030
1104.276795	-3.008900	3.565200	-10.726000	25.604840	0.000862	20.747420
1105.279408	-3.004100	3.564600	-10.707000	25.628200	0.000860	20.746699
1106.278295	-3.004500	3.565300	-10.710000	25.607875	0.000864	20.742881
1107.274216	-2.988500	3.566000	-10.657000	25.639978	0.000863	20.731974
1108.280694	-3.004600	3.566100	-10.712000	25.628653	0.000861	20.744309
1109.275289	-2.985700	3.564000	-10.640000	25.612724	0.000863	20.725465
1110.277995	-2.996400	3.565000	-10.681000	25.565837	0.000860	20.744758
1111.278762	-3.002800	3.564200	-10.701000	25.542235	0.000862	20.756618
1112.282398	-2.991300	3.563800	-10.659000	25.502151	0.000860	20.762357
1113.280656	-2.989300	3.564100	-10.653000	25.492463	0.000861	20.749782
1114.282575	-3.016700	3.562300	-10.745000	25.498625	0.000859	20.755023
1115.285592	-2.974500	3.564200	-10.599000	25.526212	0.000858	20.746216
1116.288792	-2.982900	3.562900	-10.627000	25.538463	0.000858	20.758520
1117.280714	-2.990800	3.563900	-10.658000	25.558520	0.000856	20.770602
1118.284233	-3.027100	3.560100	-10.775000	25.580527	0.000857	20.766625
1119.282756	-3.008900	3.559900	-10.710000	25.564136	0.000855	20.748266
1120.280980	-3.010100	3.560200	-10.716000	25.587019	0.000857	20.775516
1121.282066	-3.026800	3.560600	-10.775000	25.578551	0.000855	20.767485
1122.281783	-3.017200	3.560300	-10.741000	25.589912	0.000856	20.764196
1123.278291	-3.012400	3.560500	-10.725000	25.608723	0.000856	20.751794
1124.279810	-3.001500	3.560700	-10.686000	25.645572	0.000854	20.742809
1125.285888	-3.007500	3.559800	-10.705000	25.614064	0.000852	20.738191
1126.278264	-3.006700	3.559400	-10.701000	25.579526	0.000852	20.767041
1127.279480	-2.995200	3.558700	-10.658000	25.569199	0.000854	20.746712
1128.284655	-3.019200	3.559000	-10.744000	25.564742	0.000851	20.755513
1129.280785	-3.006700	3.558300	-10.698000	25.591861	0.000852	20.763782
1130.284129	-2.992300	3.558500	-10.646000	25.606595	0.000851	20.759614
1131.279875	-2.995500	3.558100	-10.656000	25.632885	0.000849	20.755672
1132.278035	-3.002400	3.556100	-10.676000	25.624835	0.000852	20.776511
1133.284019	-2.995700	3.558500	-10.659000	25.625809	0.000851	20.747143
1134.286858	-2.993300	3.557300	-10.647000	25.616367	0.000849	20.762316
1135.279219	-3.007300	3.556000	-10.694000	25.577432	0.000848	20.745024
1136.288386	-2.993700	3.555700	-10.643000	25.578549	0.000847	20.758473
1137.284256	-3.000000	3.555100	-10.664000	25.607402	0.000848	20.760425
1138.281302	-2.983200	3.555100	-10.605000	25.617421	0.000848	20.765745
1139.284451	-2.992100	3.554600	-10.634000	25.637623	0.000846	20.752844
1140.284691	-3.004600	3.552700	-10.673000	25.645048	0.000848	20.775001
1141.282944	-2.980400	3.554900	-10.594000	25.654152	0.000845	20.773713
1142.288595	-2.997500	3.553200	-10.649000	25.637309	0.000843	20.759167
1143.287455	-2.984300	3.553800	-10.604000	25.622251	0.000842	20.764906
1144.283513	-3.002700	3.553100	-10.668000	25.616910	0.000844	20.769500
1145.293702	-2.980100	3.554200	-10.590000	25.568036	0.000841	20.747916
1146.282977	-2.995800	3.552200	-10.640000	25.610331	0.000842	20.784703
1147.286500	-2.979800	3.553300	-10.586000	25.606682	0.000840	20.760650
1148.282351	-2.993200	3.551200	-10.628000	25.611875	0.000838	20.757331
1149.282971	-2.981200	3.551600	-10.588000	25.613395	0.000840	20.754590
1150.284214	-3.004400	3.551100	-10.668000	25.615486	0.000840	20.766173
1151.285534	-2.999700	3.550100	-10.648000	25.639490	0.000839	20.771789
1152.283295	-2.969600	3.551400	-10.545000	25.658422	0.000837	20.771838
1153.283200	-2.998700	3.550800	-10.645000	25.649453	0.000838	20.781795
1154.291336	-3.025000	3.548800	-10.734000	25.654296	0.000838	20.755366
1155.282382	-3.004000	3.548700	-10.660000	25.666650	0.000836	20.767299
1156.284177	-2.994900	3.549900	-10.631000	25.683940	0.000837	20.758112
1157.293063	-3.011400	3.549300	-10.688000	25.690224	0.000837	20.773907
1158.290739	-3.005100	3.549100	-10.664000	25.710548	0.000837	20.778674
1159.287547	-2.972700	3.549400	-10.551000	25.750869	0.000834	20.770810
1160.290431	-3.003700	3.547100	-10.654000	25.703565	0.000834	20.758857
1161.286586	-3.007500	3.547800	-10.668000	25.659312	0.000833	20.766567
1162.285503	-2.999300	3.547700	-10.639000	25.632482	0.000831	20.772811
1163.287877	-2.972000	3.548500	-10.545000	25.630986	0.000837	20.756136
1164.291045	-3.003200	3.547300	-10.652000	25.632372	0.000834	20.778391
1165.287186	-2.989400	3.546200	-10.600000	25.638185	0.000834	20.761469
1166.304621	-3.006500	3.547300	-10.663000	25.644721	0.000833	20.787948
1167.290178	-3.002100	3.546000	-10.644000	25.671679	0.000835	20.783730
1168.289923	-2.976700	3.547000	-10.556000	25.681716	0.000831	20.783854
1169.300200	-3.009600	3.545200	-10.669000	25.687400	0.000831	20.778657
1170.290691	-2.980100	3.545400	-10.564000	25.665635	0.000829	20.775289
1171.287373	-2.998100	3.545400	-10.629000	25.648235	0.000829	20.761606
1172.290670	-3.009000	3.543100	-10.661000	25.647763	0.000828	20.770141
1173.287437	-3.014800	3.543200	-10.680000	25.588253	0.000827	20.777703
1174.300117	-3.003000	3.545100	-10.644000	25.586384	0.000829	20.792895
1175.300677	-3.017500	3.543200	-10.690000	25.588027	0.000827	20.802606
1176.290693	-3.016600	3.542700	-10.687000	25.605391	0.000825	20.797286
1177.294554	-2.981000	3.542000	-10.557000	25.598541	0.000828	20.796571
1178.292864	-2.993200	3.542100	-10.602000	25.602387	0.000827	20.778621
1179.292944	-2.977400	3.542900	-10.547000	25.571772	0.000824	20.783437
1180.292738	-3.011200	3.540300	-10.660000	25.589964	0.000826	20.768990
1181.293636	-2.988300	3.541300	-10.581000	25.558927	0.000822	20.789977
1182.296215	-2.985100	3.541600	-10.571000	25.589143	0.000824	20.784287
1183.297551	-3.005700	3.541200	-10.642000	25.603361	0.000823	20.796670
1184.293281	-2.997100	3.539100	-10.606000	25.576223	0.000823	20.803554
1185.293792	-2.979400	3.540900	-10.549000	25.554505	0.000823	20.798813
1186.293096	-2.998000	3.538700	-10.609000	25.572924	0.000822	20.777955
1187.297833	-2.997100	3.540500	-10.610000	25.602441	0.000820	20.790056
1188.296982	-3.008700	3.539600	-10.649000	25.621522	0.000819	20.782193
1189.304109	-2.993500	3.538300	-10.590000	25.638278	0.000819	20.798547
1190.300316	-3.011800	3.538400	-10.656000	25.672489	0.000820	20.794502
1191.302800	-3.027900	3.536200	-10.706000	25.678154	0.000819	20.784070
1192.298750	-2.993700	3.536800	-10.586000	25.699545	0.000818	20.793701
1193.303365	-3.023600	3.536400	-10.691000	25.692912	0.000820	20.792728
1194.298414	-3.001400	3.537800	-10.617000	25.703499	0.000818	20.787241
1195.300538	-2.982300	3.537100	-10.547000	25.714829	0.000815	20.792931
1196.300731	-3.017800	3.535800	-10.670000	25.692268	0.000816	20.789237
1197.295471	-2.978000	3.537400	-10.534000	25.677063	0.000814	20.791983
1198.306447	-3.007500	3.535300	-10.632000	25.708888	0.000814	20.796922
1199.298372	-3.008300	3.533800	-10.630000	25.699330	0.000815	20.788743
1200.297468	-2.979000	3.537000	-10.535000	25.705933	0.000812	20.789686
1201.309322	-3.008200	3.534500	-10.631000	25.687430	0.000813	20.797654
1202.304299	-3.030700	3.534100	-10.709000	25.663648	0.000812	20.809803
1203.298707	-3.000500	3.535100	-10.605000	25.646958	0.000810	20.784032
1204.317306	-3.013300	3.532900	-10.644000	25.680237	0.000810	20.791851
1205.300585	-3.026000	3.532500	-10.689000	25.694964	0.000809	20.795264
1206.305524	-3.017300	3.531700	-10.655000	25.706397	0.000809	20.801532
1207.302843	-2.996900	3.534300	-10.591000	25.703614	0.000809	20.781192
1208.305138	-2.987000	3.534300	-10.556000	25.712693	0.000806	20.808329
1209.303235	-3.003700	3.532700	-10.610000	25.732312	0.000808	20.810965
1210.312575	-3.035600	3.530700	-10.716000	25.726107	0.000807	20.792405
1211.312837	-3.013200	3.531400	-10.639000	25.763650	0.000807	20.815891
1212.303828	-3.045000	3.530400	-10.748000	25.786302	0.000805	20.813989
1213.311542	-2.997600	3.531500	-10.585000	25.772171	0.000804	20.798372
1214.308506	-2.997600	3.529300	-10.578000	25.765115	0.000807	20.807405
1215.307530	-3.008000	3.528600	-10.613000	25.776352	0.000805	20.795933
1216.307775	-2.995100	3.529600	-10.570000	25.797569	0.000803	20.825779
1217.305597	-3.021800	3.528700	-10.661000	25.778092	0.000803	20.820440
1218.306643	-2.998100	3.528300	-10.577000	25.757721	0.000801	20.798081
1219.308116	-3.002900	3.528300	-10.594000	25.765506	0.000802	20.810642
1220.305199	-2.999400	3.529100	-10.584000	25.788802	0.000801	20.799904
1221.305432	-3.004400	3.527400	-10.597000	25.771317	0.000801	20.800833
1222.308289	-2.986900	3.528400	-10.538000	25.802423	0.000802	20.790827
1223.313478	-2.996300	3.526900	-10.566000	25.826349	0.000801	20.809645
1224.313158	-2.971300	3.528100	-10.482000	25.805899	0.000799	20.781990
1225.306506	-3.022100	3.525300	-10.653000	25.790898	0.000798	20.814337
1226.306465	-3.008600	3.524900	-10.604000	25.743147	0.000799	20.812366
1227.315749	-3.009600	3.525000	-10.607000	25.748659	0.000797	20.820747
1228.306414	-3.009200	3.525200	-10.606000	25.783492	0.000796	20.826813
1229.307366	-2.991200	3.525900	-10.546000	25.772635	0.000795	20.820649
1230.310400	-2.973700	3.525000	-10.482000	25.806346	0.000795	20.823217
1231.311334	-2.979800	3.526300	-10.506000	25.781561	0.000795	20.796898
1232.308839	-2.986300	3.524600	-10.524000	25.788985	0.000795	20.828062
1233.313080	-2.970600	3.524400	-10.469000	25.802526	0.000794	20.811794
1234.311906	-2.988200	3.523100	-10.526000	25.797383	0.000794	20.820852
1235.316654	-2.979400	3.523300	-10.497000	25.833974	0.000794	20.832478
1236.312599	-2.993200	3.522900	-10.544000	25.826403	0.000796	20.822027
1237.308663	-2.977100	3.523200	-10.488000	25.830670	0.000794	20.834848
1238.308938	-2.994200	3.522900	-10.547000	25.831142	0.000793	20.815408
1239.312066	-2.977500	3.522500	-10.488000	25.845573	0.000792	20.820421
1240.313321	-2.992500	3.519400	-10.531000	25.851420	0.000793	20.831984
1241.312409	-2.993700	3.520700	-10.539000	25.852879	0.000792	20.831080
1242.314224	-3.017200	3.519700	-10.618000	25.862093	0.000789	20.818525
1243.312750	-3.001500	3.520100	-10.565000	25.835808	0.000791	20.836216
1244.315483	-2.997500	3.519400	-10.549000	25.823033	0.000790	20.815323
1245.319510	-2.997300	3.520200	-10.549000	25.790715	0.000788	20.833593
1246.319605	-2.993700	3.520200	-10.537000	25.746392	0.000790	20.827004
1247.316990	-3.005900	3.520100	-10.580000	25.729545	0.000789	20.844695
1248.316616	-2.982000	3.518800	-10.492000	25.756201	0.000789	20.836857
1249.318854	-3.020000	3.519200	-10.627000	25.783819	0.000787	20.853219
1250.319130	-3.006200	3.518100	-10.574000	25.805710	0.000787	20.828268
1251.320837	-3.017100	3.515800	-10.605000	25.789533	0.000786	20.828613
1252.316550	-3.020600	3.515200	-10.616000	25.799121	0.000787	20.856261
1253.317326	-3.027400	3.515200	-10.640000	25.740863	0.000786	20.821452
1254.322666	-2.978800	3.517400	-10.476000	25.705980	0.000786	20.851372
1255.319920	-2.971300	3.517200	-10.449000	25.705778	0.000785	20.848798
1256.319937	-2.978500	3.515400	-10.470000	25.695294	0.000784	20.834001
1257.324703	-2.999100	3.515300	-10.542000	25.716409	0.000784	20.822019
1258.320049	-3.010900	3.514500	-10.580000	25.729534	0.000783	20.829038
1259.321999	-2.980800	3.514200	-10.472000	25.753879	0.000780	20.820300
1260.325943	-2.993800	3.513500	-10.518000	25.766870	0.000779	20.850418
1261.322137	-2.991800	3.513000	-10.510000	25.769947	0.000781	20.841656
1262.322841	-2.972300	3.513000	-10.439000	25.801874	0.000778	20.831526
1263.327547	-3.005400	3.511000	-10.550000	25.827038	0.000782	20.821243
1264.324375	-3.009300	3.512600	-10.569000	25.815489	0.000780	20.861323
1265.324358	-2.986700	3.513200	-10.491000	25.811167	0.000780	20.853663
1266.328031	-3.016600	3.510100	-10.585000	25.754946	0.000777	20.857406
1267.323267	-3.017500	3.512500	-10.598000	25.715170	0.000778	20.861076
1268.323219	-2.981600	3.512600	-10.472000	25.698500	0.000778	20.844808
1269.327559	-3.028600	3.509900	-10.629000	25.694601	0.000778	20.859857
1270.322798	-2.990400	3.511300	-10.499000	25.716783	0.000777	20.873601
1271.325963	-2.997200	3.511000	-10.522000	25.709928	0.000776	20.855337
1272.329098	-2.992800	3.510800	-10.504000	25.721834	0.000777	20.843114
1273.326321	-3.020300	3.509400	-10.597000	25.681708	0.000774	20.842640
1274.325021	-3.011200	3.509000	-10.565000	25.726647	0.000775	20.845578
1275.330789	-2.994800	3.509100	-10.508000	25.745357	0.000775	20.857733
1276.326688	-2.993000	3.508800	-10.501000	25.766256	0.000774	20.853120
1277.325615	-3.014000	3.508900	-10.575000	25.762848	0.000774	20.838792
1278.327897	-2.985200	3.507600	-10.470000	25.766482	0.000772	20.870890
1279.324932	-2.984200	3.509800	-10.472000	25.779847	0.000772	20.862504
1280.327810	-2.992500	3.507900	-10.496000	25.802603	0.000771	20.853594
1281.330962	-3.010400	3.505700	-10.552000	25.825879	0.000772	20.861328
1282.328575	-2.998100	3.506000	-10.511000	25.794161	0.000772	20.867873
1283.325990	-2.983100	3.506100	-10.458000	25.757985	0.000769	20.852399
1284.328856	-2.983100	3.506700	-10.460000	25.714979	0.000771	20.863255
1285.329089	-2.999300	3.504600	-10.510000	25.689586	0.000771	20.861931
1286.327962	-2.980000	3.505000	-10.444000	25.640862	0.000768	20.867522
1287.337408	-2.999600	3.504100	-10.509000	25.629207	0.000767	20.879997
1288.327075	-3.016400	3.502700	-10.564000	25.644216	0.000767	20.879424
1289.328118	-2.999600	3.503400	-10.508000	25.684147	0.000766	20.857892
1290.333113	-2.976000	3.504300	-10.427000	25.712024	0.000767	20.872614
1291.330926	-2.988100	3.503200	-10.467000	25.710657	0.000766	20.868396
1292.328190	-3.005000	3.502400	-10.523000	25.701216	0.000765	20.891628
1293.331773	-2.971400	3.502200	-10.405000	25.681836	0.000765	20.855570
1294.329030	-3.016300	3.502600	-10.564000	25.662412	0.000764	20.868303
1295.330086	-3.003900	3.502000	-10.519000	25.634504	0.000765	20.867774
1296.329956	-2.984900	3.501700	-10.451000	25.663105	0.000764	20.879904
1297.327947	-3.003500	3.500100	-10.511000	25.637765	0.000764	20.863937
1298.330525	-3.027400	3.499900	-10.594000	25.673939	0.000761	20.865656
1299.329277	-2.987600	3.501600	-10.459000	25.716824	0.000761	20.889288
1300.333287	-3.016600	3.497500	-10.548000	25.701098	0.000762	20.862115
1301.327890	-2.990400	3.498600	-10.460000	25.712109	0.000759	20.886449
1302.334935	-3.004800	3.499200	-10.512000	25.700282	0.000762	20.876942
1303.328768	-2.987700	3.498700	-10.451000	25.738544	0.000761	20.872699
1304.332751	-2.998700	3.498400	-10.489000	25.763219	0.000759	20.889896
1305.331428	-3.019800	3.498200	-10.562000	25.811195	0.000761	20.883560
1306.329511	-3.009900	3.496900	-10.523000	25.821658	0.000760	20.889329
1307.344275	-2.998600	3.497300	-10.486000	25.822180	0.000758	20.871836
1308.333189	-2.995000	3.497000	-10.472000	25.841832	0.000757	20.872612
1309.332383	-2.983500	3.497300	-10.432000	25.861160	0.000760	20.872113
1310.328707	-3.016100	3.497000	-10.545000	25.863575	0.000758	20.885443
1311.335409	-2.999400	3.494600	-10.480000	25.825691	0.000755	20.876312
1312.329573	-2.991800	3.494400	-10.453000	25.823588	0.000755	20.884629
1313.332907	-3.004100	3.494900	-10.497000	25.805896	0.000755	20.868756
1314.331611	-3.014000	3.493700	-10.529000	25.783613	0.000754	20.861545
1315.330826	-3.010300	3.493300	-10.514000	25.791618	0.000754	20.864371
1316.330436	-3.022600	3.493700	-10.559000	25.777463	0.000752	20.878126
1317.334575	-3.003400	3.492900	-10.489000	25.801733	0.000754	20.862203
1318.331745	-2.995800	3.492300	-10.462000	25.803596	0.000753	20.846532
1319.331020	-2.993500	3.493300	-10.455000	25.798030	0.000751	20.869863
1320.335601	-3.013000	3.491400	-10.518000	25.784519	0.000752	20.882843
1321.329133	-3.003600	3.490400	-10.482000	25.763730	0.000752	20.857695
1322.333341	-3.000200	3.490400	-10.470000	25.766085	0.000751	20.845362
1323.335363	-3.006200	3.491000	-10.493000	25.753443	0.000749	20.863483
1324.333576	-2.993600	3.490700	-10.449000	25.783665	0.000750	20.860650
1325.339593	-3.000000	3.491000	-10.472000	25.812134	0.000748	20.857953
1326.335434	-3.004000	3.490700	-10.485000	25.803864	0.000750	20.864818
1327.338303	-3.002800	3.490100	-10.479000	25.792462	0.000748	20.853365
1328.333230	-3.002500	3.489600	-10.476000	25.748862	0.000748	20.853192
1329.335074	-2.987200	3.490800	-10.425000	25.731298	0.000747	20.869688
1330.332926	-3.018300	3.488200	-10.527000	25.724847	0.000746	20.847089
1331.334760	-3.023300	3.487500	-10.543000	25.740027	0.000746	20.850482
1332.334419	-3.005500	3.488000	-10.482000	25.741424	0.000747	20.832920
1333.332057	-3.008800	3.485600	-10.485000	25.786839	0.000745	20.852458
1334.338353	-3.010500	3.488200	-10.500000	25.814241	0.000745	20.848216
1335.335103	-3.045900	3.485600	-10.614000	25.808459	0.000745	20.838141
1336.333575	-3.005000	3.487100	-10.478000	25.800416	0.000744	20.845708
1337.335114	-2.983900	3.486800	-10.403000	25.828413	0.000742	20.854391
1338.344765	-3.003000	3.484900	-10.464000	25.831073	0.000743	20.829563
1339.335649	-3.008100	3.485000	-10.482000	25.843424	0.000744	20.852875
1340.337743	-3.037500	3.484600	-10.583000	25.861955	0.000741	20.840197
1341.338607	-3.052100	3.482900	-10.628000	25.900315	0.000741	20.833688
1342.338669	-3.027500	3.483100	-10.544000	25.926146	0.000742	20.847309
1343.337834	-3.018600	3.481900	-10.510000	25.903055	0.000739	20.833121
1344.340530	-3.005900	3.482000	-10.464000	25.906211	0.000740	20.836292
1345.349533	-3.022300	3.482600	-10.525000	25.874784	0.000741	20.830799
1346.334298	-2.980300	3.483700	-10.382000	25.859809	0.000740	20.837566
1347.337857	-3.023700	3.480600	-10.522000	25.899628	0.000738	20.839161
1348.338867	-3.017300	3.481100	-10.503000	25.858491	0.000740	20.829130
1349.340588	-3.012100	3.481500	-10.485000	25.840456	0.000739	20.828084
1350.337065	-3.005000	3.480000	-10.457000	25.823267	0.000738	20.839266
1351.335132	-3.028900	3.479400	-10.538000	25.829355	0.000739	20.827363
1352.334132	-3.018600	3.478900	-10.500000	25.819467	0.000737	20.813163
1353.335133	-2.999300	3.480600	-10.439000	25.802179	0.000735	20.830885
1354.334350	-2.997500	3.479900	-10.430000	25.772889	0.000737	20.839869
1355.337252	-3.004600	3.479300	-10.452000	25.793088	0.000736	20.848779
1356.336315	-3.029700	3.478700	-10.537000	25.806869	0.000734	20.827535
1357.339285	-3.012300	3.477200	-10.473000	25.777363	0.000736	20.837726
1358.335835	-2.982700	3.478000	-10.372000	25.790433	0.000735	20.835207
1359.340069	-2.982800	3.476500	-10.369000	25.761167	0.000735	20.835207
1360.338743	-3.005600	3.477000	-10.449000	25.733659	0.000735	20.819431
1361.340219	-2.989000	3.478100	-10.395000	25.715500	0.000733	20.824899
1362.338659	-3.022100	3.474400	-10.499000	25.684987	0.000733	20.817485
1363.339720	-3.034100	3.474200	-10.541000	25.683148	0.000732	20.822276
1364.336953	-3.008900	3.475000	-10.455000	25.684742	0.000732	20.821506
1365.337983	-2.987500	3.476300	-10.383000	25.645687	0.000730	20.815471
1366.337983	-3.015000	3.475000	-10.476000	25.700394	0.000730	20.840546
1367.339862	-2.989200	3.475100	-10.387000	25.695943	0.000730	20.841291
1368.337649	-2.988900	3.475100	-10.386000	25.686655	0.000730	20.816789
1369.343015	-3.021200	3.472900	-10.492000	25.729637	0.000729	20.824874
1370.341501	-3.030900	3.472600	-10.524000	25.752443	0.000729	20.827867
1371.345350	-3.015100	3.472900	-10.470000	25.808389	0.000729	20.826691
1372.341547	-2.993700	3.472300	-10.394000	25.831794	0.000728	20.808951
1373.339233	-3.017100	3.471600	-10.472000	25.804588	0.000727	20.807701
1374.343166	-2.960700	3.472000	-10.278000	25.784493	0.000727	20.829240
1375.340788	-2.969400	3.471700	-10.308000	25.757109	0.000728	20.808372
1376.340374	-2.978100	3.472300	-10.339000	25.763595	0.000727	20.801611
1377.341798	-2.989600	3.471100	-10.376000	25.787896	0.000724	20.825546
1378.340598	-2.983200	3.470100	-10.351000	25.809885	0.000724	20.828193
1379.342028	-2.994700	3.470300	-10.392000	25.818878	0.000724	20.813520
1380.348870	-3.006100	3.470300	-10.432000	25.813759	0.000725	20.810749
1381.344475	-3.012700	3.469600	-10.451000	25.816168	0.000723	20.818859
1382.346771	-2.991700	3.468900	-10.377000	25.811050	0.000725	20.823200
1383.349722	-3.011200	3.467400	-10.440000	25.819251	0.000721	20.801567
1384.346828	-2.991400	3.466300	-10.368000	25.837936	0.000722	20.808008
1385.349768	-2.963300	3.469700	-10.279000	25.864663	0.000721	20.800718
1386.345335	-3.038900	3.467000	-10.535000	25.856718	0.000719	20.801746
1387.349346	-3.013600	3.465700	-10.443000	25.859623	0.000721	20.805139
1388.346874	-2.996100	3.467300	-10.387000	25.866011	0.000720	20.797804
1389.350583	-2.990700	3.465800	-10.364000	25.883794	0.000719	20.785797
1390.362088	-3.002100	3.465300	-10.401000	25.921405	0.000720	20.794184
1391.353578	-2.992400	3.465500	-10.369000	25.890352	0.000720	20.808507
1392.348685	-2.980400	3.465400	-10.326000	25.894281	0.000717	20.784953
1393.353458	-3.009700	3.464500	-10.426000	25.908495	0.000718	20.803500
1394.355565	-2.993800	3.463200	-10.368000	25.863086	0.000716	20.814781
1395.351023	-3.003900	3.462700	-10.400000	25.823069	0.000719	20.797816
1396.352455	-2.980700	3.463200	-10.322000	25.809277	0.000716	20.798660
1397.349470	-2.979900	3.464200	-10.322000	25.812286	0.000716	20.802157
1398.356002	-3.002400	3.462500	-10.394000	25.785061	0.000713	20.799940
1399.354427	-2.997800	3.461800	-10.377000	25.821389	0.000717	20.807981
1400.353183	-3.010600	3.461100	-10.420000	25.842323	0.000713	20.783492
1401.353341	-2.997500	3.461000	-10.373000	25.846577	0.000713	20.800093
1402.357328	-2.995100	3.462100	-10.369000	25.842826	0.000712	20.788264
1403.354150	-3.006200	3.458700	-10.396000	25.861117	0.000711	20.801897
1404.351539	-3.001700	3.459400	-10.384000	25.865438	0.000712	20.781108
1405.356583	-2.997900	3.460700	-10.373000	25.852921	0.000710	20.789397
1406.350132	-3.008300	3.459500	-10.406000	25.859976	0.000708	20.785579
1407.352844	-2.979600	3.459700	-10.307000	25.912649	0.000709	20.807672
1408.374699	-3.006300	3.458900	-10.396000	25.932594	0.000709	20.786933
1409.355514	-2.995000	3.459100	-10.359000	25.935451	0.000709	20.793121
1410.350514	-2.999000	3.458000	-10.369000	25.962266	0.000708	20.777861
1411.358589	-2.993100	3.459100	-10.350000	25.987746	0.000709	20.793503
1412.352873	-3.014400	3.456800	-10.420000	25.982688	0.000707	20.782258
1413.351532	-2.987500	3.457000	-10.327000	25.967659	0.000707	20.785176
1414.357164	-3.004900	3.455200	-10.381000	25.998238	0.000706	20.783655
1415.351011	-2.977300	3.456100	-10.289000	25.979016	0.000708	20.779043
1416.352046	-2.978700	3.455300	-10.290000	25.990343	0.000705	20.795638
1417.356024	-3.016100	3.453900	-10.417000	26.015209	0.000705	20.797387
1418.357743	-3.034300	3.451900	-10.472000	26.021540	0.000705	20.770083
1419.358291	-3.002000	3.455100	-10.371000	26.078323	0.000703	20.777349
1420.361230	-2.983500	3.454100	-10.303000	26.084016	0.000705	20.791604
1421.357753	-3.023300	3.451600	-10.433000	26.026915	0.000703	20.768370
1422.354317	-2.991400	3.452800	-10.328000	26.022097	0.000702	20.798618
1423.364653	-2.993400	3.451900	-10.332000	25.989263	0.000701	20.777010
1424.354490	-2.986800	3.452500	-10.311000	25.919621	0.000704	20.777218
1425.359529	-3.012400	3.451800	-10.397000	25.929385	0.000701	20.769484
1426.358310	-3.008000	3.450700	-10.379000	25.926921	0.000699	20.775543
1427.359869	-2.982700	3.450400	-10.290000	25.942502	0.000701	20.780291
1428.355038	-3.010000	3.449500	-10.382000	25.974773	0.000701	20.778572
1429.358176	-2.973000	3.451300	-10.260000	25.994325	0.000700	20.772611
1430.360058	-3.009100	3.449500	-10.379000	25.927852	0.000700	20.780746
1431.357574	-2.978600	3.449900	-10.274000	25.927184	0.000699	20.772014
1432.366481	-3.005400	3.448400	-10.363000	25.948177	0.000697	20.769871
1433.361143	-3.023200	3.446000	-10.416000	25.985039	0.000698	20.768497
1434.357479	-2.978100	3.448900	-10.270000	25.985884	0.000694	20.781201
1435.362559	-2.990800	3.448100	-10.311000	25.995973	0.000696	20.751981
1436.359661	-2.994000	3.447500	-10.321000	26.010799	0.000696	20.775413
1437.365077	-3.019400	3.447000	-10.406000	26.022952	0.000694	20.778140
1438.360909	-2.996900	3.446900	-10.328000	26.034347	0.000695	20.758293
1439.362650	-3.022200	3.445300	-10.411000	26.035866	0.000697	20.787322
1440.360703	-3.000800	3.445900	-10.340000	26.030626	0.000694	20.761668
1441.363247	-2.990300	3.445300	-10.302000	25.948581	0.000693	20.762690
1442.363021	-2.990800	3.445200	-10.303000	25.893482	0.000693	20.752856
1443.360038	-2.980800	3.445100	-10.269000	25.837088	0.000694	20.788665
1444.359609	-3.016400	3.443600	-10.386000	25.823233	0.000693	20.749616
1445.361419	-3.001000	3.444100	-10.335000	25.803127	0.000691	20.748859
1446.359313	-3.012700	3.442100	-10.369000	25.784104	0.000692	20.778590
1447.363074	-3.003700	3.443700	-10.342000	25.806830	0.000692	20.769175
1448.362195	-3.017900	3.441600	-10.385000	25.807473	0.000690	20.758916
1449.362041	-3.009600	3.441700	-10.357000	25.864189	0.000692	20.761360
1450.360680	-3.018500	3.440500	-10.384000	25.881230	0.000691	20.750978
1451.362022	-2.976600	3.441300	-10.242000	25.908899	0.000693	20.747006
1452.363166	-3.013900	3.440600	-10.369000	25.888260	0.000691	20.755196
1453.362013	-3.010700	3.440200	-10.357000	25.856380	0.000689	20.759206
1454.364869	-3.031000	3.440500	-10.428000	25.796679	0.000689	20.770832
1455.362072	-3.004700	3.440200	-10.335000	25.761522	0.000688	20.763018
1456.361219	-2.997900	3.439300	-10.309000	25.756979	0.000687	20.746600
1457.362586	-2.984800	3.439800	-10.266000	25.778018	0.000687	20.758726
1458.366938	-3.020500	3.438000	-10.383000	25.777154	0.000686	20.754064
1459.363834	-3.018300	3.439000	-10.379000	25.799555	0.000688	20.776566
1460.363169	-2.969100	3.439200	-10.211000	25.791156	0.000686	20.750111
1461.369701	-2.972600	3.438800	-10.221000	25.810130	0.000686	20.744988
1462.363096	-2.996800	3.437000	-10.299000	25.854101	0.000685	20.737949
1463.364340	-2.965600	3.437600	-10.194000	25.898670	0.000686	20.740523
1464.364307	-3.003000	3.436400	-10.318000	25.915907	0.000685	20.748357
1465.363010	-3.000100	3.436200	-10.308000	25.882102	0.000682	20.769398
1466.364019	-2.988500	3.436100	-10.268000	25.833008	0.000684	20.753271
1467.363443	-2.998900	3.434700	-10.298000	25.848510	0.000683	20.754145
1468.364272	-2.968400	3.435800	-10.197000	25.843294	0.000683	20.771191
1469.365722	-2.968200	3.435700	-10.194000	25.864908	0.000680	20.753074
1470.364689	-2.982000	3.435700	-10.245000	25.892057	0.000682	20.749053
1471.366900	-2.993600	3.433200	-10.277000	25.914136	0.000680	20.737568
1472.368040	-3.010500	3.432800	-10.334000	25.958354	0.000680	20.747378
1473.366776	-3.018900	3.432100	-10.360000	25.976368	0.000680	20.759786
1474.368634	-2.989400	3.433400	-10.263000	26.002565	0.000678	20.746276
1475.367269	-2.995300	3.434900	-10.287000	25.996165	0.000680	20.737475
1476.366373	-3.007900	3.432000	-10.321000	25.984563	0.000678	20.744311
1477.366073	-2.981000	3.432100	-10.230000	26.030065	0.000676	20.741189
1478.369077	-2.991400	3.432700	-10.267000	25.970778	0.000675	20.727142
1479.369812	-3.004800	3.432100	-10.311000	25.989779	0.000677	20.731533
1480.366627	-2.981900	3.432500	-10.234000	25.980861	0.000676	20.745333
1481.368806	-2.995600	3.429900	-10.272000	25.982178	0.000676	20.748554
1482.365390	-3.003000	3.430600	-10.301000	26.002196	0.000676	20.728361
1483.364552	-2.990700	3.431200	-10.261000	25.976319	0.000674	20.750253
1484.366203	-3.000600	3.429800	-10.291000	25.945641	0.000674	20.743141
1485.369806	-3.029100	3.429000	-10.385000	25.959696	0.000674	20.739243
1486.366824	-2.984000	3.429700	-10.234000	25.946757	0.000671	20.744736
1487.367472	-3.008900	3.427700	-10.311000	25.960971	0.000672	20.744317
1488.367997	-2.997600	3.426800	-10.271000	26.011261	0.000672	20.728460
1489.367880	-3.008800	3.428200	-10.314000	26.046533	0.000671	20.747778
1490.370377	-3.018500	3.424200	-10.335000	26.092309	0.000670	20.748252
1491.367758	-3.013100	3.426900	-10.323000	26.094423	0.000668	20.759386
1492.371103	-2.999500	3.426100	-10.276000	26.099859	0.000669	20.749675
1493.367466	-2.978700	3.425700	-10.203000	26.079586	0.000670	20.743055
1494.376290	-2.989700	3.425400	-10.240000	26.034754	0.000668	20.735943
1495.369162	-2.983900	3.425700	-10.221000	25.978697	0.000667	20.744108
1496.369281	-3.011300	3.423400	-10.307000	25.991582	0.000669	20.735241
1497.366863	-2.991200	3.425100	-10.245000	25.995387	0.000666	20.734797
1498.369461	-2.996800	3.423600	-10.258000	25.987836	0.000667	20.750445
1499.372490	-3.004900	3.424200	-10.287000	25.994015	0.000666	20.751437
1500.370632	-2.987800	3.423200	-10.227000	26.010189	0.000665	20.721693
1501.373101	-2.989100	3.422300	-10.229000	26.025310	0.000664	20.720289
1502.375453	-2.979100	3.422300	-10.194000	26.043794	0.000665	20.744078
1503.372181	-3.002900	3.421400	-10.272000	26.047373	0.000665	20.740561
1504.374015	-3.016400	3.422400	-10.322000	26.061506	0.000664	20.756184
1505.378314	-3.018400	3.419700	-10.321000	26.064245	0.000663	20.749453
1506.375136	-2.993200	3.421200	-10.240000	26.077685	0.000662	20.710798
1507.373381	-3.002800	3.420000	-10.269000	26.052693	0.000661	20.736423
1508.380582	-3.021500	3.419100	-10.330000	26.057467	0.000662	20.719881
1509.371185	-3.012100	3.418600	-10.295000	26.044051	0.000661	20.727265
1510.371653	-2.995900	3.419100	-10.242000	26.094846	0.000662	20.747482
1511.377704	-3.014600	3.418500	-10.305000	26.104235	0.000662	20.735578
1512.371896	-3.006900	3.418200	-10.277000	26.126070	0.000659	20.728121
1513.376503	-3.009300	3.417200	-10.282000	26.134913	0.000660	20.733213
1514.375083	-2.991000	3.417300	-10.221000	26.125298	0.000661	20.741096
1515.376021	-3.001400	3.417800	-10.257000	26.103468	0.000662	20.731489
1516.375353	-3.006000	3.415500	-10.265000	26.080896	0.000658	20.727301
1517.379651	-2.996400	3.415800	-10.234000	26.091701	0.000659	20.743848
1518.381132	-3.015000	3.414900	-10.295000	26.085468	0.000659	20.726205
1519.384636	-3.020600	3.415700	-10.315000	26.121804	0.000660	20.729524
1520.383348	-3.006300	3.415600	-10.267000	26.111422	0.000659	20.723834
1521.377497	-2.992100	3.414600	-10.215000	26.118924	0.000658	20.729949
1522.381416	-3.015300	3.414600	-10.295000	26.110798	0.000660	20.702342
1523.379788	-2.996300	3.413600	-10.226000	26.122576	0.000658	20.730300
1524.379982	-3.011500	3.413800	-10.280000	26.111502	0.000659	20.711585
1525.381198	-3.018800	3.413300	-10.304000	26.110626	0.000656	20.725404
1526.382881	-3.007800	3.414200	-10.267000	26.105441	0.000656	20.726833
1527.382952	-2.999100	3.412000	-10.232000	26.107175	0.000658	20.734740
1528.379605	-2.999100	3.412700	-10.234000	26.056810	0.000656	20.734869
1529.384363	-2.983300	3.413900	-10.183000	26.047764	0.000655	20.712503
1530.378864	-2.971300	3.412100	-10.137000	26.034005	0.000655	20.720964
1531.383988	-2.994900	3.411000	-10.215000	26.021036	0.000653	20.724056
1532.384988	-2.987000	3.410600	-10.186000	26.039024	0.000654	20.703247
1533.384973	-2.996000	3.410900	-10.218000	26.047237	0.000653	20.708180
1534.381361	-3.004400	3.409400	-10.242000	26.071845	0.000652	20.725319
1535.391907	-3.026000	3.409200	-10.316000	26.098124	0.000651	20.725645
1536.383150	-2.992700	3.410500	-10.205000	26.123233	0.000651	20.730960
1537.385498	-2.990900	3.410400	-10.200000	26.158373	0.000651	20.718379
1538.385481	-3.027000	3.407400	-10.312000	26.135944	0.000651	20.721920
1539.380193	-2.982300	3.408200	-10.163000	26.135692	0.000649	20.720720
1540.383208	-3.002700	3.408700	-10.234000	26.155457	0.000650	20.725406
1541.390152	-3.001200	3.407600	-10.226000	26.153122	0.000648	20.731595
1542.383049	-3.000400	3.407300	-10.222000	26.180386	0.000648	20.721533
1543.384492	-2.983500	3.407700	-10.166000	26.171072	0.000648	20.730666
1544.387601	-3.004200	3.405800	-10.229000	26.194083	0.000647	20.737194
1545.383544	-3.008700	3.406700	-10.249000	26.171832	0.000646	20.727637
1546.384311	-2.998800	3.408100	-10.219000	26.183874	0.000645	20.748747
1547.387252	-2.999400	3.405600	-10.214000	26.153203	0.000644	20.752067
1548.383748	-3.016700	3.406100	-10.274000	26.135817	0.000645	20.726061
1549.385007	-3.001000	3.404800	-10.216000	26.141021	0.000645	20.718961
1550.388970	-3.001000	3.403600	-10.213000	26.130762	0.000645	20.707704
1551.385628	-2.981000	3.405000	-10.149000	26.143975	0.000645	20.739949
1552.393727	-2.998700	3.403800	-10.206000	26.145091	0.000644	20.722577
1553.390753	-2.999100	3.404000	-10.208000	26.173918	0.000644	20.743958
1554.388448	-2.990600	3.403000	-10.176000	26.135170	0.000642	20.736791
1555.385656	-2.997000	3.402800	-10.197000	26.131100	0.000642	20.732701
1556.391440	-2.994900	3.402100	-10.188000	26.145281	0.000641	20.733674
1557.391037	-3.013700	3.400900	-10.248000	26.143314	0.000642	20.733595
1558.386906	-3.037500	3.399600	-10.325000	26.138045	0.000641	20.728773
1559.391519	-3.016700	3.399900	-10.256000	26.137395	0.000642	20.728595
1560.389238	-2.984300	3.401900	-10.152000	26.105883	0.000638	20.735338
1561.396486	-3.005800	3.399800	-10.219000	26.049199	0.000641	20.737654
1562.392409	-2.988600	3.400100	-10.160000	26.040134	0.000640	20.724752
1563.390584	-2.980800	3.400200	-10.134000	26.039155	0.000638	20.747003
1564.390407	-3.014500	3.398600	-10.244000	26.083466	0.000639	20.748850
1565.399625	-3.007800	3.399300	-10.223000	26.087063	0.000639	20.742033
1566.391737	-3.017600	3.397800	-10.253000	26.111847	0.000639	20.742280
1567.392464	-2.989600	3.399300	-10.161000	26.145940	0.000637	20.752355
1568.399352	-3.026000	3.396900	-10.278000	26.138838	0.000635	20.749011
1569.393554	-3.013600	3.398000	-10.238000	26.143526	0.000639	20.755619
1570.390749	-2.990300	3.398700	-10.162000	26.122193	0.000636	20.747934
1571.394779	-2.984600	3.397500	-10.139000	26.122684	0.000636	20.739418
1572.397591	-3.019300	3.396200	-10.253000	26.128862	0.000637	20.724762
1573.394486	-3.001000	3.395900	-10.190000	26.119198	0.000636	20.755356
1574.397688	-2.985900	3.396500	-10.140000	26.043172	0.000634	20.731124
1575.397714	-3.009900	3.394300	-10.216000	26.014251	0.000635	20.739524
1576.393099	-3.032800	3.393800	-10.292000	26.015244	0.000635	20.752376
1577.400797	-3.003000	3.394500	-10.193000	26.043180	0.000635	20.745831
1578.392435	-3.005300	3.393900	-10.198000	26.080614	0.000630	20.758313
1579.393982	-2.979900	3.394300	-10.113000	26.106386	0.000629	20.762397
1580.396231	-3.001100	3.393800	-10.185000	26.144529	0.000632	20.746195
1581.393383	-2.982800	3.393200	-10.120000	26.168687	0.000631	20.765255
1582.396301	-3.003600	3.391300	-10.185000	26.207974	0.000629	20.743567
1583.396402	-3.017900	3.392400	-10.236000	26.233271	0.000629	20.744331
1584.394242	-2.994600	3.392000	-10.157000	26.246128	0.000627	20.756303
1585.395436	-3.002600	3.391500	-10.183000	26.261349	0.000626	20.755953
1586.395241	-3.011800	3.390900	-10.212000	26.272348	0.000627	20.748514
1587.392000	-2.998400	3.391100	-10.166000	26.279199	0.000627	20.743545
1588.395546	-3.037500	3.389200	-10.294000	26.281100	0.000624	20.753990
1589.396970	-2.977100	3.391600	-10.097000	26.282957	0.000626	20.751115
1590.398654	-3.025900	3.389100	-10.254000	26.313428	0.000626	20.743805
1591.398432	-3.012300	3.390600	-10.213000	26.298699	0.000627	20.778789
1592.401319	-3.002300	3.389300	-10.175000	26.272198	0.000626	20.773494
1593.396864	-3.002600	3.389300	-10.175000	26.296555	0.000624	20.762884
1594.395598	-3.002600	3.389300	-10.175000	26.288259	0.000625	20.759762
1595.400355	-3.021600	3.387100	-10.234000	26.293847	0.000625	20.748308
1596.398993	-2.999200	3.388100	-10.161000	26.288111	0.000623	20.775261
1597.396559	-2.977100	3.387700	-10.084000	26.326813	0.000620	20.747773
1598.403083	-2.998600	3.388300	-10.158000	26.319962	0.000621	20.775028
1599.398735	-3.005400	3.386400	-10.176000	26.303542	0.000619	20.762793
1600.397835	-2.996200	3.386900	-10.147000	26.249203	0.000621	20.772671
1601.400002	-3.039800	3.384800	-10.288000	26.219748	0.000621	20.747337
1602.397988	-2.995400	3.387100	-10.145000	26.227714	0.000621	20.775258
1603.399468	-3.011400	3.384500	-10.190000	26.262085	0.000617	20.764279
1604.399078	-2.982600	3.385700	-10.097000	26.265480	0.000617	20.763898
1605.396566	-2.996000	3.383000	-10.134000	26.268011	0.000618	20.782089
1606.396831	-3.004700	3.383200	-10.165000	26.266026	0.000616	20.774403
1607.399491	-2.998100	3.384700	-10.145000	26.252013	0.000614	20.787348
1608.401419	-3.011900	3.382500	-10.187000	26.201550	0.000617	20.787847
1609.400928	-2.998800	3.382800	-10.144000	26.201313	0.000615	20.753943
1610.406737	-3.021000	3.383000	-10.219000	26.153930	0.000613	20.755168
1611.406220	-2.977500	3.383300	-10.073000	26.139921	0.000614	20.779498
1612.401552	-3.011000	3.381200	-10.179000	26.089772	0.000612	20.789327
1613.408075	-3.003400	3.381200	-10.153000	26.090239	0.000612	20.757078
1614.408006	-2.985800	3.382700	-10.098000	26.049704	0.000613	20.773249
1615.401233	-2.980400	3.381700	-10.077000	26.023240	0.000614	20.770843
1616.405704	-2.990100	3.381300	-10.109000	26.006851	0.000611	20.788041
1617.406950	-2.993900	3.381100	-10.122000	26.002770	0.000611	20.772561
1618.403109	-3.001300	3.378700	-10.139000	26.006221	0.000611	20.780296
1619.408126	-2.972100	3.379800	-10.044000	25.966498	0.000611	20.778320
1620.409642	-3.021200	3.378200	-10.204000	25.990568	0.000609	20.795390
1621.404827	-2.986900	3.378300	-10.090000	25.998915	0.000609	20.780068
1622.410060	-3.002400	3.378600	-10.142000	26.006584	0.000608	20.782083
1623.408832	-3.006500	3.377400	-10.153000	26.027580	0.000608	20.786583
1624.407735	-2.996900	3.377800	-10.121000	26.015771	0.000608	20.797952
1625.408346	-3.012600	3.377500	-10.173000	26.018928	0.000608	20.792588
1626.413183	-2.997600	3.376000	-10.119000	25.977023	0.000605	20.766134
1627.411621	-3.004600	3.375600	-10.141000	26.006033	0.000607	20.788642
1628.413824	-2.998100	3.375100	-10.118000	26.030101	0.000606	20.777262
1629.410544	-3.002200	3.375300	-10.131000	26.057276	0.000605	20.771849
1630.405871	-2.987400	3.375100	-10.082000	26.069516	0.000605	20.795052
1631.408814	-3.018500	3.373300	-10.181000	26.052601	0.000603	20.797023
1632.408792	-2.992700	3.375700	-10.101000	26.051515	0.000605	20.795932
1633.407355	-2.998300	3.376300	-10.122000	26.051087	0.000603	20.802614
1634.421061	-3.007700	3.373300	-10.145000	26.029733	0.000602	20.772624
1635.411943	-2.984100	3.375000	-10.071000	26.078212	0.000601	20.801419
1636.412509	-2.999200	3.374000	-10.118000	26.090934	0.000600	20.780537
1637.412416	-3.002800	3.373800	-10.130000	26.070072	0.000599	20.788499
1638.410502	-2.975800	3.373800	-10.038000	26.077249	0.000600	20.790020
1639.406512	-2.983000	3.373100	-10.061000	26.119548	0.000599	20.798382
1640.416055	-2.992000	3.372300	-10.089000	26.146500	0.000600	20.776626
1641.413230	-2.990300	3.372500	-10.084000	26.177073	0.000599	20.789330
1642.411670	-3.010000	3.371200	-10.146000	26.179978	0.000598	20.793197
1643.412059	-3.008200	3.370700	-10.139000	26.225074	0.000597	20.799632
1644.411963	-2.978700	3.370900	-10.040000	26.247630	0.000596	20.795746
1645.407983	-3.014700	3.369500	-10.157000	26.245846	0.000595	20.783048
1646.415295	-2.985000	3.370400	-10.060000	26.288929	0.000595	20.796472
1647.412897	-3.008100	3.369300	-10.134000	26.283071	0.000595	20.788214
1648.411040	-2.983900	3.369500	-10.053000	26.277218	0.000596	20.780436
1649.412560	-2.997800	3.370200	-10.102000	26.263928	0.000592	20.798848
1650.410435	-3.009600	3.367700	-10.135000	26.310962	0.000595	20.800597
1651.413908	-3.014700	3.369500	-10.156000	26.307611	0.000595	20.789642
1652.416589	-2.992300	3.368300	-10.077000	26.279596	0.000593	20.796576
1653.412561	-3.006200	3.366500	-10.119000	26.262843	0.000592	20.793016
1654.410439	-2.998100	3.366600	-10.093000	26.218766	0.000592	20.795189
1655.411085	-3.005400	3.366600	-10.117000	26.151437	0.000593	20.788699
1656.415287	-3.021700	3.365400	-10.168000	26.141178	0.000594	20.802099
1657.412171	-3.002200	3.365900	-10.104000	26.161597	0.000591	20.799383
1658.414295	-3.016900	3.366900	-10.156000	26.200994	0.000590	20.803409
1659.413236	-2.997300	3.365500	-10.087000	26.178388	0.000591	20.805349
1660.418588	-3.001800	3.365100	-10.100000	26.227240	0.000591	20.787110
1661.415196	-3.008300	3.364200	-10.119000	26.299631	0.000590	20.811968
1662.417640	-3.017400	3.362800	-10.146000	26.303277	0.000589	20.815159
1663.419067	-3.012000	3.364600	-10.133000	26.348373	0.000589	20.799788
1664.416737	-2.970800	3.364500	-9.994400	26.388726	0.000590	20.805730
1665.416440	-3.002000	3.362900	-10.094000	26.401739	0.000589	20.793679
1666.415669	-3.025100	3.361400	-10.167000	26.383959	0.000589	20.793353
1667.416978	-3.007000	3.363200	-10.113000	26.448791	0.000588	20.803513
1668.417761	-3.016600	3.361700	-10.140000	26.438988	0.000589	20.798402
1669.418568	-2.996900	3.361900	-10.075000	26.435760	0.000584	20.794682
1670.415497	-2.990200	3.362400	-10.053000	26.394043	0.000585	20.805859
1671.416073	-3.022200	3.360500	-10.154000	26.386214	0.000584	20.816956
1672.422813	-2.992500	3.361500	-10.057000	26.372483	0.000582	20.816433
1673.418898	-2.968900	3.361300	-9.978600	26.392249	0.000584	20.820177
1674.416281	-3.000200	3.359500	-10.078000	26.386086	0.000584	20.821095
1675.419059	-2.984100	3.360000	-10.025000	26.391605	0.000583	20.804357
1676.420730	-3.000500	3.359500	-10.079000	26.413999	0.000586	20.814062
1677.424215	-2.999400	3.358800	-10.074000	26.421070	0.000582	20.810738
1678.419572	-2.997900	3.359500	-10.071000	26.438751	0.000583	20.810017
1679.420936	-3.004600	3.358600	-10.091000	26.407089	0.000581	20.810436
1680.419147	-3.013600	3.356700	-10.115000	26.397482	0.000579	20.815005
1681.426375	-2.997000	3.356800	-10.060000	26.394583	0.000582	20.821100
1682.427066	-2.995900	3.357000	-10.057000	26.394253	0.000579	20.814605
1683.430141	-2.995100	3.357100	-10.052000	26.399797	0.000580	20.812590
1684.424822	-3.002100	3.356700	-10.076000	26.406023	0.000581	20.821218
1685.422043	-2.996200	3.357200	-10.057000	26.430903	0.000579	20.826785
1686.440171	-3.012300	3.355000	-10.105000	26.433360	0.000577	20.806969
1687.426855	-3.016900	3.355600	-10.122000	26.434462	0.000578	20.805706
1688.425619	-3.008500	3.354900	-10.092000	26.408927	0.000578	20.797585
1689.427824	-3.018800	3.354400	-10.126000	26.413748	0.000575	20.829457
1690.427406	-3.004300	3.354400	-10.076000	26.406200	0.000575	20.812388
1691.421731	-3.018900	3.354000	-10.124000	26.415930	0.000576	20.807942
1692.422314	-2.995600	3.353700	-10.046000	26.400392	0.000575	20.826464
1693.436858	-3.034900	3.352800	-10.175000	26.404656	0.000575	20.828854
1694.423223	-2.990900	3.355400	-10.034000	26.449203	0.000575	20.830479
1695.425496	-3.018800	3.351900	-10.118000	26.467945	0.000570	20.819445
1696.426835	-3.006700	3.353500	-10.082000	26.454160	0.000572	20.823134
1697.428408	-2.994000	3.352100	-10.036000	26.473556	0.000570	20.814180
1698.432823	-2.990600	3.352800	-10.025000	26.507668	0.000571	20.811483
1699.427059	-2.982200	3.352700	-9.997000	26.503668	0.000572	20.847290
1700.427899	-3.000500	3.351800	-10.057000	26.495103	0.000569	20.828251
1701.427945	-3.014800	3.350300	-10.099000	26.486287	0.000572	20.835511
1702.422964	-2.986400	3.352400	-10.011000	26.479334	0.000569	20.832315
1703.421901	-3.002300	3.351800	-10.063000	26.482931	0.000569	20.828818
1704.430788	-3.001500	3.350200	-10.054000	26.489014	0.000569	20.838252
1705.424872	-3.027500	3.348600	-10.137000	26.506591	0.000568	20.845961
1706.422106	-3.025500	3.348900	-10.131000	26.502242	0.000567	20.841590
1707.425394	-2.988900	3.349300	-10.009000	26.513710	0.000568	20.833678
1708.427063	-3.009300	3.347400	-10.072000	26.512816	0.000565	20.838942
1709.429543	-2.995700	3.348600	-10.030000	26.489333	0.000565	20.847581
1710.423174	-3.007500	3.347200	-10.065000	26.516859	0.000565	20.810291
1711.425679	-2.970300	3.348300	-9.945000	26.501789	0.000566	20.841135
1712.423280	-2.995200	3.348000	-10.027000	26.458984	0.000566	20.830827
1713.426647	-3.008100	3.346500	-10.066000	26.466464	0.000563	20.833604
1714.427780	-2.995500	3.346300	-10.023000	26.454071	0.000565	20.848647
1715.422980	-3.005000	3.346200	-10.053000	26.451387	0.000561	20.828881
1716.425604	-2.970200	3.346900	-9.938900	26.426286	0.000562	20.845852
1717.425994	-2.988200	3.346300	-9.998600	26.406050	0.000561	20.846849
1718.428737	-2.993700	3.344900	-10.013000	26.372039	0.000562	20.844435
1719.423425	-2.983600	3.343800	-9.974900	26.383282	0.000561	20.845778
1720.427059	-3.004000	3.343900	-10.042000	26.409928	0.000561	20.855014
1721.425075	-3.003000	3.342700	-10.037000	26.422984	0.000559	20.847274
1722.433430	-3.007900	3.342500	-10.052000	26.409775	0.000559	20.844429
1723.427927	-3.016400	3.343100	-10.083000	26.424724	0.000558	20.833376
1724.425117	-2.989000	3.343400	-9.992700	26.434214	0.000560	20.859034
1725.431595	-2.992300	3.342700	-10.001000	26.441167	0.000557	20.848954
1726.431058	-2.987700	3.341900	-9.982900	26.457236	0.000556	20.850407
1727.429990	-2.990000	3.341700	-9.991000	26.479831	0.000555	20.839926
1728.429148	-2.999400	3.342000	-10.022000	26.446214	0.000556	20.847863
1729.430273	-3.009800	3.340400	-10.052000	26.434077	0.000555	20.848940
1730.427711	-3.028300	3.339100	-10.110000	26.431522	0.000556	20.843053
1731.433737	-3.013600	3.340400	-10.065000	26.444014	0.000554	20.868410
1732.432631	-2.990900	3.340200	-9.988800	26.443916	0.000554	20.872578
1733.433745	-3.017600	3.339600	-10.077000	26.410072	0.000553	20.848995
1734.436869	-3.018000	3.339300	-10.075000	26.387187	0.000553	20.858711
1735.433345	-2.983300	3.340600	-9.964500	26.378554	0.000552	20.865680
1736.433562	-3.000600	3.339300	-10.018000	26.372996	0.000554	20.852509
1737.429667	-3.011900	3.337700	-10.052000	26.378131	0.000551	20.849135
1738.433349	-2.996300	3.337700	-9.999900	26.368676	0.000551	20.869977
1739.430834	-2.980100	3.337800	-9.944500	26.394452	0.000550	20.866012
1740.433667	-3.031000	3.336200	-10.111000	26.411141	0.000550	20.855759
1741.431130	-3.011100	3.335600	-10.042000	26.430936	0.000550	20.860955
1742.433462	-3.000300	3.337500	-10.011000	26.430347	0.000549	20.842821
1743.432189	-2.999700	3.335700	-10.005000	26.463192	0.000549	20.855444
1744.432288	-2.990000	3.335800	-9.971100	26.507840	0.000547	20.856699
1745.432605	-3.003700	3.335500	-10.018000	26.482838	0.000547	20.852432
1746.429445	-2.995000	3.335900	-9.990600	26.504789	0.000546	20.850314
1747.430963	-2.989600	3.335000	-9.969300	26.483217	0.000544	20.868933
1748.430294	-3.021500	3.332500	-10.068000	26.427503	0.000545	20.869832
1749.433332	-3.022600	3.334400	-10.078000	26.388009	0.000543	20.847209
1750.430432	-3.006300	3.334000	-10.021000	26.408957	0.000543	20.868736
1751.437514	-3.004800	3.333500	-10.015000	26.383915	0.000543	20.837405
1752.430274	-3.024100	3.331800	-10.074000	26.396923	0.000544	20.878926
1753.431633	-3.001800	3.332300	-10.001000	26.401120	0.000541	20.870342
1754.434357	-3.012400	3.332700	-10.038000	26.441347	0.000542	20.865730
1755.430110	-2.996100	3.331400	-9.980500	26.473377	0.000542	20.863310
1756.434344	-3.007800	3.330800	-10.018000	26.479809	0.000538	20.868353
1757.430173	-2.988300	3.330900	-9.953400	26.447057	0.000541	20.868624
1758.432275	-3.003200	3.329600	-9.999000	26.445372	0.000542	20.869301
1759.433195	-2.983500	3.331800	-9.939000	26.487013	0.000541	20.862792
1760.434325	-2.989500	3.330400	-9.955000	26.528200	0.000538	20.843975
1761.433747	-2.994000	3.329200	-9.966600	26.545634	0.000540	20.876670
1762.434458	-2.975700	3.330300	-9.909300	26.587811	0.000538	20.870230
1763.435396	-2.980900	3.330000	-9.925000	26.641440	0.000539	20.877199
1764.430410	-3.008000	3.328900	-10.012000	26.658321	0.000539	20.881368
1765.439483	-3.018900	3.327600	-10.044000	26.669341	0.000539	20.876799
1766.440360	-3.009700	3.328100	-10.014000	26.676764	0.000538	20.873831
1767.436879	-3.010200	3.328400	-10.017000	26.660753	0.000537	20.886657
1768.439619	-3.014800	3.326200	-10.027000	26.627216	0.000537	20.873332
1769.440349	-3.005600	3.325900	-9.996400	26.596135	0.000536	20.876226
1770.436722	-3.019300	3.325200	-10.038000	26.557923	0.000534	20.872428
1771.439359	-3.020800	3.325400	-10.043000	26.590892	0.000535	20.858629
1772.440240	-3.014100	3.325100	-10.020000	26.604521	0.000535	20.869485
1773.434230	-3.002900	3.325400	-9.984900	26.556140	0.000533	20.877273
1774.439404	-3.001200	3.324800	-9.977600	26.556955	0.000533	20.866714
1775.438165	-3.013300	3.324100	-10.016000	26.578849	0.000534	20.882557
1776.437689	-2.980100	3.326500	-9.912100	26.590818	0.000533	20.865667
1777.440436	-2.993800	3.323900	-9.949200	26.615100	0.000532	20.854041
1778.437591	-2.997600	3.323500	-9.961800	26.633808	0.000530	20.884226
1779.438830	-3.018000	3.324400	-10.032000	26.656576	0.000531	20.866338
1780.441426	-2.989000	3.324000	-9.933800	26.651241	0.000532	20.862871
1781.437245	-2.964600	3.322600	-9.849200	26.642255	0.000533	20.846726
1782.440001	-2.989600	3.323800	-9.936100	26.611302	0.000530	20.877723
1783.437152	-3.025100	3.321600	-10.047000	26.618500	0.000529	20.858881
1784.441528	-2.990400	3.321600	-9.932400	26.626941	0.000527	20.852194
1785.441883	-2.980800	3.320500	-9.896700	26.598395	0.000527	20.846732
1786.439321	-2.983100	3.320300	-9.904000	26.593256	0.000527	20.841092
1787.444895	-3.016000	3.319700	-10.011000	26.543925	0.000527	20.859780
1788.439153	-3.009300	3.320000	-9.990200	26.583773	0.000528	20.858585
1789.442523	-2.998900	3.320100	-9.956000	26.581720	0.000525	20.842772
1790.444080	-2.998000	3.320500	-9.954400	26.572305	0.000525	20.852274
1791.439317	-2.991800	3.320100	-9.931700	26.512424	0.000524	20.840919
1792.442771	-3.010500	3.318700	-9.988500	26.483330	0.000524	20.858141
1793.444895	-2.988500	3.319300	-9.918500	26.467842	0.000522	20.817445
1794.439313	-2.996200	3.317200	-9.937700	26.510744	0.000524	20.846817
1795.442558	-2.996300	3.316600	-9.936700	26.514690	0.000523	20.832766
1796.444893	-3.004000	3.319200	-9.969700	26.539647	0.000520	20.846472
1797.441275	-3.007500	3.317300	-9.975700	26.550319	0.000522	20.850087
1798.444824	-3.025900	3.316300	-10.034000	26.554637	0.000520	20.825980
1799.445514	-3.013500	3.315100	-9.989100	26.522120	0.000521	20.839286
1800.437678	-3.013400	3.315500	-9.990000	26.489345	0.000520	20.849963
1801.444167	-2.999300	3.316100	-9.944900	26.504023	0.000520	20.831053
1802.441184	-2.997800	3.315600	-9.938300	26.519437	0.000519	20.829003
1803.441881	-2.976400	3.315500	-9.867000	26.562515	0.000520	20.841958
1804.443560	-2.987200	3.314000	-9.898500	26.555611	0.000518	20.838812
1805.443346	-2.980900	3.314800	-9.880000	26.522071	0.000519	20.829754
1806.440511	-2.994800	3.313400	-9.922000	26.528179	0.000519	20.850117
1807.441767	-2.999800	3.313000	-9.936100	26.548707	0.000517	20.821441
1808.446132	-3.011700	3.314400	-9.980600	26.563373	0.000517	20.844718
1809.439836	-2.980000	3.313400	-9.873800	26.582192	0.000516	20.837082
1810.445245	-3.019900	3.312400	-10.001000	26.587699	0.000514	20.839299
1811.450072	-3.014600	3.311900	-9.982900	26.592588	0.000514	20.830463
1812.439551	-2.982200	3.312400	-9.877300	26.592097	0.000511	20.848461
1813.449721	-2.982500	3.312400	-9.877900	26.567196	0.000513	20.835284
1814.444289	-2.987300	3.312400	-9.892100	26.572164	0.000512	20.828424
1815.442621	-3.002900	3.312200	-9.944700	26.533828	0.000511	20.833037
1816.444572	-2.981800	3.310900	-9.871800	26.495619	0.000512	20.816916
1817.449260	-2.998300	3.309000	-9.921000	26.487894	0.000508	20.850876
1818.443775	-2.999100	3.309700	-9.924200	26.480524	0.000508	20.831614
1819.451463	-3.003800	3.308900	-9.938500	26.499761	0.000509	20.833881
1820.450150	-3.023900	3.309300	-10.007000	26.524566	0.000507	20.836528
1821.447616	-2.999700	3.308300	-9.921800	26.509452	0.000507	20.836035
1822.452539	-3.010500	3.308300	-9.958900	26.514065	0.000506	20.811276
1823.451430	-2.986800	3.308100	-9.880200	26.484971	0.000506	20.832291
1824.445208	-2.999000	3.306700	-9.915600	26.472234	0.000507	20.835136
1825.448866	-2.994000	3.308100	-9.903100	26.467983	0.000505	20.801941
1826.450768	-2.993100	3.306400	-9.893800	26.511216	0.000506	20.817895
1827.450397	-3.003000	3.306200	-9.927500	26.537779	0.000504	20.816146
1828.452733	-3.009100	3.305900	-9.947000	26.571588	0.000503	20.820734
1829.455557	-2.988200	3.307400	-9.881300	26.600563	0.000503	20.839902
1830.449396	-3.002800	3.305700	-9.924700	26.615692	0.000502	20.828559
1831.448389	-2.986400	3.305500	-9.870400	26.606823	0.000504	20.810160
1832.452091	-2.984500	3.307000	-9.867900	26.663103	0.000502	20.810788
1833.447054	-3.021800	3.304300	-9.983700	26.669780	0.000501	20.814655
1834.455504	-3.011500	3.304500	-9.949000	26.694796	0.000500	20.817045
1835.449450	-3.017700	3.303700	-9.968600	26.708307	0.000501	20.842481
1836.447653	-3.008100	3.304100	-9.938400	26.721507	0.000500	20.809760
1837.454185	-2.976000	3.304700	-9.833300	26.717017	0.000499	20.830850
1838.454783	-2.997000	3.302600	-9.896500	26.748321	0.000500	20.820123
1839.451234	-3.018900	3.301500	-9.966100	26.757950	0.000499	20.822691
1840.455212	-2.990700	3.301200	-9.872700	26.741370	0.000496	20.825462
1841.454293	-2.994800	3.303200	-9.891400	26.749662	0.000495	20.820523
1842.450747	-3.006200	3.302600	-9.925600	26.766886	0.000498	20.798959
1843.456842	-2.996400	3.303200	-9.897000	26.779992	0.000494	20.808817
1844.455759	-3.004300	3.302300	-9.919600	26.784689	0.000495	20.819229
1845.450217	-2.986000	3.300900	-9.855400	26.785057	0.000495	20.810591
1846.452978	-2.990600	3.299800	-9.867800	26.838695	0.000496	20.808097
1847.457479	-3.009600	3.299200	-9.928000	26.827672	0.000493	20.822143
1848.456555	-2.996100	3.299400	-9.884800	26.809555	0.000493	20.827161
1849.457626	-3.000100	3.297900	-9.892800	26.791763	0.000493	20.815910
1850.460520	-3.008100	3.298300	-9.920300	26.813634	0.000489	20.822253
1851.455519	-2.982800	3.298900	-9.839000	26.842841	0.000491	20.813214
1852.458776	-3.011800	3.297100	-9.927900	26.821184	0.000492	20.822258
1853.459716	-2.998200	3.297800	-9.886400	26.829888	0.000491	20.813940
1854.458621	-3.005800	3.296200	-9.905800	26.814503	0.000490	20.816015
1855.456757	-3.000700	3.296200	-9.889700	26.776929	0.000487	20.789142
1856.464221	-2.985000	3.296800	-9.838600	26.790261	0.000487	20.804918
1857.460732	-2.973500	3.296300	-9.800700	26.796588	0.000486	20.814598
1858.458909	-2.985500	3.295600	-9.837000	26.808831	0.000487	20.807467
1859.459077	-2.983400	3.296300	-9.832900	26.820301	0.000485	20.824689
1860.455468	-3.004500	3.294300	-9.896800	26.844450	0.000485	20.803926
1861.459787	-3.003000	3.294100	-9.890800	26.836163	0.000484	20.792749
1862.455634	-3.017100	3.293600	-9.936400	26.802583	0.000483	20.798340
1863.453727	-3.004900	3.294100	-9.897100	26.765057	0.000483	20.808974
1864.459676	-2.980600	3.294700	-9.819000	26.684410	0.000482	20.813716
1865.455973	-3.019200	3.292000	-9.938600	26.707231	0.000482	20.812003
1866.455880	-3.012800	3.292900	-9.919900	26.679527	0.000484	20.797428
1867.454486	-2.995800	3.293100	-9.864200	26.648772	0.000481	20.793536
1868.454970	-3.027900	3.291200	-9.964400	26.625219	0.000481	20.802101
1869.455307	-3.027000	3.290500	-9.959000	26.655724	0.000480	20.801947
1870.458927	-3.002200	3.290400	-9.878100	26.698453	0.000480	20.798436
1871.457579	-2.974700	3.291700	-9.790900	26.722334	0.000478	20.797315
1872.453538	-2.985700	3.290000	-9.822100	26.755598	0.000478	20.808473
1873.464250	-2.995500	3.291300	-9.856600	26.753742	0.000478	20.796650
1874.461694	-2.994400	3.290300	-9.851500	26.769133	0.000479	20.807382
1875.460401	-2.986100	3.290300	-9.823200	26.820212	0.000478	20.812272
1876.456946	-2.969500	3.290200	-9.769600	26.843325	0.000477	20.789044
1877.462558	-2.985100	3.290700	-9.821800	26.862591	0.000477	20.788976
1878.460309	-3.007300	3.288800	-9.890000	26.908252	0.000476	20.789370
1879.461539	-3.010000	3.288500	-9.897100	26.931020	0.000477	20.789505
1880.464706	-3.007700	3.286900	-9.883200	26.928779	0.000475	20.778243
1881.460203	-3.010700	3.288300	-9.897700	26.887638	0.000475	20.806574
1882.464571	-2.974900	3.286600	-9.777200	26.872952	0.000474	20.774738
1883.465924	-3.004900	3.285400	-9.870700	26.838007	0.000473	20.773266
1884.462218	-3.011800	3.285700	-9.894400	26.854561	0.000472	20.810773
1885.461983	-3.003600	3.286100	-9.868800	26.849606	0.000473	20.780187
1886.466942	-3.010000	3.285400	-9.888400	26.880306	0.000469	20.788771
1887.465268	-3.005200	3.285200	-9.870300	26.852019	0.000470	20.789251
1888.467136	-3.012300	3.285700	-9.895700	26.866618	0.000469	20.769791
1889.466962	-3.012800	3.283400	-9.891400	26.837057	0.000473	20.802656
1890.465128	-2.996200	3.284800	-9.841300	26.839984	0.000470	20.782840
1891.468079	-2.963900	3.285100	-9.735300	26.842268	0.000470	20.787508
1892.464886	-3.009800	3.283900	-9.882300	26.863366	0.000468	20.767469
1893.466053	-2.986400	3.282900	-9.802700	26.862900	0.000468	20.790235
1894.465099	-3.005400	3.282400	-9.864600	26.846990	0.000466	20.778504
1895.472120	-2.963400	3.284000	-9.731200	26.852152	0.000465	20.771841
1896.470097	-3.007100	3.282200	-9.868600	26.828923	0.000465	20.776934
1897.471043	-3.000100	3.281000	-9.842800	26.836076	0.000466	20.769901
1898.473469	-2.986600	3.281700	-9.799700	26.817084	0.000465	20.783523
1899.474392	-3.019400	3.279800	-9.901900	26.745309	0.000467	20.769679
1900.473862	-3.027100	3.279600	-9.926800	26.688586	0.000463	20.793258
1901.469164	-3.004200	3.279900	-9.852300	26.650363	0.000463	20.780437
1902.472904	-2.993700	3.279600	-9.817200	26.659251	0.000460	20.782734
1903.474124	-2.990700	3.278600	-9.804100	26.700328	0.000463	20.760017
1904.475458	-2.978600	3.279900	-9.768800	26.686012	0.000462	20.774075
1905.469573	-3.004200	3.278100	-9.847300	26.692070	0.000462	20.760251
1906.471585	-2.994300	3.278500	-9.816400	26.747575	0.000462	20.774802
1907.472576	-2.996100	3.277400	-9.818400	26.769152	0.000458	20.785590
1908.473150	-3.001900	3.277400	-9.837200	26.813511	0.000462	20.767602
1909.478109	-3.012500	3.277000	-9.871300	26.846810	0.000459	20.772160
1910.475490	-3.013000	3.277400	-9.873000	26.880787	0.000459	20.775504
1911.473741	-2.968600	3.277700	-9.728800	26.903005	0.000459	20.776033
1912.482519	-2.993800	3.276700	-9.808100	26.940354	0.000457	20.749104
1913.478951	-2.987600	3.274800	-9.782500	26.944873	0.000456	20.769296
1914.478932	-2.973900	3.275900	-9.741600	26.930905	0.000457	20.765207
1915.480308	-3.006600	3.274400	-9.843600	26.944549	0.000455	20.742416
1916.478718	-2.996300	3.273800	-9.809000	26.929613	0.000454	20.769123
1917.474382	-3.024700	3.273200	-9.898500	26.890769	0.000454	20.750927
1918.481229	-2.982100	3.274100	-9.763100	26.858134	0.000453	20.748457
1919.476591	-3.001600	3.274100	-9.825500	26.827084	0.000449	20.771765
1920.477572	-2.991500	3.272900	-9.788200	26.789510	0.000451	20.763384
1921.479339	-2.983100	3.274900	-9.768300	26.812372	0.000451	20.765508
1922.479300	-2.984700	3.274000	-9.771100	26.833146	0.000448	20.760791
1923.475561	-3.028800	3.270700	-9.904700	26.863823	0.000449	20.767928
1924.488525	-2.991800	3.273200	-9.792100	26.897107	0.000447	20.764886
1925.479360	-2.997900	3.271300	-9.806000	26.924426	0.000448	20.765804
1926.480402	-2.973200	3.272700	-9.730000	26.968877	0.000448	20.742699
1927.488727	-2.992400	3.272600	-9.791800	26.994639	0.000447	20.762915
1928.488101	-3.009200	3.270800	-9.841900	26.974615	0.000445	20.754633
1929.481412	-3.005700	3.270400	-9.828500	26.968858	0.000444	20.718971
1930.484530	-3.012200	3.269300	-9.847800	26.948657	0.000444	20.754608
1931.480974	-3.000100	3.269100	-9.806800	26.947340	0.000443	20.765613
1932.480990	-2.998000	3.268800	-9.798900	26.979085	0.000441	20.731152
1933.480826	-2.995400	3.269400	-9.791400	26.975092	0.000444	20.742310
1934.477990	-3.005900	3.269300	-9.827000	27.004699	0.000441	20.760230
1935.477479	-3.002300	3.266300	-9.805900	27.034280	0.000439	20.750149
1936.482947	-2.993100	3.267600	-9.779600	27.037458	0.000441	20.760457
1937.480484	-3.009300	3.265200	-9.824900	27.021103	0.000443	20.745432
1938.481624	-2.989600	3.266200	-9.763200	27.063291	0.000441	20.744237
1939.485413	-2.983000	3.265400	-9.739600	27.038750	0.000438	20.740893
1940.484250	-3.009400	3.265100	-9.825000	27.004827	0.000438	20.735702
1941.481753	-3.014100	3.265100	-9.840300	26.989071	0.000438	20.751152
1942.481652	-2.999400	3.264700	-9.791400	26.951478	0.000437	20.744169
1943.485522	-3.019000	3.264300	-9.853700	26.957510	0.000435	20.756873
1944.484991	-2.984300	3.267200	-9.748600	26.982696	0.000436	20.762760
1945.485108	-3.004700	3.263000	-9.802800	26.988085	0.000436	20.714597
1946.481451	-3.006800	3.262700	-9.809500	27.016999	0.000435	20.753159
1947.480984	-2.993200	3.263600	-9.767300	27.004563	0.000435	20.729746
1948.487098	-2.999000	3.262600	-9.783400	27.021188	0.000434	20.746940
1949.480514	-3.011900	3.261000	-9.821200	27.050273	0.000432	20.765284
1950.484830	-2.987000	3.262600	-9.743600	27.084941	0.000431	20.727603
1951.484936	-3.008800	3.260600	-9.809100	27.102483	0.000431	20.748091
1952.484567	-3.005300	3.261100	-9.799400	27.128516	0.000432	20.739186
1953.488410	-3.000700	3.261000	-9.784300	27.132882	0.000430	20.735042
1954.490218	-3.007900	3.261400	-9.808300	27.125437	0.000428	20.742727
1955.487672	-2.992800	3.260000	-9.755800	27.121415	0.000429	20.751484
1956.501310	-3.022200	3.258100	-9.844900	27.080605	0.000427	20.762125
1957.488956	-3.022400	3.258400	-9.847400	27.035877	0.000427	20.766455
1958.487068	-2.991400	3.260000	-9.751300	27.037799	0.000428	20.730928
1959.486466	-2.990800	3.259400	-9.746200	27.039606	0.000425	20.733219
1960.485793	-3.006700	3.257400	-9.793600	26.999205	0.000426	20.730522
1961.484837	-2.985700	3.259100	-9.729700	26.942402	0.000424	20.737887
1962.486190	-3.007100	3.257200	-9.794300	26.917656	0.000423	20.723908
1963.487165	-3.025200	3.255500	-9.847400	26.915850	0.000423	20.742006
1964.488378	-3.004100	3.257800	-9.786300	26.957865	0.000421	20.750117
1965.489517	-3.011900	3.256600	-9.806200	26.960645	0.000422	20.735368
1966.490315	-2.989000	3.256400	-9.733200	26.950718	0.000421	20.728705
1967.488129	-2.968700	3.257000	-9.667400	26.951937	0.000419	20.727559
1968.487206	-2.977600	3.256900	-9.696600	26.932898	0.000419	20.756306
1969.487641	-2.982100	3.254100	-9.702900	26.888525	0.000417	20.747721
1970.485519	-2.977600	3.255600	-9.692800	26.853727	0.000418	20.731698
1971.485535	-3.011800	3.253400	-9.796500	26.813147	0.000417	20.720293
1972.491187	-3.011000	3.253700	-9.795400	26.738659	0.000417	20.753036
1973.488688	-3.028900	3.252900	-9.851800	26.729325	0.000414	20.737961
1974.488958	-3.001500	3.252400	-9.760700	26.735186	0.000413	20.732948
1975.491255	-3.023600	3.252500	-9.832800	26.776167	0.000414	20.724363
1976.488751	-2.984800	3.252700	-9.707600	26.773736	0.000411	20.732350
1977.489691	-2.980900	3.251400	-9.691500	26.850470	0.000413	20.723680
1978.488365	-3.018700	3.250500	-9.810700	26.885671	0.000411	20.730626
1979.490474	-3.003700	3.251200	-9.764900	26.906596	0.000411	20.740288
1980.492984	-2.979300	3.251300	-9.685500	26.884084	0.000411	20.720022
1981.490394	-2.999600	3.250700	-9.749100	26.887661	0.000411	20.735947
1982.489115	-2.991300	3.249400	-9.719200	26.870011	0.000411	20.735269
1983.492555	-2.990600	3.249800	-9.718400	26.896015	0.000408	20.759046
1984.488102	-2.980800	3.248000	-9.680300	26.921116	0.000409	20.750147
1985.491062	-3.019900	3.247100	-9.804400	26.935011	0.000408	20.731402
1986.488554	-2.995500	3.248400	-9.729000	26.960748	0.000409	20.716505
1987.492756	-2.985500	3.249300	-9.699500	26.975916	0.000407	20.752148
1988.495791	-2.970200	3.248200	-9.646800	26.992021	0.000404	20.733729
1989.493503	-3.017100	3.246100	-9.791800	26.992939	0.000403	20.742240
1990.493878	-2.996900	3.247100	-9.730400	26.966437	0.000402	20.717010
1991.490945	-2.994100	3.246400	-9.719400	26.937748	0.000402	20.739370
1992.488822	-2.975800	3.246200	-9.658700	26.881708	0.000401	20.725693
1993.495511	-3.011400	3.244500	-9.769000	26.839818	0.000401	20.729566
1994.492559	-2.987300	3.245300	-9.693600	26.799134	0.000399	20.728963
1995.490781	-2.983600	3.244000	-9.677900	26.822094	0.000401	20.721702
1996.494740	-3.010400	3.244600	-9.766900	26.847835	0.000398	20.733834
1997.492502	-3.007600	3.245100	-9.759600	26.900306	0.000398	20.733488
1998.495957	-2.996600	3.243100	-9.716300	26.898297	0.000398	20.733839
1999.494853	-3.001400	3.244000	-9.735200	26.939639	0.000397	20.730366
2000.501735	-3.007700	3.243000	-9.753100	26.941409	0.000397	20.750164
2001.497310	-3.004300	3.243300	-9.743100	26.967593	0.000396	20.741407
2002.493713	-2.976800	3.243000	-9.652600	27.003850	0.000394	20.728081
2003.501740	-3.006700	3.241100	-9.743100	27.058420	0.000394	20.737441
2004.498917	-2.995000	3.240700	-9.704500	27.105218	0.000392	20.729978
2005.499898	-3.002400	3.240400	-9.728100	27.141249	0.000392	20.738242
2006.495805	-3.012000	3.239800	-9.757500	27.187302	0.000390	20.733826
2007.499123	-2.994700	3.240200	-9.702200	27.154523	0.000390	20.731203
2008.498027	-3.003100	3.238700	-9.724800	27.168396	0.000392	20.738993
2009.502571	-3.019200	3.237600	-9.773600	27.207254	0.000391	20.733506
2010.502838	-3.000100	3.237100	-9.710900	27.244391	0.000388	20.740040
2011.495315	-3.002000	3.237900	-9.719200	27.263173	0.000389	20.730482
2012.503410	-3.003700	3.238100	-9.725100	27.304109	0.000389	20.745108
2013.501951	-3.000200	3.235700	-9.706100	27.318850	0.000390	20.747608
2014.500154	-2.974600	3.237800	-9.630200	27.321280	0.000386	20.741992
2015.502878	-2.975500	3.236600	-9.630300	27.321929	0.000388	20.744541
2016.502805	-3.000000	3.235800	-9.705600	27.333958	0.000387	20.738623
2017.497845	-2.986800	3.235800	-9.664200	27.330432	0.000387	20.734128
2018.501739	-2.975600	3.235100	-9.625900	27.366799	0.000385	20.742737
2019.506794	-2.999900	3.236300	-9.707100	27.382481	0.000384	20.738124
2020.499802	-2.995500	3.234400	-9.687800	27.394510	0.000383	20.735526
2021.507114	-3.003000	3.234000	-9.709900	27.413289	0.000383	20.750625
2022.507072	-3.016800	3.233400	-9.753000	27.404982	0.000382	20.755545
2023.505472	-3.016000	3.232800	-9.748900	27.417005	0.000381	20.747251
2024.507613	-2.994700	3.232400	-9.679000	27.375081	0.000379	20.724515
2025.504930	-3.026100	3.232000	-9.779400	27.339461	0.000379	20.734676
2026.500459	-2.987400	3.233400	-9.658400	27.293690	0.000378	20.759758
2027.504058	-3.001500	3.232400	-9.701100	27.304948	0.000378	20.745003
2028.502028	-3.012900	3.233000	-9.739100	27.312264	0.000378	20.760423
2029.499498	-3.026700	3.230900	-9.778000	27.336829	0.000377	20.743408
2030.512798	-2.993700	3.231300	-9.672200	27.341812	0.000375	20.760276
2031.502520	-2.986300	3.229800	-9.643900	27.323625	0.000376	20.763792
2032.504076	-2.986600	3.228800	-9.642000	27.319806	0.000376	20.746672
2033.503251	-2.995000	3.229400	-9.671100	27.330818	0.000374	20.736413
2034.504438	-2.976400	3.230200	-9.613300	27.336376	0.000373	20.737737
2035.501867	-3.005300	3.227200	-9.697700	27.366684	0.000372	20.751156
2036.504468	-3.016200	3.228200	-9.735700	27.359638	0.000371	20.752603
2037.503419	-3.011600	3.227400	-9.718200	27.399358	0.000371	20.756526
2038.502347	-3.012900	3.228100	-9.724500	27.435050	0.000371	20.747387
2039.505628	-3.009900	3.226200	-9.709500	27.445566	0.000371	20.749906
2040.504294	-2.991000	3.225200	-9.645800	27.467099	0.000369	20.755923
2041.505931	-2.991200	3.225900	-9.649000	27.499808	0.000367	20.751372
2042.511057	-2.996500	3.226200	-9.666900	27.491306	0.000367	20.766053
2043.506154	-2.991500	3.227200	-9.653200	27.471139	0.000367	20.754771
2044.506612	-2.995800	3.224600	-9.658800	27.470765	0.000366	20.732109
2045.502090	-2.988100	3.224000	-9.633100	27.497127	0.000365	20.759581
2046.507237	-3.014600	3.223300	-9.715200	27.531059	0.000365	20.750572
2047.508099	-2.971000	3.224800	-9.579800	27.534804	0.000364	20.765721
2048.504522	-2.990100	3.223600	-9.638200	27.507771	0.000364	20.737572
2049.507842	-2.996500	3.223100	-9.656700	27.499661	0.000364	20.753121
2050.510367	-3.010400	3.221700	-9.697700	27.506626	0.000363	20.761552
2051.507279	-3.008300	3.220400	-9.687800	27.459547	0.000362	20.767291
2052.504202	-2.992400	3.220700	-9.637000	27.443321	0.000362	20.764243
2053.512963	-2.990300	3.221800	-9.632300	27.382074	0.000362	20.750517
2054.511353	-3.017800	3.218300	-9.709900	27.343454	0.000359	20.752444
2055.509435	-3.023300	3.219200	-9.731200	27.327894	0.000359	20.761922
2056.509797	-3.002700	3.219400	-9.666200	27.309394	0.000357	20.740941
2057.507202	-2.990400	3.218000	-9.622200	27.271335	0.000358	20.753392
2058.507423	-3.012600	3.218300	-9.693700	27.264363	0.000356	20.773880
2059.507699	-3.006800	3.217800	-9.673500	27.272376	0.000356	20.766768
2060.508678	-3.001900	3.218200	-9.659500	27.285746	0.000356	20.762673
2061.510767	-3.011300	3.217500	-9.688000	27.291531	0.000356	20.769914
2062.511616	-3.007000	3.217100	-9.672200	27.347923	0.000354	20.757887
2063.510184	-2.999900	3.216400	-9.647900	27.372182	0.000355	20.754790
2064.508649	-2.972300	3.218300	-9.564400	27.398007	0.000351	20.785038
2065.510608	-3.002400	3.215500	-9.653300	27.443852	0.000353	20.767149
2066.507199	-2.990500	3.215600	-9.615100	27.453768	0.000352	20.739666
2067.513098	-3.004900	3.215800	-9.661900	27.464786	0.000351	20.785364
2068.509736	-3.025000	3.214500	-9.722500	27.455507	0.000351	20.782193
2069.509086	-2.996700	3.214600	-9.632100	27.473495	0.000346	20.772790
2070.513203	-3.002900	3.213900	-9.649200	27.510549	0.000348	20.788733
2071.514089	-2.985500	3.214000	-9.592300	27.539724	0.000349	20.770197
2072.513370	-2.985600	3.213100	-9.591400	27.540667	0.000348	20.760239
2073.508970	-3.004300	3.212400	-9.649200	27.497237	0.000347	20.778184
2074.508400	-2.994200	3.210900	-9.612900	27.470943	0.000346	20.774015
2075.510955	-2.995100	3.212100	-9.618300	27.443932	0.000345	20.772919
2076.511838	-2.989400	3.212000	-9.601200	27.383878	0.000343	20.791688
2077.510999	-3.002100	3.211400	-9.640800	27.334755	0.000342	20.756495
2078.510087	-2.995800	3.211400	-9.618600	27.326766	0.000340	20.773590
2079.511412	-3.006200	3.209700	-9.646400	27.366537	0.000342	20.779932
2080.516365	-2.994700	3.208400	-9.606700	27.368526	0.000341	20.772450
2081.512547	-2.988400	3.208800	-9.588500	27.427858	0.000340	20.775714
2082.514474	-2.987200	3.208600	-9.583000	27.441232	0.000338	20.775893
2083.515502	-3.042500	3.204900	-9.749300	27.466339	0.000340	20.760374
2084.518452	-2.995500	3.209500	-9.612100	27.525072	0.000337	20.788646
2085.516614	-3.014000	3.206600	-9.663600	27.556328	0.000337	20.785480
2086.513338	-3.013500	3.207000	-9.663200	27.570141	0.000336	20.772826
2087.513381	-3.039500	3.206000	-9.742100	27.530409	0.000337	20.794015
2088.512391	-3.011800	3.205800	-9.654000	27.535960	0.000335	20.780160
2089.515645	-2.969800	3.206900	-9.522300	27.531768	0.000334	20.781632
2090.514792	-2.952300	3.206600	-9.465400	27.542661	0.000334	20.769833
2091.513470	-2.995600	3.205000	-9.600100	27.520188	0.000333	20.770929
2092.516846	-3.000700	3.205100	-9.615900	27.555704	0.000332	20.778688
2093.519306	-3.013200	3.202700	-9.649100	27.582889	0.000330	20.801300
2094.518008	-3.025400	3.201500	-9.683500	27.597449	0.000331	20.772327
2095.516899	-3.024600	3.202800	-9.685700	27.628850	0.000329	20.788276
2096.520250	-2.964100	3.202300	-9.490800	27.691942	0.000328	20.785856
2097.518307	-3.006100	3.201600	-9.623800	27.678822	0.000328	20.807741
2098.516044	-2.986900	3.200900	-9.559500	27.624064	0.000327	20.778244
2099.516027	-2.986800	3.201800	-9.562400	27.581579	0.000325	20.769636
2100.520289	-3.025500	3.198900	-9.676700	27.542514	0.000326	20.767788
2101.525307	-3.019000	3.201000	-9.663400	27.556628	0.000325	20.784833
2102.520080	-2.997100	3.199300	-9.587500	27.563359	0.000323	20.774062
2103.524671	-2.999500	3.198100	-9.591700	27.605024	0.000322	20.771889
2104.519971	-2.994600	3.197200	-9.572800	27.617968	0.000321	20.779223
2105.519172	-3.000000	3.197800	-9.591400	27.604180	0.000322	20.772462
2106.516856	-2.961000	3.199600	-9.472600	27.588978	0.000321	20.789408
2107.519711	-3.008400	3.197400	-9.619000	27.555776	0.000321	20.780657
2108.521930	-2.967600	3.197500	-9.487500	27.518816	0.000320	20.789463
2109.521330	-2.993700	3.195900	-9.566000	27.504035	0.000318	20.781704
2110.518332	-3.003100	3.195600	-9.595400	27.450155	0.000317	20.790559
2111.518924	-2.975500	3.195500	-9.507000	27.457334	0.000318	20.810584
2112.517895	-3.008100	3.193100	-9.604500	27.452542	0.000315	20.803392
2113.521519	-3.000700	3.193600	-9.582900	27.441560	0.000315	20.809888
2114.521136	-2.977300	3.192900	-9.505200	27.486731	0.000314	20.782313
2115.522395	-3.002700	3.193600	-9.588100	27.492435	0.000317	20.815079
2116.519138	-2.980600	3.192400	-9.514900	27.501218	0.000313	20.789776
2117.518833	-2.950800	3.193400	-9.420700	27.477905	0.000314	20.790029
2118.523184	-2.994300	3.192200	-9.556600	27.452436	0.000313	20.804708
2119.526529	-2.999800	3.191300	-9.572200	27.449780	0.000310	20.801562
2120.521406	-2.991600	3.191700	-9.546900	27.444596	0.000312	20.798243
2121.522017	-2.980500	3.190700	-9.508700	27.499375	0.000311	20.794560
2122.527246	-2.994200	3.188400	-9.546200	27.528741	0.000311	20.804665
2123.521429	-3.021000	3.187200	-9.627400	27.530926	0.000311	20.822984
2124.523849	-3.020300	3.186800	-9.623100	27.569097	0.000310	20.810656
2125.523949	-3.005300	3.187700	-9.579200	27.556104	0.000311	20.798531
2126.521529	-2.997900	3.187200	-9.552700	27.517234	0.000310	20.813951
2127.520763	-2.976000	3.189600	-9.490700	27.540950	0.000308	20.804147
2128.523882	-3.002100	3.186900	-9.566800	27.619452	0.000308	20.808691
2129.525357	-3.000100	3.185100	-9.554400	27.626202	0.000306	20.808371
2130.524175	-3.015100	3.184500	-9.600800	27.578038	0.000304	20.794522
2131.522853	-3.009300	3.184400	-9.581500	27.537780	0.000304	20.817078
2132.521682	-2.999300	3.184500	-9.550100	27.509362	0.000303	20.821678
2133.527376	-2.981700	3.185000	-9.495200	27.496864	0.000302	20.794879
2134.527581	-2.999500	3.183800	-9.548200	27.464149	0.000300	20.803690
2135.527511	-2.989400	3.183100	-9.515000	27.472883	0.000303	20.809632
2136.522193	-3.033000	3.181400	-9.648800	27.483723	0.000303	20.809632
2137.532957	-2.993000	3.181500	-9.521700	27.531450	0.000299	20.796011
2138.523514	-3.034600	3.180400	-9.650600	27.533886	0.000300	20.817428
2139.530075	-2.966900	3.182500	-9.441000	27.517122	0.000300	20.800087
2140.527923	-3.009900	3.181300	-9.574500	27.560380	0.000299	20.823222
2141.525711	-3.004900	3.181500	-9.559600	27.588281	0.000297	20.799613
2142.529126	-3.000800	3.179200	-9.539100	27.593245	0.000297	20.815038
2143.526227	-3.002300	3.179100	-9.544200	27.599450	0.000295	20.813221
2144.529114	-2.988800	3.178700	-9.498500	27.644748	0.000294	20.820868
2145.532166	-2.995400	3.178900	-9.521300	27.616848	0.000293	20.797537
2146.526820	-2.980600	3.180300	-9.477800	27.595814	0.000293	20.818572
2147.527600	-2.998600	3.177600	-9.527100	27.611120	0.000293	20.812635
2148.529844	-2.992900	3.179100	-9.514200	27.646265	0.000295	20.822869
2149.530570	-3.006900	3.176600	-9.551100	27.666931	0.000293	20.819956
2150.533069	-3.001000	3.175800	-9.529600	27.692082	0.000292	20.836730
2151.535864	-2.986600	3.177000	-9.486600	27.707509	0.000292	20.821908
2152.529139	-3.011600	3.174500	-9.558900	27.744291	0.000290	20.820990
2153.531361	-3.012300	3.175300	-9.564000	27.775437	0.000289	20.819617
2154.536468	-3.002800	3.173700	-9.529000	27.795329	0.000287	20.837739
2155.532142	-3.022800	3.172000	-9.585700	27.815857	0.000289	20.829476
2156.530066	-3.003200	3.172700	-9.526700	27.834807	0.000289	20.824364
2157.537217	-2.990100	3.173100	-9.486100	27.834268	0.000286	20.842788
2158.531525	-2.991000	3.175300	-9.496200	27.898364	0.000287	20.816261
2159.533379	-2.993000	3.171900	-9.491700	27.894999	0.000285	20.818089
2160.537492	-3.018100	3.169300	-9.564900	27.923937	0.000287	20.810706
2161.535591	-3.001500	3.170500	-9.514700	27.888727	0.000284	20.843071
2162.533065	-3.029100	3.167600	-9.593700	27.850499	0.000282	20.835416
2163.547183	-3.036400	3.167000	-9.614600	27.825230	0.000282	20.836537
2164.534304	-3.001100	3.167000	-9.503900	27.838746	0.000280	20.811260
2165.532267	-2.991700	3.168500	-9.478300	27.870317	0.000280	20.831654
2166.539044	-3.014700	3.166900	-9.545400	27.833741	0.000281	20.832300
2167.528829	-2.977700	3.167500	-9.431000	27.806292	0.000280	20.832651
2168.532792	-2.987200	3.167000	-9.459200	27.807706	0.000280	20.835496
2169.535546	-3.001200	3.167400	-9.504800	27.820671	0.000279	20.844751
2170.536366	-3.026100	3.164800	-9.576300	27.855345	0.000279	20.822275
2171.532962	-3.016100	3.166100	-9.547700	27.865122	0.000280	20.811727
2172.532053	-2.985900	3.165200	-9.449300	27.895787	0.000278	20.841641
2173.539860	-2.986800	3.164100	-9.448400	27.889797	0.000277	20.836561
2174.532189	-2.985900	3.164900	-9.448400	27.901128	0.000275	20.842749
2175.540790	-3.015500	3.162200	-9.535000	27.907840	0.000276	20.845237
2176.538899	-2.996300	3.162500	-9.474800	27.943349	0.000273	20.844467
2177.535651	-2.983400	3.163200	-9.435600	27.929241	0.000274	20.846388
2178.534545	-3.029500	3.159500	-9.569900	27.944046	0.000273	20.835212
2179.536016	-3.001600	3.160500	-9.485600	27.962443	0.000273	20.835237
2180.536875	-2.993100	3.159100	-9.454400	27.986051	0.000271	20.835292
2181.534355	-2.996800	3.160800	-9.471000	28.006423	0.000273	20.837780
2182.536298	-2.998700	3.158100	-9.469400	28.015477	0.000270	20.835988
2183.534501	-3.026400	3.156500	-9.551100	27.975810	0.000271	20.857225
2184.539381	-3.010700	3.156000	-9.501300	27.949931	0.000269	20.854411
2185.535431	-3.003700	3.156200	-9.479300	27.958552	0.000271	20.849812
2186.535517	-3.004600	3.156100	-9.481500	27.983126	0.000267	20.847995
2187.535339	-3.029500	3.154500	-9.555500	27.993985	0.000266	20.838537
2188.533963	-3.005900	3.155200	-9.482900	28.033339	0.000265	20.852071
2189.535143	-2.997800	3.153800	-9.453900	28.044589	0.000267	20.862447
2190.537024	-2.999500	3.153900	-9.459600	28.028403	0.000264	20.860378
2191.535001	-3.026900	3.152100	-9.540100	28.025808	0.000265	20.860611
2192.535614	-3.012700	3.152000	-9.495300	28.030164	0.000265	20.857410
2193.540009	-2.945400	3.153900	-9.287700	28.021544	0.000264	20.836880
2194.533204	-2.993800	3.150800	-9.432300	28.058481	0.000263	20.848456
2195.535499	-2.977500	3.152400	-9.385500	28.066593	0.000264	20.861362
2196.538262	-3.016400	3.150400	-9.501700	28.073040	0.000264	20.857895
2197.536597	-2.994900	3.150900	-9.435800	28.071474	0.000263	20.879077
2198.537969	-3.002800	3.149500	-9.455700	28.110220	0.000262	20.853598
2199.537909	-3.003100	3.148300	-9.453800	28.121579	0.000263	20.856972
2200.538239	-2.989900	3.147900	-9.411300	28.108042	0.000263	20.863733
2201.539333	-2.991000	3.147600	-9.413500	28.121530	0.000260	20.855026
2202.543033	-3.019900	3.145300	-9.496900	28.121347	0.000262	20.851049
2203.539178	-3.002600	3.146300	-9.446200	28.160470	0.000261	20.876682
2204.542022	-3.007400	3.145200	-9.456800	28.153473	0.000260	20.868216
2205.542387	-3.006600	3.144800	-9.454400	28.183793	0.000259	20.875032
2206.541718	-3.006500	3.145000	-9.454700	28.192264	0.000261	20.854165
2207.541200	-3.030600	3.143300	-9.524500	28.203244	0.000260	20.864743
2208.543365	-3.016800	3.141300	-9.475100	28.177408	0.000258	20.881880
2209.541415	-3.006100	3.142800	-9.445300	28.163131	0.000257	20.874146
2210.541886	-2.987400	3.141800	-9.384900	28.171701	0.000257	20.877557
2211.546838	-2.988300	3.142600	-9.390200	28.165334	0.000257	20.874466
2212.542725	-2.983200	3.142100	-9.373200	28.184889	0.000252	20.872342
2213.542698	-3.020300	3.140800	-9.485100	28.200804	0.000256	20.865606
2214.544080	-2.982700	3.139400	-9.363300	28.190956	0.000255	20.869442
2215.545208	-2.996700	3.140600	-9.408200	28.139717	0.000252	20.862903
2216.549312	-3.013800	3.136800	-9.451800	28.135527	0.000253	20.863901
2217.554926	-3.034300	3.135900	-9.513400	28.126676	0.000251	20.868266
2218.549847	-2.996400	3.136400	-9.396500	28.142091	0.000250	20.858181
2219.546768	-3.026200	3.135300	-9.487000	28.176797	0.000251	20.881265
2220.551610	-2.975100	3.137000	-9.331300	28.185892	0.000249	20.864818
2221.547271	-3.026300	3.134000	-9.483300	28.199501	0.000248	20.859554
2222.548519	-2.999000	3.134100	-9.397400	28.188938	0.000247	20.864092
2223.552028	-3.009300	3.134800	-9.432400	28.185617	0.000245	20.857904
2224.554163	-2.985600	3.133900	-9.355800	28.146055	0.000248	20.876869
2225.550342	-2.980100	3.132800	-9.333400	28.062857	0.000246	20.851912
2226.557638	-3.003100	3.130200	-9.399200	28.006185	0.000245	20.875471
2227.555866	-3.002000	3.130500	-9.396000	28.015380	0.000243	20.863864
2228.546503	-2.969300	3.130300	-9.293900	28.004295	0.000244	20.863612
2229.553253	-3.005700	3.130000	-9.406700	28.046450	0.000244	20.864320
2230.553290	-2.999000	3.129500	-9.383300	28.069873	0.000243	20.889319
2231.550552	-3.004300	3.128900	-9.399100	28.073421	0.000242	20.851641
2232.553802	-2.999900	3.127600	-9.381600	28.099731	0.000242	20.849677
2233.556672	-3.002600	3.128400	-9.391300	28.038369	0.000241	20.864246
2234.553382	-2.991300	3.125800	-9.349200	27.993521	0.000243	20.854664
2235.556182	-2.994400	3.125700	-9.358600	27.923680	0.000243	20.859757
2236.556184	-3.012100	3.124100	-9.409700	27.919446	0.000240	20.834634
2237.554204	-3.004000	3.123600	-9.382000	27.908060	0.000238	20.841666
2238.554223	-3.032800	3.122000	-9.466700	27.950213	0.000238	20.839997
2239.561393	-2.990400	3.122800	-9.337300	27.932043	0.000238	20.845890
2240.556712	-3.004100	3.122200	-9.378600	27.971368	0.000239	20.834738
2241.562181	-3.011100	3.121200	-9.397700	28.019563	0.000238	20.839627
2242.557654	-3.009300	3.120200	-9.387800	28.014186	0.000235	20.852706
2243.558506	-2.997200	3.119100	-9.346800	28.048896	0.000236	20.843075
2244.556870	-2.995200	3.119300	-9.341600	28.088585	0.000237	20.849836
2245.554629	-2.980100	3.119400	-9.294200	28.093442	0.000237	20.861363
2246.551354	-3.006400	3.116200	-9.367800	28.089429	0.000235	20.850686
2247.555862	-2.990400	3.116800	-9.319700	28.126761	0.000235	20.822835
2248.557155	-3.000800	3.115900	-9.348600	28.154109	0.000234	20.841831
2249.554290	-3.005900	3.113600	-9.358400	28.199201	0.000234	20.829855
2250.559664	-3.013900	3.114200	-9.384300	28.216730	0.000233	20.846080
2251.557310	-2.987500	3.114500	-9.302900	28.217501	0.000233	20.839269
2252.553578	-2.997900	3.113000	-9.331200	28.230516	0.000233	20.824873
2253.555559	-3.002100	3.111500	-9.340000	28.284228	0.000232	20.819208
2254.555240	-2.995100	3.111400	-9.318300	28.240186	0.000233	20.838401
2255.556120	-2.987900	3.110400	-9.292500	28.206729	0.000231	20.837908
2256.559713	-3.006300	3.109700	-9.348100	28.191457	0.000232	20.819688
2257.558474	-3.007600	3.108700	-9.349200	28.113278	0.000232	20.816849
2258.557123	-3.016300	3.107700	-9.371800	28.080283	0.000230	20.845272
2259.560596	-3.024500	3.104900	-9.389600	28.042704	0.000230	20.837316
2260.561800	-3.003900	3.104800	-9.324100	28.073841	0.000229	20.827883
2261.559083	-3.015300	3.105300	-9.362700	28.103790	0.000230	20.828160
2262.559080	-3.023300	3.105400	-9.387200	28.143232	0.000229	20.825666
2263.563686	-3.001200	3.103900	-9.314300	28.141550	0.000229	20.839145
2264.557910	-2.997700	3.103400	-9.301200	28.149080	0.000230	20.845303
2265.561389	-2.969200	3.103600	-9.214500	28.159331	0.000227	20.818640
2266.559733	-2.976700	3.101500	-9.231600	28.133298	0.000231	20.839373
2267.558599	-2.977400	3.102100	-9.235500	28.113100	0.000228	20.818092
2268.564188	-2.978000	3.100300	-9.231800	28.093513	0.000228	20.824453
2269.563605	-3.023700	3.099800	-9.370900	28.074727	0.000229	20.817396
2270.561338	-2.997600	3.098900	-9.288200	28.092748	0.000226	20.817045
2271.560462	-3.014300	3.097100	-9.334300	28.119076	0.000227	20.837858
2272.562002	-3.019600	3.095800	-9.346800	28.105894	0.000227	20.829803
2273.563850	-2.983600	3.096700	-9.238200	28.118856	0.000227	20.815351
2274.564069	-3.009700	3.095000	-9.313600	28.131499	0.000226	20.827605
2275.562277	-3.007100	3.094700	-9.304900	28.127113	0.000225	20.826983
2276.558712	-3.006500	3.093900	-9.300400	28.178506	0.000224	20.821348
2277.564229	-3.000300	3.092300	-9.275600	28.176904	0.000226	20.825900
2278.565116	-3.001800	3.092200	-9.281100	28.132319	0.000227	20.819421
2279.561493	-2.979300	3.092200	-9.211500	28.082337	0.000225	20.808461
2280.563462	-2.994800	3.090500	-9.254600	28.041260	0.000225	20.825431
2281.566024	-3.013400	3.088700	-9.306300	28.047799	0.000226	20.817316
2282.569450	-3.000900	3.088600	-9.268000	28.098694	0.000223	20.835358
2283.570234	-2.995000	3.088000	-9.248100	28.130870	0.000225	20.814169
2284.566860	-2.986600	3.087900	-9.221100	28.165851	0.000221	20.793436
2285.562204	-2.990300	3.086000	-9.226800	28.188447	0.000222	20.821873
2286.565908	-3.013700	3.083700	-9.292700	28.132032	0.000221	20.809650
2287.565908	-2.994200	3.085300	-9.237500	28.141422	0.000222	20.817205
2288.562781	-3.035900	3.082400	-9.356700	28.149777	0.000219	20.818030
2289.563974	-3.015600	3.082200	-9.292800	28.142761	0.000221	20.828985
2290.566184	-3.003300	3.081800	-9.254500	28.138076	0.000220	20.816208
2291.568027	-2.998500	3.080900	-9.237300	28.122453	0.000219	20.813757
2292.565786	-3.027400	3.079000	-9.320800	28.100359	0.000218	20.804792
2293.566708	-2.986200	3.078400	-9.191700	28.033400	0.000218	20.811356
2294.565327	-2.985300	3.077800	-9.187500	28.012448	0.000220	20.811128
2295.566297	-2.978100	3.078100	-9.164900	27.986839	0.000218	20.792938
2296.570654	-3.003200	3.075800	-9.236100	27.954231	0.000217	20.817489
2297.566598	-2.995500	3.076200	-9.213000	27.953559	0.000215	20.809226
2298.564279	-2.991100	3.075000	-9.196800	27.990002	0.000215	20.825993
2299.565062	-2.986800	3.073700	-9.179600	28.026788	0.000218	20.828407
2300.567062	-2.986500	3.072100	-9.174000	28.063779	0.000217	20.811116
2301.572151	-3.020900	3.070800	-9.276300	28.087330	0.000217	20.825341
2302.570165	-3.017300	3.069500	-9.260700	28.088046	0.000214	20.798561
2303.564116	-3.011900	3.069900	-9.245500	28.159706	0.000215	20.796258
2304.570875	-3.028500	3.066300	-9.285600	28.150213	0.000215	20.785279
2305.567258	-3.016600	3.067500	-9.252200	28.186307	0.000215	20.810710
2306.577229	-3.009800	3.066200	-9.226300	28.193886	0.000214	20.811228
2307.570265	-2.999500	3.066200	-9.196800	28.197580	0.000213	20.798352
2308.568817	-2.973100	3.065300	-9.112500	28.198400	0.000214	20.806289
2309.571248	-2.989500	3.064000	-9.158600	28.177622	0.000213	20.801019
2310.573752	-2.996800	3.063900	-9.179900	28.182601	0.000214	20.790858
2311.575531	-2.988300	3.062200	-9.148900	28.146861	0.000215	20.799922
2312.574459	-2.993000	3.061900	-9.163300	28.155235	0.000213	20.805034
2313.578273	-2.993200	3.059900	-9.157800	28.205929	0.000214	20.785895
2314.573291	-2.985500	3.061200	-9.137600	28.236542	0.000214	20.799171
2315.578944	-2.993300	3.058800	-9.155500	28.203183	0.000212	20.787397
2316.575934	-2.983900	3.058100	-9.124400	28.172313	0.000212	20.776233
2317.575411	-2.988900	3.056400	-9.134300	28.190559	0.000212	20.797447
2318.576049	-2.996400	3.055700	-9.154000	28.210810	0.000211	20.799818
2319.578881	-2.996000	3.053300	-9.146700	28.216065	0.000211	20.809849
2320.577659	-2.995500	3.052200	-9.141700	28.246034	0.000212	20.783124
2321.576391	-3.007500	3.051400	-9.176000	28.293446	0.000211	20.786763
2322.581278	-3.003600	3.049900	-9.159900	28.287991	0.000212	20.816832
2323.578039	-2.973600	3.050700	-9.070100	28.318895	0.000211	20.770661
2324.578388	-2.992800	3.047700	-9.119900	28.277973	0.000209	20.795840
2325.577106	-2.997800	3.048400	-9.136300	28.277154	0.000210	20.787903
2326.576751	-2.986500	3.045300	-9.093600	28.225404	0.000210	20.794122
2327.588154	-2.991800	3.044500	-9.108200	28.211172	0.000210	20.794492
2328.581022	-3.018300	3.043300	-9.183600	28.165438	0.000210	20.796339
2329.578194	-3.004100	3.043900	-9.141800	28.160282	0.000210	20.770759
2330.576334	-2.981900	3.041300	-9.068200	28.141345	0.000210	20.783937
2331.578318	-2.999900	3.039100	-9.115700	28.129613	0.000208	20.784455
2332.580299	-2.993800	3.039200	-9.097800	28.186761	0.000208	20.801684
2333.575185	-3.017000	3.037300	-9.162400	28.225919	0.000209	20.777096
2334.581317	-3.000100	3.037400	-9.111800	28.249962	0.000207	20.786604
2335.578094	-3.019400	3.035900	-9.165600	28.226487	0.000210	20.774350
2336.575998	-3.021800	3.035000	-9.169800	28.205300	0.000207	20.809443
2337.582982	-3.014500	3.033200	-9.142600	28.152618	0.000208	20.785329
2338.578563	-2.991700	3.033400	-9.074200	28.104655	0.000210	20.793470
2339.577805	-2.976000	3.032600	-9.024200	28.081747	0.000208	20.779892
2340.578022	-3.022900	3.029200	-9.155200	28.073464	0.000208	20.794313
2341.579398	-3.008300	3.028300	-9.108700	28.089602	0.000207	20.793488
2342.577370	-2.985400	3.027100	-9.036400	28.124560	0.000206	20.785058
2343.582762	-3.002900	3.027400	-9.089300	28.160851	0.000208	20.782238
2344.583267	-3.009000	3.026000	-9.104000	28.208493	0.000207	20.788002
2345.576261	-2.996100	3.025700	-9.063600	28.244530	0.000205	20.780662
2346.584648	-3.016300	3.023100	-9.118100	28.276462	0.000206	20.806647
2347.582083	-3.010700	3.022000	-9.097900	28.360475	0.000207	20.776018
2348.577291	-3.003500	3.021900	-9.075300	28.360579	0.000207	20.773278
2349.585320	-3.006000	3.019600	-9.075800	28.342758	0.000206	20.769084
2350.580192	-3.004900	3.018000	-9.067100	28.350788	0.000207	20.760574
2351.580178	-3.024800	3.017300	-9.125600	28.354011	0.000204	20.785157
2352.579851	-3.027900	3.014200	-9.125300	28.378076	0.000207	20.763394
2353.581713	-3.002700	3.015500	-9.053000	28.355900	0.000204	20.760980
2354.581681	-2.997700	3.013600	-9.031300	28.349375	0.000206	20.788076
2355.581415	-2.993700	3.013100	-9.019300	28.344024	0.000208	20.767040
2356.586782	-2.974900	3.011800	-8.957700	28.368358	0.000205	20.771628
2357.582626	-3.003800	3.009900	-9.039800	28.396740	0.000205	20.800681
2358.588036	-3.017400	3.008500	-9.075700	28.393114	0.000207	20.788020
2359.583372	-2.999800	3.008600	-9.024100	28.448853	0.000204	20.782035
2360.581433	-3.005600	3.006600	-9.034900	28.441326	0.000204	20.758807
2361.586725	-2.988300	3.004700	-8.977300	28.455225	0.000205	20.760950
2362.588400	-3.003500	3.003000	-9.018900	28.423274	0.000204	20.788045
2363.581407	-2.974400	3.003900	-8.932600	28.423078	0.000203	20.764140
2364.590023	-2.967600	3.001400	-8.905600	28.412096	0.000205	20.769202
2365.581880	-3.013900	2.999300	-9.039400	28.437376	0.000205	20.766209
2366.586042	-3.019300	2.997700	-9.049300	28.465981	0.000206	20.769411
2367.586825	-3.004900	2.998400	-9.009500	28.494006	0.000205	20.760648
2368.587061	-3.054400	2.994800	-9.145900	28.464893	0.000204	20.768314
2369.587803	-2.975400	2.994600	-8.909700	28.426723	0.000204	20.768758
2370.585760	-2.995900	2.994200	-8.970200	28.431162	0.000204	20.746675
2371.590072	-2.981200	2.993900	-8.924200	28.467639	0.000205	20.777244
2372.586858	-2.998300	2.991200	-8.966700	28.502432	0.000206	20.751115
2373.592113	-2.965100	2.990400	-8.865600	28.471008	0.000203	20.771154
2374.589534	-3.015500	2.988100	-9.009900	28.444768	0.000204	20.764644
2375.583076	-2.983700	2.987100	-8.911300	28.391383	0.000204	20.782010
2376.585472	-3.024700	2.984500	-9.025600	28.359833	0.000203	20.764940
2377.588876	-3.007600	2.983400	-8.971700	28.281166	0.000203	20.757803
2378.587686	-3.012300	2.982400	-8.983600	28.251075	0.000203	20.758801
2379.589063	-2.968900	2.983600	-8.857100	28.226060	0.000205	20.764910
2380.594473	-2.982500	2.980300	-8.888200	28.196866	0.000203	20.755432
2381.588934	-2.988500	2.977700	-8.898200	28.240616	0.000204	20.753486
2382.595640	-3.018800	2.978700	-8.989900	28.274401	0.000203	20.750044
2383.591770	-2.984300	2.976800	-8.882000	28.330588	0.000200	20.764891
2384.590725	-3.002300	2.975700	-8.933500	28.356708	0.000200	20.764164
2385.595034	-2.983000	2.971900	-8.863800	28.389083	0.000202	20.743658
2386.597639	-2.986800	2.971900	-8.875500	28.421739	0.000203	20.751885
2387.591006	-3.001300	2.970500	-8.914600	28.445893	0.000202	20.750604
2388.593651	-3.023300	2.968400	-8.973200	28.447624	0.000202	20.740492
2389.596896	-2.963300	2.969000	-8.796900	28.469002	0.000200	20.757280
2390.597574	-3.004800	2.964800	-8.907800	28.511781	0.000202	20.748202
2391.597248	-2.988700	2.965200	-8.861000	28.532522	0.000203	20.746330
2392.598577	-2.978900	2.963500	-8.826700	28.522940	0.000201	20.731938
2393.595574	-2.997600	2.961900	-8.877900	28.517265	0.000201	20.743294
2394.592081	-3.011900	2.959100	-8.911300	28.497858	0.000201	20.762630
2395.598515	-3.012600	2.958500	-8.910600	28.530094	0.000203	20.745308
2396.593079	-3.009300	2.956500	-8.896000	28.559535	0.000200	20.755044
2397.595588	-3.000200	2.956400	-8.868300	28.581492	0.000200	20.756768
2398.593115	-3.012100	2.952400	-8.891800	28.613555	0.000201	20.762981
2399.588769	-2.996900	2.952700	-8.847400	28.648765	0.000202	20.749606
2400.592275	-3.016700	2.951200	-8.902500	28.679114	0.000201	20.742715
2401.591729	-3.003700	2.948900	-8.856600	28.691549	0.000202	20.759508
2402.591835	-3.000200	2.948200	-8.844500	28.727100	0.000200	20.729882
2403.591605	-3.035900	2.944900	-8.939400	28.778855	0.000200	20.738392
2404.592367	-3.004300	2.944000	-8.844100	28.782174	0.000201	20.744107
2405.596066	-3.015300	2.942300	-8.871700	28.794932	0.000199	20.741786
2406.604435	-3.007600	2.941400	-8.844900	28.769037	0.000201	20.750315
2407.598208	-3.005100	2.940300	-8.835000	28.718272	0.000202	20.744699
2408.592945	-2.990300	2.938100	-8.784500	28.764825	0.000198	20.744649
2409.598765	-3.005400	2.935700	-8.821600	28.803913	0.000200	20.734236
2410.599866	-3.001900	2.934700	-8.808700	28.816059	0.000201	20.718021
2411.598403	-3.032900	2.931500	-8.890400	28.839514	0.000198	20.735961
2412.598256	-3.021900	2.931800	-8.858200	28.872266	0.000202	20.741928
2413.598570	-2.992200	2.930200	-8.767300	28.808443	0.000200	20.732635
2414.597489	-2.977700	2.929000	-8.720600	28.777621	0.000202	20.732882
2415.598248	-2.993700	2.926900	-8.760600	28.772552	0.000197	20.733941
2416.604454	-2.995400	2.925000	-8.759800	28.715687	0.000200	20.758216
2417.597181	-3.015900	2.924000	-8.817300	28.706993	0.000201	20.758943
2418.601167	-2.997100	2.922400	-8.758300	28.688310	0.000201	20.736804
2419.600735	-2.999400	2.919300	-8.755100	28.659153	0.000200	20.729722
2420.603669	-2.988700	2.919300	-8.724400	28.664301	0.000201	20.735856
2421.607903	-3.023700	2.916900	-8.817900	28.692302	0.000200	20.728497
2422.604890	-3.005000	2.915100	-8.759000	28.707341	0.000199	20.748388
2423.605851	-3.021300	2.912300	-8.797200	28.681028	0.000200	20.736108
2424.607390	-3.010800	2.911100	-8.764000	28.691238	0.000199	20.721735
2425.609383	-3.021200	2.909100	-8.788400	28.716530	0.000199	20.703587
2426.605983	-2.993400	2.908900	-8.705800	28.717447	0.000199	20.731065
2427.610369	-2.983000	2.907000	-8.669500	28.674395	0.000200	20.730849
2428.611504	-3.005200	2.903300	-8.724000	28.578448	0.000198	20.721932
2429.608779	-2.994300	2.903300	-8.692800	28.510956	0.000200	20.709911
2430.611320	-2.961000	2.900800	-8.588100	28.487585	0.000199	20.746121
2431.610569	-2.974400	2.899900	-8.624500	28.499081	0.000200	20.718816
2432.616531	-2.998000	2.896600	-8.683100	28.545638	0.000201	20.741522
2433.613970	-3.014000	2.895800	-8.726500	28.580013	0.000200	20.730147
2434.610021	-2.974000	2.895300	-8.609900	28.617187	0.000200	20.742457
2435.608184	-2.993600	2.892600	-8.657900	28.654201	0.000199	20.717621
2436.607289	-2.984400	2.890000	-8.624100	28.668269	0.000202	20.751707
2437.606065	-3.015800	2.887400	-8.706900	28.700727	0.000200	20.725603
2438.607287	-3.008600	2.886700	-8.683400	28.766329	0.000199	20.727672
2439.611331	-3.003300	2.883900	-8.659800	28.781471	0.000199	20.750512
2440.610301	-2.990700	2.883100	-8.621100	28.805056	0.000199	20.726853
2441.609546	-3.004600	2.880200	-8.652700	28.847943	0.000200	20.702250
2442.610284	-3.017200	2.878100	-8.682400	28.872290	0.000200	20.730572
2443.609396	-3.035500	2.876200	-8.730000	28.878286	0.000200	20.729026
2444.609873	-3.019500	2.873400	-8.675000	28.898201	0.000200	20.723484
2445.609236	-3.011800	2.874000	-8.654600	28.907418	0.000197	20.729925
2446.610994	-2.990100	2.871100	-8.584000	28.911037	0.000199	20.720294
2447.610012	-2.995500	2.870600	-8.596800	28.876373	0.000198	20.738479
2448.613986	-2.982400	2.867200	-8.550200	28.815093	0.000200	20.745499
2449.610416	-3.004100	2.866400	-8.610100	28.733537	0.000200	20.732099
2450.607535	-2.974200	2.864900	-8.520100	28.687056	0.000198	20.728903
2451.616787	-3.012300	2.860600	-8.615600	28.694417	0.000199	20.715453
2452.613447	-2.983600	2.859300	-8.530300	28.713943	0.000199	20.715681
2453.611777	-2.983800	2.858700	-8.528900	28.699277	0.000197	20.737894
2454.613111	-3.003200	2.855900	-8.575000	28.651902	0.000197	20.733799
2455.613425	-2.974400	2.853400	-8.486000	28.645714	0.000200	20.712866
2456.614161	-2.979300	2.852800	-8.498000	28.672964	0.000196	20.722769
2457.615114	-2.985500	2.850600	-8.509000	28.689740	0.000197	20.710268
2458.617645	-2.999200	2.847700	-8.539300	28.735481	0.000200	20.719357
2459.615370	-3.011700	2.844700	-8.565700	28.779056	0.000197	20.752347
2460.616824	-3.001900	2.843100	-8.534600	28.835326	0.000198	20.716567
2461.617645	-3.013600	2.840200	-8.558400	28.881372	0.000200	20.719332
2462.616848	-2.997200	2.838900	-8.506700	28.913328	0.000198	20.736354
2463.619771	-2.997400	2.836200	-8.500400	28.915877	0.000198	20.736551
2464.618914	-2.995300	2.833300	-8.485600	28.940724	0.000196	20.720804
2465.617758	-3.014800	2.830800	-8.531900	28.988954	0.000201	20.727671
2466.621068	-3.021700	2.829400	-8.547100	29.016622	0.000199	20.737056
2467.616679	-2.990400	2.828900	-8.458300	28.980929	0.000197	20.733336
2468.619101	-2.955700	2.826400	-8.353000	28.958956	0.000197	20.730639
2469.618173	-3.008000	2.823300	-8.491000	28.966657	0.000198	20.726544
2470.618048	-3.015900	2.822300	-8.511100	28.978080	0.000199	20.723828
2471.611925	-2.999600	2.819700	-8.455700	28.963962	0.000200	20.724302
2472.620367	-2.986700	2.817200	-8.413100	28.957202	0.000199	20.742148
2473.615087	-2.995100	2.815200	-8.430800	28.935351	0.000198	20.724401
2474.614398	-3.002500	2.812500	-8.443600	28.945588	0.000199	20.755105
2475.618731	-3.008800	2.809900	-8.453300	28.988281	0.000199	20.728416
2476.618051	-2.982400	2.808100	-8.373900	29.044613	0.000199	20.721161
2477.615325	-3.015800	2.804500	-8.456700	29.008102	0.000200	20.724678
2478.619670	-2.992600	2.803300	-8.387900	28.990390	0.000201	20.731489
2479.619107	-3.005600	2.800200	-8.415300	28.928224	0.000197	20.739032
2480.618230	-2.999800	2.797900	-8.390800	28.881452	0.000199	20.739328
2481.623160	-2.991600	2.795100	-8.360500	28.896953	0.000198	20.717959
2482.620417	-3.017500	2.792400	-8.425300	28.918701	0.000199	20.725171
2483.617899	-3.038200	2.789400	-8.473900	28.939654	0.000200	20.732530
2484.629591	-2.989700	2.787000	-8.330800	28.978539	0.000199	20.719548
2485.619389	-3.011300	2.783700	-8.380400	28.972250	0.000200	20.746878
2486.617071	-3.042900	2.779700	-8.457100	29.008213	0.000198	20.738066
2487.629669	-3.010200	2.777200	-8.358400	28.999858	0.000201	20.740080
2488.625141	-3.007100	2.776200	-8.346500	28.939044	0.000200	20.745192
2489.621943	-3.008600	2.773400	-8.343800	28.871765	0.000198	20.723878
2490.625501	-3.010400	2.769700	-8.336900	28.850334	0.000198	20.732161
2491.622745	-3.022700	2.766800	-8.362200	28.897493	0.000198	20.725141
2492.626603	-2.986900	2.765800	-8.259800	28.892022	0.000199	20.740019
2493.629355	-2.979900	2.761900	-8.228300	28.879705	0.000199	20.762700
2494.624188	-2.986900	2.761300	-8.246400	28.916038	0.000200	20.730074
2495.621948	-3.017100	2.755300	-8.311900	28.922377	0.000199	20.744996
2496.630486	-2.982500	2.754000	-8.211400	28.959410	0.000198	20.713078
2497.625849	-3.010300	2.750500	-8.279200	28.979440	0.000201	20.744165
2498.625231	-3.033200	2.746900	-8.331400	28.966556	0.000201	20.735926
2499.629055	-3.000900	2.743200	-8.230000	28.903099	0.000202	20.729367
2500.630178	-2.975500	2.741100	-8.155200	28.872323	0.000200	20.738666
2501.622767	-2.990800	2.738000	-8.187300	28.857781	0.000201	20.755786
2502.628790	-3.023500	2.733800	-8.264800	28.876578	0.000200	20.724934
2503.626316	-3.024400	2.730100	-8.256000	28.891957	0.000200	20.742799
2504.627827	-3.010600	2.727100	-8.208300	28.909934	0.000200	20.752375
2505.630053	-2.994700	2.724700	-8.158500	28.963984	0.000201	20.745663
2506.628123	-3.006400	2.720900	-8.179400	29.026766	0.000199	20.736845
2507.626546	-2.970300	2.718100	-8.073200	29.040413	0.000201	20.745854
2508.630948	-2.995200	2.714300	-8.129000	29.044539	0.000201	20.753331
2509.632250	-3.043000	2.709600	-8.244400	29.082485	0.000201	20.743675
2510.626709	-2.999700	2.706400	-8.117600	29.113654	0.000202	20.755167
2511.631063	-2.990800	2.704300	-8.086300	29.158081	0.000200	20.743035
2512.630790	-2.983900	2.701800	-8.060700	29.220479	0.000201	20.752809
2513.625922	-2.991500	2.697900	-8.070400	29.232285	0.000201	20.754749
2514.628851	-2.968500	2.693300	-7.994100	29.222948	0.000201	20.741072
2515.627983	-3.000500	2.689200	-8.068600	29.186511	0.000198	20.751295
2516.625811	-2.991200	2.686500	-8.034900	29.157851	0.000201	20.751339
2517.631758	-2.978100	2.681900	-7.986200	29.179961	0.000203	20.755126
2518.626823	-2.991200	2.679500	-8.013900	29.169603	0.000200	20.741844
2519.630483	-2.984000	2.674400	-7.979600	29.157736	0.000200	20.759284
2520.630518	-2.995000	2.669000	-7.992900	29.111647	0.000202	20.762627
2521.639472	-2.971000	2.665700	-7.918300	29.074936	0.000200	20.758828
2522.627641	-3.029700	2.660400	-8.059300	29.016969	0.000203	20.754950
2523.628805	-3.006600	2.657800	-7.989900	29.039484	0.000201	20.748237
2524.631584	-3.005500	2.653300	-7.973600	29.064988	0.000200	20.755917
2525.629255	-2.973200	2.650000	-7.878200	29.121769	0.000200	20.756706
2526.635184	-3.000600	2.644900	-7.935500	29.192473	0.000201	20.775796
2527.635870	-2.991100	2.639900	-7.895200	29.153315	0.000200	20.735861
2528.628560	-2.947700	2.638400	-7.776500	29.152539	0.000202	20.764004
2529.633368	-2.988400	2.632800	-7.866300	29.173939	0.000199	20.762809
2530.633351	-3.009200	2.627400	-7.905900	29.136181	0.000200	20.757004
2531.630012	-3.014300	2.621500	-7.900900	29.143710	0.000199	20.759374
2532.627661	-3.001400	2.616600	-7.852100	29.221073	0.000200	20.754830
2533.636753	-2.972700	2.614900	-7.772600	29.263187	0.000199	20.771193
2534.627872	-2.975000	2.608500	-7.759300	29.280766	0.000200	20.761882
2535.632284	-3.003000	2.603400	-7.816700	29.346999	0.000199	20.776951
2536.635896	-3.009400	2.597900	-7.816300	29.387800	0.000200	20.771132
2537.630752	-2.983500	2.593000	-7.735600	29.422441	0.000200	20.766218
2538.633240	-2.999600	2.586400	-7.756900	29.442756	0.000198	20.788590
2539.632318	-2.994300	2.581600	-7.729500	29.488091	0.000199	20.754629
2540.630028	-2.987700	2.577800	-7.699100	29.476606	0.000198	20.775769
2541.636192	-2.984800	2.571100	-7.673500	29.428417	0.000200	20.754223
2542.638059	-2.974900	2.566700	-7.634800	29.382511	0.000199	20.777654
2543.630285	-2.999600	2.559600	-7.676100	29.342620	0.000199	20.766847
2544.631695	-2.960100	2.554300	-7.559600	29.282351	0.000198	20.771066
2545.630972	-2.978200	2.549500	-7.592100	29.237569	0.000199	20.770506
2546.633275	-2.966200	2.543100	-7.542100	29.261736	0.000200	20.764989
2547.637379	-2.972100	2.538400	-7.543200	29.255815	0.000199	20.785101
2548.634769	-2.985900	2.530000	-7.553400	29.281711	0.000199	20.781801
2549.634531	-3.017000	2.525400	-7.618500	29.297830	0.000197	20.784295
2550.637419	-3.003100	2.519000	-7.564000	29.285450	0.000196	20.791733
2551.637598	-2.985700	2.513900	-7.504700	29.272222	0.000196	20.781247
2552.635566	-2.997000	2.505600	-7.508300	29.236636	0.000199	20.779049
2553.635315	-2.992600	2.500500	-7.482300	29.202038	0.000196	20.774529
2554.633558	-3.007100	2.492200	-7.493200	29.187403	0.000197	20.787282
