LabVIEW Measurement	
Writer_Version	2
Reader_Version	2
Separator	Tab
Decimal_Separator	.
Multi_Headings	No
X_Columns	One
Time_Pref	Absolute
Operator	admin
Description	Clolumns are: time, Current, Voltage, Power, Battery Temp, and Chamber Temp
Date	2024/08/16
Time	13:06:06.104549407958984375
***End_of_Header***	
	
Channels	6						
Samples	1	1	1	1	1	1	
Date	2024/08/29	2024/08/29	2024/08/29	2024/08/29	2024/08/29	2024/08/29	
Time	18:00:00.5183224678039550781	18:00:00.5243406295776367188	18:00:00.5303463935852050781	18:00:00.5021462440490722656	18:00:00.5021462440490722656	18:00:00.5021462440490722656	
X_Dimension	Time	Time	Time	Time	Time	Time	
X0	0.0000000000000000E+0	0.0000000000000000E+0	0.0000000000000000E+0	0.0000000000000000E+0	0.0000000000000000E+0	0.0000000000000000E+0	
Delta_X	1.000000	1.000000	1.000000	1.000000	1.000000	1.000000	
***End_of_Header***							
X_Value	Untitled	Untitled 1	Untitled 2	Untitled 3	Untitled 4	Untitled 5	Comment
0.000000	0.002587	4.105800	0.010561	21.099539	0.000951	20.818405
1.002293	-3.012600	3.944100	-11.881000	21.109315	0.000950	20.810640
2.001055	-2.991200	3.938600	-11.780000	21.097113	0.000950	20.797487
2.999700	-3.017700	3.931500	-11.863000	21.100733	0.000950	20.804427
4.002387	-2.980700	3.929200	-11.710000	21.108170	0.000948	20.797167
5.003667	-3.008200	3.925200	-11.806000	21.094971	0.000947	20.794870
6.000031	-3.017100	3.921500	-11.829000	21.119515	0.000946	20.810886
6.999465	-3.012300	3.919400	-11.805000	21.105024	0.000947	20.796391
7.999842	-3.001600	3.917100	-11.756000	21.110583	0.000946	20.775872
8.999860	-3.018500	3.913800	-11.813000	21.101742	0.000944	20.820134
10.005486	-2.991100	3.914400	-11.707000	21.115408	0.000944	20.799191
11.000457	-3.016000	3.912100	-11.798000	21.114484	0.000943	20.802535
12.007298	-3.002400	3.910200	-11.740000	21.105429	0.000942	20.784942
13.002156	-3.001800	3.910000	-11.736000	21.132891	0.000943	20.796764
14.003703	-3.000600	3.908400	-11.726000	21.131949	0.000941	20.799142
15.003715	-3.001900	3.906300	-11.725000	21.131026	0.000941	20.793951
16.002942	-2.997900	3.904500	-11.704000	21.125233	0.000940	20.795268
17.003278	-3.000700	3.904000	-11.714000	21.134910	0.000940	20.791198
18.001312	-3.008100	3.903200	-11.740000	21.137975	0.000939	20.798531
19.002901	-3.017000	3.901100	-11.768000	21.149702	0.000939	20.789873
20.002738	-3.034700	3.901700	-11.840000	21.155008	0.000936	20.788543
21.008040	-2.996100	3.901100	-11.686000	21.165959	0.000938	20.797127
22.004094	-2.998300	3.899400	-11.691000	21.159871	0.000937	20.781079
23.005899	-3.006100	3.897900	-11.717000	21.170773	0.000936	20.788192
24.008380	-2.999200	3.896800	-11.686000	21.168681	0.000937	20.788469
25.002343	-3.009900	3.895900	-11.726000	21.176911	0.000934	20.769675
26.004631	-3.011800	3.895800	-11.731000	21.162389	0.000936	20.792132
27.005388	-3.013400	3.895100	-11.736000	21.178024	0.000936	20.766047
28.004277	-3.001700	3.894300	-11.689000	21.200628	0.000932	20.776331
29.005638	-2.991000	3.893300	-11.644000	21.210028	0.000933	20.791423
30.006441	-3.002100	3.893700	-11.688000	21.217864	0.000933	20.775081
31.005150	-2.988800	3.892700	-11.633000	21.202216	0.000932	20.791669
32.007497	-3.034500	3.892000	-11.809000	21.206980	0.000932	20.795013
33.004481	-3.002100	3.892200	-11.683000	21.209603	0.000931	20.780093
34.006346	-2.970300	3.892100	-11.560000	21.221821	0.000930	20.768608
35.005761	-2.997800	3.890500	-11.661000	21.214466	0.000929	20.770733
36.004454	-2.993300	3.889700	-11.642000	21.229959	0.000930	20.791922
37.008877	-2.996200	3.889600	-11.653000	21.230728	0.000930	20.773725
38.007103	-3.006700	3.889300	-11.693000	21.229257	0.000930	20.783159
39.008831	-3.017200	3.887300	-11.728000	21.235819	0.000929	20.777870
40.009035	-3.017100	3.887100	-11.726000	21.239734	0.000927	20.756181
41.009951	-2.992600	3.887800	-11.634000	21.231627	0.000930	20.770831
42.012849	-3.006400	3.885500	-11.680000	21.240787	0.000927	20.783313
43.014695	-2.991000	3.887900	-11.628000	21.258643	0.000927	20.770357
44.011065	-3.010100	3.885600	-11.695000	21.260761	0.000926	20.775794
45.009185	-3.013000	3.885900	-11.706000	21.268277	0.000927	20.771934
46.010809	-3.013700	3.885000	-11.708000	21.277405	0.000927	20.769686
47.015545	-3.007300	3.883600	-11.678000	21.255929	0.000926	20.773332
48.012555	-2.997800	3.884200	-11.643000	21.281899	0.000926	20.762327
49.010598	-3.008200	3.883500	-11.681000	21.300401	0.000923	20.750017
50.013308	-2.985900	3.885300	-11.600000	21.295089	0.000924	20.775523
51.013615	-2.975400	3.885300	-11.559000	21.331238	0.000924	20.759057
52.011935	-2.999400	3.882700	-11.645000	21.318849	0.000925	20.764206
53.016092	-2.995900	3.882500	-11.630000	21.302303	0.000925	20.774680
54.013520	-3.000300	3.882700	-11.647000	21.317975	0.000924	20.761909
55.015313	-3.011700	3.881400	-11.688000	21.331793	0.000925	20.754396
56.012704	-3.017800	3.880700	-11.710000	21.331540	0.000924	20.775955
57.011835	-2.980800	3.882300	-11.572000	21.332667	0.000924	20.745787
58.014844	-2.992100	3.881500	-11.613000	21.348300	0.000925	20.734400
59.020547	-3.008400	3.880400	-11.672000	21.362296	0.000925	20.768793
60.015024	-3.003400	3.879100	-11.649000	21.334039	0.000922	20.768024
61.015343	-3.005500	3.879700	-11.660000	21.350701	0.000922	20.771417
62.017010	-3.008600	3.880300	-11.673000	21.384743	0.000922	20.758060
63.018546	-2.990100	3.880500	-11.601000	21.353593	0.000922	20.743016
64.019419	-2.989900	3.880000	-11.598000	21.377363	0.000922	20.745935
65.016743	-2.983600	3.878700	-11.570000	21.380207	0.000923	20.756841
66.018186	-3.010100	3.878300	-11.672000	21.397896	0.000921	20.762211
67.016556	-2.999500	3.877900	-11.630000	21.406974	0.000922	20.759914
68.016886	-2.981300	3.877100	-11.557000	21.391637	0.000922	20.739827
69.018373	-3.009900	3.876300	-11.665000	21.412734	0.000922	20.763307
70.017590	-2.992000	3.876500	-11.597000	21.408599	0.000923	20.752531
71.016290	-2.994300	3.877500	-11.610000	21.413338	0.000921	20.766282
72.016764	-2.997800	3.877600	-11.623000	21.394277	0.000922	20.753848
73.018045	-3.001700	3.876900	-11.636000	21.410814	0.000921	20.756170
74.016348	-2.999200	3.876100	-11.625000	21.428503	0.000922	20.739254
75.019425	-3.000400	3.876600	-11.630000	21.436429	0.000922	20.744814
76.017180	-3.009500	3.876700	-11.666000	21.455342	0.000921	20.758523
77.018007	-3.025600	3.874100	-11.721000	21.450646	0.000922	20.736753
78.016722	-2.999200	3.875800	-11.622000	21.446658	0.000921	20.743669
79.018363	-3.014800	3.873500	-11.677000	21.435358	0.000923	20.738527
80.023094	-2.989200	3.874900	-11.582000	21.472002	0.000920	20.752907
81.018018	-2.994700	3.876300	-11.608000	21.451274	0.000920	20.742124
82.021687	-3.027000	3.872600	-11.721000	21.480679	0.000922	20.748312
83.018306	-2.980300	3.875300	-11.548000	21.472549	0.000919	20.738755
84.017749	-3.001400	3.873800	-11.625000	21.494372	0.000920	20.762488
85.019700	-2.978800	3.873900	-11.538000	21.505092	0.000919	20.747136
86.021067	-2.998600	3.873700	-11.615000	21.523973	0.000922	20.762710
87.018957	-2.990300	3.872900	-11.581000	21.517641	0.000921	20.735036
88.019745	-2.998600	3.873600	-11.614000	21.550582	0.000921	20.734807
89.022584	-2.988900	3.873200	-11.575000	21.541986	0.000922	20.748491
90.023499	-3.031700	3.871200	-11.736000	21.538989	0.000922	20.725102
91.022414	-2.999800	3.872200	-11.615000	21.544755	0.000921	20.738460
92.019916	-2.994600	3.872800	-11.596000	21.559912	0.000921	20.736082
93.024414	-2.987200	3.873000	-11.569000	21.574656	0.000921	20.722861
94.021523	-3.004300	3.873200	-11.636000	21.575302	0.000921	20.750062
95.022096	-2.987200	3.872700	-11.567000	21.570010	0.000921	20.727695
96.024154	-3.007100	3.871000	-11.640000	21.557574	0.000921	20.729475
97.026380	-2.990700	3.870700	-11.575000	21.588816	0.000922	20.723754
98.024221	-2.984300	3.871500	-11.553000	21.564724	0.000919	20.737579
99.024785	-2.997400	3.869700	-11.598000	21.583751	0.000921	20.743343
100.024890	-3.000000	3.870600	-11.611000	21.604778	0.000922	20.720287
101.028367	-3.024500	3.868700	-11.698000	21.611657	0.000921	20.722904
102.029105	-3.006000	3.869400	-11.630000	21.612359	0.000924	20.702268
103.026460	-3.013400	3.869200	-11.658000	21.618020	0.000920	20.730220
104.027966	-2.980800	3.871200	-11.537000	21.619860	0.000920	20.745338
105.025801	-2.999800	3.869100	-11.605000	21.651882	0.000922	20.717164
106.028124	-3.012700	3.869300	-11.656000	21.645754	0.000920	20.725257
107.034681	-2.995200	3.868700	-11.586000	21.639286	0.000921	20.718309
108.029634	-2.993600	3.869400	-11.583000	21.645305	0.000921	20.732394
109.028442	-3.012400	3.867600	-11.649000	21.658589	0.000921	20.713445
110.028165	-2.986900	3.867000	-11.550000	21.664208	0.000922	20.735664
111.027296	-3.018600	3.866300	-11.670000	21.673105	0.000924	20.711376
112.028439	-3.018100	3.866900	-11.669000	21.686623	0.000922	20.713051
113.031530	-3.018500	3.865600	-11.666000	21.681584	0.000922	20.708481
114.029213	-3.001700	3.866000	-11.603000	21.676600	0.000922	20.716296
115.032097	-2.999100	3.866600	-11.594000	21.701963	0.000921	20.726981
116.032097	-2.999100	3.865800	-11.593000	21.707600	0.000922	20.715077
117.033455	-3.010000	3.865700	-11.634000	21.709014	0.000922	20.722183
118.035994	-2.999700	3.865800	-11.595000	21.719949	0.000920	20.734550
119.034724	-3.003300	3.864700	-11.606000	21.736124	0.000924	20.718495
120.040257	-3.011300	3.864800	-11.637000	21.748042	0.000920	20.707188
121.038721	-2.994800	3.865600	-11.576000	21.741213	0.000921	20.714579
122.037008	-3.006200	3.865200	-11.619000	21.732471	0.000922	20.744237
123.039722	-3.025000	3.864100	-11.687000	21.756977	0.000922	20.714234
124.036538	-2.965000	3.865600	-11.460000	21.785858	0.000920	20.732709
125.038421	-2.988200	3.865600	-11.550000	21.781766	0.000922	20.702060
126.037674	-3.004700	3.863700	-11.608000	21.786405	0.000921	20.715238
127.039005	-2.983600	3.864900	-11.531000	21.783342	0.000923	20.695101
128.039057	-3.000300	3.864800	-11.594000	21.808696	0.000921	20.718108
129.041059	-2.998100	3.863400	-11.582000	21.802740	0.000920	20.711673
130.039985	-2.991800	3.862900	-11.554000	21.812166	0.000923	20.720159
131.040024	-3.007200	3.864300	-11.618000	21.831915	0.000920	20.712899
132.041762	-3.010300	3.863100	-11.628000	21.802870	0.000923	20.718916
133.040030	-3.001800	3.863700	-11.596000	21.823469	0.000924	20.707763
134.042832	-3.008300	3.863400	-11.622000	21.809404	0.000922	20.725456
135.040950	-3.004900	3.861800	-11.602000	21.822595	0.000924	20.711631
136.045527	-2.991200	3.863600	-11.556000	21.822146	0.000924	20.706439
137.042919	-3.033600	3.862900	-11.717000	21.847032	0.000925	20.701476
138.043527	-3.014600	3.862500	-11.643000	21.864732	0.000923	20.710658
139.046592	-2.985000	3.862200	-11.527000	21.861145	0.000926	20.692842
140.046894	-2.991400	3.862600	-11.553000	21.867402	0.000925	20.708589
141.046658	-3.003700	3.862000	-11.600000	21.870300	0.000926	20.702480
142.043198	-2.985200	3.861500	-11.526000	21.882512	0.000926	20.695262
143.044985	-3.025200	3.860000	-11.675000	21.906203	0.000927	20.700011
144.044947	-2.994000	3.862000	-11.562000	21.894989	0.000927	20.709649
145.046582	-3.012300	3.860200	-11.627000	21.915726	0.000927	20.713811
146.048274	-3.013800	3.859800	-11.631000	21.922635	0.000928	20.692276
147.045157	-3.010500	3.859600	-11.618000	21.921811	0.000927	20.693347
148.045001	-3.006700	3.860300	-11.607000	21.921091	0.000925	20.704956
149.045363	-2.992300	3.859500	-11.547000	21.938618	0.000929	20.690256
150.050696	-3.003400	3.858900	-11.590000	21.912965	0.000927	20.716737
151.046631	-3.007400	3.859200	-11.605000	21.916804	0.000926	20.689283
152.054770	-2.986500	3.859700	-11.525000	21.908179	0.000927	20.704833
153.044198	-2.983000	3.860100	-11.513000	21.922470	0.000927	20.676462
154.045889	-3.005700	3.860300	-11.602000	21.919031	0.000929	20.701471
155.048419	-3.001100	3.858300	-11.578000	21.939449	0.000927	20.690140
156.054090	-3.006700	3.857800	-11.598000	21.940151	0.000928	20.693688
157.051867	-2.989800	3.858300	-11.534000	21.941017	0.000929	20.694081
158.048599	-2.998100	3.858000	-11.565000	21.958291	0.000929	20.668222
159.048066	-2.997600	3.858000	-11.563000	21.956151	0.000929	20.691211
160.052874	-2.994500	3.858400	-11.553000	21.977441	0.000930	20.679806
161.052845	-3.004600	3.857600	-11.589000	21.951371	0.000931	20.697333
162.048701	-2.998800	3.857100	-11.566000	21.983599	0.000930	20.705887
163.054457	-2.992100	3.856200	-11.537000	21.981883	0.000931	20.675243
164.056076	-2.989900	3.857300	-11.532000	21.988767	0.000931	20.683083
165.052644	-2.990600	3.856800	-11.533000	21.993240	0.000932	20.689458
166.052652	-2.994400	3.856100	-11.546000	22.006391	0.000930	20.694562
167.052375	-2.999800	3.855600	-11.564000	21.999040	0.000934	20.688626
168.052649	-2.997400	3.855900	-11.556000	22.005973	0.000932	20.694618
169.051215	-2.991000	3.855900	-11.532000	22.014972	0.000934	20.680392
170.052627	-3.015700	3.855000	-11.625000	22.017691	0.000932	20.690701
171.053684	-3.000100	3.856000	-11.568000	22.038384	0.000935	20.681070
172.055865	-2.981100	3.855700	-11.493000	22.036157	0.000934	20.679314
173.056126	-2.981000	3.855800	-11.493000	22.044166	0.000932	20.684014
174.058827	-3.034400	3.854000	-11.693000	22.038279	0.000935	20.687129
175.056551	-2.998700	3.855300	-11.559000	22.032301	0.000934	20.681618
176.056657	-3.010900	3.854300	-11.603000	22.037135	0.000935	20.680294
177.062825	-2.989600	3.855200	-11.523000	22.038083	0.000937	20.676974
178.056214	-2.996300	3.854900	-11.548000	22.010260	0.000935	20.684685
179.056965	-2.984000	3.854800	-11.502000	22.059506	0.000934	20.667600
180.055600	-2.995000	3.853300	-11.540000	22.044731	0.000937	20.676044
181.057398	-2.998800	3.853600	-11.555000	22.060435	0.000937	20.677540
182.059319	-3.002200	3.853000	-11.566000	22.070553	0.000937	20.683877
183.061700	-2.982000	3.853900	-11.491000	22.070855	0.000939	20.683231
184.057877	-2.997400	3.852800	-11.547000	22.079349	0.000938	20.672767
185.060500	-3.000600	3.853000	-11.560000	22.076090	0.000938	20.655751
186.058377	-3.006700	3.851300	-11.577000	22.098041	0.000939	20.696698
187.058679	-2.992600	3.852600	-11.529000	22.111825	0.000938	20.688212
188.063005	-3.029600	3.852000	-11.669000	22.139172	0.000940	20.671966
189.060892	-3.007100	3.851400	-11.579000	22.118375	0.000941	20.670112
190.063494	-2.986500	3.852900	-11.506000	22.117232	0.000942	20.663276
191.062449	-2.992200	3.850200	-11.519000	22.163269	0.000942	20.686610
192.065196	-3.001500	3.850800	-11.556000	22.160975	0.000940	20.691900
193.066259	-2.993700	3.850100	-11.525000	22.149682	0.000941	20.704777
194.068644	-3.002500	3.851300	-11.563000	22.142972	0.000942	20.671503
195.065745	-3.013100	3.850800	-11.602000	22.171867	0.000942	20.671984
196.065385	-2.984500	3.850400	-11.489000	22.184451	0.000943	20.694068
197.065077	-2.987400	3.851400	-11.504000	22.198111	0.000943	20.666490
198.067016	-3.015100	3.849900	-11.607000	22.189039	0.000944	20.675900
199.069354	-3.000400	3.849600	-11.548000	22.179543	0.000944	20.672082
200.068657	-3.009600	3.848200	-11.581000	22.183350	0.000944	20.662616
201.067920	-2.997700	3.849400	-11.539000	22.181922	0.000944	20.698174
202.066852	-2.963700	3.850900	-11.412000	22.197262	0.000947	20.677495
203.067826	-2.962500	3.850900	-11.407000	22.210737	0.000946	20.681978
204.074574	-2.987600	3.848900	-11.497000	22.202637	0.000946	20.671022
205.068208	-2.991800	3.847600	-11.511000	22.221702	0.000946	20.676361
206.069911	-2.993500	3.847800	-11.516000	22.241690	0.000946	20.677882
207.068367	-3.001600	3.847600	-11.548000	22.234334	0.000947	20.686639
208.068362	-2.995700	3.847100	-11.523000	22.245724	0.000946	20.675283
209.069049	-2.998600	3.847200	-11.535000	22.237471	0.000949	20.682193
210.070778	-2.986800	3.847500	-11.491000	22.261401	0.000949	20.680074
211.068520	-2.998900	3.845800	-11.532000	22.263418	0.000949	20.678775
212.068446	-2.976900	3.848200	-11.454000	22.276197	0.000949	20.684933
213.068006	-2.992600	3.846700	-11.511000	22.289210	0.000949	20.674728
214.071730	-2.981300	3.846400	-11.465000	22.292876	0.000949	20.673657
215.069471	-3.000400	3.846100	-11.539000	22.296559	0.000950	20.694417
216.068993	-2.996500	3.846700	-11.525000	22.294542	0.000949	20.681964
217.071315	-3.013300	3.845200	-11.586000	22.282427	0.000951	20.706819
218.070114	-2.995100	3.846400	-11.520000	22.276891	0.000953	20.686577
219.069757	-2.992800	3.846200	-11.511000	22.300323	0.000954	20.694392
220.069957	-3.002700	3.844400	-11.543000	22.305482	0.000953	20.679168
221.070730	-3.012700	3.843800	-11.579000	22.322947	0.000953	20.671525
222.068982	-3.002700	3.845900	-11.545000	22.317542	0.000952	20.677967
223.071886	-3.011800	3.844400	-11.578000	22.316872	0.000954	20.703377
224.071651	-3.014400	3.845400	-11.591000	22.340289	0.000954	20.688417
225.077410	-2.990800	3.845400	-11.499000	22.309541	0.000954	20.694139
226.071943	-3.006900	3.843300	-11.555000	22.301786	0.000956	20.688744
227.071273	-2.989500	3.844400	-11.492000	22.327479	0.000954	20.676538
228.072087	-3.006400	3.843000	-11.552000	22.322842	0.000955	20.682327
229.072109	-3.009200	3.844200	-11.566000	22.340067	0.000956	20.702896
230.072401	-3.006000	3.842800	-11.550000	22.354599	0.000957	20.701326
231.079161	-3.003500	3.842400	-11.540000	22.362747	0.000958	20.670601
232.072981	-3.013100	3.842700	-11.577000	22.365483	0.000957	20.697526
233.073715	-3.015500	3.842700	-11.587000	22.380445	0.000958	20.685481
234.072908	-3.004700	3.841100	-11.541000	22.388463	0.000959	20.690665
235.071569	-3.015500	3.841700	-11.583000	22.404636	0.000958	20.676987
236.074948	-3.004400	3.842500	-11.543000	22.413109	0.000960	20.688793
237.074448	-2.998500	3.843200	-11.522000	22.396408	0.000960	20.684396
238.072787	-2.999900	3.840900	-11.522000	22.416221	0.000959	20.695228
239.075294	-3.021300	3.840200	-11.601000	22.421060	0.000963	20.694859
240.072517	-2.985700	3.841800	-11.469000	22.427941	0.000960	20.692741
241.076690	-2.997000	3.840600	-11.509000	22.437884	0.000960	20.673773
242.082751	-2.972400	3.842000	-11.419000	22.443338	0.000960	20.695358
243.074702	-3.014800	3.839800	-11.574000	22.435566	0.000962	20.696584
244.077094	-3.014900	3.841300	-11.579000	22.426325	0.000961	20.705822
245.074759	-3.011100	3.840300	-11.561000	22.459050	0.000963	20.681694
246.073634	-3.007700	3.840400	-11.550000	22.451180	0.000960	20.695624
247.075988	-3.022800	3.839000	-11.604000	22.459401	0.000963	20.726619
248.073523	-3.016400	3.838700	-11.578000	22.489327	0.000963	20.701111
249.073694	-3.011000	3.838900	-11.558000	22.478591	0.000964	20.706956
250.075101	-3.005400	3.838700	-11.535000	22.491448	0.000963	20.704659
251.076343	-3.000500	3.837800	-11.515000	22.492648	0.000965	20.707282
252.075605	-3.006400	3.837800	-11.536000	22.506827	0.000963	20.697300
253.077208	-3.009100	3.837300	-11.545000	22.490533	0.000968	20.694732
254.076643	-3.009800	3.838300	-11.552000	22.486205	0.000967	20.704149
255.078434	-2.988200	3.839000	-11.471000	22.490287	0.000966	20.698754
256.078155	-3.017400	3.837300	-11.578000	22.497315	0.000968	20.676393
257.076243	-3.008000	3.837900	-11.543000	22.499984	0.000968	20.705621
258.083386	-2.967300	3.838800	-11.389000	22.535541	0.000970	20.698083
259.078341	-2.972800	3.838000	-11.408000	22.523730	0.000968	20.701427
260.081511	-2.990700	3.836500	-11.473000	22.537810	0.000968	20.696087
261.078442	-2.973600	3.837900	-11.411000	22.554166	0.000971	20.716263
262.077857	-2.996000	3.837200	-11.494000	22.557775	0.000971	20.701858
263.081526	-2.992500	3.837900	-11.484000	22.552402	0.000971	20.706435
264.080091	-2.987500	3.835900	-11.459000	22.584163	0.000972	20.715013
265.078080	-2.998000	3.836100	-11.500000	22.591222	0.000973	20.686044
266.078783	-2.997200	3.835600	-11.495000	22.579885	0.000973	20.698872
267.079443	-3.005400	3.835700	-11.527000	22.595525	0.000973	20.719754
268.081068	-2.996200	3.835300	-11.490000	22.591198	0.000973	20.711152
269.081894	-3.008800	3.835400	-11.538000	22.602608	0.000972	20.719262
270.080453	-3.010200	3.834700	-11.542000	22.610411	0.000974	20.698626
271.084350	-3.014100	3.834900	-11.558000	22.606543	0.000974	20.696649
272.085326	-3.001500	3.834800	-11.510000	22.627484	0.000976	20.706719
273.085221	-3.000200	3.833100	-11.499000	22.629550	0.000977	20.713530
274.082986	-2.994600	3.834900	-11.483000	22.606255	0.000976	20.706319
275.083117	-3.012300	3.834600	-11.549000	22.633614	0.000976	20.720446
276.084028	-2.982000	3.835900	-11.437000	22.644250	0.000976	20.701700
277.083129	-3.006900	3.832200	-11.522000	22.650908	0.000978	20.705050
278.085686	-3.002100	3.832200	-11.504000	22.643611	0.000979	20.711018
279.086646	-3.023000	3.831700	-11.582000	22.636258	0.000978	20.747277
280.085510	-2.996200	3.834100	-11.486000	22.641693	0.000979	20.718106
281.086110	-3.012600	3.832600	-11.545000	22.632151	0.000980	20.707126
282.084939	-3.003900	3.831100	-11.507000	22.617655	0.000979	20.718211
283.087500	-2.982700	3.833100	-11.432000	22.645455	0.000982	20.716185
284.086534	-2.992200	3.831700	-11.464000	22.645708	0.000980	20.723550
285.089982	-2.995700	3.832100	-11.478000	22.634753	0.000983	20.709732
286.088573	-3.010500	3.831200	-11.533000	22.659264	0.000984	20.729068
287.089224	-2.993900	3.831500	-11.470000	22.651598	0.000984	20.713329
288.089382	-2.992900	3.832800	-11.470000	22.683788	0.000984	20.713803
289.090668	-3.001300	3.830800	-11.496000	22.687519	0.000985	20.699521
290.092716	-3.019500	3.828400	-11.558000	22.673644	0.000985	20.722609
291.092665	-3.020400	3.830700	-11.569000	22.678907	0.000985	20.710810
292.090108	-3.023200	3.828200	-11.572000	22.689542	0.000987	20.720989
293.090738	-2.991800	3.829800	-11.456000	22.693035	0.000987	20.722117
294.090046	-2.991200	3.828700	-11.452000	22.707390	0.000988	20.698088
295.093585	-2.990200	3.829900	-11.450000	22.735545	0.000988	20.713016
296.094045	-2.993500	3.828200	-11.459000	22.747667	0.000986	20.703346
297.090959	-2.990000	3.829900	-11.451000	22.759409	0.000987	20.708471
298.094633	-3.007600	3.828100	-11.512000	22.763276	0.000987	20.718509
299.091715	-3.003500	3.827800	-11.496000	22.768206	0.000989	20.734354
300.092908	-3.008800	3.826800	-11.511000	22.777150	0.000988	20.728140
301.096830	-3.008200	3.828900	-11.517000	22.785793	0.000988	20.722099
302.093354	-2.996200	3.829100	-11.472000	22.804204	0.000991	20.722998
303.096292	-2.989300	3.828000	-11.441000	22.810855	0.000990	20.716384
304.103145	-2.982800	3.827900	-11.416000	22.822719	0.000992	20.722580
305.093564	-3.002600	3.826400	-11.487000	22.788990	0.000992	20.718189
306.095253	-3.007200	3.827200	-11.508000	22.797356	0.000992	20.754072
307.097447	-3.016700	3.825800	-11.540000	22.804610	0.000994	20.721034
308.094182	-3.008000	3.826600	-11.509000	22.786119	0.000993	20.735228
309.094188	-2.996100	3.828200	-11.469000	22.822743	0.000995	20.732562
310.094498	-3.002200	3.828200	-11.491000	22.774864	0.000994	20.736282
311.093801	-3.008600	3.825700	-11.508000	22.793226	0.000994	20.731916
312.097350	-2.999600	3.825600	-11.475000	22.805606	0.000994	20.721558
313.094429	-2.990400	3.825900	-11.441000	22.808888	0.000995	20.747606
314.098240	-3.020100	3.824500	-11.549000	22.811857	0.000995	20.740623
315.095548	-3.001700	3.824500	-11.479000	22.849796	0.000997	20.737378
316.095070	-3.000800	3.825200	-11.478000	22.834502	0.000999	20.721582
317.096250	-3.001000	3.824100	-11.475000	22.825429	0.000996	20.730511
318.099780	-2.979300	3.825400	-11.394000	22.814224	0.000997	20.742046
319.096157	-3.010600	3.823100	-11.509000	22.843685	0.000996	20.732204
320.095889	-2.981400	3.824400	-11.401000	22.841448	0.000997	20.745137
321.097152	-3.010100	3.823300	-11.507000	22.848148	0.001000	20.729563
322.096289	-2.995100	3.824800	-11.454000	22.841577	0.001001	20.737206
323.100873	-2.968600	3.824200	-11.351000	22.847724	0.000997	20.737673
324.096794	-2.987500	3.822700	-11.420000	22.840428	0.001001	20.732735
325.098706	-2.984500	3.822100	-11.406000	22.890351	0.001003	20.728695
326.097088	-3.013800	3.822800	-11.519000	22.866214	0.001002	20.735334
327.096918	-2.994200	3.822300	-11.442000	22.889847	0.001003	20.756166
328.099424	-3.010400	3.820900	-11.502000	22.881124	0.001002	20.752169
329.098488	-2.996200	3.821800	-11.450000	22.887628	0.001003	20.727389
330.099341	-3.004300	3.821000	-11.478000	22.873134	0.001002	20.746061
331.100338	-3.009200	3.820400	-11.495000	22.882975	0.001004	20.741695
332.100703	-2.996200	3.820900	-11.447000	22.877492	0.001003	20.754694
333.100073	-2.991300	3.821100	-11.429000	22.853821	0.001004	20.742359
334.102836	-2.994200	3.821200	-11.441000	22.865432	0.001006	20.751147
335.100523	-3.009400	3.818700	-11.490000	22.865432	0.001005	20.756837
336.100974	-3.000800	3.820100	-11.462000	22.858259	0.001006	20.752021
337.100708	-2.995300	3.819400	-11.440000	22.886373	0.001006	20.751263
338.103465	-3.013400	3.818000	-11.504000	22.920824	0.001006	20.752113
339.104844	-3.003000	3.819400	-11.469000	22.915846	0.001006	20.766566
340.101988	-2.999000	3.819000	-11.453000	22.924211	0.001006	20.751238
341.103558	-3.021700	3.817500	-11.533000	22.929448	0.001007	20.750321
342.100153	-3.013800	3.818400	-11.507000	22.947001	0.001009	20.749890
343.101943	-3.007300	3.817700	-11.480000	22.938924	0.001008	20.751281
344.099359	-2.985100	3.818800	-11.398000	22.961826	0.001006	20.754786
345.103928	-3.000800	3.817900	-11.456000	22.991241	0.001009	20.781413
346.101054	-2.980900	3.819400	-11.384000	22.965858	0.001009	20.758825
347.101861	-3.023800	3.815900	-11.537000	22.986656	0.001010	20.759275
348.101277	-3.011200	3.817000	-11.493000	22.992268	0.001011	20.758259
349.102375	-2.993400	3.817900	-11.428000	23.030845	0.001010	20.770834
350.107033	-2.999700	3.815900	-11.445000	23.022702	0.001013	20.756036
351.102279	-3.028900	3.815600	-11.555000	23.040482	0.001013	20.769583
352.109747	-3.003100	3.815400	-11.457000	23.034361	0.001014	20.787159
353.105093	-3.009400	3.816500	-11.485000	23.022972	0.001013	20.771006
354.103018	-3.001900	3.816100	-11.455000	23.041386	0.001013	20.746307
355.106035	-3.002000	3.815100	-11.452000	23.053714	0.001015	20.765298
356.104178	-2.978800	3.816700	-11.369000	23.056080	0.001014	20.763876
357.102678	-3.012500	3.814000	-11.488000	23.056357	0.001014	20.762730
358.103612	-3.006800	3.815100	-11.470000	23.091147	0.001014	20.776727
359.103755	-3.008000	3.814200	-11.472000	23.098448	0.001016	20.783569
360.102533	-3.006500	3.813900	-11.465000	23.093193	0.001016	20.788736
361.104837	-3.001200	3.814000	-11.446000	23.133113	0.001015	20.781321
362.104554	-3.019100	3.813400	-11.512000	23.121266	0.001019	20.782252
363.104863	-3.008600	3.812900	-11.470000	23.109307	0.001015	20.771216
364.103827	-3.015800	3.811600	-11.493000	23.125069	0.001018	20.759510
365.105765	-3.003100	3.812900	-11.449000	23.128087	0.001019	20.769646
366.108285	-3.010800	3.812400	-11.476000	23.127596	0.001020	20.770577
367.104554	-3.015400	3.811000	-11.490000	23.120589	0.001019	20.792005
368.105606	-2.989800	3.812200	-11.396000	23.113498	0.001020	20.781107
369.104554	-2.993500	3.812700	-11.411000	23.121119	0.001021	20.770250
370.104885	-2.981800	3.811900	-11.365000	23.136488	0.001020	20.774272
371.108596	-2.992200	3.812800	-11.407000	23.143039	0.001021	20.768508
372.109287	-3.002100	3.811300	-11.441000	23.152681	0.001021	20.778170
373.107522	-2.999700	3.811600	-11.432000	23.154623	0.001021	20.773952
374.108216	-3.008400	3.810200	-11.460000	23.160448	0.001021	20.772203
375.108497	-3.009400	3.810000	-11.465000	23.183689	0.001021	20.784587
376.108380	-2.986800	3.810200	-11.379000	23.180205	0.001024	20.777302
377.111059	-3.006100	3.809900	-11.451000	23.191088	0.001023	20.767819
378.109381	-2.994600	3.810000	-11.408000	23.189822	0.001024	20.784569
379.112483	-2.992000	3.809900	-11.398000	23.221867	0.001021	20.784439
380.109660	-2.996700	3.810400	-11.417000	23.213357	0.001025	20.784446
381.108551	-3.003900	3.807600	-11.437000	23.213413	0.001024	20.801098
382.109604	-3.009000	3.807300	-11.455000	23.199022	0.001025	20.780038
383.110605	-2.977800	3.808600	-11.339000	23.193769	0.001025	20.799429
384.112624	-2.990700	3.809200	-11.391000	23.205198	0.001027	20.808038
385.108473	-3.014700	3.807400	-11.477000	23.188834	0.001025	20.786423
386.108538	-3.006900	3.808600	-11.451000	23.237323	0.001028	20.775272
387.109279	-3.013200	3.808200	-11.473000	23.211576	0.001025	20.795938
388.114954	-3.004800	3.807900	-11.440000	23.189412	0.001027	20.799331
389.112433	-3.014900	3.805400	-11.473000	23.182241	0.001028	20.803998
390.112003	-2.998700	3.805700	-11.411000	23.192454	0.001029	20.779146
391.111492	-2.982900	3.806400	-11.352000	23.198279	0.001028	20.793044
392.110599	-3.000600	3.805700	-11.419000	23.226128	0.001027	20.781123
393.119049	-3.009900	3.805100	-11.452000	23.208744	0.001028	20.815859
394.113296	-3.015800	3.805100	-11.474000	23.241570	0.001029	20.821728
395.112929	-3.009500	3.805200	-11.450000	23.246080	0.001031	20.787367
396.113474	-2.994800	3.805100	-11.395000	23.243518	0.001029	20.806611
397.111288	-3.006900	3.804600	-11.439000	23.275838	0.001031	20.805336
398.114508	-3.008700	3.803400	-11.442000	23.273725	0.001032	20.803218
399.115853	-3.020600	3.804400	-11.491000	23.301442	0.001031	20.817720
400.112012	-2.998100	3.804300	-11.405000	23.318155	0.001032	20.806021
401.111934	-3.034000	3.801600	-11.533000	23.318506	0.001033	20.799734
402.113075	-2.993100	3.803600	-11.383000	23.290242	0.001032	20.804124
403.110666	-3.024700	3.801800	-11.498000	23.302623	0.001035	20.807050
404.115301	-2.986100	3.804300	-11.359000	23.287907	0.001033	20.801311
405.111095	-3.017500	3.801600	-11.471000	23.304000	0.001032	20.818387
406.111352	-3.005100	3.802300	-11.426000	23.284676	0.001033	20.806607
407.112963	-2.985000	3.802400	-11.349000	23.307484	0.001034	20.820455
408.114096	-2.981200	3.803200	-11.337000	23.323446	0.001035	20.817962
409.117941	-2.989700	3.801100	-11.363000	23.312793	0.001034	20.816293
410.115139	-2.991400	3.800600	-11.367000	23.315312	0.001035	20.818819
411.115092	-2.992900	3.801800	-11.377000	23.331324	0.001035	20.806891
412.116333	-2.978100	3.802000	-11.322000	23.323127	0.001036	20.799624
413.115552	-2.971700	3.801100	-11.295000	23.335827	0.001035	20.818991
414.117249	-3.006400	3.800200	-11.423000	23.335533	0.001036	20.822015
415.116281	-2.993100	3.800700	-11.375000	23.317776	0.001037	20.844520
416.118856	-3.013700	3.800500	-11.453000	23.358192	0.001035	20.809163
417.116962	-2.993000	3.799900	-11.373000	23.356349	0.001036	20.817273
418.117408	-2.998200	3.800100	-11.391000	23.378135	0.001037	20.823936
419.118993	-3.010900	3.799300	-11.439000	23.396690	0.001040	20.817877
420.122976	-3.005200	3.800300	-11.420000	23.386006	0.001038	20.819970
421.119115	-2.998900	3.799000	-11.391000	23.408419	0.001039	20.829158
422.120842	-2.997700	3.800000	-11.389000	23.400450	0.001040	20.796042
423.119423	-3.009400	3.799300	-11.432000	23.407269	0.001038	20.835592
424.119254	-3.025300	3.796300	-11.484000	23.419797	0.001039	20.845778
425.119885	-2.983300	3.799100	-11.332000	23.407497	0.001039	20.828234
426.121374	-3.028000	3.797800	-11.498000	23.405636	0.001039	20.811197
427.120691	-2.985300	3.798800	-11.339000	23.408419	0.001041	20.825839
428.120662	-3.001000	3.796100	-11.392000	23.386805	0.001040	20.835944
429.121379	-2.985400	3.798000	-11.338000	23.430204	0.001042	20.832502
430.121054	-3.002400	3.796900	-11.397000	23.407374	0.001041	20.839965
431.125446	-3.007700	3.796600	-11.418000	23.422488	0.001040	20.821449
432.123539	-3.013700	3.795100	-11.435000	23.405808	0.001040	20.820852
433.127023	-2.993200	3.795000	-11.358000	23.431507	0.001042	20.811049
434.124785	-3.005300	3.793500	-11.399000	23.438351	0.001041	20.810796
435.122899	-3.013300	3.795100	-11.435000	23.460805	0.001041	20.815759
436.125612	-2.993200	3.795900	-11.360000	23.425105	0.001042	20.819331
437.125370	-2.993600	3.794100	-11.357000	23.470788	0.001042	20.835722
438.132390	-3.005000	3.794100	-11.400000	23.450878	0.001042	20.822878
439.124973	-2.988800	3.793300	-11.337000	23.453317	0.001044	20.831012
440.124233	-2.994900	3.793800	-11.361000	23.454760	0.001041	20.831511
441.127354	-2.989100	3.793800	-11.339000	23.464621	0.001044	20.836179
442.128322	-2.998700	3.793600	-11.374000	23.443334	0.001045	20.813420
443.125113	-3.002600	3.793300	-11.388000	23.427569	0.001044	20.818481
444.126657	-3.011700	3.792500	-11.421000	23.417063	0.001043	20.806529
445.123973	-3.011900	3.791400	-11.418000	23.403744	0.001046	20.808352
446.125763	-2.981700	3.792400	-11.307000	23.421549	0.001044	20.827145
447.129087	-3.003600	3.790900	-11.386000	23.394682	0.001046	20.816813
448.127425	-2.967100	3.793100	-11.253000	23.403726	0.001045	20.796954
449.129530	-3.006300	3.789400	-11.391000	23.368400	0.001047	20.828403
450.128998	-3.005400	3.791200	-11.392000	23.402282	0.001046	20.812103
451.128114	-3.004200	3.790200	-11.386000	23.386892	0.001048	20.809005
452.130390	-2.999300	3.789800	-11.366000	23.400642	0.001045	20.800976
453.128917	-3.014500	3.789300	-11.422000	23.411295	0.001047	20.808334
454.129056	-3.009300	3.788000	-11.398000	23.409624	0.001047	20.790538
455.128563	-2.990300	3.788900	-11.329000	23.413562	0.001046	20.818193
456.130150	-2.986300	3.789200	-11.314000	23.446081	0.001048	20.826604
457.132122	-2.988700	3.788700	-11.322000	23.452893	0.001046	20.795975
458.130696	-2.995800	3.787700	-11.346000	23.453152	0.001047	20.798131
459.132450	-2.984400	3.789100	-11.307000	23.464946	0.001047	20.795255
460.129868	-2.991600	3.788300	-11.332000	23.485367	0.001049	20.801499
461.130498	-2.992600	3.787600	-11.334000	23.510935	0.001051	20.806739
462.130621	-3.015000	3.787100	-11.417000	23.521482	0.001047	20.783647
463.136065	-3.010500	3.785900	-11.395000	23.518994	0.001049	20.806283
464.130479	-2.989800	3.786300	-11.318000	23.521040	0.001051	20.811653
465.132401	-3.024700	3.786700	-11.452000	23.540760	0.001049	20.806764
466.131804	-3.004200	3.786800	-11.375000	23.501745	0.001051	20.819812
467.130700	-3.017600	3.785000	-11.419000	23.500399	0.001051	20.789540
468.129248	-3.029000	3.782800	-11.456000	23.508490	0.001050	20.793383
469.133275	-2.994200	3.786100	-11.335000	23.492911	0.001049	20.810009
470.134141	-3.002400	3.784300	-11.361000	23.496769	0.001051	20.794436
471.131089	-3.010000	3.783400	-11.387000	23.488721	0.001050	20.798697
472.132051	-2.983500	3.784800	-11.291000	23.496443	0.001053	20.788894
473.133963	-2.996400	3.783500	-11.336000	23.514124	0.001051	20.770581
474.134430	-3.001900	3.783500	-11.356000	23.517214	0.001051	20.791696
475.131549	-2.999000	3.782600	-11.343000	23.524635	0.001051	20.795342
476.133932	-2.994600	3.783500	-11.329000	23.546141	0.001050	20.796512
477.133381	-2.992600	3.783200	-11.321000	23.539821	0.001050	20.788279
478.133247	-2.999200	3.781400	-11.340000	23.548832	0.001052	20.788304
479.137397	-2.987900	3.782500	-11.299000	23.565142	0.001052	20.778100
480.135474	-3.012600	3.782200	-11.393000	23.578736	0.001052	20.775132
481.134089	-2.987000	3.782100	-11.296000	23.560209	0.001054	20.791647
482.133101	-2.991400	3.782700	-11.315000	23.555836	0.001053	20.794376
483.132128	-3.002100	3.781100	-11.350000	23.560591	0.001051	20.781598
484.141265	-3.018300	3.780700	-11.409000	23.560149	0.001054	20.775940
485.136745	-3.025400	3.779500	-11.432000	23.577815	0.001053	20.785588
486.134562	-3.007300	3.780200	-11.368000	23.570979	0.001051	20.785848
487.137629	-2.993000	3.780700	-11.314000	23.585267	0.001052	20.781679
488.136751	-2.994100	3.779700	-11.316000	23.613351	0.001053	20.767159
489.137022	-3.016000	3.778300	-11.393000	23.607854	0.001054	20.788675
490.141034	-3.010700	3.778700	-11.376000	23.614420	0.001053	20.770601
491.137264	-3.001300	3.777800	-11.336000	23.626903	0.001055	20.784064
492.142017	-3.021200	3.777300	-11.410000	23.623844	0.001056	20.778152
493.137053	-3.000700	3.779800	-11.341000	23.620036	0.001054	20.763429
494.137331	-3.007800	3.776400	-11.357000	23.643015	0.001055	20.748533
495.136661	-3.008000	3.776700	-11.360000	23.647646	0.001056	20.780203
496.139458	-3.007600	3.777900	-11.361000	23.643193	0.001056	20.752505
497.136490	-2.987900	3.777500	-11.286000	23.634932	0.001055	20.804441
498.136958	-3.009200	3.777300	-11.364000	23.630136	0.001056	20.754588
499.140237	-3.025900	3.775200	-11.421000	23.630406	0.001054	20.777618
500.136730	-3.010500	3.775400	-11.364000	23.647979	0.001056	20.765838
501.143865	-2.993600	3.775700	-11.302000	23.672611	0.001057	20.780575
502.138140	-2.970000	3.778100	-11.220000	23.682266	0.001057	20.769392
503.140759	-2.998200	3.775600	-11.319000	23.649510	0.001058	20.780175
504.137373	-2.999900	3.774100	-11.321000	23.676714	0.001057	20.774731
505.149136	-3.000000	3.773800	-11.320000	23.648350	0.001058	20.783754
506.139098	-2.977600	3.775500	-11.241000	23.630598	0.001057	20.748413
507.138020	-3.007100	3.773300	-11.346000	23.648921	0.001058	20.754454
508.138336	-2.982400	3.774400	-11.256000	23.663909	0.001057	20.759996
509.138743	-2.988900	3.774800	-11.281000	23.673921	0.001057	20.760077
510.137229	-2.985600	3.772900	-11.264000	23.670912	0.001058	20.768440
511.140772	-3.009000	3.772500	-11.350000	23.711683	0.001059	20.753839
512.147183	-2.995800	3.771900	-11.299000	23.709749	0.001057	20.740520
513.138509	-2.998300	3.773000	-11.311000	23.688982	0.001057	20.740088
514.137668	-3.010600	3.773000	-11.358000	23.665937	0.001059	20.799963
515.138980	-3.005000	3.771500	-11.333000	23.653819	0.001061	20.754622
516.139010	-2.985800	3.771400	-11.259000	23.644531	0.001060	20.751475
517.149194	-3.017500	3.769300	-11.372000	23.658100	0.001060	20.758440
518.140439	-3.002600	3.770400	-11.320000	23.650483	0.001058	20.758391
519.144581	-2.971100	3.772000	-11.206000	23.648542	0.001058	20.769248
520.139893	-2.977500	3.770900	-11.227000	23.643862	0.001060	20.756494
521.140381	-3.000800	3.770500	-11.313000	23.673861	0.001059	20.748163
522.140336	-2.996400	3.769400	-11.293000	23.684813	0.001059	20.748237
523.142473	-2.983100	3.768800	-11.241000	23.695200	0.001057	20.772402
524.140107	-2.989800	3.769700	-11.269000	23.709388	0.001058	20.759125
525.139295	-3.013000	3.769400	-11.357000	23.698290	0.001058	20.747049
526.140660	-2.990900	3.769800	-11.275000	23.693935	0.001057	20.756909
527.140169	-3.017800	3.766900	-11.366000	23.681067	0.001058	20.739740
528.141832	-2.997300	3.767500	-11.291000	23.673924	0.001059	20.745381
529.144274	-2.996500	3.768800	-11.292000	23.672856	0.001060	20.762328
530.145745	-2.994200	3.768500	-11.283000	23.678678	0.001060	20.757260
531.140112	-2.987900	3.767200	-11.255000	23.699225	0.001059	20.745142
532.142651	-2.995000	3.766100	-11.279000	23.685755	0.001059	20.746336
533.144401	-2.970000	3.767900	-11.189000	23.712141	0.001057	20.748609
534.144229	-3.008100	3.765700	-11.326000	23.712418	0.001059	20.756473
535.141445	-2.999200	3.765200	-11.292000	23.742188	0.001057	20.765457
536.142005	-3.004400	3.765400	-11.312000	23.743036	0.001061	20.752082
537.140057	-3.004600	3.765600	-11.311000	23.752813	0.001060	20.745764
538.139406	-2.984300	3.765100	-11.235000	23.774980	0.001060	20.735746
539.142926	-3.016300	3.764500	-11.354000	23.792730	0.001061	20.767768
540.141322	-2.984600	3.765200	-11.236000	23.806591	0.001060	20.744207
541.140669	-3.004800	3.763700	-11.308000	23.760492	0.001059	20.752040
542.141086	-3.004200	3.763400	-11.305000	23.748080	0.001060	20.745760
543.140511	-2.981500	3.763900	-11.220000	23.750543	0.001060	20.743487
544.144061	-3.009300	3.762300	-11.321000	23.719876	0.001060	20.736448
545.140831	-3.005100	3.763500	-11.308000	23.688277	0.001062	20.746968
546.141413	-2.972600	3.764400	-11.189000	23.688270	0.001059	20.750280
547.141922	-2.979200	3.763400	-11.211000	23.716629	0.001061	20.721338
548.142287	-2.994800	3.761900	-11.265000	23.738408	0.001060	20.723733
549.142586	-2.978700	3.762000	-11.204000	23.746854	0.001059	20.744056
550.148124	-2.987100	3.761500	-11.235000	23.777520	0.001060	20.738292
551.145967	-3.003500	3.760400	-11.292000	23.768061	0.001061	20.737818
552.145685	-2.997700	3.760900	-11.273000	23.769862	0.001059	20.736778
553.145937	-3.009700	3.760000	-11.315000	23.777225	0.001060	20.752222
554.150226	-2.983500	3.760100	-11.217000	23.780444	0.001062	20.743122
555.153618	-3.021600	3.758100	-11.354000	23.781156	0.001061	20.740041
556.148527	-3.008900	3.758700	-11.306000	23.804261	0.001060	20.753251
557.151407	-2.998900	3.759100	-11.271000	23.799238	0.001059	20.751534
558.152658	-2.989600	3.757900	-11.233000	23.843812	0.001061	20.742173
559.146851	-2.992900	3.759100	-11.249000	23.820812	0.001060	20.735707
560.149017	-2.997300	3.756400	-11.257000	23.826967	0.001062	20.743301
561.147976	-2.989100	3.758000	-11.233000	23.801014	0.001060	20.729606
562.147080	-2.974400	3.757600	-11.175000	23.790536	0.001059	20.728584
563.148473	-2.970700	3.758100	-11.163000	23.795216	0.001059	20.737070
564.148540	-3.026100	3.756300	-11.366000	23.816920	0.001062	20.729908
565.149509	-2.991600	3.756100	-11.236000	23.835909	0.001060	20.744207
566.152431	-2.979300	3.757300	-11.192000	23.852688	0.001062	20.719304
567.149054	-3.001000	3.755700	-11.270000	23.851465	0.001060	20.734200
568.149522	-2.992200	3.756000	-11.237000	23.825660	0.001061	20.706427
569.153981	-2.995200	3.756100	-11.248000	23.808335	0.001060	20.735050
570.149955	-2.985500	3.756200	-11.213000	23.788393	0.001059	20.739711
571.152834	-2.985100	3.755600	-11.211000	23.781877	0.001060	20.729384
572.150526	-3.010300	3.753000	-11.297000	23.766124	0.001060	20.716908
573.150434	-2.983200	3.755000	-11.200000	23.756396	0.001060	20.729915
574.153986	-2.993100	3.754000	-11.235000	23.756070	0.001062	20.730537
575.152068	-2.989200	3.754200	-11.221000	23.775337	0.001061	20.742742
576.155142	-2.999200	3.754400	-11.259000	23.771774	0.001059	20.733954
577.154303	-2.988500	3.753800	-11.217000	23.791009	0.001061	20.747551
578.151569	-3.013600	3.752700	-11.309000	23.811572	0.001060	20.723122
579.152249	-3.008300	3.753500	-11.291000	23.839626	0.001061	20.699567
580.152369	-3.007800	3.751300	-11.282000	23.870110	0.001059	20.715436
581.152024	-2.990700	3.752700	-11.223000	23.854653	0.001060	20.717955
582.156569	-2.981900	3.753000	-11.190000	23.881214	0.001061	20.718984
583.154173	-3.016100	3.750900	-11.313000	23.886563	0.001060	20.721977
584.157725	-2.996200	3.749900	-11.234000	23.878696	0.001059	20.706026
585.153084	-2.999800	3.750300	-11.249000	23.882454	0.001058	20.726866
586.154088	-3.012000	3.749300	-11.293000	23.890549	0.001058	20.693729
587.156079	-2.988100	3.751800	-11.210000	23.868741	0.001061	20.732082
588.157547	-2.970300	3.750700	-11.140000	23.874888	0.001060	20.713115
589.155365	-2.987800	3.750400	-11.204000	23.849458	0.001059	20.709427
590.156074	-3.007700	3.749900	-11.278000	23.809435	0.001058	20.720031
591.157345	-2.986000	3.750200	-11.196000	23.819863	0.001061	20.713417
592.158138	-3.009600	3.749400	-11.284000	23.824844	0.001060	20.705134
593.159473	-3.007600	3.749500	-11.275000	23.857073	0.001061	20.694302
594.157734	-3.000100	3.747900	-11.243000	23.879697	0.001061	20.716989
595.158271	-3.015600	3.747600	-11.300000	23.874219	0.001061	20.708176
596.157368	-2.996100	3.748000	-11.229000	23.904881	0.001064	20.706206
597.159266	-3.013300	3.746900	-11.289000	23.924030	0.001061	20.715450
598.159898	-3.025700	3.746500	-11.334000	23.955083	0.001058	20.718141
599.158621	-2.992500	3.746500	-11.210000	23.917428	0.001061	20.705510
600.160390	-3.005000	3.746400	-11.257000	23.926282	0.001059	20.721502
601.162285	-2.994000	3.745900	-11.214000	23.929771	0.001060	20.712672
602.160900	-2.989800	3.746900	-11.202000	23.928972	0.001060	20.703336
603.164338	-2.973500	3.746100	-11.138000	23.946971	0.001061	20.706213
604.163774	-3.018700	3.744900	-11.303000	23.934849	0.001060	20.703065
605.159730	-3.003400	3.745000	-11.247000	23.919025	0.001060	20.704741
606.161970	-3.013600	3.743100	-11.279000	23.910871	0.001061	20.716480
607.164365	-2.993600	3.744700	-11.209000	23.921340	0.001060	20.680982
608.162753	-2.990800	3.744300	-11.196000	23.934058	0.001062	20.709859
609.163417	-2.989900	3.744300	-11.193000	23.928709	0.001060	20.702124
610.162051	-2.995000	3.744300	-11.214000	23.925007	0.001060	20.711214
611.164681	-3.005400	3.741800	-11.245000	23.915715	0.001059	20.704741
612.162385	-3.000000	3.742800	-11.227000	23.899049	0.001058	20.703676
613.163479	-2.996500	3.742700	-11.213000	23.891305	0.001060	20.693065
614.170455	-3.008000	3.742400	-11.255000	23.917557	0.001061	20.686672
615.163365	-3.005600	3.741300	-11.244000	23.924835	0.001061	20.701084
616.168425	-3.012800	3.739400	-11.264000	23.931946	0.001057	20.713905
617.165871	-3.009400	3.739400	-11.253000	23.976171	0.001058	20.702777
618.165130	-2.988900	3.741400	-11.181000	23.985228	0.001059	20.689574
619.167034	-3.002900	3.740600	-11.232000	24.018700	0.001058	20.698485
620.165905	-3.011300	3.740800	-11.264000	24.029476	0.001059	20.698387
621.167173	-2.999900	3.739300	-11.217000	24.037041	0.001061	20.687006
622.168501	-3.003700	3.738800	-11.229000	24.056849	0.001061	20.680318
623.168259	-2.984600	3.740200	-11.162000	24.055382	0.001059	20.721523
624.167514	-2.996200	3.739000	-11.201000	24.029150	0.001058	20.686679
625.170743	-3.003800	3.737900	-11.227000	24.041597	0.001058	20.693472
626.169918	-2.998300	3.739300	-11.211000	24.027536	0.001059	20.679369
627.170594	-3.009600	3.738800	-11.251000	24.039387	0.001057	20.692679
628.169357	-2.984400	3.737900	-11.154000	24.065954	0.001059	20.701305
629.170697	-3.019600	3.737700	-11.285000	24.061909	0.001058	20.674961
630.171795	-2.992300	3.737100	-11.182000	24.073053	0.001057	20.685190
631.171971	-3.002600	3.736100	-11.217000	24.074520	0.001058	20.695197
632.179959	-3.015100	3.736500	-11.265000	24.064217	0.001057	20.689131
633.171657	-3.014100	3.735700	-11.258000	24.067884	0.001056	20.673366
634.171981	-2.995600	3.737500	-11.195000	24.078579	0.001056	20.690258
635.174226	-3.023500	3.734800	-11.292000	24.082981	0.001059	20.704158
636.174534	-3.013400	3.733900	-11.250000	24.086371	0.001058	20.681003
637.172985	-3.019700	3.735300	-11.279000	24.081024	0.001058	20.678958
638.176448	-3.012000	3.734800	-11.248000	24.102624	0.001057	20.669327
639.173855	-2.998200	3.736100	-11.201000	24.118723	0.001058	20.675516
640.175285	-2.986400	3.734300	-11.151000	24.113627	0.001056	20.669457
641.178507	-3.007600	3.733600	-11.228000	24.122340	0.001056	20.678670
642.176118	-2.979400	3.733800	-11.124000	24.139335	0.001057	20.695717
643.178545	-2.991600	3.733500	-11.167000	24.135651	0.001057	20.685383
644.177078	-3.022500	3.733400	-11.283000	24.133490	0.001057	20.670886
645.176845	-2.999000	3.732700	-11.193000	24.132569	0.001055	20.681818
646.180411	-3.008800	3.732800	-11.230000	24.120929	0.001056	20.681997
647.179958	-2.998400	3.732200	-11.190000	24.109688	0.001056	20.674515
648.177570	-3.014300	3.732000	-11.248000	24.110479	0.001058	20.649702
649.177083	-2.997700	3.731400	-11.183000	24.115753	0.001057	20.688186
650.178366	-2.996300	3.730800	-11.178000	24.099507	0.001057	20.678530
651.177227	-3.008200	3.730900	-11.222000	24.145943	0.001056	20.668203
652.180005	-3.008600	3.730800	-11.223000	24.117080	0.001057	20.675765
653.178494	-3.021500	3.730100	-11.269000	24.140995	0.001057	20.668456
654.180031	-2.995200	3.729900	-11.170000	24.139415	0.001056	20.672562
655.180941	-2.989600	3.730200	-11.150000	24.120358	0.001054	20.679053
656.180827	-2.999000	3.728400	-11.181000	24.133007	0.001054	20.665660
657.182717	-2.969800	3.730200	-11.077000	24.132012	0.001055	20.652333
658.181401	-2.990200	3.729200	-11.151000	24.158486	0.001056	20.666559
659.180910	-3.012000	3.727500	-11.226000	24.155478	0.001055	20.650264
660.179514	-3.005700	3.727900	-11.203000	24.180281	0.001053	20.669927
661.180347	-2.986700	3.727800	-11.133000	24.170697	0.001055	20.672169
662.179743	-3.014900	3.727500	-11.237000	24.175837	0.001053	20.669264
663.181444	-3.014700	3.727800	-11.237000	24.225085	0.001055	20.667451
664.181692	-3.017200	3.726700	-11.242000	24.218467	0.001053	20.659864
665.182261	-3.032200	3.725200	-11.294000	24.244343	0.001054	20.690564
666.180459	-3.014600	3.725500	-11.229000	24.235933	0.001053	20.648458
667.181310	-3.006800	3.726500	-11.204000	24.219664	0.001053	20.662488
668.185217	-3.003100	3.727200	-11.192000	24.243251	0.001056	20.650583
669.182933	-3.014500	3.726100	-11.231000	24.227000	0.001054	20.671744
670.185073	-3.001100	3.725200	-11.179000	24.243496	0.001053	20.682127
671.182901	-2.991100	3.725400	-11.142000	24.236202	0.001052	20.649677
672.182778	-2.995400	3.724500	-11.155000	24.213039	0.001054	20.663903
673.190353	-3.007800	3.723700	-11.199000	24.186714	0.001054	20.663577
674.187716	-3.000600	3.725400	-11.177000	24.173705	0.001053	20.642940
675.183613	-2.993800	3.723900	-11.147000	24.144297	0.001052	20.667026
676.184727	-2.991300	3.724200	-11.139000	24.136806	0.001053	20.681326
677.182461	-3.007700	3.723800	-11.199000	24.153850	0.001054	20.688463
678.185655	-2.998900	3.723900	-11.166000	24.153426	0.001053	20.674287
679.187211	-3.023800	3.721500	-11.251000	24.125460	0.001054	20.665203
680.184456	-3.004700	3.723400	-11.187000	24.102939	0.001054	20.671066
681.191321	-2.999600	3.722900	-11.166000	24.099851	0.001053	20.667019
682.184059	-2.999400	3.722400	-11.164000	24.073375	0.001055	20.671287
683.184792	-2.998000	3.722800	-11.160000	24.087436	0.001053	20.650299
684.188414	-3.005900	3.721600	-11.186000	24.106893	0.001051	20.685938
685.187129	-3.001200	3.721600	-11.169000	24.108718	0.001053	20.676861
686.186588	-3.002300	3.721700	-11.172000	24.132674	0.001051	20.664852
687.190860	-2.998600	3.721000	-11.156000	24.168603	0.001052	20.669594
688.189430	-3.022600	3.719300	-11.240000	24.175246	0.001051	20.674835
689.188346	-3.002700	3.719700	-11.168000	24.173355	0.001050	20.679102
690.192041	-2.994900	3.719600	-11.139000	24.165171	0.001050	20.667574
691.186880	-3.015600	3.719300	-11.215000	24.197569	0.001050	20.648384
692.187853	-3.008200	3.719400	-11.187000	24.188962	0.001049	20.662987
693.188263	-2.968400	3.719700	-11.040000	24.188090	0.001051	20.673493
694.187535	-3.011000	3.717900	-11.194000	24.199565	0.001050	20.669829
695.189817	-2.992000	3.718400	-11.125000	24.201235	0.001050	20.680989
696.188479	-2.987200	3.718200	-11.106000	24.178814	0.001049	20.676517
697.190253	-2.985500	3.718500	-11.101000	24.195857	0.001049	20.691242
698.190490	-3.012100	3.716700	-11.194000	24.176279	0.001047	20.667335
699.191923	-2.995300	3.718000	-11.134000	24.184966	0.001050	20.683637
700.195659	-2.989600	3.717900	-11.113000	24.183132	0.001049	20.671364
701.192762	-3.009200	3.715000	-11.179000	24.173799	0.001048	20.681445
702.193401	-3.021000	3.716400	-11.224000	24.192936	0.001048	20.672190
703.194452	-3.016000	3.714700	-11.202000	24.194281	0.001047	20.673538
704.194501	-3.003200	3.715300	-11.157000	24.161312	0.001048	20.676032
705.192765	-3.015700	3.716300	-11.205000	24.166390	0.001048	20.674013
706.197446	-2.995800	3.715000	-11.128000	24.153811	0.001046	20.658550
707.194788	-2.993200	3.715000	-11.118000	24.164506	0.001047	20.659319
708.195883	-3.011100	3.714100	-11.182000	24.169951	0.001047	20.648184
709.193489	-3.021000	3.713600	-11.218000	24.213694	0.001046	20.674519
710.199271	-2.991600	3.716400	-11.116000	24.229693	0.001045	20.677290
711.195654	-2.995700	3.715100	-11.128000	24.243058	0.001045	20.666987
712.200939	-3.008400	3.713700	-11.172000	24.277835	0.001046	20.690020
713.196109	-2.982500	3.714500	-11.078000	24.275202	0.001046	20.670307
714.197271	-2.987100	3.714200	-11.094000	24.298738	0.001046	20.678270
715.200479	-2.994900	3.714500	-11.124000	24.303612	0.001044	20.657552
716.197242	-3.013400	3.712400	-11.186000	24.308437	0.001046	20.682784
717.197460	-2.994200	3.711200	-11.111000	24.329707	0.001045	20.654806
718.195483	-2.973000	3.713600	-11.040000	24.332120	0.001046	20.688049
719.196565	-2.989500	3.712400	-11.097000	24.337676	0.001044	20.668965
720.199735	-3.000300	3.711800	-11.135000	24.310384	0.001044	20.660552
721.204595	-3.030000	3.711100	-11.243000	24.303073	0.001043	20.666022
722.198497	-2.969000	3.712200	-11.020000	24.308297	0.001046	20.665098
723.205283	-2.981300	3.711300	-11.063000	24.306732	0.001043	20.657363
724.197766	-2.993700	3.709800	-11.104000	24.288518	0.001045	20.665646
725.199356	-2.997600	3.709800	-11.119000	24.286235	0.001045	20.680427
726.202509	-3.021600	3.709100	-11.206000	24.308083	0.001045	20.673419
727.209144	-2.984000	3.709700	-11.069000	24.319795	0.001044	20.662407
728.200002	-2.982300	3.709800	-11.063000	24.294057	0.001044	20.674048
729.199131	-2.993800	3.710600	-11.109000	24.299306	0.001043	20.701601
730.201057	-2.995300	3.709100	-11.107000	24.318475	0.001043	20.673886
731.203742	-2.985600	3.708200	-11.069000	24.298378	0.001042	20.675537
732.206090	-2.990900	3.708500	-11.091000	24.310398	0.001044	20.668154
733.202150	-2.994700	3.708100	-11.103000	24.339801	0.001044	20.684849
734.203435	-2.987700	3.707700	-11.077000	24.337260	0.001042	20.669970
735.203591	-2.979200	3.707100	-11.043000	24.339458	0.001043	20.673598
736.203263	-2.999900	3.707400	-11.121000	24.327088	0.001042	20.673992
737.210701	-2.976900	3.707200	-11.035000	24.304897	0.001043	20.670697
738.204001	-2.994800	3.707700	-11.103000	24.314799	0.001042	20.692485
739.205858	-2.995400	3.705700	-11.099000	24.292453	0.001043	20.684294
740.205386	-2.999700	3.706500	-11.117000	24.318010	0.001041	20.682903
741.206945	-2.988000	3.706100	-11.073000	24.358757	0.001041	20.686795
742.219302	-2.990700	3.705100	-11.079000	24.345393	0.001040	20.664852
743.210130	-2.988700	3.704900	-11.072000	24.349573	0.001041	20.687540
744.207060	-2.998800	3.703500	-11.104000	24.351359	0.001041	20.681744
745.209345	-2.994200	3.703600	-11.089000	24.356810	0.001041	20.681997
746.207330	-3.000600	3.705100	-11.116000	24.380429	0.001041	20.698105
747.209615	-3.014300	3.703100	-11.162000	24.341899	0.001040	20.658027
748.211713	-3.008400	3.703800	-11.140000	24.330481	0.001041	20.680715
749.209343	-2.989900	3.704200	-11.073000	24.313563	0.001039	20.704049
750.218259	-3.008600	3.702600	-11.138000	24.320744	0.001038	20.696079
751.209177	-2.987900	3.703800	-11.065000	24.341118	0.001039	20.685221
752.210752	-2.976900	3.703000	-11.023000	24.320860	0.001038	20.701411
753.213957	-2.996400	3.701900	-11.091000	24.332732	0.001037	20.680128
754.210180	-3.003500	3.701400	-11.116000	24.332732	0.001039	20.682973
755.208027	-3.027200	3.700800	-11.201000	24.319435	0.001038	20.695239
756.209386	-3.022600	3.701100	-11.186000	24.289460	0.001039	20.699784
757.210522	-3.000700	3.701100	-11.105000	24.291497	0.001038	20.695190
758.215532	-2.981200	3.701100	-11.032000	24.287881	0.001038	20.696304
759.212557	-3.014700	3.700900	-11.156000	24.307162	0.001037	20.703318
760.213234	-3.007200	3.700800	-11.128000	24.307162	0.001035	20.691463
761.211646	-3.018600	3.699700	-11.166000	24.297009	0.001037	20.700245
762.211300	-3.011100	3.699500	-11.138000	24.313160	0.001035	20.707912
763.212297	-3.001000	3.700500	-11.104000	24.296357	0.001036	20.667346
764.212865	-3.000800	3.700300	-11.103000	24.315191	0.001036	20.699043
765.212808	-3.000900	3.697800	-11.096000	24.319421	0.001036	20.701390
766.213017	-3.013700	3.698000	-11.143000	24.328825	0.001035	20.716040
767.212833	-2.986000	3.699400	-11.046000	24.338923	0.001035	20.696297
768.214607	-3.021600	3.697500	-11.171000	24.355872	0.001034	20.708559
769.215823	-2.995300	3.698700	-11.076000	24.363077	0.001033	20.679749
770.213679	-2.984600	3.698200	-11.037000	24.327750	0.001035	20.715910
771.214077	-3.000400	3.698300	-11.094000	24.350585	0.001034	20.719377
772.214534	-2.984500	3.697600	-11.034000	24.326129	0.001034	20.709542
773.213623	-3.014200	3.694900	-11.136000	24.336080	0.001033	20.698660
774.217214	-3.003300	3.697300	-11.103000	24.349689	0.001032	20.716107
775.215698	-2.982500	3.697000	-11.025000	24.337449	0.001032	20.698137
776.216977	-2.979900	3.697000	-11.015000	24.340757	0.001032	20.694344
777.213957	-3.002900	3.695000	-11.095000	24.312513	0.001032	20.736662
778.215959	-3.003300	3.695300	-11.097000	24.312593	0.001032	20.708766
779.217254	-3.002600	3.693800	-11.089000	24.314746	0.001029	20.723255
780.217709	-3.008300	3.693300	-11.109000	24.318290	0.001030	20.708791
781.214955	-2.999100	3.695200	-11.081000	24.317043	0.001031	20.697108
782.215425	-3.017300	3.693300	-11.143000	24.318720	0.001029	20.717758
783.216171	-2.990000	3.694400	-11.045000	24.311494	0.001030	20.685850
784.216385	-3.024200	3.693900	-11.169000	24.327435	0.001027	20.707059
785.220212	-3.010300	3.694500	-11.120000	24.342966	0.001028	20.707941
786.217182	-2.988000	3.693500	-11.034000	24.330394	0.001029	20.719037
787.222627	-2.999500	3.694500	-11.081000	24.328583	0.001028	20.709634
788.215108	-2.984500	3.692400	-11.019000	24.350074	0.001030	20.695155
789.215253	-2.996200	3.692800	-11.062000	24.374284	0.001029	20.717073
790.219516	-2.995700	3.692300	-11.061000	24.413230	0.001028	20.714418
791.217371	-2.986200	3.693400	-11.029000	24.387585	0.001028	20.707656
792.217990	-3.010500	3.691500	-11.112000	24.366113	0.001027	20.703659
793.219309	-3.006600	3.691300	-11.096000	24.366529	0.001027	20.732528
794.220424	-3.030100	3.690100	-11.181000	24.382582	0.001029	20.719707
795.220461	-2.978000	3.692200	-10.994000	24.446135	0.001028	20.721351
796.224056	-3.010400	3.690200	-11.109000	24.429636	0.001027	20.691520
797.221975	-2.982200	3.691400	-11.007000	24.450137	0.001029	20.709244
798.222622	-3.008400	3.689000	-11.097000	24.439284	0.001027	20.714003
799.221038	-3.022300	3.688600	-11.146000	24.456494	0.001028	20.733167
800.222541	-3.013100	3.689200	-11.115000	24.495794	0.001026	20.697677
801.226654	-3.003900	3.688200	-11.078000	24.516189	0.001025	20.727150
802.222019	-3.008500	3.689200	-11.098000	24.507529	0.001028	20.712770
803.224053	-2.980800	3.689100	-10.996000	24.492301	0.001024	20.732107
804.222422	-2.983400	3.689600	-11.007000	24.473691	0.001025	20.723866
805.224067	-3.008300	3.687100	-11.091000	24.462925	0.001025	20.713066
806.226022	-3.013200	3.686600	-11.107000	24.459008	0.001025	20.729999
807.228495	-3.004400	3.687600	-11.078000	24.451894	0.001025	20.735191
808.224682	-2.991900	3.687500	-11.031000	24.415268	0.001024	20.725472
809.226289	-2.998500	3.687400	-11.054000	24.407314	0.001023	20.740252
810.226373	-3.022300	3.686900	-11.142000	24.427654	0.001023	20.733157
811.226701	-3.013600	3.686700	-11.109000	24.367149	0.001023	20.724615
812.228920	-3.009500	3.686800	-11.094000	24.369040	0.001022	20.741211
813.227074	-2.992000	3.686000	-11.027000	24.336395	0.001023	20.728851
814.231046	-3.006900	3.686200	-11.083000	24.356849	0.001023	20.746525
815.227978	-2.991600	3.684900	-11.023000	24.376669	0.001021	20.731320
816.230634	-3.018600	3.684600	-11.122000	24.352490	0.001023	20.752110
817.232538	-3.006700	3.685800	-11.081000	24.389921	0.001021	20.741296
818.228874	-3.011200	3.684800	-11.095000	24.374796	0.001022	20.732286
819.232158	-3.010000	3.684300	-11.089000	24.379848	0.001023	20.740200
820.228988	-3.013900	3.683000	-11.099000	24.401044	0.001022	20.738229
821.229263	-3.017100	3.683400	-11.112000	24.400441	0.001021	20.724822
822.230779	-3.001600	3.683300	-11.054000	24.406610	0.001020	20.719157
823.242650	-2.967900	3.683400	-10.931000	24.419273	0.001022	20.740396
824.235963	-2.976500	3.684500	-10.966000	24.433151	0.001022	20.749578
825.233350	-3.007000	3.681700	-11.070000	24.440639	0.001019	20.737175
826.234978	-3.009400	3.682000	-11.080000	24.447778	0.001020	20.745286
827.234426	-2.995800	3.682900	-11.031000	24.431260	0.001021	20.746259
828.237425	-2.999600	3.681100	-11.041000	24.452700	0.001019	20.753069
829.236036	-3.006400	3.681300	-11.068000	24.456376	0.001021	20.740635
830.235869	-3.027900	3.680200	-11.142000	24.470929	0.001019	20.744805
831.235894	-2.995000	3.682400	-11.028000	24.465086	0.001020	20.757909
832.237549	-3.014100	3.681000	-11.095000	24.479565	0.001019	20.762005
833.238791	-2.979500	3.681800	-10.968000	24.497850	0.001018	20.761383
834.235142	-3.009000	3.681700	-11.077000	24.497671	0.001017	20.754091
835.235802	-3.009800	3.680100	-11.075000	24.530255	0.001017	20.755015
836.235019	-3.027800	3.678900	-11.137000	24.499635	0.001016	20.762226
837.236863	-3.004800	3.679200	-11.054000	24.482198	0.001016	20.750895
838.235494	-2.993400	3.679300	-11.012000	24.456050	0.001017	20.768759
839.236837	-3.003000	3.677800	-11.044000	24.460734	0.001017	20.754492
840.235134	-3.013100	3.677000	-11.076000	24.484267	0.001016	20.748703
841.239825	-3.005500	3.678000	-11.052000	24.474367	0.001015	20.746357
842.236577	-3.013800	3.677100	-11.080000	24.469763	0.001016	20.738893
843.236987	-3.012700	3.676800	-11.076000	24.458665	0.001015	20.769012
844.241415	-3.008200	3.677300	-11.061000	24.477115	0.001015	20.759072
845.237071	-3.018400	3.677100	-11.097000	24.485377	0.001015	20.770206
846.241935	-3.020200	3.676200	-11.102000	24.504760	0.001014	20.759307
847.237488	-2.987500	3.677500	-10.985000	24.535510	0.001014	20.774038
848.237417	-3.007800	3.676600	-11.057000	24.576119	0.001013	20.764997
849.239804	-3.016100	3.675000	-11.083000	24.580974	0.001015	20.779826
850.242290	-3.011800	3.675700	-11.069000	24.618723	0.001011	20.773606
851.238921	-3.006200	3.675700	-11.049000	24.616188	0.001013	20.756838
852.240558	-3.008100	3.674400	-11.052000	24.599275	0.001013	20.775429
853.240960	-3.000700	3.675200	-11.028000	24.630543	0.001012	20.768397
854.242378	-3.000800	3.674200	-11.025000	24.626094	0.001014	20.767252
855.244421	-3.009100	3.674500	-11.056000	24.617214	0.001013	20.771618
856.241434	-3.018500	3.672700	-11.084000	24.614631	0.001013	20.746266
857.243967	-2.991500	3.674700	-10.993000	24.618337	0.001010	20.756149
858.243816	-2.981900	3.674700	-10.957000	24.611120	0.001011	20.754597
859.242251	-3.001100	3.674000	-11.024000	24.613139	0.001011	20.779858
860.244594	-2.985400	3.674600	-10.970000	24.623112	0.001011	20.778484
861.241663	-3.020700	3.672800	-11.093000	24.625530	0.001013	20.779015
862.241862	-2.992800	3.674000	-10.994000	24.604038	0.001009	20.741801
863.242077	-2.979600	3.672800	-10.941000	24.609366	0.001010	20.768011
864.240805	-2.988700	3.672200	-10.974000	24.607591	0.001010	20.781403
865.246193	-2.990900	3.672500	-10.983000	24.622548	0.001010	20.781238
866.243321	-3.001900	3.672700	-11.024000	24.598049	0.001008	20.774199
867.245356	-2.980600	3.671900	-10.943000	24.583677	0.001011	20.773054
868.245262	-2.979900	3.672100	-10.941000	24.558900	0.001007	20.784230
869.243697	-2.999800	3.671700	-11.013000	24.571568	0.001008	20.758060
870.246634	-2.975000	3.672000	-10.922000	24.585721	0.001008	20.773683
871.249529	-3.002900	3.670300	-11.021000	24.586071	0.001007	20.770241
872.246622	-3.003600	3.669600	-11.021000	24.605543	0.001007	20.766546
873.245527	-2.985100	3.671100	-10.958000	24.625642	0.001006	20.790981
874.246781	-3.001600	3.670800	-11.017000	24.608631	0.001006	20.792877
875.246531	-3.006800	3.670700	-11.036000	24.644323	0.001006	20.786018
876.250262	-3.009500	3.669000	-11.041000	24.641611	0.001007	20.775709
877.244782	-2.993700	3.669900	-10.985000	24.651135	0.001005	20.786689
878.248725	-2.999700	3.669400	-11.006000	24.652111	0.001005	20.774866
879.249373	-2.991900	3.668700	-10.974000	24.679346	0.001004	20.779436
880.250375	-3.022700	3.667800	-11.085000	24.696878	0.001002	20.793710
881.247407	-3.003500	3.667000	-11.013000	24.727664	0.001006	20.771972
882.244434	-3.003200	3.667500	-11.013000	24.705107	0.001006	20.778259
883.244940	-3.022300	3.666400	-11.079000	24.685562	0.001004	20.773820
884.246092	-3.002500	3.667600	-11.011000	24.724136	0.001005	20.783605
885.245028	-3.009800	3.666300	-11.034000	24.742767	0.001002	20.786654
886.244879	-2.983400	3.666800	-10.938000	24.765152	0.001002	20.775927
887.249397	-3.016900	3.665600	-11.058000	24.761722	0.001003	20.782442
888.247139	-2.980600	3.666400	-10.927000	24.806061	0.001003	20.785688
889.248812	-3.006100	3.665200	-11.015000	24.792849	0.001002	20.817473
890.245686	-3.020400	3.665800	-11.071000	24.817008	0.001001	20.775811
891.245901	-2.996600	3.665500	-10.983000	24.802638	0.000999	20.804064
892.250975	-3.009500	3.665600	-11.031000	24.838821	0.000999	20.788220
893.247908	-3.027300	3.664600	-11.093000	24.830359	0.001003	20.782572
894.251230	-3.004600	3.664600	-11.009000	24.847105	0.001002	20.801749
895.248414	-2.995600	3.664500	-10.975000	24.842681	0.001000	20.788775
896.247319	-2.993600	3.664200	-10.968000	24.852627	0.001000	20.791644
897.252171	-3.014100	3.662500	-11.037000	24.860634	0.001000	20.809638
898.251837	-2.992300	3.663700	-10.961000	24.860463	0.000998	20.809465
899.248720	-2.976700	3.664600	-10.907000	24.860235	0.000998	20.797383
900.248782	-2.989900	3.663700	-10.951000	24.848995	0.000996	20.799378
901.249238	-2.996200	3.662200	-10.971000	24.801707	0.000997	20.813561
902.249005	-3.024800	3.661400	-11.072000	24.789073	0.000998	20.798985
903.250188	-2.999800	3.661600	-10.983000	24.770751	0.001001	20.803832
904.250873	-3.021000	3.661400	-11.059000	24.755478	0.000997	20.820273
905.253716	-2.995400	3.662200	-10.968000	24.770279	0.000995	20.786762
906.252251	-2.988800	3.662100	-10.945000	24.791670	0.000996	20.803014
907.251403	-3.009600	3.660400	-11.016000	24.790781	0.000994	20.801173
908.255443	-3.002400	3.660000	-10.988000	24.800094	0.000996	20.803407
909.252783	-2.976700	3.660800	-10.896000	24.791498	0.000995	20.809479
910.250428	-3.014000	3.659800	-11.031000	24.766961	0.000996	20.808089
911.254136	-3.015200	3.658300	-11.029000	24.784093	0.000994	20.781185
912.255049	-3.008400	3.659800	-11.009000	24.764420	0.000996	20.804116
913.254321	-3.015700	3.658400	-11.032000	24.741797	0.000995	20.809862
914.257527	-3.003800	3.659900	-10.993000	24.724364	0.000995	20.804696
915.253615	-2.987300	3.659000	-10.930000	24.712698	0.000994	20.823335
916.255341	-2.986900	3.660300	-10.931000	24.690490	0.000991	20.788722
917.255424	-2.997400	3.658900	-10.965000	24.675419	0.000995	20.799677
918.251936	-2.993500	3.658300	-10.950000	24.691540	0.000992	20.850940
919.256415	-3.010800	3.657200	-11.009000	24.740306	0.000996	20.799831
920.255527	-2.989500	3.658000	-10.935000	24.717609	0.000994	20.805978
921.263142	-3.007200	3.657300	-10.998000	24.741699	0.000992	20.798858
922.254878	-3.007400	3.657700	-10.998000	24.735858	0.000991	20.808169
923.255815	-2.986300	3.657900	-10.923000	24.749413	0.000992	20.808970
924.257518	-2.989600	3.657000	-10.932000	24.755107	0.000990	20.791925
925.255636	-2.995900	3.657300	-10.954000	24.759188	0.000991	20.819254
926.255765	-2.990600	3.656900	-10.935000	24.782381	0.000989	20.814080
927.255347	-3.001800	3.655400	-10.972000	24.784702	0.000988	20.812142
928.258808	-2.994700	3.657200	-10.951000	24.778609	0.000989	20.823096
929.254642	-3.014600	3.655400	-11.018000	24.794428	0.000988	20.824273
930.255710	-2.997700	3.655300	-10.956000	24.781216	0.000990	20.819075
931.256326	-3.009500	3.655700	-11.001000	24.763269	0.000990	20.800590
932.259206	-3.002500	3.654700	-10.973000	24.756647	0.000987	20.821920
933.255884	-3.003200	3.655200	-10.976000	24.785825	0.000989	20.811847
934.256699	-3.000600	3.654000	-10.963000	24.765558	0.000987	20.817586
935.261220	-3.002000	3.654200	-10.968000	24.802453	0.000987	20.824266
936.255375	-2.994900	3.654500	-10.944000	24.825285	0.000984	20.821575
937.257911	-2.996300	3.654400	-10.949000	24.823045	0.000986	20.806052
938.258070	-2.987900	3.654200	-10.917000	24.820952	0.000987	20.807744
939.257737	-2.993100	3.653300	-10.933000	24.832291	0.000987	20.829555
940.257594	-2.995000	3.651900	-10.935000	24.857859	0.000985	20.832930
941.260806	-3.016000	3.653200	-11.017000	24.836494	0.000985	20.799161
942.260106	-3.014500	3.651900	-11.008000	24.817995	0.000984	20.810466
943.259680	-3.006400	3.651300	-10.977000	24.833341	0.000986	20.816384
944.261561	-3.015300	3.651900	-11.009000	24.826352	0.000985	20.818854
945.260213	-2.986900	3.652400	-10.909000	24.841274	0.000986	20.799217
946.259561	-2.999400	3.649200	-10.944000	24.829015	0.000984	20.812992
947.260414	-3.014400	3.649000	-10.999000	24.857638	0.000984	20.794777
948.260244	-2.985900	3.650100	-10.898000	24.854951	0.000983	20.783545
949.261915	-2.997300	3.650100	-10.939000	24.877008	0.000983	20.809950
950.261764	-3.005800	3.649500	-10.968000	24.897974	0.000981	20.787370
951.262486	-3.010700	3.648800	-10.984000	24.899065	0.000981	20.787043
952.262865	-2.993900	3.648100	-10.921000	24.876756	0.000981	20.783145
953.262673	-3.004400	3.648500	-10.960000	24.859693	0.000981	20.794942
954.264150	-3.012000	3.648200	-10.987000	24.857761	0.000982	20.795374
955.264611	-3.012200	3.649000	-10.991000	24.862405	0.000980	20.798138
956.268911	-3.003100	3.647400	-10.953000	24.864760	0.000982	20.803347
957.265829	-2.995200	3.648300	-10.926000	24.860711	0.000979	20.766566
958.265869	-3.019400	3.647200	-11.012000	24.830695	0.000980	20.798556
959.264196	-3.007800	3.646800	-10.968000	24.876277	0.000980	20.795940
960.263669	-2.995500	3.647500	-10.926000	24.880007	0.000979	20.789727
961.267485	-3.011100	3.645600	-10.977000	24.875927	0.000980	20.794166
962.267433	-2.986100	3.647700	-10.891000	24.869183	0.000978	20.793562
963.271506	-3.002400	3.647200	-10.949000	24.879780	0.000978	20.800878
964.264075	-2.995300	3.647100	-10.923000	24.873761	0.000977	20.795785
965.268993	-2.982400	3.646100	-10.873000	24.875546	0.000976	20.780507
966.266109	-3.001600	3.645500	-10.942000	24.872109	0.000976	20.782274
967.264409	-2.995500	3.644200	-10.915000	24.861390	0.000977	20.770093
968.266666	-3.003000	3.643700	-10.941000	24.895356	0.000975	20.791855
969.265665	-3.014700	3.644200	-10.986000	24.912517	0.000975	20.771147
970.267174	-3.002000	3.645100	-10.941000	24.890835	0.000976	20.779731
971.264550	-2.984400	3.643800	-10.874000	24.876833	0.000973	20.774213
972.272219	-3.008600	3.644200	-10.963000	24.869495	0.000976	20.782969
973.267233	-3.011600	3.642900	-10.970000	24.853824	0.000976	20.779095
974.269371	-3.007200	3.642600	-10.953000	24.854468	0.000975	20.763146
975.270582	-2.985400	3.644700	-10.880000	24.786515	0.000974	20.772710
976.271742	-2.988300	3.643900	-10.888000	24.759681	0.000975	20.780869
977.269472	-3.006800	3.642000	-10.950000	24.738241	0.000973	20.767887
978.271392	-3.017100	3.642000	-10.988000	24.736726	0.000972	20.770160
979.268669	-3.000100	3.643000	-10.927000	24.715138	0.000972	20.767462
980.268985	-3.018600	3.641700	-10.992000	24.715992	0.000972	20.764526
981.271720	-2.985700	3.641400	-10.871000	24.754404	0.000971	20.782210
982.272098	-2.997200	3.641800	-10.914000	24.796129	0.000970	20.786151
983.271172	-2.987100	3.643000	-10.882000	24.834496	0.000969	20.760645
984.270466	-2.980100	3.642000	-10.852000	24.863045	0.000973	20.759900
985.275164	-2.992900	3.640700	-10.895000	24.876917	0.000970	20.770504
986.271035	-3.017500	3.639900	-10.982000	24.889894	0.000968	20.762664
987.273451	-3.015400	3.639200	-10.972000	24.895311	0.000968	20.769524
988.271279	-2.990000	3.640300	-10.883000	24.923981	0.000969	20.777911
989.272942	-3.011900	3.638900	-10.959000	24.927337	0.000970	20.766107
990.271319	-3.007800	3.639500	-10.946000	24.912048	0.000969	20.776366
991.272861	-2.998200	3.639600	-10.911000	24.928184	0.000967	20.766008
992.274055	-3.014400	3.637400	-10.964000	24.940988	0.000968	20.760841
993.274638	-2.989200	3.639300	-10.878000	24.997363	0.000965	20.751520
994.275468	-2.980000	3.638700	-10.840000	24.949344	0.000965	20.775393
995.274369	-2.996200	3.638800	-10.902000	24.946314	0.000966	20.772351
996.274151	-2.970200	3.638700	-10.807000	24.943619	0.000965	20.775811
997.272756	-3.002300	3.638100	-10.921000	24.939406	0.000965	20.749296
998.276830	-3.007300	3.635800	-10.933000	24.879451	0.000965	20.757399
999.273861	-2.972300	3.638100	-10.813000	24.914319	0.000964	20.761101
1000.274670	-3.008500	3.637400	-10.942000	24.897232	0.000962	20.749166
1001.275422	-2.978000	3.636100	-10.828000	24.896497	0.000963	20.749377
1002.273906	-3.016700	3.634200	-10.962000	24.921063	0.000965	20.751274
1003.278790	-2.985600	3.636900	-10.857000	24.956413	0.000963	20.761151
1004.274230	-3.007500	3.634700	-10.931000	24.930388	0.000962	20.761108
1005.276222	-2.986300	3.634900	-10.854000	24.909203	0.000962	20.759285
1006.274343	-3.010700	3.634400	-10.941000	24.853806	0.000961	20.758214
1007.275319	-3.001700	3.634400	-10.909000	24.866447	0.000964	20.754779
1008.279152	-2.985000	3.635700	-10.851000	24.882429	0.000961	20.753750
1009.279222	-3.005500	3.634200	-10.922000	24.885418	0.000962	20.760069
1010.277117	-3.000000	3.633100	-10.898000	24.897309	0.000961	20.735967
1011.277210	-3.004200	3.632800	-10.913000	24.932666	0.000960	20.752963
1012.276041	-3.006500	3.633600	-10.923000	24.949428	0.000960	20.763149
1013.276777	-2.990600	3.634100	-10.867000	24.953582	0.000960	20.746455
1014.276542	-2.994200	3.633800	-10.879000	24.956937	0.000960	20.755513
1015.274451	-3.000700	3.633800	-10.902000	24.953459	0.000959	20.742064
1016.280057	-2.987600	3.633000	-10.851000	24.961196	0.000957	20.728492
1017.277156	-2.992300	3.631700	-10.865000	24.963957	0.000958	20.756869
1018.277879	-3.010700	3.631500	-10.932000	24.960209	0.000957	20.752633
1019.283131	-2.993800	3.631900	-10.872000	24.980595	0.000958	20.731369
1020.279295	-2.999300	3.630300	-10.887000	25.007276	0.000956	20.734442
1021.282840	-3.029300	3.628500	-10.989000	25.026920	0.000956	20.741358
1022.280021	-3.003700	3.629800	-10.902000	25.010215	0.000956	20.755885
1023.280573	-2.987400	3.631700	-10.848000	25.033012	0.000953	20.734670
1024.281754	-2.993900	3.629500	-10.864000	25.065237	0.000954	20.719602
1025.284613	-2.999300	3.629300	-10.884000	25.079481	0.000955	20.738169
1026.281886	-3.002900	3.628800	-10.895000	25.081419	0.000955	20.742486
1027.281561	-2.980400	3.631100	-10.821000	25.086629	0.000954	20.744396
1028.281847	-3.016700	3.628300	-10.944000	25.071864	0.000954	20.730048
1029.281354	-3.003700	3.628900	-10.899000	25.051553	0.000953	20.733842
1030.284510	-3.015700	3.626400	-10.934000	25.035818	0.000953	20.739858
1031.282061	-3.005100	3.628200	-10.902000	25.024757	0.000951	20.750568
1032.283970	-3.014800	3.625900	-10.931000	25.059215	0.000953	20.729205
1033.284167	-2.995200	3.628100	-10.866000	25.051560	0.000952	20.743332
1034.283438	-2.988800	3.626900	-10.838000	25.039807	0.000953	20.732956
1035.285999	-2.994700	3.626800	-10.860000	25.076878	0.000952	20.713743
1036.281054	-2.992100	3.626300	-10.849000	25.092286	0.000949	20.724945
1037.281459	-3.002000	3.624600	-10.880000	25.089557	0.000950	20.734059
1038.281352	-3.005700	3.624900	-10.893000	25.131626	0.000948	20.715124
1039.283272	-3.017300	3.625500	-10.938000	25.124835	0.000949	20.732964
1040.283778	-3.007500	3.624200	-10.898000	25.131130	0.000950	20.735963
1041.283051	-3.003600	3.624800	-10.886000	25.102269	0.000948	20.709360
1042.281108	-3.022700	3.624300	-10.953000	25.099816	0.000947	20.723020
1043.282167	-2.980900	3.625200	-10.805000	25.096356	0.000949	20.732349
1044.281064	-3.008100	3.622900	-10.897000	25.102251	0.000948	20.709342
1045.282274	-3.018300	3.622500	-10.932000	25.078984	0.000948	20.722022
1046.283555	-3.039800	3.621900	-11.009000	25.038890	0.000946	20.715914
1047.282309	-3.008900	3.622000	-10.897000	25.030346	0.000945	20.724882
1048.285754	-3.000700	3.622100	-10.867000	25.021811	0.000947	20.701140
1049.283573	-3.010400	3.623400	-10.907000	25.031812	0.000945	20.714499
1050.283947	-2.996500	3.621500	-10.851000	25.047603	0.000945	20.738411
1051.287879	-2.995500	3.621800	-10.848000	25.043603	0.000944	20.716378
1052.290144	-3.026200	3.620200	-10.955000	25.026322	0.000945	20.705194
1053.284019	-2.983900	3.621900	-10.806000	25.057749	0.000943	20.710189
1054.285215	-2.989000	3.622600	-10.826000	25.052854	0.000942	20.707172
1055.285053	-2.982700	3.620900	-10.799000	25.056616	0.000941	20.716164
1056.284923	-2.988800	3.620100	-10.818000	25.031084	0.000943	20.709026
1057.288505	-3.010100	3.620600	-10.897000	25.028103	0.000941	20.717888
1058.292168	-2.985200	3.620500	-10.807000	25.042207	0.000942	20.725883
1059.288786	-3.002700	3.617700	-10.861000	25.022172	0.000944	20.719522
1060.284462	-2.993100	3.617900	-10.828000	25.028712	0.000941	20.685780
1061.286682	-2.977300	3.619500	-10.775000	25.025584	0.000941	20.709195
1062.290772	-2.989500	3.619600	-10.820000	25.007984	0.000939	20.708124
1063.287431	-2.993400	3.619100	-10.833000	25.035518	0.000939	20.731970
1064.286769	-2.993100	3.617500	-10.827000	25.009702	0.000938	20.702261
1065.286909	-2.986300	3.617500	-10.801000	24.990919	0.000939	20.710435
1066.287902	-2.967800	3.619000	-10.738000	24.930102	0.000939	20.693961
1067.286768	-2.994500	3.617400	-10.831000	24.941846	0.000939	20.706698
1068.289200	-2.991800	3.617200	-10.820000	24.917484	0.000937	20.713540
1069.287488	-2.982200	3.617300	-10.786000	24.932926	0.000936	20.691106
1070.288920	-2.993800	3.616100	-10.825000	24.954111	0.000937	20.719009
1071.289708	-2.987800	3.616300	-10.804000	24.946787	0.000936	20.709287
1072.292171	-2.984200	3.615600	-10.789000	24.982615	0.000934	20.702574
1073.294345	-2.999600	3.615100	-10.843000	24.965837	0.000934	20.680990
1074.291205	-2.988100	3.614900	-10.800000	24.963727	0.000935	20.704004
1075.290929	-3.005000	3.613900	-10.859000	25.000279	0.000934	20.701338
1076.291081	-3.017300	3.613800	-10.903000	25.001794	0.000933	20.708075
1077.292957	-2.992100	3.614600	-10.815000	24.997354	0.000934	20.693660
1078.295387	-3.010800	3.614400	-10.881000	24.984453	0.000934	20.705367
1079.295526	-3.002300	3.614300	-10.850000	24.979607	0.000930	20.708089
1080.297913	-3.021700	3.612600	-10.914000	24.950374	0.000932	20.699136
1081.295480	-3.013600	3.613400	-10.888000	24.981307	0.000933	20.671387
1082.296907	-3.022600	3.611500	-10.914000	24.993866	0.000931	20.701065
1083.300885	-2.998500	3.612400	-10.829000	25.007393	0.000931	20.687615
1084.296765	-3.008000	3.612300	-10.864000	25.036362	0.000931	20.700099
1085.296996	-2.995300	3.611600	-10.817000	25.034252	0.000930	20.697507
1086.297883	-3.000100	3.612200	-10.836000	25.049717	0.000930	20.692168
1087.298417	-2.991100	3.612400	-10.805000	25.042331	0.000929	20.699927
1088.299146	-2.993700	3.611500	-10.811000	25.062919	0.000928	20.709214
1089.301364	-2.997000	3.610100	-10.818000	25.068195	0.000927	20.690327
1090.303055	-3.006300	3.609700	-10.851000	25.063545	0.000931	20.691349
1091.298504	-2.998300	3.609200	-10.820000	25.008653	0.000927	20.679396
1092.299325	-3.014200	3.609300	-10.877000	24.976181	0.000927	20.708919
1093.299369	-3.028700	3.610100	-10.933000	24.972931	0.000926	20.676256
1094.301404	-2.998300	3.608900	-10.819000	25.017489	0.000926	20.678781
1095.302759	-3.018800	3.607800	-10.891000	25.008318	0.000925	20.699924
1096.310942	-3.012700	3.608900	-10.871000	25.024249	0.000926	20.671342
1097.301998	-2.995400	3.608400	-10.808000	25.059732	0.000926	20.703643
1098.302724	-3.004300	3.608900	-10.842000	25.082502	0.000926	20.687145
1099.304430	-2.987900	3.607800	-10.778000	25.113334	0.000925	20.683956
1100.302437	-3.012100	3.607000	-10.863000	25.106787	0.000924	20.673590
1101.303681	-3.005400	3.607200	-10.839000	25.118830	0.000923	20.687103
1102.307178	-2.989900	3.608200	-10.787000	25.121892	0.000922	20.692548
1103.302527	-3.017700	3.606600	-10.882000	25.102642	0.000923	20.688870
1104.302513	-2.996800	3.606900	-10.808000	25.098691	0.000923	20.696285
1105.305202	-3.005500	3.606300	-10.838000	25.079847	0.000923	20.687798
1106.305730	-2.991600	3.606400	-10.788000	25.082524	0.000922	20.675311
1107.306722	-2.988200	3.607500	-10.778000	25.076653	0.000919	20.677004
1108.303681	-2.987600	3.605900	-10.773000	25.080057	0.000921	20.687535
1109.303272	-3.007500	3.605100	-10.840000	25.089161	0.000921	20.679604
1110.307638	-3.011300	3.603300	-10.849000	25.122273	0.000919	20.670643
1111.304565	-3.004300	3.603000	-10.824000	25.130180	0.000920	20.667201
1112.307982	-2.988500	3.604500	-10.771000	25.145025	0.000919	20.678786
1113.305752	-3.017000	3.602900	-10.869000	25.172867	0.000918	20.678287
1114.306751	-3.019000	3.602000	-10.872000	25.142216	0.000918	20.690665
1115.308630	-3.000000	3.603400	-10.808000	25.154349	0.000919	20.673921
1116.313454	-3.010700	3.602500	-10.844000	25.137752	0.000919	20.664844
1117.313467	-3.003400	3.603700	-10.822000	25.131937	0.000916	20.678923
1118.310122	-2.998200	3.602700	-10.800000	25.131017	0.000915	20.648598
1119.308463	-2.986000	3.601900	-10.754000	25.109322	0.000915	20.669495
1120.307217	-2.999500	3.601100	-10.800000	25.079939	0.000916	20.680303
1121.308027	-2.982200	3.601600	-10.740000	25.074302	0.000915	20.662790
1122.307941	-3.004900	3.601100	-10.820000	25.090054	0.000914	20.672439
1123.307214	-2.988600	3.600500	-10.758000	25.115046	0.000914	20.664809
1124.308981	-2.994900	3.600800	-10.783000	25.125395	0.000914	20.651964
1125.307465	-3.002200	3.599100	-10.804000	25.100509	0.000914	20.665863
1126.309323	-2.984300	3.600100	-10.741000	25.138547	0.000912	20.665168
1127.308322	-2.986700	3.600000	-10.751000	25.121788	0.000913	20.655455
1128.315369	-2.989600	3.600300	-10.760000	25.122072	0.000911	20.667121
1129.309459	-2.976000	3.599900	-10.712000	25.075163	0.000912	20.668396
1130.309790	-3.008200	3.598300	-10.824000	25.029068	0.000912	20.666222
1131.314233	-2.999300	3.597400	-10.788000	25.044835	0.000913	20.660711
1132.313298	-2.995400	3.599400	-10.779000	25.027788	0.000911	20.655452
1133.313383	-3.026400	3.597400	-10.886000	24.996293	0.000909	20.663194
1134.312617	-3.011100	3.596200	-10.826000	24.973293	0.000910	20.671878
1135.314409	-3.014500	3.597500	-10.843000	24.968895	0.000908	20.666514
1136.315280	-3.018600	3.595300	-10.853000	24.972853	0.000908	20.658157
1137.315814	-3.008400	3.596900	-10.820000	24.954713	0.000906	20.678833
1138.312866	-3.007400	3.594700	-10.809000	24.962313	0.000905	20.679349
1139.314306	-3.004900	3.596100	-10.804000	24.975995	0.000908	20.666054
1140.314767	-2.996400	3.596100	-10.775000	24.986835	0.000905	20.650381
1141.314729	-2.986000	3.596700	-10.739000	25.021490	0.000905	20.675211
1142.316238	-2.994500	3.594700	-10.762000	25.052478	0.000906	20.669806
1143.314462	-2.994500	3.595600	-10.766000	25.082757	0.000905	20.654206
1144.319359	-2.973100	3.594200	-10.684000	25.117489	0.000905	20.660150
1145.313848	-3.002900	3.594100	-10.791000	25.141497	0.000905	20.661017
1146.315480	-2.995800	3.593800	-10.765000	25.144859	0.000903	20.657280
1147.319227	-2.998700	3.593500	-10.775000	25.164175	0.000902	20.660076
1148.319036	-2.994200	3.592800	-10.756000	25.188294	0.000902	20.658685
1149.319041	-2.999600	3.592100	-10.774000	25.145542	0.000903	20.653697
1150.318637	-2.994400	3.592600	-10.757000	25.146812	0.000902	20.659240
1151.319522	-2.979900	3.591900	-10.703000	25.141869	0.000901	20.658071
1152.319100	-2.998100	3.591900	-10.768000	25.116283	0.000901	20.665577
1153.320465	-2.995600	3.591100	-10.757000	25.109376	0.000901	20.672395
1154.333028	-2.969900	3.591500	-10.666000	25.057800	0.000899	20.647645
1155.321454	-3.003600	3.590600	-10.784000	25.049175	0.000897	20.662223
1156.321015	-3.013400	3.591200	-10.821000	25.021901	0.000900	20.662820
1157.322317	-2.995500	3.590000	-10.752000	24.997296	0.000897	20.666572
1158.323416	-3.003500	3.589000	-10.779000	25.016908	0.000899	20.650220
1159.323411	-2.990200	3.590700	-10.736000	25.018682	0.000897	20.654373
1160.324868	-3.013500	3.589300	-10.815000	25.042220	0.000895	20.648127
1161.322961	-3.009800	3.589700	-10.803000	25.066464	0.000897	20.652075
1162.324242	-3.022100	3.588800	-10.844000	25.111042	0.000894	20.661739
1163.326083	-2.999600	3.588800	-10.764000	25.131734	0.000896	20.645050
1164.324197	-3.001400	3.588200	-10.769000	25.122280	0.000895	20.656898
1165.327199	-2.995900	3.587900	-10.748000	25.120213	0.000895	20.657193
1166.325337	-2.998000	3.587900	-10.756000	25.148118	0.000896	20.659603
1167.325743	-3.033700	3.586200	-10.877000	25.157036	0.000894	20.670454
1168.324565	-3.021900	3.585300	-10.833000	25.151669	0.000892	20.657952
1169.324789	-2.978900	3.586000	-10.681000	25.162410	0.000894	20.665891
1170.326109	-2.988600	3.586900	-10.718000	25.159902	0.000891	20.648672
1171.324642	-3.009700	3.584700	-10.787000	25.160203	0.000893	20.675056
1172.324873	-2.987800	3.587900	-10.719000	25.151001	0.000892	20.648746
1173.323837	-2.987300	3.586700	-10.713000	25.171465	0.000891	20.663601
1174.327531	-2.995300	3.585600	-10.737000	25.143256	0.000891	20.657092
1175.331865	-3.000100	3.584100	-10.751000	25.112579	0.000891	20.658065
1176.324466	-3.007100	3.583800	-10.776000	25.078791	0.000890	20.665399
1177.324101	-3.020200	3.583500	-10.822000	25.074596	0.000889	20.651704
1178.328232	-3.008800	3.582700	-10.778000	25.071478	0.000888	20.671336
1179.335937	-2.996100	3.583500	-10.735000	25.122180	0.000888	20.671498
1180.326262	-2.997900	3.583900	-10.743000	25.112464	0.000888	20.676444
1181.329391	-2.994600	3.582600	-10.728000	25.104165	0.000885	20.667163
1182.325910	-3.001800	3.581400	-10.749000	25.119850	0.000886	20.667736
1183.327326	-3.031000	3.582400	-10.855000	25.125721	0.000884	20.676001
1184.335309	-3.003300	3.583000	-10.759000	25.071623	0.000885	20.681439
1185.332186	-2.997800	3.582000	-10.737000	25.045122	0.000888	20.679493
1186.327480	-2.985500	3.582200	-10.693000	25.036504	0.000885	20.675583
1187.329727	-3.033400	3.580400	-10.859000	25.017764	0.000883	20.673367
1188.332716	-2.993000	3.580600	-10.716000	25.058485	0.000884	20.663033
1189.329734	-3.007000	3.580900	-10.767000	25.114644	0.000883	20.651129
1190.332034	-2.994400	3.579600	-10.717000	25.104652	0.000880	20.682827
1191.330481	-2.997000	3.580000	-10.729000	25.154106	0.000882	20.666089
1192.331989	-2.996000	3.579700	-10.724000	25.181769	0.000881	20.648814
1193.331191	-3.006000	3.580300	-10.762000	25.233182	0.000881	20.662974
1194.332749	-2.967200	3.581200	-10.625000	25.228589	0.000880	20.665949
1195.337956	-3.015500	3.577600	-10.787000	25.264702	0.000882	20.672809
1196.332476	-2.976800	3.578600	-10.651000	25.276166	0.000879	20.669620
1197.332355	-2.976800	3.579200	-10.654000	25.217727	0.000879	20.677330
1198.333486	-2.994100	3.578600	-10.714000	25.187231	0.000876	20.671369
1199.333539	-3.013500	3.577000	-10.779000	25.172639	0.000877	20.679480
1200.336856	-2.985100	3.577500	-10.678000	25.202736	0.000878	20.667021
1201.335639	-2.957700	3.578500	-10.582000	25.195862	0.000877	20.671025
1202.333516	-3.000600	3.576400	-10.730000	25.239833	0.000876	20.679610
1203.333077	-3.013800	3.575400	-10.774000	25.245924	0.000877	20.681458
1204.332123	-2.997800	3.576000	-10.719000	25.243660	0.000876	20.674917
1205.334202	-3.019000	3.576300	-10.796000	25.261729	0.000875	20.685947
1206.334581	-2.980200	3.576500	-10.658000	25.257412	0.000875	20.646047
1207.333117	-2.997600	3.575800	-10.718000	25.282572	0.000876	20.666094
1208.333042	-2.984200	3.574900	-10.667000	25.285048	0.000873	20.681858
1209.332019	-2.997700	3.575000	-10.715000	25.300388	0.000873	20.663593
1210.332397	-3.017300	3.573800	-10.781000	25.289998	0.000873	20.677819
1211.332747	-2.978700	3.575600	-10.649000	25.275114	0.000873	20.665244
1212.332841	-3.003000	3.573200	-10.730000	25.248341	0.000874	20.669185
1213.334109	-3.002400	3.572200	-10.725000	25.239970	0.000870	20.686386
1214.331496	-3.014200	3.571100	-10.763000	25.262118	0.000872	20.685389
1215.332780	-3.040900	3.571200	-10.859000	25.231746	0.000872	20.687612
1216.336248	-3.002000	3.573200	-10.724000	25.274127	0.000870	20.687964
1217.332973	-3.009600	3.571800	-10.748000	25.270748	0.000869	20.667974
1218.336549	-2.996900	3.571700	-10.703000	25.283639	0.000869	20.688030
1219.334206	-2.989200	3.572000	-10.676000	25.278728	0.000869	20.672667
1220.335223	-3.021600	3.569900	-10.785000	25.285755	0.000868	20.661703
1221.336273	-3.000600	3.570100	-10.710000	25.294589	0.000867	20.665831
1222.344530	-3.019700	3.570300	-10.780000	25.307983	0.000866	20.681178
1223.335881	-3.006700	3.569400	-10.731000	25.330007	0.000866	20.679583
1224.336676	-2.988700	3.570700	-10.670000	25.328688	0.000867	20.682526
1225.335909	-2.973500	3.569900	-10.614000	25.359586	0.000866	20.677988
1226.334529	-3.014400	3.567900	-10.753000	25.340770	0.000865	20.675217
1227.341390	-3.031700	3.567500	-10.814000	25.321815	0.000864	20.685583
1228.335470	-2.982500	3.568700	-10.643000	25.295394	0.000864	20.685133
1229.337961	-2.996000	3.567300	-10.687000	25.275706	0.000865	20.675797
1230.335916	-2.984300	3.567800	-10.647000	25.274583	0.000865	20.677040
1231.335837	-2.999800	3.567400	-10.700000	25.290069	0.000863	20.697332
1232.338198	-3.005200	3.566700	-10.718000	25.325593	0.000862	20.686531
1233.336386	-3.005200	3.566800	-10.718000	25.292780	0.000861	20.690571
1234.337061	-3.006400	3.566400	-10.721000	25.277147	0.000862	20.708067
1235.336928	-3.001400	3.565700	-10.701000	25.264795	0.000862	20.698983
1236.336230	-3.003900	3.565800	-10.710000	25.263101	0.000860	20.682583
1237.337614	-2.994500	3.566900	-10.680000	25.285354	0.000859	20.674104
1238.337815	-2.962200	3.568200	-10.567000	25.282195	0.000860	20.683261
1239.336916	-3.012800	3.563800	-10.735000	25.285599	0.000858	20.688101
1240.337506	-2.994700	3.564600	-10.675000	25.281177	0.000858	20.688404
1241.337894	-2.995500	3.565000	-10.678000	25.282667	0.000857	20.702703
1242.340008	-3.013400	3.563600	-10.737000	25.251498	0.000856	20.701755
1243.336719	-3.014400	3.564100	-10.742000	25.237557	0.000857	20.688232
1244.342397	-3.004400	3.563400	-10.704000	25.261619	0.000856	20.716658
1245.338749	-2.990400	3.564800	-10.660000	25.248395	0.000855	20.681568
1246.339400	-3.012400	3.562100	-10.729000	25.286127	0.000857	20.726093
1247.341660	-2.997500	3.562500	-10.677000	25.287918	0.000854	20.701811
1248.344420	-3.008900	3.561400	-10.714000	25.298161	0.000855	20.690283
1249.338794	-3.006200	3.560700	-10.703000	25.281982	0.000852	20.702963
1250.342268	-2.979600	3.563200	-10.616000	25.256553	0.000852	20.710624
1251.343022	-3.001600	3.561600	-10.689000	25.249469	0.000856	20.692131
1252.340846	-3.003700	3.562700	-10.700000	25.240202	0.000853	20.689465
1253.341184	-3.018600	3.560500	-10.746000	25.205352	0.000853	20.715644
1254.347573	-3.001200	3.560900	-10.686000	25.198698	0.000853	20.698057
1255.342156	-2.984800	3.560200	-10.625000	25.180051	0.000850	20.707312
1256.341445	-2.988800	3.560600	-10.641000	25.159913	0.000850	20.698475
1257.342733	-2.996500	3.559800	-10.665000	25.144831	0.000849	20.695187
1258.346193	-2.983200	3.557900	-10.613000	25.150799	0.000848	20.707818
1259.342723	-2.988900	3.558000	-10.634000	25.198901	0.000847	20.707745
1260.344596	-2.992900	3.559500	-10.652000	25.221556	0.000847	20.721481
1261.343201	-2.990800	3.557700	-10.639000	25.271827	0.000849	20.718373
1262.343753	-3.017500	3.557200	-10.733000	25.276273	0.000847	20.706241
1263.347434	-2.985600	3.557700	-10.621000	25.317611	0.000848	20.721668
1264.345195	-2.981800	3.558100	-10.609000	25.338218	0.000847	20.693519
1265.345818	-2.982300	3.557000	-10.607000	25.367993	0.000844	20.697337
1266.346053	-2.988800	3.556900	-10.630000	25.404108	0.000847	20.706575
1267.346030	-2.997000	3.557200	-10.660000	25.394811	0.000846	20.719051
1268.348577	-2.992300	3.556500	-10.641000	25.427889	0.000846	20.726189
1269.345973	-2.987800	3.556300	-10.624000	25.443863	0.000845	20.712356
1270.346187	-2.976000	3.555200	-10.579000	25.459575	0.000846	20.716280
1271.345311	-2.984900	3.556000	-10.613000	25.474285	0.000843	20.704025
1272.346926	-3.000600	3.556100	-10.669000	25.448732	0.000843	20.735265
1273.346081	-2.987600	3.556600	-10.625000	25.450124	0.000842	20.713902
1274.348522	-3.012600	3.554300	-10.706000	25.432922	0.000843	20.709430
1275.345042	-3.014200	3.552900	-10.709000	25.456538	0.000842	20.719395
1276.347528	-2.977500	3.555100	-10.584000	25.472372	0.000841	20.722968
1277.347273	-2.995800	3.554600	-10.647000	25.491129	0.000840	20.715251
1278.346800	-3.003400	3.553500	-10.672000	25.508893	0.000841	20.732616
1279.347605	-3.013200	3.552300	-10.703000	25.533861	0.000838	20.724973
1280.346197	-3.026000	3.551200	-10.744000	25.519403	0.000839	20.732265
1281.351454	-2.988000	3.552200	-10.612000	25.506280	0.000838	20.729992
1282.352143	-2.998500	3.551400	-10.648000	25.496788	0.000839	20.715717
1283.347522	-2.991900	3.551700	-10.625000	25.497610	0.000838	20.737881
1284.351661	-3.002900	3.550600	-10.662000	25.493776	0.000837	20.720754
1285.347567	-3.004400	3.550400	-10.666000	25.516880	0.000836	20.734473
1286.346002	-3.012100	3.550200	-10.693000	25.510400	0.000834	20.746458
1287.349746	-3.007800	3.549600	-10.675000	25.477642	0.000834	20.714509
1288.349030	-2.987500	3.550900	-10.607000	25.474687	0.000835	20.736672
1289.348264	-2.988800	3.550200	-10.610000	25.486410	0.000834	20.726634
1290.353030	-2.988300	3.550600	-10.609000	25.473840	0.000831	20.735348
1291.350040	-3.003200	3.549200	-10.658000	25.511564	0.000831	20.740515
1292.350489	-3.012100	3.548300	-10.687000	25.502072	0.000832	20.737621
1293.350545	-2.995400	3.548500	-10.627000	25.491880	0.000833	20.751094
1294.353642	-3.010000	3.547700	-10.678000	25.498767	0.000832	20.743311
1295.352188	-3.020600	3.546400	-10.711000	25.514202	0.000833	20.749328
1296.352074	-2.999400	3.547000	-10.637000	25.541187	0.000831	20.756040
1297.351846	-3.004100	3.546800	-10.654000	25.535301	0.000832	20.746335
1298.352233	-3.006000	3.546400	-10.659000	25.530247	0.000831	20.730827
1299.353251	-2.995900	3.546200	-10.623000	25.516440	0.000828	20.729289
1300.355270	-2.978100	3.548000	-10.564000	25.513607	0.000829	20.752050
1301.358014	-2.979000	3.546000	-10.562000	25.490699	0.000827	20.736631
1302.357417	-2.997600	3.545700	-10.628000	25.518972	0.000827	20.744635
1303.355227	-2.999000	3.544500	-10.629000	25.489047	0.000825	20.746827
1304.355580	-3.002700	3.545500	-10.646000	25.490129	0.000825	20.750758
1305.360012	-2.993600	3.544800	-10.611000	25.488013	0.000825	20.756219
1306.354579	-3.035000	3.543400	-10.754000	25.476681	0.000825	20.758116
1307.359113	-2.997000	3.544000	-10.620000	25.507721	0.000826	20.726223
1308.356882	-2.984500	3.544400	-10.577000	25.522732	0.000824	20.760266
1309.355665	-3.007400	3.543200	-10.655000	25.534707	0.000823	20.744790
1310.358786	-3.013900	3.541200	-10.672000	25.529440	0.000823	20.744242
1311.359163	-3.000800	3.541500	-10.625000	25.521658	0.000824	20.761084
1312.356304	-2.995700	3.542300	-10.610000	25.509341	0.000824	20.753455
1313.356266	-2.991600	3.541400	-10.592000	25.520315	0.000823	20.749303
1314.356732	-2.994600	3.542500	-10.606000	25.520623	0.000822	20.759096
1315.357725	-2.989500	3.541700	-10.587000	25.515748	0.000822	20.777908
1316.359913	-2.986700	3.540400	-10.572000	25.523180	0.000821	20.755973
1317.357199	-3.011500	3.541200	-10.664000	25.553201	0.000819	20.756251
1318.361776	-2.997800	3.541200	-10.614000	25.547805	0.000820	20.768850
1319.357523	-3.020600	3.539600	-10.690000	25.548627	0.000819	20.770623
1320.358006	-2.977400	3.539700	-10.538000	25.553624	0.000818	20.778962
1321.358896	-2.993100	3.538900	-10.591000	25.551858	0.000817	20.767705
1322.356814	-2.987400	3.539300	-10.573000	25.550386	0.000821	20.761484
1323.359077	-2.984500	3.539000	-10.561000	25.553942	0.000818	20.754625
1324.358264	-2.997100	3.537700	-10.601000	25.566291	0.000817	20.758018
1325.357296	-2.969700	3.538500	-10.506000	25.573765	0.000815	20.759833
1326.361622	-2.977700	3.537900	-10.534000	25.555758	0.000817	20.755025
1327.357542	-2.991800	3.537900	-10.583000	25.580203	0.000817	20.759661
1328.357103	-2.997900	3.536300	-10.601000	25.560797	0.000815	20.776682
1329.357797	-3.007800	3.536000	-10.635000	25.560080	0.000815	20.768850
1330.358493	-3.021100	3.536400	-10.683000	25.570369	0.000814	20.773019
1331.360840	-2.983600	3.537300	-10.553000	25.533787	0.000814	20.778954
1332.361417	-3.015000	3.535100	-10.657000	25.524491	0.000814	20.763454
1333.357531	-3.000900	3.534700	-10.605000	25.527324	0.000813	20.767248
1334.359726	-3.028600	3.533000	-10.699000	25.538191	0.000813	20.783377
1335.360082	-2.975800	3.535800	-10.521000	25.539795	0.000810	20.775031
1336.357612	-3.010200	3.533900	-10.637000	25.552722	0.000810	20.784694
1337.362959	-3.002800	3.534800	-10.613000	25.538712	0.000813	20.780581
1338.360993	-3.002800	3.534000	-10.610000	25.535179	0.000811	20.774188
1339.361209	-3.015300	3.532700	-10.652000	25.552959	0.000809	20.776397
1340.360975	-2.995800	3.534800	-10.589000	25.571331	0.000809	20.775881
1341.361097	-3.008900	3.534400	-10.634000	25.560122	0.000808	20.785961
1342.365727	-3.000100	3.533400	-10.600000	25.560073	0.000809	20.774058
1343.363047	-2.991200	3.532300	-10.565000	25.558258	0.000806	20.787408
1344.365425	-2.983200	3.531900	-10.536000	25.541838	0.000805	20.767599
1345.365394	-2.980000	3.532700	-10.527000	25.567057	0.000806	20.773960
1346.364048	-2.991900	3.532800	-10.569000	25.559478	0.000806	20.791953
1347.367254	-3.027200	3.531400	-10.690000	25.557062	0.000805	20.790000
1348.368017	-2.997000	3.531200	-10.582000	25.563671	0.000807	20.792845
1349.367551	-3.029300	3.529000	-10.689000	25.540740	0.000804	20.794471
1350.364666	-3.021600	3.529100	-10.662000	25.560846	0.000805	20.766299
1351.368738	-2.993000	3.530000	-10.564000	25.552218	0.000805	20.805999
1352.368906	-3.018500	3.528100	-10.648000	25.542345	0.000805	20.789919
1353.368966	-3.014500	3.529200	-10.637000	25.570281	0.000804	20.790474
1354.365469	-3.000800	3.530000	-10.592000	25.570876	0.000802	20.790597
1355.365282	-3.016300	3.528200	-10.641000	25.559349	0.000802	20.803677
1356.366910	-2.991700	3.527600	-10.552000	25.595475	0.000800	20.807716
1357.368556	-3.003500	3.527800	-10.595000	25.619374	0.000802	20.798528
1358.369376	-3.011700	3.526100	-10.618000	25.620465	0.000801	20.811951
1359.366105	-2.976900	3.529100	-10.504000	25.627505	0.000798	20.796263
1360.372671	-3.005700	3.526800	-10.599000	25.582924	0.000799	20.808861
1361.367682	-3.011500	3.526100	-10.618000	25.546293	0.000798	20.820437
1362.365915	-3.010000	3.526100	-10.612000	25.501837	0.000799	20.799975
1363.369913	-2.985000	3.526100	-10.523000	25.522165	0.000798	20.794309
1364.366744	-2.994000	3.525300	-10.554000	25.561653	0.000798	20.803620
1365.367320	-3.004700	3.524200	-10.588000	25.559464	0.000799	20.820862
1366.368895	-2.993200	3.525500	-10.551000	25.582672	0.000798	20.802918
1367.368697	-3.001500	3.524100	-10.576000	25.621336	0.000797	20.822309
1368.368657	-3.003500	3.523700	-10.583000	25.650606	0.000795	20.813774
1369.373358	-3.049800	3.520800	-10.736000	25.605187	0.000794	20.799451
1370.368542	-2.992900	3.522300	-10.541000	25.598374	0.000793	20.795454
1371.370474	-3.019400	3.522300	-10.634000	25.569883	0.000794	20.817575
1372.371089	-2.993800	3.522100	-10.543000	25.559806	0.000791	20.818361
1373.368287	-2.990400	3.521900	-10.531000	25.554295	0.000792	20.801446
1374.372738	-3.007700	3.522300	-10.593000	25.548115	0.000792	20.819896
1375.367406	-3.004900	3.523300	-10.586000	25.548010	0.000792	20.798928
1376.369857	-2.993400	3.521500	-10.539000	25.533521	0.000790	20.831317
1377.368603	-3.011000	3.520700	-10.599000	25.548710	0.000791	20.811959
1378.370587	-2.999600	3.520400	-10.558000	25.548514	0.000790	20.816978
1379.371760	-3.015200	3.520100	-10.612000	25.541929	0.000793	20.801355
1380.371049	-2.982300	3.520400	-10.497000	25.603005	0.000789	20.812433
1381.370315	-2.990300	3.520700	-10.527000	25.621823	0.000789	20.815211
1382.370769	-3.004700	3.519400	-10.573000	25.587456	0.000789	20.823844
1383.370230	-3.000800	3.518600	-10.556000	25.583305	0.000787	20.827261
1384.369286	-2.974100	3.519500	-10.464000	25.574611	0.000785	20.828487
1385.374726	-3.021300	3.516800	-10.625000	25.566291	0.000786	20.824399
1386.370492	-2.998400	3.519300	-10.551000	25.554309	0.000786	20.832280
1387.373107	-3.001800	3.517800	-10.559000	25.544370	0.000786	20.836049
1388.371734	-2.990400	3.518300	-10.519000	25.552673	0.000785	20.836801
1389.372406	-3.014800	3.516500	-10.600000	25.570435	0.000785	20.835199
1390.375803	-3.011700	3.516000	-10.587000	25.586470	0.000785	20.819061
1391.372155	-3.000200	3.516900	-10.550000	25.597899	0.000784	20.834332
1392.373367	-2.996500	3.516400	-10.536000	25.601480	0.000783	20.837928
1393.373393	-3.004600	3.515500	-10.561000	25.597354	0.000784	20.825723
1394.372452	-3.011500	3.514600	-10.583000	25.642676	0.000783	20.835206
1395.375042	-2.963700	3.516400	-10.420000	25.649121	0.000781	20.835990
1396.373194	-2.991700	3.516200	-10.519000	25.635252	0.000783	20.838181
1397.372468	-2.998100	3.514300	-10.535000	25.645019	0.000780	20.829025
1398.373940	-3.003300	3.512800	-10.548000	25.640942	0.000780	20.803593
1399.373460	-3.003100	3.513300	-10.550000	25.612941	0.000780	20.842800
1400.379044	-3.001900	3.512800	-10.543000	25.594976	0.000778	20.806740
1401.379802	-2.994100	3.514200	-10.521000	25.597694	0.000778	20.804728
1402.373239	-2.984500	3.514100	-10.487000	25.590972	0.000781	20.827848
1403.375690	-3.004700	3.513200	-10.554000	25.597907	0.000779	20.801623
1404.375156	-3.009400	3.511900	-10.567000	25.593812	0.000778	20.813157
1405.375255	-2.993600	3.512100	-10.513000	25.615137	0.000776	20.818928
1406.375697	-2.968000	3.513300	-10.425000	25.623310	0.000777	20.822869
1407.375186	-3.011300	3.511500	-10.572000	25.628772	0.000777	20.808915
1408.380159	-2.993600	3.510400	-10.508000	25.640778	0.000774	20.803903
1409.376910	-3.017600	3.510100	-10.590000	25.648926	0.000775	20.811612
1410.376091	-3.006700	3.509500	-10.551000	25.649528	0.000776	20.809372
1411.379655	-3.006600	3.508500	-10.548000	25.650968	0.000776	20.799913
1412.375857	-2.992500	3.510300	-10.504000	25.626248	0.000774	20.793577
1413.377058	-2.984400	3.509600	-10.473000	25.639565	0.000776	20.809322
1414.376737	-3.009700	3.508900	-10.560000	25.619541	0.000774	20.801539
1415.376847	-2.973500	3.509000	-10.433000	25.612980	0.000772	20.789735
1416.377057	-2.977700	3.507400	-10.443000	25.567216	0.000771	20.782180
1417.380666	-2.997100	3.507500	-10.511000	25.533865	0.000773	20.803215
1418.376731	-3.017000	3.507200	-10.580000	25.541623	0.000771	20.813376
1419.376761	-3.017100	3.507800	-10.582000	25.547851	0.000772	20.789285
1420.377203	-2.988100	3.506200	-10.476000	25.552702	0.000772	20.799847
1421.378070	-3.001300	3.505600	-10.521000	25.554167	0.000770	20.798473
1422.380718	-2.979700	3.506100	-10.445000	25.592630	0.000770	20.796798
1423.379291	-3.023500	3.504600	-10.596000	25.597628	0.000769	20.793282
1424.378866	-2.988200	3.506000	-10.476000	25.572035	0.000769	20.800296
1425.378558	-2.992100	3.504400	-10.485000	25.600940	0.000769	20.805618
1426.380822	-3.008100	3.504000	-10.540000	25.595495	0.000767	20.790192
1427.382562	-3.009200	3.503500	-10.541000	25.647989	0.000767	20.810197
1428.380864	-3.024300	3.501900	-10.590000	25.602772	0.000767	20.796078
1429.383704	-3.014100	3.503800	-10.560000	25.520604	0.000767	20.804596
1430.379546	-3.017000	3.501400	-10.561000	25.497233	0.000764	20.773540
1431.381507	-3.009100	3.502600	-10.538000	25.464409	0.000765	20.773768
1432.381609	-3.009400	3.502300	-10.539000	25.459508	0.000766	20.790658
1433.385245	-3.017800	3.500900	-10.564000	25.468756	0.000765	20.784298
1434.385890	-2.992300	3.501400	-10.475000	25.492683	0.000764	20.774186
1435.383073	-3.000300	3.500700	-10.502000	25.516738	0.000764	20.767523
1436.382193	-2.999500	3.500600	-10.498000	25.539695	0.000764	20.803854
1437.382841	-2.987100	3.501200	-10.458000	25.567461	0.000763	20.786219
1438.385493	-3.017300	3.499100	-10.557000	25.520435	0.000762	20.778348
1439.382306	-2.994500	3.500500	-10.480000	25.477647	0.000763	20.760509
1440.383222	-3.016800	3.497600	-10.551000	25.441086	0.000761	20.774530
1441.385826	-3.024100	3.498100	-10.577000	25.436210	0.000762	20.783384
1442.381870	-3.013100	3.499400	-10.543000	25.436861	0.000760	20.784986
1443.382821	-2.997400	3.499100	-10.487000	25.458427	0.000760	20.772029
1444.382349	-2.985400	3.497400	-10.439000	25.400054	0.000760	20.785010
1445.385635	-3.002000	3.497000	-10.496000	25.416476	0.000756	20.779215
1446.387390	-2.987700	3.498100	-10.450000	25.437294	0.000759	20.784947
1447.383918	-2.981900	3.497000	-10.427000	25.434867	0.000759	20.780139
1448.386906	-3.016600	3.496000	-10.544000	25.468091	0.000758	20.788371
1449.384933	-3.015400	3.496500	-10.541000	25.469238	0.000756	20.788575
1450.387164	-2.981400	3.496400	-10.423000	25.527551	0.000758	20.789288
1451.391551	-2.969600	3.497100	-10.384000	25.554488	0.000758	20.775087
1452.387015	-2.981000	3.496800	-10.423000	25.546689	0.000756	20.770100
1453.387137	-2.992700	3.494900	-10.458000	25.594514	0.000756	20.779723
1454.388159	-2.980100	3.495000	-10.415000	25.615084	0.000755	20.757234
1455.387822	-2.987000	3.494500	-10.437000	25.629425	0.000754	20.772112
1456.387670	-3.005300	3.493000	-10.495000	25.661919	0.000753	20.746426
1457.388963	-2.997000	3.493200	-10.468000	25.670221	0.000753	20.749549
1458.387229	-2.994200	3.493900	-10.460000	25.637598	0.000753	20.777476
1459.387132	-3.000900	3.493900	-10.483000	25.649841	0.000751	20.761322
1460.387963	-3.017200	3.492200	-10.534000	25.647285	0.000749	20.783411
1461.390506	-3.005600	3.492900	-10.496000	25.645274	0.000751	20.770012
1462.387497	-3.006100	3.491400	-10.493000	25.655481	0.000753	20.775048
1463.389312	-2.998400	3.490900	-10.466000	25.662206	0.000751	20.753352
1464.388288	-2.989200	3.490600	-10.434000	25.671141	0.000749	20.779871
1465.389681	-3.012800	3.489600	-10.512000	25.675928	0.000749	20.766661
1466.390027	-2.998100	3.490500	-10.464000	25.669571	0.000750	20.772604
1467.388090	-3.003300	3.490500	-10.481000	25.650680	0.000749	20.759320
1468.389326	-3.020500	3.488600	-10.537000	25.669067	0.000748	20.772098
1469.390950	-3.005700	3.489200	-10.486000	25.660545	0.000748	20.745994
1470.388580	-2.999400	3.489000	-10.464000	25.655327	0.000749	20.748814
1471.391041	-3.021100	3.488100	-10.537000	25.633171	0.000748	20.771606
1472.392836	-3.012300	3.487500	-10.504000	25.640472	0.000747	20.762344
1473.389371	-3.016200	3.487700	-10.519000	25.638633	0.000747	20.764290
1474.389667	-2.997100	3.486600	-10.448000	25.648001	0.000748	20.754733
1475.392079	-3.011600	3.486900	-10.501000	25.626953	0.000745	20.779586
1476.389781	-3.002400	3.487000	-10.467000	25.621336	0.000746	20.764462
1477.390138	-3.004300	3.486900	-10.473000	25.636419	0.000744	20.762541
1478.391177	-3.018200	3.485200	-10.517000	25.632097	0.000746	20.771476
1479.390831	-2.972600	3.486400	-10.363000	25.662377	0.000745	20.752576
1480.391363	-3.001400	3.485000	-10.459000	25.674456	0.000743	20.758543
1481.393664	-3.011400	3.484600	-10.492000	25.684890	0.000744	20.769024
1482.392211	-3.009000	3.484700	-10.485000	25.710106	0.000744	20.759263
1483.395943	-2.986800	3.485200	-10.409000	25.724569	0.000743	20.761936
1484.399424	-3.009500	3.482000	-10.477000	25.732545	0.000742	20.765206
1485.392972	-3.005400	3.482200	-10.465000	25.696489	0.000741	20.744163
1486.394509	-2.994800	3.482800	-10.429000	25.646822	0.000742	20.765403
1487.396956	-2.983600	3.482900	-10.391000	25.600825	0.000743	20.747181
1488.394174	-3.006700	3.482200	-10.468000	25.602192	0.000740	20.754244
1489.393990	-3.004300	3.480500	-10.456000	25.610666	0.000740	20.772238
1490.397617	-2.996600	3.480500	-10.429000	25.611701	0.000740	20.765690
1491.393639	-2.992800	3.480800	-10.415000	25.624749	0.000741	20.751768
1492.395138	-2.999100	3.480400	-10.437000	25.642265	0.000740	20.749920
1493.400646	-3.010100	3.480000	-10.473000	25.633841	0.000737	20.766590
1494.396082	-3.013300	3.481000	-10.488000	25.662142	0.000736	20.765617
1495.395387	-3.003300	3.479300	-10.449000	25.654792	0.000738	20.752070
1496.397564	-3.016400	3.478300	-10.491000	25.637838	0.000736	20.751637
1497.401105	-2.993900	3.479200	-10.415000	25.617415	0.000736	20.775697
1498.395256	-2.992300	3.479000	-10.408000	25.642933	0.000736	20.770980
1499.398381	-3.001500	3.479400	-10.441000	25.631659	0.000735	20.755389
1500.397153	-2.994500	3.478500	-10.415000	25.645920	0.000734	20.740788
1501.394073	-2.984000	3.478300	-10.378000	25.658887	0.000733	20.766140
1502.400855	-3.003400	3.477000	-10.442000	25.692331	0.000733	20.747100
1503.395274	-3.001600	3.476700	-10.435000	25.696157	0.000733	20.759477
1504.395051	-3.018600	3.475200	-10.489000	25.714990	0.000732	20.741409
1505.398256	-2.994700	3.476000	-10.408000	25.728387	0.000732	20.742063
1506.397830	-3.010100	3.475400	-10.460000	25.714844	0.000731	20.762126
1507.396282	-2.999000	3.475900	-10.423000	25.706745	0.000730	20.748775
1508.396562	-2.984800	3.475400	-10.372000	25.672731	0.000730	20.743060
1509.395358	-2.996400	3.474700	-10.410000	25.697856	0.000729	20.739847
1510.395477	-2.999600	3.473500	-10.416000	25.676637	0.000729	20.725646
1511.397605	-2.998700	3.474800	-10.419000	25.679844	0.000729	20.734557
1512.402468	-3.023800	3.471900	-10.498000	25.689741	0.000727	20.735488
1513.396649	-2.983900	3.474500	-10.366000	25.666528	0.000728	20.743942
1514.397995	-2.976900	3.473200	-10.338000	25.647253	0.000727	20.744972
1515.399292	-2.993500	3.473600	-10.396000	25.645910	0.000726	20.727027
1516.400048	-2.998800	3.472900	-10.414000	25.610436	0.000726	20.741660
1517.402147	-3.009700	3.471000	-10.445000	25.603232	0.000725	20.735847
1518.399939	-3.019700	3.469100	-10.474000	25.583403	0.000725	20.731105
1519.399032	-3.032800	3.469500	-10.519000	25.566211	0.000725	20.720951
1520.401269	-2.998200	3.470800	-10.405000	25.552372	0.000725	20.736451
1521.399915	-2.976500	3.471200	-10.331000	25.545591	0.000724	20.730115
1522.400752	-2.997300	3.471200	-10.404000	25.535138	0.000725	20.733842
1523.404166	-3.019000	3.468200	-10.469000	25.538890	0.000724	20.727179
1524.402400	-2.995000	3.469600	-10.391000	25.551589	0.000722	20.736613
1525.401862	-3.013000	3.469300	-10.452000	25.514517	0.000723	20.742058
1526.406610	-2.991300	3.468000	-10.374000	25.510625	0.000722	20.724872
1527.405611	-3.005900	3.467400	-10.422000	25.516641	0.000722	20.719059
1528.403931	-2.987600	3.467800	-10.359000	25.527720	0.000721	20.718332
1529.404349	-2.996000	3.467000	-10.386000	25.540126	0.000721	20.733161
1530.408689	-3.005200	3.466600	-10.417000	25.558214	0.000719	20.727619
1531.403490	-2.981000	3.469000	-10.339000	25.558742	0.000719	20.729098
1532.407164	-2.989500	3.467000	-10.363000	25.570073	0.000720	20.725304
1533.405130	-3.013800	3.465600	-10.444000	25.567174	0.000718	20.718599
1534.403928	-3.010100	3.465000	-10.426000	25.591375	0.000718	20.738638
1535.410644	-3.013500	3.464100	-10.438000	25.605546	0.000718	20.734377
1536.404512	-2.991100	3.465300	-10.363000	25.596079	0.000717	20.739569
1537.405193	-3.011200	3.462600	-10.426000	25.583405	0.000719	20.730159
1538.408640	-2.976500	3.464600	-10.312000	25.570235	0.000716	20.732105
1539.407488	-3.006200	3.463900	-10.412000	25.532593	0.000716	20.718958
1540.406941	-3.002100	3.463400	-10.396000	25.559310	0.000716	20.738677
1541.410665	-2.971500	3.464700	-10.295000	25.572456	0.000716	20.714894
1542.406651	-2.996500	3.463300	-10.377000	25.593604	0.000715	20.703890
1543.406242	-2.999700	3.461900	-10.384000	25.547286	0.000715	20.703366
1544.413529	-2.990200	3.463100	-10.353000	25.537168	0.000715	20.721181
1545.408281	-3.016600	3.460400	-10.438000	25.488991	0.000714	20.713103
1546.408254	-2.987100	3.461800	-10.339000	25.514390	0.000712	20.727705
1547.410866	-3.013200	3.460100	-10.425000	25.526543	0.000711	20.713830
1548.409949	-2.970600	3.460600	-10.279000	25.540040	0.000712	20.718376
1549.411074	-3.001800	3.460100	-10.386000	25.577576	0.000712	20.704863
1550.415609	-3.002000	3.460100	-10.385000	25.523662	0.000711	20.699556
1551.411600	-2.989200	3.460100	-10.341000	25.526771	0.000710	20.734923
1552.412833	-3.005400	3.458200	-10.393000	25.493020	0.000711	20.705769
1553.416211	-3.011700	3.457700	-10.412000	25.527813	0.000709	20.701828
1554.421802	-2.988000	3.459100	-10.335000	25.524459	0.000710	20.717427
1555.414399	-2.997300	3.458000	-10.364000	25.522644	0.000710	20.714656
1556.417078	-2.999800	3.458000	-10.371000	25.522504	0.000708	20.697445
1557.414135	-3.005800	3.457000	-10.389000	25.511564	0.000709	20.714909
1558.414942	-2.990300	3.457100	-10.337000	25.525810	0.000708	20.728267
1559.416116	-2.983400	3.456900	-10.312000	25.537736	0.000708	20.723174
1560.413581	-2.973600	3.457000	-10.279000	25.531622	0.000707	20.704231
1561.415726	-2.958000	3.457200	-10.225000	25.537459	0.000706	20.711990
1562.418638	-3.003700	3.456100	-10.379000	25.508976	0.000707	20.719897
1563.418046	-2.985900	3.455800	-10.318000	25.548448	0.000705	20.731562
1564.415934	-2.980900	3.455400	-10.299000	25.534634	0.000706	20.702040
1565.420869	-2.997300	3.455000	-10.355000	25.537295	0.000704	20.704713
1566.419864	-3.008200	3.454400	-10.390000	25.571086	0.000705	20.693602
1567.416378	-2.998700	3.453200	-10.354000	25.582001	0.000702	20.711204
1568.422321	-2.993100	3.453000	-10.334000	25.575636	0.000704	20.711924
1569.418988	-2.999200	3.453900	-10.357000	25.608716	0.000703	20.704369
1570.417047	-3.001800	3.454000	-10.367000	25.604663	0.000703	20.692236
1571.420799	-3.025700	3.450800	-10.440000	25.567911	0.000704	20.698475
1572.417858	-3.009700	3.451400	-10.386000	25.495428	0.000703	20.710084
1573.419492	-3.029500	3.450600	-10.452000	25.494134	0.000702	20.695032
1574.423921	-2.988800	3.450900	-10.313000	25.477828	0.000701	20.690511
1575.423900	-3.006800	3.451100	-10.375000	25.458346	0.000700	20.689440
1576.421757	-3.014700	3.451000	-10.402000	25.449155	0.000698	20.696806
1577.425677	-3.008000	3.449600	-10.375000	25.439606	0.000700	20.697175
1578.422322	-3.006400	3.449800	-10.370000	25.472438	0.000699	20.705963
1579.420161	-3.008300	3.448300	-10.372000	25.484365	0.000697	20.684747
1580.422498	-2.989100	3.449100	-10.309000	25.488240	0.000698	20.700968
1581.423018	-3.003600	3.448200	-10.355000	25.497375	0.000696	20.696865
1582.423631	-2.983600	3.447100	-10.284000	25.558248	0.000697	20.679286
1583.434278	-2.996900	3.447500	-10.331000	25.559038	0.000697	20.695253
1584.426948	-3.002500	3.448000	-10.351000	25.613983	0.000694	20.685000
1585.425394	-2.998600	3.447400	-10.336000	25.625925	0.000696	20.695099
1586.429667	-3.024200	3.445100	-10.418000	25.688598	0.000696	20.703519
1587.426239	-2.986400	3.447300	-10.294000	25.708376	0.000694	20.696357
1588.425114	-2.973500	3.447200	-10.249000	25.716125	0.000695	20.686121
1589.427487	-2.999400	3.445400	-10.332000	25.678286	0.000692	20.684625
1590.426445	-3.015200	3.444900	-10.386000	25.648317	0.000694	20.719012
1591.425789	-3.013100	3.444800	-10.378000	25.627251	0.000693	20.696430
1592.432717	-2.981200	3.445400	-10.270000	25.626355	0.000693	20.723034
1593.430592	-2.993400	3.444000	-10.307000	25.655968	0.000693	20.693978
1594.427428	-3.021200	3.442400	-10.399000	25.655926	0.000692	20.707688
1595.430634	-2.995500	3.443700	-10.315000	25.657066	0.000690	20.684175
1596.430922	-2.991400	3.444500	-10.302000	25.639273	0.000690	20.679106
1597.430615	-3.005700	3.442300	-10.345000	25.653241	0.000691	20.712103
1598.430504	-3.009400	3.441300	-10.356000	25.672922	0.000690	20.693937
1599.429807	-3.024900	3.440100	-10.404000	25.680262	0.000689	20.687558
1600.428968	-2.983400	3.441500	-10.267000	25.705666	0.000688	20.707860
1601.436995	-2.987000	3.441300	-10.277000	25.738116	0.000689	20.673121
1602.432895	-3.010800	3.440200	-10.357000	25.739011	0.000690	20.685401
1603.429386	-3.009900	3.440700	-10.354000	25.714318	0.000687	20.668182
1604.433071	-3.003200	3.439900	-10.330000	25.698690	0.000689	20.679988
1605.433053	-3.006600	3.438500	-10.336000	25.682892	0.000688	20.684983
1606.429120	-3.005700	3.438800	-10.335000	25.653094	0.000687	20.678762
1607.436720	-3.011200	3.438400	-10.352000	25.651555	0.000686	20.674846
1608.433710	-3.001600	3.439000	-10.322000	25.646785	0.000686	20.669580
1609.430099	-2.980500	3.438700	-10.248000	25.621886	0.000685	20.695310
1610.436800	-3.005100	3.437400	-10.329000	25.619323	0.000686	20.669025
1611.432901	-3.021200	3.436800	-10.382000	25.634413	0.000683	20.697460
1612.430322	-3.006700	3.436200	-10.331000	25.622813	0.000684	20.686757
1613.433495	-2.999200	3.437300	-10.308000	25.631206	0.000683	20.675745
1614.431639	-3.005100	3.434700	-10.321000	25.623156	0.000683	20.657226
1615.430158	-2.987800	3.436000	-10.265000	25.649625	0.000680	20.667691
1616.433097	-2.987600	3.436200	-10.265000	25.688801	0.000683	20.662467
1617.433743	-2.981900	3.436000	-10.245000	25.711338	0.000682	20.679416
1618.432792	-2.992600	3.435000	-10.279000	25.699138	0.000680	20.688973
1619.435868	-2.977200	3.435100	-10.226000	25.711859	0.000682	20.671403
1620.436605	-3.025900	3.433000	-10.387000	25.699715	0.000680	20.661101
1621.435465	-2.999000	3.434200	-10.298000	25.683168	0.000681	20.672458
1622.438644	-3.000200	3.433700	-10.301000	25.666743	0.000680	20.667814
1623.438455	-3.016400	3.432100	-10.351000	25.602806	0.000679	20.652435
1624.435614	-3.038500	3.431900	-10.426000	25.635805	0.000679	20.666612
1625.440056	-3.000600	3.431200	-10.294000	25.643953	0.000680	20.670529
1626.441413	-2.970000	3.432600	-10.194000	25.651213	0.000677	20.678770
1627.438912	-2.998500	3.431800	-10.289000	25.663886	0.000677	20.664944
1628.444268	-2.964900	3.432600	-10.177000	25.657724	0.000680	20.667290
1629.442729	-2.992900	3.432400	-10.270000	25.655308	0.000677	20.671976
1630.440653	-2.988300	3.432000	-10.255000	25.687539	0.000677	20.675426
1631.443089	-3.007100	3.430100	-10.314000	25.661770	0.000678	20.667086
1632.441843	-2.973900	3.431000	-10.202000	25.660833	0.000676	20.645280
1633.440166	-3.030600	3.428500	-10.389000	25.691120	0.000676	20.662425
1634.446375	-3.003000	3.428000	-10.293000	25.712632	0.000675	20.667438
1635.442890	-3.011700	3.428300	-10.325000	25.706251	0.000674	20.679047
1636.441510	-3.005800	3.428200	-10.304000	25.716490	0.000673	20.671787
1637.443806	-2.952300	3.429600	-10.124000	25.700628	0.000675	20.679563
1638.446754	-2.985400	3.427800	-10.232000	25.732589	0.000674	20.678475
1639.443361	-3.004600	3.426800	-10.296000	25.743544	0.000674	20.654863
1640.448293	-3.008700	3.427100	-10.310000	25.752635	0.000673	20.652614
1641.444159	-3.010900	3.427000	-10.316000	25.735673	0.000673	20.666399
1642.445614	-2.961200	3.428500	-10.151000	25.699268	0.000672	20.666342
1643.450792	-2.975800	3.427700	-10.199000	25.676909	0.000670	20.654789
1644.449028	-2.976400	3.425800	-10.195000	25.635389	0.000673	20.675204
1645.446088	-2.988300	3.425800	-10.237000	25.640956	0.000670	20.661354
1646.447568	-2.998100	3.424700	-10.267000	25.644863	0.000670	20.672865
1647.451008	-2.967900	3.425500	-10.165000	25.638058	0.000670	20.655123
1648.445806	-3.018800	3.423500	-10.333000	25.643821	0.000669	20.653325
1649.454353	-2.990400	3.425500	-10.242000	25.611945	0.000667	20.661615
1650.448944	-2.965600	3.425800	-10.159000	25.655777	0.000670	20.672922
1651.450479	-3.015100	3.422600	-10.318000	25.676801	0.000668	20.648516
1652.451355	-2.980200	3.425100	-10.207000	25.710221	0.000667	20.656954
1653.452109	-3.002300	3.421000	-10.269000	25.721624	0.000667	20.670305
1654.448620	-2.989800	3.422700	-10.232000	25.747041	0.000667	20.668335
1655.454674	-3.006800	3.421800	-10.287000	25.766655	0.000667	20.658163
1656.452082	-3.013000	3.422300	-10.311000	25.744591	0.000663	20.649275
1657.449701	-2.976300	3.419900	-10.178000	25.723974	0.000665	20.660811
1658.452148	-2.975900	3.421400	-10.180000	25.739975	0.000665	20.672143
1659.449936	-2.993500	3.421200	-10.241000	25.719799	0.000667	20.646659
1660.449225	-2.992900	3.421300	-10.238000	25.744224	0.000665	20.654123
1661.453006	-2.991000	3.420200	-10.228000	25.763854	0.000664	20.661988
1662.451913	-3.007800	3.419000	-10.283000	25.790068	0.000664	20.663190
1663.450438	-2.987200	3.419800	-10.214000	25.806264	0.000662	20.632039
1664.455329	-3.021000	3.418100	-10.324000	25.799834	0.000661	20.664939
1665.453073	-2.981900	3.418300	-10.192000	25.807590	0.000662	20.642381
1666.451609	-3.003200	3.417400	-10.263000	25.810918	0.000661	20.644777
1667.452745	-2.987500	3.418600	-10.212000	25.789750	0.000660	20.673303
1668.453060	-2.991900	3.418900	-10.228000	25.805562	0.000660	20.665003
1669.450256	-2.993600	3.417500	-10.230000	25.802544	0.000662	20.664816
1670.454192	-3.008200	3.417200	-10.279000	25.788440	0.000660	20.652069
1671.453595	-3.002700	3.415300	-10.254000	25.771918	0.000657	20.653492
1672.453412	-3.015100	3.415400	-10.297000	25.790629	0.000659	20.664701
1673.454301	-3.017800	3.414800	-10.304000	25.795625	0.000656	20.653123
1674.452114	-3.022200	3.414300	-10.317000	25.763796	0.000657	20.653394
1675.453903	-3.014300	3.413200	-10.287000	25.764495	0.000657	20.675910
1676.456761	-3.016300	3.413600	-10.296000	25.691463	0.000657	20.658028
1677.453297	-3.007600	3.414700	-10.270000	25.710607	0.000656	20.661136
1678.452901	-3.031800	3.412600	-10.345000	25.697893	0.000655	20.653106
1679.455393	-2.987800	3.414000	-10.199000	25.717028	0.000654	20.656205
1680.455714	-3.007500	3.411500	-10.259000	25.708898	0.000655	20.673170
1681.452013	-3.013700	3.412400	-10.283000	25.652850	0.000654	20.648168
1682.456721	-2.996000	3.412000	-10.221000	25.663634	0.000653	20.647146
1683.456198	-2.991200	3.411500	-10.204000	25.669300	0.000653	20.684608
1684.455496	-3.003600	3.410700	-10.244000	25.713423	0.000653	20.656851
1685.456615	-2.992700	3.412700	-10.212000	25.719518	0.000652	20.685261
1686.455766	-2.991400	3.410900	-10.201000	25.714000	0.000653	20.680667
1687.455299	-2.993100	3.410700	-10.206000	25.750796	0.000651	20.678745
1688.457541	-2.974700	3.411600	-10.148000	25.730001	0.000652	20.668288
1689.457402	-2.996000	3.410400	-10.216000	25.735512	0.000650	20.675721
1690.457370	-3.006100	3.410000	-10.250000	25.728610	0.000650	20.676849
1691.464103	-2.994200	3.410700	-10.211000	25.725557	0.000649	20.682318
1692.458331	-2.981100	3.409900	-10.164000	25.702426	0.000649	20.680421
1693.459236	-2.994400	3.410600	-10.212000	25.719843	0.000649	20.676578
1694.459425	-3.011500	3.407600	-10.261000	25.707920	0.000648	20.685465
1695.459521	-2.975000	3.409200	-10.140000	25.668688	0.000646	20.664077
1696.457169	-2.987700	3.407500	-10.180000	25.695719	0.000649	20.676529
1697.466855	-3.003200	3.408200	-10.235000	25.708392	0.000647	20.654642
1698.467494	-3.020700	3.405600	-10.286000	25.762035	0.000646	20.682448
1699.460592	-3.006000	3.407300	-10.241000	25.757510	0.000645	20.660831
1700.461143	-2.988500	3.407300	-10.181000	25.793637	0.000644	20.680527
1701.466494	-2.997800	3.406100	-10.211000	25.829658	0.000646	20.668819
1702.458271	-3.008300	3.406600	-10.247000	25.862950	0.000644	20.671443
1703.462081	-3.005900	3.405100	-10.234000	25.885850	0.000644	20.675957
1704.465743	-2.989300	3.405000	-10.178000	25.912534	0.000642	20.681426
1705.460428	-3.022600	3.404800	-10.291000	25.926311	0.000642	20.697640
1706.469044	-2.989800	3.404800	-10.178000	25.909230	0.000643	20.689013
1707.464705	-2.996700	3.404100	-10.200000	25.914519	0.000642	20.674411
1708.462025	-3.001200	3.403600	-10.214000	25.891448	0.000642	20.673045
1709.466084	-3.009500	3.403100	-10.240000	25.886997	0.000643	20.669048
1710.462132	-2.999900	3.403300	-10.208000	25.893711	0.000640	20.663937
1711.463770	-2.997700	3.403300	-10.200000	25.879372	0.000640	20.670397
1712.461290	-2.988700	3.401800	-10.166000	25.865041	0.000638	20.678760
1713.464063	-2.998800	3.402500	-10.202000	25.883498	0.000640	20.679284
1714.464327	-2.989800	3.401500	-10.168000	25.863283	0.000640	20.680787
1715.464627	-2.988400	3.402400	-10.166000	25.863527	0.000638	20.697156
1716.465745	-2.983200	3.401000	-10.145000	25.840424	0.000638	20.675367
1717.465867	-3.007800	3.400200	-10.226000	25.838836	0.000638	20.677092
1718.467811	-3.009200	3.399100	-10.227000	25.882879	0.000638	20.672497
1719.465087	-3.005900	3.398900	-10.216000	25.853916	0.000637	20.672800
1720.465761	-3.009300	3.398000	-10.225000	25.860150	0.000638	20.681434
1721.467605	-2.988300	3.400500	-10.161000	25.855454	0.000636	20.694262
1722.466779	-2.993000	3.398200	-10.170000	25.895004	0.000635	20.684205
1723.466348	-3.027500	3.396600	-10.282000	25.888820	0.000637	20.683682
1724.467315	-3.003100	3.398200	-10.205000	25.880397	0.000634	20.670952
1725.468288	-2.973500	3.398600	-10.105000	25.906510	0.000636	20.698610
1726.473765	-3.000500	3.396900	-10.191000	25.878411	0.000633	20.686502
1727.469606	-2.976600	3.398400	-10.114000	25.870289	0.000633	20.688775
1728.471126	-3.009600	3.396100	-10.220000	25.888438	0.000634	20.702740
1729.472375	-2.986000	3.398000	-10.145000	25.863853	0.000633	20.693689
1730.472087	-3.010000	3.395300	-10.219000	25.829420	0.000631	20.695136
1731.471525	-2.999600	3.395100	-10.183000	25.829990	0.000633	20.677689
1732.471379	-3.001400	3.396400	-10.191000	25.812005	0.000629	20.692814
1733.471921	-2.992000	3.394700	-10.156000	25.823619	0.000629	20.682195
1734.473130	-2.995000	3.395200	-10.168000	25.811574	0.000631	20.684320
1735.474556	-3.012000	3.393700	-10.221000	25.836437	0.000631	20.683217
1736.471952	-3.020300	3.392000	-10.244000	25.848514	0.000631	20.690608
1737.475405	-3.002400	3.394000	-10.189000	25.865156	0.000628	20.679824
1738.472195	-3.037000	3.392300	-10.302000	25.902321	0.000629	20.690134
1739.473510	-2.994600	3.392900	-10.160000	25.913250	0.000628	20.685940
1740.475846	-3.001900	3.393100	-10.185000	25.884574	0.000628	20.714507
1741.475267	-2.995600	3.392500	-10.162000	25.858069	0.000628	20.689775
1742.479260	-3.000700	3.392200	-10.178000	25.837024	0.000627	20.696136
1743.478337	-3.008400	3.391500	-10.202000	25.768832	0.000625	20.705399
1744.475634	-2.988000	3.391500	-10.133000	25.756412	0.000624	20.700509
1745.475743	-2.995400	3.392100	-10.160000	25.725053	0.000626	20.704099
1746.480500	-3.001800	3.391200	-10.179000	25.768303	0.000624	20.704394
1747.476245	-2.991400	3.391300	-10.143000	25.794664	0.000624	20.680136
1748.476617	-2.986000	3.390000	-10.122000	25.806237	0.000624	20.697927
1749.483394	-2.993100	3.391700	-10.151000	25.792443	0.000622	20.713944
1750.476996	-2.991000	3.389300	-10.136000	25.789782	0.000622	20.688035
1751.479142	-3.004600	3.389200	-10.182000	25.839694	0.000621	20.690283
1752.481439	-3.012300	3.387900	-10.204000	25.819618	0.000622	20.732707
1753.478834	-2.991700	3.388500	-10.137000	25.861854	0.000620	20.713494
1754.477617	-3.000500	3.388800	-10.167000	25.900973	0.000621	20.699686
1755.481093	-2.994100	3.388700	-10.145000	25.903529	0.000619	20.718850
1756.476717	-3.001600	3.388200	-10.169000	25.907231	0.000619	20.714983
1757.478384	-2.996900	3.386700	-10.148000	25.877692	0.000621	20.697635
1758.477604	-3.035600	3.385400	-10.276000	25.836107	0.000622	20.719398
1759.480666	-2.998600	3.385600	-10.150000	25.851032	0.000619	20.727754
1760.477600	-3.008200	3.386200	-10.185000	25.848721	0.000619	20.718319
1761.483124	-3.019900	3.385800	-10.223000	25.847728	0.000620	20.707838
1762.483528	-3.011100	3.387100	-10.198000	25.835375	0.000617	20.715818
1763.479847	-3.013200	3.385300	-10.200000	25.831624	0.000618	20.711101
1764.489125	-3.017000	3.384700	-10.211000	25.841511	0.000618	20.715818
1765.484465	-3.007400	3.384800	-10.178000	25.851147	0.000616	20.725498
1766.491481	-2.992400	3.385100	-10.128000	25.887075	0.000616	20.714649
1767.486450	-3.021300	3.383200	-10.221000	25.874275	0.000616	20.694202
1768.490674	-3.014800	3.385100	-10.204000	25.884195	0.000615	20.723609
1769.485737	-2.993000	3.384600	-10.129000	25.891666	0.000614	20.738702
1770.483891	-3.017400	3.382600	-10.205000	25.912408	0.000615	20.729668
1771.485975	-3.016000	3.383100	-10.202000	25.913255	0.000615	20.712499
1772.489766	-2.993300	3.384500	-10.130000	25.929823	0.000614	20.710177
1773.493465	-2.984000	3.383000	-10.093000	25.950663	0.000613	20.734908
1774.491585	-2.964400	3.384600	-10.031000	25.981486	0.000614	20.748333
1775.486970	-3.001000	3.381300	-10.145000	25.993058	0.000612	20.709696
1776.492371	-3.006000	3.380900	-10.161000	25.996361	0.000612	20.713963
1777.488478	-3.021100	3.380600	-10.212000	25.977207	0.000612	20.725066
1778.482938	-2.972800	3.382800	-10.054000	25.975945	0.000612	20.708624
1779.485740	-2.996400	3.381400	-10.131000	25.941069	0.000610	20.711044
1780.487393	-3.002200	3.380100	-10.147000	25.961510	0.000611	20.720676
1781.491041	-3.008800	3.380300	-10.170000	25.963821	0.000610	20.704504
1782.490829	-3.032900	3.379200	-10.248000	25.956042	0.000612	20.718975
1783.488230	-2.997300	3.379400	-10.127000	25.983359	0.000610	20.722712
1784.485952	-2.996700	3.378600	-10.123000	25.947043	0.000610	20.731272
1785.486781	-3.008000	3.379100	-10.164000	25.955319	0.000608	20.736267
1786.494425	-3.000200	3.376800	-10.130000	25.923193	0.000607	20.743348
1787.484650	-2.997800	3.377700	-10.125000	25.915316	0.000606	20.724054
1788.489022	-2.990900	3.378100	-10.103000	25.879298	0.000609	20.718216
1789.488756	-2.991500	3.376500	-10.100000	25.887241	0.000605	20.731412
1790.486679	-3.016000	3.375500	-10.180000	25.930842	0.000606	20.724479
1791.486934	-2.979100	3.377300	-10.060000	25.969861	0.000606	20.743291
1792.484815	-3.010200	3.375400	-10.160000	25.981139	0.000607	20.745139
1793.485023	-2.989700	3.376300	-10.094000	25.973906	0.000603	20.719378
1794.489954	-3.007500	3.375200	-10.151000	25.970406	0.000603	20.732933
1795.487571	-2.990500	3.377300	-10.099000	25.970969	0.000604	20.733498
1796.491645	-2.995900	3.375200	-10.111000	25.976234	0.000601	20.723140
1797.491723	-3.001000	3.375000	-10.127000	25.938624	0.000604	20.731822
1798.489703	-2.986300	3.374900	-10.077000	25.908840	0.000602	20.732722
1799.492897	-2.973900	3.375100	-10.035000	25.921112	0.000601	20.735567
1800.494830	-2.986600	3.374400	-10.077000	25.932439	0.000601	20.732247
1801.493242	-3.013500	3.374200	-10.168000	25.906449	0.000602	20.738380
1802.492278	-2.991600	3.373100	-10.090000	25.926181	0.000602	20.728331
1803.490597	-3.004200	3.372100	-10.129000	25.943409	0.000600	20.740898
1804.489468	-3.010200	3.372600	-10.152000	25.984665	0.000599	20.748207
1805.495329	-3.009300	3.371600	-10.145000	25.995813	0.000598	20.750399
1806.491936	-2.990800	3.370900	-10.080000	25.989507	0.000598	20.750701
1807.492098	-3.020500	3.371900	-10.184000	26.020980	0.000597	20.743441
1808.495496	-2.999100	3.371500	-10.111000	26.061314	0.000597	20.756939
1809.493429	-3.013200	3.370500	-10.155000	26.062949	0.000597	20.741038
1810.493211	-3.003100	3.370800	-10.121000	26.086772	0.000596	20.768768
1811.494881	-2.983200	3.371200	-10.056000	26.099709	0.000595	20.704951
1812.492790	-3.021300	3.369100	-10.177000	26.119644	0.000595	20.770503
1813.493754	-3.012900	3.369700	-10.152000	26.061925	0.000593	20.756131
1814.493164	-3.009300	3.368500	-10.136000	26.017840	0.000595	20.745976
1815.493142	-3.016900	3.369200	-10.164000	26.024758	0.000596	20.741072
1816.494870	-2.999500	3.369400	-10.105000	26.007426	0.000595	20.778662
1817.494274	-2.998200	3.368500	-10.098000	25.998956	0.000592	20.738856
1818.495662	-3.019500	3.367500	-10.168000	26.015351	0.000593	20.758649
1819.497949	-2.992600	3.368100	-10.079000	26.020990	0.000592	20.752460
1820.497125	-2.999300	3.366800	-10.097000	26.035930	0.000590	20.764152
1821.497722	-3.022600	3.366100	-10.174000	26.016434	0.000593	20.759737
1822.496985	-3.009600	3.365800	-10.129000	26.012358	0.000591	20.758012
1823.496961	-3.028400	3.365700	-10.191000	25.993278	0.000590	20.746428
1824.496807	-3.005300	3.366200	-10.114000	25.977385	0.000588	20.766973
1825.500289	-2.975600	3.367600	-10.020000	26.002350	0.000590	20.761233
1826.499762	-3.005000	3.365500	-10.112000	26.004360	0.000591	20.754244
1827.497486	-2.993100	3.364500	-10.069000	26.018322	0.000588	20.763056
1828.502906	-3.019500	3.365200	-10.159000	26.035434	0.000588	20.759860
1829.500481	-3.018100	3.364000	-10.152000	26.033522	0.000586	20.758413
1830.498635	-3.005500	3.364300	-10.110000	26.035605	0.000587	20.778999
1831.500277	-2.990000	3.364400	-10.059000	26.027907	0.000586	20.778851
1832.500949	-2.996300	3.363700	-10.078000	26.047428	0.000585	20.764324
1833.496875	-2.987700	3.364600	-10.052000	26.054164	0.000587	20.766825
1834.499328	-2.987100	3.362700	-10.043000	26.082178	0.000584	20.766523
1835.500845	-2.995600	3.362600	-10.072000	26.074872	0.000583	20.755389
1836.502952	-2.995900	3.362500	-10.073000	26.062627	0.000584	20.761103
1837.502381	-3.023600	3.361700	-10.164000	26.041789	0.000584	20.775254
1838.505350	-3.005500	3.361000	-10.101000	26.031106	0.000582	20.774004
1839.504417	-2.985100	3.360300	-10.030000	26.054856	0.000582	20.782694
1840.505246	-2.993000	3.360300	-10.056000	26.023482	0.000583	20.767292
1841.506299	-3.030700	3.360200	-10.182000	26.011309	0.000580	20.770709
1842.504720	-3.004700	3.359900	-10.095000	26.005744	0.000580	20.768437
1843.507777	-3.007700	3.358800	-10.101000	26.026411	0.000581	20.779244
1844.505902	-3.009400	3.358700	-10.107000	26.057282	0.000581	20.774699
1845.507045	-3.010700	3.358200	-10.110000	26.083212	0.000578	20.767562
1846.509738	-3.024400	3.358100	-10.155000	26.100795	0.000579	20.784281
1847.506626	-2.974300	3.358400	-9.987100	26.113820	0.000577	20.770815
1848.505273	-3.020600	3.357800	-10.142000	26.073701	0.000577	20.785507
1849.508436	-3.040500	3.356500	-10.204000	26.064954	0.000580	20.790469
1850.506742	-3.004800	3.357300	-10.087000	26.073596	0.000579	20.776392
1851.506782	-3.019200	3.356700	-10.134000	26.073865	0.000577	20.767179
1852.506948	-2.991200	3.357300	-10.042000	26.100511	0.000578	20.804859
1853.506724	-2.985500	3.356700	-10.021000	26.098078	0.000577	20.796724
1854.505805	-2.993300	3.355500	-10.043000	26.127556	0.000577	20.814489
1855.508343	-2.979600	3.355700	-9.996800	26.118492	0.000576	20.792580
1856.507374	-2.986500	3.355300	-10.020000	26.155886	0.000576	20.777996
1857.508707	-2.981600	3.356300	-10.005000	26.152485	0.000575	20.800183
1858.510452	-2.993000	3.354800	-10.039000	26.111049	0.000572	20.801223
1859.525587	-2.992100	3.354200	-10.035000	26.072745	0.000575	20.790710
1860.510558	-3.020000	3.353000	-10.126000	26.082036	0.000573	20.793408
1861.510942	-3.008700	3.353500	-10.089000	26.091548	0.000572	20.794430
1862.513541	-2.964700	3.355000	-9.945800	26.105998	0.000572	20.780026
1863.509401	-3.001600	3.353900	-10.066000	26.120032	0.000570	20.831111
1864.510685	-2.996200	3.353700	-10.047000	26.134734	0.000570	20.795624
1865.511581	-3.000900	3.352100	-10.058000	26.160802	0.000571	20.798110
1866.509796	-2.988400	3.352800	-10.018000	26.163462	0.000572	20.804576
1867.511994	-3.010500	3.353000	-10.093000	26.168751	0.000569	20.802778
1868.514320	-2.990500	3.352100	-10.024000	26.166311	0.000569	20.802697
1869.512090	-3.014600	3.352100	-10.105000	26.184486	0.000568	20.796778
1870.518003	-3.000100	3.351200	-10.052000	26.204028	0.000570	20.820208
1871.513151	-2.969800	3.352000	-9.953000	26.214555	0.000568	20.800442
1872.511850	-2.994800	3.349600	-10.031000	26.222276	0.000567	20.788285
1873.514322	-2.993300	3.351800	-10.031000	26.194755	0.000567	20.808993
1874.512666	-2.998100	3.349800	-10.042000	26.187750	0.000566	20.801955
1875.511158	-2.992200	3.349800	-10.022000	26.156013	0.000568	20.818901
1876.513855	-2.970400	3.350500	-9.951500	26.142524	0.000566	20.805348
1877.513861	-2.979800	3.348900	-9.978200	26.095783	0.000566	20.803901
1878.512511	-3.002300	3.347200	-10.048000	26.100551	0.000562	20.792096
1879.512954	-3.007500	3.349100	-10.070000	26.108094	0.000567	20.807736
1880.513847	-2.991100	3.348300	-10.014000	26.119866	0.000563	20.792064
1881.512610	-2.992600	3.349100	-10.020000	26.109429	0.000564	20.811448
1882.514098	-3.009600	3.347000	-10.072000	26.132184	0.000564	20.828623
1883.513124	-3.032700	3.345900	-10.146000	26.157358	0.000562	20.806977
1884.512197	-3.007800	3.347400	-10.067000	26.141713	0.000563	20.810696
1885.512063	-3.003300	3.346300	-10.049000	26.158123	0.000562	20.806797
1886.513468	-3.016100	3.345400	-10.088000	26.181692	0.000561	20.820997
1887.513652	-3.004300	3.345800	-10.051000	26.153527	0.000562	20.834895
1888.514916	-3.007000	3.345000	-10.057000	26.160150	0.000559	20.821162
1889.513872	-2.996200	3.344600	-10.020000	26.121603	0.000559	20.808033
1890.513031	-3.005000	3.343800	-10.046000	26.144092	0.000559	20.817354
1891.516625	-3.006100	3.345500	-10.056000	26.131904	0.000559	20.831185
1892.514513	-2.997500	3.345300	-10.026000	26.149307	0.000560	20.819749
1893.515431	-2.984700	3.344600	-9.982200	26.179084	0.000557	20.818850
1894.516894	-2.973600	3.344500	-9.943600	26.177213	0.000558	20.838307
1895.521502	-2.998300	3.343300	-10.023000	26.222536	0.000557	20.817470
1896.515726	-3.027200	3.342300	-10.117000	26.231941	0.000557	20.833085
1897.518959	-3.000100	3.342500	-10.027000	26.232657	0.000554	20.828115
1898.515677	-2.996000	3.342400	-10.012000	26.201882	0.000554	20.847923
1899.515949	-2.984500	3.342200	-9.973600	26.205014	0.000553	20.824992
1900.520985	-2.996400	3.342400	-10.014000	26.182431	0.000556	20.828378
1901.515508	-2.984600	3.341600	-9.972200	26.127515	0.000554	20.835311
1902.516705	-2.966200	3.342200	-9.911500	26.115711	0.000554	20.823924
1903.519390	-2.987300	3.342000	-9.982800	26.096559	0.000553	20.808474
1904.517153	-2.972500	3.340500	-9.929000	26.107664	0.000554	20.833382
1905.517736	-2.972000	3.341200	-9.928600	26.138371	0.000553	20.838158
1906.517927	-2.990100	3.339500	-9.983800	26.129406	0.000553	20.828675
1907.517147	-3.008200	3.337400	-10.039000	26.153423	0.000552	20.830523
1908.517662	-3.008700	3.339000	-10.045000	26.184436	0.000551	20.811901
1909.518884	-3.004000	3.338500	-10.028000	26.187040	0.000550	20.806931
1910.517955	-3.000100	3.338900	-10.016000	26.189490	0.000550	20.830730
1911.518714	-3.021700	3.338200	-10.086000	26.217029	0.000550	20.803875
1912.521166	-2.992100	3.336800	-9.983400	26.199619	0.000549	20.830002
1913.520641	-2.986000	3.337400	-9.963800	26.187075	0.000547	20.820242
1914.522131	-2.998000	3.337800	-10.005000	26.153443	0.000549	20.826276
1915.524185	-2.984700	3.336900	-9.958400	26.115968	0.000546	20.819441
1916.520897	-2.982000	3.336900	-9.949700	26.124553	0.000547	20.833756
1917.523026	-2.996600	3.335500	-9.993900	26.129621	0.000547	20.832211
1918.526429	-3.000300	3.335100	-10.005000	26.137912	0.000547	20.821576
1919.523240	-2.998700	3.336000	-10.002000	26.106694	0.000546	20.804907
1920.522861	-2.984300	3.335700	-9.953200	26.073141	0.000543	20.809126
1921.528035	-3.002500	3.334800	-10.010000	26.062783	0.000545	20.803460
1922.522230	-2.972700	3.334500	-9.911400	26.092058	0.000543	20.830978
1923.524338	-2.992700	3.333400	-9.975100	26.112105	0.000545	20.794223
1924.527252	-2.990700	3.334100	-9.970900	26.152810	0.000541	20.824217
1925.528628	-3.001900	3.332600	-10.003000	26.169489	0.000541	20.816796
1926.526115	-2.989400	3.333800	-9.964200	26.164980	0.000541	20.816533
1927.529607	-3.008400	3.333000	-10.026000	26.099633	0.000538	20.820097
1928.529142	-2.992400	3.332500	-9.971600	26.084403	0.000539	20.819493
1929.526199	-2.983500	3.332900	-9.942200	26.023623	0.000540	20.817221
1930.530815	-3.007300	3.331300	-10.017000	26.040539	0.000539	20.816673
1931.529111	-2.992900	3.331700	-9.971000	26.057920	0.000537	20.801893
1932.529272	-2.985500	3.332300	-9.948000	26.096567	0.000539	20.792361
1933.528951	-3.003300	3.331300	-10.004000	26.102555	0.000536	20.795533
1934.527606	-2.986400	3.330000	-9.943300	26.111343	0.000536	20.817164
1935.527502	-2.976100	3.330100	-9.909700	26.130089	0.000535	20.806603
1936.528154	-2.991500	3.329700	-9.959400	26.152715	0.000536	20.800415
1937.528717	-2.974400	3.329700	-9.903500	26.168807	0.000534	20.792877
1938.528359	-2.974700	3.330000	-9.904100	26.163935	0.000533	20.806947
1939.530067	-2.972100	3.330000	-9.896500	26.182191	0.000537	20.810593
1940.526872	-2.992100	3.329500	-9.960800	26.201781	0.000535	20.791873
1941.529930	-2.979000	3.328600	-9.914300	26.228523	0.000533	20.763268
1942.531826	-2.989200	3.328000	-9.947500	26.254530	0.000534	20.810266
1943.531376	-3.011600	3.327000	-10.017000	26.240116	0.000533	20.790566
1944.530328	-2.969700	3.329000	-9.885000	26.246697	0.000532	20.781058
1945.534066	-2.990500	3.327300	-9.949400	26.218208	0.000532	20.790836
1946.530540	-2.992100	3.327800	-9.956200	26.208048	0.000532	20.787738
1947.530078	-2.991100	3.326600	-9.949900	26.215548	0.000531	20.803810
1948.534542	-3.009200	3.326300	-10.009000	26.206632	0.000531	20.782048
1949.529833	-2.986000	3.326400	-9.931700	26.182348	0.000528	20.788465
1950.530379	-3.007800	3.326000	-10.003000	26.171805	0.000529	20.788304
1951.536345	-2.989200	3.324500	-9.937600	26.237798	0.000531	20.783495
1952.531449	-2.979500	3.326100	-9.908400	26.248521	0.000529	20.777675
1953.531089	-3.000800	3.324900	-9.976300	26.269551	0.000530	20.758979
1954.531986	-2.986200	3.324900	-9.926700	26.287626	0.000528	20.780938
1955.530756	-2.986500	3.324000	-9.925800	26.298226	0.000526	20.789694
1956.538469	-2.979600	3.323900	-9.902900	26.317864	0.000526	20.789041
1957.536685	-2.983600	3.322800	-9.912900	26.322575	0.000526	20.774809
1958.530288	-3.009500	3.323400	-10.001000	26.307477	0.000527	20.791404
1959.531494	-2.997500	3.322200	-9.956900	26.337103	0.000525	20.777081
1960.537318	-3.002600	3.323100	-9.976900	26.312545	0.000526	20.778005
1961.534830	-3.002300	3.322000	-9.972800	26.288825	0.000525	20.778823
1962.532248	-3.005100	3.321100	-9.979800	26.287116	0.000523	20.782322
1963.535781	-2.991500	3.322600	-9.939000	26.297342	0.000523	20.796392
1964.536613	-2.972000	3.322600	-9.874500	26.272206	0.000523	20.798158
1965.534663	-3.008100	3.320200	-9.985200	26.268652	0.000521	20.759498
1966.535470	-3.010100	3.320200	-9.993000	26.236746	0.000522	20.780067
1967.534149	-2.998000	3.319800	-9.951900	26.240758	0.000521	20.770348
1968.534695	-3.011000	3.320000	-9.995600	26.206834	0.000522	20.781303
1969.539227	-3.006200	3.320200	-9.979400	26.206810	0.000521	20.776537
1970.536046	-3.017700	3.317700	-10.011000	26.187114	0.000519	20.765280
1971.536136	-2.998000	3.319300	-9.950200	26.225855	0.000520	20.763432
1972.536129	-3.046100	3.316900	-10.102000	26.237717	0.000518	20.778198
1973.537668	-3.018100	3.318800	-10.015000	26.249471	0.000521	20.760612
1974.538748	-2.994200	3.317900	-9.932600	26.265628	0.000516	20.770211
1975.537431	-3.015200	3.317900	-10.003000	26.284525	0.000518	20.760278
1976.536502	-2.997800	3.317200	-9.943000	26.309703	0.000516	20.770881
1977.536677	-2.985900	3.318200	-9.906600	26.335229	0.000516	20.778991
1978.535540	-2.983300	3.317500	-9.896200	26.361544	0.000516	20.758023
1979.537755	-2.997600	3.315400	-9.936400	26.323434	0.000515	20.773301
1980.536931	-3.001100	3.315500	-9.949300	26.293053	0.000515	20.733759
1981.536240	-2.992600	3.315400	-9.920900	26.280363	0.000513	20.748982
1982.537497	-2.991900	3.314500	-9.915300	26.262458	0.000514	20.775085
1983.540923	-3.004600	3.313700	-9.954800	26.257642	0.000514	20.730889
1984.538019	-2.998900	3.315600	-9.942500	26.253682	0.000512	20.762472
1985.537443	-2.980500	3.315100	-9.880400	26.226340	0.000512	20.752065
1986.536298	-2.999400	3.313900	-9.938800	26.222841	0.000512	20.729108
1987.541585	-3.003900	3.313300	-9.951900	26.242585	0.000511	20.760330
1988.538581	-2.999700	3.313600	-9.939000	26.263118	0.000510	20.750618
1989.540889	-3.000300	3.311800	-9.935200	26.288614	0.000510	20.767706
1990.539340	-3.007600	3.313100	-9.962000	26.307787	0.000509	20.748567
1991.539418	-2.985300	3.313700	-9.890200	26.332142	0.000508	20.746491
1992.541664	-3.006300	3.311700	-9.955000	26.349574	0.000508	20.767330
1993.542621	-2.986700	3.311200	-9.888600	26.393100	0.000508	20.747538
1994.541406	-2.978400	3.311800	-9.862000	26.406781	0.000509	20.738054
1995.542535	-3.009300	3.312200	-9.965700	26.411376	0.000507	20.751208
1996.541253	-2.989700	3.309600	-9.893500	26.400666	0.000507	20.756090
1997.542709	-2.991400	3.311300	-9.904700	26.420878	0.000507	20.746059
1998.543058	-2.981200	3.310900	-9.869300	26.388651	0.000504	20.761085
1999.542753	-3.000700	3.309000	-9.928300	26.412379	0.000503	20.736094
2000.544416	-3.003200	3.309400	-9.937900	26.432567	0.000505	20.749747
2001.544537	-3.002100	3.307800	-9.929400	26.431047	0.000504	20.762444
2002.544395	-3.019400	3.306600	-9.981700	26.429810	0.000502	20.754088
2003.544069	-2.982700	3.310500	-9.873100	26.416024	0.000502	20.745448
2004.544058	-2.990300	3.308300	-9.891900	26.369417	0.000503	20.745072
2005.542595	-2.992300	3.307000	-9.894500	26.330063	0.000502	20.739659
2006.542713	-3.000900	3.307600	-9.924500	26.264823	0.000500	20.740952
2007.545162	-2.997200	3.307100	-9.911800	26.245772	0.000502	20.738402
2008.545943	-3.019900	3.305500	-9.981400	26.205714	0.000501	20.729916
2009.545212	-3.005700	3.304300	-9.929900	26.210880	0.000500	20.742220
2010.545813	-2.989900	3.306200	-9.884600	26.215868	0.000499	20.751973
2011.551300	-2.984000	3.306000	-9.864500	26.229153	0.000498	20.732132
2012.548496	-2.982800	3.305400	-9.858900	26.259871	0.000500	20.736449
2013.549499	-3.000200	3.305300	-9.916500	26.274662	0.000497	20.744675
2014.549896	-3.011700	3.304700	-9.952100	26.256757	0.000497	20.735690
2015.550206	-2.983800	3.304900	-9.860300	26.270391	0.000497	20.725683
2016.548751	-3.015800	3.304700	-9.965300	26.271132	0.000495	20.747765
2017.549437	-3.014000	3.303200	-9.954700	26.261695	0.000495	20.722634
2018.550617	-3.011000	3.302200	-9.941600	26.316866	0.000496	20.723551
2019.548851	-2.994900	3.302600	-9.889800	26.270653	0.000494	20.759613
2020.550884	-3.008600	3.302400	-9.934500	26.249592	0.000493	20.741292
2021.547805	-2.994400	3.301800	-9.885100	26.228758	0.000494	20.740744
2022.551064	-3.017200	3.300100	-9.954400	26.250486	0.000492	20.749778
2023.552624	-2.997700	3.302300	-9.898200	26.218573	0.000492	20.727664
2024.552075	-3.037500	3.300100	-10.023000	26.222358	0.000490	20.736684
2025.550615	-3.004400	3.300400	-9.913700	26.234552	0.000492	20.752258
2026.551484	-2.979900	3.300900	-9.835100	26.223326	0.000487	20.736234
2027.554091	-3.005600	3.299700	-9.916600	26.249123	0.000491	20.734183
2028.551455	-3.008800	3.299300	-9.925600	26.291164	0.000488	20.729016
2029.551656	-2.984400	3.299900	-9.846800	26.317952	0.000486	20.731281
2030.551329	-3.004500	3.299100	-9.910400	26.337719	0.000490	20.733603
2031.552789	-3.015600	3.298400	-9.945300	26.351963	0.000487	20.715675
2032.551273	-2.998600	3.297900	-9.889100	26.362717	0.000486	20.730751
2033.554739	-2.990800	3.299200	-9.866200	26.367630	0.000485	20.738534
2034.550446	-3.020300	3.296700	-9.955900	26.356087	0.000485	20.730252
2035.553898	-3.011900	3.295400	-9.923500	26.338079	0.000486	20.742026
2036.551410	-2.987500	3.296900	-9.849200	26.312172	0.000486	20.744439
2037.552194	-2.966600	3.298500	-9.783800	26.339365	0.000483	20.719135
2038.552682	-2.991600	3.296400	-9.860800	26.352673	0.000484	20.716388
2039.553782	-2.997900	3.296500	-9.881200	26.365282	0.000483	20.728113
2040.555002	-3.004900	3.295700	-9.901400	26.390855	0.000482	20.742437
2041.552772	-2.973600	3.296900	-9.802900	26.440519	0.000482	20.732135
2042.553615	-2.980000	3.297000	-9.824100	26.450304	0.000482	20.736279
2043.554243	-3.009700	3.294000	-9.913200	26.478031	0.000480	20.725268
2044.555959	-2.985400	3.295400	-9.837000	26.488256	0.000479	20.736019
2045.556993	-2.983000	3.293400	-9.823300	26.504116	0.000477	20.750065
2046.555857	-2.993900	3.294200	-9.860700	26.542171	0.000478	20.727625
2047.556442	-2.980900	3.294600	-9.820300	26.556849	0.000478	20.710610
2048.560125	-2.993400	3.293400	-9.857800	26.517170	0.000477	20.715770
2049.557810	-2.986700	3.293100	-9.834900	26.540480	0.000478	20.730192
2050.558481	-2.998000	3.292600	-9.870600	26.550815	0.000477	20.731098
2051.561076	-2.992300	3.292400	-9.851100	26.572213	0.000476	20.712303
2052.558025	-2.988200	3.292100	-9.836600	26.555427	0.000473	20.736209
2053.559928	-2.976700	3.291600	-9.797300	26.567220	0.000473	20.721984
2054.562706	-3.021600	3.290300	-9.940600	26.576702	0.000473	20.730568
2055.561448	-2.975000	3.292300	-9.793400	26.585235	0.000473	20.719704
2056.561642	-2.974400	3.292100	-9.790800	26.598571	0.000471	20.726473
2057.563375	-3.021200	3.288800	-9.934800	26.585413	0.000470	20.703287
2058.562037	-3.033100	3.289300	-9.975000	26.579354	0.000472	20.700041
2059.562157	-2.992000	3.289500	-9.840700	26.615502	0.000471	20.728320
2060.568451	-3.017700	3.289200	-9.925100	26.618828	0.000469	20.734509
2061.564961	-3.004700	3.288500	-9.880300	26.613762	0.000469	20.707603
2062.574880	-3.013200	3.287700	-9.905400	26.649885	0.000469	20.724477
2063.566301	-3.000700	3.287900	-9.864500	26.646974	0.000469	20.739570
2064.563795	-2.985300	3.287500	-9.813700	26.647568	0.000467	20.696068
2065.574106	-3.004000	3.287600	-9.874700	26.657319	0.000467	20.714407
2066.564988	-2.990700	3.286600	-9.828400	26.630791	0.000467	20.697695
2067.566197	-3.004300	3.285900	-9.870700	26.616585	0.000466	20.713287
2068.564540	-2.995800	3.287300	-9.846700	26.585088	0.000466	20.728566
2069.565484	-3.003300	3.286000	-9.867600	26.484443	0.000464	20.716539
2070.565914	-2.989000	3.284100	-9.814800	26.455881	0.000465	20.693518
2071.567493	-3.011100	3.284500	-9.889200	26.454563	0.000464	20.688874
2072.566123	-2.999400	3.285500	-9.853200	26.438727	0.000465	20.699036
2073.566911	-3.026700	3.283600	-9.937000	26.425696	0.000464	20.715812
2074.568897	-3.017000	3.282400	-9.901600	26.440149	0.000463	20.704734
2075.575949	-3.005900	3.283600	-9.869300	26.479743	0.000462	20.711815
2076.568633	-2.970400	3.284300	-9.754000	26.502882	0.000459	20.688604
2077.572225	-2.983500	3.283200	-9.794800	26.525906	0.000461	20.713645
2078.569454	-2.995900	3.282800	-9.833100	26.497700	0.000460	20.693353
2079.569307	-3.010900	3.281700	-9.880500	26.464305	0.000460	20.707677
2080.569490	-3.002400	3.281000	-9.849500	26.455465	0.000460	20.722500
2081.575878	-2.992700	3.283300	-9.825200	26.425077	0.000459	20.705707
2082.568366	-2.995500	3.282100	-9.830700	26.459312	0.000458	20.705029
2083.568690	-2.973300	3.281500	-9.755600	26.483273	0.000456	20.715837
2084.570863	-2.996900	3.280300	-9.829800	26.550207	0.000456	20.695397
2085.569464	-3.011300	3.279800	-9.875500	26.560511	0.000455	20.707653
2086.569085	-2.982900	3.279300	-9.781100	26.579801	0.000455	20.691955
2087.572507	-3.004900	3.278900	-9.851300	26.552370	0.000455	20.698046
2088.570138	-2.977800	3.278900	-9.762800	26.517701	0.000454	20.694965
2089.570459	-3.008500	3.279400	-9.864500	26.477231	0.000454	20.706444
2090.575457	-3.016300	3.278800	-9.888100	26.449902	0.000453	20.700311
2091.570797	-3.012500	3.278300	-9.874800	26.400270	0.000453	20.672710
2092.571169	-2.985700	3.278000	-9.786200	26.393805	0.000452	20.686602
2093.573567	-3.001700	3.278300	-9.839100	26.409104	0.000452	20.697238
2094.571441	-2.990200	3.277900	-9.800700	26.439272	0.000450	20.697688
2095.571953	-2.981300	3.278000	-9.772100	26.451537	0.000450	20.708120
2096.575428	-3.015200	3.277400	-9.880800	26.482493	0.000450	20.679963
2097.575557	-2.994700	3.275700	-9.808400	26.480428	0.000451	20.683103
2098.572364	-2.994200	3.277200	-9.811100	26.427293	0.000449	20.683750
2099.574461	-2.980300	3.276200	-9.762600	26.398026	0.000449	20.704122
2100.581573	-3.000800	3.276000	-9.829800	26.358837	0.000448	20.703142
2101.571985	-3.007100	3.275100	-9.847100	26.356227	0.000446	20.682973
2102.576005	-3.003900	3.275600	-9.838300	26.386274	0.000447	20.698474
2103.573294	-3.020800	3.272300	-9.883700	26.459494	0.000446	20.692408
2104.573922	-2.991300	3.273200	-9.790100	26.489440	0.000446	20.692636
2105.581519	-2.987200	3.273500	-9.777400	26.500265	0.000447	20.694509
2106.573892	-2.983700	3.272700	-9.764700	26.552447	0.000442	20.688165
2107.575665	-2.995800	3.272700	-9.803400	26.553512	0.000443	20.686391
2108.578907	-3.012400	3.271000	-9.852900	26.573925	0.000443	20.704540
2109.575425	-2.987500	3.272700	-9.776200	26.585189	0.000441	20.654693
2110.575464	-3.000800	3.272400	-9.818500	26.587474	0.000440	20.688762
2111.577750	-3.020400	3.271200	-9.879300	26.595542	0.000440	20.687863
2112.577754	-3.014300	3.270900	-9.857900	26.587792	0.000440	20.660630
2113.575965	-2.984400	3.270400	-9.759600	26.602463	0.000439	20.686760
2114.578914	-3.020300	3.268900	-9.871100	26.614727	0.000437	20.686760
2115.579743	-3.012400	3.269200	-9.846700	26.605887	0.000438	20.675976
2116.574684	-2.965200	3.270600	-9.695900	26.623762	0.000438	20.668340
2117.582192	-3.010500	3.270000	-9.843700	26.651859	0.000437	20.680940
2118.579135	-3.004500	3.268900	-9.819900	26.666602	0.000436	20.664465
2119.576407	-2.988200	3.268300	-9.764800	26.638376	0.000434	20.677343
2120.576817	-3.000900	3.268000	-9.806100	26.645769	0.000436	20.670549
2121.576725	-2.992100	3.267600	-9.775900	26.638677	0.000432	20.646347
2122.578127	-2.986000	3.267900	-9.757100	26.655129	0.000433	20.677589
2123.578523	-3.007100	3.265400	-9.818600	26.649420	0.000430	20.680859
2124.577787	-3.008400	3.266200	-9.824500	26.664838	0.000432	20.700627
2125.587306	-3.015300	3.265100	-9.844100	26.675238	0.000431	20.677891
2126.578634	-3.006600	3.265300	-9.816200	26.679501	0.000431	20.693557
2127.580345	-2.995100	3.266100	-9.780900	26.646817	0.000429	20.664490
2128.580008	-3.006400	3.265100	-9.815200	26.625009	0.000431	20.682397
2129.581198	-2.973100	3.264500	-9.705400	26.568138	0.000430	20.673591
2130.580411	-2.997400	3.264300	-9.783800	26.593194	0.000428	20.684554
2131.580523	-2.997000	3.263800	-9.779300	26.610087	0.000427	20.676879
2132.581683	-2.980300	3.264200	-9.726800	26.619925	0.000425	20.678709
2133.583796	-2.977100	3.263600	-9.714800	26.604954	0.000427	20.664606
2134.583481	-3.005000	3.263000	-9.803400	26.620421	0.000425	20.673043
2135.584386	-3.007400	3.261600	-9.807500	26.635938	0.000424	20.657819
2136.583443	-3.000400	3.262700	-9.789000	26.667091	0.000425	20.662112
2137.584794	-3.018300	3.260800	-9.840900	26.663423	0.000424	20.668856
2138.583892	-2.991600	3.261100	-9.755200	26.663269	0.000423	20.690989
2139.583934	-3.019400	3.259400	-9.840000	26.659042	0.000422	20.667297
2140.584421	-3.012400	3.259700	-9.818000	26.691519	0.000422	20.664859
2141.584978	-3.016600	3.261100	-9.836500	26.723785	0.000420	20.660313
2142.584084	-2.970300	3.260400	-9.682800	26.758507	0.000420	20.659186
2143.584462	-2.984300	3.261100	-9.730500	26.790778	0.000419	20.661761
2144.585477	-3.003600	3.258300	-9.786200	26.796982	0.000419	20.667525
2145.583537	-2.987200	3.259400	-9.734900	26.761116	0.000419	20.661810
2146.584108	-3.002100	3.258100	-9.780800	26.728624	0.000418	20.680827
2147.584358	-3.005300	3.256600	-9.784900	26.669124	0.000418	20.681702
2148.584953	-3.019800	3.256000	-9.831600	26.631270	0.000416	20.658817
2149.586088	-2.987400	3.258200	-9.732400	26.626644	0.000416	20.675506
2150.587070	-2.957900	3.257000	-9.631900	26.623269	0.000418	20.691555
2151.587358	-2.979500	3.255800	-9.699900	26.660432	0.000415	20.666324
2152.586822	-2.978900	3.255100	-9.695600	26.692333	0.000411	20.668997
2153.586335	-3.007000	3.255900	-9.789600	26.736107	0.000413	20.647569
2154.588180	-2.977700	3.256500	-9.695300	26.751076	0.000413	20.671157
2155.588819	-2.992900	3.254900	-9.740200	26.766988	0.000411	20.680518
2156.587455	-2.972300	3.254400	-9.671500	26.726374	0.000408	20.677142
2157.588823	-2.986800	3.254000	-9.717800	26.683228	0.000410	20.691140
2158.589306	-2.994600	3.254200	-9.743900	26.626092	0.000408	20.676847
2159.588409	-2.994300	3.253900	-9.742500	26.634673	0.000407	20.677413
2160.591151	-3.007600	3.252400	-9.780400	26.631567	0.000407	20.675713
2161.590693	-2.965300	3.253100	-9.646000	26.666917	0.000407	20.664782
2162.592042	-2.997200	3.251900	-9.746100	26.695826	0.000408	20.680097
2163.589473	-3.009300	3.251000	-9.781000	26.705193	0.000407	20.665804
2164.591161	-3.032100	3.250300	-9.853400	26.676196	0.000405	20.666524
2165.589296	-2.998100	3.250700	-9.745300	26.677384	0.000404	20.677202
2166.589572	-2.996900	3.249900	-9.738200	26.654315	0.000405	20.661596
2167.589823	-2.998000	3.250100	-9.742500	26.659926	0.000405	20.678144
2168.590898	-3.003300	3.249600	-9.758300	26.697730	0.000402	20.668259
2169.592718	-3.016700	3.248500	-9.798000	26.716872	0.000402	20.659052
2170.592808	-2.991700	3.248300	-9.717200	26.719719	0.000403	20.698429
2171.593867	-3.002100	3.247300	-9.746400	26.734143	0.000403	20.686851
2172.593046	-2.995700	3.248700	-9.731200	26.721312	0.000402	20.676321
2173.594171	-2.991300	3.248100	-9.714400	26.699683	0.000401	20.668326
2174.592452	-2.941200	3.249200	-9.554600	26.651827	0.000401	20.665734
2175.591835	-3.005100	3.245900	-9.753200	26.663612	0.000398	20.671891
2176.591893	-2.994500	3.247100	-9.722600	26.714573	0.000400	20.677132
2177.592922	-2.992400	3.246300	-9.713400	26.748603	0.000400	20.686216
2178.593714	-2.986300	3.245100	-9.689600	26.768288	0.000397	20.668547
2179.592789	-2.990900	3.246000	-9.707400	26.761459	0.000396	20.688235
2180.592253	-2.978400	3.245600	-9.666200	26.778779	0.000397	20.672457
2181.594388	-3.004500	3.244600	-9.747000	26.776812	0.000395	20.691344
2182.593969	-3.023900	3.243300	-9.806500	26.770307	0.000395	20.675320
2183.593974	-2.997800	3.244900	-9.727400	26.814207	0.000394	20.693381
2184.594622	-2.993800	3.243400	-9.707900	26.868396	0.000394	20.705668
2185.594086	-3.027800	3.242500	-9.816000	26.881006	0.000395	20.681361
2186.597174	-3.008200	3.242400	-9.752200	26.890381	0.000391	20.662811
2187.593741	-2.985100	3.243100	-9.680500	26.894227	0.000391	20.683750
2188.601220	-2.999000	3.241200	-9.719600	26.894031	0.000391	20.690666
2189.595606	-3.016100	3.239400	-9.769200	26.853030	0.000390	20.682629
2190.594769	-2.995700	3.241500	-9.709700	26.836745	0.000389	20.669573
2191.595417	-3.007000	3.240600	-9.742800	26.801174	0.000390	20.682647
2192.594910	-2.994800	3.240100	-9.701900	26.797677	0.000390	20.663956
2193.595026	-2.986700	3.239900	-9.674700	26.796549	0.000387	20.692697
2194.596290	-3.008900	3.239300	-9.745300	26.803850	0.000387	20.686286
2195.595335	-3.008500	3.237200	-9.737400	26.796060	0.000386	20.688411
2196.596965	-3.010800	3.237600	-9.746600	26.812492	0.000386	20.669844
2197.596969	-3.002500	3.237700	-9.720200	26.848227	0.000386	20.690129
2198.595785	-3.003900	3.236500	-9.720900	26.859447	0.000384	20.694298
2199.598386	-3.016300	3.236500	-9.761900	26.849397	0.000385	20.680399
2200.596936	-3.031700	3.234700	-9.805200	26.867188	0.000381	20.688330
2201.596497	-2.994000	3.237800	-9.692900	26.916082	0.000382	20.669215
2202.601612	-2.996900	3.235800	-9.696300	26.910123	0.000381	20.692623
2203.597176	-3.015900	3.235000	-9.755300	26.905261	0.000381	20.705753
2204.598430	-2.997500	3.235600	-9.697800	26.916749	0.000379	20.685534
2205.598869	-2.990600	3.235800	-9.676000	26.930815	0.000381	20.687825
2206.598260	-3.021400	3.235000	-9.774000	26.994819	0.000379	20.707144
2207.596436	-3.007100	3.233900	-9.723900	27.007200	0.000379	20.671228
2208.597612	-2.999600	3.234100	-9.700300	27.034847	0.000379	20.682911
2209.599857	-2.999100	3.232200	-9.693100	27.035661	0.000378	20.696058
2210.597913	-3.023700	3.231900	-9.771300	27.018614	0.000377	20.688871
2211.598024	-2.999000	3.231800	-9.690100	27.034938	0.000376	20.713350
2212.598038	-3.013000	3.230600	-9.731900	27.049505	0.000378	20.685324
2213.600969	-2.990900	3.231800	-9.665400	27.037435	0.000376	20.705430
2214.600494	-2.994200	3.230900	-9.672400	27.008576	0.000375	20.692054
2215.602773	-3.005500	3.230200	-9.707300	26.985619	0.000375	20.703108
2216.601206	-2.957400	3.231600	-9.556000	26.967101	0.000376	20.709143
2217.602145	-2.998800	3.231700	-9.689900	26.946746	0.000373	20.697681
2218.600465	-2.978300	3.231700	-9.623500	26.963899	0.000374	20.694067
2219.600397	-2.992600	3.229500	-9.663200	26.959470	0.000372	20.703365
2220.600257	-2.993000	3.227800	-9.659500	27.001955	0.000370	20.710052
2221.602022	-2.997600	3.227800	-9.674600	27.028481	0.000371	20.695475
2222.601595	-3.007800	3.226600	-9.703800	27.048552	0.000368	20.711394
2223.602270	-3.005500	3.226100	-9.695400	27.081188	0.000368	20.697274
2224.602274	-3.024900	3.224700	-9.753000	27.088222	0.000369	20.714306
2225.602847	-2.981700	3.226200	-9.618100	27.067446	0.000367	20.700997
2226.602550	-3.003300	3.224100	-9.681800	27.039035	0.000368	20.714626
2227.602324	-3.013500	3.225500	-9.719600	26.993423	0.000364	20.694359
2228.602378	-2.990100	3.223900	-9.639500	26.997788	0.000364	20.690688
2229.602615	-3.018900	3.223100	-9.728000	27.031128	0.000364	20.731806
2230.602655	-3.023800	3.222400	-9.743200	27.051654	0.000364	20.706453
2231.602690	-3.000100	3.223300	-9.669200	27.090552	0.000363	20.709537
2232.602848	-2.984100	3.223600	-9.619100	27.096087	0.000364	20.713681
2233.603196	-3.004600	3.221800	-9.678800	27.125163	0.000362	20.709733
2234.604043	-2.999300	3.220700	-9.659400	27.086969	0.000361	20.713994
2235.605470	-2.974600	3.222400	-9.583900	27.084961	0.000361	20.683049
2236.603540	-2.978900	3.222100	-9.597100	27.062103	0.000361	20.716488
2237.602683	-2.999000	3.220200	-9.657200	27.083637	0.000359	20.707798
2238.605528	-2.999800	3.219800	-9.657500	27.084905	0.000359	20.720454
2239.603943	-3.004900	3.219100	-9.671400	27.076094	0.000359	20.706376
2240.603134	-3.003500	3.219800	-9.670300	27.086435	0.000357	20.721992
2241.603302	-3.007700	3.219200	-9.681200	27.091418	0.000357	20.708512
2242.604391	-2.986300	3.219700	-9.614700	27.113332	0.000355	20.734820
2243.605409	-2.971700	3.218800	-9.563600	27.147545	0.000356	20.703794
2244.606652	-2.982300	3.217900	-9.595000	27.124916	0.000356	20.720391
2245.605125	-2.978500	3.216600	-9.578500	27.156527	0.000353	20.709983
2246.605402	-2.996300	3.216500	-9.637100	27.165711	0.000353	20.715902
2247.606776	-2.991500	3.217700	-9.624300	27.206522	0.000354	20.713801
2248.606910	-3.014300	3.215600	-9.692000	27.221900	0.000351	20.730219
2249.606438	-3.004700	3.215500	-9.660500	27.219120	0.000350	20.713197
2250.607472	-2.995200	3.215700	-9.630500	27.216732	0.000350	20.718856
2251.609179	-3.004000	3.213600	-9.652400	27.194876	0.000351	20.725323
2252.608468	-3.012600	3.213500	-9.679500	27.174507	0.000350	20.736604
2253.608642	-2.998600	3.214400	-9.637700	27.178083	0.000349	20.735934
2254.608096	-3.014600	3.213100	-9.685500	27.174452	0.000349	20.719952
2255.609186	-2.998000	3.213000	-9.631100	27.117701	0.000348	20.732102
2256.609718	-2.982700	3.211800	-9.578200	27.071523	0.000347	20.735920
2257.608492	-3.004000	3.212800	-9.649900	27.048152	0.000346	20.728062
2258.609532	-2.968800	3.211400	-9.532200	27.029984	0.000347	20.731129
2259.612027	-2.987600	3.210600	-9.590900	26.980225	0.000348	20.720444
2260.609951	-2.981100	3.211400	-9.572800	26.937740	0.000345	20.714230
2261.609558	-2.996200	3.210200	-9.617500	26.968039	0.000344	20.730950
2262.610365	-3.003800	3.209100	-9.638300	26.993225	0.000344	20.714076
2263.612095	-3.003900	3.208100	-9.635000	27.047513	0.000345	20.716514
2264.611062	-2.988200	3.209300	-9.588900	27.075759	0.000343	20.716471
2265.613669	-2.990100	3.207400	-9.589800	27.133448	0.000341	20.724705
2266.612002	-2.988700	3.207600	-9.584600	27.153217	0.000340	20.723251
2267.615461	-3.006900	3.207900	-9.643700	27.175154	0.000340	20.744367
2268.615303	-3.023300	3.207300	-9.695900	27.180787	0.000340	20.721582
2269.614126	-3.015200	3.204000	-9.659800	27.136270	0.000340	20.728491
2270.617201	-3.027100	3.203200	-9.694600	27.093686	0.000339	20.716482
2271.615901	-3.015700	3.204700	-9.663100	27.072972	0.000338	20.727420
2272.615399	-3.005400	3.203800	-9.627700	27.123712	0.000338	20.738147
2273.616588	-2.980400	3.204100	-9.548600	27.153008	0.000337	20.732524
2274.615766	-2.998800	3.203200	-9.605200	27.175765	0.000337	20.728386
2275.615303	-3.003800	3.202700	-9.618200	27.182309	0.000335	20.729278
2276.615553	-3.001400	3.201700	-9.609100	27.192600	0.000338	20.732043
2277.617037	-2.996600	3.203600	-9.599300	27.191518	0.000336	20.759404
2278.622665	-3.010600	3.200300	-9.633000	27.189032	0.000334	20.721340
2279.618598	-2.982600	3.202700	-9.551000	27.166030	0.000334	20.741828
2280.617623	-3.003600	3.199600	-9.608800	27.176499	0.000334	20.746194
2281.617951	-2.998000	3.200000	-9.591800	27.214757	0.000334	20.743897
2282.617472	-3.008500	3.199400	-9.623500	27.225850	0.000333	20.735141
2283.617701	-3.000200	3.199400	-9.597600	27.241798	0.000333	20.729370
2284.617225	-2.976000	3.199200	-9.519600	27.258621	0.000331	20.748189
2285.618600	-2.979600	3.199500	-9.532400	27.235565	0.000331	20.753448
2286.618334	-3.027000	3.197600	-9.678300	27.237248	0.000333	20.763676
2287.617862	-2.996700	3.198100	-9.582900	27.230226	0.000331	20.751871
2288.619908	-2.988000	3.198100	-9.554400	27.252595	0.000330	20.738808
2289.619031	-3.014200	3.196900	-9.634800	27.287275	0.000329	20.768003
2290.619613	-3.000200	3.195100	-9.585000	27.316751	0.000327	20.745022
2291.623025	-3.009800	3.196000	-9.618000	27.336736	0.000326	20.755644
2292.619686	-3.014100	3.195100	-9.629000	27.362629	0.000328	20.765096
2293.619322	-3.003900	3.194100	-9.593500	27.342134	0.000327	20.743055
2294.618745	-3.002500	3.195100	-9.591600	27.349718	0.000328	20.742149
2295.620650	-3.028500	3.192800	-9.666800	27.330215	0.000326	20.747186
2296.620950	-3.007200	3.193100	-9.600900	27.340529	0.000326	20.742389
2297.620682	-3.002800	3.195000	-9.592500	27.288924	0.000326	20.754489
2298.632452	-3.003500	3.192800	-9.589000	27.283365	0.000324	20.761226
2299.623083	-3.009700	3.190200	-9.599900	27.239202	0.000322	20.755683
2300.622263	-3.035800	3.189000	-9.680300	27.222720	0.000323	20.768504
2301.624049	-3.011100	3.191000	-9.606400	27.223087	0.000322	20.764605
2302.624007	-2.990600	3.191800	-9.544900	27.247746	0.000321	20.768072
2303.626811	-2.995700	3.190000	-9.555400	27.253899	0.000319	20.762406
2304.624353	-2.977400	3.190500	-9.498600	27.215985	0.000319	20.780221
2305.625819	-3.001900	3.187900	-9.568400	27.225535	0.000320	20.763748
2306.628506	-3.010600	3.188300	-9.598100	27.164276	0.000318	20.749074
2307.630630	-3.004500	3.187600	-9.576400	27.117070	0.000320	20.743321
2308.626868	-2.987100	3.188500	-9.523600	27.112735	0.000317	20.774050
2309.626850	-3.022200	3.187500	-9.632200	27.147689	0.000315	20.767005
2310.627701	-2.988800	3.186100	-9.521400	27.177487	0.000317	20.764258
2311.624805	-3.003000	3.186200	-9.567100	27.207877	0.000316	20.749780
2312.628245	-2.989900	3.186800	-9.526400	27.202692	0.000315	20.767799
2313.625965	-3.001100	3.185900	-9.560300	27.261145	0.000314	20.776334
2314.627315	-2.995100	3.183800	-9.534500	27.280203	0.000315	20.777011
2315.627882	-2.993600	3.186000	-9.536200	27.288723	0.000313	20.763770
2316.627073	-3.013000	3.184400	-9.593800	27.327350	0.000314	20.791721
2317.628396	-3.012200	3.182300	-9.583900	27.324749	0.000312	20.785785
2318.626760	-2.993100	3.183100	-9.526600	27.317672	0.000313	20.778192
2319.628719	-3.004900	3.182900	-9.563600	27.325905	0.000313	20.786948
2320.628309	-2.996900	3.181400	-9.533700	27.302613	0.000312	20.768259
2321.628270	-2.985900	3.182800	-9.502300	27.320818	0.000310	20.768080
2322.628900	-2.995300	3.181400	-9.527400	27.351903	0.000310	20.774220
2323.628242	-2.994600	3.180500	-9.523500	27.396997	0.000309	20.772643
2324.628283	-2.988000	3.180100	-9.500400	27.361892	0.000308	20.768147
2325.632503	-2.981700	3.179600	-9.479800	27.307558	0.000308	20.766595
2326.630508	-3.008600	3.176700	-9.556700	27.285256	0.000307	20.778776
2327.629120	-2.984100	3.180500	-9.488700	27.296447	0.000308	20.795248
2328.635665	-3.026500	3.177100	-9.614900	27.287184	0.000308	20.792569
2329.630246	-2.981900	3.177000	-9.472100	27.312662	0.000305	20.781688
2330.630265	-2.990800	3.176800	-9.500400	27.326552	0.000305	20.803720
2331.633707	-3.004300	3.177300	-9.544500	27.340717	0.000306	20.794736
2332.631237	-3.006400	3.175800	-9.547000	27.413980	0.000302	20.793047
2333.630385	-3.014400	3.176000	-9.573800	27.432148	0.000304	20.798997
2334.633213	-2.994400	3.174700	-9.505600	27.476793	0.000304	20.796496
2335.631923	-2.995400	3.173900	-9.506100	27.469601	0.000303	20.778829
2336.634370	-3.002600	3.172800	-9.525500	27.435336	0.000304	20.780867
2337.635060	-3.010100	3.172600	-9.549100	27.455504	0.000301	20.797838
2338.633783	-2.994100	3.171200	-9.493300	27.455724	0.000301	20.784783
2339.637022	-3.011400	3.171200	-9.548700	27.513784	0.000304	20.787720
2340.636304	-2.996200	3.170600	-9.498800	27.530823	0.000300	20.807708
2341.635506	-2.998300	3.171300	-9.508000	27.527322	0.000300	20.794702
2342.635754	-2.998300	3.169900	-9.503700	27.532450	0.000301	20.800336
2343.639808	-3.000900	3.168700	-9.508300	27.538081	0.000301	20.804105
2344.635383	-3.010700	3.168400	-9.538500	27.530136	0.000300	20.814603
2345.636772	-3.005100	3.167800	-9.518800	27.534922	0.000298	20.792392
2346.641865	-2.976000	3.169200	-9.430400	27.549580	0.000299	20.815674
2347.639021	-2.997100	3.165900	-9.487700	27.554910	0.000298	20.805865
2348.637794	-3.002500	3.164600	-9.500800	27.543796	0.000297	20.803691
2349.638687	-2.998300	3.164300	-9.486300	27.533281	0.000295	20.781258
2350.638625	-2.997300	3.166800	-9.490100	27.496442	0.000299	20.803937
2351.639740	-3.003000	3.166300	-9.507300	27.444324	0.000295	20.809824
2352.640358	-2.992700	3.164300	-9.468400	27.423709	0.000295	20.821326
2353.638738	-3.008700	3.163000	-9.514800	27.391977	0.000295	20.797464
2354.639147	-3.018500	3.162000	-9.543400	27.372010	0.000294	20.801560
2355.643366	-2.996200	3.161300	-9.469700	27.378431	0.000294	20.802803
2356.641366	-3.008200	3.161900	-9.510500	27.370865	0.000295	20.806572
2357.642881	-3.003400	3.160400	-9.490400	27.373417	0.000291	20.786380
2358.643662	-2.994100	3.162800	-9.468800	27.396170	0.000293	20.822071
2359.640813	-2.983200	3.159600	-9.424300	27.429027	0.000293	20.803443
2360.639935	-2.988900	3.161000	-9.445500	27.442506	0.000290	20.824589
2361.646064	-2.994800	3.159300	-9.460600	27.497169	0.000292	20.822686
2362.642319	-2.997100	3.158900	-9.466500	27.555459	0.000290	20.817323
2363.641479	-3.005300	3.156500	-9.484800	27.547595	0.000290	20.830746
2364.647256	-3.000800	3.157300	-9.473800	27.564180	0.000290	20.813295
2365.641841	-2.965000	3.157800	-9.360700	27.577277	0.000290	20.806558
2366.642035	-3.013700	3.155000	-9.507600	27.533352	0.000288	20.820210
2367.645466	-2.990500	3.155000	-9.434200	27.509520	0.000286	20.821362
2368.642004	-2.990200	3.155100	-9.433000	27.459777	0.000286	20.827266
2369.642234	-3.026500	3.152600	-9.540400	27.419869	0.000288	20.810351
2370.644711	-3.000700	3.152000	-9.457100	27.434407	0.000286	20.842045
2371.644541	-3.019700	3.151500	-9.515900	27.434498	0.000286	20.807050
2372.642744	-2.995100	3.151300	-9.437100	27.429614	0.000287	20.848128
2373.646380	-3.004500	3.150500	-9.464200	27.440331	0.000286	20.829988
2374.644733	-2.997300	3.150100	-9.440900	27.467593	0.000286	20.832285
2375.644050	-2.998300	3.148600	-9.439700	27.495515	0.000284	20.846625
2376.648604	-3.001000	3.148800	-9.448300	27.484878	0.000284	20.822174
2377.644698	-3.010200	3.149200	-9.478900	27.515976	0.000283	20.835443
2378.645621	-2.993000	3.148100	-9.420200	27.524092	0.000285	20.843608
2379.649566	-3.013200	3.146100	-9.478100	27.508882	0.000284	20.838263
2380.644442	-2.996300	3.146200	-9.425500	27.463841	0.000283	20.830406
2381.645013	-3.026800	3.145100	-9.518500	27.472146	0.000282	20.832124
2382.645317	-2.991100	3.145200	-9.407100	27.530861	0.000280	20.844255
2383.643962	-3.007800	3.144100	-9.454500	27.554295	0.000279	20.826582
2384.644929	-2.992700	3.143600	-9.405900	27.602344	0.000279	20.839366
2385.648107	-2.986700	3.144300	-9.390300	27.647030	0.000280	20.842130
2386.645746	-2.980400	3.143300	-9.367200	27.659728	0.000280	20.831200
2387.644832	-2.999700	3.142200	-9.423300	27.609234	0.000278	20.848195
2388.649169	-2.989300	3.141000	-9.388500	27.581383	0.000280	20.840086
2389.645470	-3.019100	3.140200	-9.479400	27.492038	0.000277	20.848817
2390.645707	-3.012800	3.138200	-9.454100	27.435507	0.000280	20.864962
2391.649563	-3.016500	3.138000	-9.463500	27.415143	0.000276	20.837838
2392.645626	-3.003300	3.138400	-9.424300	27.443893	0.000276	20.856330
2393.646496	-2.997600	3.137400	-9.404000	27.413876	0.000276	20.841779
2394.650082	-3.018500	3.136400	-9.466500	27.436296	0.000276	20.814075
2395.644877	-3.013500	3.135200	-9.446400	27.499248	0.000276	20.849432
2396.647779	-3.004900	3.135000	-9.418700	27.498654	0.000276	20.840301
2397.648503	-3.029100	3.135000	-9.494500	27.545708	0.000273	20.838805
2398.645666	-2.997900	3.134000	-9.394500	27.569717	0.000275	20.848263
2399.645689	-2.983600	3.134700	-9.351500	27.594742	0.000272	20.841200
2400.654647	-3.017300	3.131400	-9.447500	27.601633	0.000276	20.830590
2401.648658	-3.019300	3.131500	-9.454000	27.615665	0.000274	20.843286
2402.647781	-3.012500	3.130500	-9.429800	27.691188	0.000272	20.834408
2403.653248	-3.023700	3.129800	-9.462400	27.701621	0.000272	20.851544
2404.648405	-2.988400	3.131100	-9.356000	27.705984	0.000272	20.823692
2405.650890	-3.006200	3.128500	-9.403700	27.677063	0.000272	20.835841
2406.650454	-3.035400	3.126500	-9.488900	27.680912	0.000272	20.823594
2407.653329	-3.010000	3.126100	-9.408800	27.661855	0.000272	20.818642
2408.650218	-3.003900	3.127800	-9.394800	27.666941	0.000271	20.826130
2409.652346	-3.004000	3.125700	-9.388700	27.712273	0.000273	20.820065
2410.652068	-3.009400	3.124600	-9.402200	27.712071	0.000272	20.828870
2411.648366	-3.027800	3.122800	-9.454000	27.735452	0.000270	20.801665
2412.653054	-2.984200	3.122800	-9.317400	27.757346	0.000273	20.813740
2413.651415	-3.014800	3.121800	-9.410900	27.752090	0.000270	20.813666
2414.650323	-3.001900	3.121700	-9.370200	27.781473	0.000271	20.824270
2415.654763	-2.999400	3.121100	-9.360100	27.804951	0.000269	20.829405
2416.656192	-2.972900	3.120900	-9.277400	27.801922	0.000268	20.807391
2417.650999	-3.003500	3.118800	-9.366300	27.818809	0.000270	20.817274
2418.652321	-3.000200	3.118900	-9.355600	27.813554	0.000271	20.811984
2419.657402	-3.025300	3.117100	-9.428300	27.809833	0.000268	20.822465
2420.651665	-3.017900	3.117600	-9.406700	27.803286	0.000268	20.816350
2421.655350	-3.001000	3.116300	-9.350800	27.746350	0.000270	20.800777
2422.654839	-3.000700	3.115700	-9.347800	27.713465	0.000267	20.820790
2423.651822	-3.006700	3.114600	-9.363600	27.679913	0.000269	20.820691
2424.655513	-2.977200	3.114300	-9.270800	27.660862	0.000268	20.826178
2425.654532	-3.006200	3.112200	-9.354600	27.660887	0.000266	20.833314
2426.653585	-3.010700	3.112200	-9.368800	27.678070	0.000267	20.800346
2427.657492	-3.007200	3.113000	-9.359900	27.706268	0.000268	20.819238
2428.653762	-2.988100	3.110700	-9.294800	27.744158	0.000266	20.803313
2429.653026	-3.010500	3.110500	-9.364300	27.757620	0.000265	20.792204
2430.660982	-3.031200	3.108500	-9.421600	27.770017	0.000266	20.789033
2431.655010	-2.987100	3.108600	-9.284500	27.787254	0.000264	20.811121
2432.654664	-2.999800	3.107800	-9.322300	27.787878	0.000266	20.812698
2433.654829	-3.018100	3.106200	-9.373200	27.814611	0.000263	20.797876
2434.655019	-3.001600	3.105400	-9.319500	27.801706	0.000264	20.821398
2435.655813	-2.994300	3.105300	-9.297900	27.754744	0.000266	20.787414
2436.656201	-3.026500	3.103500	-9.392200	27.765630	0.000264	20.813541
2437.655066	-3.016300	3.102100	-9.355500	27.776515	0.000261	20.801737
2438.654322	-3.028400	3.100400	-9.388300	27.802104	0.000265	20.804729
2439.658642	-3.002300	3.100200	-9.306600	27.823525	0.000263	20.789778
2440.656706	-3.002600	3.100800	-9.309800	27.760140	0.000264	20.780990
2441.656409	-2.954800	3.101900	-9.163100	27.742787	0.000262	20.787235
2442.658690	-3.016100	3.097500	-9.341100	27.663450	0.000263	20.780892
2443.657687	-2.999800	3.097700	-9.291800	27.655488	0.000261	20.795640
2444.660742	-3.018700	3.095600	-9.343700	27.602166	0.000260	20.788928
2445.660892	-2.992900	3.096500	-9.266500	27.580905	0.000262	20.786975
2446.658886	-3.016000	3.095300	-9.333800	27.567466	0.000261	20.804747
2447.656353	-2.980000	3.095100	-9.221000	27.594173	0.000261	20.777566
2448.660497	-2.970400	3.094500	-9.190000	27.642287	0.000261	20.784728
2449.659049	-2.994100	3.093700	-9.261200	27.669942	0.000262	20.790744
2450.657353	-2.980800	3.093200	-9.218500	27.725867	0.000260	20.801976
2451.662497	-3.000400	3.092100	-9.276400	27.761076	0.000258	20.795208
2452.658695	-2.993300	3.091900	-9.253200	27.778209	0.000260	20.788268
2453.660272	-2.989800	3.089200	-9.235500	27.788501	0.000260	20.785349
2454.663064	-3.003100	3.087900	-9.273000	27.747675	0.000259	20.794524
2455.661237	-2.997000	3.086600	-9.249400	27.693269	0.000259	20.780078
2456.660669	-3.002700	3.085900	-9.265500	27.654330	0.000259	20.784043
2457.661665	-3.014800	3.085600	-9.301500	27.611100	0.000258	20.782270
2458.659885	-3.011800	3.084000	-9.287000	27.627966	0.000260	20.784542
2459.660277	-3.001700	3.084100	-9.255300	27.657744	0.000260	20.786531
2460.661541	-2.991900	3.082300	-9.221400	27.690159	0.000258	20.797812
2461.663672	-2.991800	3.081600	-9.217400	27.649716	0.000258	20.771814
2462.659821	-2.997400	3.081500	-9.235400	27.640903	0.000257	20.797559
2463.662653	-3.017800	3.078400	-9.289300	27.638027	0.000256	20.788501
2464.661288	-2.983700	3.078300	-9.184000	27.643455	0.000256	20.779738
2465.661041	-2.985500	3.077900	-9.188200	27.692313	0.000258	20.780539
2466.661064	-3.042900	3.076100	-9.358200	27.705458	0.000257	20.781438
2467.662825	-3.011600	3.076200	-9.262900	27.727872	0.000257	20.772225
2468.668281	-2.997300	3.073900	-9.211400	27.781707	0.000258	20.782780
2469.667950	-3.007900	3.074500	-9.246100	27.809798	0.000257	20.781653
2470.661094	-3.017300	3.071300	-9.266200	27.826888	0.000258	20.770877
2471.662318	-2.983000	3.071800	-9.162500	27.839853	0.000256	20.773019
2472.665874	-2.998900	3.071800	-9.210100	27.873425	0.000257	20.757495
2473.663817	-3.010300	3.070000	-9.240800	27.894178	0.000258	20.773167
2474.665072	-2.980200	3.067600	-9.140500	27.894147	0.000258	20.764601
2475.667421	-2.978000	3.067100	-9.133000	27.856312	0.000256	20.789110
2476.665106	-2.988400	3.067500	-9.166200	27.857272	0.000256	20.786283
2477.664191	-3.005900	3.065200	-9.213200	27.872745	0.000256	20.771036
2478.667968	-3.004600	3.065400	-9.208700	27.894863	0.000256	20.777649
2479.668516	-3.023500	3.064600	-9.263500	27.870690	0.000254	20.784140
2480.666056	-3.015100	3.061800	-9.231200	27.824146	0.000257	20.767643
2481.666341	-3.006700	3.062200	-9.205800	27.760810	0.000255	20.756533
2482.664754	-3.017800	3.061600	-9.237700	27.778285	0.000256	20.775069
2483.664517	-2.992400	3.060500	-9.156800	27.727675	0.000254	20.778191
2484.670824	-3.018200	3.058400	-9.229300	27.697421	0.000255	20.752487
2485.665410	-3.013300	3.056800	-9.210200	27.698981	0.000254	20.778714
2486.664513	-3.015300	3.055900	-9.214100	27.724548	0.000255	20.770776
2487.670072	-3.012700	3.054200	-9.200300	27.755174	0.000254	20.761767
2488.664666	-3.009900	3.055500	-9.195900	27.800821	0.000256	20.767876
2489.666170	-2.986900	3.053900	-9.121300	27.793031	0.000254	20.748182
2490.670014	-2.983900	3.052400	-9.107200	27.766126	0.000252	20.774212
2491.665949	-2.964100	3.053300	-9.049000	27.726028	0.000252	20.756619
2492.666037	-3.004300	3.049800	-9.162200	27.685904	0.000253	20.765080
2493.670719	-2.983200	3.050100	-9.098100	27.666658	0.000252	20.779379
2494.669340	-2.992000	3.048100	-9.118600	27.629279	0.000251	20.755990
2495.668627	-3.008600	3.047000	-9.166100	27.645496	0.000252	20.771360
2496.676077	-2.972100	3.046800	-9.053100	27.681981	0.000254	20.766822
2497.672722	-2.997300	3.045000	-9.125800	27.707352	0.000255	20.751101
2498.668470	-3.036900	3.041000	-9.233400	27.731651	0.000250	20.765122
2499.678128	-3.001700	3.042300	-9.130600	27.756543	0.000253	20.762197
2500.676658	-2.975800	3.042500	-9.052300	27.772887	0.000252	20.764894
2501.671631	-2.996200	3.040300	-9.108900	27.805794	0.000253	20.760079
2502.672091	-2.976000	3.038800	-9.041800	27.829425	0.000250	20.763472
2503.676804	-3.022400	3.037500	-9.178400	27.849879	0.000254	20.772204
2504.671137	-3.014800	3.035900	-9.151100	27.844372	0.000252	20.740582
2505.675377	-2.985300	3.035700	-9.061700	27.831334	0.000250	20.754013
2506.673873	-2.990400	3.034000	-9.071300	27.793367	0.000253	20.761797
2507.669401	-2.983400	3.032800	-9.047100	27.808046	0.000250	20.752387
2508.675240	-3.006400	3.031300	-9.112400	27.803977	0.000252	20.759198
2509.673643	-3.006800	3.029400	-9.108400	27.779337	0.000252	20.757160
2510.672493	-3.004600	3.028900	-9.099300	27.796365	0.000251	20.762443
2511.676248	-3.008200	3.027600	-9.106400	27.749078	0.000249	20.747097
2512.675265	-3.042900	3.025200	-9.204200	27.742108	0.000251	20.740083
2513.672986	-2.988800	3.027800	-9.047800	27.759290	0.000253	20.746469
2514.675552	-2.977500	3.025300	-9.006600	27.779128	0.000248	20.740828
2515.676455	-3.021100	3.022800	-9.131000	27.846794	0.000253	20.764832
2516.674913	-2.997200	3.022800	-9.059200	27.856995	0.000249	20.764666
2517.673807	-2.993100	3.021900	-9.043200	27.838767	0.000250	20.749641
2518.674646	-2.982300	3.019600	-9.004200	27.819549	0.000252	20.733617
2519.675115	-3.008400	3.018400	-9.079800	27.824480	0.000251	20.749012
2520.678598	-2.980200	3.019000	-8.996000	27.788851	0.000251	20.755829
2521.676730	-2.998300	3.018000	-9.048100	27.766284	0.000249	20.745921
2522.674637	-2.998000	3.014000	-9.034900	27.760973	0.000250	20.749585
2523.673979	-2.999300	3.014400	-9.040300	27.782726	0.000249	20.743975
2524.674791	-2.998700	3.013200	-9.034800	27.829596	0.000250	20.746574
2525.674976	-2.978400	3.013400	-8.972700	27.871324	0.000251	20.758225
2526.682175	-3.005100	3.010600	-9.046200	27.911117	0.000249	20.742799
2527.676202	-3.001800	3.010000	-9.034500	27.922252	0.000250	20.743101
2528.676479	-3.019800	3.007400	-9.081000	27.949470	0.000251	20.751057
2529.684016	-2.985600	3.007100	-8.977000	27.949826	0.000248	20.747147
2530.681074	-3.031900	3.004100	-9.106200	27.999452	0.000250	20.754425
2531.679129	-3.006400	3.004700	-9.032200	27.988569	0.000248	20.731141
2532.679158	-2.989400	3.003900	-8.979700	27.988545	0.000251	20.732539
2533.679478	-2.978600	3.001700	-8.939700	28.034806	0.000248	20.750182
2534.679342	-2.993100	3.000900	-8.981300	28.096804	0.000247	20.733407
2535.679041	-3.020700	2.999100	-9.058200	28.056051	0.000249	20.730316
2536.681175	-3.005800	2.998700	-9.012200	28.048019	0.000248	20.754000
2537.681126	-2.979300	2.996800	-8.926400	28.065521	0.000249	20.746487
2538.679967	-3.003900	2.995000	-8.994800	28.064927	0.000249	20.739251
2539.682993	-3.008300	2.992700	-9.001500	28.081682	0.000248	20.732409
2540.682020	-2.976900	2.992000	-8.905700	28.045064	0.000250	20.729687
2541.681022	-3.007800	2.991100	-8.995200	27.973562	0.000248	20.735950
2542.681990	-3.019900	2.988000	-9.022500	27.957025	0.000250	20.736375
2543.682094	-3.004300	2.987800	-8.975500	27.959210	0.000248	20.723400
2544.681180	-3.023900	2.985600	-9.026100	28.018135	0.000248	20.737194
2545.680459	-2.980200	2.986300	-8.898400	27.995255	0.000248	20.717008
2546.681593	-2.999800	2.985400	-8.953700	28.009778	0.000246	20.733523
2547.683408	-2.975700	2.984300	-8.878200	28.031324	0.000250	20.735297
2548.682164	-3.028800	2.981500	-9.030000	28.024932	0.000250	20.739768
2549.681724	-2.977000	2.981000	-8.873400	28.012409	0.000248	20.722895
2550.684012	-3.031600	2.978000	-9.027700	28.041063	0.000248	20.718072
2551.681764	-3.002200	2.977500	-8.938400	28.063055	0.000249	20.741634
2552.679648	-3.007700	2.976200	-8.950800	28.073993	0.000247	20.728936
2553.682598	-2.993000	2.974700	-8.900200	28.078054	0.000248	20.732076
2554.683534	-2.995800	2.973300	-8.905900	28.060406	0.000247	20.718578
2555.682206	-3.005400	2.972200	-8.931500	28.082789	0.000247	20.721669
2556.682265	-3.009100	2.970000	-8.936300	28.080440	0.000246	20.716459
2557.684561	-2.996500	2.969700	-8.897500	28.094369	0.000248	20.718627
2558.686196	-3.031800	2.968500	-8.998200	28.105453	0.000248	20.725044
2559.685018	-2.982700	2.967500	-8.849900	28.114916	0.000248	20.721293
2560.687598	-3.011500	2.965600	-8.929600	28.070176	0.000249	20.702806
2561.685607	-3.006200	2.964600	-8.911200	28.079369	0.000249	20.726762
2562.686101	-3.026500	2.961100	-8.959900	28.104835	0.000247	20.729164
2563.687599	-3.029000	2.960100	-8.965300	28.134980	0.000248	20.692651
2564.687372	-2.976200	2.960600	-8.809600	28.169264	0.000247	20.712943
2565.687374	-3.000700	2.958200	-8.875600	28.177791	0.000247	20.707776
2566.687461	-2.994200	2.956800	-8.852500	28.207786	0.000248	20.704309
2567.688109	-2.989500	2.953800	-8.830200	28.245218	0.000245	20.710702
2568.687537	-2.986900	2.953400	-8.820400	28.293223	0.000248	20.717784
2569.687847	-3.005000	2.950700	-8.866000	28.317100	0.000247	20.714797
2570.688154	-2.993100	2.951300	-8.833000	28.296459	0.000249	20.723887
2571.688610	-3.036500	2.947300	-8.947600	28.303565	0.000249	20.706859
2572.689641	-3.001400	2.947000	-8.844300	28.296752	0.000246	20.713276
2573.689893	-3.008800	2.944500	-8.858500	28.292221	0.000246	20.693065
2574.688885	-3.001900	2.943100	-8.834000	28.279488	0.000245	20.692099
2575.688906	-3.013500	2.942200	-8.864000	28.256907	0.000248	20.719626
2576.691199	-3.017900	2.940500	-8.872400	28.244962	0.000248	20.683890
2577.690318	-3.040200	2.938900	-8.933500	28.274632	0.000248	20.700486
2578.690645	-2.999200	2.937800	-8.810000	28.303236	0.000245	20.726444
2579.690358	-3.014800	2.934600	-8.846200	28.343661	0.000247	20.692702
2580.701175	-3.019100	2.933800	-8.856000	28.343417	0.000246	20.691982
2581.691271	-2.980400	2.935500	-8.747400	28.355538	0.000249	20.683324
2582.691452	-3.007500	2.931100	-8.814000	28.369781	0.000247	20.694821
2583.690811	-3.027000	2.928900	-8.865100	28.372515	0.000246	20.711326
2584.691632	-2.986600	2.928500	-8.744300	28.379034	0.000246	20.692284
2585.691340	-3.001900	2.927900	-8.787500	28.371684	0.000246	20.695315
2586.692329	-2.980800	2.925900	-8.719900	28.365685	0.000247	20.681212
2587.693984	-3.011000	2.923200	-8.800100	28.360327	0.000244	20.679610
2588.694259	-3.001600	2.923300	-8.774100	28.342928	0.000247	20.693861
2589.693690	-3.002300	2.920100	-8.765600	28.335571	0.000246	20.682659
2590.693989	-2.978700	2.920200	-8.697200	28.340012	0.000246	20.690450
2591.694923	-3.003000	2.917000	-8.759100	28.329358	0.000246	20.696319
2592.694058	-2.991700	2.916200	-8.723400	28.283379	0.000247	20.679420
2593.693535	-3.001900	2.914600	-8.747800	28.274229	0.000246	20.691546
2594.693747	-2.994000	2.912400	-8.718500	28.272896	0.000244	20.674081
2595.695599	-3.016700	2.910100	-8.777700	28.246224	0.000247	20.665243
2596.700016	-2.990400	2.909300	-8.699300	28.190235	0.000246	20.686638
2597.696438	-3.013600	2.905800	-8.755000	28.176637	0.000245	20.667731
2598.697999	-2.998700	2.905800	-8.712800	28.196773	0.000246	20.685634
2599.698023	-3.007800	2.904200	-8.734700	28.242138	0.000246	20.695272
2600.697052	-3.009400	2.901400	-8.730900	28.269300	0.000245	20.679469
2601.698399	-2.999700	2.900500	-8.699500	28.287195	0.000245	20.693221
2602.696622	-3.020800	2.898700	-8.755700	28.312528	0.000247	20.677474
2603.698578	-3.012000	2.895700	-8.719700	28.297740	0.000245	20.679655
2604.696575	-3.006300	2.894000	-8.698900	28.273636	0.000245	20.670558
2605.695901	-3.003500	2.891900	-8.684500	28.252799	0.000245	20.669019
2606.697754	-2.995100	2.891700	-8.659800	28.285643	0.000244	20.689286
2607.699015	-3.034300	2.888000	-8.760900	28.310382	0.000245	20.670571
2608.699114	-2.998500	2.887600	-8.657400	28.318185	0.000245	20.679852
2609.698451	-3.019800	2.885500	-8.712500	28.338110	0.000245	20.674309
2610.699633	-2.974300	2.885700	-8.580200	28.324063	0.000245	20.673915
2611.699272	-3.004800	2.882800	-8.661500	28.314442	0.000246	20.664702
2612.698962	-3.011300	2.881600	-8.676000	28.265148	0.000246	20.652052
2613.702313	-2.998200	2.878600	-8.629500	28.236176	0.000246	20.672671
2614.704882	-3.004100	2.877400	-8.643000	28.228690	0.000244	20.654227
2615.700943	-3.001800	2.876400	-8.633300	28.255112	0.000246	20.667079
2616.698763	-3.011500	2.872700	-8.649500	28.227668	0.000245	20.666950
2617.701783	-3.011200	2.870300	-8.641800	28.229900	0.000245	20.665404
2618.700434	-3.027900	2.867700	-8.682000	28.230322	0.000245	20.671045
2619.700662	-3.026500	2.867000	-8.675300	28.236176	0.000245	20.651806
2620.700926	-2.992600	2.866400	-8.577100	28.212830	0.000243	20.660071
2621.701108	-2.993100	2.863000	-8.568900	28.161689	0.000245	20.667856
2622.701731	-3.014500	2.860100	-8.621200	28.090268	0.000247	20.671821
2623.702000	-2.987100	2.859100	-8.539200	28.063842	0.000244	20.661340
2624.701704	-2.993100	2.856400	-8.549000	28.071159	0.000244	20.658273
2625.701853	-2.981400	2.855200	-8.511100	28.113152	0.000245	20.663563
2626.701630	-2.984300	2.852900	-8.512800	28.097885	0.000246	20.657676
2627.701266	-3.017000	2.850100	-8.597600	28.073263	0.000246	20.673195
2628.702398	-3.009700	2.848800	-8.573400	28.060503	0.000244	20.668410
2629.706300	-2.987800	2.848200	-8.509000	28.102026	0.000244	20.657103
2630.703368	-3.001200	2.844800	-8.537000	28.179049	0.000246	20.661624
2631.703201	-2.996200	2.842600	-8.516400	28.229478	0.000245	20.658814
2632.704896	-3.032100	2.838800	-8.605800	28.304817	0.000245	20.665916
2633.702455	-3.032700	2.837600	-8.604500	28.348263	0.000247	20.670307
2634.708823	-2.979900	2.837300	-8.453800	28.305557	0.000246	20.649115
2635.708065	-3.007000	2.834000	-8.520900	28.272403	0.000244	20.644183
2636.705850	-3.001600	2.831000	-8.495900	28.256709	0.000246	20.661574
2637.705267	-2.976900	2.831200	-8.426500	28.255125	0.000244	20.642434
2638.710151	-2.990900	2.828300	-8.457400	28.267418	0.000243	20.663822
2639.703665	-2.990600	2.825600	-8.449300	28.293020	0.000244	20.660675
2640.706090	-3.027000	2.822500	-8.542300	28.274611	0.000245	20.659684
2641.707601	-2.998200	2.821700	-8.459300	28.261700	0.000244	20.647632
2642.708563	-3.007500	2.817600	-8.472900	28.234727	0.000248	20.638966
2643.706866	-3.008900	2.817000	-8.475000	28.168847	0.000243	20.663207
2644.711538	-3.020200	2.813300	-8.495400	28.157795	0.000245	20.639749
2645.706629	-2.997100	2.811300	-8.424400	28.148148	0.000245	20.647583
2646.706903	-3.019600	2.809300	-8.481300	28.106596	0.000246	20.670714
2647.711333	-3.020700	2.805500	-8.473100	28.137242	0.000246	20.647509
2648.709645	-3.019800	2.804800	-8.468900	28.189142	0.000245	20.653766
2649.706965	-2.998500	2.802000	-8.401300	28.228385	0.000245	20.639693
2650.710211	-3.005400	2.799000	-8.410100	28.228636	0.000246	20.656069
2651.706649	-3.015100	2.797400	-8.432100	28.235132	0.000246	20.661661
2652.707028	-3.009900	2.793200	-8.406000	28.275786	0.000246	20.650909
2653.706161	-3.015800	2.791300	-8.417200	28.297773	0.000244	20.665462
2654.709489	-2.997200	2.788800	-8.357400	28.267829	0.000245	20.647164
2655.708001	-2.988500	2.787900	-8.330500	28.261584	0.000244	20.661268
2656.712731	-2.998400	2.782700	-8.342800	28.245450	0.000244	20.659722
2657.708560	-3.009000	2.780400	-8.365000	28.215560	0.000243	20.645748
2658.709044	-3.020700	2.777800	-8.390400	28.217639	0.000245	20.654481
2659.709573	-3.005400	2.775300	-8.339700	28.220294	0.000245	20.648144
2660.710238	-3.030300	2.771600	-8.397100	28.271872	0.000245	20.643648
2661.710384	-3.004400	2.769800	-8.320300	28.301038	0.000247	20.654050
2662.711277	-2.994200	2.767400	-8.285300	28.342063	0.000245	20.656951
2663.711145	-2.992800	2.763500	-8.269600	28.380133	0.000245	20.658774
2664.711305	-2.995200	2.762900	-8.273700	28.375204	0.000243	20.659026
2665.710333	-3.033400	2.758100	-8.365400	28.425863	0.000244	20.652191
2666.711009	-3.004500	2.754800	-8.276200	28.481693	0.000244	20.656729
2667.711388	-3.004600	2.752000	-8.268000	28.501670	0.000244	20.666417
2668.715564	-3.013800	2.748000	-8.279900	28.536487	0.000244	20.661650
2669.712829	-2.987900	2.745500	-8.202100	28.562333	0.000245	20.654014
2670.712735	-2.964600	2.743800	-8.132600	28.577894	0.000245	20.636492
2671.714571	-3.041800	2.739300	-8.331700	28.606466	0.000243	20.647726
2672.714386	-2.983100	2.737100	-8.164000	28.599379	0.000244	20.660031
2673.715111	-2.988600	2.734900	-8.172200	28.640386	0.000241	20.637792
2674.715185	-2.971800	2.732200	-8.118000	28.619721	0.000242	20.647325
2675.715095	-3.034700	2.724600	-8.267300	28.568851	0.000244	20.656785
2676.715996	-3.009400	2.723100	-8.193600	28.577681	0.000243	20.649081
2677.716014	-2.997400	2.721800	-8.156900	28.584216	0.000243	20.638118
2678.717203	-2.986700	2.717500	-8.115300	28.582755	0.000244	20.654192
2679.716516	-3.009200	2.714100	-8.166400	28.557478	0.000243	20.658134
2680.716699	-3.017000	2.710200	-8.174700	28.549108	0.000244	20.632157
2681.717326	-2.983400	2.707200	-8.073900	28.577601	0.000244	20.638094
2682.716921	-2.975700	2.703300	-8.043400	28.590643	0.000245	20.655973
2683.718416	-3.016600	2.700000	-8.144000	28.600077	0.000244	20.650775
2684.719514	-3.022400	2.695000	-8.144400	28.607059	0.000243	20.654488
2685.718202	-3.004000	2.692300	-8.086500	28.577974	0.000244	20.654593
2686.719017	-3.013700	2.687900	-8.099100	28.542144	0.000244	20.657863
2687.719707	-2.995100	2.683800	-8.037200	28.521727	0.000247	20.662433
2688.722855	-2.997000	2.680100	-8.030200	28.559050	0.000244	20.653078
2689.718824	-2.991900	2.675400	-8.003800	28.601960	0.000244	20.650300
2690.719319	-2.944500	2.674200	-7.873200	28.665148	0.000245	20.656570
2691.720959	-2.990900	2.668500	-7.980200	28.701885	0.000246	20.653743
2692.720937	-2.999900	2.664000	-7.990200	28.727409	0.000246	20.660961
2693.719794	-2.995200	2.660200	-7.966600	28.732765	0.000244	20.660666
2694.721341	-2.993300	2.657100	-7.951900	28.757218	0.000243	20.653054
2695.721625	-2.976800	2.653700	-7.898400	28.751691	0.000245	20.660290
2696.721497	-3.005300	2.648500	-7.958800	28.739306	0.000242	20.666781
2697.720107	-2.986700	2.642300	-7.890700	28.789617	0.000244	20.679529
2698.721951	-3.028000	2.637800	-7.986800	28.742050	0.000243	20.678556
2699.720366	-2.986500	2.634600	-7.867600	28.705902	0.000245	20.657789
2700.720622	-3.041300	2.629900	-7.997400	28.713214	0.000246	20.672742
2701.722168	-3.034000	2.624700	-7.962100	28.709765	0.000243	20.663104
2702.723271	-3.036200	2.619000	-7.951100	28.700357	0.000243	20.685872
2703.722301	-3.020000	2.616700	-7.900300	28.718496	0.000243	20.653405
2704.721519	-3.017900	2.610100	-7.876300	28.768637	0.000245	20.685423
2705.726069	-3.003500	2.605900	-7.825500	28.819547	0.000244	20.669374
2706.726267	-2.995600	2.599600	-7.786500	28.869268	0.000245	20.666830
2707.724092	-2.957600	2.596400	-7.678200	28.895179	0.000243	20.674442
2708.728638	-2.999400	2.589000	-7.764900	28.971405	0.000241	20.676795
2709.729415	-2.989700	2.585400	-7.727800	28.984356	0.000242	20.664712
2710.722854	-3.026900	2.579000	-7.805300	28.985151	0.000244	20.671203
2711.724502	-3.047400	2.572200	-7.837400	28.959939	0.000244	20.649119
2712.731775	-3.027800	2.569000	-7.777000	28.937007	0.000243	20.668217
2713.724631	-2.996200	2.563200	-7.678700	28.905027	0.000243	20.651644
2714.726258	-2.988500	2.558000	-7.643600	28.875449	0.000244	20.653141
2715.729003	-2.990100	2.550500	-7.623900	28.884691	0.000244	20.675731
2716.724442	-3.039000	2.545000	-7.733700	28.889917	0.000245	20.668193
2717.727492	-3.014000	2.539300	-7.653000	28.895700	0.000244	20.674019
2718.727650	-2.973800	2.534300	-7.535500	28.939366	0.000244	20.659688
2719.724524	-3.019500	2.527300	-7.629700	28.969616	0.000244	20.662663
2720.727581	-3.002900	2.522600	-7.574200	29.013756	0.000242	20.675842
2721.727084	-3.018700	2.516800	-7.596900	29.024506	0.000246	20.674820
2722.726779	-3.009000	2.509000	-7.548700	29.006031	0.000245	20.674223
2723.729129	-3.016900	2.502300	-7.548600	29.024562	0.000245	20.673453
2724.727622	-3.006200	2.497200	-7.506100	29.033137	0.000244	20.652219
