LabVIEW Measurement	
Writer_Version	2
Reader_Version	2
Separator	Tab
Decimal_Separator	.
Multi_Headings	No
X_Columns	One
Time_Pref	Absolute
Operator	admin
Description	Clolumns are: time, Current, Voltage, Power, Battery Temp, and Chamber Temp
Date	2024/08/16
Time	13:06:06.104549407958984375
***End_of_Header***	
	
Channels	6						
Samples	1	1	1	1	1	1	
Date	2024/08/29	2024/08/29	2024/08/29	2024/08/29	2024/08/29	2024/08/29	
Time	10:13:24.2834863662719726563	10:13:24.2888641357421875	10:13:24.2939009666442871094	10:13:24.23990631103515625	10:13:24.23990631103515625	10:13:24.23990631103515625	
X_Dimension	Time	Time	Time	Time	Time	Time	
X0	0.0000000000000000E+0	0.0000000000000000E+0	0.0000000000000000E+0	0.0000000000000000E+0	0.0000000000000000E+0	0.0000000000000000E+0	
Delta_X	1.000000	1.000000	1.000000	1.000000	1.000000	1.000000	
***End_of_Header***							
X_Value	Untitled	Untitled 1	Untitled 2	Untitled 3	Untitled 4	Untitled 5	Comment
0.000000	-0.023200	4.101200	-0.095137	21.073326	0.000946	20.749037
0.997201	-3.009800	3.941400	-11.861000	21.074348	0.000946	20.782302
2.003015	-3.007900	3.934400	-11.833000	21.095925	0.000946	20.772591
2.994367	-3.007800	3.929500	-11.818000	21.085588	0.000944	20.773156
4.010168	-2.989400	3.926900	-11.737000	21.071546	0.000942	20.743937
4.993749	-3.003800	3.924300	-11.786000	21.092249	0.000942	20.775552
6.004088	-3.010900	3.918800	-11.799000	21.086813	0.000942	20.763950
6.993967	-3.015300	3.916700	-11.809000	21.109405	0.000941	20.783230
8.011830	-3.024700	3.914500	-11.839000	21.085089	0.000941	20.773606
8.994406	-2.986200	3.913800	-11.685000	21.093092	0.000941	20.764066
10.006899	-2.972300	3.912600	-11.629000	21.106013	0.000940	20.767509
11.007976	-3.010300	3.909800	-11.768000	21.109103	0.000939	20.758745
12.000363	-2.989000	3.909000	-11.683000	21.098225	0.000937	20.789116
13.005619	-3.012900	3.905700	-11.764000	21.113075	0.000938	20.771727
14.018182	-2.984300	3.906500	-11.657000	21.112520	0.000936	20.768801
15.000238	-2.993800	3.905300	-11.690000	21.121927	0.000938	20.791013
15.999962	-2.969300	3.904600	-11.592000	21.102320	0.000935	20.776142
16.998733	-3.012800	3.901500	-11.754000	21.124592	0.000935	20.767126
17.999830	-3.009300	3.900600	-11.736000	21.127116	0.000936	20.775341
19.005497	-3.005400	3.900500	-11.722000	21.134718	0.000935	20.795748
19.997550	-3.000300	3.898900	-11.697000	21.149641	0.000933	20.778432
21.003677	-2.994800	3.899300	-11.677000	21.168724	0.000934	20.788986
22.003911	-3.003900	3.896600	-11.704000	21.151783	0.000932	20.784368
22.996990	-2.986700	3.896200	-11.635000	21.179127	0.000934	20.788014
24.010656	-2.995700	3.896800	-11.673000	21.166003	0.000931	20.802860
25.003762	-2.984700	3.894800	-11.624000	21.176080	0.000932	20.784965
26.005978	-3.011800	3.895000	-11.730000	21.169068	0.000931	20.780796
27.006197	-3.004800	3.893300	-11.697000	21.163682	0.000930	20.800538
28.002539	-3.005500	3.892800	-11.699000	21.191697	0.000928	20.813864
29.001148	-3.003500	3.893100	-11.691000	21.187824	0.000929	20.781541
30.002978	-2.970000	3.892300	-11.559000	21.206089	0.000929	20.791276
31.004860	-3.001700	3.892800	-11.684000	21.222278	0.000926	20.789928
32.003591	-3.005100	3.892700	-11.697000	21.215937	0.000927	20.800180
33.011991	-3.003500	3.889500	-11.682000	21.215217	0.000927	20.792822
34.017311	-2.995400	3.890100	-11.651000	21.237333	0.000927	20.794557
34.999060	-3.010100	3.889100	-11.706000	21.236620	0.000925	20.817077
36.007997	-3.027300	3.888500	-11.771000	21.240904	0.000925	20.804293
37.018461	-2.990900	3.888500	-11.630000	21.257696	0.000925	20.808290
38.004434	-2.992100	3.888700	-11.634000	21.263138	0.000925	20.804251
39.013555	-2.998400	3.887900	-11.657000	21.253283	0.000925	20.804823
40.001482	-3.000900	3.887300	-11.665000	21.272192	0.000922	20.819947
41.009596	-2.996200	3.886700	-11.644000	21.267403	0.000923	20.811837
42.002603	-2.983100	3.886300	-11.592000	21.270518	0.000922	20.807840
43.006382	-2.999600	3.885600	-11.655000	21.281868	0.000922	20.807816
44.007219	-3.009500	3.885500	-11.693000	21.288437	0.000923	20.811068
45.011807	-3.000000	3.885500	-11.656000	21.310663	0.000921	20.811019
46.015489	-3.004400	3.882900	-11.664000	21.308546	0.000923	20.814116
47.016563	-2.994000	3.884900	-11.631000	21.313963	0.000923	20.822381
48.018241	-2.998800	3.884300	-11.647000	21.324260	0.000921	20.818458
49.010642	-3.021500	3.884200	-11.735000	21.333647	0.000921	20.830694
50.018817	-2.983400	3.882700	-11.582000	21.340110	0.000922	20.824832
51.010559	-2.992100	3.882600	-11.617000	21.329252	0.000922	20.808279
52.011626	-2.999100	3.884000	-11.648000	21.344572	0.000919	20.795632
53.005464	-3.001900	3.882100	-11.653000	21.349891	0.000922	20.816599
54.018605	-2.978500	3.882400	-11.563000	21.360538	0.000921	20.821088
54.988836	-2.979700	3.881300	-11.565000	21.368749	0.000920	20.817923
56.004309	-2.996600	3.880400	-11.627000	21.375661	0.000921	20.831477
56.997298	-2.983700	3.880700	-11.578000	21.376184	0.000922	20.827259
58.021176	-2.987800	3.880700	-11.594000	21.398114	0.000921	20.827863
59.024160	-3.001700	3.878900	-11.643000	21.371175	0.000921	20.809445
60.009650	-3.029400	3.877500	-11.746000	21.404047	0.000921	20.838066
61.021240	-2.992200	3.879600	-11.607000	21.430684	0.000922	20.826311
62.026299	-3.000400	3.879800	-11.638000	21.410288	0.000920	20.827241
63.016310	-2.991800	3.880000	-11.608000	21.428500	0.000921	20.818436
64.015265	-2.995700	3.879000	-11.619000	21.445055	0.000920	20.826465
65.021460	-3.028000	3.875000	-11.732000	21.454940	0.000919	20.818338
66.023650	-3.011300	3.876900	-11.674000	21.450496	0.000921	20.832857
66.999120	-2.986100	3.879200	-11.583000	21.455210	0.000920	20.814815
67.993867	-2.992100	3.877600	-11.600000	21.466165	0.000919	20.837156
68.997437	-2.997200	3.877400	-11.621000	21.442724	0.000920	20.826029
70.030813	-2.988600	3.876800	-11.585000	21.467611	0.000920	20.827224
71.021647	-2.985600	3.877900	-11.578000	21.468584	0.000918	20.822507
72.023724	-2.990900	3.876100	-11.591000	21.481027	0.000919	20.833061
73.024475	-2.986600	3.876100	-11.575000	21.494394	0.000919	20.812297
74.012034	-2.994900	3.876000	-11.607000	21.495767	0.000920	20.844489
75.017245	-2.990500	3.876300	-11.590000	21.501127	0.000920	20.830887
76.025006	-3.014700	3.874600	-11.679000	21.503699	0.000921	20.823978
77.013595	-2.996700	3.874300	-11.609000	21.508979	0.000920	20.815036
78.020941	-2.998300	3.874300	-11.616000	21.543324	0.000919	20.832334
79.001829	-2.986900	3.874400	-11.571000	21.541527	0.000920	20.820579
80.016426	-2.994100	3.874300	-11.599000	21.532980	0.000917	20.827199
81.024076	-2.993600	3.872600	-11.591000	21.557066	0.000919	20.808152
82.018086	-3.005100	3.873300	-11.638000	21.547835	0.000920	20.824045
83.022169	-3.002300	3.872100	-11.625000	21.550751	0.000919	20.810843
84.002934	-2.983000	3.875000	-11.558000	21.556013	0.000917	20.813737
85.005802	-3.004700	3.872600	-11.635000	21.571723	0.000919	20.816181
86.005765	-3.009400	3.871800	-11.651000	21.580365	0.000920	20.821983
87.002356	-2.992200	3.873200	-11.588000	21.575293	0.000919	20.824969
88.005746	-2.997300	3.872300	-11.605000	21.595022	0.000919	20.809624
88.998130	-2.995700	3.872300	-11.600000	21.583724	0.000919	20.810172
90.005922	-3.014700	3.871400	-11.670000	21.609219	0.000920	20.807710
91.009504	-2.986900	3.870500	-11.559000	21.592505	0.000918	20.807580
92.016892	-3.009800	3.871000	-11.650000	21.580610	0.000918	20.820333
93.002909	-3.002500	3.870600	-11.621000	21.619938	0.000919	20.808005
94.004901	-2.994200	3.871500	-11.591000	21.620313	0.000919	20.830665
95.013695	-2.997900	3.872200	-11.606000	21.619144	0.000919	20.813849
96.008990	-2.978300	3.870800	-11.528000	21.602936	0.000919	20.814225
97.028223	-2.995700	3.870900	-11.595000	21.638823	0.000917	20.796084
98.024981	-3.003100	3.870300	-11.622000	21.650700	0.000919	20.792797
99.008712	-3.011700	3.868500	-11.650000	21.654213	0.000920	20.800106
100.033032	-3.010800	3.869200	-11.648000	21.654761	0.000918	20.810137
101.019173	-2.988800	3.869400	-11.564000	21.663942	0.000920	20.794195
102.033981	-3.013000	3.868500	-11.655000	21.659660	0.000920	20.783271
103.023106	-3.005100	3.867300	-11.620000	21.641975	0.000918	20.810618
104.030189	-2.987900	3.868300	-11.557000	21.652048	0.000920	20.816431
105.018161	-2.997400	3.868400	-11.594000	21.672084	0.000920	20.773894
106.036287	-3.013300	3.868600	-11.657000	21.686298	0.000920	20.788592
107.027884	-3.003900	3.868600	-11.620000	21.678963	0.000920	20.802115
108.061449	-2.997000	3.868100	-11.592000	21.711285	0.000920	20.775667
109.015362	-3.001900	3.867400	-11.608000	21.713507	0.000919	20.791167
110.039737	-2.990600	3.868300	-11.567000	21.708980	0.000922	20.798490
111.035986	-2.994000	3.866000	-11.574000	21.701873	0.000922	20.803706
112.023311	-3.001000	3.866400	-11.602000	21.722523	0.000922	20.803035
113.033446	-2.989400	3.865900	-11.555000	21.740428	0.000921	20.787289
114.036199	-2.995000	3.866100	-11.578000	21.743270	0.000921	20.774961
115.036354	-2.982500	3.866200	-11.528000	21.740908	0.000922	20.785400
116.006022	-3.011400	3.865300	-11.639000	21.746397	0.000923	20.785203
117.020558	-2.996000	3.866100	-11.582000	21.748987	0.000921	20.769303
118.004843	-2.995500	3.867300	-11.584000	21.764849	0.000921	20.789920
119.004575	-2.995600	3.865800	-11.580000	21.782280	0.000922	20.760423
120.014258	-2.983700	3.864600	-11.529000	21.786519	0.000923	20.778891
121.012319	-3.004100	3.866700	-11.615000	21.772780	0.000921	20.782210
122.007195	-3.003400	3.865700	-11.610000	21.793681	0.000922	20.775628
123.005083	-3.010000	3.864300	-11.630000	21.784459	0.000923	20.781097
124.017934	-3.001700	3.863700	-11.596000	21.805100	0.000924	20.790851
125.010358	-2.988400	3.864700	-11.547000	21.811038	0.000924	20.779724
126.022248	-2.964700	3.865800	-11.460000	21.823053	0.000925	20.780370
127.016179	-3.005700	3.864100	-11.613000	21.823804	0.000923	20.792501
128.020667	-3.026700	3.862400	-11.689000	21.838767	0.000924	20.775709
129.036303	-3.005700	3.863900	-11.613000	21.827773	0.000923	20.774662
130.026710	-2.978800	3.864000	-11.508000	21.849041	0.000924	20.785993
131.036123	-3.022600	3.861700	-11.671000	21.818551	0.000924	20.770174
132.044698	-3.031200	3.862900	-11.709000	21.857322	0.000925	20.778161
133.034619	-2.998500	3.862800	-11.582000	21.846051	0.000924	20.776362
134.021178	-2.997500	3.863300	-11.579000	21.838317	0.000924	20.766725
135.040956	-2.995700	3.861100	-11.566000	21.839142	0.000925	20.766127
136.040472	-2.978100	3.861800	-11.498000	21.867270	0.000925	20.777212
137.024130	-2.996500	3.863000	-11.575000	21.848346	0.000925	20.749735
138.021526	-2.992000	3.862300	-11.555000	21.860449	0.000925	20.783187
139.013251	-2.986400	3.862200	-11.533000	21.847251	0.000924	20.774244
140.040869	-3.009200	3.860500	-11.615000	21.853908	0.000928	20.773795
141.045310	-2.985600	3.861400	-11.527000	21.869842	0.000926	20.765088
142.022310	-2.998500	3.860900	-11.576000	21.879422	0.000926	20.759503
143.019364	-2.981400	3.861200	-11.511000	21.886601	0.000927	20.770957
144.041471	-2.987900	3.860500	-11.534000	21.901139	0.000927	20.777448
145.047223	-2.995000	3.860400	-11.560000	21.897798	0.000927	20.767466
146.041265	-2.984900	3.859200	-11.518000	21.892489	0.000926	20.784437
147.024272	-3.026500	3.859500	-11.679000	21.915121	0.000927	20.748769
148.046759	-3.039000	3.858400	-11.725000	21.926416	0.000930	20.772404
149.024099	-2.995500	3.861100	-11.563000	21.948409	0.000928	20.752693
150.023743	-3.008700	3.856900	-11.603000	21.948736	0.000928	20.759184
151.043519	-3.004700	3.859700	-11.596000	21.968458	0.000929	20.758063
152.046709	-3.005500	3.858400	-11.595000	21.967781	0.000929	20.769239
153.041167	-2.993300	3.858600	-11.549000	21.963697	0.000930	20.743813
154.042271	-2.998500	3.858900	-11.570000	21.984703	0.000929	20.758204
155.047904	-3.015000	3.859000	-11.634000	21.981777	0.000928	20.760964
156.040996	-3.040600	3.857500	-11.728000	21.960683	0.000928	20.755496
157.046050	-2.988600	3.858400	-11.531000	21.973683	0.000929	20.753810
158.048454	-3.005300	3.856700	-11.589000	22.000004	0.000929	20.747442
159.043296	-2.985000	3.856800	-11.510000	22.003351	0.000932	20.752689
160.043384	-3.006900	3.856900	-11.596000	22.016508	0.000933	20.754480
161.036451	-2.997000	3.856200	-11.556000	22.024290	0.000930	20.755633
162.031835	-3.014900	3.856500	-11.625000	21.997994	0.000931	20.745903
163.022647	-3.006400	3.855700	-11.589000	22.025915	0.000934	20.745879
164.034867	-2.976300	3.857400	-11.479000	22.030430	0.000931	20.749451
165.028882	-3.016500	3.855800	-11.630000	22.032577	0.000933	20.751600
166.023624	-3.003000	3.855800	-11.579000	22.021087	0.000931	20.759538
167.032903	-2.983100	3.857400	-11.506000	22.033360	0.000932	20.738158
168.041965	-2.964900	3.856600	-11.432000	22.027971	0.000933	20.752204
169.029696	-3.024500	3.853100	-11.653000	22.034960	0.000932	20.754459
170.027797	-2.998500	3.855100	-11.559000	22.031227	0.000935	20.744558
171.037850	-3.032800	3.852800	-11.683000	22.066195	0.000935	20.741158
172.034589	-3.009800	3.853200	-11.596000	22.050000	0.000937	20.741067
173.031571	-2.995000	3.855500	-11.546000	22.066928	0.000935	20.747108
174.027106	-2.987100	3.854400	-11.512000	22.085824	0.000935	20.740420
175.045786	-2.995200	3.854100	-11.543000	22.087228	0.000935	20.749412
176.054425	-2.981900	3.854800	-11.493000	22.078278	0.000934	20.747565
177.027017	-2.976900	3.855100	-11.474000	22.076040	0.000937	20.737263
178.041553	-2.980000	3.855100	-11.486000	22.104513	0.000937	20.749173
179.028856	-2.997000	3.854900	-11.552000	22.117823	0.000938	20.735471
180.033300	-3.026700	3.851700	-11.656000	22.115455	0.000937	20.738791
181.030203	-3.000800	3.853200	-11.560000	22.124878	0.000937	20.742535
182.033365	-3.008200	3.853700	-11.591000	22.132961	0.000938	20.741618
183.033687	-3.015300	3.851600	-11.613000	22.151488	0.000938	20.763961
184.039341	-2.994300	3.853400	-11.537000	22.162977	0.000938	20.729943
185.035918	-2.996500	3.852200	-11.541000	22.165646	0.000939	20.731668
186.052490	-2.995500	3.851400	-11.535000	22.166790	0.000940	20.734235
187.033055	-2.991400	3.851300	-11.518000	22.201996	0.000940	20.729655
188.041656	-3.008100	3.850600	-11.582000	22.194247	0.000940	20.747027
189.043986	-3.004700	3.850700	-11.569000	22.190803	0.000940	20.747372
190.039017	-3.004400	3.850200	-11.568000	22.200920	0.000941	20.741854
191.035188	-2.995300	3.851600	-11.535000	22.200821	0.000943	20.737014
192.040359	-3.009400	3.851100	-11.588000	22.214636	0.000942	20.716705
193.034531	-3.003700	3.850000	-11.563000	22.203417	0.000943	20.721594
194.074790	-2.979600	3.850300	-11.471000	22.210030	0.000941	20.729163
195.059587	-3.015300	3.848800	-11.603000	22.218554	0.000942	20.742440
196.038592	-2.999600	3.850200	-11.547000	22.206160	0.000940	20.754688
197.037802	-3.004900	3.848900	-11.563000	22.235308	0.000944	20.740249
198.038629	-3.003200	3.848000	-11.554000	22.218350	0.000945	20.750772
199.044993	-2.982300	3.850000	-11.480000	22.230867	0.000944	20.725844
200.031507	-2.988600	3.849600	-11.505000	22.234697	0.000945	20.731576
201.054442	-3.003600	3.849000	-11.560000	22.218130	0.000944	20.732532
202.042089	-3.001400	3.849000	-11.551000	22.221673	0.000946	20.718060
203.039259	-2.997700	3.848600	-11.536000	22.203277	0.000946	20.718608
204.040232	-3.000300	3.848000	-11.543000	22.218161	0.000946	20.724028
205.062073	-2.975500	3.848100	-11.449000	22.198892	0.000948	20.740298
206.047933	-2.978500	3.847400	-11.458000	22.219926	0.000949	20.734330
207.036109	-2.986700	3.848500	-11.493000	22.233943	0.000947	20.712328
208.044234	-2.992800	3.847600	-11.514000	22.239349	0.000947	20.715370
209.053523	-2.984300	3.847700	-11.482000	22.252012	0.000949	20.722834
210.044733	-2.994400	3.846200	-11.516000	22.275363	0.000950	20.729146
211.058659	-3.000200	3.846400	-11.539000	22.263973	0.000949	20.732440
212.068290	-3.017700	3.845800	-11.604000	22.255758	0.000949	20.724689
213.064237	-2.988200	3.846500	-11.493000	22.262339	0.000951	20.735546
214.065861	-2.991400	3.846500	-11.506000	22.265352	0.000951	20.709163
215.055637	-3.012600	3.845700	-11.584000	22.292344	0.000949	20.716750
216.070470	-2.980500	3.846400	-11.462000	22.299650	0.000953	20.733551
217.055017	-3.004700	3.845200	-11.554000	22.312608	0.000952	20.706220
218.062971	-3.021800	3.844600	-11.617000	22.319139	0.000953	20.745005
219.069338	-3.016500	3.844100	-11.593000	22.325775	0.000955	20.733157
220.040491	-3.021500	3.844800	-11.616000	22.332724	0.000955	20.715932
221.060637	-3.017800	3.843300	-11.597000	22.356880	0.000954	20.737277
222.041324	-2.980400	3.843700	-11.454000	22.391046	0.000955	20.714116
223.042560	-2.984500	3.844200	-11.473000	22.371429	0.000953	20.712490
224.045453	-2.994600	3.844600	-11.512000	22.370114	0.000956	20.721131
225.041670	-2.996800	3.843300	-11.516000	22.372334	0.000954	20.711974
226.057700	-2.987100	3.844200	-11.481000	22.359248	0.000956	20.721629
227.068463	-2.999400	3.845100	-11.532000	22.364056	0.000955	20.733083
228.065744	-2.996400	3.844200	-11.518000	22.362236	0.000957	20.739796
229.063866	-3.011800	3.841800	-11.569000	22.362187	0.000957	20.711770
230.071898	-2.985100	3.843600	-11.472000	22.371836	0.000957	20.698672
231.045016	-2.993600	3.843100	-11.503000	22.381183	0.000956	20.724629
232.051093	-3.007300	3.842600	-11.555000	22.378963	0.000959	20.695851
233.049807	-3.009100	3.841300	-11.558000	22.380930	0.000960	20.725799
234.058162	-3.020200	3.842600	-11.605000	22.374407	0.000959	20.713101
235.054378	-2.996800	3.841800	-11.511000	22.363418	0.000959	20.722012
236.050694	-2.994200	3.840700	-11.498000	22.373256	0.000959	20.720484
237.061970	-2.982800	3.841000	-11.456000	22.374284	0.000959	20.707762
238.049645	-3.006300	3.840500	-11.545000	22.388464	0.000961	20.702047
239.064270	-2.967700	3.841500	-11.400000	22.399232	0.000962	20.695286
240.062303	-2.990000	3.841800	-11.486000	22.403223	0.000962	20.701654
241.076818	-2.994100	3.841300	-11.500000	22.400088	0.000964	20.711791
242.061265	-2.990500	3.839900	-11.481000	22.418849	0.000962	20.722044
243.048084	-2.997100	3.839500	-11.506000	22.439559	0.000963	20.691573
244.051312	-3.026800	3.838300	-11.617000	22.461468	0.000963	20.697393
245.048942	-3.008700	3.839300	-11.550000	22.464383	0.000963	20.724496
246.054028	-3.005600	3.840400	-11.542000	22.459101	0.000962	20.702609
247.051288	-2.985300	3.839300	-11.459000	22.488645	0.000964	20.713231
248.072915	-3.012900	3.840100	-11.569000	22.491777	0.000964	20.700720
249.068951	-3.005600	3.839300	-11.538000	22.513254	0.000964	20.687140
250.067987	-2.984100	3.839000	-11.454000	22.515172	0.000967	20.692381
251.074695	-3.005100	3.838500	-11.533000	22.520983	0.000966	20.708159
252.070358	-3.008400	3.837600	-11.544000	22.518942	0.000966	20.697580
253.073490	-3.005100	3.838000	-11.532000	22.536557	0.000968	20.705739
254.071592	-2.997000	3.839100	-11.504000	22.517571	0.000968	20.679609
255.070245	-2.989500	3.837900	-11.473000	22.522509	0.000968	20.682658
256.079864	-3.017500	3.835700	-11.572000	22.501228	0.000970	20.695486
257.066309	-3.020400	3.837300	-11.589000	22.540401	0.000969	20.704847
258.048263	-2.999600	3.836100	-11.506000	22.514043	0.000970	20.702631
259.050349	-3.022700	3.836100	-11.595000	22.532981	0.000968	20.704053
260.069897	-3.015200	3.836200	-11.565000	22.551322	0.000972	20.695395
261.052074	-3.021100	3.834300	-11.581000	22.531511	0.000971	20.708746
262.047076	-2.993000	3.835800	-11.480000	22.502459	0.000973	20.694348
263.063367	-2.991200	3.834700	-11.470000	22.486990	0.000971	20.702564
264.049563	-3.006700	3.835500	-11.531000	22.495112	0.000973	20.663753
265.062727	-3.009000	3.834900	-11.537000	22.486548	0.000972	20.695009
266.061711	-3.003900	3.835500	-11.518000	22.489340	0.000975	20.681208
267.057248	-3.000900	3.834400	-11.505000	22.489371	0.000975	20.685033
268.080034	-2.991700	3.835000	-11.473000	22.446132	0.000974	20.673024
269.077027	-3.000900	3.834700	-11.506000	22.483069	0.000976	20.691050
270.079825	-3.007300	3.834100	-11.528000	22.516383	0.000976	20.679367
271.074612	-2.969800	3.834600	-11.387000	22.540984	0.000976	20.674608
272.085473	-2.980200	3.835400	-11.428000	22.525876	0.000977	20.709740
273.071085	-3.000400	3.834100	-11.502000	22.544445	0.000977	20.692301
274.083142	-3.011500	3.832200	-11.539000	22.555660	0.000977	20.699266
275.060460	-2.995500	3.833400	-11.482000	22.570049	0.000977	20.671475
276.075807	-3.022300	3.832300	-11.581000	22.555839	0.000982	20.698971
277.074466	-3.010500	3.831800	-11.534000	22.587811	0.000982	20.666979
278.078458	-3.011300	3.832200	-11.538000	22.588039	0.000981	20.665310
279.078167	-3.000800	3.831600	-11.497000	22.578374	0.000980	20.663691
280.077785	-3.027100	3.831200	-11.597000	22.600901	0.000981	20.691946
281.055848	-3.014300	3.831500	-11.548000	22.608255	0.000982	20.669912
282.070014	-3.004500	3.832000	-11.511000	22.613568	0.000983	20.681872
283.058763	-2.994300	3.831700	-11.472000	22.615461	0.000984	20.683769
284.060643	-2.968600	3.833300	-11.379000	22.624775	0.000982	20.672708
285.056911	-2.983400	3.831800	-11.431000	22.598265	0.000984	20.674131
286.068161	-3.011800	3.830300	-11.535000	22.614743	0.000983	20.666452
287.055215	-3.016500	3.829800	-11.551000	22.632339	0.000984	20.652307
288.080259	-3.005900	3.830300	-11.513000	22.635572	0.000985	20.681152
289.081380	-2.989100	3.830000	-11.448000	22.655854	0.000986	20.670646
290.064515	-3.012300	3.829900	-11.535000	22.644893	0.000986	20.681953
291.064045	-3.001700	3.828100	-11.490000	22.645415	0.000987	20.666354
292.061629	-3.000600	3.829200	-11.489000	22.650924	0.000987	20.667130
293.064543	-2.987500	3.829000	-11.439000	22.634029	0.000987	20.671545
294.068876	-2.988100	3.828200	-11.439000	22.641309	0.000989	20.683106
295.061002	-2.983300	3.830000	-11.425000	22.660073	0.000990	20.657326
296.080654	-3.006100	3.828300	-11.507000	22.648687	0.000987	20.671528
297.084919	-3.003900	3.828000	-11.498000	22.637497	0.000990	20.674071
298.088011	-2.995700	3.829000	-11.468000	22.649258	0.000991	20.673997
299.076467	-3.019300	3.826700	-11.553000	22.628805	0.000991	20.675322
300.069559	-3.010500	3.826300	-11.517000	22.664740	0.000991	20.655837
301.065250	-2.995100	3.826400	-11.458000	22.642035	0.000991	20.679565
302.083483	-3.007400	3.826300	-11.507000	22.670413	0.000991	20.660572
303.078765	-2.994500	3.827500	-11.460000	22.677212	0.000992	20.648889
304.078457	-2.989000	3.827300	-11.439000	22.685414	0.000992	20.672754
305.078256	-3.001100	3.826200	-11.482000	22.717456	0.000994	20.668813
306.079765	-3.006100	3.825900	-11.499000	22.742151	0.000993	20.663203
307.091686	-2.982000	3.826700	-11.411000	22.746607	0.000994	20.658184
308.092845	-2.991600	3.825400	-11.443000	22.750278	0.000994	20.673717
309.084223	-3.008900	3.825400	-11.509000	22.759591	0.000996	20.669769
310.087979	-2.971000	3.826200	-11.367000	22.768290	0.000994	20.663783
311.074106	-2.992500	3.825200	-11.446000	22.784187	0.000996	20.656947
312.094911	-3.012700	3.824800	-11.522000	22.769261	0.000995	20.657169
313.087443	-2.980900	3.825400	-11.401000	22.781273	0.000998	20.667781
314.073284	-3.010000	3.824200	-11.509000	22.799579	0.000997	20.670945
315.095026	-2.978200	3.824100	-11.387000	22.807983	0.000997	20.644274
316.096677	-3.021100	3.822500	-11.547000	22.801707	0.000998	20.669758
317.096725	-2.980900	3.823400	-11.396000	22.809158	0.000997	20.666316
318.071833	-2.977100	3.824000	-11.384000	22.791424	0.000997	20.645229
319.072927	-3.029300	3.822100	-11.577000	22.816517	0.001000	20.639072
320.073535	-2.990200	3.823600	-11.433000	22.847380	0.000999	20.662407
321.075405	-2.994800	3.822800	-11.447000	22.842100	0.000999	20.652849
322.089918	-2.998800	3.822400	-11.461000	22.845789	0.001000	20.663183
323.095589	-3.009600	3.822400	-11.502000	22.846367	0.001000	20.659021
324.077835	-2.982200	3.821000	-11.394000	22.853418	0.001001	20.667981
325.072279	-2.962400	3.821000	-11.319000	22.847608	0.001001	20.666903
326.075186	-2.985900	3.821300	-11.410000	22.858354	0.001003	20.670082
327.079495	-3.004600	3.822100	-11.483000	22.835888	0.001003	20.675551
328.091423	-3.026300	3.820700	-11.561000	22.863014	0.001005	20.673802
329.076111	-2.993100	3.819700	-11.432000	22.890072	0.001005	20.659657
330.078071	-2.991300	3.820500	-11.427000	22.901774	0.001003	20.667114
331.091570	-3.009400	3.819600	-11.494000	22.899643	0.001005	20.669246
332.078900	-3.013400	3.820500	-11.512000	22.931850	0.001005	20.647457
333.073662	-3.005100	3.818900	-11.475000	22.950413	0.001006	20.674119
334.098177	-2.995500	3.818900	-11.438000	22.942612	0.001005	20.681952
335.073866	-2.994800	3.819400	-11.437000	22.927728	0.001005	20.656605
336.079647	-2.995900	3.819400	-11.441000	22.934248	0.001006	20.650809
337.094990	-2.998400	3.817800	-11.446000	22.965964	0.001008	20.668836
338.103071	-3.014100	3.817600	-11.505000	22.945712	0.001008	20.671305
339.101278	-2.978000	3.819000	-11.372000	22.949701	0.001010	20.656808
340.113598	-2.996300	3.817100	-11.435000	22.972989	0.001007	20.660226
341.101211	-2.998600	3.818400	-11.449000	22.960880	0.001010	20.675123
342.097658	-2.990400	3.818000	-11.417000	22.986492	0.001008	20.660005
343.098842	-2.986600	3.817900	-11.402000	22.995386	0.001009	20.673659
344.098505	-3.000200	3.816200	-11.448000	22.983032	0.001011	20.661280
345.099851	-3.017200	3.815900	-11.512000	22.959769	0.001011	20.667845
346.104682	-3.000100	3.814900	-11.443000	22.953740	0.001011	20.654216
347.106632	-3.003500	3.816900	-11.462000	22.978479	0.001012	20.679005
348.095962	-2.987400	3.816200	-11.400000	22.979898	0.001011	20.676634
349.113494	-3.003600	3.815400	-11.459000	22.979621	0.001014	20.662605
350.097848	-2.994700	3.815100	-11.424000	23.006824	0.001012	20.668998
351.080986	-2.995200	3.815500	-11.427000	23.021936	0.001012	20.665646
352.095905	-3.019900	3.813900	-11.516000	23.020720	0.001012	20.673912
353.086997	-2.984700	3.815300	-11.387000	23.037251	0.001015	20.663922
354.082546	-3.013700	3.813700	-11.492000	23.031082	0.001015	20.665801
355.082023	-2.992600	3.814900	-11.415000	23.034411	0.001015	20.675777
356.089002	-2.986800	3.813400	-11.389000	23.040850	0.001015	20.652828
357.081994	-2.984700	3.814100	-11.383000	23.041282	0.001014	20.654683
358.104216	-2.966500	3.814600	-11.313000	23.022297	0.001017	20.682131
359.114277	-2.985700	3.812000	-11.381000	23.033009	0.001017	20.672475
360.079566	-2.982400	3.814100	-11.374000	23.039185	0.001016	20.671551
361.094739	-3.017900	3.813100	-11.506000	23.053497	0.001018	20.662657
362.086877	-3.004400	3.812700	-11.453000	23.062496	0.001017	20.677364
363.088572	-2.987900	3.812000	-11.389000	23.055398	0.001019	20.662664
364.090271	-2.992900	3.812500	-11.408000	23.015934	0.001016	20.663426
365.119318	-3.002400	3.811100	-11.441000	23.028718	0.001020	20.671969
366.100043	-2.980800	3.811600	-11.361000	23.040875	0.001019	20.671347
367.084260	-2.983600	3.811800	-11.371000	23.012906	0.001018	20.680308
368.081396	-2.993300	3.811400	-11.408000	22.985075	0.001020	20.670441
369.098877	-3.006600	3.811100	-11.456000	23.016260	0.001019	20.668495
370.098382	-3.000300	3.809500	-11.429000	23.012050	0.001018	20.667595
371.108333	-2.991300	3.810700	-11.398000	23.015534	0.001020	20.685787
372.112787	-2.952200	3.811100	-11.250000	23.010157	0.001020	20.674708
373.106904	-2.995900	3.809700	-11.413000	23.012074	0.001021	20.674259
374.108420	-2.981200	3.810000	-11.358000	23.014066	0.001022	20.649698
375.113163	-3.003500	3.809900	-11.442000	23.012320	0.001020	20.683040
376.088533	-2.993900	3.808100	-11.400000	23.024950	0.001019	20.686686
377.085442	-3.000200	3.808500	-11.426000	23.039995	0.001022	20.672836
378.089901	-2.996700	3.809300	-11.415000	23.078448	0.001024	20.691927
379.107311	-3.004200	3.808600	-11.441000	23.059348	0.001022	20.667097
380.126371	-2.999700	3.807500	-11.421000	23.097824	0.001025	20.687160
381.107618	-2.999900	3.808100	-11.423000	23.115536	0.001024	20.675509
382.100988	-3.000200	3.807300	-11.421000	23.096615	0.001024	20.673146
383.103555	-3.015300	3.806900	-11.478000	23.109735	0.001024	20.690087
384.089839	-3.030300	3.804800	-11.529000	23.122862	0.001024	20.692335
385.103373	-3.024900	3.805700	-11.511000	23.128091	0.001026	20.700895
386.088490	-3.003300	3.806000	-11.429000	23.118431	0.001026	20.674617
387.091475	-3.001500	3.806600	-11.424000	23.128670	0.001028	20.672074
388.096303	-3.004500	3.804900	-11.431000	23.137359	0.001027	20.681730
389.115258	-3.025800	3.803200	-11.507000	23.143265	0.001027	20.681485
390.113954	-3.010300	3.804200	-11.451000	23.089093	0.001027	20.709708
391.113439	-3.012000	3.805000	-11.459000	23.115340	0.001027	20.680055
392.119563	-3.013100	3.804200	-11.461000	23.105280	0.001029	20.688467
393.123380	-3.001000	3.803200	-11.413000	23.131852	0.001027	20.682851
394.118457	-2.989500	3.804400	-11.372000	23.168637	0.001027	20.695531
395.095539	-3.016700	3.802400	-11.469000	23.169510	0.001026	20.690715
396.117532	-2.984500	3.804400	-11.352000	23.195190	0.001028	20.685155
397.097216	-3.009800	3.802800	-11.444000	23.163138	0.001030	20.687175
398.101965	-2.998600	3.803000	-11.402000	23.174249	0.001030	20.689774
399.093227	-2.972200	3.802200	-11.300000	23.174470	0.001031	20.685728
400.111118	-2.996900	3.802300	-11.394000	23.185132	0.001028	20.682661
401.118543	-3.007000	3.801800	-11.429000	23.199530	0.001031	20.698039
402.103366	-3.001400	3.801600	-11.409000	23.214264	0.001030	20.683880
403.092480	-3.011800	3.800500	-11.445000	23.207240	0.001033	20.695335
404.098248	-3.012000	3.801000	-11.447000	23.213920	0.001032	20.693494
405.098442	-3.006200	3.799600	-11.421000	23.214043	0.001034	20.700730
406.096419	-2.992900	3.800600	-11.373000	23.250752	0.001032	20.694369
407.117736	-2.991600	3.800300	-11.366000	23.219223	0.001034	20.680789
408.098346	-3.016200	3.800600	-11.462000	23.228490	0.001032	20.699086
409.114223	-2.986600	3.800600	-11.350000	23.215112	0.001035	20.698008
410.119923	-2.994400	3.800500	-11.379000	23.237732	0.001034	20.698391
411.124324	-3.005000	3.800900	-11.420000	23.229786	0.001036	20.702757
412.116608	-2.993400	3.798800	-11.371000	23.252987	0.001034	20.712732
413.119464	-3.004300	3.799400	-11.414000	23.232015	0.001036	20.704516
414.114897	-2.965200	3.799700	-11.265000	23.239722	0.001035	20.702757
415.122416	-3.010000	3.796600	-11.425000	23.234837	0.001036	20.686005
416.114267	-2.999100	3.797900	-11.389000	23.236011	0.001037	20.702831
417.132431	-3.010000	3.797000	-11.427000	23.222959	0.001034	20.671730
418.115347	-3.001900	3.797700	-11.400000	23.241338	0.001038	20.685408
419.118012	-2.991100	3.797900	-11.359000	23.251624	0.001040	20.707098
420.128927	-3.012700	3.796300	-11.436000	23.262286	0.001038	20.700713
421.112493	-3.017000	3.796800	-11.453000	23.278445	0.001038	20.696993
422.105017	-3.009600	3.797200	-11.427000	23.257996	0.001039	20.697361
423.101710	-3.022700	3.795500	-11.471000	23.297167	0.001038	20.720024
424.102604	-3.019200	3.795900	-11.459000	23.282826	0.001041	20.699012
425.118371	-3.022500	3.795100	-11.470000	23.276658	0.001039	20.702314
426.100673	-3.006900	3.794500	-11.409000	23.289727	0.001039	20.708774
427.105645	-3.017100	3.794000	-11.446000	23.281487	0.001039	20.704784
428.130515	-3.002600	3.795400	-11.394000	23.269586	0.001041	20.701391
429.102424	-2.982800	3.796400	-11.322000	23.262398	0.001042	20.703671
430.117981	-2.979100	3.795500	-11.307000	23.263940	0.001043	20.707587
431.119908	-2.994600	3.793400	-11.359000	23.269341	0.001042	20.705413
432.114087	-3.018100	3.793600	-11.448000	23.299172	0.001042	20.723456
433.121490	-2.987700	3.794200	-11.335000	23.295436	0.001042	20.712599
434.115926	-2.978700	3.793700	-11.299000	23.290403	0.001042	20.713720
435.125086	-3.003500	3.792700	-11.390000	23.327288	0.001043	20.723186
436.117593	-2.992800	3.793100	-11.351000	23.315250	0.001044	20.709698
437.117582	-2.972300	3.793900	-11.276000	23.315387	0.001047	20.725483
438.106925	-2.991900	3.793700	-11.349000	23.353928	0.001045	20.679708
439.127254	-2.995900	3.792300	-11.361000	23.366131	0.001043	20.706639
440.126228	-2.971600	3.792400	-11.269000	23.384377	0.001043	20.717341
441.127557	-2.979100	3.792200	-11.295000	23.390804	0.001045	20.723309
442.121911	-2.994300	3.791100	-11.351000	23.384948	0.001044	20.724078
443.135106	-2.993100	3.789900	-11.343000	23.416080	0.001045	20.720193
444.124419	-2.996700	3.791100	-11.360000	23.421406	0.001044	20.698978
445.103945	-2.984200	3.790000	-11.309000	23.434603	0.001046	20.723586
446.103653	-3.002500	3.789900	-11.379000	23.440206	0.001046	20.709287
447.108988	-2.987300	3.790900	-11.323000	23.454471	0.001046	20.707938
448.107429	-2.982200	3.789800	-11.301000	23.421585	0.001045	20.729979
449.122383	-3.012000	3.788900	-11.411000	23.459275	0.001048	20.713702
450.127060	-2.996500	3.788100	-11.350000	23.474314	0.001046	20.731149
451.105990	-2.988000	3.789500	-11.322000	23.451405	0.001046	20.717668
452.107515	-3.001500	3.787000	-11.365000	23.475978	0.001047	20.707211
453.110292	-2.986500	3.789000	-11.314000	23.452481	0.001046	20.717324
454.111145	-3.001500	3.787100	-11.366000	23.450262	0.001046	20.718420
455.127754	-3.000900	3.787300	-11.364000	23.451584	0.001048	20.704096
456.108097	-3.036900	3.786200	-11.497000	23.432563	0.001050	20.711584
457.109701	-3.021200	3.786800	-11.440000	23.432882	0.001049	20.717120
458.105994	-3.009300	3.786900	-11.394000	23.416203	0.001048	20.730274
459.108865	-3.003200	3.785900	-11.369000	23.435654	0.001051	20.710889
460.129282	-3.015100	3.786500	-11.415000	23.456216	0.001050	20.721542
461.143600	-3.000500	3.786300	-11.360000	23.455946	0.001050	20.736920
462.131222	-2.989600	3.786200	-11.318000	23.441975	0.001049	20.738089
463.139489	-3.001600	3.784000	-11.357000	23.453557	0.001049	20.732153
464.113790	-2.979400	3.786800	-11.281000	23.457390	0.001051	20.733151
465.133292	-3.005200	3.782900	-11.368000	23.461721	0.001050	20.719473
466.122998	-3.023600	3.782900	-11.437000	23.481042	0.001052	20.744057
467.127791	-3.006500	3.783900	-11.376000	23.523043	0.001051	20.729259
468.128442	-3.016400	3.784100	-11.413000	23.496701	0.001050	20.733200
469.134691	-2.982600	3.785100	-11.288000	23.498919	0.001050	20.730208
470.112613	-2.993000	3.783600	-11.323000	23.480127	0.001051	20.738399
471.120744	-2.998900	3.782500	-11.342000	23.493610	0.001050	20.726309
472.112443	-2.997900	3.782200	-11.337000	23.499318	0.001050	20.727289
473.115538	-2.991600	3.783300	-11.317000	23.517097	0.001051	20.738472
474.137137	-2.998600	3.782500	-11.342000	23.520849	0.001050	20.744605
475.116067	-3.011600	3.781700	-11.388000	23.540667	0.001052	20.749772
476.133587	-3.004900	3.781500	-11.362000	23.518288	0.001050	20.736822
477.140306	-2.997800	3.782200	-11.337000	23.553347	0.001052	20.751577
478.142905	-3.008000	3.781700	-11.375000	23.540145	0.001050	20.743084
479.132376	-3.001200	3.779400	-11.343000	23.558820	0.001053	20.759909
480.114655	-2.986100	3.781000	-11.290000	23.556847	0.001052	20.737067
481.149016	-2.985400	3.779700	-11.283000	23.556455	0.001052	20.754219
482.114267	-3.002500	3.779100	-11.346000	23.572292	0.001050	20.734532
483.131621	-2.996500	3.778300	-11.320000	23.589466	0.001054	20.763604
484.116326	-2.981500	3.779000	-11.265000	23.611451	0.001051	20.752452
485.124827	-2.997500	3.777100	-11.321000	23.583913	0.001051	20.740966
486.116423	-3.022500	3.777600	-11.417000	23.583766	0.001053	20.745086
487.136554	-2.987400	3.779800	-11.290000	23.582372	0.001054	20.748904
488.126439	-2.975900	3.778400	-11.244000	23.601494	0.001054	20.739625
489.126138	-3.011700	3.777800	-11.377000	23.591544	0.001054	20.751462
490.124667	-3.008300	3.776700	-11.360000	23.607447	0.001055	20.752231
491.121521	-2.979300	3.777800	-11.253000	23.609167	0.001052	20.747791
492.140086	-2.974700	3.777800	-11.237000	23.599806	0.001054	20.722284
493.125210	-3.020700	3.776100	-11.406000	23.605278	0.001055	20.754798
494.117460	-3.006000	3.775500	-11.347000	23.586618	0.001053	20.752688
495.119392	-2.996000	3.775400	-11.310000	23.619058	0.001053	20.756759
496.118255	-2.983300	3.776300	-11.265000	23.591748	0.001055	20.763046
497.125930	-3.025200	3.775100	-11.419000	23.613953	0.001051	20.768711
498.140443	-2.998100	3.774500	-11.313000	23.645520	0.001054	20.762424
499.120095	-3.007200	3.774200	-11.349000	23.632154	0.001053	20.755189
500.128136	-3.015200	3.773600	-11.377000	23.661485	0.001054	20.742867
501.155529	-3.017400	3.773200	-11.385000	23.659243	0.001055	20.769070
502.126072	-2.986400	3.774200	-11.269000	23.645282	0.001055	20.772617
503.137299	-2.992000	3.774500	-11.292000	23.665798	0.001056	20.769951
504.147218	-3.004600	3.773100	-11.336000	23.672657	0.001055	20.764974
505.149528	-3.017100	3.771200	-11.377000	23.702730	0.001054	20.771890
506.123828	-3.018600	3.771700	-11.384000	23.647475	0.001058	20.790937
507.149706	-3.001100	3.771200	-11.316000	23.648421	0.001059	20.768652
508.157458	-3.004200	3.770300	-11.326000	23.666215	0.001057	20.794077
509.139165	-3.002600	3.771900	-11.324000	23.684071	0.001056	20.770254
510.140509	-3.017500	3.770600	-11.377000	23.682474	0.001055	20.770548
511.145051	-2.979800	3.771100	-11.235000	23.692756	0.001056	20.742450
512.140338	-3.014400	3.769700	-11.362000	23.717170	0.001058	20.774988
513.128890	-2.982500	3.770700	-11.244000	23.713590	0.001056	20.766657
514.126835	-2.977400	3.771100	-11.227000	23.730321	0.001056	20.771578
515.125269	-3.011300	3.768100	-11.345000	23.716158	0.001056	20.763067
516.123468	-2.996700	3.770000	-11.297000	23.738329	0.001058	20.772968
517.127282	-3.005800	3.769000	-11.327000	23.746197	0.001058	20.761416
518.128117	-3.018700	3.768900	-11.375000	23.765310	0.001059	20.769200
519.134943	-2.990200	3.768400	-11.267000	23.765212	0.001056	20.776214
520.134748	-3.016300	3.768300	-11.365000	23.770715	0.001057	20.786948
521.124647	-3.000500	3.767800	-11.304000	23.775143	0.001058	20.771946
522.127788	-3.011800	3.767300	-11.345000	23.773577	0.001058	20.772273
523.134577	-3.020000	3.766100	-11.372000	23.763075	0.001058	20.763640
524.128244	-2.996800	3.767900	-11.290000	23.773830	0.001059	20.780113
525.153256	-3.009600	3.766000	-11.334000	23.775420	0.001057	20.767956
526.162834	-3.003000	3.766900	-11.311000	23.786321	0.001059	20.776516
527.147112	-2.977100	3.766100	-11.212000	23.803598	0.001057	20.771079
528.161447	-2.995700	3.765500	-11.278000	23.786346	0.001057	20.773221
529.143554	-3.010300	3.765000	-11.333000	23.796480	0.001059	20.784805
530.170725	-3.006900	3.766100	-11.322000	23.790560	0.001058	20.779344
531.149012	-3.006400	3.765400	-11.319000	23.758329	0.001056	20.774528
532.149277	-2.995900	3.765500	-11.281000	23.778404	0.001059	20.769052
533.140335	-3.001000	3.763600	-11.293000	23.772264	0.001057	20.780439
534.139811	-3.004400	3.764100	-11.308000	23.779137	0.001060	20.781167
535.136241	-3.014200	3.764800	-11.347000	23.783190	0.001060	20.802774
536.146329	-3.009100	3.762200	-11.320000	23.774506	0.001057	20.776997
537.140167	-3.013300	3.762200	-11.335000	23.780083	0.001059	20.775477
538.129656	-2.976000	3.763300	-11.198000	23.787926	0.001060	20.796617
539.135860	-3.019900	3.760900	-11.356000	23.776079	0.001058	20.783316
540.156619	-2.972100	3.761400	-11.178000	23.760270	0.001058	20.797811
541.137530	-2.989400	3.762600	-11.247000	23.741906	0.001058	20.792677
542.158779	-3.003500	3.760800	-11.293000	23.709618	0.001059	20.799185
543.152555	-2.983200	3.761700	-11.221000	23.733296	0.001058	20.798742
544.157431	-2.977700	3.761900	-11.201000	23.733541	0.001061	20.797565
545.156178	-2.998900	3.761000	-11.278000	23.763938	0.001061	20.788687
546.165070	-3.003700	3.759600	-11.291000	23.787828	0.001060	20.788458
547.167314	-2.995600	3.761100	-11.266000	23.796764	0.001060	20.800737
548.151361	-2.981500	3.761400	-11.213000	23.833674	0.001058	20.807874
549.163312	-3.005400	3.758700	-11.296000	23.816332	0.001060	20.789537
550.172230	-3.009500	3.759200	-11.312000	23.780440	0.001061	20.794802
551.144163	-2.991600	3.759100	-11.244000	23.785226	0.001061	20.809557
552.164098	-2.993600	3.758600	-11.251000	23.776762	0.001059	20.803916
553.162061	-3.004600	3.758200	-11.291000	23.800807	0.001059	20.807161
554.137956	-3.015600	3.758300	-11.332000	23.793233	0.001061	20.807154
555.137994	-2.986500	3.758000	-11.222000	23.799486	0.001061	20.800622
556.136758	-2.982200	3.758600	-11.208000	23.797489	0.001061	20.815215
557.138850	-2.998200	3.757800	-11.265000	23.806979	0.001060	20.814298
558.142625	-3.010800	3.756900	-11.310000	23.819894	0.001060	20.790738
559.165131	-3.021900	3.756400	-11.350000	23.826343	0.001062	20.802420
560.168564	-2.973500	3.757600	-11.172000	23.868135	0.001061	20.804022
561.160909	-3.002600	3.756200	-11.277000	23.865592	0.001062	20.817593
562.163894	-2.987300	3.755900	-11.219000	23.861679	0.001059	20.813669
563.161227	-2.999600	3.754900	-11.262000	23.854243	0.001061	20.811429
564.166213	-3.024200	3.754300	-11.352000	23.851153	0.001061	20.800744
565.159076	-3.020400	3.754500	-11.340000	23.836715	0.001060	20.790534
566.158578	-3.002800	3.753400	-11.270000	23.837415	0.001061	20.816841
567.172618	-3.028100	3.753400	-11.364000	23.853657	0.001060	20.808945
568.165132	-2.998700	3.754100	-11.257000	23.845177	0.001059	20.816089
569.165893	-3.005500	3.754000	-11.281000	23.833926	0.001059	20.800541
570.167061	-2.998500	3.753900	-11.253000	23.857570	0.001059	20.810024
571.165944	-3.003900	3.752900	-11.272000	23.867231	0.001060	20.816865
572.168892	-2.992900	3.752100	-11.229000	23.886790	0.001059	20.811822
573.167225	-3.006400	3.752400	-11.279000	23.906576	0.001060	20.822179
574.144912	-2.982200	3.751600	-11.185000	23.898839	0.001062	20.792610
575.161066	-2.993000	3.752000	-11.228000	23.917753	0.001060	20.786446
576.178082	-2.981500	3.751900	-11.185000	23.899508	0.001060	20.789488
577.166048	-2.993900	3.751100	-11.229000	23.883708	0.001059	20.794033
578.148854	-3.005800	3.751400	-11.275000	23.907179	0.001058	20.793861
579.174872	-2.976900	3.751700	-11.168000	23.904660	0.001061	20.770472
580.178138	-3.000000	3.750000	-11.249000	23.894233	0.001060	20.793207
581.163605	-2.992800	3.750100	-11.222000	23.876705	0.001061	20.773735
582.162438	-3.022600	3.749200	-11.331000	23.868699	0.001060	20.802216
583.151770	-3.003800	3.748900	-11.259000	23.853616	0.001061	20.774764
584.156556	-3.020800	3.748300	-11.323000	23.867052	0.001059	20.784918
585.152623	-3.021300	3.747700	-11.322000	23.873721	0.001060	20.806778
586.152755	-3.004400	3.748900	-11.262000	23.901277	0.001058	20.800270
587.160577	-3.010600	3.747500	-11.281000	23.930317	0.001058	20.776759
588.155629	-3.024400	3.747800	-11.334000	23.961720	0.001060	20.776007
589.177946	-3.009400	3.748300	-11.279000	23.956697	0.001060	20.807955
590.155490	-2.991600	3.747100	-11.209000	23.945871	0.001059	20.791409
591.172530	-2.988900	3.746700	-11.197000	23.935371	0.001060	20.754326
592.154797	-3.003700	3.746600	-11.253000	23.931466	0.001061	20.774592
593.164435	-2.999000	3.746900	-11.235000	23.946449	0.001060	20.765435
594.153792	-3.003400	3.745500	-11.248000	23.907252	0.001058	20.774020
595.163098	-2.984200	3.745800	-11.177000	23.905964	0.001060	20.783159
596.157743	-3.005400	3.744500	-11.253000	23.899613	0.001059	20.780584
597.156257	-3.019700	3.744600	-11.307000	23.919074	0.001060	20.769278
598.160744	-3.011400	3.744200	-11.274000	23.907904	0.001061	20.774199
599.159874	-2.995900	3.745500	-11.220000	23.909200	0.001059	20.778343
600.163464	-3.031800	3.743300	-11.346000	23.926997	0.001057	20.758731
601.165601	-3.000200	3.743800	-11.231000	23.953378	0.001059	20.779970
602.175396	-3.004600	3.744000	-11.248000	23.965174	0.001058	20.779945
603.162057	-3.001600	3.742700	-11.233000	23.941532	0.001061	20.780894
604.160960	-3.012500	3.742400	-11.272000	23.932597	0.001059	20.764347
605.180593	-3.015100	3.742900	-11.283000	23.933119	0.001059	20.776250
606.178592	-2.995900	3.743100	-11.212000	23.897109	0.001059	20.747726
607.162439	-2.997800	3.742400	-11.218000	23.900174	0.001060	20.801535
608.180735	-2.999000	3.741900	-11.221000	23.907372	0.001060	20.759915
609.161139	-3.010300	3.741700	-11.262000	23.915656	0.001059	20.756367
610.164478	-2.975600	3.742700	-11.136000	23.956288	0.001059	20.736894
611.163134	-3.002600	3.740900	-11.231000	23.975086	0.001056	20.753849
612.167966	-3.005000	3.741000	-11.241000	23.967170	0.001058	20.752075
613.162648	-3.022700	3.739600	-11.302000	23.975110	0.001059	20.763831
614.164903	-3.009600	3.740900	-11.258000	23.978991	0.001060	20.733108
615.171145	-3.005400	3.739000	-11.236000	24.000201	0.001059	20.757699
616.163830	-2.987600	3.741100	-11.175000	24.014476	0.001057	20.754470
617.182403	-3.010100	3.738800	-11.254000	23.994520	0.001057	20.754846
618.182648	-3.007200	3.738300	-11.241000	23.984763	0.001056	20.741741
619.164982	-2.981900	3.738500	-11.147000	23.964862	0.001060	20.737906
620.166207	-3.007100	3.737700	-11.238000	23.990395	0.001060	20.753554
621.165676	-2.993100	3.737600	-11.186000	23.989376	0.001059	20.732617
622.170756	-2.984700	3.739000	-11.157000	23.986637	0.001061	20.755001
623.167342	-2.995000	3.738200	-11.195000	23.970333	0.001059	20.743392
624.182178	-2.975900	3.737100	-11.120000	23.985838	0.001060	20.736656
625.166241	-3.004800	3.736400	-11.225000	24.002394	0.001061	20.753259
626.169501	-2.981600	3.736800	-11.141000	24.018665	0.001060	20.746817
627.185950	-2.995000	3.735500	-11.187000	24.033217	0.001057	20.731064
628.185010	-3.014600	3.735900	-11.260000	24.044841	0.001058	20.771172
629.192093	-2.975900	3.734800	-11.113000	24.034790	0.001059	20.735012
630.182414	-3.009300	3.734900	-11.238000	24.031399	0.001058	20.735405
631.187681	-2.992400	3.735400	-11.177000	24.067828	0.001057	20.750603
632.192664	-2.986800	3.734000	-11.151000	24.060110	0.001057	20.746655
633.167445	-3.010300	3.733500	-11.238000	24.072035	0.001059	20.744864
634.191152	-2.994700	3.733300	-11.179000	24.065041	0.001058	20.749230
635.169547	-3.001600	3.734400	-11.207000	24.075964	0.001059	20.744537
636.168971	-3.001100	3.733400	-11.204000	24.089299	0.001056	20.734678
637.169064	-2.992800	3.733200	-11.171000	24.096440	0.001058	20.732830
638.169594	-3.011500	3.732900	-11.240000	24.090718	0.001057	20.734678
639.172794	-3.010900	3.732700	-11.238000	24.128759	0.001059	20.720674
640.191334	-2.954000	3.734300	-11.030000	24.126273	0.001057	20.749950
641.193542	-2.999300	3.733300	-11.196000	24.111537	0.001056	20.746075
642.189645	-3.014400	3.731500	-11.247000	24.112759	0.001055	20.726912
643.200300	-2.990300	3.732600	-11.160000	24.084932	0.001056	20.743100
644.193164	-2.979500	3.732800	-11.121000	24.097427	0.001056	20.730501
645.198296	-2.999500	3.731400	-11.191000	24.116534	0.001054	20.716472
646.193962	-2.994800	3.732200	-11.176000	24.120568	0.001057	20.743754
647.192111	-2.983100	3.732400	-11.134000	24.143660	0.001058	20.721868
648.202559	-3.008000	3.730700	-11.221000	24.121065	0.001057	20.729079
649.200001	-3.005400	3.728800	-11.205000	24.115564	0.001057	20.733993
650.175872	-3.015100	3.728500	-11.241000	24.119370	0.001055	20.739707
651.176733	-2.997900	3.729600	-11.180000	24.120242	0.001055	20.719244
652.182138	-3.011600	3.729800	-11.232000	24.100558	0.001055	20.728425
653.194839	-3.011600	3.727300	-11.224000	24.097501	0.001057	20.741955
654.198313	-2.986200	3.727900	-11.131000	24.103990	0.001055	20.726177
655.179724	-2.993600	3.728300	-11.160000	24.109663	0.001055	20.724755
656.178591	-2.976900	3.729300	-11.101000	24.113715	0.001053	20.718861
657.180182	-2.988100	3.728600	-11.140000	24.113893	0.001055	20.714772
658.181127	-3.004100	3.726900	-11.195000	24.088935	0.001054	20.742373
659.180331	-2.972700	3.729000	-11.084000	24.124711	0.001054	20.746486
660.178815	-3.004700	3.726400	-11.195000	24.121906	0.001053	20.728973
661.181155	-3.002200	3.726100	-11.186000	24.142325	0.001054	20.724797
662.184275	-3.002300	3.726400	-11.187000	24.127099	0.001054	20.722327
663.180161	-2.985900	3.725800	-11.124000	24.130832	0.001054	20.729391
664.178121	-3.019000	3.724600	-11.244000	24.066357	0.001053	20.700761
665.178054	-2.990900	3.725500	-11.141000	24.064490	0.001054	20.730659
666.179986	-3.015700	3.725100	-11.231000	24.073399	0.001051	20.717308
667.198779	-2.989600	3.724900	-11.135000	24.075266	0.001052	20.738622
668.195723	-2.993800	3.724000	-11.148000	24.091757	0.001051	20.726711
669.201710	-2.994400	3.724400	-11.151000	24.116943	0.001050	20.725892
670.197085	-2.990000	3.724000	-11.134000	24.144583	0.001053	20.705249
671.200701	-3.042300	3.722200	-11.322000	24.155653	0.001051	20.734845
672.208566	-2.994000	3.723000	-11.146000	24.170927	0.001050	20.724561
673.200256	-2.980500	3.723900	-11.098000	24.195558	0.001051	20.710859
674.195261	-3.020000	3.722000	-11.239000	24.158261	0.001052	20.715650
675.201278	-3.039000	3.721200	-11.308000	24.156444	0.001051	20.708136
676.215836	-3.011100	3.721200	-11.204000	24.203024	0.001051	20.704122
677.184183	-3.011300	3.721300	-11.205000	24.209716	0.001050	20.719369
678.201486	-2.991900	3.722800	-11.138000	24.158009	0.001050	20.698326
679.185041	-3.015800	3.720800	-11.220000	24.145024	0.001049	20.732246
680.188045	-3.013700	3.720600	-11.211000	24.139694	0.001051	20.702716
681.205592	-2.990000	3.720800	-11.124000	24.160324	0.001052	20.722460
682.182066	-3.011000	3.718600	-11.196000	24.171915	0.001051	20.719861
683.182585	-3.023500	3.719500	-11.244000	24.181296	0.001049	20.706036
684.203808	-3.000300	3.720600	-11.161000	24.195926	0.001051	20.710279
685.192811	-3.007400	3.719000	-11.183000	24.208959	0.001049	20.698694
686.202999	-3.008700	3.718000	-11.183000	24.209040	0.001049	20.718691
687.203584	-2.985500	3.719800	-11.104000	24.203766	0.001051	20.714824
688.198590	-2.996000	3.717200	-11.136000	24.213571	0.001050	20.705692
689.209112	-3.007500	3.717600	-11.179000	24.235634	0.001051	20.717866
690.184865	-2.980900	3.719700	-11.086000	24.231705	0.001049	20.713925
691.190330	-2.987900	3.717400	-11.107000	24.230508	0.001049	20.726949
692.195749	-2.992300	3.718100	-11.125000	24.205251	0.001049	20.707304
693.188925	-2.999800	3.717100	-11.149000	24.237745	0.001049	20.712871
694.189109	-3.001900	3.716800	-11.156000	24.230214	0.001049	20.702945
695.185009	-2.995500	3.716800	-11.132000	24.245096	0.001049	20.717399
696.191394	-2.960500	3.717100	-11.004000	24.263506	0.001046	20.711684
697.185608	-3.009700	3.715600	-11.181000	24.260141	0.001049	20.711154
698.185351	-3.006000	3.715300	-11.167000	24.284932	0.001047	20.727013
699.189801	-3.013500	3.715200	-11.195000	24.255243	0.001046	20.704817
700.188867	-3.014600	3.715400	-11.200000	24.271990	0.001046	20.683208
701.185742	-3.004200	3.716000	-11.162000	24.250246	0.001046	20.696486
702.199571	-3.005400	3.714800	-11.164000	24.305079	0.001044	20.699805
703.212491	-2.996900	3.715500	-11.135000	24.295079	0.001045	20.726760
704.207119	-2.974500	3.715300	-11.050000	24.290751	0.001045	20.711038
705.210188	-2.997600	3.714900	-11.135000	24.306749	0.001046	20.708593
706.187232	-2.969600	3.715300	-11.032000	24.287435	0.001044	20.684002
707.210532	-3.004600	3.713500	-11.157000	24.301917	0.001044	20.703272
708.216051	-3.021600	3.713100	-11.218000	24.290866	0.001046	20.670373
709.214420	-3.026200	3.711800	-11.232000	24.314304	0.001046	20.705741
710.186958	-3.007000	3.713000	-11.164000	24.300523	0.001047	20.681957
711.206022	-3.005100	3.713000	-11.157000	24.303905	0.001044	20.695309
712.203632	-2.985500	3.713700	-11.085000	24.307386	0.001045	20.690265
713.212031	-3.004900	3.712200	-11.154000	24.287452	0.001045	20.692080
714.212193	-3.025200	3.710900	-11.225000	24.304119	0.001043	20.721129
715.207015	-2.977900	3.712200	-11.053000	24.309791	0.001043	20.710697
716.207458	-2.992800	3.711600	-11.106000	24.294224	0.001042	20.701245
717.204658	-3.005400	3.711200	-11.152000	24.268275	0.001044	20.698449
718.209368	-2.994500	3.712000	-11.114000	24.306580	0.001043	20.672859
719.197071	-2.984000	3.710900	-11.072000	24.298667	0.001043	20.690053
720.214514	-2.996700	3.710800	-11.120000	24.307329	0.001043	20.684518
721.206887	-2.993000	3.709400	-11.101000	24.338217	0.001043	20.676147
722.205243	-2.976500	3.710800	-11.043000	24.363521	0.001043	20.688255
723.195148	-3.010300	3.709900	-11.167000	24.336985	0.001040	20.689137
724.190085	-3.006700	3.709400	-11.151000	24.326285	0.001044	20.694051
725.198706	-3.014800	3.708900	-11.180000	24.324860	0.001044	20.688353
726.193258	-2.998400	3.709400	-11.121000	24.337972	0.001041	20.693921
727.194977	-3.004900	3.708000	-11.141000	24.348420	0.001040	20.696815
728.198846	-2.999000	3.708200	-11.120000	24.335406	0.001040	20.675697
729.207015	-3.009100	3.707600	-11.156000	24.361192	0.001041	20.676909
730.195023	-3.016900	3.706000	-11.180000	24.356921	0.001040	20.691592
731.198395	-2.987700	3.707800	-11.077000	24.380203	0.001041	20.687921
732.211883	-2.979400	3.708400	-11.048000	24.382265	0.001042	20.687619
733.196845	-2.981800	3.706900	-11.052000	24.386764	0.001041	20.680277
734.198601	-2.995600	3.706200	-11.101000	24.377490	0.001040	20.672869
735.194305	-3.012300	3.706400	-11.164000	24.387741	0.001040	20.699751
736.194599	-3.011300	3.705400	-11.157000	24.403412	0.001038	20.678012
737.194418	-3.002500	3.706200	-11.126000	24.396836	0.001038	20.682322
738.195464	-3.005500	3.706400	-11.138000	24.405897	0.001037	20.668651
739.203230	-3.013000	3.705300	-11.162000	24.376912	0.001038	20.693629
740.214480	-2.981900	3.705800	-11.050000	24.343304	0.001039	20.677931
741.195700	-3.020700	3.704400	-11.188000	24.318001	0.001039	20.678152
742.217327	-2.997300	3.702700	-11.097000	24.320364	0.001039	20.679575
743.219740	-2.992000	3.703900	-11.081000	24.340762	0.001039	20.672061
744.212662	-3.012100	3.702300	-11.151000	24.345734	0.001038	20.679894
745.201501	-3.021100	3.702200	-11.184000	24.332401	0.001037	20.683115
746.198707	-3.002200	3.703200	-11.116000	24.286853	0.001038	20.680572
747.225877	-2.998500	3.702600	-11.100000	24.278019	0.001038	20.693049
748.222574	-2.979100	3.703400	-11.032000	24.285925	0.001037	20.681064
749.230001	-2.977200	3.701200	-11.018000	24.242436	0.001037	20.682012
750.211198	-2.992900	3.700100	-11.073000	24.232664	0.001036	20.681693
751.203546	-3.001300	3.700200	-11.104000	24.244719	0.001036	20.681457
752.205597	-3.005600	3.699200	-11.117000	24.260318	0.001037	20.696157
753.206490	-2.996500	3.699800	-11.085000	24.291915	0.001037	20.670951
754.206489	-2.995500	3.700400	-11.084000	24.272430	0.001035	20.685071
755.206378	-3.008200	3.699800	-11.128000	24.284499	0.001036	20.685799
756.205081	-2.996700	3.700600	-11.089000	24.304222	0.001037	20.666226
757.204955	-2.997200	3.699200	-11.086000	24.323683	0.001034	20.678162
758.206986	-2.999500	3.698900	-11.094000	24.320896	0.001036	20.671098
759.205552	-3.003600	3.699500	-11.110000	24.303448	0.001035	20.685366
760.205707	-2.982000	3.700100	-11.031000	24.307759	0.001034	20.685897
761.211327	-2.972300	3.700000	-10.996000	24.307832	0.001033	20.661312
762.207023	-2.981800	3.698900	-11.027000	24.294548	0.001034	20.672644
763.210717	-2.996100	3.698500	-11.080000	24.321834	0.001034	20.660659
764.205696	-2.990400	3.698400	-11.058000	24.327334	0.001034	20.674713
765.207892	-2.992800	3.699200	-11.069000	24.341318	0.001031	20.650331
766.206501	-3.003700	3.697800	-11.106000	24.358653	0.001033	20.665351
767.209882	-3.009500	3.697100	-11.125000	24.370028	0.001032	20.653054
768.207012	-3.018400	3.696900	-11.158000	24.375521	0.001030	20.669472
769.208951	-2.997600	3.696500	-11.079000	24.353576	0.001032	20.663578
770.207110	-3.000800	3.696400	-11.091000	24.334473	0.001029	20.657216
771.208238	-2.981500	3.696200	-11.019000	24.335622	0.001032	20.656946
772.224206	-2.992000	3.696500	-11.057000	24.344294	0.001031	20.680347
773.224674	-2.995300	3.697100	-11.073000	24.343520	0.001032	20.645902
774.232102	-2.998700	3.694800	-11.079000	24.337057	0.001031	20.679725
775.223168	-2.995300	3.694600	-11.066000	24.348597	0.001032	20.688457
776.227035	-3.002300	3.693700	-11.088000	24.339470	0.001030	20.674558
777.234803	-3.003800	3.694800	-11.098000	24.310735	0.001029	20.676553
778.216202	-3.000800	3.694500	-11.085000	24.314719	0.001031	20.646408
779.211163	-2.978000	3.693100	-10.998000	24.317303	0.001029	20.681246
780.213613	-2.998400	3.694000	-11.074000	24.345688	0.001030	20.657560
781.237094	-3.006400	3.693200	-11.102000	24.344312	0.001029	20.671828
782.222632	-3.004300	3.691700	-11.089000	24.374684	0.001031	20.664838
783.229912	-2.996900	3.693400	-11.068000	24.403368	0.001029	20.641454
784.226329	-2.964000	3.694900	-10.950000	24.387372	0.001028	20.678516
785.227078	-3.007300	3.690900	-11.098000	24.381473	0.001028	20.657423
786.227525	-3.006400	3.691200	-11.095000	24.395155	0.001029	20.677315
787.231022	-2.990800	3.691600	-11.040000	24.371816	0.001028	20.670497
788.236432	-2.992900	3.691400	-11.047000	24.369527	0.001027	20.673416
789.210895	-2.997000	3.691600	-11.062000	24.363886	0.001027	20.670128
790.212321	-3.024600	3.690500	-11.162000	24.385873	0.001027	20.658993
791.212435	-2.990400	3.690600	-11.034000	24.403508	0.001026	20.659141
792.218622	-3.024700	3.689100	-11.156000	24.396663	0.001025	20.661757
793.218325	-2.996900	3.690100	-11.058000	24.396264	0.001025	20.684119
794.212439	-2.991700	3.689800	-11.038000	24.398236	0.001025	20.666180
795.213672	-2.987300	3.688200	-11.016000	24.374768	0.001024	20.648799
796.217552	-3.000600	3.688500	-11.065000	24.362958	0.001025	20.658290
797.236386	-2.986400	3.690400	-11.020000	24.327876	0.001024	20.664350
798.241150	-2.992500	3.688400	-11.037000	24.330117	0.001023	20.657588
799.233878	-3.006100	3.687500	-11.085000	24.337665	0.001023	20.655677
800.233335	-3.016900	3.688100	-11.126000	24.339367	0.001024	20.662126
801.218213	-2.992100	3.687500	-11.031000	24.358022	0.001023	20.643379
802.216970	-2.991000	3.687600	-11.028000	24.363368	0.001022	20.669608
803.232405	-3.017200	3.686600	-11.121000	24.365959	0.001023	20.657033
804.240191	-3.000000	3.686800	-11.059000	24.358347	0.001023	20.663622
805.235301	-2.989500	3.687100	-11.020000	24.367671	0.001024	20.644524
806.237088	-3.010400	3.687000	-11.098000	24.360409	0.001022	20.669485
807.232580	-2.978800	3.686300	-10.979000	24.365339	0.001022	20.657359
808.213450	-2.986900	3.686600	-11.010000	24.381426	0.001021	20.671129
809.232221	-2.997800	3.687700	-11.053000	24.383219	0.001023	20.662969
810.237028	-2.995300	3.684900	-11.036000	24.364607	0.001020	20.671325
811.236443	-3.009600	3.685700	-11.091000	24.344356	0.001023	20.646266
812.234955	-3.005300	3.683600	-11.069000	24.309876	0.001022	20.671898
813.233210	-3.003100	3.684600	-11.063000	24.295118	0.001023	20.665154
814.245256	-3.004400	3.685800	-11.073000	24.294351	0.001020	20.664859
815.231118	-2.987000	3.685000	-11.006000	24.319386	0.001022	20.669583
816.218216	-2.996800	3.683400	-11.038000	24.347518	0.001019	20.655129
817.233445	-3.005400	3.683100	-11.069000	24.362033	0.001019	20.688186
818.224958	-2.985600	3.684300	-10.999000	24.376017	0.001019	20.680402
819.220118	-2.982600	3.685200	-10.990000	24.414080	0.001017	20.674016
820.241586	-3.022400	3.683300	-11.129000	24.427535	0.001019	20.660011
821.233348	-3.028600	3.681100	-11.147000	24.447287	0.001018	20.676984
822.218821	-2.999000	3.682700	-11.044000	24.473484	0.001020	20.671497
823.219781	-3.010100	3.681500	-11.080000	24.456396	0.001018	20.685650
824.218470	-2.998200	3.681400	-11.036000	24.439676	0.001017	20.673615
825.240538	-2.987000	3.681300	-10.995000	24.443481	0.001017	20.684072
826.241142	-3.001700	3.681300	-11.048000	24.418155	0.001015	20.675733
827.245355	-2.996600	3.681100	-11.030000	24.459330	0.001016	20.678635
828.228874	-2.964200	3.681500	-10.911000	24.448925	0.001015	20.668670
829.235038	-3.004100	3.680500	-11.055000	24.448354	0.001015	20.673788
830.249475	-3.004700	3.681300	-11.060000	24.439627	0.001017	20.678308
831.245760	-3.004300	3.678600	-11.051000	24.434697	0.001015	20.673362
832.254954	-3.002500	3.680500	-11.050000	24.452062	0.001013	20.667075
833.254621	-2.992500	3.679500	-11.010000	24.468180	0.001015	20.669969
834.220681	-3.008500	3.678900	-11.065000	24.468327	0.001014	20.649252
835.220367	-2.993900	3.678300	-11.011000	24.447759	0.001014	20.679829
836.221273	-2.986800	3.679300	-10.989000	24.447066	0.001014	20.665382
837.220927	-2.974300	3.679100	-10.942000	24.464178	0.001011	20.691561
838.221710	-2.979900	3.679300	-10.962000	24.491565	0.001012	20.680630
839.224499	-2.998800	3.676900	-11.025000	24.493553	0.001012	20.694954
840.223573	-3.011800	3.676800	-11.072000	24.493504	0.001012	20.667876
841.224018	-2.980400	3.677300	-10.958000	24.471422	0.001014	20.676067
842.245906	-2.990500	3.676800	-10.995000	24.464357	0.001012	20.707389
843.244555	-3.007400	3.677200	-11.057000	24.441517	0.001011	20.681628
844.251738	-3.015500	3.676500	-11.086000	24.439161	0.001012	20.676893
845.245096	-3.022700	3.675700	-11.110000	24.445785	0.001008	20.683539
846.257441	-3.001200	3.677500	-11.036000	24.484907	0.001012	20.683433
847.247653	-2.990700	3.676700	-10.994000	24.499687	0.001010	20.674554
848.253191	-2.999100	3.674400	-11.019000	24.532411	0.001009	20.668979
849.257319	-2.995500	3.676400	-11.011000	24.538642	0.001011	20.678077
850.248409	-3.005400	3.673600	-11.040000	24.551500	0.001009	20.681969
851.252021	-3.013600	3.674300	-11.071000	24.572660	0.001008	20.670957
852.253834	-3.008700	3.674800	-11.055000	24.575307	0.001009	20.684519
853.255058	-2.998100	3.674600	-11.016000	24.561025	0.001010	20.679672
854.247837	-2.996600	3.674100	-11.009000	24.567192	0.001010	20.670212
855.242942	-2.997800	3.673800	-11.012000	24.579259	0.001008	20.668568
856.257829	-3.003900	3.673800	-11.035000	24.586470	0.001009	20.685762
857.253221	-3.003400	3.673100	-11.032000	24.592294	0.001008	20.681175
858.245885	-3.006400	3.672200	-11.039000	24.592294	0.001008	20.684969
859.247468	-3.010900	3.671800	-11.052000	24.606912	0.001009	20.676401
860.231721	-2.984400	3.671500	-10.957000	24.606439	0.001008	20.681143
861.249847	-3.011900	3.671400	-11.057000	24.621659	0.001006	20.686932
862.254335	-3.010200	3.670400	-11.047000	24.622236	0.001006	20.674234
863.229237	-2.990100	3.672200	-10.980000	24.638530	0.001006	20.688214
864.234419	-3.017500	3.670400	-11.074000	24.645692	0.001006	20.683072
865.226402	-3.009300	3.671400	-11.047000	24.628135	0.001006	20.697698
866.235900	-3.002200	3.671200	-11.021000	24.611995	0.001007	20.695254
867.231824	-3.002700	3.670400	-11.020000	24.623630	0.001004	20.710248
868.228443	-2.964900	3.672000	-10.886000	24.601290	0.001003	20.700160
869.231044	-2.995100	3.668600	-10.987000	24.612362	0.001004	20.715538
870.228771	-2.998000	3.669600	-11.000000	24.606611	0.001006	20.678944
871.232885	-3.003400	3.668900	-11.017000	24.611889	0.001004	20.690880
872.233416	-2.977000	3.669900	-10.925000	24.611417	0.001003	20.703684
873.246953	-2.990000	3.668700	-10.968000	24.586795	0.001002	20.697944
874.231995	-3.008600	3.668600	-11.037000	24.588286	0.001003	20.689008
875.233990	-3.013100	3.668200	-11.052000	24.577515	0.001003	20.691003
876.234818	-2.990500	3.668900	-10.971000	24.577011	0.001002	20.698084
877.248455	-3.005000	3.667600	-11.020000	24.571617	0.001002	20.704526
878.258779	-3.005400	3.667300	-11.021000	24.607353	0.001001	20.711934
879.231611	-3.003800	3.667600	-11.016000	24.605658	0.000999	20.694586
880.234845	-2.993900	3.666400	-10.976000	24.615386	0.001000	20.702925
881.235065	-2.992500	3.666100	-10.969000	24.618099	0.001002	20.712760
882.245392	-2.982100	3.666600	-10.932000	24.616503	0.001001	20.687922
883.238327	-3.020900	3.666200	-11.072000	24.613832	0.001001	20.700416
884.232818	-3.022600	3.664900	-11.075000	24.622859	0.001001	20.698095
885.240286	-3.000500	3.665300	-10.997000	24.653549	0.001001	20.675308
886.244269	-2.970000	3.665100	-10.882000	24.639643	0.001000	20.690279
887.239990	-2.995300	3.664500	-10.975000	24.661981	0.001000	20.695625
888.234350	-3.009000	3.665000	-11.027000	24.648817	0.001000	20.689527
889.240547	-2.993800	3.665600	-10.973000	24.630111	0.000999	20.693992
890.238134	-3.006300	3.663300	-11.011000	24.621532	0.000999	20.692970
891.240550	-3.018400	3.662900	-11.054000	24.646594	0.000999	20.698677
892.241915	-2.986400	3.664500	-10.942000	24.604758	0.000999	20.706011
893.240409	-2.999100	3.662900	-10.985000	24.579510	0.000999	20.701540
894.250108	-2.994700	3.663100	-10.969000	24.588488	0.000999	20.711972
895.236172	-2.992000	3.663700	-10.961000	24.597190	0.000998	20.710746
896.236676	-3.003700	3.663400	-11.003000	24.636803	0.000998	20.713984
897.262746	-3.019100	3.660800	-11.052000	24.620982	0.000995	20.710911
898.243197	-3.005700	3.661600	-11.004000	24.619116	0.000996	20.706668
899.253703	-3.003600	3.662300	-10.999000	24.590007	0.000998	20.704961
900.255996	-3.012900	3.661200	-11.029000	24.600680	0.000997	20.730370
901.253159	-2.996100	3.662000	-10.970000	24.594732	0.000995	20.705909
902.264116	-2.998200	3.661000	-10.975000	24.624716	0.000994	20.711813
903.256728	-2.994900	3.660200	-10.961000	24.627674	0.000996	20.700556
904.265447	-2.984000	3.660800	-10.923000	24.647447	0.000997	20.732726
905.263215	-3.020500	3.658500	-11.049000	24.646365	0.000996	20.711251
906.264534	-3.002100	3.658700	-10.982000	24.659043	0.000995	20.722551
907.261907	-3.006600	3.660100	-11.004000	24.611912	0.000995	20.707025
908.243635	-2.993800	3.660700	-10.958000	24.598736	0.000994	20.723204
909.275494	-2.982400	3.660200	-10.915000	24.600840	0.000992	20.714409
910.260621	-3.009000	3.658900	-11.009000	24.599072	0.000992	20.706470
911.264297	-3.015500	3.658000	-11.030000	24.583975	0.000992	20.726885
912.255122	-3.012800	3.657300	-11.016000	24.623589	0.000991	20.728226
913.272442	-3.010500	3.657600	-11.010000	24.602478	0.000993	20.736442
914.267506	-2.991200	3.658800	-10.943000	24.609608	0.000992	20.727475
915.261523	-2.981800	3.657800	-10.906000	24.620827	0.000990	20.718342
916.276955	-2.998200	3.658700	-10.969000	24.610105	0.000991	20.736509
917.266966	-3.001600	3.656900	-10.975000	24.590356	0.000990	20.720959
918.272265	-3.009500	3.657000	-11.005000	24.603532	0.000993	20.747457
919.270283	-3.006800	3.657500	-10.995000	24.609969	0.000992	20.738268
920.273238	-2.999500	3.656800	-10.968000	24.581248	0.000990	20.716087
921.275261	-3.003700	3.655500	-10.977000	24.578983	0.000991	20.728989
922.269080	-2.997600	3.656600	-10.960000	24.605814	0.000987	20.753066
923.276622	-2.999100	3.656100	-10.964000	24.585340	0.000988	20.749118
924.287415	-2.986300	3.655400	-10.915000	24.596111	0.000988	20.741907
925.266779	-2.991200	3.653600	-10.928000	24.599884	0.000989	20.742848
926.274468	-2.974100	3.654700	-10.869000	24.576288	0.000985	20.740983
927.265416	-3.023600	3.653800	-11.046000	24.573347	0.000988	20.729972
928.266976	-2.994400	3.654900	-10.943000	24.567995	0.000986	20.730291
929.271499	-2.983500	3.653500	-10.899000	24.549491	0.000987	20.745865
930.283275	-3.002400	3.654200	-10.969000	24.539812	0.000985	20.748482
931.265760	-2.989800	3.654800	-10.925000	24.553737	0.000986	20.753919
932.251587	-3.006000	3.653000	-10.979000	24.564858	0.000986	20.746585
933.262625	-3.020400	3.653700	-11.034000	24.597262	0.000983	20.742588
934.258866	-2.989900	3.652400	-10.919000	24.645013	0.000984	20.731233
935.257766	-3.016500	3.651700	-11.014000	24.653095	0.000984	20.725592
936.271163	-3.003700	3.651700	-10.966000	24.675353	0.000982	20.739392
937.272990	-2.988800	3.652100	-10.915000	24.666946	0.000986	20.751819
938.271532	-2.990900	3.651700	-10.922000	24.657365	0.000983	20.747895
939.281330	-3.009100	3.651400	-10.986000	24.670645	0.000981	20.741306
940.254174	-2.990400	3.652200	-10.921000	24.710312	0.000983	20.772103
941.271383	-2.998700	3.650800	-10.947000	24.690662	0.000984	20.754281
942.251689	-2.994200	3.650300	-10.928000	24.731144	0.000983	20.748436
943.271309	-2.999800	3.650500	-10.950000	24.767256	0.000983	20.747217
944.270883	-2.998400	3.649400	-10.941000	24.773293	0.000981	20.747112
945.275674	-2.981400	3.650800	-10.883000	24.787289	0.000980	20.753571
946.268326	-2.994700	3.650200	-10.930000	24.773594	0.000980	20.746940
947.269240	-3.006100	3.649300	-10.969000	24.780520	0.000981	20.752943
948.271473	-2.987200	3.649100	-10.899000	24.774728	0.000981	20.753768
949.271225	-2.989200	3.649300	-10.908000	24.816875	0.000979	20.756237
950.272389	-3.003800	3.647600	-10.955000	24.820354	0.000979	20.759728
951.280827	-2.993900	3.648400	-10.922000	24.823385	0.000977	20.767038
952.275671	-3.012400	3.646900	-10.985000	24.813823	0.000978	20.762183
953.277235	-2.992000	3.646700	-10.910000	24.797522	0.000976	20.760522
954.278367	-2.997000	3.648500	-10.933000	24.804903	0.000977	20.749437
955.273037	-2.994300	3.646700	-10.918000	24.787715	0.000978	20.777234
956.274516	-2.997600	3.647100	-10.930000	24.811542	0.000978	20.759893
957.276158	-2.994100	3.647400	-10.920000	24.790029	0.000977	20.752528
958.272472	-2.981400	3.647000	-10.871000	24.769835	0.000976	20.751703
959.272478	-2.989100	3.647000	-10.900000	24.781223	0.000976	20.769296
960.272966	-3.006800	3.645100	-10.959000	24.783635	0.000976	20.754646
961.288010	-3.008200	3.644900	-10.963000	24.796979	0.000978	20.788901
962.282110	-2.966800	3.646100	-10.817000	24.819307	0.000977	20.778119
963.284128	-3.000400	3.644600	-10.933000	24.832659	0.000974	20.765913
964.256305	-3.001000	3.645100	-10.938000	24.835143	0.000975	20.762717
965.257487	-3.007600	3.643900	-10.958000	24.849464	0.000976	20.774719
966.274288	-2.996900	3.643800	-10.919000	24.827511	0.000974	20.757428
967.275370	-3.005200	3.643400	-10.948000	24.812882	0.000974	20.786843
968.261893	-2.986400	3.643800	-10.881000	24.836008	0.000973	20.794879
969.272297	-2.986600	3.643200	-10.879000	24.822006	0.000971	20.764231
970.260100	-2.986700	3.642200	-10.877000	24.849359	0.000972	20.755173
971.270766	-2.992600	3.642500	-10.898000	24.831301	0.000970	20.778301
972.278993	-3.014000	3.642400	-10.976000	24.822047	0.000972	20.768541
973.259305	-2.996000	3.642900	-10.912000	24.818341	0.000970	20.776675
974.281773	-2.976600	3.643100	-10.843000	24.800209	0.000971	20.776970
975.277293	-2.990100	3.642600	-10.891000	24.820452	0.000972	20.794914
976.297746	-2.994100	3.640900	-10.900000	24.828084	0.000970	20.780289
977.289136	-2.981100	3.642100	-10.855000	24.809260	0.000971	20.795062
978.287230	-2.974500	3.640500	-10.828000	24.855332	0.000970	20.797678
979.290271	-2.990100	3.640200	-10.883000	24.875591	0.000969	20.782923
980.291986	-3.016200	3.639400	-10.976000	24.889739	0.000970	20.789063
981.290682	-2.977700	3.640900	-10.840000	24.874769	0.000971	20.783520
982.280431	-2.988500	3.639400	-10.875000	24.878793	0.000969	20.782818
983.281615	-3.009300	3.637700	-10.946000	24.866755	0.000967	20.805823
984.285879	-2.999900	3.639500	-10.917000	24.866128	0.000967	20.783858
985.264044	-3.001000	3.639000	-10.920000	24.829799	0.000967	20.786752
986.283617	-3.006200	3.639100	-10.938000	24.829848	0.000967	20.794862
987.264406	-2.998400	3.639400	-10.910000	24.833505	0.000966	20.785730
988.275091	-2.995600	3.638300	-10.897000	24.848666	0.000966	20.798100
989.265038	-3.009000	3.638300	-10.946000	24.880172	0.000964	20.782779
990.274210	-3.008400	3.637000	-10.941000	24.865477	0.000966	20.802645
991.313599	-3.010800	3.636700	-10.948000	24.883251	0.000964	20.801991
992.264786	-2.991400	3.636700	-10.878000	24.907223	0.000963	20.794282
993.270123	-3.000200	3.635800	-10.907000	24.928229	0.000965	20.798771
994.271132	-3.004100	3.636700	-10.924000	24.896952	0.000965	20.809578
995.303788	-3.016400	3.635000	-10.964000	24.906124	0.000965	20.800291
996.283314	-2.986100	3.635800	-10.856000	24.882884	0.000964	20.800200
997.293493	-3.026800	3.634600	-11.001000	24.906222	0.000963	20.797071
998.282407	-2.973200	3.635800	-10.807000	24.862716	0.000964	20.801296
999.280602	-3.006000	3.633300	-10.920000	24.861544	0.000963	20.781627
1000.284439	-2.995500	3.634500	-10.886000	24.853040	0.000962	20.811025
1001.272902	-3.014800	3.633400	-10.952000	24.889620	0.000962	20.810754
1002.271148	-2.965500	3.634300	-10.775000	24.864036	0.000961	20.803568
1003.292846	-3.019100	3.632700	-10.967000	24.871644	0.000960	20.830644
1004.291067	-3.008000	3.631800	-10.922000	24.863287	0.000959	20.802343
1005.292695	-3.007600	3.632900	-10.926000	24.869005	0.000960	20.811401
1006.293331	-2.995000	3.634200	-10.883000	24.847493	0.000960	20.804036
1007.291304	-2.997900	3.633800	-10.893000	24.807513	0.000960	20.802792
1008.300042	-2.993900	3.632600	-10.874000	24.811293	0.000960	20.806585
1009.300274	-2.996100	3.632100	-10.881000	24.826436	0.000959	20.793808
1010.273833	-2.995900	3.631900	-10.879000	24.874902	0.000958	20.804991
1011.286971	-3.004500	3.631300	-10.909000	24.890989	0.000958	20.830619
1012.283833	-3.021700	3.630600	-10.969000	24.925174	0.000957	20.803291
1013.277427	-2.973100	3.632800	-10.800000	24.944641	0.000959	20.813821
1014.274381	-2.977600	3.630400	-10.809000	24.968513	0.000956	20.819763
1015.280224	-2.980400	3.630300	-10.818000	25.011150	0.000956	20.822731
1016.305110	-2.995100	3.629400	-10.869000	24.999715	0.000958	20.807460
1017.302947	-3.006300	3.628500	-10.907000	25.011272	0.000955	20.811949
1018.308208	-2.995700	3.629900	-10.872000	25.015824	0.000957	20.816044
1019.299879	-3.016500	3.629500	-10.947000	25.031161	0.000955	20.828593
1020.296695	-3.003000	3.628100	-10.895000	25.010425	0.000955	20.784072
1021.275136	-2.972600	3.629200	-10.787000	25.004855	0.000953	20.824473
1022.277951	-2.984100	3.629000	-10.829000	24.998640	0.000954	20.820132
1023.274927	-2.973500	3.629000	-10.790000	24.992972	0.000954	20.809701
1024.295393	-3.001800	3.627700	-10.889000	24.988769	0.000953	20.808327
1025.279850	-2.989800	3.627300	-10.844000	24.992720	0.000954	20.809922
1026.276418	-3.001300	3.626700	-10.882000	24.983972	0.000952	20.824375
1027.288251	-3.018000	3.627200	-10.946000	24.981407	0.000952	20.822748
1028.278333	-2.997700	3.626700	-10.871000	24.999333	0.000950	20.815138
1029.282660	-3.002000	3.627200	-10.888000	24.992940	0.000949	20.824368
1030.288486	-2.982400	3.627000	-10.816000	24.990953	0.000951	20.834226
1031.281205	-3.012000	3.624900	-10.918000	24.991793	0.000950	20.821793
1032.281779	-3.004500	3.625000	-10.889000	25.009897	0.000947	20.834750
1033.282427	-2.982400	3.626800	-10.814000	25.022822	0.000948	20.832551
1034.279375	-3.008300	3.624500	-10.902000	25.008074	0.000949	20.834342
1035.284391	-3.001100	3.625600	-10.879000	25.055188	0.000947	20.814779
1036.284523	-2.987800	3.624500	-10.828000	25.036472	0.000947	20.821596
1037.281802	-2.993200	3.624200	-10.846000	25.014915	0.000947	20.825088
1038.285911	-3.002600	3.624100	-10.879000	25.006681	0.000947	20.837686
1039.280403	-3.006200	3.624500	-10.895000	24.956454	0.000946	20.830419
1040.284263	-3.009100	3.624000	-10.903000	24.960143	0.000945	20.828905
1041.280130	-2.988500	3.623900	-10.829000	24.973664	0.000945	20.831097
1042.281865	-3.007200	3.622100	-10.891000	24.995344	0.000946	20.832470
1043.293449	-3.026300	3.621000	-10.957000	25.003081	0.000943	20.818425
1044.294534	-3.020500	3.620800	-10.935000	24.998228	0.000945	20.831571
1045.306246	-2.991800	3.622100	-10.836000	24.977817	0.000943	20.818671
1046.300931	-3.017600	3.620000	-10.922000	24.997909	0.000942	20.826036
1047.311139	-3.011500	3.621100	-10.905000	25.010166	0.000940	20.835020
1048.321023	-3.011300	3.620700	-10.902000	25.022644	0.000943	20.803923
1049.302248	-3.003000	3.620500	-10.871000	25.053005	0.000943	20.811165
1050.288063	-3.000400	3.619800	-10.860000	25.032116	0.000940	20.813905
1051.296309	-3.001200	3.620100	-10.864000	25.015761	0.000943	20.809817
1052.312330	-2.996300	3.618700	-10.841000	24.984235	0.000942	20.811362
1053.303307	-3.001700	3.618600	-10.861000	24.958302	0.000941	20.819472
1054.286425	-3.007700	3.619600	-10.886000	24.944651	0.000941	20.821417
1055.287240	-2.998200	3.620000	-10.853000	24.940750	0.000938	20.829355
1056.311571	-3.004600	3.618600	-10.870000	24.955216	0.000940	20.814477
1057.312844	-2.991700	3.618500	-10.824000	24.992062	0.000939	20.814003
1058.311951	-2.988800	3.618200	-10.813000	24.985221	0.000938	20.811878
1059.293852	-2.985600	3.617500	-10.799000	24.966529	0.000937	20.802599
1060.321573	-2.982100	3.618900	-10.791000	24.922693	0.000938	20.803171
1061.293448	-2.998000	3.615900	-10.840000	24.935161	0.000937	20.785814
1062.294266	-3.013000	3.616300	-10.896000	24.940025	0.000939	20.796860
1063.292191	-2.983200	3.616200	-10.787000	24.958816	0.000936	20.779685
1064.318195	-2.988900	3.617200	-10.811000	24.976221	0.000936	20.822759
1065.311801	-3.011200	3.615600	-10.886000	24.996135	0.000936	20.802919
1066.311195	-2.989000	3.615700	-10.806000	24.987909	0.000937	20.795610
1067.313561	-2.986200	3.616100	-10.797000	24.965486	0.000935	20.789224
1068.292124	-3.007000	3.616100	-10.873000	24.997773	0.000934	20.807881
1069.291791	-3.016800	3.614200	-10.902000	24.998602	0.000934	20.802076
1070.292335	-3.034300	3.613300	-10.963000	24.994914	0.000933	20.807383
1071.296811	-2.974100	3.615700	-10.750000	25.001030	0.000933	20.803565
1072.317171	-2.994300	3.614200	-10.821000	24.983675	0.000932	20.782351
1073.317146	-2.999500	3.615200	-10.843000	24.956080	0.000931	20.796853
1074.309944	-2.991500	3.613400	-10.809000	24.951006	0.000934	20.803614
1075.313107	-2.994200	3.613800	-10.819000	24.944963	0.000931	20.784746
1076.326563	-2.998800	3.612200	-10.831000	24.947055	0.000930	20.802494
1077.324409	-3.002100	3.613700	-10.847000	24.949449	0.000930	20.786404
1078.313971	-2.993000	3.612500	-10.811000	24.978160	0.000932	20.804316
1079.315837	-2.996200	3.612300	-10.821000	24.995418	0.000930	20.796035
1080.321537	-3.019000	3.609900	-10.897000	25.005429	0.000931	20.795178
1081.307565	-2.988300	3.611500	-10.790000	25.028102	0.000928	20.797548
1082.299047	-2.996600	3.611200	-10.820000	25.040212	0.000929	20.781729
1083.299598	-2.987200	3.611800	-10.788000	25.031661	0.000929	20.806336
1084.294790	-2.986100	3.611100	-10.781000	25.024380	0.000931	20.767258
1085.303971	-2.992100	3.611100	-10.803000	25.048365	0.000926	20.774265
1086.307206	-2.997500	3.609900	-10.819000	25.036654	0.000927	20.774838
1087.310689	-2.984000	3.611000	-10.773000	25.082619	0.000928	20.783046
1088.299706	-3.013500	3.609100	-10.875000	25.037501	0.000927	20.779955
1089.298988	-3.012200	3.609700	-10.872000	25.063351	0.000925	20.775558
1090.305268	-2.999900	3.608400	-10.824000	25.066878	0.000925	20.764874
1091.314013	-3.002500	3.607300	-10.830000	25.087122	0.000924	20.792308
1092.315077	-3.000900	3.607900	-10.826000	25.103322	0.000922	20.792449
1093.303457	-2.991600	3.608300	-10.794000	25.102132	0.000926	20.783194
1094.303410	-3.002300	3.607800	-10.830000	25.118191	0.000923	20.777030
1095.299566	-3.014000	3.607500	-10.871000	25.114462	0.000922	20.783243
1096.302766	-3.027400	3.605900	-10.915000	25.067431	0.000924	20.774438
1097.304538	-3.000800	3.606500	-10.821000	25.087839	0.000922	20.765527
1098.303896	-3.000200	3.605700	-10.817000	25.076178	0.000922	20.761881
1099.326448	-2.995200	3.606300	-10.801000	25.140912	0.000922	20.787036
1100.314250	-3.011300	3.606000	-10.857000	25.125895	0.000922	20.778600
1101.321315	-2.993400	3.606600	-10.795000	25.106310	0.000921	20.757041
1102.300309	-3.015100	3.604200	-10.865000	25.102377	0.000922	20.763525
1103.305583	-3.008000	3.604900	-10.842000	25.094526	0.000919	20.760859
1104.317196	-3.003100	3.604100	-10.822000	25.130538	0.000921	20.758604
1105.303381	-2.993000	3.605000	-10.789000	25.089820	0.000919	20.781740
1106.301101	-2.997300	3.603700	-10.800000	25.093501	0.000918	20.771210
1107.309806	-3.002100	3.603500	-10.817000	25.125098	0.000917	20.780170
1108.305179	-2.990500	3.604600	-10.779000	25.095334	0.000917	20.750764
1109.300793	-2.966800	3.604000	-10.691000	25.102818	0.000916	20.763019
1110.304943	-2.996300	3.602600	-10.793000	25.110253	0.000915	20.758154
1111.312835	-2.991500	3.602200	-10.775000	25.123429	0.000916	20.742458
1112.304314	-3.018700	3.602200	-10.872000	25.111222	0.000915	20.764343
1113.303921	-2.993800	3.602300	-10.784000	25.066350	0.000915	20.771930
1114.307053	-2.993400	3.602100	-10.780000	25.056700	0.000914	20.772674
1115.325362	-2.998700	3.600500	-10.796000	25.020678	0.000914	20.747421
1116.308826	-2.999400	3.600800	-10.799000	24.978531	0.000913	20.772920
1117.316254	-3.007300	3.600600	-10.828000	25.009806	0.000911	20.768277
1118.321392	-3.002200	3.600600	-10.808000	25.064030	0.000913	20.771972
1119.329810	-3.001900	3.598900	-10.801000	25.054159	0.000912	20.774392
1120.322888	-2.994400	3.599000	-10.775000	25.061147	0.000912	20.760543
1121.330314	-3.010100	3.597800	-10.829000	25.023505	0.000912	20.751681
1122.321753	-3.009200	3.598000	-10.826000	25.018081	0.000910	20.760936
1123.330349	-3.017400	3.597200	-10.853000	24.989382	0.000908	20.778596
1124.330419	-2.998800	3.598900	-10.791000	25.011573	0.000909	20.764835
1125.315335	-2.979600	3.599000	-10.722000	25.040454	0.000909	20.765850
1126.309462	-3.027000	3.596600	-10.885000	25.036546	0.000908	20.755288
1127.320018	-2.998100	3.597600	-10.784000	25.049803	0.000910	20.740621
1128.319901	-2.991900	3.597300	-10.762000	25.069838	0.000910	20.755517
1129.329067	-2.980900	3.596400	-10.718000	25.090156	0.000909	20.731815
1130.330642	-2.989300	3.597600	-10.754000	25.090848	0.000909	20.770444
1131.312326	-2.982300	3.597600	-10.728000	25.117764	0.000908	20.749100
1132.329322	-3.007500	3.596600	-10.816000	25.124524	0.000908	20.766317
1133.332962	-2.993400	3.596600	-10.765000	25.115917	0.000907	20.736339
1134.339455	-3.001200	3.595800	-10.790000	25.132211	0.000905	20.735626
1135.343274	-3.032900	3.593800	-10.898000	25.125965	0.000906	20.752591
1136.333172	-3.005100	3.593800	-10.799000	25.098147	0.000905	20.744579
1137.332824	-2.998800	3.593900	-10.775000	25.114108	0.000904	20.745429
1138.333452	-2.992300	3.595100	-10.756000	25.129681	0.000905	20.761537
1139.337224	-3.005400	3.593600	-10.799000	25.152205	0.000905	20.760915
1140.312089	-3.005900	3.593200	-10.800000	25.139183	0.000902	20.756851
1141.315693	-3.014000	3.593700	-10.830000	25.112702	0.000905	20.744491
1142.312922	-2.998300	3.593000	-10.772000	25.072007	0.000903	20.759117
1143.312566	-3.004700	3.591600	-10.791000	25.037956	0.000903	20.755756
1144.317525	-3.001200	3.592500	-10.781000	25.012392	0.000902	20.750484
1145.323457	-2.996200	3.593100	-10.764000	25.029919	0.000904	20.740101
1146.316807	-3.025400	3.590000	-10.860000	25.034285	0.000900	20.761080
1147.321797	-2.986500	3.592000	-10.727000	25.061168	0.000903	20.752503
1148.333207	-3.014700	3.590400	-10.823000	25.059751	0.000900	20.762935
1149.337655	-3.009500	3.590900	-10.805000	25.047218	0.000899	20.734232
1150.315771	-3.016500	3.589700	-10.826000	25.018568	0.000898	20.745303
1151.316818	-3.007400	3.589600	-10.794000	25.026378	0.000899	20.735124
1152.317863	-2.979700	3.589100	-10.694000	25.036721	0.000900	20.744558
1153.315490	-2.986200	3.589800	-10.718000	25.089673	0.000900	20.760255
1154.322487	-2.998300	3.589100	-10.760000	25.109976	0.000897	20.755506
1155.316754	-2.998000	3.587900	-10.754000	25.128600	0.000897	20.746227
1156.318223	-3.009400	3.588700	-10.799000	25.104928	0.000895	20.725307
1157.332710	-2.994400	3.588900	-10.744000	25.113657	0.000896	20.740234
1158.336561	-3.001400	3.586500	-10.762000	25.087322	0.000893	20.736083
1159.339087	-3.006500	3.587100	-10.784000	25.088550	0.000896	20.733996
1160.334757	-2.989300	3.587800	-10.723000	25.089537	0.000893	20.748264
1161.317600	-3.000700	3.586900	-10.761000	25.087028	0.000892	20.722985
1162.319960	-2.998100	3.586500	-10.751000	25.072728	0.000893	20.737555
1163.322650	-3.006100	3.586300	-10.779000	25.100425	0.000892	20.733115
1164.319089	-3.011900	3.585900	-10.799000	25.096076	0.000890	20.732068
1165.330957	-3.016500	3.586500	-10.817000	25.106240	0.000892	20.745117
1166.339397	-2.997300	3.586000	-10.747000	25.098658	0.000890	20.737980
1167.322084	-3.034100	3.584600	-10.875000	25.114067	0.000889	20.734007
1168.325168	-2.986900	3.584600	-10.705000	25.089155	0.000889	20.734130
1169.333892	-3.013500	3.583900	-10.798000	25.112356	0.000889	20.723754
1170.320357	-3.010900	3.583200	-10.788000	25.118237	0.000887	20.733452
1171.320352	-3.016300	3.583100	-10.807000	25.125703	0.000888	20.727196
1172.324231	-3.010600	3.583600	-10.788000	25.108766	0.000888	20.720625
1173.337272	-2.998800	3.583300	-10.745000	25.120875	0.000888	20.740842
1174.335989	-2.984500	3.583700	-10.694000	25.124458	0.000885	20.738749
1175.321143	-3.014600	3.582000	-10.798000	25.086248	0.000886	20.734056
1176.321250	-2.998700	3.582800	-10.743000	25.098228	0.000886	20.739444
1177.320415	-3.018600	3.582700	-10.813000	25.106730	0.000885	20.722848
1178.323813	-3.011400	3.582100	-10.787000	25.128831	0.000884	20.736027
1179.326921	-2.991100	3.580300	-10.708000	25.131266	0.000884	20.710020
1180.323535	-3.007600	3.579900	-10.765000	25.141038	0.000885	20.716986
1181.331663	-2.976200	3.580200	-10.653000	25.132561	0.000883	20.729813
1182.326506	-3.025800	3.580100	-10.831000	25.129751	0.000885	20.725096
1183.343191	-2.991200	3.580000	-10.707000	25.134149	0.000882	20.735675
1184.340396	-2.993500	3.580700	-10.718000	25.138204	0.000882	20.716511
1185.342098	-2.981700	3.580100	-10.674000	25.126519	0.000883	20.724696
1186.344053	-3.006400	3.579300	-10.759000	25.150005	0.000882	20.727885
1187.342354	-2.995400	3.578500	-10.718000	25.149092	0.000882	20.735503
1188.362254	-3.012800	3.579500	-10.784000	25.190672	0.000880	20.707070
1189.345555	-2.997900	3.577400	-10.723000	25.202658	0.000880	20.744709
1190.340032	-2.976800	3.578900	-10.652000	25.220979	0.000880	20.729912
1191.344533	-3.011300	3.576600	-10.770000	25.231068	0.000880	20.718703
1192.352058	-3.033700	3.575400	-10.844000	25.213993	0.000879	20.743287
1193.349674	-2.972800	3.577700	-10.634000	25.173400	0.000880	20.709170
1194.345985	-3.007800	3.576800	-10.758000	25.143270	0.000877	20.723968
1195.352318	-2.994300	3.577600	-10.711000	25.112968	0.000878	20.709669
1196.345398	-2.982500	3.576800	-10.667000	25.141503	0.000876	20.732153
1197.339725	-3.018000	3.573700	-10.784000	25.140412	0.000878	20.707822
1198.347091	-3.003000	3.575000	-10.735000	25.171609	0.000876	20.704053
1199.352440	-3.012500	3.574800	-10.766000	25.200174	0.000875	20.715661
1200.346078	-3.012000	3.573900	-10.763000	25.248347	0.000875	20.714239
1201.331810	-2.976700	3.574900	-10.640000	25.251376	0.000875	20.718703
1202.330350	-3.000800	3.573000	-10.720000	25.285557	0.000874	20.729314
1203.338001	-3.013000	3.574000	-10.767000	25.277694	0.000874	20.731850
1204.333894	-3.000500	3.574200	-10.724000	25.271886	0.000873	20.715588
1205.344076	-2.971300	3.575600	-10.623000	25.250383	0.000871	20.694470
1206.332195	-2.974200	3.574100	-10.629000	25.231670	0.000872	20.717411
1207.352960	-3.001600	3.573900	-10.727000	25.223886	0.000871	20.700112
1208.349454	-3.013100	3.572100	-10.762000	25.230344	0.000871	20.708492
1209.353007	-2.998000	3.570900	-10.704000	25.186233	0.000869	20.694551
1210.333090	-3.007600	3.571800	-10.740000	25.149981	0.000871	20.712686
1211.332508	-2.995600	3.571400	-10.697000	25.110704	0.000870	20.711664
1212.332777	-3.001000	3.572700	-10.720000	25.085824	0.000869	20.697119
1213.333574	-3.029700	3.569300	-10.812000	25.086713	0.000866	20.691847
1214.334707	-2.997500	3.569600	-10.699000	25.089530	0.000868	20.703684
1215.335040	-2.999800	3.570200	-10.709000	25.100866	0.000866	20.699416
1216.338742	-2.997200	3.569700	-10.697000	25.118293	0.000866	20.700315
1217.340110	-2.971300	3.570000	-10.606000	25.138155	0.000866	20.705556
1218.336277	-2.983500	3.569600	-10.648000	25.168855	0.000865	20.703659
1219.345441	-2.996500	3.569100	-10.693000	25.186037	0.000866	20.691983
1220.352138	-3.000500	3.568400	-10.705000	25.185883	0.000864	20.698942
1221.341347	-3.012200	3.566700	-10.741000	25.248500	0.000864	20.707755
1222.360941	-2.982100	3.569600	-10.644000	25.263368	0.000863	20.699448
1223.336242	-3.010800	3.565900	-10.735000	25.263165	0.000865	20.689286
1224.362267	-2.992200	3.567100	-10.673000	25.265803	0.000862	20.690037
1225.351848	-2.988500	3.568300	-10.663000	25.287061	0.000863	20.695735
1226.355970	-3.009600	3.567900	-10.736000	25.300284	0.000862	20.693364
1227.361244	-3.006100	3.566000	-10.718000	25.317929	0.000862	20.694484
1228.334806	-3.009100	3.565100	-10.727000	25.282437	0.000861	20.679236
1229.361058	-2.996700	3.564900	-10.682000	25.229690	0.000859	20.679384
1230.336662	-2.978500	3.566300	-10.620000	25.179757	0.000860	20.701327
1231.336324	-2.979800	3.565400	-10.624000	25.177843	0.000860	20.701302
1232.339098	-3.006700	3.564100	-10.714000	25.171084	0.000859	20.698309
1233.337044	-2.992600	3.564100	-10.665000	25.166165	0.000856	20.684361
1234.337663	-3.010500	3.562200	-10.721000	25.147475	0.000859	20.690729
1235.337278	-2.990400	3.564000	-10.656000	25.155449	0.000856	20.690673
1236.337256	-3.011100	3.562400	-10.725000	25.164625	0.000857	20.687083
1237.340467	-2.995900	3.563600	-10.675000	25.156995	0.000859	20.695545
1238.338309	-2.999900	3.563700	-10.690000	25.144138	0.000857	20.691646
1239.362910	-2.990300	3.564500	-10.658000	25.133183	0.000856	20.699142
1240.338754	-3.025300	3.561000	-10.772000	25.135765	0.000855	20.696518
1241.352399	-2.990400	3.562700	-10.653000	25.151457	0.000858	20.685243
1242.364848	-3.013100	3.560700	-10.728000	25.116425	0.000853	20.682791
1243.359552	-2.986200	3.562200	-10.636000	25.139624	0.000852	20.685218
1244.359199	-3.002800	3.561600	-10.693000	25.123387	0.000854	20.679823
1245.369040	-2.988000	3.561500	-10.641000	25.151530	0.000852	20.674410
1246.363105	-3.009300	3.560900	-10.714000	25.150635	0.000854	20.684891
1247.370879	-3.020500	3.560200	-10.753000	25.149837	0.000854	20.693574
1248.350291	-2.986500	3.560900	-10.634000	25.157271	0.000852	20.680648
1249.352081	-2.995800	3.560500	-10.664000	25.169723	0.000853	20.683666
1250.356203	-2.997200	3.560000	-10.669000	25.142157	0.000849	20.675432
1251.344148	-2.997100	3.559400	-10.666000	25.155137	0.000851	20.677083
1252.351808	-2.998500	3.558100	-10.668000	25.179820	0.000849	20.677206
1253.357881	-2.989300	3.558300	-10.636000	25.220640	0.000849	20.670771
1254.351837	-3.006500	3.556900	-10.693000	25.251761	0.000848	20.687319
1255.367184	-2.981700	3.557300	-10.606000	25.244750	0.000849	20.678383
1256.367500	-3.021900	3.555300	-10.743000	25.268860	0.000848	20.667975
1257.366473	-3.019000	3.557000	-10.738000	25.299207	0.000846	20.680901
1258.372358	-3.015300	3.557500	-10.726000	25.307039	0.000846	20.675962
1259.370183	-2.997400	3.557100	-10.661000	25.298514	0.000847	20.683051
1260.361421	-2.992400	3.556400	-10.641000	25.325205	0.000844	20.673813
1261.369126	-3.008500	3.555800	-10.697000	25.330350	0.000846	20.677557
1262.368158	-3.019000	3.555200	-10.732000	25.317981	0.000846	20.678414
1263.388898	-3.012500	3.554100	-10.705000	25.311965	0.000844	20.687073
1264.372938	-2.984200	3.555500	-10.610000	25.337171	0.000843	20.675397
1265.378656	-2.998100	3.554600	-10.656000	25.297545	0.000842	20.681604
1266.375230	-3.014900	3.554600	-10.716000	25.325887	0.000844	20.661220
1267.364905	-3.001800	3.553400	-10.665000	25.309432	0.000840	20.673149
1268.345761	-2.976600	3.554600	-10.579000	25.335258	0.000843	20.662569
1269.355875	-3.009900	3.553700	-10.695000	25.341967	0.000843	20.671203
1270.355946	-2.992100	3.553200	-10.631000	25.353080	0.000842	20.680465
1271.359692	-3.018000	3.551400	-10.717000	25.343335	0.000840	20.672102
1272.357407	-3.007500	3.553200	-10.685000	25.351289	0.000838	20.666338
1273.349913	-2.995400	3.552200	-10.639000	25.323249	0.000836	20.666633
1274.350028	-3.020700	3.550400	-10.723000	25.317939	0.000839	20.670310
1275.361414	-3.008300	3.551100	-10.681000	25.324551	0.000837	20.676001
1276.359559	-3.011700	3.550700	-10.693000	25.317093	0.000840	20.661873
1277.352017	-2.995400	3.551000	-10.635000	25.309138	0.000838	20.673328
1278.352450	-2.990000	3.551200	-10.617000	25.330763	0.000838	20.658055
1279.367614	-3.006700	3.549700	-10.672000	25.323777	0.000836	20.669534
1280.367222	-2.998600	3.549500	-10.643000	25.323428	0.000837	20.684357
1281.386551	-3.011900	3.548700	-10.688000	25.281177	0.000836	20.693620
1282.383445	-3.011900	3.549400	-10.689000	25.283325	0.000836	20.674438
1283.375444	-3.007100	3.549100	-10.671000	25.255553	0.000835	20.673107
1284.371774	-3.000400	3.549800	-10.649000	25.259460	0.000832	20.665649
1285.374331	-2.992500	3.549100	-10.620000	25.266789	0.000833	20.676802
1286.380365	-3.015500	3.547900	-10.697000	25.272824	0.000835	20.677645
1287.373249	-3.007500	3.549600	-10.674000	25.312052	0.000833	20.680996
1288.376047	-3.010700	3.547700	-10.679000	25.340355	0.000832	20.669583
1289.372197	-2.999200	3.546400	-10.635000	25.354472	0.000831	20.658153
1290.382010	-2.974700	3.547900	-10.553000	25.373337	0.000832	20.676623
1291.382451	-3.010300	3.546800	-10.676000	25.378244	0.000831	20.673015
1292.382572	-3.005900	3.546500	-10.659000	25.343268	0.000830	20.667293
1293.386328	-2.979400	3.546700	-10.566000	25.270137	0.000829	20.658350
1294.375484	-2.987000	3.544400	-10.586000	25.246401	0.000830	20.672927
1295.363630	-2.984900	3.545500	-10.582000	25.226933	0.000828	20.659070
1296.362238	-3.005100	3.544600	-10.651000	25.223676	0.000827	20.677139
1297.384464	-3.003200	3.544000	-10.643000	25.228724	0.000826	20.677466
1298.375226	-2.997500	3.545700	-10.627000	25.246100	0.000827	20.706293
1299.386910	-3.014000	3.544100	-10.680000	25.257834	0.000826	20.681087
1300.370354	-2.986200	3.544300	-10.581000	25.256141	0.000825	20.677490
1301.363421	-3.000200	3.543800	-10.630000	25.262207	0.000826	20.691168
1302.365303	-2.986000	3.544400	-10.583000	25.224376	0.000824	20.679738
1303.393031	-3.003500	3.542600	-10.639000	25.198246	0.000824	20.681955
1304.389684	-2.999400	3.542200	-10.624000	25.171780	0.000823	20.671979
1305.385889	-3.003000	3.541400	-10.634000	25.182961	0.000823	20.693163
1306.368758	-2.980100	3.543100	-10.558000	25.180323	0.000822	20.676289
1307.388583	-3.004700	3.541900	-10.641000	25.197099	0.000820	20.680329
1308.389523	-3.017200	3.539200	-10.677000	25.191658	0.000823	20.695257
1309.386047	-2.992700	3.540800	-10.595000	25.253184	0.000821	20.662667
1310.388329	-2.976900	3.541000	-10.540000	25.246492	0.000821	20.683925
1311.387999	-2.992700	3.540100	-10.591000	25.270683	0.000821	20.679289
1312.386771	-2.992400	3.542000	-10.598000	25.270609	0.000820	20.689173
1313.376846	-3.000900	3.538500	-10.617000	25.287261	0.000820	20.680761
1314.368809	-2.999900	3.540800	-10.620000	25.266856	0.000817	20.680662
1315.391880	-3.001800	3.539000	-10.622000	25.237323	0.000819	20.673296
1316.391589	-3.001400	3.539100	-10.621000	25.192708	0.000816	20.684930
1317.387377	-2.992100	3.538200	-10.585000	25.182066	0.000816	20.683254
1318.370678	-3.006300	3.538100	-10.636000	25.175128	0.000818	20.680083
1319.370880	-2.996100	3.537700	-10.599000	25.208717	0.000817	20.692942
1320.369280	-2.977000	3.538500	-10.533000	25.241825	0.000817	20.694414
1321.377426	-2.998200	3.537500	-10.605000	25.228707	0.000814	20.695468
1322.369970	-2.983300	3.538200	-10.555000	25.256245	0.000816	20.702728
1323.375697	-2.993000	3.537800	-10.588000	25.240482	0.000815	20.684055
1324.372895	-2.990300	3.537500	-10.576000	25.238796	0.000813	20.682362
1325.371521	-2.982900	3.535000	-10.544000	25.272327	0.000813	20.690424
1326.371047	-3.003200	3.535600	-10.618000	25.273051	0.000811	20.681193
1327.380870	-2.993800	3.534800	-10.581000	25.262116	0.000813	20.667841
1328.389440	-2.999900	3.534800	-10.603000	25.246727	0.000811	20.681315
1329.388924	-3.009700	3.534300	-10.636000	25.236956	0.000812	20.686679
1330.373562	-3.009700	3.534900	-10.638000	25.249242	0.000812	20.688583
1331.373496	-3.021500	3.533300	-10.675000	25.236410	0.000811	20.688976
1332.373595	-2.997400	3.533100	-10.589000	25.264827	0.000810	20.685738
1333.372943	-2.997800	3.532800	-10.589000	25.289010	0.000810	20.679197
1334.383256	-3.001000	3.532200	-10.598000	25.332253	0.000811	20.688952
1335.383970	-2.999400	3.532200	-10.594000	25.379329	0.000811	20.694495
1336.374011	-3.013800	3.531400	-10.642000	25.382039	0.000807	20.693423
1337.376981	-2.985300	3.532100	-10.544000	25.420477	0.000808	20.696458
1338.374719	-2.992500	3.531100	-10.566000	25.437955	0.000808	20.692197
1339.374712	-2.990700	3.530900	-10.559000	25.463575	0.000809	20.694691
1340.374459	-3.012600	3.529000	-10.630000	25.477789	0.000805	20.675773
1341.373738	-3.001700	3.530500	-10.596000	25.495707	0.000806	20.695190
1342.375386	-3.014000	3.529500	-10.635000	25.469836	0.000805	20.688650
1343.392062	-2.975300	3.530400	-10.503000	25.454824	0.000804	20.684955
1344.394411	-3.002500	3.528700	-10.594000	25.438161	0.000807	20.698095
1345.377525	-2.998100	3.530000	-10.582000	25.446147	0.000805	20.696630
1346.401237	-2.978300	3.528700	-10.508000	25.451697	0.000801	20.680392
1347.402927	-3.020000	3.527400	-10.652000	25.453530	0.000803	20.692665
1348.379006	-3.007300	3.528000	-10.609000	25.480696	0.000800	20.718050
1349.378475	-3.015700	3.527600	-10.638000	25.486037	0.000801	20.717723
1350.379122	-2.984500	3.527200	-10.526000	25.487551	0.000800	20.695534
1351.380094	-3.017500	3.526100	-10.637000	25.476023	0.000801	20.692967
1352.393968	-3.016800	3.525200	-10.634000	25.491800	0.000801	20.708338
1353.398026	-3.026400	3.527000	-10.672000	25.479150	0.000799	20.714600
1354.401974	-2.994200	3.526700	-10.559000	25.434846	0.000800	20.708991
1355.397107	-2.983500	3.527200	-10.522000	25.407115	0.000800	20.706750
1356.403590	-2.995000	3.525300	-10.557000	25.379818	0.000797	20.714902
1357.382316	-2.969900	3.526400	-10.472000	25.391078	0.000796	20.725735
1358.405456	-2.987200	3.526000	-10.531000	25.403429	0.000799	20.707790
1359.399718	-2.997900	3.523900	-10.563000	25.408347	0.000797	20.709409
1360.397421	-2.985400	3.523800	-10.519000	25.398357	0.000798	20.710284
1361.382397	-2.985000	3.525700	-10.523000	25.379290	0.000795	20.724804
1362.384004	-3.002200	3.524300	-10.579000	25.364424	0.000795	20.705134
1363.404767	-3.002100	3.524000	-10.578000	25.322599	0.000793	20.715770
1364.383513	-3.009600	3.523100	-10.602000	25.323592	0.000795	20.708232
1365.385442	-2.994300	3.523400	-10.549000	25.332337	0.000795	20.690459
1366.410829	-3.019400	3.521500	-10.631000	25.360590	0.000793	20.696068
1367.392263	-3.011800	3.521700	-10.606000	25.362749	0.000792	20.703926
1368.382398	-3.018700	3.522000	-10.630000	25.408357	0.000792	20.703729
1369.387251	-3.014600	3.521800	-10.615000	25.395902	0.000793	20.715405
1370.411710	-3.002500	3.520900	-10.570000	25.414213	0.000792	20.713877
1371.385328	-3.012300	3.521400	-10.605000	25.417616	0.000790	20.703543
1372.402883	-3.014300	3.520000	-10.609000	25.395269	0.000790	20.729943
1373.393580	-3.010700	3.520100	-10.596000	25.360300	0.000789	20.721857
1374.411032	-2.992500	3.519700	-10.530000	25.363802	0.000790	20.732960
1375.403901	-3.011400	3.518500	-10.594000	25.425556	0.000790	20.722423
1376.384918	-3.015500	3.517600	-10.607000	25.416112	0.000790	20.702033
1377.406675	-2.981200	3.519700	-10.490000	25.423048	0.000787	20.728440
1378.408222	-2.998200	3.518500	-10.547000	25.433975	0.000788	20.712384
1379.408963	-2.990700	3.517300	-10.519000	25.462134	0.000787	20.705099
1380.404017	-2.988000	3.518500	-10.512000	25.466132	0.000786	20.729978
1381.411939	-2.986300	3.518500	-10.507000	25.464887	0.000786	20.721615
1382.389399	-3.008400	3.515600	-10.575000	25.441075	0.000786	20.718566
1383.388199	-3.009900	3.516500	-10.582000	25.456829	0.000786	20.728222
1384.386965	-3.039400	3.515700	-10.684000	25.472362	0.000785	20.718215
1385.386842	-3.009500	3.515900	-10.580000	25.450764	0.000786	20.754376
1386.387685	-3.021600	3.515000	-10.619000	25.445196	0.000786	20.726498
1387.387453	-3.020700	3.514200	-10.614000	25.441817	0.000784	20.736856
1388.386162	-2.995600	3.514400	-10.527000	25.443503	0.000783	20.734281
1389.388550	-2.996300	3.514700	-10.528000	25.431250	0.000784	20.743789
1390.387781	-3.017500	3.512800	-10.599000	25.423192	0.000781	20.726687
1391.400146	-3.001000	3.514200	-10.544000	25.384300	0.000781	20.740741
1392.393088	-2.997300	3.514300	-10.533000	25.367601	0.000780	20.740094
1393.390203	-2.987900	3.513200	-10.496000	25.351286	0.000781	20.724187
1394.393262	-2.974900	3.512000	-10.447000	25.341597	0.000779	20.733898
1395.405965	-2.984700	3.512900	-10.483000	25.364226	0.000782	20.742869
1396.416395	-2.984600	3.512900	-10.484000	25.382226	0.000778	20.750038
1397.415576	-2.990700	3.510900	-10.499000	25.394153	0.000780	20.745419
1398.406301	-2.996000	3.510400	-10.515000	25.427036	0.000779	20.734815
1399.409357	-2.995900	3.511900	-10.521000	25.438043	0.000779	20.743498
1400.416159	-2.993000	3.511900	-10.510000	25.443213	0.000777	20.733990
1401.412522	-2.988200	3.510600	-10.490000	25.443464	0.000777	20.735665
1402.392368	-2.983700	3.511300	-10.476000	25.488737	0.000777	20.749360
1403.392394	-3.002900	3.509500	-10.538000	25.467784	0.000774	20.729266
1404.394478	-2.994200	3.509600	-10.508000	25.457021	0.000775	20.753073
1405.410999	-3.009600	3.507800	-10.556000	25.484537	0.000773	20.731391
1406.394565	-3.009400	3.508200	-10.556000	25.473726	0.000773	20.748510
1407.397880	-2.987300	3.509000	-10.480000	25.452551	0.000774	20.754274
1408.397769	-3.000200	3.507600	-10.523000	25.441674	0.000772	20.744299
1409.394060	-3.010400	3.507900	-10.558000	25.435374	0.000772	20.737499
1410.395479	-2.991900	3.507800	-10.494000	25.446487	0.000771	20.751503
1411.396296	-2.987000	3.507100	-10.475000	25.441317	0.000773	20.750105
1412.397533	-3.021700	3.504300	-10.588000	25.470942	0.000770	20.740024
1413.401810	-3.019300	3.505600	-10.583000	25.495893	0.000770	20.739476
1414.400305	-3.027100	3.504300	-10.606000	25.513405	0.000768	20.740467
1415.422309	-2.995700	3.507000	-10.504000	25.469819	0.000768	20.754545
1416.414217	-3.015200	3.505100	-10.567000	25.443255	0.000768	20.744464
1417.413700	-2.994000	3.505100	-10.493000	25.446542	0.000768	20.767681
1418.415019	-2.982600	3.504800	-10.452000	25.430978	0.000768	20.757741
1419.419958	-2.998900	3.502700	-10.503000	25.451730	0.000767	20.767200
1420.418777	-2.983300	3.504700	-10.455000	25.471512	0.000767	20.745339
1421.404761	-3.026800	3.502200	-10.599000	25.461547	0.000763	20.759989
1422.420987	-2.994900	3.501300	-10.485000	25.429561	0.000763	20.744464
1423.400761	-3.010900	3.503000	-10.546000	25.436350	0.000765	20.751756
1424.398739	-2.993500	3.503200	-10.486000	25.447382	0.000763	20.754773
1425.399621	-3.029900	3.501200	-10.607000	25.476510	0.000765	20.760790
1426.398734	-3.007800	3.501400	-10.530000	25.475583	0.000765	20.770290
1427.400686	-2.994700	3.500500	-10.482000	25.485555	0.000764	20.745216
1428.402517	-3.007400	3.500100	-10.525000	25.518396	0.000763	20.762549
1429.400085	-3.020200	3.500700	-10.572000	25.537817	0.000763	20.761664
1430.424949	-2.990100	3.502000	-10.471000	25.523971	0.000764	20.761984
1431.402351	-2.990900	3.500400	-10.469000	25.574993	0.000762	20.749687
1432.418671	-2.996800	3.499800	-10.487000	25.590420	0.000761	20.756645
1433.423859	-2.996500	3.500100	-10.487000	25.579610	0.000764	20.746737
1434.417352	-3.005900	3.497900	-10.512000	25.567205	0.000761	20.750400
1435.418962	-3.006400	3.497700	-10.515000	25.565219	0.000761	20.763104
1436.420708	-2.993700	3.498600	-10.473000	25.530532	0.000760	20.775685
1437.431106	-3.007100	3.498400	-10.518000	25.515073	0.000759	20.764903
1438.426545	-2.989900	3.497800	-10.457000	25.486174	0.000759	20.778081
1439.435227	-3.007100	3.496100	-10.513000	25.481599	0.000759	20.773961
1440.425621	-3.007700	3.495500	-10.512000	25.459456	0.000759	20.764053
1441.438669	-2.996700	3.496400	-10.476000	25.457445	0.000758	20.769620
1442.405629	-3.020100	3.495100	-10.555000	25.468777	0.000759	20.774835
1443.426509	-3.004600	3.497500	-10.508000	25.486002	0.000756	20.765580
1444.422849	-2.980700	3.496600	-10.422000	25.485499	0.000757	20.775980
1445.419179	-3.001700	3.494200	-10.488000	25.490000	0.000757	20.766750
1446.425638	-3.010300	3.494900	-10.519000	25.484359	0.000757	20.787164
1447.427078	-2.992300	3.493300	-10.451000	25.472089	0.000753	20.780058
1448.421193	-2.992700	3.494200	-10.455000	25.471341	0.000754	20.761288
1449.404166	-3.000400	3.493500	-10.481000	25.481532	0.000753	20.767730
1450.408475	-2.989200	3.493800	-10.443000	25.490853	0.000755	20.773297
1451.408120	-2.998900	3.493800	-10.476000	25.484187	0.000753	20.785569
1452.432229	-3.016100	3.492700	-10.532000	25.500720	0.000751	20.759023
1453.427005	-2.983200	3.493100	-10.419000	25.494956	0.000752	20.770304
1454.407105	-3.006500	3.492500	-10.499000	25.535953	0.000753	20.772594
1455.404890	-2.998800	3.492500	-10.472000	25.565551	0.000751	20.773869
1456.423047	-3.041800	3.488700	-10.610000	25.547935	0.000751	20.784628
1457.420050	-3.012200	3.490400	-10.512000	25.569604	0.000751	20.763241
1458.422125	-3.015300	3.489500	-10.521000	25.567642	0.000750	20.791617
1459.425233	-2.991100	3.490800	-10.440000	25.607073	0.000750	20.782854
1460.418404	-3.014500	3.489000	-10.517000	25.592493	0.000749	20.776272
1461.414778	-2.984200	3.489800	-10.413000	25.612910	0.000749	20.786345
1462.410799	-3.000700	3.488900	-10.468000	25.620610	0.000748	20.794553
1463.409797	-3.004800	3.488500	-10.481000	25.622247	0.000748	20.803784
1464.413351	-2.997300	3.488000	-10.453000	25.590818	0.000748	20.779331
1465.408863	-2.981000	3.488400	-10.398000	25.575857	0.000749	20.788014
1466.410184	-2.997100	3.487000	-10.450000	25.574514	0.000746	20.783820
1467.411774	-2.994800	3.486600	-10.440000	25.572975	0.000747	20.782274
1468.412917	-3.010500	3.487800	-10.499000	25.551901	0.000743	20.789085
1469.408807	-2.969900	3.487900	-10.357000	25.540048	0.000746	20.785716
1470.412787	-3.002000	3.487100	-10.467000	25.558186	0.000746	20.792551
1471.410171	-2.998200	3.486000	-10.450000	25.538055	0.000744	20.797939
1472.437974	-3.004100	3.485500	-10.470000	25.560441	0.000743	20.786282
1473.428795	-3.001800	3.484800	-10.460000	25.563526	0.000744	20.802182
1474.427845	-3.006900	3.484500	-10.477000	25.562085	0.000743	20.797890
1475.429678	-2.980200	3.485100	-10.385000	25.547449	0.000743	20.806899
1476.413758	-2.982200	3.485200	-10.392000	25.546847	0.000742	20.784484
1477.417087	-3.007500	3.483800	-10.477000	25.571692	0.000741	20.798529
1478.415386	-2.999200	3.482500	-10.444000	25.577008	0.000741	20.805765
1479.418355	-3.003900	3.483400	-10.463000	25.604643	0.000742	20.809811
1480.414792	-3.014500	3.481500	-10.494000	25.606947	0.000742	20.823031
1481.417685	-3.018400	3.481500	-10.507000	25.634158	0.000740	20.821910
1482.436988	-3.018000	3.481800	-10.507000	25.653962	0.000740	20.794385
1483.428929	-2.990800	3.482100	-10.414000	25.664072	0.000739	20.774667
1484.433862	-3.035500	3.479300	-10.560000	25.687333	0.000737	20.816048
1485.433239	-3.010700	3.480500	-10.477000	25.710220	0.000738	20.818173
1486.441901	-2.986200	3.481300	-10.395000	25.707332	0.000738	20.799625
1487.429147	-3.010300	3.479800	-10.473000	25.700771	0.000737	20.793510
1488.432873	-2.994200	3.478900	-10.417000	25.697810	0.000737	20.797648
1489.432069	-3.007800	3.479700	-10.464000	25.698631	0.000735	20.810801
1490.440165	-2.995200	3.478100	-10.416000	25.674636	0.000736	20.797606
1491.427931	-3.013900	3.478200	-10.482000	25.697142	0.000736	20.833486
1492.436094	-3.005300	3.478500	-10.452000	25.685396	0.000735	20.817422
1493.449022	-3.006900	3.477200	-10.455000	25.687106	0.000735	20.813449
1494.432038	-2.996700	3.478700	-10.422000	25.709042	0.000735	20.811774
1495.437365	-3.003100	3.476400	-10.440000	25.668890	0.000735	20.806060
1496.437504	-3.003700	3.476700	-10.442000	25.647996	0.000736	20.833911
1497.416533	-3.013000	3.475600	-10.471000	25.641289	0.000733	20.819115
1498.438297	-2.993400	3.475200	-10.401000	25.660564	0.000734	20.823301
1499.431149	-2.996200	3.476900	-10.417000	25.678161	0.000730	20.834336
1500.430190	-3.003000	3.473900	-10.430000	25.688172	0.000732	20.824004
1501.432680	-3.010600	3.474300	-10.459000	25.703555	0.000732	20.807212
1502.437939	-3.005200	3.474900	-10.442000	25.672520	0.000731	20.817766
1503.416617	-2.995000	3.473300	-10.402000	25.645310	0.000729	20.813671
1504.421217	-2.984400	3.474500	-10.369000	25.636813	0.000732	20.825524
1505.431860	-2.978700	3.474100	-10.346000	25.602153	0.000727	20.820112
1506.417146	-2.982300	3.473300	-10.358000	25.586842	0.000728	20.816115
1507.416354	-2.987000	3.473800	-10.375000	25.571556	0.000727	20.818781
1508.426670	-3.047800	3.470300	-10.575000	25.574892	0.000729	20.831614
1509.423818	-2.987200	3.472500	-10.372000	25.568559	0.000727	20.833314
1510.417202	-3.007100	3.470600	-10.435000	25.589031	0.000727	20.825900
1511.435892	-3.004800	3.470600	-10.427000	25.595935	0.000724	20.815290
1512.443428	-3.000500	3.470700	-10.413000	25.611546	0.000726	20.828123
1513.431744	-2.988800	3.471200	-10.374000	25.633588	0.000725	20.826079
1514.418825	-2.996800	3.470200	-10.399000	25.635145	0.000724	20.815789
1515.443525	-2.998000	3.469900	-10.402000	25.633490	0.000724	20.826929
1516.441190	-3.016400	3.469900	-10.466000	25.597302	0.000725	20.789637
1517.420815	-2.955200	3.470200	-10.253000	25.578155	0.000723	20.832520
1518.424766	-3.006400	3.468600	-10.427000	25.568786	0.000723	20.812680
1519.423104	-3.015100	3.468000	-10.455000	25.568233	0.000723	20.805013
1520.442370	-2.994700	3.468300	-10.386000	25.586929	0.000723	20.791547
1521.451146	-3.005500	3.467600	-10.421000	25.635581	0.000723	20.827607
1522.453249	-3.006800	3.466600	-10.423000	25.653067	0.000721	20.801546
1523.445495	-3.005400	3.467300	-10.420000	25.676720	0.000723	20.797328
1524.423836	-3.000800	3.467600	-10.403000	25.655605	0.000722	20.788923
1525.426528	-2.977500	3.466800	-10.321000	25.633987	0.000722	20.802772
1526.440881	-2.991400	3.466600	-10.368000	25.621443	0.000719	20.800131
1527.445519	-3.007000	3.465600	-10.419000	25.652276	0.000719	20.796485
1528.443786	-3.017300	3.464100	-10.451000	25.659382	0.000718	20.805045
1529.444118	-2.980100	3.465300	-10.325000	25.665715	0.000717	20.785801
1530.446970	-2.986100	3.464700	-10.345000	25.624318	0.000717	20.787845
1531.439621	-2.971000	3.465700	-10.296000	25.606654	0.000718	20.791442
1532.445405	-2.989300	3.464100	-10.353000	25.633392	0.000716	20.787476
1533.441427	-3.003600	3.463100	-10.401000	25.646164	0.000718	20.779914
1534.423950	-3.000500	3.463100	-10.391000	25.628420	0.000719	20.770628
1535.436936	-3.020100	3.461800	-10.454000	25.673936	0.000715	20.785049
1536.443637	-3.000100	3.460700	-10.381000	25.682556	0.000718	20.787069
1537.427247	-3.023500	3.462100	-10.466000	25.666757	0.000716	20.786848
1538.427896	-2.998100	3.461200	-10.376000	25.657144	0.000716	20.771028
1539.439221	-2.973500	3.461300	-10.291000	25.648052	0.000715	20.778492
1540.427917	-2.979500	3.460300	-10.309000	25.655721	0.000715	20.775289
1541.449831	-2.999100	3.459300	-10.373000	25.658081	0.000713	20.782875
1542.455159	-2.988300	3.460200	-10.340000	25.664194	0.000715	20.783799
1543.444467	-2.975200	3.460400	-10.294000	25.642778	0.000713	20.768454
1544.428905	-3.003800	3.457700	-10.386000	25.652416	0.000711	20.766280
1545.450692	-3.007000	3.458500	-10.399000	25.640866	0.000712	20.804939
1546.438561	-2.989400	3.457900	-10.336000	25.634183	0.000711	20.771675
1547.451613	-2.999000	3.458500	-10.371000	25.659627	0.000711	20.777315
1548.453926	-3.027800	3.457800	-10.468000	25.643992	0.000709	20.782949
1549.452314	-3.020100	3.455000	-10.433000	25.620890	0.000709	20.774446
1550.450391	-3.020800	3.455000	-10.435000	25.597057	0.000710	20.768528
1551.456506	-2.987300	3.457700	-10.329000	25.579026	0.000709	20.778394
1552.452030	-3.001600	3.456000	-10.371000	25.583170	0.000710	20.776392
1553.448195	-2.995400	3.456300	-10.351000	25.615005	0.000709	20.760474
1554.437677	-2.987400	3.455100	-10.320000	25.617365	0.000707	20.749094
1555.434306	-2.996700	3.455800	-10.355000	25.613067	0.000706	20.801676
1556.436180	-3.008100	3.453300	-10.386000	25.645496	0.000706	20.747474
1557.443410	-3.018000	3.453900	-10.423000	25.649297	0.000705	20.767414
1558.436504	-3.013100	3.453700	-10.405000	25.659935	0.000707	20.759606
1559.437903	-2.999700	3.454200	-10.360000	25.654913	0.000705	20.770210
1560.435057	-3.006600	3.454200	-10.383000	25.693550	0.000705	20.757808
1561.437762	-3.025200	3.452400	-10.443000	25.719123	0.000704	20.767372
1562.454078	-2.985600	3.454000	-10.310000	25.743295	0.000705	20.763677
1563.460327	-3.011400	3.452500	-10.396000	25.785105	0.000702	20.748300
1564.465502	-2.999000	3.450800	-10.348000	25.762429	0.000702	20.743066
1565.457461	-2.995200	3.451700	-10.338000	25.753509	0.000705	20.768720
1566.459992	-2.993200	3.451000	-10.329000	25.739145	0.000703	20.760930
1567.457181	-2.999000	3.449900	-10.346000	25.731040	0.000700	20.762746
1568.441168	-3.007100	3.450200	-10.373000	25.705303	0.000700	20.773406
1569.441480	-2.998900	3.450100	-10.345000	25.687690	0.000701	20.745282
1570.448567	-2.995000	3.450500	-10.334000	25.666170	0.000700	20.734099
1571.443161	-2.997700	3.448800	-10.338000	25.660984	0.000700	20.759711
1572.444730	-2.995800	3.448500	-10.329000	25.675545	0.000700	20.743041
1573.443168	-2.988000	3.449500	-10.305000	25.642320	0.000700	20.760881
1574.443725	-3.014100	3.447200	-10.390000	25.626636	0.000697	20.761250
1575.443797	-2.997300	3.447300	-10.332000	25.654742	0.000698	20.739691
1576.458974	-3.011000	3.447400	-10.379000	25.687567	0.000698	20.751324
1577.462862	-3.014200	3.447500	-10.390000	25.725927	0.000697	20.748602
1578.465885	-2.979100	3.447000	-10.269000	25.690816	0.000696	20.733723
1579.465711	-2.995300	3.447000	-10.324000	25.664606	0.000698	20.741538
1580.475710	-3.033200	3.445600	-10.449000	25.647709	0.000695	20.735947
1581.446307	-2.999500	3.444900	-10.332000	25.675262	0.000698	20.758879
1582.478727	-2.998600	3.445900	-10.332000	25.658511	0.000694	20.742529
1583.447532	-2.989900	3.444100	-10.296000	25.684588	0.000696	20.752125
1584.468237	-3.000400	3.444800	-10.334000	25.680633	0.000693	20.729185
1585.470674	-3.021100	3.444400	-10.404000	25.690050	0.000694	20.733428
1586.481719	-2.972100	3.445500	-10.239000	25.673705	0.000695	20.756842
1587.462675	-3.009200	3.443200	-10.360000	25.657728	0.000693	20.742690
1588.470206	-3.001700	3.443700	-10.336000	25.651363	0.000693	20.744833
1589.478730	-2.996800	3.442400	-10.315000	25.613399	0.000692	20.740843
1590.465246	-2.984200	3.443300	-10.275000	25.602688	0.000693	20.730558
1591.463275	-2.981200	3.442100	-10.260000	25.608881	0.000690	20.750056
1592.467426	-3.010900	3.441600	-10.361000	25.626758	0.000691	20.731500
1593.448230	-3.001800	3.442000	-10.331000	25.644534	0.000690	20.733231
1594.450697	-3.006200	3.440600	-10.342000	25.636998	0.000691	20.739413
1595.447806	-3.001000	3.440600	-10.324000	25.658347	0.000688	20.712016
1596.450132	-3.015500	3.439400	-10.370000	25.630486	0.000691	20.741883
1597.451252	-3.012300	3.439300	-10.359000	25.646440	0.000689	20.750319
1598.448157	-3.020800	3.439000	-10.387000	25.631829	0.000690	20.738964
1599.467195	-2.995000	3.438800	-10.297000	25.632700	0.000689	20.728458
1600.464841	-2.995600	3.438400	-10.299000	25.644471	0.000690	20.729849
1601.448148	-2.997600	3.438900	-10.307000	25.674832	0.000688	20.730471
1602.459151	-2.988300	3.439100	-10.276000	25.691533	0.000687	20.733969
1603.454241	-3.008000	3.437200	-10.339000	25.674741	0.000685	20.753614
1604.450541	-3.026900	3.438200	-10.404000	25.666855	0.000685	20.737633
1605.465275	-2.967400	3.438700	-10.203000	25.653441	0.000685	20.734591
1606.454890	-3.009100	3.436100	-10.338000	25.633564	0.000685	20.732171
1607.451446	-3.007000	3.436300	-10.330000	25.641135	0.000684	20.712273
1608.449067	-2.998600	3.436600	-10.304000	25.606199	0.000685	20.731714
1609.478850	-3.003800	3.435400	-10.317000	25.625384	0.000683	20.741974
1610.474066	-2.999100	3.436100	-10.304000	25.605500	0.000684	20.725796
1611.466527	-2.996600	3.435100	-10.292000	25.607885	0.000683	20.718233
1612.469655	-3.008000	3.434500	-10.330000	25.633851	0.000683	20.742891
1613.466085	-2.986200	3.434700	-10.256000	25.631557	0.000682	20.725413
1614.472716	-2.998000	3.434000	-10.294000	25.670594	0.000682	20.739965
1615.456018	-3.016200	3.431900	-10.350000	25.666799	0.000681	20.731886
1616.456607	-2.996700	3.433900	-10.289000	25.704859	0.000680	20.733130
1617.451090	-2.996200	3.432400	-10.283000	25.705080	0.000681	20.736670
1618.451656	-3.016000	3.431000	-10.347000	25.695736	0.000680	20.719698
1619.473581	-3.037400	3.431500	-10.422000	25.677822	0.000677	20.729207
1620.468653	-2.992200	3.433000	-10.271000	25.643678	0.000679	20.694911
1621.484318	-3.005400	3.431900	-10.312000	25.629448	0.000678	20.726614
1622.470956	-2.993100	3.431400	-10.269000	25.611777	0.000676	20.711237
1623.473614	-3.030000	3.429100	-10.389000	25.583303	0.000675	20.703976
1624.474198	-2.990100	3.430200	-10.255000	25.595474	0.000677	20.718571
1625.475206	-3.019000	3.428200	-10.348000	25.601856	0.000677	20.745371
1626.488403	-3.013600	3.430800	-10.336000	25.614505	0.000675	20.721089
1627.454350	-2.998400	3.428900	-10.279000	25.609238	0.000674	20.735715
1628.482185	-2.979600	3.430500	-10.220000	25.612568	0.000676	20.709185
1629.454582	-3.022200	3.428400	-10.359000	25.653518	0.000674	20.716650
1630.470263	-3.018500	3.428900	-10.349000	25.628815	0.000673	20.731195
1631.489914	-3.014800	3.428200	-10.335000	25.588612	0.000673	20.715473
1632.469989	-3.004000	3.428400	-10.298000	25.591941	0.000670	20.713127
1633.472860	-3.017400	3.425900	-10.336000	25.624989	0.000672	20.724981
1634.469091	-3.011600	3.427500	-10.321000	25.661316	0.000671	20.712628
1635.477125	-3.027100	3.424900	-10.366000	25.690334	0.000670	20.719962
1636.470585	-3.022200	3.424400	-10.348000	25.700272	0.000670	20.698174
1637.477146	-2.990200	3.426400	-10.244000	25.694135	0.000670	20.709080
1638.472482	-2.975000	3.426100	-10.192000	25.674136	0.000669	20.708908
1639.459833	-2.946700	3.426600	-10.097000	25.666803	0.000669	20.710078
1640.456225	-3.000200	3.425100	-10.275000	25.620391	0.000669	20.714672
1641.481267	-3.020300	3.422700	-10.337000	25.580366	0.000668	20.702923
1642.476928	-3.006600	3.423400	-10.291000	25.563387	0.000668	20.710053
1643.461727	-3.011500	3.423000	-10.307000	25.506607	0.000667	20.718466
1644.461317	-2.980700	3.423500	-10.204000	25.509293	0.000670	20.689867
1645.461189	-3.000900	3.423200	-10.271000	25.507453	0.000666	20.706038
1646.482954	-3.009100	3.421200	-10.293000	25.520876	0.000669	20.710035
1647.457953	-2.999800	3.421000	-10.261000	25.546397	0.000666	20.705318
1648.462138	-3.003700	3.421500	-10.275000	25.543336	0.000665	20.693709
1649.466182	-2.991600	3.422300	-10.237000	25.520869	0.000666	20.709080
1650.461810	-3.001000	3.421500	-10.266000	25.547310	0.000665	20.701493
1651.486518	-2.998300	3.420500	-10.254000	25.571720	0.000665	20.700404
1652.482685	-2.999900	3.420800	-10.261000	25.550468	0.000665	20.695655
1653.490682	-3.004500	3.419600	-10.273000	25.565852	0.000664	20.700675
1654.472751	-3.005100	3.420800	-10.279000	25.592242	0.000664	20.700151
1655.483988	-2.983000	3.420600	-10.203000	25.600544	0.000664	20.706119
1656.479619	-3.007000	3.418600	-10.278000	25.651581	0.000664	20.701426
1657.476446	-3.002700	3.418900	-10.265000	25.674437	0.000661	20.692613
1658.489681	-2.985600	3.418700	-10.206000	25.705349	0.000662	20.695213
1659.460948	-3.018300	3.417200	-10.313000	25.688526	0.000661	20.676417
1660.477962	-3.007200	3.417900	-10.277000	25.662187	0.000660	20.686948
1661.463174	-2.985800	3.417900	-10.204000	25.662187	0.000659	20.703544
1662.460453	-3.024600	3.416400	-10.333000	25.632519	0.000659	20.690815
1663.463181	-2.999300	3.416300	-10.245000	25.610949	0.000658	20.684324
1664.465867	-2.992700	3.417300	-10.225000	25.599471	0.000657	20.691289
1665.479011	-3.002800	3.415100	-10.254000	25.572812	0.000658	20.671626
1666.464854	-3.002500	3.415800	-10.254000	25.568734	0.000659	20.692663
1667.483445	-3.006900	3.415200	-10.268000	25.523769	0.000658	20.679747
1668.483943	-2.998100	3.414000	-10.234000	25.540626	0.000657	20.690039
1669.486711	-3.027000	3.413000	-10.330000	25.554042	0.000657	20.709677
1670.491914	-3.001800	3.413900	-10.247000	25.559952	0.000659	20.685739
1671.485939	-2.990300	3.414300	-10.208000	25.591333	0.000656	20.685961
1672.477403	-2.991300	3.414400	-10.212000	25.663387	0.000657	20.696688
1673.465829	-2.995300	3.413500	-10.224000	25.682774	0.000657	20.683442
1674.474731	-2.978600	3.414100	-10.169000	25.721949	0.000655	20.685332
1675.470801	-2.979700	3.413000	-10.168000	25.733750	0.000655	20.695290
1676.468360	-2.998700	3.410400	-10.226000	25.742387	0.000653	20.693060
1677.469143	-3.002100	3.412500	-10.242000	25.697958	0.000653	20.683994
1678.475560	-3.021700	3.411400	-10.307000	25.707626	0.000654	20.691810
1679.470595	-3.003100	3.411100	-10.243000	25.730058	0.000654	20.675933
1680.470825	-3.000400	3.411200	-10.234000	25.736789	0.000654	20.685540
1681.468237	-3.013600	3.410200	-10.276000	25.747126	0.000651	20.707303
1682.469603	-3.005000	3.411000	-10.249000	25.774854	0.000650	20.688687
1683.469026	-2.981600	3.410000	-10.167000	25.789113	0.000650	20.677879
1684.470079	-2.985500	3.409500	-10.178000	25.813603	0.000648	20.684936
1685.484792	-2.988000	3.409500	-10.186000	25.826396	0.000652	20.657007
1686.473543	-2.998300	3.407500	-10.215000	25.861129	0.000648	20.679098
1687.473713	-3.024300	3.406700	-10.303000	25.839207	0.000650	20.690742
1688.483961	-2.992600	3.406800	-10.195000	25.828798	0.000650	20.676017
1689.483893	-3.006600	3.406800	-10.242000	25.842854	0.000650	20.694880
1690.469493	-2.997800	3.407500	-10.214000	25.848672	0.000647	20.679386
1691.476127	-3.002000	3.407300	-10.227000	25.846385	0.000648	20.673769
1692.471682	-3.009000	3.405600	-10.247000	25.844343	0.000648	20.675512
1693.504597	-3.004800	3.405800	-10.233000	25.862671	0.000646	20.671637
1694.472267	-3.015900	3.405700	-10.270000	25.843546	0.000646	20.680875
1695.472112	-2.997200	3.404100	-10.202000	25.846801	0.000646	20.673239
1696.498761	-2.988400	3.405900	-10.177000	25.810701	0.000645	20.659259
1697.492719	-3.004300	3.403700	-10.225000	25.812411	0.000646	20.684213
1698.496965	-2.999600	3.403500	-10.208000	25.759819	0.000643	20.663151
1699.484959	-3.013300	3.403800	-10.256000	25.773900	0.000645	20.678719
1700.497834	-2.976600	3.405100	-10.134000	25.763246	0.000644	20.666119
1701.492085	-2.986100	3.403400	-10.162000	25.782697	0.000643	20.663372
1702.487841	-3.007600	3.403200	-10.234000	25.792775	0.000644	20.662115
1703.500207	-2.988000	3.402700	-10.166000	25.780404	0.000643	20.676717
1704.502318	-3.023000	3.402300	-10.283000	25.771638	0.000640	20.656530
1705.475721	-2.994400	3.401600	-10.184000	25.800296	0.000643	20.688165
1706.472792	-2.977400	3.402700	-10.130000	25.763686	0.000643	20.664191
1707.512352	-3.026100	3.400600	-10.290000	25.743854	0.000641	20.656122
1708.486408	-3.003900	3.400300	-10.213000	25.741721	0.000640	20.682906
1709.491880	-2.974300	3.401200	-10.116000	25.715523	0.000641	20.671764
1710.494020	-3.016200	3.401100	-10.256000	25.708669	0.000640	20.669147
1711.491151	-3.017700	3.400200	-10.260000	25.730378	0.000639	20.651595
1712.497278	-3.003600	3.400200	-10.212000	25.718184	0.000637	20.658789
1713.499233	-3.017800	3.398200	-10.254000	25.682202	0.000638	20.648251
1714.494491	-2.998700	3.398900	-10.192000	25.680191	0.000638	20.653818
1715.481485	-2.994900	3.398800	-10.177000	25.638070	0.000637	20.681217
1716.499845	-2.995200	3.398400	-10.177000	25.635157	0.000637	20.665013
1717.501938	-3.023100	3.396900	-10.268000	25.668137	0.000637	20.661153
1718.498631	-2.992600	3.398000	-10.168000	25.709097	0.000634	20.661041
1719.500266	-3.004100	3.396300	-10.202000	25.732595	0.000635	20.674213
1720.478439	-2.991900	3.398300	-10.166000	25.751502	0.000636	20.654795
1721.487236	-3.018200	3.397100	-10.252000	25.784048	0.000635	20.689388
1722.474864	-2.980300	3.397000	-10.124000	25.759324	0.000635	20.661705
1723.479655	-3.030300	3.394500	-10.284000	25.776863	0.000634	20.659408
1724.496389	-3.003200	3.394700	-10.193000	25.758097	0.000632	20.655730
1725.479437	-2.982300	3.395900	-10.126000	25.797496	0.000634	20.657848
1726.503657	-3.019000	3.395800	-10.250000	25.808654	0.000632	20.673325
1727.497840	-2.990500	3.394300	-10.149000	25.818559	0.000632	20.671421
1728.499273	-2.986100	3.394100	-10.134000	25.835374	0.000631	20.672665
1729.504968	-2.988300	3.393800	-10.141000	25.854359	0.000631	20.656173
1730.481480	-2.968800	3.393400	-10.074000	25.871491	0.000630	20.683343
1731.484020	-2.983700	3.394300	-10.127000	25.844887	0.000630	20.646657
1732.481247	-3.003700	3.392700	-10.189000	25.804790	0.000630	20.673238
1733.492770	-2.983300	3.393800	-10.123000	25.790899	0.000628	20.655962
1734.491880	-3.007300	3.392100	-10.199000	25.785332	0.000628	20.663648
1735.479303	-2.993100	3.392300	-10.152000	25.817056	0.000626	20.664221
1736.485702	-3.004000	3.391100	-10.186000	25.815671	0.000629	20.667572
1737.492303	-3.019900	3.390500	-10.238000	25.812311	0.000627	20.681742
1738.480010	-3.026400	3.391000	-10.261000	25.778448	0.000627	20.670958
1739.491894	-2.981400	3.391500	-10.110000	25.797500	0.000626	20.667337
1740.488146	-2.997400	3.391000	-10.163000	25.798200	0.000625	20.652390
1741.491284	-3.022400	3.389400	-10.243000	25.770171	0.000626	20.664066
1742.491140	-2.988000	3.390700	-10.130000	25.765923	0.000624	20.656953
1743.484425	-3.005400	3.389100	-10.185000	25.764622	0.000622	20.676038
1744.487701	-2.986600	3.388900	-10.120000	25.745814	0.000622	20.661411
1745.485734	-3.008500	3.388900	-10.194000	25.709287	0.000622	20.668819
1746.490149	-3.007900	3.387300	-10.187000	25.670087	0.000623	20.652679
1747.483524	-3.007800	3.387900	-10.189000	25.652718	0.000624	20.652303
1748.486384	-2.994700	3.387400	-10.143000	25.626084	0.000622	20.670600
1749.485495	-2.991200	3.387800	-10.133000	25.645311	0.000621	20.656718
1750.486633	-2.995400	3.386400	-10.141000	25.675402	0.000622	20.672244
1751.491024	-2.991900	3.387100	-10.133000	25.683543	0.000621	20.650547
1752.485024	-2.990800	3.387300	-10.130000	25.736936	0.000621	20.659132
1753.486465	-3.011300	3.386200	-10.196000	25.734128	0.000620	20.664847
1754.485346	-2.989500	3.387000	-10.125000	25.708011	0.000619	20.680815
1755.493242	-3.004300	3.386100	-10.172000	25.712658	0.000617	20.657980
1756.492195	-3.007400	3.384800	-10.178000	25.691684	0.000619	20.653034
1757.491124	-2.986300	3.385900	-10.110000	25.675903	0.000617	20.681757
1758.493846	-2.974700	3.384700	-10.067000	25.713774	0.000618	20.699882
1759.488477	-3.003800	3.384300	-10.165000	25.713515	0.000618	20.685870
1760.486653	-2.994300	3.385800	-10.136000	25.755081	0.000618	20.678308
1761.488836	-2.992900	3.385200	-10.131000	25.739178	0.000614	20.682723
1762.494544	-3.010900	3.382000	-10.182000	25.735996	0.000615	20.662455
1763.489328	-2.975000	3.384300	-10.068000	25.713883	0.000615	20.672013
1764.486487	-3.007800	3.382400	-10.173000	25.728615	0.000614	20.656463
1765.491730	-2.997000	3.382600	-10.136000	25.783078	0.000615	20.686991
1766.491815	-2.989000	3.381900	-10.108000	25.816813	0.000614	20.655441
1767.502256	-2.990900	3.382600	-10.117000	25.824701	0.000613	20.679963
1768.492065	-3.008800	3.381400	-10.173000	25.835540	0.000613	20.678997
1769.495018	-3.008200	3.381500	-10.171000	25.865773	0.000612	20.679970
1770.498390	-2.993500	3.379800	-10.116000	25.910084	0.000611	20.671378
1771.490191	-2.996400	3.380100	-10.127000	25.904752	0.000611	20.657959
1772.490738	-2.987800	3.380500	-10.099000	25.947076	0.000612	20.665867
1773.493019	-3.016600	3.378000	-10.189000	25.923208	0.000608	20.650895
1774.493629	-3.002000	3.379600	-10.145000	25.949761	0.000609	20.658132
1775.494237	-2.979300	3.379700	-10.068000	25.967622	0.000608	20.688407
1776.492930	-3.032900	3.376900	-10.240000	25.962878	0.000608	20.680795
1777.496792	-2.997700	3.378600	-10.127000	25.955124	0.000606	20.661149
1778.496131	-3.003900	3.378000	-10.146000	25.936847	0.000607	20.662227
1779.498430	-3.021900	3.375900	-10.200000	25.922828	0.000607	20.676120
1780.496090	-3.005300	3.377000	-10.146000	25.925341	0.000606	20.677223
1781.495548	-2.977400	3.378800	-10.058000	25.927358	0.000605	20.683517
1782.496055	-2.991100	3.377600	-10.102000	25.944024	0.000607	20.647151
1783.495803	-3.006700	3.376300	-10.151000	25.943283	0.000606	20.688610
1784.494367	-3.011400	3.375200	-10.163000	25.944895	0.000605	20.670788
1785.497802	-2.999500	3.374300	-10.119000	25.945618	0.000604	20.665350
1786.496654	-2.996900	3.376700	-10.119000	25.956393	0.000606	20.679021
1787.497468	-2.995500	3.374400	-10.107000	25.899603	0.000605	20.677918
1788.495628	-2.982400	3.375200	-10.066000	25.877059	0.000604	20.672340
1789.501571	-2.998600	3.375000	-10.119000	25.869769	0.000604	20.677346
1790.495369	-2.992100	3.374900	-10.096000	25.848560	0.000601	20.699664
1791.497979	-3.016900	3.372300	-10.172000	25.833480	0.000602	20.667918
1792.500496	-3.000000	3.374100	-10.122000	25.832910	0.000604	20.664500
1793.502727	-3.017400	3.373000	-10.177000	25.815936	0.000602	20.657879
1794.500757	-3.006600	3.372400	-10.139000	25.845054	0.000603	20.672906
1795.496146	-2.989900	3.373800	-10.086000	25.846040	0.000601	20.682906
1796.497241	-2.988500	3.373300	-10.080000	25.877842	0.000602	20.686879
1797.497862	-2.998100	3.371300	-10.106000	25.868157	0.000600	20.700385
1798.496873	-3.011000	3.371700	-10.151000	25.829722	0.000602	20.675997
1799.512869	-3.018700	3.370000	-10.171000	25.854438	0.000600	20.690395
1800.504077	-3.010300	3.370300	-10.145000	25.853494	0.000600	20.673324
1801.511778	-2.992500	3.370000	-10.084000	25.855431	0.000597	20.698506
1802.499371	-2.999600	3.369800	-10.107000	25.846781	0.000597	20.664683
1803.499334	-3.003100	3.369400	-10.118000	25.835282	0.000597	20.704818
1804.500248	-3.003000	3.368300	-10.113000	25.794614	0.000596	20.677715
1805.503055	-3.001800	3.369000	-10.112000	25.757414	0.000595	20.694403
1806.499780	-3.009800	3.367100	-10.133000	25.767401	0.000596	20.678354
1807.516393	-2.974500	3.369300	-10.021000	25.771778	0.000594	20.687020
1808.506633	-2.979200	3.369100	-10.035000	25.766058	0.000594	20.691232
1809.509454	-3.000700	3.368200	-10.106000	25.807793	0.000594	20.686687
1810.505775	-2.996500	3.368100	-10.090000	25.812611	0.000593	20.692949
1811.510118	-3.020400	3.366500	-10.167000	25.818975	0.000594	20.696023
1812.511474	-3.015000	3.367700	-10.153000	25.773898	0.000593	20.691520
1813.508591	-3.024500	3.366100	-10.180000	25.804605	0.000593	20.683958
1814.513024	-3.003000	3.366800	-10.109000	25.804402	0.000592	20.704144
1815.502505	-3.001400	3.365200	-10.099000	25.848723	0.000593	20.686550
1816.510825	-3.013300	3.366800	-10.143000	25.874211	0.000592	20.682282
1817.518654	-3.002400	3.365000	-10.102000	25.902481	0.000592	20.703098
1818.520864	-2.990500	3.366300	-10.066000	25.910100	0.000590	20.715968
1819.508582	-3.009500	3.364900	-10.124000	25.904810	0.000590	20.688366
1820.506361	-2.990000	3.365300	-10.062000	25.913648	0.000589	20.699617
1821.512688	-3.007100	3.364700	-10.117000	25.919281	0.000589	20.706699
1822.511687	-3.015500	3.363200	-10.141000	25.935107	0.000589	20.710271
1823.516357	-2.999400	3.363500	-10.087000	25.954458	0.000588	20.693200
1824.511516	-3.001300	3.362900	-10.091000	25.922333	0.000589	20.710239
1825.506730	-3.000100	3.362800	-10.088000	25.894437	0.000588	20.703552
1826.514554	-3.004700	3.361800	-10.100000	25.853489	0.000589	20.718368
1827.527040	-3.011400	3.362600	-10.126000	25.809543	0.000586	20.690341
1828.514074	-2.988300	3.362000	-10.047000	25.771462	0.000585	20.707566
1829.513430	-2.997500	3.361700	-10.076000	25.747105	0.000586	20.691634
1830.509322	-3.000300	3.361500	-10.085000	25.746681	0.000584	20.722980
1831.510762	-2.995500	3.360400	-10.065000	25.755423	0.000584	20.715165
1832.511088	-2.987300	3.359500	-10.034000	25.730453	0.000583	20.691978
1833.512544	-2.994900	3.361200	-10.064000	25.725659	0.000585	20.729366
1834.515530	-2.984000	3.362100	-10.032000	25.761063	0.000582	20.696172
1835.513978	-2.979700	3.361400	-10.014000	25.748245	0.000582	20.709850
1836.520340	-2.989600	3.359500	-10.043000	25.739146	0.000582	20.702133
1837.512223	-2.997000	3.358300	-10.064000	25.754871	0.000581	20.707023
1838.518111	-3.011800	3.358300	-10.113000	25.710963	0.000582	20.710810
1839.515029	-2.996600	3.358900	-10.064000	25.712974	0.000580	20.705242
1840.513190	-2.976000	3.358100	-9.992500	25.720159	0.000581	20.711986
1841.520826	-2.999700	3.357900	-10.071000	25.748906	0.000580	20.703876
1842.513623	-2.986900	3.357600	-10.028000	25.777474	0.000580	20.703173
1843.514668	-2.980400	3.357100	-10.005000	25.771005	0.000579	20.706634
1844.521060	-2.985100	3.357500	-10.022000	25.805268	0.000577	20.705963
1845.513509	-2.970300	3.356000	-9.967200	25.800058	0.000576	20.716851
1846.517712	-3.024000	3.355600	-10.146000	25.784498	0.000579	20.726353
1847.518681	-3.001000	3.355900	-10.071000	25.777736	0.000576	20.709602
1848.517427	-2.992800	3.355500	-10.041000	25.796250	0.000576	20.729149
1849.516028	-2.980200	3.356400	-10.002000	25.838634	0.000577	20.717196
1850.517381	-2.999900	3.354500	-10.062000	25.830757	0.000577	20.716395
1851.516811	-2.993500	3.356200	-10.046000	25.849116	0.000577	20.741477
1852.521192	-2.978800	3.355000	-9.992900	25.884964	0.000574	20.710157
1853.518459	-2.996900	3.353600	-10.049000	25.931438	0.000571	20.715594
1854.518735	-2.998700	3.355100	-10.060000	25.937053	0.000572	20.734512
1855.521234	-2.998300	3.353900	-10.054000	25.944629	0.000575	20.730743
1856.521275	-3.003700	3.354100	-10.074000	25.941528	0.000576	20.708660
1857.522366	-2.982000	3.354400	-10.002000	25.962141	0.000574	20.714670
1858.524331	-2.983800	3.352700	-10.003000	26.003941	0.000570	20.722054
1859.523822	-2.976100	3.353700	-9.979900	26.002281	0.000572	20.723230
1860.516347	-2.975100	3.353100	-9.974400	25.990678	0.000570	20.737178
1861.521150	-3.004900	3.352100	-10.072000	26.040371	0.000568	20.734000
1862.524687	-3.006200	3.350900	-10.072000	26.053892	0.000569	20.725299
1863.531651	-2.998500	3.351400	-10.048000	26.062558	0.000568	20.713617
1864.522179	-3.006100	3.350300	-10.070000	26.059696	0.000570	20.705050
1865.531147	-2.984600	3.351400	-10.002000	26.062656	0.000569	20.717509
1866.521918	-3.001800	3.348600	-10.050000	26.068816	0.000567	20.731285
1867.525353	-2.988200	3.348400	-10.005000	26.076531	0.000566	20.723863
1868.528573	-2.981500	3.349500	-9.985600	26.086937	0.000565	20.725785
1869.520499	-2.982000	3.349400	-9.986300	26.112794	0.000568	20.729480
1870.530187	-3.004900	3.349300	-10.063000	26.104796	0.000565	20.738988
1871.523343	-2.997200	3.348200	-10.034000	26.110997	0.000565	20.731468
1872.520321	-2.991400	3.347700	-10.014000	26.105482	0.000564	20.750108
1873.523448	-2.981700	3.349700	-9.986400	26.114503	0.000565	20.738784
1874.530221	-2.984000	3.348100	-9.989200	26.080852	0.000563	20.736740
1875.531501	-3.005300	3.346400	-10.056000	26.072553	0.000564	20.743101
1876.522012	-2.987500	3.347000	-9.998500	26.027518	0.000563	20.728198
1877.524950	-2.984200	3.346400	-9.985600	26.018471	0.000563	20.741869
1878.523955	-2.975600	3.346100	-9.955900	26.017552	0.000562	20.740945
1879.526575	-2.987900	3.345700	-9.995500	26.037251	0.000562	20.728019
1880.525418	-3.016300	3.344400	-10.086000	26.043753	0.000561	20.759684
1881.524974	-3.020300	3.343800	-10.098000	26.038985	0.000562	20.730710
1882.522664	-3.023900	3.344000	-10.111000	26.007635	0.000560	20.743309
1883.527724	-3.010700	3.343200	-10.063000	25.994598	0.000561	20.736849
1884.521194	-3.010600	3.344200	-10.068000	25.978374	0.000559	20.741412
1885.524086	-2.999000	3.343900	-10.027000	25.971337	0.000559	20.739084
1886.523155	-3.028200	3.342300	-10.119000	25.992679	0.000557	20.747250
1887.523311	-3.011400	3.344300	-10.070000	25.992673	0.000559	20.741553
1888.529845	-3.040200	3.342500	-10.160000	25.968383	0.000556	20.738487
1889.521521	-3.026600	3.342000	-10.114000	25.980794	0.000555	20.745740
1890.526749	-3.026300	3.340500	-10.108000	26.036483	0.000556	20.753801
1891.524885	-3.030000	3.341000	-10.122000	26.035637	0.000554	20.763383
1892.526144	-3.019100	3.340900	-10.086000	26.020105	0.000556	20.753468
1893.530438	-2.994500	3.341500	-10.004000	25.987241	0.000555	20.734673
1894.526115	-2.994500	3.341700	-10.006000	25.988859	0.000554	20.744835
1895.527442	-2.976000	3.341900	-9.944700	26.001920	0.000554	20.741361
1896.527570	-2.997300	3.341100	-10.014000	26.020050	0.000553	20.758628
1897.526910	-2.989000	3.341500	-9.986800	26.043996	0.000552	20.750444
1898.536045	-2.993900	3.340200	-9.999000	26.024444	0.000550	20.773475
1899.530610	-2.985300	3.338700	-9.965700	26.055438	0.000550	20.742025
1900.527454	-2.995300	3.340200	-10.004000	26.052078	0.000551	20.751927
1901.537856	-3.031000	3.338700	-10.118000	26.087944	0.000551	20.746711
1902.528368	-3.002000	3.338700	-10.021000	26.076293	0.000549	20.744962
1903.531718	-2.979900	3.339600	-9.949500	26.050209	0.000548	20.764748
1904.530827	-2.992800	3.337900	-9.987400	26.043007	0.000548	20.766995
1905.531854	-3.006100	3.338400	-10.035000	26.042676	0.000548	20.758601
1906.535202	-3.002000	3.338000	-10.019000	26.049356	0.000549	20.781909
1907.533161	-3.011300	3.335500	-10.043000	26.058868	0.000547	20.765387
1908.528461	-2.993100	3.337700	-9.988400	26.095873	0.000547	20.779809
1909.529158	-3.004400	3.337500	-10.026000	26.116514	0.000545	20.774470
1910.536050	-3.011800	3.335300	-10.043000	26.089113	0.000545	20.770646
1911.533357	-2.985300	3.335900	-9.957300	26.112609	0.000546	20.765806
1912.531077	-2.979900	3.336800	-9.942700	26.138717	0.000544	20.756477
1913.531810	-3.000200	3.334800	-10.004000	26.140469	0.000544	20.759185
1914.532565	-2.999000	3.334800	-9.999700	26.111267	0.000542	20.763983
1915.533299	-2.989300	3.334500	-9.966800	26.165184	0.000543	20.766003
1916.533785	-2.986200	3.332500	-9.950000	26.144820	0.000542	20.791059
1917.535542	-2.997800	3.334200	-9.994900	26.119915	0.000542	20.776940
1918.537448	-2.997500	3.333300	-9.990000	26.077738	0.000543	20.792882
1919.535359	-3.021300	3.331200	-10.063000	26.065535	0.000540	20.777302
1920.539437	-3.014400	3.332000	-10.043000	26.059253	0.000541	20.769094
1921.534130	-3.022800	3.330600	-10.067000	26.063151	0.000542	20.776803
1922.537300	-2.993800	3.332800	-9.976900	26.085037	0.000538	20.782198
1923.537592	-2.990000	3.332300	-9.962600	26.087592	0.000537	20.779076
1924.536109	-3.009500	3.331900	-10.026000	26.099261	0.000538	20.754289
1925.546190	-3.018200	3.330100	-10.050000	26.078748	0.000539	20.783940
1926.538319	-2.993800	3.331700	-9.973200	26.047228	0.000539	20.774081
1927.540138	-3.001000	3.329500	-9.991200	26.061214	0.000537	20.773909
1928.546324	-2.975800	3.331500	-9.912700	26.086722	0.000537	20.789581
1929.539997	-2.997300	3.328800	-9.976600	26.118339	0.000535	20.768718
1930.546322	-3.001700	3.330100	-9.994700	26.134432	0.000537	20.787734
1931.546186	-3.014900	3.327900	-10.032000	26.124774	0.000535	20.780400
1932.546107	-3.019700	3.329200	-10.052000	26.123334	0.000535	20.796496
1933.539845	-3.017400	3.327100	-10.037000	26.112431	0.000534	20.804982
1934.547212	-3.021800	3.328100	-10.056000	26.118688	0.000533	20.799415
1935.550415	-3.000200	3.326600	-9.980100	26.137760	0.000532	20.791551
1936.543354	-2.977500	3.327800	-9.907600	26.141063	0.000534	20.787284
1937.550826	-3.005800	3.327200	-9.999800	26.152070	0.000531	20.781748
1938.546356	-2.995800	3.327100	-9.965900	26.142307	0.000531	20.807974
1939.543016	-2.999800	3.326700	-9.977800	26.139654	0.000530	20.776859
1940.545436	-2.997700	3.325100	-9.967100	26.092986	0.000530	20.801090
1941.549018	-3.007600	3.326200	-10.004000	26.080440	0.000531	20.801761
1942.543971	-2.993900	3.325900	-9.957000	26.076714	0.000530	20.810345
1943.549435	-2.990100	3.325400	-9.942300	26.079643	0.000529	20.806650
1944.549271	-3.006100	3.325000	-9.994300	26.068195	0.000526	20.771440
1945.542635	-3.004100	3.323100	-9.981300	26.071523	0.000529	20.805130
1946.550157	-2.977200	3.324500	-9.895900	26.052168	0.000529	20.790898
1947.549272	-2.984800	3.324100	-9.920700	26.073760	0.000528	20.784618
1948.552232	-2.997800	3.324400	-9.963800	26.122016	0.000525	20.788534
1949.544774	-3.008300	3.323600	-9.997300	26.150200	0.000528	20.789827
1950.549170	-3.018200	3.322400	-10.026000	26.170190	0.000524	20.779568
1951.544511	-2.991900	3.322300	-9.939100	26.193741	0.000525	20.810345
1952.552258	-3.003200	3.322100	-9.976300	26.167163	0.000524	20.804975
1953.559077	-2.995800	3.322600	-9.952900	26.120244	0.000524	20.813781
1954.550379	-2.986800	3.320900	-9.917500	26.153129	0.000524	20.809366
1955.550900	-2.975100	3.322200	-9.882100	26.138200	0.000522	20.818073
1956.550723	-3.009700	3.319700	-9.990200	26.111156	0.000524	20.789002
1957.545938	-3.007800	3.319900	-9.984700	26.106675	0.000523	20.811526
1958.547892	-2.978400	3.321700	-9.891700	26.094168	0.000522	20.808442
1959.552798	-3.029000	3.320200	-10.055000	26.138813	0.000522	20.812998
1960.547442	-3.010100	3.319600	-9.991000	26.122836	0.000520	20.805479
1961.548340	-2.988400	3.320700	-9.920800	26.136226	0.000523	20.817985
1962.552427	-3.009500	3.318400	-9.986200	26.115408	0.000521	20.808921
1963.551207	-2.973800	3.319500	-9.870200	26.165752	0.000520	20.792652
1964.550908	-2.997500	3.318800	-9.947100	26.195993	0.000521	20.826833
1965.556545	-2.999600	3.318100	-9.951700	26.199241	0.000518	20.829622
1966.551230	-3.001500	3.317700	-9.957300	26.189430	0.000519	20.824979
1967.555679	-3.009400	3.316800	-9.979700	26.195613	0.000518	20.825503
1968.547494	-3.017500	3.315300	-10.002000	26.206092	0.000516	20.819911
1969.546503	-2.998100	3.316000	-9.939400	26.200496	0.000517	20.810970
1970.554740	-3.017800	3.316100	-10.006000	26.208144	0.000516	20.834301
1971.551542	-3.017800	3.316800	-10.008000	26.182118	0.000515	20.830434
1972.555667	-2.994000	3.314300	-9.922100	26.185893	0.000516	20.818581
1973.548738	-2.972000	3.316400	-9.855000	26.192272	0.000514	20.829732
1974.551339	-2.990100	3.316400	-9.914600	26.185065	0.000515	20.794516
1975.557585	-3.002200	3.314600	-9.950600	26.155908	0.000513	20.823063
1976.550023	-3.006600	3.313600	-9.960400	26.173091	0.000513	20.811406
1977.554249	-3.000900	3.313900	-9.943500	26.193748	0.000513	20.824577
1978.552849	-2.989300	3.313500	-9.903700	26.202437	0.000512	20.827145
1979.554029	-3.024900	3.312600	-10.019000	26.224663	0.000511	20.814866
1980.553418	-2.987800	3.313700	-9.900200	26.220766	0.000510	20.836554
1981.556854	-2.993900	3.313600	-9.919700	26.245840	0.000511	20.821448
1982.555139	-3.008500	3.312200	-9.964100	26.243800	0.000509	20.839786
1983.553413	-3.026800	3.311500	-10.022000	26.270792	0.000507	20.819022
1984.553307	-3.000100	3.312000	-9.935800	26.286834	0.000510	20.817125
1985.556142	-2.990700	3.311600	-9.902700	26.288592	0.000507	20.822685
1986.554712	-3.005400	3.310400	-9.947900	26.308065	0.000506	20.837513
1987.554043	-2.981100	3.310600	-9.868200	26.357450	0.000509	20.830721
1988.558781	-3.029600	3.310200	-10.027000	26.353774	0.000504	20.829871
1989.556527	-2.992800	3.310700	-9.907100	26.331551	0.000505	20.829822
1990.555575	-3.018100	3.311200	-9.992800	26.353375	0.000504	20.822833
1991.561845	-2.993900	3.310600	-9.909300	26.364478	0.000505	20.824982
1992.554562	-2.999000	3.308500	-9.921000	26.326256	0.000503	20.838726
1993.557595	-3.008600	3.309200	-9.954900	26.342818	0.000503	20.817913
1994.558465	-2.998700	3.307300	-9.916700	26.316496	0.000502	20.826546
1995.558088	-3.018400	3.307500	-9.982100	26.333879	0.000500	20.829317
1996.555528	-2.994100	3.305900	-9.897000	26.338149	0.000501	20.843091
1997.563103	-3.017200	3.306600	-9.975800	26.329437	0.000500	20.799723
1998.559875	-3.003500	3.306500	-9.929700	26.326330	0.000499	20.822679
1999.561794	-2.999200	3.307500	-9.919200	26.333928	0.000499	20.807555
2000.565715	-3.009700	3.306000	-9.948800	26.384457	0.000497	20.807605
2001.560527	-3.009200	3.304500	-9.941700	26.410086	0.000498	20.810604
2002.560319	-2.975200	3.306000	-9.835000	26.389696	0.000497	20.827568
2003.563421	-3.031900	3.304100	-10.016000	26.368092	0.000498	20.816761
2004.562448	-2.995300	3.304700	-9.897800	26.344160	0.000496	20.817365
2005.559611	-2.982500	3.305400	-9.857400	26.375770	0.000495	20.814046
2006.563177	-3.012700	3.304300	-9.954000	26.428380	0.000495	20.811921
2007.562002	-2.994200	3.303700	-9.890600	26.440198	0.000493	20.819058
2008.565569	-3.016100	3.303400	-9.961700	26.458131	0.000492	20.799150
2009.566176	-2.996000	3.302900	-9.894600	26.497027	0.000494	20.799365
2010.566177	-2.979300	3.303500	-9.841100	26.487966	0.000493	20.795948
2011.564423	-2.991400	3.302100	-9.876900	26.447575	0.000492	20.818886
2012.566184	-2.986200	3.302800	-9.861900	26.446632	0.000492	20.784273
2013.569636	-3.010100	3.302000	-9.937900	26.439898	0.000492	20.803109
2014.565630	-2.992000	3.302500	-9.880800	26.448910	0.000492	20.798891
2015.569269	-2.985700	3.301700	-9.855200	26.440873	0.000490	20.795080
2016.568371	-3.011900	3.299300	-9.935800	26.487997	0.000489	20.790289
2017.567635	-2.990900	3.301500	-9.873900	26.480272	0.000491	20.803861
2018.570624	-2.993100	3.299900	-9.875600	26.499521	0.000487	20.801872
2019.571204	-3.001600	3.299200	-9.901900	26.505500	0.000488	20.802666
2020.568300	-3.000500	3.299800	-9.899800	26.467958	0.000487	20.810924
2021.572058	-3.008600	3.299900	-9.926900	26.478734	0.000487	20.803738
2022.569602	-3.008800	3.298800	-9.923900	26.476302	0.000488	20.802716
2023.568963	-3.005600	3.298100	-9.911500	26.410240	0.000489	20.776145
2024.572777	-2.997600	3.298800	-9.886600	26.424368	0.000487	20.802199
2025.569805	-3.010800	3.297800	-9.927300	26.471462	0.000485	20.791687
2026.569809	-2.989400	3.297300	-9.856300	26.477570	0.000486	20.807309
2027.572732	-3.004100	3.296500	-9.902200	26.505126	0.000486	20.766255
2028.571949	-2.988900	3.296500	-9.851400	26.482882	0.000485	20.803165
2029.574470	-3.007900	3.295700	-9.910800	26.487330	0.000486	20.801472
2030.574050	-2.992200	3.295800	-9.860900	26.453886	0.000484	20.784452
2031.574348	-2.990600	3.296600	-9.856900	26.476480	0.000484	20.781083
2032.574137	-2.980100	3.296500	-9.823200	26.469397	0.000483	20.787715
2033.574223	-2.995100	3.294600	-9.866500	26.469771	0.000482	20.771969
2034.572915	-2.994600	3.295300	-9.867400	26.461500	0.000482	20.765078
2035.574852	-2.989300	3.295100	-9.848700	26.470114	0.000479	20.787013
2036.575201	-2.973600	3.296500	-9.801600	26.435530	0.000482	20.774063
2037.576764	-2.979600	3.294800	-9.815500	26.444266	0.000480	20.774309
2038.578174	-3.009300	3.294200	-9.912300	26.443959	0.000482	20.781587
2039.575643	-2.987400	3.293400	-9.838300	26.454614	0.000482	20.793244
2040.576254	-2.982100	3.293900	-9.821800	26.459723	0.000478	20.768033
2041.578510	-2.983200	3.294200	-9.825500	26.496567	0.000477	20.773772
2042.581641	-2.998200	3.292800	-9.871800	26.481912	0.000475	20.767577
2043.576108	-2.963600	3.292700	-9.756900	26.470388	0.000476	20.787288
2044.576743	-2.997000	3.290800	-9.861800	26.510503	0.000477	20.781616
2045.576509	-3.027300	3.289200	-9.956200	26.542897	0.000475	20.789997
2046.577830	-2.982400	3.290900	-9.813300	26.559089	0.000477	20.779720
2047.576256	-3.014500	3.289000	-9.912900	26.534260	0.000477	20.768512
2048.575312	-3.012500	3.289600	-9.908900	26.509106	0.000472	20.773100
2049.577822	-3.009600	3.289200	-9.898000	26.480349	0.000473	20.769799
2050.578737	-2.990900	3.289400	-9.837100	26.506888	0.000471	20.764706
2051.579386	-3.000800	3.289700	-9.870700	26.531679	0.000471	20.775402
2052.579882	-3.013000	3.288200	-9.906400	26.489323	0.000470	20.760801
2053.578877	-2.979300	3.288400	-9.796200	26.481677	0.000471	20.782988
2054.578918	-3.014300	3.287700	-9.909100	26.428137	0.000470	20.777538
2055.577602	-3.013100	3.287000	-9.902600	26.408820	0.000469	20.763337
2056.578014	-2.994000	3.286900	-9.839700	26.423064	0.000470	20.754894
2057.580700	-3.012900	3.287400	-9.903700	26.438663	0.000469	20.757296
2058.582161	-3.012500	3.285900	-9.897600	26.479324	0.000467	20.753595
2059.580611	-2.997900	3.287000	-9.852500	26.510531	0.000468	20.778325
2060.581068	-3.000000	3.285900	-9.857000	26.529620	0.000465	20.772857
2061.581330	-3.003900	3.284600	-9.865800	26.585451	0.000465	20.775874
2062.582549	-2.997600	3.286300	-9.849100	26.570081	0.000465	20.775123
2063.587806	-2.995700	3.285000	-9.838900	26.526489	0.000464	20.782038
2064.584951	-3.016000	3.283200	-9.900800	26.489615	0.000462	20.762991
2065.586023	-2.987600	3.284600	-9.811900	26.513232	0.000463	20.766816
2066.588476	-3.002200	3.284000	-9.857700	26.548481	0.000462	20.751987
2067.588495	-3.006900	3.283800	-9.872700	26.585273	0.000461	20.764315
2068.588351	-3.003700	3.283300	-9.862200	26.587754	0.000460	20.783879
2069.590653	-3.008700	3.282400	-9.875000	26.621243	0.000460	20.765387
2070.588382	-3.020900	3.281600	-9.912600	26.601488	0.000460	20.766391
2071.588594	-3.016000	3.282800	-9.900700	26.589212	0.000459	20.753101
2072.586954	-3.004900	3.282300	-9.861700	26.560341	0.000457	20.771021
2073.590368	-3.004700	3.281000	-9.855900	26.568391	0.000459	20.774846
2074.588802	-2.990800	3.281000	-9.811700	26.546270	0.000458	20.764463
2075.590156	-2.984700	3.280500	-9.789300	26.513477	0.000458	20.750466
2076.591107	-2.996100	3.281000	-9.829600	26.502977	0.000456	20.776896
2077.590132	-2.986700	3.281400	-9.798400	26.501341	0.000455	20.760553
2078.591410	-3.006700	3.279900	-9.859200	26.487110	0.000456	20.772801
2079.593072	-3.016300	3.280000	-9.892900	26.475421	0.000454	20.765320
2080.591798	-3.010700	3.279000	-9.871400	26.456184	0.000455	20.747406
2081.590465	-2.986900	3.279800	-9.796000	26.483741	0.000453	20.761354
2082.594101	-2.987300	3.279400	-9.795400	26.511744	0.000453	20.753465
2083.597417	-2.986600	3.278500	-9.790400	26.541339	0.000451	20.749549
2084.593748	-3.002300	3.276000	-9.834000	26.529455	0.000450	20.748983
2085.593347	-2.988200	3.277200	-9.792500	26.544420	0.000450	20.755017
2086.592695	-2.997100	3.276700	-9.819500	26.566247	0.000450	20.755147
2087.592690	-3.003700	3.275400	-9.836700	26.584349	0.000450	20.737781
2088.593439	-2.982400	3.277400	-9.773800	26.617115	0.000447	20.752228
2089.593809	-3.018100	3.273600	-9.879000	26.619376	0.000449	20.763984
2090.593223	-2.984900	3.275900	-9.776800	26.583063	0.000450	20.741704
2091.596935	-2.993800	3.276200	-9.807700	26.615186	0.000447	20.726106
2092.597441	-3.009300	3.274100	-9.851500	26.613380	0.000448	20.762698
2093.596614	-3.012700	3.274300	-9.864200	26.643842	0.000445	20.747327
2094.601341	-3.003900	3.273500	-9.832100	26.685145	0.000445	20.745227
2095.596725	-3.032000	3.272700	-9.921300	26.668693	0.000446	20.758560
2096.599708	-3.006900	3.273000	-9.840100	26.669042	0.000445	20.742789
2097.601593	-2.984200	3.272400	-9.764400	26.667180	0.000443	20.739968
2098.598958	-3.004600	3.273000	-9.832800	26.648785	0.000443	20.741391
2099.597309	-3.016500	3.272800	-9.870300	26.646287	0.000444	20.765907
2100.600399	-3.008500	3.272100	-9.842400	26.687596	0.000442	20.754330
2101.597850	-2.987000	3.272300	-9.772800	26.702884	0.000441	20.745043
2102.599497	-3.011800	3.270800	-9.849400	26.727562	0.000439	20.744249
2103.602800	-3.004100	3.270000	-9.822400	26.734262	0.000440	20.746244
2104.598605	-3.001800	3.271500	-9.819300	26.714590	0.000438	20.736423
2105.598374	-2.996200	3.269700	-9.796600	26.678243	0.000441	20.739711
2106.599707	-3.002000	3.269700	-9.814800	26.635990	0.000437	20.747494
2107.600010	-2.997500	3.270400	-9.801800	26.582250	0.000438	20.743258
2108.598895	-3.012000	3.268600	-9.843500	26.562813	0.000436	20.739366
2109.599932	-2.994200	3.268500	-9.785200	26.554770	0.000435	20.733651
2110.600300	-2.989800	3.266900	-9.766400	26.574189	0.000437	20.741793
2111.599780	-3.000000	3.267000	-9.799900	26.594000	0.000434	20.728042
2112.601265	-2.998000	3.267700	-9.795500	26.606969	0.000434	20.720689
2113.601280	-3.003400	3.265700	-9.806800	26.584499	0.000434	20.742200
2114.601533	-3.003200	3.267200	-9.811600	26.553968	0.000433	20.721465
2115.602555	-3.007500	3.266200	-9.822700	26.599753	0.000433	20.715806
2116.604243	-3.020600	3.265300	-9.862200	26.636121	0.000431	20.740513
2117.602402	-3.016100	3.265100	-9.846800	26.636414	0.000431	20.728006
2118.604702	-3.004600	3.265000	-9.808800	26.607429	0.000429	20.738223
2119.604562	-3.005200	3.264000	-9.807400	26.573027	0.000429	20.745841
2120.602431	-2.986200	3.266300	-9.752300	26.556861	0.000429	20.720105
2121.604594	-3.047500	3.262600	-9.940000	26.587325	0.000427	20.724176
2122.603536	-3.018800	3.264500	-9.853900	26.616250	0.000428	20.737607
2123.603649	-3.029000	3.261400	-9.877300	26.658032	0.000425	20.718917
2124.603364	-3.017000	3.260800	-9.836600	26.697381	0.000427	20.736666
2125.604562	-3.026000	3.261700	-9.868400	26.744739	0.000428	20.725008
2126.605667	-3.023600	3.260100	-9.855600	26.748990	0.000425	20.742085
2127.605456	-3.002400	3.259900	-9.786100	26.720246	0.000424	20.734049
2128.605612	-3.011300	3.260800	-9.818000	26.691263	0.000424	20.710124
2129.605791	-2.989900	3.259900	-9.744800	26.671300	0.000425	20.710919
2130.609935	-3.012000	3.259900	-9.818100	26.684262	0.000423	20.711147
2131.605746	-3.012100	3.259000	-9.814700	26.663191	0.000422	20.722681
2132.605978	-3.001500	3.260100	-9.783500	26.626157	0.000422	20.718168
2133.606311	-3.005500	3.259100	-9.794200	26.631076	0.000420	20.724536
2134.606047	-2.992400	3.260100	-9.754300	26.635744	0.000420	20.710735
2135.607173	-3.003000	3.258100	-9.781700	26.658935	0.000418	20.718402
2136.607823	-3.019100	3.257400	-9.831300	26.658463	0.000417	20.708444
2137.609277	-2.991600	3.258200	-9.746000	26.611573	0.000418	20.713938
2138.607619	-2.992500	3.257700	-9.747500	26.584118	0.000417	20.719530
2139.609494	-2.970200	3.257900	-9.676000	26.596559	0.000416	20.697422
2140.610182	-3.000000	3.257400	-9.770700	26.608327	0.000416	20.712571
2141.614591	-2.985500	3.257400	-9.724200	26.623543	0.000416	20.704633
2142.610592	-2.998100	3.256300	-9.762000	26.624346	0.000417	20.720614
2143.610106	-3.001300	3.256400	-9.772800	26.586643	0.000414	20.703100
2144.610778	-2.979900	3.257600	-9.706700	26.571224	0.000413	20.712732
2145.614929	-2.977100	3.256900	-9.694200	26.606931	0.000412	20.722075
2146.613375	-3.019900	3.254500	-9.826600	26.568701	0.000412	20.700237
2147.611982	-2.992700	3.255800	-9.741400	26.573547	0.000412	20.705583
2148.617594	-3.000800	3.254500	-9.764700	26.551751	0.000411	20.710701
2149.612429	-3.013400	3.252100	-9.798900	26.557068	0.000410	20.698501
2150.615325	-3.010500	3.252600	-9.790600	26.558508	0.000410	20.709907
2151.619327	-3.008000	3.251500	-9.779400	26.597186	0.000409	20.689516
2152.615598	-2.999900	3.252500	-9.756500	26.615588	0.000407	20.689997
2153.614441	-2.998800	3.251300	-9.748600	26.629218	0.000407	20.705122
2154.620325	-2.989100	3.250100	-9.713800	26.565597	0.000404	20.696643
2155.619864	-2.973400	3.251700	-9.667400	26.525680	0.000404	20.703460
2156.615890	-2.985100	3.251900	-9.706400	26.545865	0.000406	20.708578
2157.619619	-2.994200	3.250000	-9.730000	26.571882	0.000405	20.705332
2158.620597	-2.979900	3.251000	-9.687600	26.563245	0.000405	20.700443
2159.620298	-2.995500	3.249600	-9.732000	26.604680	0.000405	20.720759
2160.620101	-3.006000	3.248600	-9.763600	26.634719	0.000402	20.699273
2161.622080	-3.000200	3.248100	-9.744700	26.621562	0.000402	20.696951
2162.622122	-3.013800	3.247800	-9.786900	26.626065	0.000403	20.697211
2163.628880	-2.996100	3.247500	-9.728100	26.654560	0.000399	20.687449
2164.620918	-3.022800	3.247500	-9.814800	26.688672	0.000399	20.690449
2165.623203	-3.043700	3.245800	-9.878400	26.701162	0.000399	20.686409
2166.625897	-3.019600	3.246400	-9.800700	26.673831	0.000399	20.694969
2167.620418	-3.007500	3.246100	-9.761600	26.665243	0.000399	20.697242
2168.623008	-3.004000	3.246400	-9.750300	26.656491	0.000398	20.714997
2169.626421	-3.004900	3.246700	-9.754700	26.653336	0.000396	20.697600
2170.626933	-3.019600	3.244500	-9.795400	26.642237	0.000395	20.690708
2171.623895	-2.995100	3.245300	-9.718200	26.592614	0.000397	20.680652
2172.626550	-3.011400	3.243600	-9.766400	26.596467	0.000394	20.675516
2173.624508	-2.989000	3.244700	-9.697000	26.621068	0.000394	20.704990
2174.622327	-2.978300	3.243600	-9.659300	26.653521	0.000394	20.689724
2175.625200	-2.970100	3.243200	-9.631200	26.715826	0.000392	20.681238
2176.624463	-2.992300	3.242900	-9.702900	26.740179	0.000390	20.679643
2177.622498	-2.992800	3.242300	-9.702900	26.764280	0.000389	20.687279
2178.629559	-2.999600	3.241500	-9.721600	26.797292	0.000388	20.687753
2179.625210	-2.997700	3.241100	-9.714200	26.777387	0.000391	20.688603
2180.621985	-3.004300	3.240400	-9.734300	26.799804	0.000387	20.681269
2181.624213	-2.993800	3.240900	-9.701500	26.778680	0.000388	20.669038
2182.624461	-2.997600	3.241300	-9.714200	26.754788	0.000388	20.675364
2183.620883	-3.001300	3.240400	-9.724200	26.749374	0.000389	20.662332
2184.623058	-2.994400	3.238900	-9.695500	26.791199	0.000387	20.684946
2185.630158	-2.977500	3.238900	-9.642000	26.797361	0.000387	20.675968
2186.622219	-3.005200	3.238500	-9.731500	26.752706	0.000385	20.669951
2187.624969	-3.022000	3.237300	-9.781900	26.733474	0.000383	20.670056
2188.626638	-3.000800	3.239100	-9.718800	26.701103	0.000383	20.665486
2189.623068	-3.015100	3.236700	-9.757400	26.695419	0.000383	20.681584
2190.630966	-2.994100	3.237200	-9.690800	26.678790	0.000382	20.672451
2191.624897	-3.006400	3.236800	-9.730400	26.677032	0.000381	20.690126
2192.621706	-2.960900	3.236600	-9.582300	26.687929	0.000382	20.690176
2193.625885	-3.006000	3.236100	-9.726800	26.684009	0.000382	20.673431
2194.629469	-2.997500	3.238100	-9.704300	26.719528	0.000380	20.665043
2195.625478	-2.989700	3.236700	-9.675300	26.725408	0.000379	20.655306
2196.628343	-3.045900	3.232000	-9.842600	26.699034	0.000381	20.671941
2197.628380	-2.980900	3.234800	-9.641000	26.703842	0.000379	20.676775
2198.625746	-3.012300	3.234300	-9.741700	26.758525	0.000378	20.659679
2199.630947	-2.987200	3.234200	-9.660200	26.778217	0.000376	20.670944
2200.629925	-2.987000	3.234000	-9.659300	26.772722	0.000376	20.649296
2201.626321	-2.999000	3.232700	-9.694000	26.768907	0.000377	20.675809
2202.629892	-3.030400	3.232500	-9.794800	26.757858	0.000376	20.669440
2203.631032	-3.002000	3.232400	-9.702100	26.737236	0.000375	20.679528
2204.626012	-2.995500	3.231300	-9.678600	26.721764	0.000373	20.677723
2205.631982	-2.984600	3.231100	-9.642400	26.730811	0.000374	20.665956
2206.627617	-2.962900	3.230900	-9.571400	26.765288	0.000371	20.667902
2207.628838	-2.968800	3.231900	-9.593800	26.824237	0.000371	20.673592
2208.626921	-2.988300	3.229700	-9.650300	26.905118	0.000371	20.677157
2209.627271	-2.999400	3.229500	-9.685200	26.887978	0.000372	20.664188
2210.625751	-2.986700	3.228700	-9.641800	26.879319	0.000372	20.668758
2211.627315	-2.999500	3.227900	-9.680600	26.879068	0.000368	20.665660
2212.629173	-3.014000	3.227900	-9.727300	26.842788	0.000368	20.666640
2213.632062	-3.016300	3.226300	-9.730200	26.866587	0.000368	20.667336
2214.630778	-3.025700	3.227100	-9.763000	26.878732	0.000368	20.653941
2215.631786	-3.015600	3.226200	-9.727900	26.905928	0.000365	20.664220
2216.629671	-3.007200	3.226300	-9.700900	26.921042	0.000364	20.659502
2217.629266	-2.970300	3.226100	-9.581300	26.946406	0.000362	20.655136
2218.630888	-2.994900	3.225900	-9.659000	26.984379	0.000363	20.652069
2219.636277	-3.006400	3.225700	-9.696300	27.006295	0.000364	20.653720
2220.630618	-3.018300	3.225100	-9.733800	27.032779	0.000362	20.672769
2221.630769	-2.980600	3.224300	-9.609200	27.004832	0.000360	20.652248
2222.628063	-2.994000	3.223500	-9.650500	27.000001	0.000359	20.640276
2223.630439	-2.997400	3.223200	-9.659800	26.990050	0.000360	20.671525
2224.629440	-3.004200	3.222000	-9.677500	27.013943	0.000359	20.647660
2225.630180	-2.999600	3.221900	-9.663600	27.031811	0.000360	20.655199
2226.631449	-2.991800	3.222700	-9.639000	27.059311	0.000361	20.673373
2227.638359	-2.996300	3.222200	-9.654100	27.075243	0.000359	20.655729
2228.630810	-3.004100	3.219700	-9.671300	27.086687	0.000358	20.665343
2229.633490	-3.017400	3.220400	-9.715500	27.070259	0.000357	20.642654
2230.631814	-3.026900	3.219500	-9.743800	27.089191	0.000358	20.650316
2231.635118	-2.980600	3.220200	-9.597500	27.094384	0.000358	20.662178
2232.634015	-3.000800	3.219600	-9.660500	27.101958	0.000357	20.663157
2233.635613	-2.984600	3.220600	-9.610700	27.115452	0.000356	20.670566
2234.638747	-2.969800	3.220200	-9.562600	27.121214	0.000356	20.663083
2235.634850	-2.989000	3.219300	-9.622100	27.118208	0.000354	20.645833
2236.636270	-2.993900	3.216400	-9.628000	27.071882	0.000352	20.643813
2237.636462	-2.989700	3.215900	-9.612500	27.042235	0.000357	20.650034
2238.640422	-2.991900	3.216200	-9.621500	27.073303	0.000352	20.663262
2239.638423	-3.015600	3.214800	-9.693700	27.065320	0.000352	20.654284
2240.636633	-3.011100	3.213600	-9.675900	27.082397	0.000349	20.656286
2241.637907	-2.993000	3.214900	-9.621900	27.070750	0.000351	20.664488
2242.638073	-2.990200	3.216000	-9.615600	27.089867	0.000352	20.674232
2243.638701	-2.993900	3.215700	-9.626900	27.057489	0.000349	20.650202
2244.639047	-2.997300	3.213500	-9.630600	27.017162	0.000349	20.649000
2245.643162	-2.985100	3.213700	-9.591800	27.009195	0.000349	20.654740
2246.642469	-2.995100	3.213400	-9.623500	26.947232	0.000348	20.665450
2247.642573	-2.988100	3.210900	-9.594400	26.949669	0.000347	20.656521
2248.640872	-2.985000	3.211900	-9.586400	26.980423	0.000348	20.667058
2249.640254	-3.007200	3.211200	-9.654400	27.025099	0.000344	20.634222
2250.641077	-2.980200	3.210700	-9.567700	27.045073	0.000347	20.671382
2251.641449	-3.023000	3.209800	-9.701400	27.056664	0.000345	20.652691
2252.639098	-2.984200	3.209500	-9.576600	27.013110	0.000345	20.642554
2253.640515	-3.031500	3.207300	-9.721700	27.008052	0.000344	20.671136
2254.640981	-2.989700	3.208700	-9.591600	27.010906	0.000342	20.651718
2255.642267	-3.005700	3.209400	-9.644000	27.016319	0.000342	20.634401
2256.640844	-3.001500	3.208100	-9.627700	27.041277	0.000343	20.654286
2257.643475	-2.985000	3.207600	-9.574000	27.054509	0.000344	20.666647
2258.641002	-2.982000	3.207900	-9.565300	27.064190	0.000341	20.663106
2259.642584	-2.985300	3.207800	-9.574200	27.050671	0.000340	20.665157
2260.642191	-2.998100	3.206700	-9.613200	27.035332	0.000341	20.644513
2261.642925	-2.969700	3.206400	-9.520200	27.005457	0.000340	20.661887
2262.641618	-3.000800	3.205400	-9.617200	27.018334	0.000340	20.643540
2263.641661	-2.973900	3.205400	-9.531700	27.014360	0.000338	20.666573
2264.643399	-2.999400	3.203300	-9.607300	27.040372	0.000337	20.642469
2265.644457	-2.996600	3.202200	-9.595700	27.036820	0.000339	20.671143
2266.645552	-2.988400	3.204900	-9.576700	27.064019	0.000336	20.661511
2267.644536	-2.991600	3.202900	-9.579800	27.075481	0.000336	20.669246
2268.647447	-3.018400	3.202400	-9.664400	27.096354	0.000336	20.684550
2269.642896	-2.998600	3.201900	-9.600300	27.109499	0.000334	20.661259
2270.643261	-2.995100	3.202900	-9.592400	27.132649	0.000333	20.665101
2271.641894	-2.980000	3.200800	-9.536200	27.141135	0.000334	20.684069
2272.646054	-3.019300	3.198600	-9.656600	27.151311	0.000333	20.655420
2273.645590	-2.988200	3.200400	-9.561700	27.186546	0.000331	20.661462
2274.645976	-3.009900	3.199700	-9.629900	27.165105	0.000333	20.681150
2275.649294	-2.981100	3.199000	-9.535500	27.145109	0.000331	20.661985
2276.652636	-3.020000	3.199700	-9.661600	27.118390	0.000331	20.672098
2277.648539	-3.000400	3.198700	-9.596800	27.165601	0.000331	20.672639
2278.648797	-2.984000	3.197500	-9.539300	27.193439	0.000330	20.654644
2279.651935	-2.983300	3.198800	-9.542100	27.207710	0.000328	20.666629
2280.650477	-3.013400	3.196000	-9.628900	27.212620	0.000326	20.683897
2281.649456	-2.994600	3.196900	-9.571100	27.236515	0.000329	20.677585
2282.651080	-2.984300	3.195200	-9.534500	27.239724	0.000327	20.678442
2283.647073	-2.986400	3.195400	-9.541800	27.250412	0.000326	20.667381
2284.649875	-3.003900	3.194300	-9.594600	27.259724	0.000325	20.663945
2285.649836	-3.013900	3.193500	-9.624000	27.243819	0.000327	20.681139
2286.649098	-2.992000	3.194000	-9.555600	27.203897	0.000325	20.684132
2287.650397	-2.976000	3.193800	-9.503600	27.161298	0.000323	20.688702
2288.651200	-2.976700	3.192500	-9.501900	27.183008	0.000323	20.687778
2289.649390	-2.995600	3.192500	-9.562900	27.186241	0.000323	20.693876
2290.649575	-2.988300	3.192200	-9.538500	27.204228	0.000323	20.686362
2291.652319	-3.004300	3.190800	-9.584400	27.171952	0.000320	20.659586
2292.650006	-2.999600	3.191800	-9.573100	27.177511	0.000322	20.682723
2293.655030	-2.976500	3.191600	-9.498800	27.160864	0.000321	20.679730
2294.654035	-2.981800	3.189100	-9.507500	27.153524	0.000322	20.669027
2295.654750	-3.012200	3.188900	-9.603800	27.160278	0.000319	20.681985
2296.652779	-3.007500	3.190500	-9.594200	27.179851	0.000318	20.671799
2297.656230	-3.002100	3.189500	-9.573800	27.197918	0.000319	20.674798
2298.654409	-3.013600	3.188000	-9.605400	27.248634	0.000317	20.666066
2299.656895	-3.016100	3.187300	-9.612800	27.304134	0.000317	20.696292
2300.656082	-3.007100	3.188000	-9.585800	27.265237	0.000315	20.699365
2301.655340	-2.998700	3.186100	-9.553000	27.249730	0.000319	20.681395
2302.656866	-3.009800	3.185900	-9.588100	27.182497	0.000315	20.675409
2303.655262	-3.005500	3.185900	-9.573700	27.132728	0.000314	20.690787
2304.657654	-3.021200	3.186000	-9.625400	27.093119	0.000315	20.701213
2305.660499	-3.007200	3.184500	-9.576100	27.060521	0.000315	20.708258
2306.658091	-2.961400	3.184400	-9.429200	27.066601	0.000313	20.681654
2307.661417	-3.003000	3.183300	-9.559000	27.091222	0.000312	20.691718
2308.660430	-2.989700	3.183000	-9.515800	27.134425	0.000312	20.698658
2309.660289	-2.982000	3.182300	-9.489000	27.142212	0.000312	20.682308
2310.660507	-2.997100	3.182400	-9.536800	27.140229	0.000311	20.675096
2311.661126	-2.985000	3.182200	-9.497300	27.163978	0.000310	20.686182
2312.659677	-2.986800	3.183100	-9.506100	27.146015	0.000310	20.666216
2313.662443	-2.990800	3.183400	-9.520500	27.131107	0.000308	20.704805
2314.660447	-2.978900	3.180100	-9.471900	27.102942	0.000308	20.688806
2315.660118	-2.967400	3.181200	-9.438900	27.081789	0.000308	20.679384
2316.659811	-3.017900	3.178300	-9.589800	27.087171	0.000307	20.680055
2317.660733	-2.980200	3.179700	-9.474600	27.116921	0.000306	20.685321
2318.661812	-2.981400	3.178300	-9.475300	27.162137	0.000305	20.699504
2319.661637	-3.008600	3.178100	-9.561500	27.208012	0.000305	20.676890
2320.664183	-2.996000	3.178800	-9.521800	27.233052	0.000305	20.707769
2321.661981	-3.017200	3.177600	-9.585100	27.240650	0.000305	20.703557
2322.660635	-2.984300	3.176800	-9.479200	27.266552	0.000305	20.700214
2323.664445	-2.966200	3.174800	-9.416200	27.248070	0.000303	20.705331
2324.662434	-2.969900	3.175500	-9.430000	27.247727	0.000303	20.688864
2325.660874	-2.981200	3.176300	-9.467800	27.182160	0.000302	20.693564
2326.665963	-3.017600	3.173700	-9.575900	27.131668	0.000301	20.699205
2327.664458	-3.009000	3.173100	-9.546400	27.112834	0.000302	20.700652
2328.664012	-2.995400	3.172800	-9.501700	27.095747	0.000299	20.699588
2329.666136	-3.005400	3.171200	-9.530100	27.112076	0.000298	20.710796
2330.664131	-3.005900	3.172300	-9.534500	27.094688	0.000300	20.684771
2331.663898	-2.994700	3.170700	-9.494000	27.094891	0.000300	20.697304
2332.664655	-3.000600	3.171200	-9.513500	27.099410	0.000299	20.690469
2333.665486	-2.976800	3.172900	-9.443700	27.120932	0.000298	20.695994
2334.663510	-2.988800	3.170000	-9.474100	27.119266	0.000299	20.707122
2335.669650	-3.024000	3.167800	-9.578600	27.091311	0.000298	20.687065
2336.665489	-2.983200	3.168700	-9.451600	27.070346	0.000297	20.691585
2337.669060	-3.017800	3.167800	-9.559000	27.042602	0.000297	20.700669
2338.673291	-2.982900	3.168100	-9.448200	27.025961	0.000295	20.690570
2339.667341	-3.000500	3.168500	-9.506200	27.009661	0.000295	20.709267
2340.669383	-2.994100	3.166800	-9.481400	27.048476	0.000294	20.708947
2341.678530	-3.018400	3.163800	-9.549200	27.100289	0.000292	20.702734
2342.669502	-2.993900	3.166300	-9.479000	27.158056	0.000294	20.689709
2343.668197	-3.015600	3.164500	-9.541200	27.237432	0.000293	20.706011
2344.669875	-2.952400	3.166300	-9.345900	27.274751	0.000293	20.700401
2345.667619	-2.991200	3.164100	-9.463700	27.313931	0.000291	20.705199
2346.668193	-3.009400	3.163200	-9.518600	27.340774	0.000294	20.688578
2347.673517	-3.003500	3.161300	-9.494300	27.365437	0.000292	20.710071
2348.670043	-3.017100	3.159700	-9.531600	27.341674	0.000291	20.712719
2349.673128	-2.982600	3.161400	-9.427800	27.312513	0.000289	20.736966
2350.672860	-3.011000	3.159400	-9.512500	27.296731	0.000290	20.698328
2351.675456	-2.997300	3.160900	-9.472300	27.254045	0.000291	20.717032
2352.674480	-3.002500	3.159700	-9.485200	27.225786	0.000289	20.724170
2353.678259	-3.007500	3.158400	-9.497100	27.214406	0.000290	20.716990
2354.673451	-2.991300	3.157800	-9.444600	27.265561	0.000287	20.704907
2355.674875	-2.989500	3.156500	-9.435500	27.252687	0.000288	20.705708
2356.678586	-2.991900	3.156800	-9.443000	27.300505	0.000287	20.709238
2357.675626	-3.004100	3.155900	-9.479100	27.353768	0.000284	20.714928
2358.675281	-2.987000	3.155800	-9.425400	27.378634	0.000288	20.712441
2359.678986	-2.983300	3.154700	-9.410800	27.390871	0.000286	20.709578
2360.675713	-3.010400	3.154600	-9.496400	27.423043	0.000285	20.708279
2361.675865	-3.023800	3.151600	-9.529200	27.486008	0.000283	20.702873
2362.681559	-2.992300	3.152300	-9.431600	27.521679	0.000284	20.724064
2363.676376	-3.011600	3.151200	-9.489300	27.510595	0.000286	20.716705
2364.676864	-3.004000	3.151000	-9.464700	27.481823	0.000285	20.717629
2365.680935	-3.025100	3.149700	-9.527300	27.460970	0.000284	20.703761
2366.676137	-3.017500	3.149900	-9.504300	27.445369	0.000284	20.711299
2367.678286	-3.000700	3.149700	-9.450300	27.418975	0.000285	20.714618
2368.682840	-2.989200	3.149400	-9.413300	27.445903	0.000285	20.739813
2369.680042	-2.988200	3.148700	-9.408100	27.491594	0.000281	20.714183
2370.677375	-3.014200	3.146100	-9.482700	27.504943	0.000282	20.701060
2371.680354	-2.972300	3.147600	-9.353700	27.500157	0.000282	20.719005
2372.675998	-2.993500	3.148500	-9.424300	27.483369	0.000283	20.737203
2373.677331	-3.022600	3.144500	-9.503400	27.437506	0.000282	20.713821
2374.682378	-3.001100	3.145000	-9.437400	27.429323	0.000279	20.739255
2375.696410	-3.003000	3.143300	-9.438700	27.453213	0.000280	20.721088
2376.677140	-3.002100	3.142700	-9.433600	27.455845	0.000280	20.733694
2377.682521	-3.015400	3.142300	-9.474400	27.482171	0.000276	20.731257
2378.680981	-2.976400	3.143300	-9.354900	27.499926	0.000280	20.733473
2379.679270	-2.985600	3.141200	-9.375900	27.559508	0.000279	20.723245
2380.681391	-3.013700	3.138900	-9.458500	27.585434	0.000277	20.731787
2381.680729	-3.000700	3.139500	-9.418000	27.569754	0.000279	20.737347
2382.681816	-2.978700	3.139500	-9.349900	27.531240	0.000277	20.713768
2383.686781	-2.998400	3.138400	-9.409200	27.539258	0.000278	20.746493
2384.682573	-3.005500	3.138000	-9.430700	27.533627	0.000274	20.718541
2385.681668	-3.013200	3.136300	-9.449100	27.488783	0.000274	20.733167
2386.686207	-3.024100	3.135100	-9.479600	27.481347	0.000277	20.716676
2387.684761	-2.994400	3.135800	-9.388900	27.486849	0.000274	20.734541
2388.681157	-2.967000	3.134500	-9.299300	27.502813	0.000275	20.741119
2389.684321	-2.983100	3.135300	-9.352200	27.511143	0.000274	20.743336
2390.683431	-2.985500	3.132500	-9.350900	27.544383	0.000274	20.730312
2391.683220	-2.990100	3.132400	-9.364800	27.558625	0.000273	20.739426
2392.686655	-2.979200	3.133300	-9.333500	27.591312	0.000274	20.743392
2393.683639	-3.017300	3.131600	-9.446100	27.592701	0.000273	20.740996
2394.684834	-3.006300	3.129600	-9.407200	27.576044	0.000271	20.753160
2395.685358	-3.007100	3.129600	-9.408900	27.636257	0.000270	20.738355
2396.684582	-3.000700	3.128300	-9.386400	27.623548	0.000270	20.733153
2397.682541	-2.970100	3.128500	-9.290400	27.636564	0.000271	20.750519
2398.687514	-3.013300	3.126700	-9.420400	27.582397	0.000272	20.747224
2399.689170	-3.013000	3.126200	-9.418200	27.545817	0.000272	20.746929
2400.684587	-2.976100	3.126400	-9.302900	27.555989	0.000271	20.757638
2401.688505	-3.004400	3.125200	-9.388100	27.527543	0.000270	20.736602
2402.694402	-3.019800	3.123100	-9.430500	27.536479	0.000271	20.749387
2403.683906	-3.003500	3.123200	-9.379300	27.508399	0.000268	20.748162
2404.686920	-2.984800	3.123800	-9.322900	27.483323	0.000272	20.762763
2405.687931	-2.984200	3.122400	-9.317200	27.507341	0.000269	20.754210
2406.685890	-2.994500	3.121200	-9.345500	27.529686	0.000268	20.751562
2407.688462	-3.020100	3.119400	-9.420200	27.554321	0.000267	20.761649
2408.690999	-3.034700	3.117400	-9.459500	27.554499	0.000266	20.736223
2409.686915	-2.998600	3.120100	-9.354800	27.616532	0.000268	20.753121
2410.691505	-3.004200	3.116900	-9.362600	27.618863	0.000269	20.748829
2411.686606	-3.005800	3.116200	-9.365200	27.654878	0.000269	20.749507
2412.688083	-3.002700	3.115500	-9.353600	27.701325	0.000267	20.766847
2413.686303	-2.994000	3.115500	-9.325200	27.717199	0.000266	20.758639
2414.687848	-2.989200	3.114200	-9.308300	27.689185	0.000265	20.732819
2415.689185	-2.999500	3.114900	-9.342500	27.660749	0.000265	20.753992
2416.693186	-3.012300	3.114200	-9.380500	27.651423	0.000264	20.778747
2417.688470	-3.010900	3.113200	-9.372100	27.673894	0.000264	20.771961
2418.688839	-2.985300	3.111400	-9.287900	27.708120	0.000265	20.761358
2419.692518	-2.995300	3.111600	-9.317400	27.699444	0.000264	20.748358
2420.688418	-3.000400	3.109600	-9.327500	27.671894	0.000265	20.758569
2421.690294	-3.021200	3.108700	-9.390100	27.660268	0.000265	20.778638
2422.695114	-3.013200	3.108400	-9.364700	27.665158	0.000265	20.752738
2423.692833	-3.016900	3.106800	-9.372200	27.663071	0.000264	20.755854
2424.691186	-3.015800	3.105700	-9.365600	27.607215	0.000261	20.759869
2425.701290	-3.012200	3.104700	-9.351000	27.594433	0.000263	20.758861
2426.699127	-2.976300	3.104700	-9.238300	27.564207	0.000261	20.753578
2427.704009	-3.011300	3.103600	-9.344800	27.535687	0.000262	20.759022
2428.700449	-2.978400	3.104000	-9.244400	27.532982	0.000262	20.770525
2429.698926	-3.005600	3.102200	-9.322800	27.541293	0.000263	20.745222
2430.695647	-2.994100	3.102300	-9.287600	27.601969	0.000261	20.757909
2431.698776	-2.991500	3.100300	-9.274000	27.646980	0.000258	20.777595
2432.701643	-2.991500	3.100500	-9.274700	27.666258	0.000260	20.780398
2433.698885	-2.996600	3.099600	-9.286600	27.688931	0.000260	20.759591
2434.698372	-3.011400	3.097200	-9.325100	27.703179	0.000261	20.761600
2435.699867	-2.990100	3.098300	-9.262800	27.707664	0.000263	20.782710
2436.695739	-3.002400	3.095300	-9.292000	27.734797	0.000261	20.761175
2437.699811	-3.004500	3.095400	-9.299000	27.727638	0.000259	20.783844
2438.698926	-2.991500	3.094600	-9.256900	27.725136	0.000260	20.770420
2439.697209	-3.030500	3.092700	-9.371700	27.781952	0.000259	20.775913
2440.700089	-2.991400	3.094300	-9.255800	27.790586	0.000259	20.781758
2441.700730	-3.001700	3.092000	-9.280300	27.754949	0.000260	20.772447
2442.699605	-3.000100	3.092000	-9.275100	27.727904	0.000258	20.783163
2443.700938	-2.995300	3.090400	-9.255900	27.749731	0.000259	20.785214
2444.698124	-3.001900	3.088400	-9.270100	27.744322	0.000258	20.767916
2445.696713	-2.995500	3.088100	-9.248400	27.783086	0.000257	20.776107
2446.703226	-3.001600	3.087500	-9.265800	27.816000	0.000258	20.771299
2447.704177	-3.002900	3.086500	-9.267800	27.815194	0.000257	20.789928
2448.698558	-3.012700	3.085100	-9.294000	27.861284	0.000257	20.793640
2449.705348	-2.991200	3.085300	-9.228200	27.806382	0.000257	20.772999
2450.701789	-2.987800	3.085100	-9.216300	27.764122	0.000258	20.781204
2451.698938	-3.007100	3.083100	-9.269600	27.780158	0.000258	20.794972
2452.701283	-2.989100	3.081600	-9.210300	27.728759	0.000256	20.767428
2453.704158	-2.990900	3.081200	-9.213900	27.749051	0.000257	20.795435
2454.699700	-3.001700	3.080500	-9.246000	27.762520	0.000258	20.775798
2455.702284	-2.987300	3.080000	-9.199800	27.782835	0.000255	20.791502
2456.705886	-2.979300	3.077700	-9.168200	27.777255	0.000259	20.793946
2457.707225	-2.986800	3.077600	-9.190300	27.827008	0.000255	20.789015
2458.704094	-2.978000	3.076400	-9.160500	27.869133	0.000253	20.792531
2459.705329	-2.992500	3.075100	-9.201600	27.888400	0.000258	20.785369
2460.700325	-2.998400	3.075500	-9.220800	27.916607	0.000256	20.772982
2461.712109	-2.979100	3.075100	-9.160300	27.964309	0.000256	20.802977
2462.707054	-3.005600	3.071100	-9.229000	27.945375	0.000255	20.793402
2463.701652	-3.005200	3.071100	-9.227000	27.901466	0.000258	20.789037
2464.704883	-2.993100	3.070200	-9.188300	27.846402	0.000256	20.790990
2465.706000	-3.010500	3.067800	-9.234500	27.812431	0.000253	20.804691
2466.703277	-2.978000	3.067400	-9.133500	27.852882	0.000256	20.799883
2467.709922	-2.984400	3.067100	-9.152600	27.814072	0.000256	20.806342
2468.707029	-2.996300	3.064400	-9.181100	27.803420	0.000255	20.782346
2469.709567	-2.977300	3.065700	-9.126600	27.821600	0.000255	20.792581
2470.706551	-3.029700	3.061600	-9.274700	27.871368	0.000255	20.805211
2471.710881	-2.988600	3.063400	-9.154300	27.897359	0.000254	20.798654
2472.707625	-3.003600	3.062100	-9.196000	27.931554	0.000253	20.814104
2473.707110	-3.011700	3.060100	-9.215000	27.957268	0.000254	20.804899
2474.707145	-3.003000	3.059600	-9.187200	27.932772	0.000253	20.776450
2475.706983	-2.964000	3.059700	-9.067300	27.924551	0.000254	20.805633
2476.706629	-2.989200	3.057500	-9.138200	27.950785	0.000253	20.796951
2477.706421	-3.007800	3.057000	-9.194000	27.959118	0.000252	20.781631
2478.707046	-2.983300	3.056400	-9.116800	27.936635	0.000252	20.799779
2479.704975	-2.991800	3.053500	-9.134600	27.902783	0.000253	20.804112
2480.707521	-3.011200	3.051500	-9.186900	27.834056	0.000254	20.801324
2481.710562	-2.994200	3.053100	-9.139900	27.806161	0.000253	20.805019
2482.708082	-2.997000	3.051000	-9.142200	27.766689	0.000253	20.795641
2483.708146	-2.996200	3.050100	-9.138000	27.756006	0.000253	20.785364
2484.709512	-2.981200	3.049600	-9.090400	27.765241	0.000254	20.791813
2485.710553	-3.023000	3.047300	-9.211600	27.768434	0.000253	20.782699
2486.708656	-2.988600	3.045700	-9.101000	27.803998	0.000251	20.798574
2487.710238	-3.011800	3.044300	-9.167200	27.824386	0.000251	20.789695
2488.710986	-2.985500	3.044100	-9.087100	27.843238	0.000251	20.793496
2489.712715	-3.005800	3.042200	-9.141800	27.849834	0.000252	20.783539
2490.712778	-2.990100	3.042700	-9.097000	27.904092	0.000251	20.779826
2491.710275	-3.013400	3.040300	-9.160700	27.925487	0.000250	20.789032
2492.718283	-3.027100	3.038400	-9.196600	27.926063	0.000252	20.775387
2493.709699	-2.994700	3.038600	-9.098400	27.919280	0.000252	20.774723
2494.710027	-2.993900	3.038800	-9.096600	27.919133	0.000253	20.779792
2495.709095	-3.024400	3.036000	-9.181100	27.939551	0.000252	20.787066
2496.709907	-3.010700	3.035400	-9.137300	27.943937	0.000251	20.771092
2497.711721	-2.999100	3.033500	-9.096000	27.991669	0.000251	20.778359
2498.710204	-2.995700	3.033700	-9.087400	28.004517	0.000252	20.776593
2499.710745	-2.991100	3.033000	-9.071100	28.003128	0.000252	20.762866
2500.711100	-3.018000	3.029300	-9.141500	28.019078	0.000250	20.772757
2501.713605	-2.989000	3.030900	-9.056600	28.073027	0.000250	20.770165
2502.711642	-3.014300	3.027800	-9.124900	28.111748	0.000251	20.769789
2503.712020	-3.011500	3.027000	-9.114900	28.156727	0.000252	20.770974
2504.713805	-3.002900	3.025400	-9.084100	28.150758	0.000250	20.788198
2505.714843	-2.985600	3.025400	-9.031500	28.176013	0.000249	20.774268
2506.714494	-3.007600	3.024000	-9.092800	28.130764	0.000251	20.758112
2507.716283	-3.003500	3.021500	-9.072900	28.072553	0.000251	20.749773
2508.714921	-3.013200	3.021000	-9.101500	28.028625	0.000250	20.770040
2509.715626	-3.009000	3.019700	-9.085500	28.038126	0.000251	20.770121
2510.719517	-3.025400	3.017700	-9.129000	28.010220	0.000250	20.774747
2511.715517	-3.000400	3.017000	-9.051100	28.035039	0.000251	20.760849
2512.722549	-2.986600	3.017900	-9.011600	28.009229	0.000250	20.754308
2513.718937	-3.004700	3.016800	-9.063200	27.998370	0.000249	20.765664
2514.716353	-3.015100	3.012600	-9.081700	28.006630	0.000248	20.741260
2515.716443	-3.009800	3.011600	-9.061800	27.976262	0.000250	20.755264
2516.723212	-2.993200	3.011800	-9.014100	27.901911	0.000250	20.755345
2517.717484	-3.010000	3.009200	-9.056900	27.904965	0.000248	20.762686
2518.717393	-3.000200	3.008700	-9.025500	27.938339	0.000250	20.764035
2519.726120	-3.014300	3.006100	-9.059500	27.969877	0.000251	20.763536
2520.724818	-2.987800	3.007300	-8.983100	27.984487	0.000249	20.757379
2521.720726	-2.986100	3.004700	-8.971100	28.002785	0.000250	20.739287
2522.717651	-2.978500	3.003500	-8.944800	27.997140	0.000249	20.745933
2523.717282	-2.986700	3.001900	-8.965400	27.999478	0.000249	20.742596
2524.716524	-3.018900	3.000500	-9.057000	28.000762	0.000249	20.747682
2525.721730	-2.995100	2.999300	-8.982200	27.957001	0.000248	20.742989
2526.717306	-2.980600	2.998600	-8.936300	27.916122	0.000248	20.752104
2527.719781	-3.001400	2.997600	-8.996000	27.914189	0.000249	20.754426
2528.723195	-2.989100	2.998000	-8.960100	27.914513	0.000249	20.768504
2529.717894	-2.994900	2.994900	-8.968100	27.914748	0.000249	20.763049
2530.721118	-3.010000	2.993700	-9.010000	27.943201	0.000250	20.753281
2531.721279	-3.011800	2.990400	-9.004800	27.993945	0.000247	20.746510
2532.730968	-2.996400	2.991000	-8.961900	27.995512	0.000248	20.754251
2533.720103	-3.015200	2.988000	-9.007500	28.028656	0.000248	20.743991
2534.731938	-2.995200	2.987700	-8.948000	28.021297	0.000248	20.730894
2535.724339	-2.987800	2.988500	-8.927000	27.988177	0.000249	20.755404
2536.724234	-2.976000	2.985900	-8.884900	27.938795	0.000248	20.735569
2537.730125	-3.021700	2.984800	-9.016700	27.932029	0.000249	20.721646
2538.724936	-3.011700	2.982900	-8.982500	27.959132	0.000250	20.758885
2539.729808	-3.008200	2.981500	-8.967500	28.031529	0.000251	20.734080
2540.727950	-3.024000	2.978700	-9.005300	28.068845	0.000249	20.748411
2541.724445	-3.003800	2.979400	-8.948700	28.075025	0.000250	20.729026
2542.732677	-3.015500	2.976800	-8.975300	28.053145	0.000249	20.726442
2543.725812	-3.009200	2.975800	-8.953700	28.034750	0.000248	20.740643
2544.730937	-3.016900	2.974400	-8.972900	28.053250	0.000246	20.736031
2545.726706	-3.001900	2.972600	-8.922200	28.001655	0.000250	20.749529
2546.726846	-3.018800	2.970900	-8.966600	28.032053	0.000246	20.739824
2547.724242	-3.000200	2.971700	-8.913400	28.055808	0.000248	20.749986
2548.736922	-3.012000	2.968600	-8.940200	28.015501	0.000246	20.730274
2549.728926	-2.999400	2.967200	-8.899200	28.029437	0.000248	20.718223
2550.727813	-3.008100	2.965700	-8.920400	28.067127	0.000247	20.730559
2551.729824	-2.975200	2.965400	-8.822000	28.070602	0.000248	20.741171
2552.737054	-3.001600	2.963600	-8.894700	28.053223	0.000247	20.749755
2553.727921	-3.010400	2.961800	-8.914700	28.072211	0.000247	20.725245
2554.726870	-3.005300	2.961000	-8.897600	28.113497	0.000248	20.707062
2555.747129	-3.013200	2.958100	-8.912600	28.159776	0.000247	20.733739
2556.737701	-3.015000	2.957100	-8.914500	28.170397	0.000246	20.717403
2557.728306	-3.012100	2.955400	-8.901500	28.190544	0.000247	20.723936
2558.733546	-3.008500	2.954400	-8.886300	28.226669	0.000244	20.722373
2559.729946	-3.000800	2.953600	-8.862200	28.219978	0.000246	20.715162
2560.730101	-2.958700	2.952300	-8.733200	28.171548	0.000248	20.731840
2561.729792	-2.992900	2.949100	-8.825300	28.192491	0.000247	20.726845
2562.731169	-3.004800	2.948500	-8.858400	28.187911	0.000245	20.717017
2563.732543	-2.990700	2.946800	-8.812100	28.227106	0.000246	20.729451
2564.731846	-2.992500	2.943600	-8.808300	28.266892	0.000247	20.730628
2565.731704	-2.989700	2.944400	-8.800900	28.253430	0.000245	20.728928
2566.732754	-2.977600	2.942400	-8.759100	28.192879	0.000245	20.723916
2567.733864	-2.992000	2.940500	-8.796800	28.137383	0.000248	20.705504
2568.733841	-2.999400	2.939500	-8.815800	28.131683	0.000246	20.721577
2569.734533	-2.995700	2.937100	-8.798100	28.120508	0.000246	20.747787
2570.731876	-2.991200	2.935100	-8.778100	28.099086	0.000247	20.720056
2571.734541	-2.997800	2.934400	-8.795800	28.089446	0.000247	20.732164
2572.732601	-2.987600	2.933800	-8.764300	28.076980	0.000248	20.724830
2573.734096	-3.000400	2.929800	-8.789800	28.068477	0.000246	20.727651
2574.735809	-3.015900	2.929800	-8.835400	28.028090	0.000245	20.732515
2575.737608	-3.001700	2.926600	-8.783100	27.985126	0.000245	20.696853
2576.741222	-2.962300	2.927500	-8.671100	27.965893	0.000246	20.721118
2577.738054	-3.007300	2.923500	-8.789600	27.956000	0.000247	20.704521
2578.737910	-3.002500	2.922200	-8.773100	27.987220	0.000246	20.709868
2579.738571	-2.990200	2.921200	-8.733600	28.057528	0.000246	20.706671
2580.737064	-2.999000	2.918300	-8.751000	28.086407	0.000247	20.711086
2581.737089	-2.969300	2.918700	-8.665200	28.116308	0.000247	20.710840
2582.739104	-3.000500	2.917300	-8.751300	28.168735	0.000247	20.689649
2583.737555	-2.971100	2.915800	-8.661700	28.220866	0.000246	20.716531
2584.738084	-2.990700	2.913000	-8.711000	28.250170	0.000246	20.706204
2585.737643	-3.004700	2.911800	-8.748700	28.222028	0.000246	20.699681
2586.739271	-3.007800	2.909700	-8.750400	28.153119	0.000245	20.709492
2587.738710	-2.982800	2.909300	-8.676300	28.136715	0.000246	20.704357
2588.739818	-3.030700	2.903700	-8.798600	28.147946	0.000246	20.687212
2589.738389	-2.985600	2.904200	-8.669600	28.157292	0.000248	20.726022
2590.738621	-3.017300	2.902500	-8.755800	28.188970	0.000247	20.704332
2591.742090	-2.994000	2.901100	-8.683900	28.187086	0.000247	20.717609
2592.740942	-3.006600	2.899900	-8.717000	28.206200	0.000247	20.708403
2593.740462	-3.003200	2.898200	-8.703300	28.196213	0.000246	20.696450
2594.740829	-3.013500	2.895400	-8.724200	28.199046	0.000247	20.704519
2595.741403	-2.995700	2.894100	-8.668500	28.201523	0.000247	20.702745
2596.741856	-2.967000	2.894200	-8.585900	28.204097	0.000246	20.695853
2597.741174	-2.995400	2.890800	-8.658000	28.196391	0.000245	20.692836
2598.745811	-2.973600	2.889200	-8.590200	28.164494	0.000244	20.715727
2599.747236	-2.999600	2.886600	-8.657500	28.147489	0.000245	20.705246
2600.743446	-3.006300	2.884500	-8.670800	28.155765	0.000245	20.709784
2601.744653	-3.014000	2.882700	-8.686400	28.166029	0.000245	20.692141
2602.747406	-2.981700	2.881600	-8.591300	28.160701	0.000248	20.712384
2603.745829	-2.987900	2.879900	-8.603800	28.149942	0.000247	20.709138
2604.746593	-2.983700	2.877500	-8.584500	28.120325	0.000247	20.712988
2605.744788	-3.008300	2.875600	-8.649500	28.115388	0.000246	20.715130
2606.745790	-3.001300	2.873400	-8.622400	28.093234	0.000247	20.691404
2607.746725	-2.989500	2.872200	-8.585400	28.096604	0.000245	20.715661
2608.745112	-3.002100	2.870100	-8.615000	28.099381	0.000248	20.690954
2609.744950	-3.018600	2.867300	-8.654500	28.096880	0.000246	20.695074
2610.745900	-2.987500	2.866700	-8.563300	28.161707	0.000245	20.698222
2611.746244	-3.014400	2.863600	-8.630000	28.185354	0.000244	20.688836
2612.744636	-3.007900	2.862400	-8.609400	28.247472	0.000244	20.700642
2613.746102	-3.013200	2.860600	-8.618900	28.318956	0.000244	20.711924
2614.745626	-2.997600	2.859300	-8.569800	28.326051	0.000246	20.695834
2615.743580	-3.026400	2.855700	-8.641100	28.319141	0.000245	20.699782
2616.746396	-3.007200	2.855000	-8.584600	28.240098	0.000246	20.684682
2617.744968	-3.031200	2.850400	-8.638500	28.253162	0.000244	20.714433
2618.750628	-2.999700	2.848700	-8.544100	28.254014	0.000244	20.695374
2619.748223	-2.991900	2.847200	-8.517600	28.227714	0.000245	20.708251
2620.747602	-2.976000	2.846700	-8.469700	28.243677	0.000245	20.691605
2621.752279	-3.025700	2.843200	-8.600500	28.279574	0.000243	20.691711
2622.751873	-3.025400	2.841100	-8.595200	28.304038	0.000244	20.693583
2623.750992	-2.985400	2.839500	-8.475600	28.321388	0.000243	20.684974
2624.750638	-2.943900	2.838800	-8.355900	28.305660	0.000245	20.689053
2625.755461	-2.971400	2.837100	-8.429400	28.333737	0.000247	20.690296
2626.750470	-2.982700	2.833200	-8.449100	28.330668	0.000243	20.693370
2627.751432	-3.006000	2.829800	-8.505000	28.354220	0.000245	20.704284
2628.758461	-2.989600	2.829000	-8.456000	28.372707	0.000243	20.693026
2629.753300	-2.958100	2.828900	-8.367500	28.392865	0.000243	20.700522
2630.752700	-2.992500	2.825100	-8.452700	28.368330	0.000243	20.680083
2631.754939	-3.009100	2.823200	-8.494200	28.276104	0.000244	20.690114
2632.753290	-3.013500	2.818800	-8.493300	28.211592	0.000244	20.686328
2633.753123	-2.966000	2.819500	-8.361400	28.174068	0.000244	20.700235
2634.754567	-3.019500	2.814600	-8.496900	28.197146	0.000245	20.686009
2635.753794	-3.014300	2.813700	-8.480700	28.218866	0.000242	20.692704
2636.751014	-3.015300	2.810600	-8.474100	28.202285	0.000242	20.693554
2637.754410	-3.019800	2.807200	-8.475700	28.234586	0.000243	20.676761
2638.753248	-3.000100	2.806000	-8.417500	28.254049	0.000243	20.695884
2639.751668	-3.002000	2.803800	-8.415200	28.313557	0.000243	20.665233
2640.758502	-3.006000	2.800600	-8.418000	28.339262	0.000244	20.683530
2641.755104	-3.015100	2.798300	-8.436200	28.331159	0.000245	20.679638
2642.753594	-2.982400	2.797100	-8.341200	28.315999	0.000244	20.660105
2643.755426	-2.972300	2.794500	-8.305000	28.324005	0.000243	20.698990
2644.754258	-2.995800	2.790500	-8.358900	28.353550	0.000246	20.687960
2645.753899	-3.001300	2.788100	-8.367300	28.376429	0.000246	20.673538
2646.754795	-2.974100	2.786400	-8.286700	28.334973	0.000244	20.663562
2647.754482	-2.990900	2.781600	-8.318900	28.303348	0.000245	20.680086
2648.753467	-2.986600	2.780300	-8.302200	28.266811	0.000244	20.676014
2649.755401	-3.008800	2.776800	-8.353600	28.220348	0.000246	20.686135
2650.755043	-2.972700	2.776500	-8.252400	28.160266	0.000244	20.674484
2651.757265	-3.011600	2.770900	-8.343500	28.118323	0.000247	20.668769
2652.753710	-2.988800	2.768700	-8.274600	28.119192	0.000243	20.668695
2653.753149	-2.968300	2.767900	-8.214300	28.132436	0.000244	20.665433
2654.754505	-3.002800	2.761900	-8.292700	28.163302	0.000246	20.682283
2655.757751	-2.982900	2.760400	-8.232400	28.192454	0.000245	20.669904
2656.754604	-2.991800	2.758000	-8.249900	28.242059	0.000245	20.668637
2657.754735	-3.002200	2.753900	-8.267000	28.280927	0.000244	20.695445
2658.755149	-2.981700	2.751400	-8.203200	28.332599	0.000245	20.663543
2659.757005	-2.995700	2.748300	-8.231500	28.398483	0.000245	20.680573
2660.755283	-2.999500	2.745100	-8.231100	28.452787	0.000245	20.637575
2661.761395	-3.010600	2.741400	-8.251300	28.512357	0.000243	20.668644
2662.755963	-3.013700	2.737100	-8.247800	28.520986	0.000245	20.672593
2663.759285	-2.988900	2.734000	-8.169400	28.497793	0.000243	20.683851
2664.761811	-3.006400	2.730900	-8.209500	28.485178	0.000245	20.674465
2665.757382	-3.033500	2.727100	-8.270100	28.426994	0.000244	20.686524
2666.758320	-2.984600	2.725500	-8.133300	28.411163	0.000246	20.679116
2667.761202	-2.990700	2.721600	-8.138200	28.464663	0.000244	20.663762
2668.759372	-2.996600	2.718100	-8.144300	28.499854	0.000242	20.652258
2669.762469	-2.973100	2.715900	-8.073500	28.505812	0.000244	20.670588
2670.761299	-2.990700	2.711100	-8.106600	28.492807	0.000243	20.670293
2671.759206	-3.003100	2.708400	-8.133000	28.495624	0.000242	20.650843
2672.760237	-2.981900	2.704200	-8.062600	28.474744	0.000243	20.664431
2673.762445	-2.995100	2.700800	-8.088000	28.456576	0.000242	20.670318
2674.759970	-2.994000	2.698300	-8.077700	28.479777	0.000243	20.646264
2675.768024	-3.014600	2.692100	-8.114800	28.487911	0.000244	20.653507
2676.762804	-2.987800	2.689800	-8.035700	28.511031	0.000242	20.643598
2677.760717	-3.008700	2.685800	-8.079200	28.555888	0.000245	20.644677
2678.761778	-2.994100	2.683300	-8.033000	28.567878	0.000243	20.649640
2679.767122	-2.997100	2.677900	-8.025100	28.521899	0.000244	20.646957
2680.762089	-2.978900	2.675700	-7.969700	28.541600	0.000244	20.650677
2681.762962	-3.021800	2.671100	-8.069700	28.529108	0.000243	20.641888
2682.767662	-2.985300	2.667500	-7.962600	28.516581	0.000244	20.657250
2683.762274	-3.015100	2.662100	-8.025900	28.529845	0.000245	20.644053
2684.764522	-2.998200	2.659500	-7.972400	28.550456	0.000243	20.656277
2685.765767	-3.013300	2.653800	-7.995600	28.528701	0.000244	20.647643
2686.762078	-2.998600	2.650400	-7.946200	28.518870	0.000244	20.642009
2687.762083	-2.984500	2.645600	-7.894700	28.521483	0.000244	20.645589
2688.767024	-2.979500	2.641100	-7.868400	28.551810	0.000244	20.661909
2689.765866	-3.000000	2.635700	-7.906500	28.611780	0.000245	20.623203
2690.762976	-3.040900	2.631200	-7.999700	28.644393	0.000244	20.671703
2691.767201	-2.998100	2.627300	-7.876200	28.648759	0.000245	20.647649
2692.765166	-3.026400	2.622300	-7.934700	28.692669	0.000245	20.651098
2693.762790	-3.030400	2.617000	-7.929700	28.667168	0.000244	20.657182
2694.765756	-3.010000	2.612600	-7.863200	28.602655	0.000243	20.653371
2695.765729	-2.997500	2.608900	-7.819400	28.576761	0.000245	20.654320
2696.763688	-3.004400	2.602200	-7.817100	28.583538	0.000245	20.643600
2697.764549	-2.998700	2.597700	-7.788500	28.629846	0.000244	20.636184
2698.767043	-2.970900	2.593400	-7.702400	28.682945	0.000244	20.662168
2699.765211	-3.020700	2.588200	-7.816900	28.745780	0.000244	20.633944
2700.768333	-3.048200	2.581500	-7.868000	28.799490	0.000245	20.645374
2701.766280	-2.974400	2.577800	-7.665900	28.764682	0.000246	20.659151
2702.765079	-3.000300	2.570500	-7.711400	28.753734	0.000245	20.651915
2703.771886	-2.978300	2.567100	-7.644400	28.726788	0.000246	20.645635
2704.768412	-3.021400	2.559400	-7.731400	28.728444	0.000246	20.644932
2705.766062	-3.007500	2.553600	-7.679200	28.723841	0.000244	20.645986
2706.767925	-3.003100	2.549500	-7.654700	28.683731	0.000245	20.638775
2707.767636	-3.023900	2.542600	-7.687400	28.614333	0.000245	20.634310
2708.766477	-3.021000	2.536000	-7.659900	28.584648	0.000245	20.649461
2709.773379	-3.014800	2.530000	-7.626300	28.596321	0.000244	20.651733
2710.768219	-3.028800	2.524000	-7.642600	28.596377	0.000245	20.639461
2711.768469	-3.015000	2.518500	-7.592700	28.568771	0.000243	20.643900
2712.767246	-3.020000	2.513100	-7.588300	28.551959	0.000245	20.645935
2713.766857	-2.994400	2.505900	-7.502900	28.608845	0.000245	20.651070
2714.770577	-2.978800	2.501400	-7.450300	28.587903	0.000243	20.643254
2715.771587	-2.986900	2.495200	-7.452000	28.649429	0.000246	20.657333
