LabVIEW Measurement	
Writer_Version	2
Reader_Version	2
Separator	Tab
Decimal_Separator	.
Multi_Headings	No
X_Columns	One
Time_Pref	Absolute
Operator	admin
Description	Clolumns are: time, Current, Voltage, Power, Battery Temp, and Chamber Temp
Date	2024/08/16
Time	13:06:06.104549407958984375
***End_of_Header***	
	
Channels	6						
Samples	1	1	1	1	1	1	
Date	2024/09/11	2024/09/11	2024/09/11	2024/09/11	2024/09/11	2024/09/11	
Time	16:47:39.6868615150451660156	16:47:39.6974344253540039062	16:47:39.7053670883178710938	16:47:39.6679129600524902344	16:47:39.6679129600524902344	16:47:39.6679129600524902344	
X_Dimension	Time	Time	Time	Time	Time	Time	
X0	0.0000000000000000E+0	0.0000000000000000E+0	0.0000000000000000E+0	0.0000000000000000E+0	0.0000000000000000E+0	0.0000000000000000E+0	
Delta_X	1.000000	1.000000	1.000000	1.000000	1.000000	1.000000	
***End_of_Header***							
X_Value	Untitled	Untitled 1	Untitled 2	Untitled 3	Untitled 4	Untitled 5	Comment
0.000000	-0.003795	4.093800	-0.015536	21.022522	0.000918	20.905423
0.997467	-3.003600	3.918700	-11.768000	21.029032	0.000916	20.890599
2.001704	-2.998200	3.912700	-11.730000	21.021296	0.000916	20.905145
3.003199	-2.984800	3.907300	-11.661000	21.012288	0.000915	20.909412
4.002223	-3.003500	3.902900	-11.721000	21.041628	0.000913	20.882809
5.003313	-3.003000	3.899000	-11.707000	21.036190	0.000912	20.907240
6.001748	-3.009300	3.894600	-11.719000	21.022315	0.000911	20.902846
7.000265	-2.991800	3.893700	-11.649000	21.039032	0.000911	20.906763
8.002842	-3.020200	3.889800	-11.747000	21.069197	0.000909	20.893314
9.002739	-3.005400	3.887900	-11.684000	21.028153	0.000909	20.884030
10.010676	-3.009600	3.887000	-11.695000	21.064280	0.000907	20.890293
11.003370	-2.984500	3.888000	-11.603000	21.060515	0.000907	20.895062
12.006099	-3.030800	3.883600	-11.769000	21.065281	0.000908	20.908361
13.005522	-3.013400	3.882100	-11.697000	21.069646	0.000905	20.890444
14.001194	-3.018300	3.881100	-11.713000	21.072962	0.000907	20.905613
15.006755	-3.008600	3.879900	-11.670000	21.069971	0.000906	20.906889
16.005983	-3.011500	3.879300	-11.681000	21.075158	0.000904	20.922033
17.010246	-3.004500	3.879000	-11.653000	21.062861	0.000906	20.903097
18.005192	-2.995800	3.879200	-11.621000	21.090281	0.000905	20.896859
19.009370	-2.991900	3.877800	-11.600000	21.111361	0.000902	20.911779
20.006843	-3.021100	3.873200	-11.700000	21.114354	0.000903	20.915721
21.002031	-3.020800	3.873900	-11.702000	21.102655	0.000902	20.902124
22.005663	-3.039300	3.873700	-11.772000	21.115104	0.000903	20.911730
23.005468	-2.994000	3.871500	-11.588000	21.110915	0.000903	20.911333
24.004894	-3.008800	3.871100	-11.647000	21.132494	0.000902	20.907314
25.007958	-3.006400	3.870600	-11.635000	21.123887	0.000900	20.915773
26.006031	-2.996600	3.871600	-11.601000	21.134792	0.000899	20.903924
27.006769	-2.997000	3.869900	-11.597000	21.137237	0.000899	20.899731
28.006193	-2.992000	3.870400	-11.579000	21.139607	0.000899	20.916325
29.012136	-2.972100	3.869300	-11.498000	21.177855	0.000898	20.896266
30.010863	-3.023700	3.867500	-11.694000	21.173939	0.000898	20.909891
31.012087	-2.985800	3.868400	-11.549000	21.166578	0.000899	20.914856
32.017976	-3.017000	3.864900	-11.660000	21.167904	0.000897	20.910018
33.012640	-2.995600	3.866900	-11.583000	21.179208	0.000899	20.933651
34.012210	-2.985200	3.867400	-11.544000	21.201987	0.000897	20.905707
35.013427	-2.996500	3.865400	-11.581000	21.211814	0.000898	20.915062
36.010734	-2.999900	3.863900	-11.590000	21.188316	0.000898	20.904359
37.011640	-3.013200	3.864500	-11.643000	21.240755	0.000900	20.931209
38.012222	-2.986100	3.863900	-11.537000	21.226188	0.000897	20.921380
39.015581	-2.980300	3.863000	-11.512000	21.235921	0.000898	20.919263
40.015375	-3.016900	3.861300	-11.647000	21.224425	0.000898	20.907763
41.014992	-2.997600	3.861600	-11.574000	21.235825	0.000897	20.917744
42.014794	-3.010100	3.860400	-11.619000	21.261945	0.000899	20.924434
43.017913	-3.023100	3.860500	-11.669000	21.270402	0.000897	20.907292
44.018862	-3.005000	3.860200	-11.599000	21.282626	0.000898	20.945121
45.017073	-3.022300	3.859500	-11.663000	21.290410	0.000897	20.912609
46.023539	-3.019500	3.858800	-11.651000	21.289611	0.000898	20.928403
47.021419	-3.008200	3.859500	-11.610000	21.293028	0.000899	20.920443
48.021315	-3.021900	3.858900	-11.660000	21.295751	0.000896	20.913684
49.015474	-3.006100	3.857400	-11.594000	21.304731	0.000896	20.922667
50.015683	-3.006800	3.857400	-11.596000	21.294654	0.000897	20.932500
51.026108	-3.015100	3.856600	-11.628000	21.325411	0.000898	20.927235
52.024110	-2.995900	3.857900	-11.556000	21.339505	0.000898	20.933274
53.022878	-2.988500	3.856400	-11.524000	21.348534	0.000897	20.937092
54.022719	-3.000100	3.856100	-11.567000	21.364295	0.000898	20.920619
55.023465	-2.991000	3.856400	-11.534000	21.372928	0.000897	20.936367
56.025469	-3.002500	3.856400	-11.577000	21.353825	0.000897	20.943806
57.022638	-3.017100	3.854700	-11.629000	21.368987	0.000895	20.942381
58.024311	-3.003300	3.855800	-11.579000	21.376647	0.000896	20.927761
59.024765	-3.010100	3.853900	-11.599000	21.363727	0.000896	20.924793
60.028697	-2.983700	3.856700	-11.506000	21.379416	0.000895	20.946651
61.022348	-3.031400	3.854800	-11.684000	21.390815	0.000898	20.927238
62.027284	-2.989300	3.854600	-11.521000	21.402886	0.000898	20.948795
63.026520	-3.000900	3.852500	-11.559000	21.422040	0.000899	20.933823
64.025760	-2.991500	3.853900	-11.528000	21.412243	0.000895	20.932081
65.028883	-2.962500	3.854700	-11.418000	21.417952	0.000896	20.922621
66.029532	-3.010800	3.852700	-11.599000	21.435935	0.000895	20.928285
67.026659	-3.004700	3.851800	-11.573000	21.438729	0.000899	20.921124
68.028687	-3.007500	3.851900	-11.584000	21.448355	0.000897	20.937392
69.031250	-3.007600	3.851000	-11.580000	21.455144	0.000898	20.935650
70.025517	-3.022800	3.850900	-11.639000	21.468211	0.000898	20.939716
71.029511	-3.004000	3.852600	-11.572000	21.480582	0.000897	20.931232
72.032256	-2.995000	3.852200	-11.536000	21.483775	0.000899	20.934900
73.030219	-3.004900	3.849500	-11.566000	21.478860	0.000897	20.916708
74.031720	-3.001300	3.850800	-11.556000	21.494522	0.000899	20.933326
75.027680	-2.999300	3.849400	-11.544000	21.490211	0.000899	20.930909
76.034392	-2.998700	3.850200	-11.545000	21.502027	0.000898	20.918552
77.031994	-3.020300	3.849200	-11.625000	21.502876	0.000898	20.920349
78.033622	-3.001000	3.848900	-11.550000	21.519161	0.000898	20.915782
79.032093	-2.978000	3.849700	-11.463000	21.512926	0.000899	20.932301
80.035487	-3.004700	3.849000	-11.565000	21.529610	0.000899	20.903954
81.030494	-2.978300	3.848700	-11.461000	21.506339	0.000897	20.920495
82.036860	-2.983200	3.849400	-11.483000	21.529682	0.000899	20.929153
83.038118	-2.978200	3.847200	-11.457000	21.543470	0.000900	20.950060
84.033784	-2.983400	3.848000	-11.479000	21.544991	0.000899	20.905594
85.034979	-2.999300	3.847300	-11.538000	21.534192	0.000898	20.909012
86.033906	-2.998200	3.847600	-11.535000	21.557509	0.000898	20.915275
87.034864	-3.007100	3.845400	-11.562000	21.562468	0.000900	20.910280
88.034039	-3.012600	3.846900	-11.588000	21.541269	0.000899	20.893810
89.038743	-2.979100	3.847000	-11.459000	21.543511	0.000899	20.915966
90.033319	-3.001500	3.847400	-11.547000	21.570945	0.000899	20.905486
91.037475	-3.015300	3.844400	-11.591000	21.571317	0.000901	20.922926
92.039937	-2.993600	3.846900	-11.515000	21.596504	0.000898	20.910200
93.034451	-3.002200	3.843700	-11.538000	21.583983	0.000902	20.914266
94.042338	-2.970600	3.846300	-11.425000	21.593330	0.000900	20.898491
95.038534	-2.999100	3.844300	-11.528000	21.624754	0.000901	20.919029
96.045614	-3.007100	3.845200	-11.561000	21.596746	0.000900	20.916606
97.033982	-2.996700	3.844500	-11.520000	21.632379	0.000902	20.900109
98.037532	-3.002100	3.842900	-11.535000	21.652006	0.000900	20.898887
99.036907	-2.993900	3.843500	-11.506000	21.644993	0.000900	20.901352
100.044972	-3.008200	3.843100	-11.559000	21.651951	0.000902	20.906892
101.043018	-2.997900	3.843400	-11.521000	21.650927	0.000901	20.909186
102.039375	-3.008000	3.842700	-11.556000	21.656910	0.000903	20.909009
103.046327	-3.003300	3.842600	-11.539000	21.683120	0.000901	20.912954
104.042506	-3.009300	3.842600	-11.563000	21.675611	0.000903	20.893113
105.048431	-3.025700	3.840700	-11.620000	21.700521	0.000902	20.899549
106.038875	-3.013600	3.840600	-11.573000	21.701140	0.000903	20.910600
107.042358	-3.005500	3.840700	-11.542000	21.712508	0.000903	20.916760
108.048406	-2.994100	3.841700	-11.501000	21.698372	0.000904	20.909252
109.045795	-2.993000	3.842300	-11.498000	21.748614	0.000901	20.913067
110.048349	-3.001100	3.841500	-11.527000	21.746019	0.000903	20.897195
111.041081	-2.996500	3.840700	-11.507000	21.752002	0.000903	20.906501
112.042677	-3.024700	3.839300	-11.611000	21.772671	0.000904	20.891627
113.043936	-3.016500	3.840300	-11.582000	21.766611	0.000903	20.901683
114.045050	-2.986100	3.840500	-11.467000	21.770498	0.000906	20.896090
115.048287	-2.989200	3.839900	-11.477000	21.791470	0.000904	20.916603
116.044918	-3.036400	3.838200	-11.653000	21.798945	0.000904	20.900853
117.048022	-3.001800	3.839500	-11.523000	21.797849	0.000903	20.895015
118.045208	-3.005800	3.839500	-11.540000	21.815402	0.000904	20.903100
119.046176	-3.024700	3.837700	-11.607000	21.816997	0.000902	20.881938
120.048777	-3.021900	3.838400	-11.599000	21.804057	0.000903	20.892220
121.045451	-3.025300	3.838700	-11.612000	21.833329	0.000903	20.904448
122.047060	-2.996800	3.839600	-11.504000	21.831580	0.000904	20.897956
123.046465	-2.985600	3.838100	-11.458000	21.841157	0.000906	20.907066
124.048986	-3.021300	3.836400	-11.590000	21.826970	0.000906	20.902350
125.049752	-2.991900	3.837200	-11.479000	21.834274	0.000905	20.891644
126.049919	-2.990800	3.838400	-11.479000	21.868186	0.000906	20.900930
127.053831	-3.015700	3.837000	-11.570000	21.846943	0.000906	20.903849
128.045696	-2.999600	3.836400	-11.508000	21.855043	0.000906	20.886354
129.049318	-2.988600	3.836200	-11.464000	21.863997	0.000905	20.878721
130.050370	-2.979600	3.836500	-11.431000	21.874917	0.000907	20.892496
131.055287	-3.026600	3.835500	-11.607000	21.867713	0.000908	20.887181
132.047896	-3.001500	3.834900	-11.509000	21.864647	0.000907	20.886484
133.054117	-2.989600	3.836000	-11.466000	21.880205	0.000908	20.877875
134.052975	-3.001000	3.834600	-11.505000	21.837499	0.000908	20.895346
135.052773	-2.988600	3.836600	-11.464000	21.867365	0.000907	20.893471
136.054289	-2.982900	3.835800	-11.442000	21.886614	0.000910	20.869592
137.049980	-3.010200	3.835300	-11.544000	21.873254	0.000910	20.907424
138.049272	-3.003900	3.834900	-11.518000	21.855225	0.000912	20.891277
139.048679	-3.014300	3.835700	-11.560000	21.893174	0.000911	20.897493
140.050126	-2.994100	3.834300	-11.479000	21.899781	0.000909	20.877555
141.053025	-3.016900	3.834400	-11.567000	21.921048	0.000912	20.898841
142.054344	-2.990800	3.833900	-11.465000	21.919553	0.000912	20.859889
143.050596	-2.992400	3.833800	-11.471000	21.945603	0.000912	20.890704
144.054692	-3.015500	3.833100	-11.558000	21.977766	0.000913	20.871692
145.053478	-3.004700	3.831900	-11.513000	21.983871	0.000913	20.881122
146.053242	-2.997100	3.832400	-11.484000	21.985666	0.000913	20.882919
147.055468	-3.002500	3.833200	-11.508000	21.974695	0.000915	20.875730
148.050039	-3.015500	3.831600	-11.553000	22.010244	0.000915	20.871014
149.060883	-3.006800	3.832900	-11.524000	22.000325	0.000916	20.867249
150.057417	-3.011500	3.832300	-11.540000	21.993617	0.000913	20.876654
151.059138	-3.016400	3.831400	-11.556000	22.021315	0.000917	20.878776
152.052228	-3.001300	3.831800	-11.499000	22.016997	0.000917	20.890574
153.057416	-2.995700	3.832500	-11.480000	22.004087	0.000917	20.893772
154.055275	-2.995500	3.831600	-11.476000	22.022807	0.000916	20.870314
155.054563	-2.984800	3.832500	-11.438000	22.061274	0.000916	20.878002
156.057775	-3.002600	3.829900	-11.499000	22.044047	0.000918	20.890627
157.054323	-2.999900	3.831200	-11.491000	22.057284	0.000919	20.885861
158.058535	-3.003000	3.829900	-11.499000	22.075406	0.000918	20.873183
159.054997	-2.992600	3.829300	-11.459000	22.096617	0.000919	20.875926
160.054815	-2.973300	3.831100	-11.391000	22.059950	0.000922	20.893744
161.059863	-3.013600	3.830400	-11.541000	22.093651	0.000920	20.871535
162.058992	-3.021400	3.827700	-11.564000	22.104743	0.000920	20.894965
163.055561	-3.005300	3.828400	-11.504000	22.124731	0.000923	20.871830
164.058927	-3.012700	3.827700	-11.530000	22.119945	0.000921	20.896909
165.056625	-2.988200	3.829500	-11.442000	22.128820	0.000923	20.895836
166.060027	-2.997700	3.827800	-11.474000	22.135175	0.000923	20.892242
167.060035	-2.990100	3.828500	-11.446000	22.162272	0.000923	20.871957
168.057695	-3.018000	3.827900	-11.552000	22.157858	0.000923	20.863745
169.062285	-2.997200	3.827400	-11.471000	22.184803	0.000925	20.870333
170.061084	-3.002000	3.828400	-11.491000	22.193625	0.000923	20.879639
171.061128	-2.997000	3.827000	-11.469000	22.164788	0.000923	20.867364
172.060851	-2.997300	3.826700	-11.469000	22.188966	0.000924	20.857907
173.062243	-2.996100	3.826200	-11.462000	22.179665	0.000925	20.874672
174.076920	-2.993200	3.827600	-11.456000	22.199255	0.000927	20.862993
175.062559	-3.004600	3.827100	-11.498000	22.186645	0.000927	20.879289
176.062494	-3.013100	3.825700	-11.526000	22.204189	0.000928	20.877889
177.061994	-2.974000	3.826500	-11.378000	22.234671	0.000928	20.879011
178.062149	-3.009900	3.825300	-11.512000	22.247408	0.000929	20.856677
179.063284	-2.986700	3.826700	-11.427000	22.238036	0.000928	20.893758
180.062264	-2.995100	3.824800	-11.453000	22.247154	0.000929	20.882501
181.065364	-3.004600	3.824300	-11.490000	22.245062	0.000930	20.854803
182.064251	-3.003700	3.824200	-11.486000	22.257374	0.000929	20.875190
183.064401	-2.994500	3.825000	-11.453000	22.241596	0.000929	20.857022
184.062467	-2.988600	3.824900	-11.430000	22.253710	0.000932	20.855401
185.061839	-3.004800	3.823900	-11.490000	22.262082	0.000930	20.881801
186.063830	-3.005600	3.823200	-11.490000	22.276212	0.000930	20.855647
187.064271	-3.019200	3.823300	-11.542000	22.265967	0.000932	20.849657
188.060665	-3.009600	3.824200	-11.509000	22.285955	0.000932	20.872040
189.061079	-3.009300	3.823200	-11.505000	22.296147	0.000933	20.866124
190.064380	-3.005200	3.822900	-11.487000	22.297695	0.000933	20.853450
191.063019	-3.001300	3.824000	-11.476000	22.292808	0.000934	20.855669
192.067610	-3.001500	3.821700	-11.469000	22.321170	0.000934	20.866998
193.066955	-3.023200	3.820900	-11.550000	22.344970	0.000935	20.857640
194.066257	-3.001100	3.821700	-11.468000	22.338390	0.000933	20.859112
195.070238	-3.014600	3.821300	-11.519000	22.327276	0.000936	20.859363
196.063488	-3.009500	3.822400	-11.503000	22.324383	0.000935	20.871163
197.068497	-3.003300	3.822500	-11.478000	22.324262	0.000935	20.858241
198.066309	-3.007900	3.821200	-11.493000	22.333407	0.000936	20.867872
199.063790	-2.981200	3.820700	-11.389000	22.338341	0.000935	20.844364
200.068775	-2.993500	3.821100	-11.437000	22.359423	0.000938	20.869267
201.068206	-2.992100	3.821500	-11.432000	22.376172	0.000937	20.877503
202.066544	-2.997900	3.821700	-11.454000	22.388932	0.000936	20.858988
203.067539	-3.006000	3.820600	-11.484000	22.363789	0.000939	20.853725
204.066693	-2.985700	3.820400	-11.405000	22.370363	0.000940	20.869317
205.065204	-3.010000	3.819800	-11.497000	22.349328	0.000939	20.876701
206.071257	-2.983900	3.820600	-11.399000	22.334305	0.000941	20.840797
207.063541	-2.987900	3.820900	-11.415000	22.364557	0.000940	20.840271
208.073565	-2.982000	3.819500	-11.389000	22.381056	0.000941	20.855843
209.071507	-3.011300	3.820100	-11.501000	22.386140	0.000939	20.839598
210.066047	-2.984400	3.818800	-11.396000	22.410087	0.000940	20.856466
211.069621	-2.993200	3.818300	-11.428000	22.411684	0.000941	20.858064
212.069240	-3.022400	3.815900	-11.532000	22.431344	0.000942	20.830813
213.070138	-2.983200	3.817900	-11.389000	22.445227	0.000943	20.843766
214.069836	-2.976300	3.818800	-11.365000	22.434034	0.000943	20.842515
215.068692	-3.002600	3.816700	-11.459000	22.448164	0.000943	20.848130
216.066866	-3.006200	3.816800	-11.473000	22.449334	0.000945	20.854991
217.069156	-2.988900	3.817100	-11.408000	22.436751	0.000944	20.834330
218.071489	-2.993400	3.816300	-11.423000	22.434755	0.000946	20.856513
219.075010	-2.995500	3.815800	-11.429000	22.463538	0.000946	20.840293
220.073873	-3.008300	3.816000	-11.479000	22.460821	0.000948	20.854167
221.071555	-3.003300	3.815400	-11.458000	22.450776	0.000947	20.842211
222.073044	-3.022700	3.816300	-11.533000	22.476668	0.000949	20.829735
223.072695	-2.983700	3.817300	-11.389000	22.480654	0.000950	20.835623
224.074862	-3.006000	3.816100	-11.471000	22.508560	0.000949	20.837492
225.072926	-3.000700	3.815200	-11.448000	22.519549	0.000949	20.837117
226.072010	-3.001500	3.814800	-11.449000	22.520220	0.000950	20.820721
227.072716	-2.980200	3.815000	-11.368000	22.524930	0.000950	20.836343
228.074677	-2.976000	3.816600	-11.357000	22.531481	0.000950	20.853809
229.077168	-3.005000	3.814700	-11.461000	22.540300	0.000952	20.865011
230.071664	-3.006600	3.813800	-11.465000	22.548673	0.000953	20.853483
231.072132	-2.985100	3.814400	-11.385000	22.545084	0.000953	20.846096
232.078158	-2.980100	3.814100	-11.365000	22.564990	0.000950	20.830946
233.073708	-2.987900	3.813300	-11.393000	22.570971	0.000954	20.849737
234.073128	-2.999500	3.813900	-11.439000	22.594468	0.000953	20.826805
235.073895	-3.011600	3.812800	-11.482000	22.597031	0.000955	20.837906
236.071989	-3.015400	3.811900	-11.494000	22.600744	0.000955	20.838780
237.071525	-3.001200	3.812600	-11.441000	22.613947	0.000955	20.834935
238.074467	-2.993800	3.812400	-11.411000	22.601215	0.000956	20.840674
239.075071	-2.997200	3.811900	-11.423000	22.591774	0.000958	20.846391
240.075154	-2.993900	3.812500	-11.412000	22.602734	0.000958	20.836506
241.076463	-3.007300	3.811100	-11.460000	22.628969	0.000959	20.845239
242.079634	-2.998700	3.811300	-11.428000	22.611677	0.000958	20.823652
243.078167	-3.003000	3.810600	-11.442000	22.626454	0.000959	20.841771
244.075927	-2.978100	3.810600	-11.348000	22.648376	0.000959	20.833857
245.077238	-3.006100	3.809400	-11.450000	22.655851	0.000958	20.825223
246.077467	-3.000600	3.810200	-11.432000	22.660783	0.000960	20.823525
247.082016	-2.995800	3.810000	-11.412000	22.656272	0.000960	20.822800
248.079996	-2.993500	3.808700	-11.399000	22.654604	0.000962	20.836776
249.074785	-3.007000	3.808500	-11.451000	22.653855	0.000959	20.834604
250.073061	-2.994700	3.809100	-11.406000	22.659833	0.000963	20.828264
251.076946	-3.008300	3.808400	-11.455000	22.654951	0.000962	20.822425
252.076223	-3.008300	3.807700	-11.454000	22.665863	0.000961	20.833355
253.076810	-3.021200	3.807000	-11.501000	22.671018	0.000961	20.813389
254.078846	-3.001900	3.808100	-11.431000	22.666860	0.000962	20.803534
255.074191	-3.000900	3.807900	-11.426000	22.702087	0.000963	20.822224
256.080588	-2.995400	3.807700	-11.405000	22.711679	0.000964	20.839892
257.077130	-2.986900	3.808800	-11.376000	22.710707	0.000962	20.843186
258.074787	-3.009400	3.806100	-11.454000	22.707146	0.000963	20.839619
259.074983	-3.010100	3.805700	-11.455000	22.728494	0.000963	20.824967
260.074656	-2.985100	3.806400	-11.362000	22.736194	0.000963	20.815137
261.079752	-2.985400	3.806100	-11.361000	22.737289	0.000966	20.829984
262.079578	-2.969700	3.807300	-11.304000	22.733153	0.000966	20.813987
263.077670	-2.990100	3.805100	-11.377000	22.711255	0.000965	20.825717
264.078371	-2.999500	3.804000	-11.409000	22.712625	0.000968	20.820926
265.078607	-2.992200	3.805000	-11.384000	22.699743	0.000968	20.823195
266.077039	-2.974500	3.806600	-11.321000	22.706246	0.000969	20.808372
267.078330	-3.016300	3.803700	-11.471000	22.719475	0.000967	20.828261
268.080987	-3.009900	3.803500	-11.447000	22.739230	0.000968	20.825764
269.075648	-2.995100	3.806300	-11.399000	22.754577	0.000972	20.798465
270.078966	-3.008700	3.802800	-11.440000	22.769821	0.000972	20.827010
271.079545	-3.019900	3.802500	-11.482000	22.783498	0.000973	20.805624
272.080714	-2.998400	3.803000	-11.400000	22.789426	0.000973	20.803027
273.082228	-3.028700	3.803200	-11.517000	22.796126	0.000973	20.806421
274.081934	-3.008500	3.802100	-11.437000	22.792937	0.000973	20.828355
275.081937	-3.005400	3.803400	-11.430000	22.815156	0.000975	20.797983
276.084308	-2.995100	3.803200	-11.390000	22.808733	0.000975	20.803402
277.083482	-3.008900	3.802500	-11.439000	22.813312	0.000974	20.815102
278.083810	-3.006900	3.802700	-11.432000	22.836873	0.000977	20.804092
279.079515	-3.028100	3.800300	-11.505000	22.851917	0.000977	20.793084
280.079511	-3.012300	3.800500	-11.447000	22.842999	0.000977	20.814022
281.082862	-3.006000	3.801500	-11.426000	22.856648	0.000977	20.804936
282.083361	-2.991500	3.801500	-11.371000	22.846208	0.000977	20.829090
283.090947	-2.993700	3.801100	-11.378000	22.879039	0.000978	20.805082
284.084313	-3.000300	3.802000	-11.406000	22.873830	0.000980	20.790381
285.085783	-3.012400	3.800500	-11.447000	22.906162	0.000978	20.832255
286.089394	-2.997900	3.801300	-11.395000	22.913333	0.000981	20.833749
287.085055	-3.005100	3.799800	-11.419000	22.908077	0.000980	20.807621
288.085374	-3.000800	3.799800	-11.401000	22.921701	0.000980	20.826485
289.087273	-2.994500	3.800600	-11.379000	22.922645	0.000982	20.804672
290.084207	-3.000900	3.799300	-11.399000	22.901444	0.000981	20.807140
291.083075	-2.982500	3.799600	-11.331000	22.909038	0.000981	20.810007
292.088645	-2.998700	3.798400	-11.389000	22.927295	0.000982	20.816918
293.083162	-3.002600	3.797400	-11.401000	22.934392	0.000982	20.813596
294.086852	-3.007300	3.796700	-11.417000	22.939523	0.000983	20.806884
295.086951	-2.980400	3.797700	-11.318000	22.910525	0.000983	20.807703
296.090143	-2.995500	3.798500	-11.377000	22.929431	0.000981	20.816687
297.091700	-3.009500	3.796900	-11.425000	22.923152	0.000983	20.845009
298.085977	-2.984900	3.797700	-11.335000	22.915478	0.000983	20.823096
299.084863	-2.993000	3.796600	-11.362000	22.922002	0.000983	20.815408
300.085347	-3.006200	3.797100	-11.414000	22.940138	0.000981	20.820775
301.087533	-2.990000	3.796600	-11.351000	22.958595	0.000984	20.818879
302.087321	-2.990400	3.796700	-11.353000	22.968206	0.000985	20.828034
303.089003	-2.990900	3.794700	-11.349000	22.950299	0.000983	20.821947
304.090377	-3.000000	3.796100	-11.387000	22.956873	0.000985	20.817628
305.088990	-2.978800	3.796000	-11.306000	22.946959	0.000984	20.812437
306.085137	-3.017700	3.794600	-11.449000	22.966464	0.000985	20.822496
307.092964	-2.982400	3.795500	-11.319000	22.968060	0.000984	20.823620
308.091290	-2.983100	3.795300	-11.321000	22.964249	0.000984	20.825018
309.090339	-2.981700	3.793900	-11.312000	22.986118	0.000988	20.818953
310.087546	-2.984900	3.792200	-11.318000	22.987438	0.000986	20.817432
311.088480	-2.990600	3.794300	-11.345000	22.977627	0.000987	20.815187
312.093476	-3.013000	3.793800	-11.429000	22.993942	0.000988	20.817784
313.092607	-3.007500	3.792200	-11.404000	22.967465	0.000987	20.807852
314.093740	-3.021500	3.792200	-11.456000	22.984656	0.000988	20.808954
315.092181	-2.986600	3.792300	-11.325000	22.960146	0.000989	20.826123
316.101340	-2.973300	3.792600	-11.274000	22.972827	0.000989	20.804689
317.094273	-2.995400	3.792100	-11.356000	22.972949	0.000990	20.829466
318.097063	-2.997500	3.791600	-11.365000	22.983288	0.000992	20.814696
319.090755	-2.997000	3.791300	-11.361000	22.967847	0.000990	20.815346
320.093707	-2.999600	3.791800	-11.371000	22.969319	0.000991	20.805916
321.093966	-3.003400	3.790600	-11.383000	22.946823	0.000993	20.811826
322.091654	-3.015700	3.790000	-11.428000	22.966303	0.000993	20.816645
323.096644	-3.003800	3.789400	-11.381000	22.979158	0.000992	20.812929
324.094459	-3.013500	3.789200	-11.418000	22.992733	0.000993	20.812306
325.095116	-3.007000	3.789000	-11.392000	23.002149	0.000993	20.840704
326.095388	-3.002700	3.789100	-11.376000	23.010342	0.000995	20.811457
327.095528	-3.015000	3.788800	-11.422000	23.021477	0.000995	20.814552
328.094226	-3.005400	3.789000	-11.387000	23.042049	0.000995	20.824258
329.098815	-2.989800	3.787500	-11.322000	23.048423	0.000998	20.809783
330.093082	-2.993000	3.787700	-11.336000	23.059255	0.000997	20.807835
331.096172	-3.010300	3.787900	-11.402000	23.061049	0.000999	20.828124
332.096728	-2.990600	3.788400	-11.328000	23.076640	0.000998	20.802495
333.092904	-2.984600	3.786900	-11.301000	23.103835	0.000998	20.815520
334.100015	-3.008000	3.787900	-11.393000	23.107896	0.000998	20.822434
335.094712	-2.992000	3.787000	-11.329000	23.109885	0.001000	20.831539
336.100881	-3.002200	3.788100	-11.371000	23.080621	0.001000	20.823079
337.096807	-2.979100	3.786700	-11.280000	23.105027	0.000999	20.831887
338.096509	-2.990900	3.786400	-11.324000	23.111377	0.001000	20.804585
339.095955	-3.005600	3.786100	-11.378000	23.120466	0.001000	20.818909
340.096881	-2.993900	3.785600	-11.332000	23.118747	0.001002	20.812919
341.096875	-3.004300	3.784300	-11.369000	23.145793	0.001002	20.834804
342.094808	-3.001900	3.786500	-11.366000	23.156998	0.000999	20.829437
343.095559	-2.994000	3.786400	-11.336000	23.167680	0.001002	20.816908
344.095766	-2.991700	3.785300	-11.323000	23.175399	0.001001	20.832703
345.098535	-2.999900	3.784300	-11.352000	23.186257	0.001002	20.816084
346.094273	-3.024000	3.783400	-11.439000	23.182398	0.001002	20.819802
347.098651	-2.964200	3.783900	-11.215000	23.202669	0.001001	20.807400
348.095026	-3.005400	3.783400	-11.369000	23.220770	0.001002	20.825539
349.098452	-2.990300	3.783200	-11.311000	23.226797	0.001002	20.815458
350.099686	-2.998300	3.782500	-11.339000	23.221119	0.001002	20.810242
351.096916	-2.988900	3.784200	-11.309000	23.205381	0.001004	20.829084
352.097372	-3.006200	3.782200	-11.368000	23.200276	0.001002	20.830606
353.096840	-2.988500	3.782700	-11.303000	23.179806	0.001003	20.823844
354.097331	-3.020200	3.781500	-11.420000	23.182420	0.001002	20.842109
355.094454	-2.997800	3.781800	-11.335000	23.203065	0.001004	20.840987
356.099293	-3.024200	3.780400	-11.431000	23.225130	0.001003	20.829434
357.094180	-3.005100	3.781500	-11.363000	23.232450	0.001005	20.834399
358.100253	-2.998900	3.780700	-11.336000	23.247120	0.001004	20.829660
359.095828	-3.000700	3.780400	-11.342000	23.249508	0.001005	20.818303
360.098509	-2.995400	3.781200	-11.325000	23.288006	0.001006	20.832229
361.101207	-3.010900	3.779800	-11.378000	23.283553	0.001006	20.837723
362.103097	-3.014600	3.778900	-11.391000	23.321151	0.001007	20.819455
363.098950	-3.006000	3.779600	-11.361000	23.329793	0.001006	20.814366
364.096462	-3.004700	3.778500	-11.353000	23.354595	0.001006	20.834955
365.100361	-2.974400	3.779900	-11.242000	23.342245	0.001009	20.836328
366.102531	-3.014900	3.779200	-11.393000	23.341150	0.001009	20.843291
367.102565	-2.997000	3.778500	-11.323000	23.329848	0.001009	20.829593
368.104749	-2.977000	3.778300	-11.246000	23.309207	0.001009	20.828347
369.102284	-2.997800	3.777600	-11.322000	23.282463	0.001009	20.831889
370.099125	-3.006000	3.777500	-11.353000	23.301167	0.001011	20.834987
371.104902	-2.993800	3.776700	-11.305000	23.298579	0.001010	20.821488
372.099195	-2.997400	3.776300	-11.318000	23.295468	0.001012	20.833543
373.102226	-3.008200	3.776300	-11.356000	23.327067	0.001012	20.835340
374.103590	-2.988800	3.777400	-11.288000	23.321640	0.001012	20.838436
375.101340	-2.995500	3.776200	-11.310000	23.346689	0.001014	20.830350
376.104555	-2.999400	3.774700	-11.320000	23.333170	0.001011	20.833396
377.109942	-3.002100	3.775000	-11.332000	23.335362	0.001014	20.828007
378.106019	-3.009200	3.774600	-11.358000	23.360436	0.001017	20.830852
379.102035	-3.012900	3.773800	-11.368000	23.362653	0.001014	20.834496
380.109635	-2.985500	3.775500	-11.270000	23.377841	0.001014	20.837865
381.104670	-2.999000	3.774500	-11.318000	23.337329	0.001015	20.828082
382.107513	-3.012500	3.772400	-11.364000	23.374130	0.001015	20.841258
383.109532	-3.002100	3.774300	-11.330000	23.372810	0.001015	20.838038
384.109463	-2.996300	3.772700	-11.302000	23.365992	0.001017	20.825989
385.106474	-3.003300	3.772000	-11.327000	23.371394	0.001017	20.845627
386.104599	-2.983100	3.773600	-11.255000	23.348557	0.001016	20.829377
387.108161	-3.010300	3.771100	-11.350000	23.348262	0.001018	20.852315
388.109383	-2.994700	3.772400	-11.296000	23.375401	0.001017	20.848695
389.103599	-3.005400	3.772400	-11.336000	23.385360	0.001019	20.834970
390.105969	-3.013700	3.771200	-11.363000	23.380976	0.001018	20.844800
391.109508	-3.006200	3.770100	-11.333000	23.409311	0.001018	20.857552
392.108572	-3.023900	3.768900	-11.396000	23.420013	0.001017	20.836512
393.111151	-3.010800	3.769300	-11.347000	23.423476	0.001018	20.822439
394.111340	-3.011400	3.770400	-11.353000	23.434007	0.001021	20.829675
395.116035	-2.999500	3.770700	-11.309000	23.458055	0.001019	20.843348
396.110390	-3.017000	3.769700	-11.372000	23.432186	0.001019	20.844919
397.107584	-2.993600	3.770000	-11.284000	23.440701	0.001017	20.846342
398.112932	-3.004500	3.769900	-11.325000	23.440602	0.001017	20.821113
399.108156	-3.009500	3.768300	-11.339000	23.462560	0.001020	20.879156
400.113103	-3.028200	3.766800	-11.404000	23.468834	0.001018	20.851307
401.109574	-3.010800	3.768000	-11.344000	23.477549	0.001018	20.849611
402.107409	-3.027700	3.768200	-11.408000	23.487483	0.001018	20.838232
403.110444	-2.987400	3.767800	-11.254000	23.485789	0.001021	20.843646
404.119687	-3.014300	3.766600	-11.353000	23.512853	0.001020	20.852756
405.112945	-2.988900	3.768200	-11.262000	23.509190	0.001017	20.855723
406.118431	-3.006100	3.766500	-11.321000	23.482777	0.001018	20.832093
407.112298	-2.977800	3.767700	-11.218000	23.489276	0.001018	20.841926
408.109815	-2.988800	3.765600	-11.252000	23.511656	0.001020	20.859617
409.113762	-2.981600	3.765200	-11.225000	23.524428	0.001019	20.866255
410.111907	-3.002300	3.765000	-11.302000	23.520896	0.001019	20.861293
411.111013	-3.017600	3.765300	-11.361000	23.551914	0.001019	20.845920
412.113354	-3.010500	3.765200	-11.334000	23.573350	0.001020	20.863140
413.112572	-3.004000	3.765500	-11.310000	23.579279	0.001019	20.870031
414.114047	-3.000300	3.764300	-11.293000	23.593494	0.001021	20.864841
415.111586	-3.015800	3.763000	-11.348000	23.597453	0.001019	20.867862
416.114358	-3.000700	3.763300	-11.291000	23.592676	0.001020	20.873504
417.111875	-3.012400	3.763100	-11.335000	23.586079	0.001020	20.864520
418.113191	-3.030300	3.762200	-11.400000	23.595465	0.001020	20.844533
419.114531	-2.996500	3.761400	-11.271000	23.585634	0.001021	20.874030
420.117002	-3.004700	3.762800	-11.306000	23.585711	0.001022	20.846134
421.116990	-2.999000	3.761200	-11.279000	23.596144	0.001021	20.873661
422.116993	-3.010000	3.760900	-11.319000	23.596218	0.001021	20.841494
423.116618	-2.999600	3.760300	-11.278000	23.609887	0.001021	20.873214
424.113266	-2.977200	3.762300	-11.200000	23.624453	0.001022	20.852730
425.120879	-2.999900	3.760900	-11.281000	23.632518	0.001021	20.870771
426.116478	-3.006400	3.760900	-11.306000	23.639715	0.001024	20.859494
427.117495	-2.994000	3.760500	-11.258000	23.627769	0.001022	20.855580
428.118422	-2.999100	3.759800	-11.275000	23.608751	0.001023	20.868756
429.122608	-3.002900	3.758400	-11.286000	23.632699	0.001025	20.865738
430.122741	-2.993300	3.760500	-11.255000	23.626303	0.001027	20.872127
431.116128	-2.996900	3.759800	-11.267000	23.671809	0.001024	20.858005
432.118910	-2.997600	3.760600	-11.272000	23.666832	0.001027	20.860128
433.115199	-2.973300	3.759300	-11.177000	23.676866	0.001028	20.871609
434.118729	-3.001300	3.758400	-11.279000	23.681048	0.001026	20.873905
435.119395	-3.014800	3.757400	-11.326000	23.677515	0.001026	20.870363
436.120370	-2.997500	3.758600	-11.265000	23.685505	0.001025	20.859882
437.119321	-2.979400	3.757800	-11.195000	23.708704	0.001028	20.864648
438.120914	-3.005900	3.756300	-11.290000	23.709576	0.001030	20.874530
439.119853	-2.984900	3.758100	-11.217000	23.684312	0.001028	20.861530
440.119858	-2.997800	3.757700	-11.263000	23.674330	0.001029	20.864326
441.120905	-2.985400	3.756600	-11.213000	23.676470	0.001028	20.875479
442.122732	-2.998600	3.754200	-11.256000	23.681845	0.001029	20.890824
443.120402	-2.999300	3.755500	-11.263000	23.694145	0.001030	20.883241
444.117345	-3.015600	3.754000	-11.319000	23.664946	0.001032	20.874831
445.122849	-2.991700	3.755700	-11.235000	23.683888	0.001029	20.859684
446.126379	-3.000100	3.754900	-11.264000	23.685307	0.001030	20.877226
447.123421	-3.042000	3.753100	-11.416000	23.681821	0.001028	20.877998
448.117384	-3.003300	3.753100	-11.271000	23.679508	0.001030	20.877576
449.119892	-3.015600	3.753300	-11.317000	23.669648	0.001031	20.879070
450.120036	-3.004400	3.753400	-11.275000	23.705319	0.001030	20.912460
451.123810	-2.995700	3.753700	-11.244000	23.729785	0.001030	20.876300
452.120454	-2.998700	3.752700	-11.252000	23.734242	0.001031	20.891673
453.119938	-3.020500	3.751300	-11.329000	23.723065	0.001030	20.885683
454.123699	-3.019700	3.751900	-11.329000	23.750891	0.001029	20.904571
455.123243	-2.989200	3.751800	-11.214000	23.732524	0.001029	20.899907
456.126989	-2.988500	3.751700	-11.211000	23.739516	0.001030	20.889374
457.122456	-2.989000	3.751400	-11.212000	23.750668	0.001031	20.896762
458.127362	-3.008700	3.750500	-11.281000	23.744174	0.001030	20.879820
459.124637	-3.030900	3.749400	-11.362000	23.751790	0.001031	20.890774
460.122653	-3.009300	3.751400	-11.288000	23.749450	0.001032	20.891273
461.128410	-2.981700	3.750000	-11.180000	23.716271	0.001030	20.882191
462.121148	-2.991600	3.749600	-11.217000	23.709477	0.001030	20.897663
463.122311	-3.009200	3.748800	-11.279000	23.713733	0.001033	20.883439
464.122639	-3.002200	3.748400	-11.253000	23.691629	0.001032	20.884986
465.124421	-3.006000	3.748900	-11.269000	23.701211	0.001031	20.915927
466.127119	-3.004000	3.748800	-11.259000	23.711718	0.001033	20.881893
467.129708	-2.976200	3.749000	-11.157000	23.721671	0.001035	20.886656
468.126826	-3.003900	3.747600	-11.256000	23.764809	0.001034	20.893870
469.125474	-3.007400	3.746300	-11.265000	23.770157	0.001034	20.908714
470.133225	-3.008400	3.747600	-11.273000	23.800200	0.001035	20.892371
471.129769	-3.007800	3.746600	-11.268000	23.802116	0.001035	20.908989
472.132508	-3.011400	3.746300	-11.281000	23.833126	0.001033	20.912581
473.129990	-2.981100	3.746300	-11.167000	23.828870	0.001033	20.920167
474.133946	-2.994000	3.745700	-11.214000	23.850947	0.001034	20.896312
475.128010	-2.989400	3.745200	-11.194000	23.844651	0.001032	20.901853
476.131274	-2.993100	3.745100	-11.208000	23.881782	0.001034	20.889774
477.135370	-2.981000	3.745000	-11.163000	23.889398	0.001033	20.897884
478.132251	-3.013500	3.743900	-11.281000	23.896540	0.001035	20.910734
479.129723	-3.003800	3.743200	-11.243000	23.879039	0.001033	20.908358
480.134539	-2.987300	3.744900	-11.185000	23.897236	0.001034	20.907639
481.133165	-2.977000	3.743900	-11.144000	23.913063	0.001034	20.895061
482.132017	-2.973200	3.745200	-11.133000	23.882300	0.001033	20.925377
483.133394	-3.011400	3.744100	-11.274000	23.908804	0.001033	20.908334
484.130894	-3.001400	3.743600	-11.235000	23.896089	0.001036	20.907438
485.143760	-3.007200	3.742700	-11.254000	23.877348	0.001035	20.915671
486.132809	-3.006400	3.743000	-11.251000	23.880010	0.001036	20.911228
487.132665	-3.011000	3.741700	-11.266000	23.869307	0.001035	20.901919
488.139373	-2.998600	3.740300	-11.215000	23.882396	0.001036	20.898449
489.133127	-3.000300	3.740300	-11.220000	23.895191	0.001035	20.923130
490.135356	-3.001200	3.740900	-11.226000	23.922116	0.001035	20.915043
491.134970	-2.988100	3.739700	-11.174000	23.931199	0.001036	20.911349
492.135818	-2.986200	3.739800	-11.166000	23.942047	0.001036	20.927916
493.144492	-3.005200	3.739300	-11.236000	23.939410	0.001036	20.907730
494.134035	-2.981300	3.739600	-11.146000	23.920571	0.001037	20.920131
495.133985	-3.002900	3.739300	-11.226000	23.906732	0.001035	20.918582
496.137206	-3.012900	3.738600	-11.263000	23.912579	0.001038	20.918282
497.132780	-3.025600	3.737000	-11.306000	23.938660	0.001038	20.910771
498.137155	-2.999200	3.737600	-11.209000	23.919246	0.001037	20.927811
499.135683	-2.995300	3.739500	-11.199000	23.967998	0.001034	20.907000
500.137478	-3.033300	3.736700	-11.334000	23.986435	0.001037	20.913161
501.137117	-3.028400	3.736300	-11.313000	23.987529	0.001039	20.955030
502.138110	-3.001000	3.736100	-11.211000	24.020703	0.001037	20.924765
503.139169	-3.013700	3.735100	-11.255000	24.034884	0.001037	20.916229
504.137070	-2.997300	3.736700	-11.199000	24.010024	0.001038	20.928280
505.139655	-2.990000	3.736500	-11.171000	24.031750	0.001038	20.920672
506.136448	-2.988100	3.735600	-11.161000	24.040110	0.001038	20.917676
507.140673	-2.992700	3.735900	-11.180000	24.032716	0.001038	20.905046
508.138285	-2.974700	3.736300	-11.113000	24.052820	0.001037	20.906243
509.139897	-3.005000	3.735400	-11.224000	24.072925	0.001035	20.918818
510.136881	-3.004800	3.734200	-11.220000	24.060061	0.001038	20.932467
511.141319	-3.006000	3.733900	-11.222000	24.076482	0.001037	20.896309
512.139506	-3.001200	3.733500	-11.204000	24.087452	0.001037	20.926274
513.140189	-2.994000	3.733900	-11.178000	24.086704	0.001035	20.904190
514.136265	-2.995600	3.733900	-11.183000	24.119875	0.001038	20.915645
515.139106	-2.992200	3.733800	-11.171000	24.124498	0.001038	20.915067
516.137228	-3.005300	3.732700	-11.217000	24.146195	0.001036	20.924973
517.140663	-3.000100	3.732600	-11.196000	24.143109	0.001036	20.917611
518.140673	-3.012000	3.731600	-11.239000	24.145297	0.001035	20.892307
519.140473	-3.009600	3.731500	-11.230000	24.148777	0.001037	20.915236
520.147060	-2.998200	3.730900	-11.184000	24.138401	0.001037	20.909571
521.143883	-2.984300	3.732500	-11.138000	24.149274	0.001036	20.897244
522.140949	-2.979900	3.733400	-11.123000	24.120285	0.001037	20.911790
523.142367	-3.008100	3.731700	-11.224000	24.112023	0.001035	20.895919
524.142797	-3.004300	3.729900	-11.204000	24.113689	0.001036	20.901382
525.145615	-3.025600	3.729700	-11.284000	24.120006	0.001037	20.891123
526.144028	-2.999800	3.729200	-11.185000	24.090496	0.001035	20.910363
527.144601	-3.005600	3.728900	-11.206000	24.112840	0.001037	20.890574
528.142138	-3.015700	3.729200	-11.244000	24.071484	0.001037	20.906468
529.143941	-2.994100	3.730700	-11.169000	24.052693	0.001036	20.910383
530.143770	-2.998500	3.728900	-11.180000	24.005337	0.001036	20.891341
531.147813	-3.003600	3.728400	-11.197000	24.017531	0.001036	20.892664
532.149112	-2.988500	3.728300	-11.141000	24.021709	0.001036	20.900173
533.149550	-2.996700	3.728400	-11.172000	24.045819	0.001037	20.892585
534.148314	-2.994300	3.726600	-11.157000	24.065429	0.001038	20.907508
535.147370	-3.008500	3.726600	-11.210000	24.050124	0.001038	20.891686
536.149321	-3.006300	3.725300	-11.198000	24.056317	0.001039	20.887940
537.145454	-2.988600	3.727800	-11.140000	24.038450	0.001039	20.898944
538.150204	-2.986800	3.726700	-11.130000	24.010751	0.001037	20.881124
539.146634	-3.009000	3.726200	-11.212000	24.008810	0.001037	20.904780
540.147698	-3.005900	3.726300	-11.200000	23.999378	0.001037	20.900538
541.150909	-2.984500	3.725200	-11.117000	24.003557	0.001036	20.887660
542.152492	-3.006300	3.725400	-11.198000	24.037074	0.001037	20.892349
543.151114	-3.001900	3.724000	-11.177000	24.028762	0.001038	20.892073
544.147550	-3.009200	3.724500	-11.206000	24.073476	0.001036	20.884761
545.150823	-3.024500	3.723000	-11.259000	24.071112	0.001038	20.885709
546.147985	-2.987400	3.723900	-11.124000	24.106392	0.001036	20.900228
547.152230	-3.001400	3.723400	-11.174000	24.100293	0.001036	20.895060
548.173871	-2.987800	3.724900	-11.128000	24.118332	0.001037	20.904142
549.155867	-3.006900	3.721700	-11.190000	24.127760	0.001034	20.896529
550.153434	-2.987700	3.723200	-11.123000	24.135646	0.001035	20.888792
551.154087	-3.004800	3.722400	-11.184000	24.120988	0.001034	20.891160
552.159093	-3.004700	3.721900	-11.181000	24.111434	0.001036	20.890112
553.153752	-3.019500	3.721800	-11.238000	24.097471	0.001039	20.891282
554.155535	-3.002000	3.721400	-11.170000	24.096823	0.001036	20.877356
555.153362	-3.017300	3.720300	-11.223000	24.100850	0.001036	20.889929
556.153457	-2.986400	3.722400	-11.116000	24.115130	0.001035	20.889552
557.152662	-3.009600	3.719500	-11.193000	24.109707	0.001038	20.866096
558.156284	-3.001700	3.720600	-11.168000	24.126426	0.001035	20.880494
559.157596	-3.007900	3.718000	-11.182000	24.099652	0.001036	20.884461
560.153396	-2.988000	3.720500	-11.116000	24.066454	0.001036	20.872029
561.160038	-3.013200	3.718500	-11.204000	24.060357	0.001035	20.881561
562.157795	-2.987300	3.720100	-11.111000	24.029700	0.001035	20.889222
563.155118	-2.988200	3.719800	-11.114000	24.028730	0.001034	20.890619
564.154799	-3.006500	3.717000	-11.174000	24.055380	0.001036	20.881785
565.152967	-2.995300	3.717800	-11.134000	24.096732	0.001034	20.862093
566.156113	-2.972400	3.718100	-11.050000	24.102902	0.001036	20.851687
567.156549	-2.966600	3.718000	-11.029000	24.101907	0.001034	20.867283
568.156150	-2.977700	3.717800	-11.069000	24.101855	0.001035	20.872446
569.153568	-2.984500	3.716300	-11.090000	24.116588	0.001035	20.866834
570.153173	-3.014800	3.717100	-11.205000	24.145525	0.001034	20.860295
571.153126	-3.012000	3.715200	-11.189000	24.175231	0.001034	20.890562
572.153503	-3.022500	3.713900	-11.223000	24.194464	0.001034	20.873345
573.155897	-3.000000	3.714900	-11.144000	24.214514	0.001034	20.861214
574.156648	-2.986700	3.715300	-11.096000	24.207399	0.001034	20.870198
575.160338	-3.009100	3.713900	-11.173000	24.172991	0.001033	20.864610
576.155122	-3.017700	3.714300	-11.208000	24.192247	0.001033	20.867802
577.155204	-3.002200	3.713400	-11.147000	24.210111	0.001033	20.879082
578.160017	-2.987000	3.714700	-11.095000	24.222004	0.001036	20.878208
579.155730	-3.003400	3.713300	-11.151000	24.240239	0.001033	20.867102
580.158707	-3.021900	3.712900	-11.219000	24.250443	0.001033	20.875440
581.155591	-3.001300	3.713400	-11.144000	24.232903	0.001032	20.861167
582.154830	-3.017200	3.712100	-11.199000	24.186277	0.001033	20.867978
583.155199	-3.006900	3.711200	-11.157000	24.172964	0.001032	20.847514
584.159872	-2.964200	3.713100	-11.006000	24.176993	0.001033	20.864357
585.159823	-3.003000	3.710100	-11.141000	24.178488	0.001032	20.857322
586.159636	-2.985700	3.711100	-11.079000	24.182495	0.001032	20.848065
587.156048	-2.980000	3.711300	-11.059000	24.206800	0.001029	20.875286
588.160670	-2.998900	3.711300	-11.129000	24.200907	0.001031	20.858471
589.162523	-2.986700	3.711900	-11.083000	24.216455	0.001031	20.845143
590.163365	-2.995800	3.711900	-11.118000	24.216903	0.001031	20.856498
591.159118	-2.991900	3.710700	-11.101000	24.222900	0.001031	20.874365
592.161706	-3.003300	3.708400	-11.137000	24.227305	0.001031	20.857448
593.159610	-3.001500	3.709100	-11.132000	24.248602	0.001028	20.861266
594.165603	-3.008700	3.707800	-11.154000	24.220140	0.001030	20.856900
595.165223	-2.993400	3.707800	-11.097000	24.225864	0.001030	20.860745
596.159799	-3.009200	3.706900	-11.153000	24.204943	0.001033	20.861097
597.161346	-2.977000	3.708000	-11.038000	24.179117	0.001027	20.844676
598.159186	-3.007700	3.707300	-11.148000	24.176327	0.001031	20.848991
599.162485	-2.992000	3.708300	-11.093000	24.149708	0.001029	20.850267
600.164825	-3.000500	3.705700	-11.117000	24.155806	0.001030	20.843107
601.161907	-2.994400	3.706100	-11.096000	24.163271	0.001030	20.861025
602.167620	-3.011000	3.706400	-11.159000	24.180240	0.001030	20.864294
603.160888	-3.004900	3.704700	-11.132000	24.225570	0.001030	20.832001
604.164634	-3.007600	3.704300	-11.140000	24.216467	0.001030	20.840888
605.168105	-3.005700	3.704700	-11.133000	24.197734	0.001031	20.844857
606.165759	-2.999300	3.704500	-11.110000	24.195840	0.001030	20.828734
607.170686	-3.006000	3.705500	-11.137000	24.170090	0.001029	20.839416
608.177269	-2.984900	3.704200	-11.056000	24.144411	0.001030	20.834523
609.168599	-3.003900	3.703000	-11.122000	24.132072	0.001029	20.836373
610.171560	-3.002700	3.703600	-11.120000	24.159613	0.001028	20.844555
611.167057	-2.975900	3.703900	-11.021000	24.154339	0.001030	20.844480
612.168735	-3.008600	3.702300	-11.138000	24.188002	0.001029	20.833200
613.173361	-2.994300	3.703700	-11.089000	24.178921	0.001030	20.837842
614.170818	-3.004800	3.702300	-11.124000	24.186287	0.001029	20.832428
615.168974	-2.995600	3.702600	-11.090000	24.159984	0.001028	20.835444
616.175197	-2.977100	3.702500	-11.022000	24.177104	0.001028	20.836968
617.170847	-2.988100	3.701600	-11.059000	24.220694	0.001027	20.838964
618.172785	-2.985200	3.701800	-11.049000	24.245674	0.001030	20.831304
619.171532	-3.005400	3.700900	-11.122000	24.260701	0.001029	20.832153
620.172186	-2.995300	3.700500	-11.083000	24.285306	0.001029	20.846876
621.170518	-2.976800	3.702400	-11.019000	24.276723	0.001029	20.828310
622.168594	-2.987900	3.700000	-11.054000	24.276723	0.001029	20.838741
623.172214	-3.003400	3.698800	-11.107000	24.282395	0.001027	20.838741
624.174215	-2.954900	3.700100	-10.931000	24.278886	0.001028	20.835695
625.172556	-2.995200	3.699200	-11.078000	24.280081	0.001030	20.834997
626.175836	-2.996400	3.699200	-11.083000	24.324835	0.001028	20.830105
627.173386	-2.992600	3.698000	-11.066000	24.329886	0.001029	20.831852
628.172869	-3.000600	3.699000	-11.098000	24.350013	0.001025	20.829283
629.173177	-2.992800	3.698300	-11.067000	24.341577	0.001028	20.826510
630.173584	-2.997900	3.699200	-11.089000	24.319435	0.001027	20.827533
631.171546	-3.000900	3.698600	-11.098000	24.317297	0.001026	20.817328
632.172765	-2.995800	3.698000	-11.076000	24.296274	0.001025	20.821843
633.171131	-2.994300	3.697000	-11.069000	24.309658	0.001028	20.841432
634.173896	-3.005200	3.696900	-11.109000	24.325704	0.001027	20.837614
635.172895	-3.007800	3.695400	-11.114000	24.311848	0.001026	20.820870
636.173280	-2.979200	3.695800	-11.009000	24.337743	0.001026	20.813182
637.180176	-3.027400	3.694800	-11.184000	24.366875	0.001024	20.836715
638.178171	-3.000100	3.696500	-11.088000	24.360904	0.001029	20.828355
639.175011	-3.009800	3.695400	-11.122000	24.368216	0.001027	20.820044
640.175652	-2.999300	3.695100	-11.082000	24.379285	0.001024	20.808863
641.171791	-2.988500	3.696400	-11.045000	24.422741	0.001024	20.836336
642.172665	-2.986100	3.694400	-11.031000	24.434084	0.001026	20.829698
643.177127	-3.001000	3.692900	-11.081000	24.462391	0.001024	20.829174
644.175893	-3.014600	3.692400	-11.129000	24.469406	0.001027	20.811082
645.176666	-3.000500	3.692400	-11.077000	24.479353	0.001026	20.824381
646.174343	-2.992000	3.694100	-11.052000	24.501939	0.001025	20.803419
647.175728	-3.024100	3.691400	-11.163000	24.518675	0.001025	20.811676
648.178671	-3.004900	3.692200	-11.093000	24.547629	0.001025	20.822707
649.178124	-3.010200	3.692800	-11.114000	24.551009	0.001025	20.833211
650.176879	-3.008800	3.690500	-11.103000	24.567175	0.001025	20.823827
651.179667	-3.010000	3.690300	-11.106000	24.564986	0.001023	20.822104
652.182620	-3.024900	3.689200	-11.158000	24.573143	0.001025	20.816065
653.178958	-3.005900	3.692400	-11.098000	24.524117	0.001024	20.822824
654.179021	-3.014200	3.690900	-11.125000	24.533219	0.001024	20.797819
655.179955	-3.003500	3.691800	-11.087000	24.541998	0.001025	20.797144
656.180226	-3.011800	3.688500	-11.108000	24.499215	0.001024	20.796419
657.178359	-2.990700	3.690000	-11.033000	24.483095	0.001023	20.830031
658.177868	-3.007600	3.687700	-11.089000	24.469338	0.001024	20.808643
659.184741	-3.010200	3.687800	-11.100000	24.426604	0.001022	20.788055
660.181218	-2.959600	3.690200	-10.919000	24.448466	0.001022	20.807617
661.191469	-2.992600	3.687700	-11.034000	24.430358	0.001023	20.809365
662.183088	-3.004000	3.687300	-11.075000	24.428663	0.001024	20.815725
663.183255	-2.983400	3.687500	-10.999000	24.434909	0.001023	20.797335
664.183002	-2.994900	3.688000	-11.043000	24.450127	0.001022	20.802171
665.188707	-2.997000	3.687000	-11.049000	24.428188	0.001021	20.818568
666.184114	-2.979600	3.686600	-10.983000	24.464451	0.001022	20.796154
667.184920	-2.999200	3.685200	-11.052000	24.493877	0.001021	20.783950
668.187337	-2.989600	3.687400	-11.022000	24.502086	0.001020	20.796454
669.183294	-2.990700	3.685400	-11.022000	24.472634	0.001022	20.809105
670.192335	-2.995400	3.685800	-11.038000	24.492033	0.001021	20.805808
671.187353	-2.983400	3.686500	-10.997000	24.460990	0.001022	20.788888
672.191270	-2.995000	3.685300	-11.036000	24.494594	0.001020	20.814542
673.189190	-3.019800	3.684100	-11.125000	24.501956	0.001020	20.781150
674.190667	-3.021900	3.684300	-11.133000	24.509639	0.001020	20.811618
675.189083	-3.021800	3.682900	-11.127000	24.528020	0.001021	20.791180
676.194740	-2.997900	3.684000	-11.043000	24.504069	0.001020	20.793227
677.194226	-3.008400	3.683200	-11.080000	24.535109	0.001021	20.804456
678.192259	-3.004100	3.683200	-11.064000	24.539684	0.001018	20.775381
679.188703	-2.982200	3.683400	-10.983000	24.562813	0.001021	20.810915
680.189991	-3.012600	3.682800	-11.093000	24.560972	0.001019	20.804327
681.191056	-2.996800	3.682100	-11.034000	24.547445	0.001017	20.792177
682.188406	-3.012100	3.682000	-11.089000	24.539033	0.001019	20.803652
683.192155	-2.991800	3.682000	-11.014000	24.533063	0.001018	20.803826
684.190978	-3.016400	3.680800	-11.101000	24.545150	0.001018	20.793193
685.192084	-3.012500	3.679400	-11.084000	24.576787	0.001021	20.782263
686.194006	-2.989400	3.682300	-11.007000	24.553231	0.001018	20.782809
687.191033	-3.001300	3.679900	-11.043000	24.527264	0.001018	20.801800
688.191915	-2.989600	3.679700	-11.000000	24.530767	0.001019	20.790617
689.194300	-3.002000	3.679700	-11.045000	24.550789	0.001018	20.788420
690.191783	-3.002400	3.680500	-11.050000	24.558649	0.001020	20.801997
691.193198	-3.025500	3.678500	-11.128000	24.533675	0.001020	20.777887
692.191103	-2.993500	3.679700	-11.013000	24.539841	0.001018	20.769849
693.195838	-3.006500	3.679600	-11.062000	24.569860	0.001018	20.790486
694.192223	-3.000400	3.679700	-11.041000	24.578315	0.001017	20.782847
695.193770	-3.004800	3.678500	-11.053000	24.580777	0.001016	20.783421
696.193174	-3.011600	3.679100	-11.079000	24.577964	0.001017	20.785814
697.196218	-3.019700	3.677100	-11.102000	24.595372	0.001016	20.812290
698.194427	-3.011800	3.677400	-11.075000	24.572912	0.001018	20.815359
699.196262	-3.025500	3.676600	-11.123000	24.569255	0.001016	20.783714
700.203507	-3.031100	3.676500	-11.143000	24.581789	0.001017	20.780170
701.197785	-3.018400	3.675600	-11.094000	24.608921	0.001015	20.803125
702.196652	-3.018600	3.674400	-11.091000	24.619017	0.001015	20.785281
703.198393	-3.008800	3.677400	-11.064000	24.647046	0.001015	20.798707
704.197912	-3.007200	3.676000	-11.052000	24.652194	0.001013	20.801976
705.200723	-2.997400	3.675300	-11.014000	24.657189	0.001014	20.781384
706.200422	-3.042000	3.672500	-11.170000	24.627543	0.001013	20.806165
707.199226	-3.017400	3.674400	-11.086000	24.622269	0.001014	20.781432
708.203386	-2.952600	3.676300	-10.853000	24.635376	0.001014	20.776566
709.203331	-3.002300	3.673000	-11.027000	24.658278	0.001013	20.775839
710.201633	-3.007200	3.675200	-11.050000	24.639028	0.001014	20.793507
711.197797	-3.016200	3.674900	-11.081000	24.648207	0.001012	20.786596
712.206022	-3.023400	3.673500	-11.105000	24.637359	0.001013	20.807953
713.202477	-3.011500	3.672700	-11.059000	24.606121	0.001012	20.770919
714.205675	-3.012700	3.672000	-11.062000	24.618430	0.001014	20.788486
715.203163	-2.978800	3.672600	-10.938000	24.584704	0.001013	20.783094
716.202650	-3.002700	3.672300	-11.026000	24.598257	0.001014	20.792900
717.204183	-2.987600	3.672400	-10.970000	24.615541	0.001014	20.784164
718.205235	-2.974700	3.671600	-10.920000	24.629143	0.001010	20.778373
719.205899	-2.996000	3.671600	-10.999000	24.652671	0.001012	20.791550
720.206104	-2.991100	3.671400	-10.980000	24.675796	0.001012	20.776347
721.206439	-2.996100	3.670600	-10.995000	24.653562	0.001011	20.784383
722.206226	-3.006800	3.670400	-11.035000	24.673404	0.001011	20.796707
723.211822	-3.010200	3.670300	-11.047000	24.678876	0.001011	20.777068
724.208246	-3.002700	3.668400	-11.015000	24.705236	0.001010	20.786449
725.210915	-3.002100	3.669800	-11.016000	24.730078	0.001009	20.810430
726.211458	-3.005000	3.668300	-11.020000	24.755192	0.001011	20.792959
727.206263	-2.985600	3.670500	-10.958000	24.756634	0.001008	20.787768
728.212820	-3.014700	3.668800	-11.059000	24.745616	0.001008	20.785246
729.213273	-2.983200	3.669200	-10.944000	24.748674	0.001007	20.794479
730.206263	-3.001500	3.666900	-11.005000	24.746210	0.001009	20.785368
731.205281	-2.980600	3.667000	-10.929000	24.684932	0.001007	20.796421
732.210102	-3.002600	3.667500	-11.011000	24.718009	0.001008	20.790733
733.205258	-3.007600	3.667100	-11.029000	24.723754	0.001006	20.780376
734.207620	-3.002500	3.667000	-11.009000	24.722037	0.001006	20.784817
735.212625	-3.016900	3.665500	-11.057000	24.690651	0.001008	20.784616
736.208232	-2.985200	3.666500	-10.944000	24.668542	0.001008	20.800363
737.205896	-3.014000	3.665700	-11.047000	24.675457	0.001006	20.789758
738.209949	-2.994500	3.665400	-10.976000	24.683764	0.001006	20.784343
739.211010	-3.003700	3.664700	-11.007000	24.701269	0.001005	20.775357
740.212319	-3.000000	3.664600	-10.993000	24.687272	0.001005	20.781225
741.209810	-3.004100	3.664600	-11.007000	24.684808	0.001003	20.774011
742.212251	-2.999400	3.664300	-10.989000	24.697217	0.001001	20.788834
743.210840	-2.979600	3.665200	-10.920000	24.682718	0.001003	20.752947
744.206772	-2.987600	3.663600	-10.944000	24.650836	0.001002	20.800139
745.208070	-2.997000	3.664400	-10.982000	24.637008	0.001003	20.811869
746.208279	-3.011200	3.662800	-11.028000	24.626860	0.001002	20.778926
747.209575	-2.997800	3.664100	-10.983000	24.644144	0.000999	20.779200
748.212734	-3.012100	3.663300	-11.033000	24.665036	0.001000	20.789259
749.215303	-3.011300	3.662400	-11.026000	24.672993	0.001002	20.798191
750.212204	-3.006200	3.661300	-11.006000	24.676226	0.001001	20.792901
751.219460	-2.990200	3.662200	-10.950000	24.686351	0.001000	20.785517
752.217070	-2.987600	3.663400	-10.944000	24.708085	0.001000	20.799265
753.213758	-3.001100	3.663000	-10.992000	24.701069	0.001000	20.775156
754.210635	-3.002000	3.660600	-10.988000	24.683813	0.000999	20.780125
755.209856	-3.013500	3.660200	-11.028000	24.701022	0.000998	20.802135
756.216880	-3.002000	3.660000	-10.986000	24.687418	0.000998	20.806976
757.210696	-2.994700	3.660100	-10.960000	24.705873	0.000998	20.769071
758.218159	-3.004200	3.660800	-10.996000	24.712909	0.000999	20.785140
759.210727	-2.996900	3.659100	-10.965000	24.725394	0.000999	20.777280
760.214582	-3.017500	3.658900	-11.039000	24.730965	0.000998	20.780974
761.211288	-2.984600	3.660100	-10.923000	24.731935	0.000997	20.783844
762.218582	-3.012600	3.658800	-11.021000	24.728006	0.000997	20.782273
763.223101	-3.003700	3.659500	-10.991000	24.706719	0.000996	20.777506
764.216610	-3.001800	3.657900	-10.980000	24.730992	0.000999	20.778630
765.220055	-3.020100	3.659400	-11.049000	24.753199	0.000997	20.784795
766.215293	-2.987100	3.657200	-10.922000	24.779136	0.000998	20.778581
767.214515	-3.014900	3.657100	-11.024000	24.807009	0.000999	20.774311
768.219051	-2.998500	3.657700	-10.966000	24.814269	0.000997	20.802934
769.217928	-3.025900	3.655500	-11.059000	24.800246	0.000997	20.774162
770.217490	-2.987600	3.657200	-10.925000	24.792612	0.000999	20.796373
771.217580	-2.977800	3.656800	-10.888000	24.781991	0.000996	20.766747
772.216485	-2.996400	3.656600	-10.955000	24.775552	0.000997	20.797744
773.217835	-2.985900	3.655600	-10.913000	24.823046	0.000995	20.796570
774.217134	-2.992900	3.655100	-10.939000	24.794997	0.000997	20.796396
775.220377	-2.996700	3.655500	-10.953000	24.804892	0.000997	20.778351
776.220477	-2.991400	3.656100	-10.936000	24.815336	0.000999	20.787884
777.219662	-2.998300	3.653700	-10.954000	24.821401	0.000998	20.790652
778.221338	-3.010500	3.654700	-11.001000	24.821896	0.000998	20.796839
779.219690	-2.983200	3.654900	-10.901000	24.827368	0.000996	20.797588
780.218169	-3.004100	3.654400	-10.977000	24.850068	0.000996	20.780067
781.224054	-3.022200	3.652900	-11.039000	24.849049	0.000997	20.779992
782.215663	-3.022700	3.651600	-11.035000	24.865011	0.000996	20.777520
783.223706	-3.016500	3.652600	-11.016000	24.873911	0.000995	20.769857
784.219419	-3.005100	3.652900	-10.977000	24.898054	0.000997	20.792192
785.217422	-2.993800	3.652200	-10.932000	24.860309	0.000992	20.808363
786.220475	-2.992800	3.652100	-10.928000	24.847052	0.000996	20.795058
787.223862	-2.974100	3.653800	-10.865000	24.833375	0.000993	20.804565
788.220068	-2.980300	3.651500	-10.881000	24.820790	0.000992	20.815643
789.221991	-2.995600	3.651700	-10.938000	24.834539	0.000995	20.794828
790.219355	-3.004000	3.649900	-10.963000	24.816734	0.000993	20.778855
791.218102	-2.980800	3.651100	-10.881000	24.844807	0.000993	20.798495
792.221305	-3.002100	3.650000	-10.956000	24.865095	0.000991	20.796571
793.226122	-2.991400	3.649900	-10.917000	24.885533	0.000992	20.809971
794.229170	-2.999100	3.649700	-10.945000	24.899780	0.000993	20.820951
795.225132	-2.992300	3.650100	-10.921000	24.869867	0.000990	20.824593
796.222054	-3.031800	3.648100	-11.059000	24.890874	0.000989	20.796366
797.221637	-2.997700	3.647900	-10.934000	24.855766	0.000987	20.795269
798.230436	-3.000700	3.647400	-10.944000	24.853725	0.000990	20.803652
799.221486	-2.989500	3.647000	-10.902000	24.885302	0.000988	20.791722
800.224061	-3.020900	3.647500	-11.017000	24.865087	0.000987	20.803675
801.222577	-2.994600	3.647200	-10.920000	24.883338	0.000988	20.796389
802.223931	-2.982200	3.648700	-10.879000	24.884929	0.000986	20.790873
803.224604	-2.995600	3.647500	-10.925000	24.908773	0.000985	20.816700
804.222643	-3.011100	3.646100	-10.976000	24.942017	0.000985	20.817351
805.224862	-3.008400	3.646500	-10.969000	24.927224	0.000984	20.797287
806.227038	-3.011400	3.645500	-10.977000	24.917055	0.000983	20.815531
807.226497	-3.019400	3.645700	-11.006000	24.908152	0.000984	20.799956
808.227993	-3.003900	3.644700	-10.947000	24.907706	0.000982	20.808992
809.224879	-2.969700	3.645200	-10.824000	24.884134	0.000983	20.813783
810.232113	-2.973300	3.646200	-10.840000	24.879909	0.000983	20.803853
811.232356	-2.987200	3.644300	-10.885000	24.879138	0.000982	20.795492
812.230031	-2.972500	3.645900	-10.837000	24.842933	0.000983	20.816054
813.227247	-2.983700	3.644000	-10.871000	24.840526	0.000982	20.811742
814.227666	-2.982100	3.646400	-10.873000	24.830006	0.000983	20.811615
815.229945	-3.000000	3.643300	-10.929000	24.855145	0.000982	20.818353
816.230453	-2.999100	3.645400	-10.932000	24.889533	0.000981	20.804977
817.230628	-2.994300	3.643100	-10.907000	24.923149	0.000981	20.812638
818.231404	-3.005600	3.642900	-10.948000	24.940059	0.000982	20.816808
819.230566	-3.022700	3.642500	-11.009000	24.941425	0.000981	20.812489
820.228075	-2.993300	3.642700	-10.902000	24.926483	0.000982	20.819777
821.232774	-2.991800	3.643600	-10.899000	24.919548	0.000982	20.819454
822.227899	-2.995200	3.643600	-10.912000	24.870166	0.000981	20.821574
823.237267	-2.996300	3.643800	-10.916000	24.896824	0.000982	20.802337
824.227815	-3.026800	3.640500	-11.018000	24.862260	0.000982	20.821701
825.231211	-3.005500	3.639900	-10.938000	24.844456	0.000979	20.807151
826.229647	-2.988900	3.640600	-10.880000	24.836699	0.000980	20.803634
827.234993	-2.993700	3.641600	-10.900000	24.885486	0.000982	20.805656
828.233816	-2.990700	3.640100	-10.885000	24.895805	0.000980	20.807953
829.232475	-3.017600	3.637600	-10.975000	24.875936	0.000978	20.808874
830.231964	-2.983700	3.640200	-10.861000	24.897445	0.000977	20.816237
831.235107	-2.997100	3.639100	-10.906000	24.860944	0.000977	20.818483
832.236201	-2.995100	3.637800	-10.894000	24.856841	0.000977	20.826693
833.236094	-2.982300	3.638600	-10.850000	24.836154	0.000977	20.831062
834.235691	-2.995800	3.638000	-10.898000	24.858285	0.000976	20.830039
835.231655	-3.002600	3.637600	-10.921000	24.857788	0.000975	20.831910
836.240525	-2.986500	3.637900	-10.864000	24.863882	0.000975	20.814320
837.232098	-3.013200	3.636700	-10.956000	24.852591	0.000973	20.831436
838.235331	-2.990200	3.637000	-10.874000	24.868532	0.000973	20.823254
839.239985	-2.999300	3.635800	-10.904000	24.864330	0.000975	20.835157
840.235477	-2.985200	3.636500	-10.854000	24.852768	0.000972	20.820235
841.235637	-2.984800	3.636200	-10.852000	24.854212	0.000974	20.823581
842.237865	-2.996100	3.635400	-10.889000	24.870473	0.000974	20.812874
843.237270	-2.990800	3.636800	-10.876000	24.896956	0.000971	20.826177
844.237721	-3.011600	3.634900	-10.946000	24.907948	0.000971	20.824407
845.236407	-2.974600	3.635400	-10.813000	24.917522	0.000971	20.805568
846.235722	-3.016400	3.633700	-10.959000	24.926199	0.000972	20.817121
847.237628	-3.014100	3.632600	-10.947000	24.951810	0.000969	20.805369
848.234232	-3.001400	3.633300	-10.903000	24.976152	0.000971	20.829327
849.246058	-3.007100	3.632500	-10.921000	24.986596	0.000971	20.825111
850.238968	-3.016000	3.633300	-10.957000	24.986695	0.000970	20.818099
851.242278	-3.020000	3.632100	-10.968000	25.031944	0.000971	20.833646
852.235554	-2.998400	3.632100	-10.889000	25.051933	0.000968	20.843754
853.241753	-3.003300	3.632500	-10.909000	25.057628	0.000971	20.826238
854.243077	-3.010100	3.631600	-10.930000	25.078338	0.000971	20.834698
855.238015	-3.018300	3.630700	-10.957000	25.094544	0.000971	20.821569
856.238739	-3.008900	3.631500	-10.926000	25.084278	0.000972	20.835445
857.235123	-3.024100	3.630800	-10.978000	25.083585	0.000970	20.837594
858.239831	-2.983700	3.632000	-10.836000	25.083610	0.000969	20.820550
859.234867	-3.020500	3.630700	-10.966000	25.060366	0.000971	20.822347
860.241925	-2.997500	3.631000	-10.883000	25.017455	0.000969	20.836646
861.237488	-2.999700	3.630800	-10.890000	24.991126	0.000969	20.836296
862.244405	-2.991400	3.629500	-10.856000	24.975910	0.000965	20.825292
863.240397	-2.996200	3.629500	-10.873000	24.987124	0.000968	20.848874
864.245903	-3.002200	3.629300	-10.893000	25.008930	0.000969	20.828563
865.239758	-2.975500	3.628600	-10.796000	24.964897	0.000967	20.824669
866.241728	-2.974600	3.629200	-10.795000	24.987074	0.000967	20.839342
867.245389	-3.003800	3.627900	-10.896000	25.004427	0.000967	20.847276
868.245815	-3.008400	3.628500	-10.915000	25.024219	0.000968	20.832056
869.243926	-2.989400	3.629000	-10.847000	24.996673	0.000964	20.864148
870.240386	-3.005000	3.628000	-10.901000	25.005846	0.000965	20.821675
871.245395	-3.011900	3.626700	-10.921000	25.020267	0.000963	20.853692
872.242146	-3.009100	3.626200	-10.910000	25.025537	0.000962	20.840965
873.246015	-3.019500	3.624800	-10.943000	25.036651	0.000963	20.830311
874.246337	-2.997600	3.627000	-10.871000	25.027204	0.000964	20.844535
875.241241	-3.027100	3.625600	-10.973000	24.994288	0.000963	20.841367
876.246399	-2.997000	3.625800	-10.865000	24.992399	0.000963	20.835677
877.241209	-3.001600	3.626700	-10.884000	25.047891	0.000963	20.834007
878.244570	-2.990200	3.625800	-10.839000	25.040086	0.000960	20.854146
879.243738	-3.010800	3.625500	-10.915000	25.056866	0.000962	20.839222
880.246676	-3.014000	3.624200	-10.922000	25.058060	0.000959	20.845636
881.252220	-3.009800	3.624000	-10.906000	25.043268	0.000961	20.854022
882.246253	-3.004100	3.623600	-10.885000	25.039739	0.000960	20.839574
883.251429	-3.012800	3.623800	-10.916000	25.010702	0.000958	20.839825
884.243832	-3.013700	3.623400	-10.919000	24.999165	0.000958	20.846736
885.244836	-2.991900	3.623500	-10.840000	25.024650	0.000960	20.826800
886.249384	-3.004900	3.622200	-10.883000	25.049186	0.000957	20.859014
887.247774	-2.988500	3.623100	-10.827000	25.080238	0.000957	20.842295
888.246557	-2.984400	3.622700	-10.810000	25.098958	0.000956	20.841647
889.249227	-3.010500	3.622600	-10.905000	25.110641	0.000959	20.875184
890.244074	-2.997200	3.621200	-10.853000	25.087647	0.000955	20.848310
891.252481	-3.007900	3.622200	-10.894000	25.052394	0.000955	20.876931
892.244561	-2.997500	3.621400	-10.854000	25.057318	0.000955	20.868124
893.247049	-3.000800	3.620900	-10.865000	25.095056	0.000955	20.850057
894.250068	-2.998200	3.620300	-10.854000	25.100501	0.000954	20.849359
895.245891	-2.987700	3.621100	-10.817000	25.113501	0.000955	20.879004
896.248216	-3.026300	3.619500	-10.952000	25.058438	0.000956	20.865929
897.249674	-3.006300	3.619600	-10.880000	25.071466	0.000955	20.887540
898.250873	-3.015300	3.620000	-10.913000	25.060377	0.000953	20.865979
899.249053	-3.015400	3.620000	-10.914000	25.083798	0.000953	20.853455
900.260580	-3.007600	3.618300	-10.882000	25.086383	0.000953	20.867902
901.254249	-2.997600	3.618200	-10.845000	25.130660	0.000954	20.871573
902.253082	-3.008800	3.618100	-10.885000	25.151267	0.000954	20.859544
903.245023	-3.002700	3.618300	-10.864000	25.182365	0.000950	20.874167
904.247058	-3.014000	3.617500	-10.902000	25.198274	0.000950	20.849364
905.251050	-2.986800	3.617400	-10.803000	25.201059	0.000952	20.857374
906.253150	-2.968100	3.617600	-10.736000	25.186244	0.000948	20.859097
907.251747	-2.963500	3.617900	-10.720000	25.209537	0.000950	20.865886
908.251954	-2.969400	3.618200	-10.742000	25.211352	0.000950	20.871975
909.249753	-2.999400	3.615700	-10.844000	25.214186	0.000950	20.872449
910.248905	-3.002200	3.615100	-10.852000	25.225721	0.000950	20.878814
911.250473	-2.986100	3.616300	-10.797000	25.228878	0.000948	20.886251
912.248477	-3.012500	3.615200	-10.890000	25.224927	0.000948	20.890818
913.249163	-3.017000	3.615300	-10.905000	25.190551	0.000948	20.871955
914.248863	-3.014000	3.615900	-10.897000	25.173847	0.000947	20.829109
915.254257	-2.971000	3.614800	-10.739000	25.126915	0.000948	20.863073
916.251301	-3.003500	3.615300	-10.857000	25.086445	0.000946	20.867017
917.252158	-2.988400	3.614500	-10.801000	25.091394	0.000943	20.874829
918.249645	-3.009900	3.612600	-10.872000	25.091618	0.000944	20.867943
919.253137	-3.010500	3.613100	-10.877000	25.132985	0.000946	20.877700
920.252323	-2.990400	3.614000	-10.806000	25.116953	0.000943	20.888632
921.250746	-3.010400	3.611600	-10.872000	25.142065	0.000944	20.876858
922.254750	-2.991100	3.613300	-10.806000	25.166005	0.000942	20.872916
923.252156	-3.002200	3.611500	-10.841000	25.180871	0.000943	20.887366
924.256347	-3.013100	3.611000	-10.880000	25.203665	0.000943	20.879430
925.254422	-3.003500	3.612300	-10.848000	25.214977	0.000942	20.867080
926.254991	-2.986300	3.611100	-10.782000	25.255049	0.000942	20.871275
927.257416	-3.000000	3.612000	-10.835000	25.229921	0.000941	20.859799
928.257106	-2.998400	3.611100	-10.826000	25.222390	0.000940	20.889219
929.260617	-2.986900	3.611600	-10.786000	25.195224	0.000940	20.865741
930.258088	-3.007700	3.610800	-10.858000	25.196641	0.000941	20.881861
931.258554	-2.988000	3.610000	-10.786000	25.211981	0.000939	20.886830
932.253890	-2.993900	3.610200	-10.808000	25.199333	0.000938	20.892150
933.256848	-3.002200	3.608600	-10.833000	25.222077	0.000938	20.880371
934.257246	-3.002500	3.608800	-10.835000	25.179002	0.000937	20.896868
935.254120	-3.000000	3.608600	-10.825000	25.185688	0.000938	20.917803
936.256674	-2.994400	3.606800	-10.798000	25.146638	0.000937	20.874336
937.258238	-2.982900	3.608700	-10.763000	25.112061	0.000936	20.892730
938.258918	-2.998900	3.606500	-10.813000	25.099662	0.000935	20.895929
939.256019	-2.978200	3.607400	-10.743000	25.119497	0.000935	20.885022
940.259551	-3.021300	3.605200	-10.892000	25.076267	0.000934	20.899471
941.258757	-3.002800	3.605800	-10.827000	25.103195	0.000936	20.885727
942.254486	-2.995200	3.606400	-10.800000	25.136134	0.000935	20.878491
943.261003	-2.980700	3.607300	-10.750000	25.113888	0.000935	20.884607
944.259142	-3.002100	3.606300	-10.825000	25.109788	0.000935	20.883336
945.263106	-3.009100	3.605300	-10.849000	25.142106	0.000934	20.891597
946.259769	-2.993900	3.605500	-10.793000	25.146658	0.000934	20.894744
947.259051	-3.007200	3.604600	-10.839000	25.181112	0.000935	20.902779
948.255900	-2.977800	3.605200	-10.735000	25.216116	0.000933	20.892403
949.264495	-3.007700	3.604200	-10.839000	25.252481	0.000932	20.897144
950.260550	-3.012900	3.603200	-10.855000	25.283529	0.000934	20.884221
951.256811	-3.002900	3.603400	-10.819000	25.264864	0.000933	20.902463
952.259041	-3.002500	3.603300	-10.818000	25.249205	0.000932	20.896226
953.257471	-2.987900	3.602300	-10.762000	25.198920	0.000934	20.875141
954.258704	-3.009600	3.602600	-10.841000	25.185078	0.000929	20.904389
955.260171	-3.036000	3.601100	-10.932000	25.158680	0.000929	20.891166
956.261299	-2.983600	3.602700	-10.748000	25.169892	0.000931	20.891516
957.255639	-2.987600	3.601700	-10.759000	25.159501	0.000928	20.905266
958.256957	-2.998400	3.601800	-10.799000	25.185456	0.000929	20.896235
959.259263	-3.009900	3.601200	-10.838000	25.211882	0.000931	20.891471
960.260467	-3.025600	3.599500	-10.889000	25.215736	0.000929	20.880644
961.255740	-3.002800	3.601900	-10.814000	25.255956	0.000929	20.894944
962.265506	-3.007200	3.599900	-10.825000	25.283399	0.000926	20.887410
963.254836	-2.995000	3.600600	-10.782000	25.302514	0.000927	20.901385
964.258434	-3.042300	3.598000	-10.945000	25.338382	0.000929	20.898518
965.260121	-3.002100	3.599100	-10.801000	25.366691	0.000930	20.899916
966.258591	-3.026100	3.597400	-10.885000	25.389384	0.000926	20.894728
967.258926	-2.993500	3.597500	-10.768000	25.401192	0.000924	20.914643
968.258988	-2.997700	3.598200	-10.786000	25.416802	0.000924	20.908032
969.259375	-2.988800	3.598700	-10.754000	25.418816	0.000923	20.901995
970.255308	-3.000600	3.597200	-10.792000	25.434201	0.000923	20.901797
971.260413	-2.989800	3.597400	-10.753000	25.448594	0.000923	20.902499
972.257414	-3.027000	3.595500	-10.882000	25.441387	0.000923	20.914702
973.258486	-2.980700	3.597300	-10.722000	25.496187	0.000921	20.890550
974.260485	-2.991300	3.596200	-10.756000	25.499991	0.000922	20.908119
975.263189	-2.994100	3.596500	-10.767000	25.517735	0.000921	20.898438
976.261880	-3.018600	3.594700	-10.849000	25.477953	0.000917	20.907799
977.265278	-2.978300	3.595200	-10.706000	25.470175	0.000919	20.902834
978.262397	-2.997100	3.596200	-10.778000	25.460487	0.000918	20.914915
979.259899	-3.002000	3.594500	-10.790000	25.429674	0.000919	20.919535
980.262517	-3.006900	3.595200	-10.809000	25.377361	0.000919	20.910628
981.259506	-2.991900	3.593900	-10.752000	25.379376	0.000919	20.888946
982.263721	-3.006500	3.592800	-10.800000	25.373788	0.000919	20.888077
983.263009	-2.992800	3.594300	-10.755000	25.375553	0.000919	20.893168
984.265956	-2.991300	3.593400	-10.748000	25.370287	0.000919	20.894044
985.265890	-3.021700	3.592100	-10.853000	25.385747	0.000916	20.913359
986.264254	-2.998300	3.593300	-10.773000	25.365867	0.000917	20.910467
987.267859	-2.980400	3.593500	-10.709000	25.319492	0.000915	20.887139
988.268651	-2.979400	3.593000	-10.704000	25.311118	0.000919	20.891058
989.267397	-3.022900	3.590800	-10.854000	25.265388	0.000916	20.893508
990.265474	-2.977100	3.592400	-10.694000	25.293177	0.000916	20.909553
991.270531	-3.001300	3.590400	-10.775000	25.281126	0.000914	20.893662
992.268281	-3.018400	3.590800	-10.838000	25.299645	0.000914	20.902298
993.269256	-2.998300	3.591300	-10.767000	25.293237	0.000914	20.882115
994.267938	-3.003000	3.590400	-10.780000	25.277954	0.000913	20.895693
995.270691	-2.997000	3.589500	-10.756000	25.293140	0.000913	20.884863
996.274226	-2.995500	3.589600	-10.750000	25.320610	0.000913	20.902958
997.275406	-2.997500	3.588500	-10.754000	25.341512	0.000913	20.874635
998.283578	-3.015200	3.587800	-10.817000	25.328045	0.000911	20.884820
999.270797	-2.951600	3.591000	-10.598000	25.374501	0.000911	20.875043
1000.275161	-2.986600	3.589200	-10.719000	25.384195	0.000909	20.877190
1001.269869	-2.996900	3.587700	-10.751000	25.368614	0.000909	20.880986
1002.273417	-3.007200	3.587600	-10.788000	25.395508	0.000908	20.878119
1003.274414	-2.970300	3.589600	-10.660000	25.411168	0.000908	20.890049
1004.272983	-2.981400	3.587400	-10.693000	25.385026	0.000908	20.874706
1005.269358	-2.988700	3.587500	-10.720000	25.391615	0.000905	20.887485
1006.274253	-2.993900	3.587300	-10.739000	25.410228	0.000906	20.877252
1007.274695	-2.986100	3.587300	-10.710000	25.436352	0.000907	20.872665
1008.276843	-2.979600	3.586500	-10.685000	25.459094	0.000905	20.864682
1009.269004	-2.998500	3.585900	-10.751000	25.447594	0.000906	20.875893
1010.272175	-2.979800	3.586200	-10.685000	25.452093	0.000906	20.856230
1011.270483	-2.985900	3.585600	-10.705000	25.435048	0.000905	20.850019
1012.273202	-3.019900	3.584000	-10.822000	25.432316	0.000906	20.874302
1013.269866	-3.006900	3.584000	-10.775000	25.418452	0.000905	20.867493
1014.272306	-2.995800	3.584700	-10.738000	25.433565	0.000907	20.852798
1015.272412	-2.997400	3.584500	-10.743000	25.444279	0.000906	20.831789
1016.273495	-2.999800	3.582800	-10.747000	25.439061	0.000903	20.867325
1017.275396	-3.003300	3.582100	-10.757000	25.412472	0.000903	20.856747
1018.274318	-3.014400	3.583000	-10.800000	25.376090	0.000903	20.830648
1019.274778	-3.001900	3.582900	-10.755000	25.346046	0.000901	20.843154
1020.276470	-3.018400	3.582900	-10.814000	25.351043	0.000901	20.861447
1021.271787	-2.993500	3.583600	-10.726000	25.360638	0.000900	20.827461
1022.268258	-2.989300	3.582200	-10.707000	25.379107	0.000901	20.862599
1023.274185	-3.006000	3.580100	-10.760000	25.399162	0.000900	20.871357
1024.276754	-2.987300	3.580200	-10.694000	25.400658	0.000898	20.829713
1025.274567	-3.023200	3.579500	-10.821000	25.418333	0.000897	20.845563
1026.272133	-2.997900	3.579900	-10.731000	25.434887	0.000896	20.844642
1027.279901	-2.984800	3.582000	-10.690000	25.434192	0.000898	20.855798
1028.275895	-2.974400	3.580000	-10.648000	25.449601	0.000897	20.863211
1029.272768	-2.979900	3.578900	-10.663000	25.455396	0.000898	20.853857
1030.275732	-3.006500	3.579700	-10.761000	25.496848	0.000895	20.849491
1031.272933	-3.011900	3.578800	-10.777000	25.500258	0.000896	20.838691
1032.273934	-2.988800	3.578000	-10.692000	25.507170	0.000895	20.818606
1033.276215	-3.019200	3.576500	-10.797000	25.493776	0.000894	20.842139
1034.278784	-2.995500	3.577800	-10.716000	25.484240	0.000892	20.824976
1035.274358	-3.009900	3.577400	-10.765000	25.473481	0.000892	20.845466
1036.278229	-3.020800	3.576700	-10.802000	25.447190	0.000891	20.842299
1037.276183	-2.992200	3.577600	-10.704000	25.445900	0.000894	20.821563
1038.275779	-3.010100	3.575600	-10.762000	25.456115	0.000892	20.837510
1039.278557	-3.001700	3.576700	-10.733000	25.470755	0.000891	20.843203
1040.282898	-2.992300	3.575800	-10.697000	25.490589	0.000892	20.818550
1041.279634	-2.971400	3.577200	-10.628000	25.470239	0.000892	20.841736
1042.273983	-2.954600	3.577100	-10.567000	25.449466	0.000892	20.821825
1043.281499	-2.988700	3.575400	-10.685000	25.435402	0.000892	20.847531
1044.276324	-2.984300	3.574500	-10.667000	25.434880	0.000890	20.821403
1045.288447	-2.997900	3.576200	-10.720000	25.449845	0.000887	20.835482
1046.286259	-2.990400	3.573400	-10.685000	25.469632	0.000888	20.815049
1047.282110	-3.013300	3.573200	-10.766000	25.465435	0.000887	20.836438
1048.278890	-2.979600	3.573700	-10.647000	25.494957	0.000887	20.829574
1049.285931	-2.985700	3.574100	-10.670000	25.469514	0.000885	20.825836
1050.280329	-2.979200	3.573800	-10.646000	25.463925	0.000887	20.832551
1051.283767	-3.001400	3.573200	-10.722000	25.414746	0.000886	20.823945
1052.288476	-2.997800	3.573300	-10.711000	25.424218	0.000886	20.822076
1053.281516	-2.994400	3.571500	-10.693000	25.422431	0.000884	20.815066
1054.284765	-2.996400	3.571400	-10.700000	25.422508	0.000883	20.797600
1055.293211	-3.008100	3.571700	-10.742000	25.446169	0.000882	20.835584
1056.290049	-3.003600	3.569400	-10.720000	25.433923	0.000882	20.808114
1057.283914	-2.993700	3.570500	-10.688000	25.408526	0.000883	20.812957
1058.287059	-3.002300	3.569100	-10.714000	25.443520	0.000881	20.803053
1059.286193	-2.997100	3.570100	-10.699000	25.444890	0.000883	20.821024
1060.286565	-3.001600	3.568400	-10.710000	25.452075	0.000882	20.801211
1061.287858	-3.008000	3.568200	-10.731000	25.475439	0.000883	20.831786
1062.283975	-3.017000	3.568500	-10.765000	25.483790	0.000881	20.814094
1063.286483	-3.004800	3.569300	-10.724000	25.511255	0.000881	20.817493
1064.292229	-2.981700	3.570200	-10.644000	25.517668	0.000881	20.817768
1065.287537	-2.990600	3.567800	-10.668000	25.551264	0.000883	20.796980
1066.289889	-3.003600	3.567400	-10.714000	25.536208	0.000879	20.805567
1067.292504	-3.017500	3.566700	-10.762000	25.522392	0.000879	20.830099
1068.292842	-3.013000	3.566200	-10.744000	25.507067	0.000879	20.801907
1069.293701	-3.022200	3.566000	-10.776000	25.494219	0.000879	20.801333
1070.289390	-3.013200	3.566300	-10.744000	25.469170	0.000876	20.797990
1071.293377	-3.014800	3.565800	-10.749000	25.464078	0.000877	20.808997
1072.290988	-2.982900	3.565700	-10.635000	25.459433	0.000877	20.801962
1073.289524	-2.996200	3.564900	-10.680000	25.462167	0.000878	20.802811
1074.291118	-3.029600	3.563700	-10.796000	25.462892	0.000876	20.829617
1075.292325	-3.013000	3.564700	-10.740000	25.464234	0.000877	20.778335
1076.292450	-2.981700	3.565900	-10.630000	25.478400	0.000876	20.792085
1077.293254	-2.992100	3.563900	-10.662000	25.478578	0.000874	20.817394
1078.292794	-2.991400	3.563600	-10.659000	25.502362	0.000874	20.805243
1079.291935	-2.993600	3.562500	-10.664000	25.547766	0.000873	20.795363
1080.291198	-2.981800	3.563800	-10.626000	25.528111	0.000873	20.825885
1081.292086	-3.009900	3.562100	-10.719000	25.518474	0.000873	20.802457
1082.293482	-2.996800	3.563100	-10.676000	25.509308	0.000871	20.811744
1083.293840	-2.984200	3.564300	-10.636000	25.519572	0.000869	20.802611
1084.290290	-2.994500	3.562600	-10.667000	25.520544	0.000869	20.796949
1085.291416	-2.995700	3.560300	-10.665000	25.500340	0.000870	20.818859
1086.298012	-2.993900	3.562300	-10.664000	25.542414	0.000868	20.788092
1087.291747	-2.981600	3.561900	-10.619000	25.521195	0.000868	20.827474
1088.292420	-2.984200	3.561400	-10.627000	25.550548	0.000869	20.805269
1089.296397	-3.000700	3.560800	-10.684000	25.531862	0.000866	20.794091
1090.296484	-3.002100	3.559500	-10.685000	25.488847	0.000865	20.792619
1091.295031	-2.991300	3.559700	-10.647000	25.428312	0.000868	20.782565
1092.292834	-2.983000	3.560200	-10.619000	25.454233	0.000865	20.800060
1093.293853	-2.988300	3.560000	-10.637000	25.453341	0.000865	20.799638
1094.295879	-3.014200	3.557900	-10.722000	25.494201	0.000865	20.794676
1095.295159	-2.997200	3.558700	-10.665000	25.494846	0.000865	20.801962
1096.295499	-2.982000	3.558700	-10.610000	25.520493	0.000864	20.775561
1097.303105	-3.004600	3.557400	-10.688000	25.501335	0.000865	20.787616
1098.297347	-2.996200	3.558300	-10.660000	25.518037	0.000864	20.780681
1099.302714	-3.004000	3.557100	-10.684000	25.559835	0.000864	20.795156
1100.298182	-2.977000	3.556300	-10.586000	25.573752	0.000862	20.781632
1101.299705	-2.971000	3.559200	-10.574000	25.561650	0.000861	20.782280
1102.295337	-3.013400	3.556100	-10.715000	25.534691	0.000862	20.804044
1103.294051	-3.009500	3.556700	-10.703000	25.558348	0.000860	20.787498
1104.300490	-3.001000	3.554700	-10.667000	25.536805	0.000859	20.779140
1105.299032	-3.002000	3.555800	-10.674000	25.569786	0.000861	20.795667
1106.298494	-3.008600	3.553900	-10.691000	25.582975	0.000860	20.794214
1107.298479	-2.989300	3.555600	-10.628000	25.614684	0.000860	20.790498
1108.298298	-2.992700	3.554900	-10.638000	25.627881	0.000855	20.790476
1109.301061	-3.021700	3.552000	-10.732000	25.673227	0.000858	20.805200
1110.297643	-2.994000	3.555200	-10.642000	25.650866	0.000857	20.795069
1111.294873	-2.984700	3.553600	-10.605000	25.622741	0.000857	20.791951
1112.301628	-2.997300	3.554300	-10.653000	25.588573	0.000858	20.782292
1113.305690	-2.982500	3.553500	-10.597000	25.559007	0.000857	20.789109
1114.298078	-3.013200	3.551000	-10.699000	25.556372	0.000857	20.795946
1115.300632	-3.002100	3.552100	-10.663000	25.579161	0.000856	20.804608
1116.298628	-3.009900	3.551100	-10.688000	25.579608	0.000855	20.784668
1117.299912	-3.016700	3.551100	-10.712000	25.581500	0.000854	20.783249
1118.300979	-2.984900	3.552700	-10.603000	25.577522	0.000854	20.760762
1119.300515	-3.012000	3.550200	-10.692000	25.589551	0.000854	20.776161
1120.297689	-2.989700	3.550900	-10.615000	25.619423	0.000853	20.779136
1121.301037	-3.005100	3.549200	-10.665000	25.600514	0.000850	20.791914
1122.300512	-2.996700	3.549800	-10.636000	25.599792	0.000851	20.767955
1123.301489	-2.976200	3.550100	-10.565000	25.633312	0.000851	20.772696
1124.298468	-3.008900	3.548100	-10.676000	25.619324	0.000847	20.769080
1125.304371	-2.981600	3.549300	-10.581000	25.645216	0.000850	20.788920
1126.301282	-3.003500	3.547000	-10.652000	25.684699	0.000851	20.790643
1127.302212	-3.013600	3.546500	-10.686000	25.691931	0.000846	20.759026
1128.304282	-3.006300	3.546500	-10.660000	25.672477	0.000848	20.788799
1129.302253	-3.017800	3.546900	-10.703000	25.663310	0.000847	20.766789
1130.304311	-2.998100	3.547200	-10.634000	25.637119	0.000846	20.767037
1131.304236	-3.011200	3.546500	-10.678000	25.610434	0.000844	20.778643
1132.302670	-3.001300	3.546700	-10.644000	25.582703	0.000844	20.757904
1133.301557	-3.003300	3.546300	-10.650000	25.581907	0.000844	20.767536
1134.302433	-2.991500	3.547000	-10.610000	25.581731	0.000842	20.773998
1135.301459	-3.005900	3.544800	-10.654000	25.597740	0.000843	20.776325
1136.304603	-3.014900	3.544900	-10.686000	25.609314	0.000842	20.777993
1137.303824	-2.995500	3.545300	-10.619000	25.606161	0.000843	20.782412
1138.305741	-3.018000	3.544600	-10.696000	25.610956	0.000840	20.757356
1139.305636	-2.999500	3.545000	-10.632000	25.608268	0.000840	20.780261
1140.302223	-3.000100	3.542500	-10.626000	25.618806	0.000840	20.769507
1141.304022	-2.989700	3.543800	-10.593000	25.663131	0.000840	20.772774
1142.307287	-3.020900	3.542100	-10.698000	25.652541	0.000839	20.757396
1143.306531	-3.005800	3.542800	-10.647000	25.633759	0.000837	20.771723
1144.307208	-2.989700	3.541700	-10.586000	25.610527	0.000839	20.768779
1145.311644	-3.020400	3.542300	-10.697000	25.622873	0.000838	20.770273
1146.305758	-3.009400	3.541600	-10.658000	25.615992	0.000837	20.792286
1147.307483	-3.006200	3.541100	-10.645000	25.660045	0.000838	20.771097
1148.308555	-2.998300	3.541100	-10.616000	25.681786	0.000835	20.756897
1149.306197	-2.980900	3.540500	-10.553000	25.658404	0.000835	20.760914
1150.308731	-2.992300	3.540100	-10.592000	25.666655	0.000834	20.781055
1151.303131	-3.002400	3.539500	-10.626000	25.655645	0.000835	20.767152
1152.310330	-3.000600	3.540200	-10.621000	25.663150	0.000834	20.765680
1153.310886	-3.016200	3.539500	-10.675000	25.702456	0.000832	20.770546
1154.306751	-2.997300	3.538900	-10.606000	25.725812	0.000831	20.770298
1155.306439	-3.016700	3.538700	-10.673000	25.692320	0.000830	20.779806
1156.302917	-2.998000	3.539700	-10.611000	25.690978	0.000833	20.774190
1157.306597	-3.009000	3.536600	-10.640000	25.697090	0.000831	20.776536
1158.306808	-2.992400	3.538500	-10.587000	25.706482	0.000830	20.773168
1159.306117	-3.001100	3.536600	-10.612000	25.723896	0.000829	20.764580
1160.309639	-3.006500	3.537900	-10.636000	25.749538	0.000829	20.741497
1161.303434	-3.001900	3.537100	-10.617000	25.764122	0.000830	20.766105
1162.303174	-3.004500	3.536000	-10.623000	25.764847	0.000827	20.768255
1163.310269	-3.009500	3.535800	-10.640000	25.758165	0.000826	20.764388
1164.302083	-2.998100	3.534900	-10.597000	25.716747	0.000827	20.758347
1165.305626	-3.009700	3.535800	-10.640000	25.719185	0.000827	20.768857
1166.310892	-2.986800	3.535800	-10.558000	25.730711	0.000826	20.774745
1167.305362	-3.012100	3.534900	-10.645000	25.732331	0.000824	20.760724
1168.307910	-2.997000	3.534000	-10.591000	25.724923	0.000824	20.759922
1169.308386	-2.984800	3.535800	-10.552000	25.699234	0.000822	20.750240
1170.308127	-3.003200	3.532900	-10.609000	25.677025	0.000822	20.756382
1171.304236	-3.002500	3.533600	-10.608000	25.661076	0.000824	20.759804
1172.306643	-3.009700	3.532700	-10.630000	25.627282	0.000822	20.778495
1173.310761	-2.999600	3.534300	-10.601000	25.607531	0.000822	20.765770
1174.308002	-2.999100	3.533700	-10.597000	25.596348	0.000822	20.756909
1175.309309	-3.016000	3.531500	-10.650000	25.614764	0.000822	20.740790
1176.310752	-2.994400	3.532400	-10.577000	25.608379	0.000820	20.746707
1177.312368	-2.993500	3.530100	-10.566000	25.600304	0.000821	20.758511
1178.309699	-3.001000	3.530900	-10.594000	25.603933	0.000821	20.749827
1179.311630	-3.013900	3.530900	-10.641000	25.578892	0.000820	20.737006
1180.308853	-3.021100	3.529700	-10.663000	25.604809	0.000820	20.760191
1181.310140	-3.004300	3.529800	-10.604000	25.607990	0.000818	20.744893
1182.314046	-3.001000	3.531900	-10.598000	25.621012	0.000819	20.757024
1183.311352	-3.023500	3.529600	-10.670000	25.639526	0.000816	20.752858
1184.308958	-3.022900	3.528600	-10.665000	25.627948	0.000818	20.760197
1185.312908	-2.996700	3.529600	-10.576000	25.642111	0.000817	20.753084
1186.315040	-3.004100	3.528900	-10.599000	25.661473	0.000816	20.752142
1187.318503	-3.027200	3.527200	-10.676000	25.670094	0.000816	20.750844
1188.318697	-3.010700	3.528700	-10.622000	25.702717	0.000816	20.744729
1189.321058	-3.009800	3.527200	-10.615000	25.673849	0.000814	20.763625
1190.317315	-3.018600	3.527100	-10.645000	25.689656	0.000813	20.750103
1191.309159	-3.005000	3.526400	-10.595000	25.712294	0.000813	20.729692
1192.314162	-2.996200	3.525700	-10.562000	25.734259	0.000814	20.758867
1193.320751	-2.991100	3.525400	-10.544000	25.694482	0.000812	20.763011
1194.312487	-3.015600	3.524300	-10.627000	25.667376	0.000814	20.753329
1195.317799	-2.990200	3.524900	-10.540000	25.681119	0.000811	20.759546
1196.330700	-2.995500	3.524900	-10.558000	25.659008	0.000810	20.753933
1197.310946	-2.983100	3.524300	-10.512000	25.609761	0.000811	20.741930
1198.313900	-2.981400	3.524700	-10.508000	25.585387	0.000809	20.746375
1199.312142	-2.999700	3.523900	-10.569000	25.585412	0.000808	20.764418
1200.323079	-2.983900	3.523700	-10.513000	25.581736	0.000809	20.755511
1201.316178	-2.973900	3.523800	-10.479000	25.575873	0.000808	20.759106
1202.313075	-3.006200	3.521700	-10.586000	25.622641	0.000808	20.734951
1203.317388	-2.979900	3.522500	-10.496000	25.644456	0.000806	20.734102
1204.317273	-2.979600	3.522400	-10.494000	25.664216	0.000808	20.749681
1205.315057	-2.993900	3.521800	-10.543000	25.657107	0.000805	20.731635
1206.318243	-2.992900	3.520500	-10.535000	25.594521	0.000803	20.759341
1207.327629	-2.984500	3.522000	-10.510000	25.584162	0.000804	20.735187
1208.312505	-3.004700	3.519300	-10.574000	25.574494	0.000806	20.754401
1209.316277	-2.990600	3.520700	-10.528000	25.571168	0.000804	20.742525
1210.312090	-3.017500	3.518900	-10.617000	25.615272	0.000802	20.748888
1211.314612	-3.041200	3.519400	-10.702000	25.651183	0.000802	20.745600
1212.315029	-2.992200	3.520100	-10.532000	25.675981	0.000800	20.730677
1213.321234	-2.981700	3.519700	-10.494000	25.694346	0.000802	20.756236
1214.316738	-2.982000	3.517900	-10.488000	25.700011	0.000803	20.753391
1215.321199	-2.992200	3.517600	-10.523000	25.724216	0.000801	20.747831
1216.327855	-2.975600	3.519000	-10.470000	25.755890	0.000800	20.725592
1217.316786	-2.989500	3.517600	-10.515000	25.726203	0.000801	20.725644
1218.323475	-2.985200	3.518000	-10.501000	25.755449	0.000799	20.739374
1219.328587	-2.988800	3.517100	-10.510000	25.795548	0.000797	20.741246
1220.327641	-2.991200	3.516600	-10.518000	25.787354	0.000797	20.745343
1221.323076	-3.012100	3.515800	-10.589000	25.800423	0.000796	20.740452
1222.328344	-2.978000	3.516700	-10.472000	25.789992	0.000796	20.757476
1223.319233	-2.989700	3.515800	-10.510000	25.799732	0.000795	20.732646
1224.321985	-2.992400	3.514500	-10.515000	25.785898	0.000796	20.753838
1225.315498	-2.961300	3.517400	-10.414000	25.765180	0.000794	20.735398
1226.320967	-2.998700	3.514600	-10.538000	25.717651	0.000793	20.745979
1227.321445	-2.981500	3.513700	-10.475000	25.708910	0.000793	20.750950
1228.323116	-3.005300	3.512800	-10.556000	25.752244	0.000795	20.738051
1229.319633	-3.005200	3.513200	-10.557000	25.769164	0.000793	20.747460
1230.320261	-2.989500	3.512900	-10.501000	25.780795	0.000791	20.745393
1231.324831	-2.981400	3.511900	-10.470000	25.840718	0.000791	20.738256
1232.321463	-3.022700	3.513200	-10.618000	25.819705	0.000791	20.746072
1233.321038	-3.006800	3.511600	-10.557000	25.816179	0.000790	20.718821
1234.324642	-2.994700	3.511000	-10.513000	25.817549	0.000790	20.753389
1235.324725	-3.016300	3.511600	-10.591000	25.809599	0.000789	20.732600
1236.321954	-2.994200	3.511600	-10.512000	25.787889	0.000788	20.737819
1237.337893	-2.998900	3.510300	-10.525000	25.799745	0.000787	20.751626
1238.335741	-2.992000	3.510500	-10.501000	25.761510	0.000787	20.753049
1239.325906	-2.957500	3.511100	-10.383000	25.709612	0.000789	20.770147
1240.329818	-2.987700	3.509100	-10.483000	25.666850	0.000787	20.727195
1241.324357	-2.991400	3.509100	-10.496000	25.635201	0.000786	20.744248
1242.328533	-2.996700	3.507800	-10.511000	25.598701	0.000785	20.738409
1243.332849	-2.997400	3.508500	-10.516000	25.583371	0.000785	20.731073
1244.329786	-2.983300	3.508500	-10.466000	25.566649	0.000783	20.728030
1245.332155	-2.994000	3.506800	-10.498000	25.572046	0.000784	20.716380
1246.328798	-2.996300	3.507600	-10.509000	25.548961	0.000783	20.750570
1247.338933	-3.010500	3.505700	-10.553000	25.582585	0.000782	20.764898
1248.328702	-3.008400	3.505300	-10.544000	25.596255	0.000783	20.743064
1249.327290	-3.008800	3.505800	-10.546000	25.615488	0.000781	20.743415
1250.331245	-2.996400	3.507200	-10.508000	25.659470	0.000783	20.757243
1251.327929	-2.994600	3.504700	-10.493000	25.686429	0.000782	20.755396
1252.337518	-2.997000	3.505200	-10.504000	25.706083	0.000781	20.754274
1253.336314	-2.981500	3.505000	-10.449000	25.731056	0.000780	20.732416
1254.331758	-3.014700	3.504300	-10.562000	25.753268	0.000780	20.761365
1255.333962	-3.005600	3.503600	-10.529000	25.722711	0.000780	20.749164
1256.339086	-3.026600	3.503400	-10.602000	25.697142	0.000779	20.746716
1257.340947	-2.993800	3.503100	-10.484000	25.664793	0.000778	20.749313
1258.332067	-2.993900	3.502100	-10.483000	25.614550	0.000778	20.759069
1259.336061	-3.009400	3.502400	-10.539000	25.594919	0.000779	20.755000
1260.330670	-2.999800	3.501900	-10.503000	25.626331	0.000777	20.750512
1261.331103	-2.999900	3.502600	-10.506000	25.659230	0.000777	20.753683
1262.334283	-2.972600	3.501500	-10.407000	25.698388	0.000776	20.758874
1263.333330	-3.007700	3.500600	-10.527000	25.739458	0.000778	20.770728
1264.333321	-2.980000	3.502000	-10.435000	25.784228	0.000776	20.749316
1265.334701	-2.990400	3.500800	-10.468000	25.797097	0.000777	20.766036
1266.334187	-2.959500	3.500800	-10.360000	25.791256	0.000775	20.779136
1267.335522	-2.992000	3.499300	-10.469000	25.824048	0.000778	20.753280
1268.334740	-3.000300	3.498700	-10.496000	25.851875	0.000774	20.785027
1269.332872	-2.995100	3.497600	-10.475000	25.852048	0.000775	20.752957
1270.333634	-2.988000	3.497700	-10.450000	25.849040	0.000774	20.799723
1271.333924	-3.015500	3.497700	-10.545000	25.835306	0.000774	20.767908
1272.334313	-2.974500	3.500100	-10.409000	25.851051	0.000773	20.760491
1273.337681	-2.995200	3.496500	-10.472000	25.889435	0.000774	20.778187
1274.334855	-3.007300	3.497000	-10.515000	25.902379	0.000772	20.751361
1275.334850	-3.022000	3.494900	-10.560000	25.918994	0.000773	20.764260
1276.335706	-2.996300	3.495400	-10.472000	25.901956	0.000770	20.782232
1277.337950	-3.012600	3.494800	-10.527000	25.883897	0.000771	20.771202
1278.338796	-2.997500	3.494800	-10.473000	25.861908	0.000770	20.771397
1279.339237	-3.006700	3.496100	-10.510000	25.820000	0.000768	20.788569
1280.337541	-3.009500	3.493800	-10.514000	25.780699	0.000768	20.771850
1281.339128	-3.019500	3.493200	-10.546000	25.763607	0.000766	20.770328
1282.338118	-3.023000	3.492900	-10.559000	25.752376	0.000767	20.763789
1283.337942	-3.007800	3.492600	-10.504000	25.793120	0.000767	20.760618
1284.338513	-3.027400	3.491800	-10.570000	25.793990	0.000766	20.767182
1285.341070	-3.002600	3.492500	-10.486000	25.802486	0.000765	20.766708
1286.335629	-3.004300	3.491600	-10.489000	25.805346	0.000766	20.759150
1287.342016	-2.999700	3.492100	-10.474000	25.814463	0.000765	20.776368
1288.337873	-3.004000	3.490100	-10.483000	25.836996	0.000764	20.772925
1289.340189	-3.036300	3.489100	-10.592000	25.851928	0.000763	20.773226
1290.337173	-2.994300	3.491000	-10.452000	25.851604	0.000765	20.777642
1291.339138	-2.990500	3.491200	-10.439000	25.898754	0.000765	20.760997
1292.337692	-3.003600	3.489900	-10.481000	25.915277	0.000763	20.775225
1293.342483	-2.997900	3.489900	-10.462000	25.896866	0.000762	20.781860
1294.345549	-3.002200	3.489100	-10.474000	25.889416	0.000762	20.771531
1295.343226	-3.003000	3.488200	-10.474000	25.916890	0.000762	20.770207
1296.340522	-3.003300	3.488000	-10.474000	25.944786	0.000762	20.760300
1297.341777	-2.998600	3.487400	-10.457000	25.967937	0.000760	20.781662
1298.346093	-2.960100	3.489600	-10.329000	25.976978	0.000759	20.791219
1299.340397	-2.994600	3.486200	-10.439000	25.962122	0.000759	20.773923
1300.339159	-3.006300	3.486500	-10.481000	25.972110	0.000759	20.794864
1301.346272	-3.002300	3.486100	-10.465000	25.935198	0.000758	20.799032
1302.340758	-3.009900	3.485900	-10.490000	25.911350	0.000757	20.792617
1303.338268	-3.020100	3.484900	-10.522000	25.909986	0.000757	20.804524
1304.339726	-3.008000	3.484400	-10.480000	25.932367	0.000756	20.780066
1305.341068	-3.014700	3.484700	-10.504000	25.916989	0.000758	20.788799
1306.342399	-2.985500	3.485800	-10.406000	25.865542	0.000755	20.788799
1307.341591	-2.985800	3.484200	-10.401000	25.853523	0.000755	20.775777
1308.342785	-2.984000	3.484900	-10.398000	25.915277	0.000754	20.791346
1309.343041	-3.013300	3.483800	-10.497000	25.918757	0.000753	20.801955
1310.344827	-2.994800	3.483100	-10.430000	25.906735	0.000753	20.781817
1311.345273	-2.990600	3.483200	-10.415000	25.906760	0.000753	20.795592
1312.345510	-2.998700	3.481500	-10.439000	25.934881	0.000752	20.805825
1313.342766	-3.013900	3.481200	-10.491000	25.904329	0.000752	20.782719
1314.344538	-3.015100	3.480600	-10.494000	25.913744	0.000751	20.796919
1315.347070	-3.004900	3.479600	-10.455000	25.910243	0.000751	20.790557
1316.344542	-3.008800	3.480300	-10.471000	25.908602	0.000749	20.802184
1317.347341	-3.023700	3.481300	-10.525000	25.904752	0.000749	20.805429
1318.344468	-3.011700	3.480400	-10.479000	25.922440	0.000749	20.792853
1319.347784	-2.985100	3.480300	-10.387000	25.902297	0.000750	20.806756
1320.344495	-3.005600	3.479100	-10.456000	25.879144	0.000748	20.799618
1321.346966	-2.990400	3.478800	-10.402000	25.878848	0.000747	20.808330
1322.347039	-3.001600	3.477600	-10.437000	25.886224	0.000749	20.777807
1323.344343	-2.992600	3.478400	-10.408000	25.903367	0.000746	20.792184
1324.347274	-3.021000	3.475900	-10.500000	25.896312	0.000744	20.802640
1325.347579	-3.007000	3.476900	-10.454000	25.903620	0.000745	20.803344
1326.348862	-3.013100	3.475400	-10.470000	25.887795	0.000745	20.795506
1327.349360	-3.006600	3.476000	-10.450000	25.895498	0.000743	20.800874
1328.348298	-3.010200	3.476200	-10.463000	25.896991	0.000743	20.794314
1329.347687	-3.017700	3.474800	-10.485000	25.890605	0.000740	20.812554
1330.348578	-2.983700	3.477400	-10.375000	25.874515	0.000740	20.792123
1331.348564	-2.999500	3.474600	-10.421000	25.899358	0.000741	20.807122
1332.349547	-2.995000	3.476400	-10.410000	25.904000	0.000741	20.803726
1333.349040	-3.012900	3.474700	-10.467000	25.909889	0.000739	20.819125
1334.355464	-3.026100	3.472600	-10.507000	25.914063	0.000739	20.792972
1335.350777	-2.997900	3.472800	-10.410000	25.954209	0.000741	20.808173
1336.350898	-3.008400	3.472600	-10.447000	25.998470	0.000740	20.818502
1337.350225	-3.010800	3.471800	-10.451000	26.010420	0.000737	20.816757
1338.350973	-2.988300	3.472900	-10.377000	26.010670	0.000737	20.793301
1339.350733	-3.001900	3.471200	-10.419000	25.997829	0.000738	20.814064
1340.351698	-3.001100	3.471100	-10.416000	26.004263	0.000737	20.809150
1341.350470	-3.010600	3.469800	-10.444000	25.985734	0.000736	20.798120
1342.352293	-3.006800	3.470600	-10.433000	25.987745	0.000735	20.823374
1343.361067	-3.001100	3.471400	-10.416000	25.969765	0.000735	20.823328
1344.353773	-2.987700	3.469700	-10.365000	25.958808	0.000735	20.794776
1345.354798	-2.988200	3.469600	-10.367000	25.926517	0.000734	20.834406
1346.355900	-2.995500	3.468100	-10.387000	25.899368	0.000736	20.818512
1347.354866	-3.008900	3.468700	-10.435000	25.926419	0.000734	20.806333
1348.357552	-3.009100	3.468800	-10.436000	25.938591	0.000734	20.836105
1349.354159	-2.993000	3.467200	-10.377000	25.970466	0.000734	20.819290
1350.356898	-2.998500	3.468200	-10.399000	25.987801	0.000733	20.822482
1351.357555	-3.013300	3.465000	-10.439000	26.013906	0.000733	20.828320
1352.357355	-3.021000	3.466100	-10.471000	26.006982	0.000730	20.830372
1353.358173	-3.002600	3.466200	-10.407000	26.003203	0.000731	20.844119
1354.358654	-3.021700	3.464700	-10.466000	25.991781	0.000731	20.810833
1355.358643	-2.999800	3.465900	-10.396000	26.005689	0.000730	20.795883
1356.356135	-2.993400	3.466300	-10.374000	26.043268	0.000730	20.817043
1357.356952	-3.004400	3.464900	-10.409000	26.051716	0.000730	20.812730
1358.358416	-3.015100	3.463500	-10.442000	26.041806	0.000730	20.819842
1359.357884	-2.998200	3.463500	-10.384000	26.027972	0.000727	20.826331
1360.358938	-3.008700	3.462700	-10.417000	26.031029	0.000728	20.850739
1361.365566	-3.005900	3.463700	-10.411000	26.017414	0.000728	20.825680
1362.362022	-3.012900	3.462000	-10.428000	25.983413	0.000726	20.819495
1363.359100	-2.995500	3.462000	-10.369000	25.918535	0.000729	20.850094
1364.364505	-2.998600	3.461400	-10.378000	25.887007	0.000726	20.844500
1365.358580	-2.984100	3.462900	-10.332000	25.885003	0.000727	20.845332
1366.360800	-2.977000	3.463000	-10.308000	25.893347	0.000728	20.824792
1367.363354	-3.003900	3.460700	-10.393000	25.866965	0.000726	20.840014
1368.363153	-2.993000	3.460800	-10.357000	25.889649	0.000725	20.818231
1369.360773	-3.012400	3.458900	-10.419000	25.952471	0.000726	20.826341
1370.360274	-3.013800	3.459900	-10.426000	25.965738	0.000724	20.831136
1371.362867	-2.973500	3.460100	-10.287000	25.989188	0.000724	20.832884
1372.365039	-3.003600	3.460100	-10.392000	25.997806	0.000723	20.843913
1373.361490	-3.014100	3.457500	-10.420000	25.977417	0.000721	20.828170
1374.367077	-3.015500	3.457400	-10.425000	26.017011	0.000724	20.864629
1375.364954	-3.003300	3.457900	-10.384000	26.020170	0.000722	20.839829
1376.362071	-2.995000	3.456700	-10.352000	25.984179	0.000721	20.851558
1377.363983	-2.992800	3.456700	-10.344000	25.978868	0.000721	20.845748
1378.365775	-2.960300	3.457700	-10.233000	25.995309	0.000720	20.833817
1379.365579	-3.004700	3.456200	-10.384000	25.969999	0.000721	20.838261
1380.364899	-2.998100	3.455900	-10.360000	25.979146	0.000718	20.857881
1381.364237	-3.004300	3.454300	-10.377000	25.990226	0.000718	20.837720
1382.365960	-3.000900	3.454600	-10.366000	26.021226	0.000718	20.847528
1383.372635	-2.972200	3.456800	-10.272000	26.013629	0.000716	20.849852
1384.368526	-3.008200	3.454700	-10.390000	26.007469	0.000716	20.841767
1385.367115	-3.005200	3.453700	-10.378000	26.016587	0.000717	20.852350
1386.369216	-3.030000	3.451900	-10.458000	26.014724	0.000715	20.840522
1387.367475	-3.003400	3.452800	-10.369000	25.995449	0.000716	20.866199
1388.370286	-2.988300	3.451700	-10.314000	25.978490	0.000714	20.836360
1389.366681	-3.019700	3.451100	-10.420000	25.965924	0.000716	20.844598
1390.369667	-2.994700	3.452600	-10.338000	25.947866	0.000716	20.839732
1391.380078	-3.021900	3.450600	-10.427000	25.963641	0.000713	20.848468
1392.370134	-2.981000	3.452200	-10.290000	26.003535	0.000714	20.848719
1393.377361	-3.016700	3.450400	-10.408000	26.022215	0.000711	20.845676
1394.370365	-2.956200	3.451900	-10.203000	26.033122	0.000711	20.861850
1395.373013	-3.001200	3.448900	-10.350000	26.061656	0.000711	20.874397
1396.372301	-2.995100	3.448500	-10.327000	26.070728	0.000709	20.856960
1397.368910	-3.005800	3.448200	-10.364000	26.048551	0.000710	20.857438
1398.369121	-3.004000	3.447400	-10.356000	26.077091	0.000710	20.859086
1399.372617	-3.010900	3.448300	-10.381000	26.093604	0.000710	20.846756
1400.372814	-2.992100	3.448700	-10.318000	26.109480	0.000711	20.846111
1401.370055	-3.006000	3.447700	-10.362000	26.135036	0.000710	20.866573
1402.372370	-3.007200	3.447300	-10.366000	26.113082	0.000708	20.873912
1403.372516	-2.996800	3.446300	-10.327000	26.138913	0.000708	20.879477
1404.373632	-2.988600	3.446100	-10.298000	26.130771	0.000708	20.874616
1405.371480	-3.012800	3.445600	-10.380000	26.172916	0.000707	20.880928
1406.371218	-3.001300	3.446100	-10.342000	26.161468	0.000709	20.876063
1407.374097	-2.998300	3.445300	-10.329000	26.144631	0.000708	20.870051
1408.375215	-2.978700	3.446200	-10.264000	26.167531	0.000707	20.851811
1409.373472	-3.009700	3.443100	-10.361000	26.152900	0.000705	20.865083
1410.376034	-3.013100	3.443500	-10.374000	26.130552	0.000705	20.883404
1411.373431	-2.996600	3.442900	-10.315000	26.105447	0.000706	20.866714
1412.371819	-3.015200	3.441600	-10.376000	26.078348	0.000704	20.862720
1413.373130	-3.000100	3.441300	-10.323000	26.097569	0.000704	20.854532
1414.373815	-3.007100	3.442500	-10.351000	26.128549	0.000703	20.848676
1415.376909	-2.997400	3.440700	-10.310000	26.126238	0.000702	20.861053
1416.373392	-2.997200	3.441900	-10.316000	26.122960	0.000704	20.890473
1417.372974	-3.008200	3.440900	-10.350000	26.111314	0.000702	20.874506
1418.375316	-3.004300	3.439100	-10.330000	26.104834	0.000703	20.878426
1419.377534	-2.994600	3.438500	-10.295000	26.087624	0.000701	20.868720
1420.376718	-3.010200	3.439300	-10.352000	26.075157	0.000703	20.890332
1421.377422	-3.011500	3.439200	-10.356000	26.090906	0.000703	20.853527
1422.381394	-2.999800	3.439600	-10.317000	26.095678	0.000703	20.873019
1423.377095	-3.008300	3.439100	-10.345000	26.108718	0.000699	20.861941
1424.377414	-2.998200	3.438000	-10.308000	26.130524	0.000700	20.868678
1425.377343	-2.991700	3.438300	-10.285000	26.145874	0.000701	20.867033
1426.376664	-2.992300	3.438900	-10.289000	26.155738	0.000700	20.881210
1427.376833	-3.003800	3.436800	-10.322000	26.147814	0.000700	20.889843
1428.376531	-2.990200	3.437200	-10.277000	26.182757	0.000698	20.888920
1429.379276	-3.000900	3.436100	-10.310000	26.176694	0.000700	20.858647
1430.379354	-3.027100	3.434200	-10.394000	26.207199	0.000698	20.876971
1431.380415	-2.992000	3.436500	-10.281000	26.208364	0.000697	20.876246
1432.381716	-2.997900	3.434700	-10.295000	26.225597	0.000698	20.872701
1433.378692	-3.015400	3.434100	-10.354000	26.207544	0.000696	20.881111
1434.375901	-2.994500	3.434100	-10.281000	26.228104	0.000695	20.892762
1435.377219	-2.993100	3.433600	-10.276000	26.244150	0.000695	20.892292
1436.374382	-2.990900	3.433100	-10.268000	26.242509	0.000694	20.883057
1437.375097	-2.992400	3.432300	-10.270000	26.236777	0.000693	20.904796
1438.381042	-2.977500	3.433500	-10.222000	26.225875	0.000694	20.883885
1439.381295	-2.988100	3.433200	-10.257000	26.209607	0.000693	20.891719
1440.378257	-3.016100	3.431400	-10.349000	26.186884	0.000692	20.879791
1441.379323	-3.010100	3.431800	-10.329000	26.127203	0.000691	20.883832
1442.377204	-3.011600	3.431600	-10.333000	26.092089	0.000691	20.882689
1443.377228	-3.012800	3.430100	-10.333000	26.055502	0.000690	20.899032
1444.377689	-3.003400	3.431500	-10.305000	26.085430	0.000691	20.873154
1445.376298	-3.007600	3.429200	-10.312000	26.096312	0.000689	20.912533
1446.378448	-2.993300	3.429200	-10.264000	26.118093	0.000691	20.889376
1447.378005	-3.006800	3.427900	-10.305000	26.116578	0.000689	20.894492
1448.381662	-3.002700	3.428800	-10.294000	26.123583	0.000687	20.872609
1449.381201	-3.022600	3.428200	-10.361000	26.156220	0.000689	20.875531
1450.380854	-3.003300	3.427600	-10.292000	26.174102	0.000686	20.897765
1451.385749	-3.008100	3.428200	-10.310000	26.175788	0.000687	20.883340
1452.380188	-2.988100	3.428300	-10.243000	26.199832	0.000687	20.883793
1453.381545	-3.002500	3.428300	-10.292000	26.213044	0.000686	20.875259
1454.392859	-2.992100	3.429000	-10.259000	26.244365	0.000685	20.897249
1455.381599	-3.005800	3.426000	-10.297000	26.235671	0.000684	20.878556
1456.382543	-2.999300	3.426000	-10.275000	26.262094	0.000683	20.886142
1457.381642	-3.002800	3.425200	-10.284000	26.270615	0.000685	20.872421
1458.383354	-2.991300	3.425300	-10.245000	26.197131	0.000683	20.897199
1459.381761	-2.968600	3.425800	-10.169000	26.183898	0.000683	20.875368
1460.395474	-2.971600	3.425600	-10.179000	26.207987	0.000681	20.861644
1461.391271	-2.965800	3.426300	-10.159000	26.154794	0.000682	20.893063
1462.381889	-2.981600	3.424400	-10.210000	26.161051	0.000682	20.875644
1463.382563	-2.978800	3.423800	-10.197000	26.160157	0.000679	20.866686
1464.382569	-2.992100	3.423200	-10.241000	26.146205	0.000679	20.868787
1465.384557	-2.985200	3.422500	-10.216000	26.154248	0.000681	20.885877
1466.387582	-2.984900	3.422400	-10.214000	26.179683	0.000681	20.855487
1467.384647	-3.011200	3.420500	-10.299000	26.182416	0.000677	20.875775
1468.383875	-3.006200	3.422200	-10.286000	26.203353	0.000677	20.862677
1469.384355	-3.025400	3.419000	-10.343000	26.230449	0.000678	20.862404
1470.385532	-3.000300	3.419200	-10.257000	26.259928	0.000674	20.855519
1471.388031	-2.982700	3.421100	-10.203000	26.229136	0.000678	20.873886
1472.385626	-3.021100	3.419500	-10.329000	26.195536	0.000675	20.867623
1473.393755	-3.008100	3.418400	-10.282000	26.177831	0.000674	20.875436
1474.391778	-2.994100	3.418900	-10.236000	26.147709	0.000674	20.857023
1475.387334	-3.013500	3.418900	-10.302000	26.145275	0.000674	20.855526
1476.385755	-3.024400	3.417500	-10.334000	26.115198	0.000675	20.865132
1477.388624	-3.010900	3.417600	-10.290000	26.081919	0.000674	20.855402
1478.388509	-2.991100	3.417200	-10.221000	26.081795	0.000672	20.860968
1479.386687	-3.012400	3.417400	-10.294000	26.102291	0.000673	20.857380
1480.390681	-3.002300	3.417000	-10.257000	26.119128	0.000672	20.865288
1481.390108	-2.996500	3.416600	-10.236000	26.158298	0.000672	20.835421
1482.385534	-3.004100	3.415600	-10.260000	26.195029	0.000672	20.856209
1483.393387	-2.975800	3.415600	-10.163000	26.210576	0.000670	20.855710
1484.384824	-3.006000	3.413800	-10.261000	26.225157	0.000668	20.858983
1485.385712	-2.999400	3.414400	-10.241000	26.245474	0.000669	20.865175
1486.385191	-3.008800	3.414400	-10.271000	26.268344	0.000669	20.834579
1487.384514	-3.007800	3.413200	-10.265000	26.232541	0.000668	20.868299
1488.386033	-3.015000	3.413100	-10.290000	26.230002	0.000666	20.833507
1489.385962	-2.972100	3.413000	-10.143000	26.245953	0.000667	20.844795
1490.386817	-3.004400	3.413100	-10.252000	26.237883	0.000664	20.866555
1491.389943	-3.007600	3.412400	-10.262000	26.249108	0.000668	20.837534
1492.386750	-3.006800	3.412400	-10.259000	26.247721	0.000665	20.861269
1493.388784	-2.984400	3.412700	-10.184000	26.237115	0.000665	20.846818
1494.386247	-2.997200	3.410800	-10.221000	26.242161	0.000664	20.851889
1495.386545	-3.013100	3.409700	-10.273000	26.245020	0.000664	20.834848
1496.386772	-2.989500	3.410400	-10.194000	26.222601	0.000667	20.844087
1497.388689	-2.997000	3.411100	-10.221000	26.187955	0.000664	20.846256
1498.386699	-2.989200	3.411400	-10.196000	26.187413	0.000661	20.844763
1499.391678	-3.012700	3.408900	-10.268000	26.218083	0.000663	20.831013
1500.395320	-3.007500	3.409000	-10.251000	26.221119	0.000661	20.829796
1501.386847	-2.974900	3.409800	-10.143000	26.256383	0.000660	20.828724
1502.397947	-2.995000	3.408700	-10.206000	26.240985	0.000660	20.830794
1503.386536	-3.004300	3.408300	-10.238000	26.233587	0.000659	20.823834
1504.392713	-2.994300	3.408200	-10.205000	26.238506	0.000659	20.825458
1505.389890	-3.006400	3.407400	-10.242000	26.267792	0.000659	20.830706
1506.389251	-3.027400	3.405700	-10.310000	26.261581	0.000657	20.843904
1507.387233	-2.992600	3.406000	-10.191000	26.252820	0.000657	20.835100
1508.388722	-3.001300	3.405900	-10.221000	26.279665	0.000656	20.838844
1509.392971	-3.007300	3.405500	-10.239000	26.271549	0.000659	20.843490
1510.394178	-3.003100	3.404900	-10.224000	26.242894	0.000656	20.843617
1511.393379	-3.020000	3.403300	-10.277000	26.207235	0.000654	20.827698
1512.391570	-2.993200	3.404100	-10.188000	26.176490	0.000656	20.839478
1513.394150	-3.013400	3.404100	-10.257000	26.157545	0.000656	20.825657
1514.392430	-3.011200	3.403000	-10.246000	26.177339	0.000655	20.841753
1515.393414	-2.984400	3.403300	-10.155000	26.204485	0.000653	20.816401
1516.390256	-2.982600	3.405200	-10.155000	26.182058	0.000654	20.825158
1517.390001	-2.992200	3.401900	-10.178000	26.166662	0.000655	20.831973
1518.393558	-2.982100	3.403900	-10.150000	26.122109	0.000655	20.813283
1519.400456	-2.972100	3.402900	-10.113000	26.109614	0.000655	20.836764
1520.389901	-3.007300	3.401000	-10.226000	26.139692	0.000653	20.818149
1521.393552	-3.007900	3.400300	-10.226000	26.125035	0.000654	20.825706
1522.394077	-2.995000	3.401800	-10.188000	26.172571	0.000652	20.815151
1523.391426	-3.015000	3.399000	-10.247000	26.175406	0.000653	20.830802
1524.393890	-3.006400	3.398900	-10.217000	26.196066	0.000652	20.829751
1525.391778	-3.007500	3.398800	-10.221000	26.210668	0.000650	20.816924
1526.397134	-3.008400	3.397100	-10.219000	26.221074	0.000652	20.823587
1527.394574	-3.023400	3.398700	-10.274000	26.219334	0.000650	20.814253
1528.398808	-2.995800	3.397700	-10.178000	26.234310	0.000652	20.823612
1529.394558	-3.013400	3.398400	-10.240000	26.264130	0.000650	20.827026
1530.397750	-3.020500	3.398100	-10.263000	26.264828	0.000648	20.834365
1531.394955	-2.984500	3.397200	-10.138000	26.225690	0.000649	20.816846
1532.396382	-2.989700	3.397200	-10.156000	26.217345	0.000648	20.819366
1533.397229	-3.005300	3.396100	-10.206000	26.164472	0.000648	20.834987
1534.396822	-2.998100	3.396500	-10.183000	26.129229	0.000649	20.827076
1535.399439	-3.011300	3.394300	-10.221000	26.123964	0.000647	20.808984
1536.394775	-3.016200	3.395500	-10.240000	26.164595	0.000646	20.805240
1537.395581	-3.004600	3.395200	-10.200000	26.195041	0.000646	20.827299
1538.395569	-3.008000	3.393600	-10.206000	26.223257	0.000645	20.812979
1539.397145	-2.994300	3.395200	-10.164000	26.234827	0.000647	20.811330
1540.396322	-2.992500	3.394200	-10.156000	26.268451	0.000645	20.822833
1541.398190	-2.972900	3.394100	-10.090000	26.290975	0.000644	20.816545
1542.400775	-2.993300	3.392700	-10.155000	26.304460	0.000642	20.812080
1543.396159	-3.001300	3.393600	-10.184000	26.279975	0.000643	20.817819
1544.397043	-2.990000	3.393600	-10.145000	26.246078	0.000643	20.805092
1545.398334	-2.989500	3.392200	-10.139000	26.245356	0.000643	20.826651
1546.397489	-3.005600	3.392300	-10.195000	26.216947	0.000642	20.803793
1547.396911	-3.006100	3.391800	-10.195000	26.241856	0.000642	20.820763
1548.398170	-2.998600	3.391000	-10.167000	26.278060	0.000643	20.805937
1549.401048	-2.974800	3.391600	-10.088000	26.317646	0.000640	20.808262
1550.398768	-2.995800	3.389900	-10.155000	26.318614	0.000640	20.805442
1551.402267	-2.981600	3.391000	-10.109000	26.379992	0.000639	20.824454
1552.399193	-2.994100	3.389200	-10.147000	26.353252	0.000637	20.803269
1553.402546	-2.998800	3.388700	-10.159000	26.337162	0.000640	20.819815
1554.403963	-3.034400	3.387300	-10.278000	26.339021	0.000637	20.801769
1555.401057	-3.001200	3.388600	-10.169000	26.349950	0.000637	20.799002
1556.399791	-3.002300	3.388000	-10.171000	26.342943	0.000636	20.812349
1557.401649	-2.983500	3.389100	-10.111000	26.379647	0.000637	20.817469
1558.404559	-2.976600	3.388900	-10.086000	26.374229	0.000636	20.809178
1559.400026	-3.005800	3.388000	-10.182000	26.383122	0.000634	20.798676
1560.405166	-2.990200	3.386300	-10.124000	26.341778	0.000633	20.791263
1561.406968	-3.005300	3.386000	-10.175000	26.318385	0.000634	20.794306
1562.404876	-2.992300	3.385300	-10.129000	26.281433	0.000632	20.817387
1563.402068	-3.019100	3.385600	-10.220000	26.231722	0.000632	20.801097
1564.407817	-2.989700	3.385600	-10.120000	26.192456	0.000631	20.820434
1565.406460	-3.009000	3.385000	-10.184000	26.155876	0.000632	20.809281
1566.403860	-3.020100	3.383400	-10.217000	26.172937	0.000633	20.804614
1567.405631	-2.985100	3.385400	-10.105000	26.158654	0.000629	20.798797
1568.402599	-3.013600	3.382900	-10.193000	26.147358	0.000631	20.805937
1569.406838	-3.000100	3.384000	-10.152000	26.184290	0.000631	20.805116
1570.411726	-2.965700	3.385400	-10.039000	26.177159	0.000630	20.817391
1571.404231	-3.002900	3.381300	-10.153000	26.162757	0.000628	20.803867
1572.407890	-2.993100	3.381100	-10.119000	26.178579	0.000627	20.797955
1573.407527	-2.989100	3.381900	-10.108000	26.209520	0.000630	20.789692
1574.406414	-3.005700	3.382000	-10.165000	26.212725	0.000627	20.799076
1575.408287	-2.990100	3.382300	-10.113000	26.212348	0.000627	20.797275
1576.408941	-3.008800	3.381200	-10.172000	26.213024	0.000626	20.787523
1577.405329	-2.990400	3.380600	-10.108000	26.252359	0.000627	20.794335
1578.409171	-2.998500	3.381400	-10.137000	26.260032	0.000624	20.790191
1579.408865	-2.985500	3.379200	-10.088000	26.291816	0.000627	20.794632
1580.403738	-3.031800	3.377800	-10.240000	26.316252	0.000625	20.788369
1581.405590	-3.024800	3.377800	-10.215000	26.313245	0.000626	20.808580
1582.409884	-2.989600	3.380500	-10.104000	26.313392	0.000624	20.802565
1583.410081	-2.999700	3.377200	-10.129000	26.278827	0.000624	20.780156
1584.405737	-2.997800	3.378200	-10.125000	26.300330	0.000625	20.794653
1585.409521	-3.006400	3.378000	-10.155000	26.255905	0.000623	20.791260
1586.407150	-2.998700	3.377300	-10.127000	26.230795	0.000624	20.789734
1587.408433	-2.991300	3.377600	-10.102000	26.251232	0.000622	20.781822
1588.410664	-3.000600	3.377200	-10.132000	26.247979	0.000623	20.803683
1589.408941	-3.000100	3.377400	-10.131000	26.260616	0.000619	20.788882
1590.406530	-2.979400	3.375800	-10.057000	26.332109	0.000622	20.785340
1591.409727	-3.005800	3.375600	-10.145000	26.338785	0.000622	20.789678
1592.412956	-3.008800	3.375100	-10.153000	26.325004	0.000621	20.801907
1593.412326	-3.019600	3.373100	-10.184000	26.307368	0.000622	20.775647
1594.411298	-3.022600	3.374000	-10.198000	26.281295	0.000620	20.777894
1595.410664	-3.004600	3.374100	-10.136000	26.244764	0.000617	20.784805
1596.410431	-2.996000	3.373600	-10.106000	26.222161	0.000620	20.779161
1597.410077	-3.000800	3.373100	-10.121000	26.213742	0.000618	20.801521
1598.422977	-3.005100	3.373600	-10.137000	26.238622	0.000617	20.774840
1599.414046	-2.993800	3.372900	-10.096000	26.254119	0.000617	20.787094
1600.413795	-2.993300	3.372500	-10.093000	26.254387	0.000617	20.761284
1601.412048	-2.992500	3.371800	-10.089000	26.258756	0.000617	20.769469
1602.414072	-2.969000	3.373200	-10.013000	26.289150	0.000615	20.788159
1603.413554	-2.997900	3.371000	-10.105000	26.326120	0.000614	20.775527
1604.410395	-2.982800	3.370700	-10.051000	26.299920	0.000614	20.787603
1605.411492	-2.987800	3.370800	-10.070000	26.356856	0.000613	20.789822
1606.414645	-3.006700	3.370600	-10.133000	26.284248	0.000612	20.783708
1607.414914	-2.998500	3.369200	-10.102000	26.268499	0.000613	20.788269
1608.419306	-2.999100	3.369200	-10.104000	26.269516	0.000612	20.794033
1609.415611	-2.977000	3.370600	-10.033000	26.259928	0.000611	20.790561
1610.419631	-2.989100	3.369000	-10.070000	26.273411	0.000609	20.770919
1611.413366	-3.015700	3.367000	-10.153000	26.246541	0.000610	20.773789
1612.416110	-2.982500	3.368000	-10.044000	26.304695	0.000609	20.778651
1613.413082	-3.000800	3.368900	-10.108000	26.292227	0.000608	20.790303
1614.416505	-2.981300	3.367500	-10.039000	26.284949	0.000611	20.773032
1615.419012	-2.984600	3.367600	-10.049000	26.288674	0.000610	20.785310
1616.415370	-2.968600	3.367200	-9.994700	26.242555	0.000608	20.773577
1617.417570	-2.990900	3.366700	-10.069000	26.217047	0.000607	20.799627
1618.417678	-2.994800	3.365900	-10.079000	26.198473	0.000607	20.782858
1619.420765	-3.013800	3.365000	-10.140000	26.211135	0.000607	20.778039
1620.420086	-2.976700	3.367100	-10.021000	26.213942	0.000605	20.781333
1621.430408	-3.003400	3.364700	-10.105000	26.232016	0.000605	20.785271
1622.415615	-2.988600	3.364800	-10.055000	26.282259	0.000605	20.781708
1623.418383	-2.988700	3.363900	-10.053000	26.295688	0.000604	20.780979
1624.423332	-3.005900	3.362000	-10.104000	26.291241	0.000601	20.764182
1625.420385	-2.994500	3.363700	-10.071000	26.273460	0.000602	20.783297
1626.418537	-3.015100	3.362800	-10.138000	26.241425	0.000602	20.783346
1627.419152	-2.971500	3.363500	-9.992800	26.207255	0.000599	20.781252
1628.419582	-2.986900	3.362000	-10.040000	26.207674	0.000602	20.768396
1629.418077	-2.974700	3.362600	-10.001000	26.171369	0.000599	20.771269
1630.422892	-2.993100	3.361900	-10.061000	26.193867	0.000599	20.754521
1631.416497	-3.011700	3.360100	-10.119000	26.230601	0.000598	20.784797
1632.423050	-3.010100	3.359000	-10.110000	26.261048	0.000597	20.743322
1633.425105	-2.998700	3.361600	-10.079000	26.310113	0.000598	20.769872
1634.420759	-3.006800	3.360700	-10.103000	26.330453	0.000596	20.776563
1635.418588	-2.986200	3.358900	-10.029000	26.365464	0.000597	20.757221
1636.423905	-2.960100	3.361800	-9.950700	26.391539	0.000596	20.763039
1637.425858	-3.004400	3.360300	-10.095000	26.412969	0.000593	20.772724
1638.419262	-2.994800	3.358700	-10.058000	26.436437	0.000596	20.771655
1639.420270	-3.027000	3.358300	-10.164000	26.414462	0.000592	20.776121
1640.433427	-3.020000	3.357100	-10.138000	26.393035	0.000595	20.758378
1641.418429	-2.984400	3.358500	-10.021000	26.415187	0.000593	20.762151
1642.422290	-3.004600	3.357000	-10.085000	26.389585	0.000592	20.779567
1643.422650	-3.020500	3.356300	-10.136000	26.399717	0.000593	20.766043
1644.420740	-3.005800	3.356400	-10.088000	26.381868	0.000593	20.772285
1645.425671	-3.023300	3.356300	-10.146000	26.354554	0.000591	20.761429
1646.423948	-2.992000	3.356700	-10.043000	26.353483	0.000590	20.769362
1647.421939	-3.005100	3.356400	-10.085000	26.376653	0.000592	20.749500
1648.421702	-3.016500	3.355000	-10.120000	26.367098	0.000591	20.747483
1649.426178	-3.013000	3.354000	-10.103000	26.372312	0.000590	20.753198
1650.431096	-3.031800	3.354200	-10.166000	26.405882	0.000587	20.760859
1651.420202	-3.001800	3.353100	-10.064000	26.407822	0.000588	20.767551
1652.425472	-2.990500	3.352600	-10.025000	26.430984	0.000587	20.769493
1653.431579	-3.018100	3.352500	-10.117000	26.429100	0.000588	20.757168
1654.423047	-2.993400	3.352500	-10.033000	26.439704	0.000588	20.760714
1655.422668	-3.010800	3.351500	-10.089000	26.429744	0.000586	20.749281
1656.420328	-3.000100	3.352000	-10.055000	26.461626	0.000587	20.760463
1657.425878	-2.976900	3.353600	-9.982200	26.476820	0.000586	20.761984
1658.426848	-3.015000	3.351600	-10.104000	26.452786	0.000585	20.755371
1659.422199	-2.996300	3.352200	-10.043000	26.435905	0.000586	20.756896
1660.425020	-3.002900	3.350900	-10.061000	26.451079	0.000585	20.772621
1661.426261	-3.006400	3.350700	-10.072000	26.448220	0.000584	20.755997
1662.429545	-3.019800	3.350500	-10.117000	26.463738	0.000585	20.753577
1663.427771	-3.008900	3.348200	-10.074000	26.460190	0.000585	20.777512
1664.427158	-3.008700	3.349300	-10.075000	26.496710	0.000582	20.768701
1665.429923	-2.999500	3.349500	-10.046000	26.482534	0.000584	20.761563
1666.433723	-3.002900	3.349900	-10.058000	26.474838	0.000580	20.770898
1667.427729	-3.016100	3.347500	-10.095000	26.464854	0.000580	20.752802
1668.431041	-2.989600	3.348800	-10.010000	26.465178	0.000581	20.760714
1669.431882	-3.015100	3.346900	-10.090000	26.471733	0.000581	20.756397
1670.429498	-2.998200	3.348000	-10.036000	26.479429	0.000581	20.764606
1671.433919	-2.992800	3.347500	-10.018000	26.475204	0.000578	20.773637
1672.430993	-2.986300	3.347400	-9.995300	26.514833	0.000579	20.754674
1673.430905	-3.010100	3.345700	-10.070000	26.485737	0.000577	20.775689
1674.428827	-2.973900	3.346900	-9.952500	26.486181	0.000576	20.759065
1675.429693	-2.997300	3.345100	-10.024000	26.493802	0.000579	20.758191
1676.428336	-2.987300	3.345100	-9.991200	26.502462	0.000579	20.762628
1677.434643	-3.014200	3.344100	-10.079000	26.482203	0.000578	20.754592
1678.428282	-3.016900	3.343800	-10.087000	26.460753	0.000576	20.758637
1679.427411	-3.004600	3.344800	-10.049000	26.468001	0.000576	20.750749
1680.430974	-2.999800	3.345300	-10.034000	26.481182	0.000574	20.759730
1681.436906	-2.995200	3.343400	-10.013000	26.522415	0.000575	20.773676
1682.429036	-2.977200	3.345200	-9.958000	26.502828	0.000574	20.765841
1683.429493	-2.970700	3.344000	-9.933600	26.512706	0.000572	20.756330
1684.440102	-2.983500	3.343200	-9.973300	26.492271	0.000572	20.765661
1685.439929	-2.999700	3.342600	-10.025000	26.516899	0.000571	20.769553
1686.436221	-3.006200	3.342200	-10.046000	26.530427	0.000571	20.791212
1687.437929	-3.013700	3.341800	-10.069000	26.498248	0.000570	20.762186
1688.437487	-2.995600	3.340900	-10.006000	26.471409	0.000571	20.775512
1689.436578	-2.998200	3.339900	-10.012000	26.455814	0.000570	20.765052
1690.436113	-3.004000	3.339900	-10.032000	26.469448	0.000569	20.774489
1691.435191	-2.996300	3.340000	-10.007000	26.474757	0.000569	20.765601
1692.435623	-2.990400	3.341000	-9.989900	26.497252	0.000568	20.770194
1693.432522	-2.999700	3.339200	-10.015000	26.474236	0.000567	20.763654
1694.434819	-3.013100	3.339800	-10.062000	26.451395	0.000569	20.773414
1695.435647	-3.004900	3.338300	-10.030000	26.448734	0.000568	20.784963
1696.437177	-3.014300	3.339100	-10.064000	26.450424	0.000568	20.765799
1697.440082	-2.987600	3.338700	-9.973900	26.469962	0.000567	20.760307
1698.438765	-2.995200	3.337100	-9.994600	26.485878	0.000567	20.773934
1699.438417	-2.968100	3.338900	-9.909500	26.524112	0.000566	20.763053
1700.434448	-2.979700	3.337600	-9.944400	26.538682	0.000565	20.763948
1701.436202	-2.995600	3.336900	-9.995500	26.558043	0.000566	20.779617
1702.440210	-2.999800	3.335400	-10.005000	26.580758	0.000565	20.798183
1703.435440	-3.000300	3.334500	-10.004000	26.571349	0.000565	20.767862
1704.439542	-3.001800	3.335700	-10.012000	26.562376	0.000563	20.776860
1705.439901	-3.011400	3.334200	-10.040000	26.550615	0.000562	20.771676
1706.442093	-3.033200	3.332600	-10.107000	26.535471	0.000564	20.765463
1707.440710	-3.005800	3.334100	-10.020000	26.491623	0.000562	20.781131
1708.437083	-2.997800	3.332700	-9.989200	26.488222	0.000560	20.789567
1709.436115	-2.990600	3.332300	-9.963900	26.468853	0.000559	20.768201
1710.436387	-2.983300	3.333200	-9.942000	26.472627	0.000559	20.772943
1711.438668	-3.010300	3.332400	-10.029000	26.447491	0.000558	20.760480
1712.436608	-3.003800	3.332500	-10.009000	26.500058	0.000559	20.786765
1713.438142	-3.022000	3.331800	-10.067000	26.549017	0.000558	20.784295
1714.440347	-2.991000	3.331700	-9.962800	26.570690	0.000556	20.789486
1715.439262	-3.026600	3.331000	-10.081000	26.578160	0.000556	20.796994
1716.442673	-3.004700	3.330300	-10.006000	26.575999	0.000555	20.769691
1717.445822	-3.013100	3.330600	-10.035000	26.584391	0.000556	20.797093
1718.439697	-3.010600	3.330100	-10.024000	26.602138	0.000553	20.794072
1719.439106	-2.984400	3.330900	-9.939100	26.643624	0.000553	20.807327
1720.448123	-2.977200	3.330100	-9.913400	26.634240	0.000553	20.793152
1721.444079	-3.000300	3.329200	-9.987600	26.657598	0.000552	20.770640
1722.443644	-2.995700	3.328800	-9.971600	26.663008	0.000552	20.807847
1723.443105	-3.002300	3.327800	-9.989800	26.647795	0.000552	20.785915
1724.446195	-2.999600	3.327800	-9.981100	26.595887	0.000550	20.774985
1725.447385	-3.001700	3.327400	-9.986400	26.585461	0.000548	20.786315
1726.447397	-2.995600	3.327900	-9.967400	26.596359	0.000548	20.783520
1727.445527	-3.009500	3.327500	-10.013000	26.608376	0.000550	20.787065
1728.444742	-3.008100	3.326400	-10.006000	26.603434	0.000548	20.791580
1729.446947	-3.008800	3.325800	-10.006000	26.557233	0.000546	20.781648
1730.445948	-3.001400	3.326100	-9.982100	26.561059	0.000546	20.788813
1731.446738	-2.996000	3.326700	-9.965700	26.566667	0.000546	20.800614
1732.453290	-3.000200	3.326000	-9.977900	26.571261	0.000545	20.800016
1733.447766	-3.018900	3.325000	-10.036000	26.526301	0.000545	20.804609
1734.444894	-3.014000	3.325500	-10.022000	26.478834	0.000544	20.761637
1735.448444	-2.986700	3.324500	-9.928300	26.483076	0.000543	20.782971
1736.445683	-3.005000	3.323300	-9.984400	26.501029	0.000544	20.806233
1737.449769	-2.983700	3.324000	-9.917200	26.527248	0.000542	20.804613
1738.447652	-3.001500	3.322400	-9.970800	26.550809	0.000541	20.801269
1739.451362	-2.983300	3.321700	-9.908900	26.591747	0.000541	20.783626
1740.454235	-3.003800	3.323700	-9.982300	26.636707	0.000540	20.813650
1741.450486	-3.009400	3.321900	-9.995700	26.655056	0.000542	20.794163
1742.447454	-2.990500	3.321500	-9.932400	26.700802	0.000539	20.817393
1743.448799	-2.997000	3.320800	-9.951700	26.658484	0.000538	20.792868
1744.458142	-3.000000	3.322300	-9.965200	26.602951	0.000539	20.792518
1745.450778	-2.995200	3.319200	-9.940300	26.552259	0.000539	20.798933
1746.450390	-2.998900	3.319600	-9.953000	26.555237	0.000539	20.791021
1747.446769	-3.003000	3.319400	-9.967400	26.559335	0.000537	20.801304
1748.451081	-3.001600	3.319500	-9.963200	26.551787	0.000537	20.793243
1749.457165	-2.983700	3.319400	-9.903500	26.569244	0.000537	20.793721
1750.456479	-2.968100	3.320500	-9.855000	26.567776	0.000535	20.809315
1751.458717	-3.012600	3.317900	-9.993700	26.579543	0.000535	20.806445
1752.455122	-2.993200	3.318800	-9.933000	26.634856	0.000535	20.826013
1753.458518	-2.972100	3.318700	-9.862500	26.653050	0.000534	20.807794
1754.451403	-3.005800	3.317300	-9.969800	26.624824	0.000534	20.811661
1755.456000	-2.999200	3.317400	-9.949400	26.587513	0.000533	20.827732
1756.462243	-3.000000	3.316500	-9.948600	26.553776	0.000533	20.812312
1757.459815	-2.992500	3.315400	-9.920600	26.559560	0.000532	20.808643
1758.458573	-3.016900	3.314900	-10.000000	26.586003	0.000530	20.804404
1759.457303	-2.993400	3.314400	-9.920600	26.539822	0.000531	20.802079
1760.453729	-3.014700	3.315500	-9.992500	26.548809	0.000533	20.815380
1761.455894	-3.012300	3.313700	-9.980600	26.506232	0.000530	20.809092
1762.462128	-3.008500	3.313100	-9.966800	26.499628	0.000530	20.794393
1763.459182	-3.014100	3.313100	-9.983900	26.501909	0.000530	20.814230
1764.461325	-3.000700	3.314400	-9.943800	26.516508	0.000529	20.827955
1765.456862	-3.027400	3.312800	-10.028000	26.535873	0.000531	20.807592
1766.463455	-3.009700	3.312100	-9.967700	26.589920	0.000530	20.801704
1767.460076	-3.007500	3.312600	-9.962100	26.618689	0.000528	20.808338
1768.461533	-3.018400	3.312100	-9.996200	26.630431	0.000525	20.818720
1769.464362	-3.022600	3.311300	-10.007000	26.652001	0.000528	20.801523
1770.463158	-3.011500	3.311600	-9.972200	26.623008	0.000526	20.834965
1771.458913	-3.006700	3.312100	-9.956400	26.639340	0.000526	20.813926
1772.460479	-3.008100	3.311200	-9.959900	26.649270	0.000526	20.815373
1773.459631	-2.987000	3.312000	-9.891700	26.650808	0.000525	20.837307
1774.458907	-2.995200	3.309400	-9.910400	26.676844	0.000525	20.812273
1775.463908	-2.981000	3.310300	-9.867400	26.690053	0.000523	20.827449
1776.468596	-3.014700	3.309500	-9.976400	26.714624	0.000524	20.827495
1777.461972	-2.989700	3.310000	-9.894700	26.729863	0.000523	20.813420
1778.466974	-2.999700	3.307500	-9.920400	26.755577	0.000522	20.810823
1779.460618	-2.989000	3.308200	-9.887700	26.763619	0.000523	20.822701
1780.462061	-2.998900	3.307400	-9.917700	26.807671	0.000522	20.808197
1781.461972	-3.021400	3.306400	-9.988400	26.807446	0.000522	20.816031
1782.462379	-3.005400	3.307100	-9.937000	26.786544	0.000521	20.827258
1783.460665	-3.016800	3.306500	-9.974700	26.756408	0.000522	20.828253
1784.463389	-3.001700	3.305200	-9.919800	26.762986	0.000521	20.825383
1785.465246	-2.989900	3.306300	-9.884100	26.785992	0.000519	20.830022
1786.465331	-2.991600	3.305400	-9.886400	26.798450	0.000520	20.839703
1787.464093	-3.018100	3.305100	-9.973700	26.816540	0.000521	20.813321
1788.467076	-3.002500	3.303900	-9.918400	26.786358	0.000518	20.819485
1789.467041	-3.016300	3.304800	-9.967700	26.764460	0.000517	20.830659
1790.461837	-2.993500	3.304900	-9.892800	26.771461	0.000517	20.822050
1791.465548	-2.993900	3.304500	-9.892500	26.799059	0.000518	20.870185
1792.466714	-3.010900	3.302900	-9.943300	26.792352	0.000517	20.845899
1793.462801	-2.999000	3.303100	-9.905200	26.789448	0.000517	20.826859
1794.462784	-2.991200	3.302600	-9.876900	26.817268	0.000515	20.838235
1795.465508	-2.980300	3.303300	-9.844100	26.833943	0.000512	20.829870
1796.465418	-3.005800	3.300500	-9.919300	26.831335	0.000514	20.832464
1797.464658	-3.003700	3.301500	-9.915100	26.837290	0.000514	20.841770
1798.466362	-2.981200	3.301200	-9.838900	26.836494	0.000511	20.847608
1799.469039	-2.987500	3.301200	-9.859400	26.850163	0.000511	20.829110
1800.466578	-2.999700	3.300700	-9.899900	26.858007	0.000510	20.840316
1801.465582	-2.996800	3.300600	-9.889600	26.868772	0.000509	20.840235
1802.466005	-2.994300	3.300500	-9.881900	26.890911	0.000507	20.843055
1803.466834	-3.009000	3.299100	-9.926500	26.882096	0.000509	20.851260
1804.463100	-3.021100	3.300000	-9.968400	26.841566	0.000508	20.834216
1805.464368	-2.994600	3.299500	-9.879500	26.799198	0.000507	20.854204
1806.464617	-3.007800	3.298200	-9.919300	26.786092	0.000507	20.858570
1807.464625	-2.997700	3.297900	-9.884100	26.783311	0.000507	20.851034
1808.464269	-2.992400	3.297800	-9.867100	26.793162	0.000506	20.842921
1809.465951	-3.004400	3.297800	-9.905700	26.777325	0.000505	20.851653
1810.465194	-2.998600	3.296900	-9.884000	26.770374	0.000505	20.835182
1811.466140	-3.000900	3.298000	-9.895500	26.765606	0.000503	20.833707
1812.467635	-2.996000	3.297700	-9.878900	26.769723	0.000502	20.854916
1813.465665	-2.985300	3.297100	-9.842000	26.792163	0.000502	20.841916
1814.469216	-2.972400	3.297200	-9.799800	26.780820	0.000501	20.864649
1815.471980	-3.009400	3.296800	-9.918500	26.741775	0.000501	20.864274
1816.467590	-2.997600	3.294600	-9.875200	26.732044	0.000500	20.863025
1817.470881	-3.010300	3.294600	-9.916800	26.734701	0.000501	20.859059
1818.467394	-3.009200	3.294400	-9.913300	26.753615	0.000498	20.843462
1819.472529	-3.002200	3.294900	-9.890100	26.772180	0.000499	20.871609
1820.494039	-2.988100	3.293700	-9.840700	26.775182	0.000499	20.856611
1821.467825	-3.007600	3.293600	-9.905200	26.777216	0.000498	20.863871
1822.470107	-3.018000	3.291800	-9.933400	26.757905	0.000499	20.851094
1823.470830	-3.000300	3.292900	-9.878500	26.767686	0.000495	20.869936
1824.467279	-3.022400	3.290600	-9.943900	26.772817	0.000496	20.871302
1825.467553	-3.024700	3.291200	-9.953800	26.728116	0.000497	20.857180
1826.472575	-2.992700	3.291400	-9.848400	26.680950	0.000495	20.860496
1827.470043	-3.010600	3.289100	-9.901000	26.656625	0.000495	20.867809
1828.472245	-3.003000	3.290800	-9.880900	26.681622	0.000494	20.881559
1829.472308	-3.000000	3.290700	-9.870800	26.691893	0.000493	20.866281
1830.470234	-3.020200	3.289400	-9.934700	26.687201	0.000495	20.861565
1831.473431	-3.011600	3.288300	-9.901900	26.693779	0.000492	20.863910
1832.472371	-2.986100	3.288900	-9.820200	26.759060	0.000492	20.856049
1833.473330	-2.998000	3.289300	-9.860400	26.794381	0.000491	20.879705
1834.469145	-3.003000	3.288800	-9.874300	26.840096	0.000491	20.889634
1835.468732	-3.016600	3.286600	-9.913800	26.827761	0.000490	20.875336
1836.478867	-3.000100	3.288100	-9.863800	26.761760	0.000489	20.876305
1837.472490	-2.980800	3.287700	-9.797900	26.763396	0.000490	20.875106
1838.473216	-2.983600	3.287200	-9.806900	26.749621	0.000487	20.879748
1839.479830	-2.990600	3.287300	-9.830200	26.763171	0.000488	20.888629
1840.474035	-2.986600	3.287000	-9.815900	26.798390	0.000486	20.864297
1841.476742	-2.991600	3.286000	-9.829600	26.821972	0.000485	20.875205
1842.475306	-2.992200	3.285000	-9.828300	26.822388	0.000486	20.871830
1843.472435	-2.994900	3.285400	-9.838400	26.800825	0.000482	20.880969
1844.473085	-3.027000	3.283900	-9.939100	26.786723	0.000483	20.885756
1845.480895	-3.004000	3.284900	-9.866600	26.792731	0.000482	20.896537
1846.473965	-2.992800	3.284400	-9.828500	26.796704	0.000481	20.891523
1847.472922	-3.019600	3.284700	-9.917700	26.800547	0.000481	20.889698
1848.481104	-3.025300	3.282200	-9.927700	26.782479	0.000479	20.887653
1849.477615	-2.978100	3.283400	-9.776800	26.774089	0.000480	20.880640
1850.477399	-3.016400	3.282200	-9.898600	26.785062	0.000479	20.894042
1851.479609	-2.983900	3.283300	-9.795400	26.775306	0.000480	20.895613
1852.479567	-3.001500	3.281800	-9.848800	26.776774	0.000479	20.890925
1853.475804	-3.005100	3.280700	-9.858300	26.765702	0.000479	20.884535
1854.481045	-2.996200	3.281800	-9.831900	26.755425	0.000478	20.896013
1855.474905	-2.985700	3.280100	-9.790200	26.777418	0.000474	20.892047
1856.477242	-2.982500	3.281000	-9.784800	26.825868	0.000477	20.887656
1857.497174	-2.960500	3.281300	-9.712900	26.888139	0.000473	20.901904
1858.476568	-2.992300	3.279200	-9.811900	26.886401	0.000475	20.900156
1859.479385	-2.971700	3.280000	-9.745900	26.876622	0.000474	20.886057
1860.480070	-3.018900	3.278400	-9.896300	26.949516	0.000475	20.893922
1861.484057	-3.017100	3.277500	-9.887500	26.929213	0.000474	20.887730
1862.478742	-3.000500	3.277800	-9.834500	26.977459	0.000473	20.920122
1863.484011	-3.022200	3.277400	-9.903700	27.008923	0.000473	20.891548
1864.477068	-3.031300	3.276300	-9.930400	27.022079	0.000473	20.895295
1865.477892	-2.991300	3.277600	-9.802800	26.992748	0.000473	20.900885
1866.475722	-2.996600	3.276600	-9.817800	26.962518	0.000472	20.893246
1867.475890	-2.984000	3.275700	-9.773300	26.987435	0.000472	20.893172
1868.481860	-3.005200	3.275100	-9.840600	26.965647	0.000473	20.892125
1869.480203	-3.000200	3.276300	-9.828100	26.960287	0.000470	20.900485
1870.478719	-2.992000	3.276200	-9.801000	26.936560	0.000470	20.901756
1871.480734	-3.014100	3.273400	-9.864800	26.961051	0.000470	20.887978
1872.476981	-2.999900	3.273600	-9.819700	26.979813	0.000469	20.898309
1873.480903	-3.004900	3.273500	-9.835200	26.973138	0.000470	20.903450
1874.484077	-2.987600	3.274100	-9.780900	27.006189	0.000467	20.892118
1875.478660	-3.013000	3.273700	-9.862700	27.042294	0.000466	20.919889
1876.479299	-3.003600	3.273100	-9.830500	27.050858	0.000468	20.900528
1877.477486	-2.998300	3.273800	-9.814300	27.032192	0.000468	20.883655
1878.480911	-2.989500	3.271900	-9.780600	27.042691	0.000465	20.891368
1879.480431	-2.984200	3.273500	-9.767700	26.991545	0.000465	20.880711
1880.478052	-3.009300	3.270900	-9.842800	26.959032	0.000463	20.898275
1881.478751	-2.989300	3.271000	-9.777400	26.920046	0.000464	20.887048
1882.484056	-2.996300	3.270000	-9.796700	26.867951	0.000464	20.883503
1883.480505	-2.999700	3.269700	-9.806900	26.846481	0.000464	20.886570
1884.481895	-2.983700	3.269500	-9.753900	26.829775	0.000462	20.884472
1885.478449	-2.962800	3.271200	-9.690400	26.784331	0.000462	20.905634
1886.477849	-3.014900	3.269200	-9.855100	26.787062	0.000460	20.885148
1887.477670	-3.017100	3.268400	-9.860300	26.814312	0.000462	20.868451
1888.480525	-2.995200	3.268600	-9.788400	26.854343	0.000459	20.894475
1889.480245	-3.006100	3.267400	-9.820300	26.883305	0.000457	20.873812
1890.478778	-2.998700	3.269500	-9.803200	26.862212	0.000459	20.884370
1891.481976	-3.014700	3.267600	-9.849900	26.859031	0.000459	20.872163
1892.484758	-3.010600	3.267500	-9.835700	26.921374	0.000457	20.859461
1893.480415	-2.994600	3.266800	-9.781800	26.959342	0.000457	20.870614
1894.488477	-3.010100	3.267600	-9.834900	26.974483	0.000456	20.882520
1895.480355	-2.996000	3.267300	-9.787400	27.010856	0.000454	20.870734
1896.479691	-3.002100	3.265500	-9.802700	27.035824	0.000455	20.883514
1897.480217	-2.990700	3.265300	-9.765200	27.068057	0.000455	20.863774
1898.483918	-3.018300	3.264300	-9.851800	27.101626	0.000455	20.876672
1899.484905	-3.009000	3.264200	-9.820600	27.124129	0.000452	20.891242
1900.486440	-2.990700	3.266100	-9.766200	27.182070	0.000451	20.876024
1901.486887	-3.014900	3.263900	-9.839500	27.204617	0.000450	20.880210
1902.488103	-2.982600	3.263700	-9.733000	27.222629	0.000451	20.878413
1903.486141	-3.014200	3.263300	-9.836100	27.233921	0.000450	20.870805
1904.488337	-3.006400	3.264200	-9.811600	27.195386	0.000449	20.887046
1905.485748	-2.992600	3.262600	-9.761700	27.169701	0.000448	20.873067
1906.487838	-2.994500	3.262100	-9.766900	27.143596	0.000449	20.864356
1907.496892	-2.996000	3.262800	-9.774100	27.143473	0.000447	20.857594
1908.484380	-2.985800	3.260700	-9.734900	27.163667	0.000449	20.864154
1909.483075	-2.982400	3.262100	-9.727900	27.159129	0.000445	20.884718
1910.484093	-2.957200	3.262400	-9.646000	27.180312	0.000445	20.866196
1911.487231	-3.020800	3.259900	-9.844800	27.175447	0.000446	20.866044
1912.490674	-3.005900	3.259000	-9.795800	27.182395	0.000445	20.866869
1913.487689	-2.989100	3.258400	-9.738400	27.131230	0.000444	20.887479
1914.490380	-2.977700	3.259900	-9.705900	27.122667	0.000443	20.879815
1915.488410	-2.986800	3.258500	-9.729700	27.145715	0.000442	20.861272
1916.490431	-2.998400	3.257400	-9.766000	27.172285	0.000442	20.874243
1917.489606	-2.977400	3.258900	-9.701200	27.173006	0.000442	20.867382
1918.491793	-2.971900	3.258900	-9.682300	27.200221	0.000441	20.870574
1919.489315	-2.986700	3.257300	-9.726900	27.130894	0.000439	20.887614
1920.491080	-2.982000	3.257100	-9.711200	27.114516	0.000439	20.871144
1921.495611	-3.002400	3.256000	-9.773900	27.134483	0.000438	20.867518
1922.491567	-2.985400	3.256400	-9.720900	27.156095	0.000440	20.866495
1923.491716	-2.983500	3.254700	-9.708800	27.203382	0.000439	20.860477
1924.496362	-2.991500	3.257100	-9.742700	27.198865	0.000436	20.842658
1925.492080	-3.013500	3.252700	-9.800600	27.165391	0.000437	20.861620
1926.492227	-3.003700	3.253900	-9.773000	27.158615	0.000438	20.839159
1927.490858	-3.006100	3.253800	-9.780500	27.167618	0.000434	20.848214
1928.492593	-2.992700	3.254400	-9.738500	27.170169	0.000434	20.835134
1929.494136	-3.023500	3.251500	-9.829900	27.162451	0.000435	20.848233
1930.495479	-3.017200	3.251500	-9.808500	27.151432	0.000432	20.858487
1931.495144	-3.033000	3.250700	-9.858100	27.139794	0.000434	20.842515
1932.495202	-3.025500	3.250200	-9.831000	27.149417	0.000431	20.861201
1933.496425	-3.006100	3.252400	-9.776100	27.131970	0.000432	20.861198
1934.502108	-2.979100	3.250900	-9.684700	27.151222	0.000429	20.858750
1935.496511	-3.009800	3.251600	-9.786000	27.134669	0.000430	20.853007
1936.496639	-3.027900	3.250000	-9.839200	27.178707	0.000429	20.828073
1937.498748	-3.019500	3.249300	-9.808300	27.209296	0.000429	20.854098
1938.493460	-3.013500	3.248300	-9.787700	27.234699	0.000427	20.852623
1939.492849	-2.995400	3.250900	-9.737400	27.209986	0.000427	20.852895
1940.494039	-2.993300	3.250600	-9.728900	27.191299	0.000426	20.848799
1941.495179	-3.005400	3.247900	-9.760300	27.138474	0.000428	20.837395
1942.493895	-2.992500	3.246900	-9.715000	27.108573	0.000425	20.847150
1943.497106	-3.023300	3.247400	-9.816400	27.074699	0.000424	20.869979
1944.501875	-2.996800	3.246600	-9.728000	27.140329	0.000422	20.829777
1945.494383	-3.000900	3.246200	-9.739900	27.129511	0.000424	20.853509
1946.496768	-2.994800	3.247300	-9.724200	27.129261	0.000423	20.845197
1947.498446	-2.990900	3.246000	-9.707500	27.096802	0.000420	20.860441
1948.498802	-3.000000	3.244800	-9.732400	27.080470	0.000419	20.849232
1949.499527	-3.010900	3.245600	-9.771400	27.075453	0.000420	20.847506
1950.496837	-3.010300	3.243200	-9.761900	27.054810	0.000418	20.865151
1951.496783	-2.995600	3.244700	-9.718700	27.070517	0.000418	20.846335
1952.501427	-3.010900	3.242600	-9.762200	27.103143	0.000417	20.846431
1953.504246	-2.994700	3.243700	-9.712700	27.154974	0.000417	20.842135
1954.507125	-2.993200	3.245300	-9.712700	27.193856	0.000414	20.851370
1955.497455	-2.992200	3.244000	-9.706100	27.190753	0.000413	20.848250
1956.501998	-2.991800	3.242700	-9.700100	27.233380	0.000413	20.853192
1957.500340	-3.014200	3.240700	-9.766500	27.233552	0.000413	20.859530
1958.500779	-2.973000	3.242800	-9.639400	27.234692	0.000411	20.839340
1959.500147	-2.981000	3.241700	-9.661200	27.288603	0.000411	20.837143
1960.497780	-3.010100	3.240500	-9.753100	27.322221	0.000409	20.837295
1961.500404	-3.016900	3.239900	-9.773500	27.372929	0.000409	20.843734
1962.503747	-3.001300	3.240300	-9.723900	27.342612	0.000406	20.837893
1963.503351	-3.007400	3.237700	-9.735800	27.318102	0.000408	20.855910
1964.504870	-3.007300	3.239700	-9.742100	27.279351	0.000408	20.835897
1965.505669	-3.000900	3.239000	-9.719100	27.317239	0.000406	20.844137
1966.508342	-2.995000	3.238000	-9.696500	27.300594	0.000405	20.838299
1967.506622	-3.010800	3.236900	-9.744900	27.318776	0.000402	20.837623
1968.506118	-3.010100	3.236900	-9.742300	27.328653	0.000404	20.833809
1969.508601	-3.009200	3.237200	-9.740700	27.267748	0.000402	20.851727
1970.502620	-3.007400	3.236900	-9.733500	27.241452	0.000400	20.850407
1971.504683	-2.991200	3.237600	-9.684000	27.177541	0.000400	20.829746
1972.508562	-3.012300	3.237200	-9.748800	27.145139	0.000403	20.832718
1973.507407	-2.993900	3.235400	-9.685200	27.111990	0.000402	20.818345
1974.510721	-3.006200	3.234400	-9.722700	27.096605	0.000397	20.828950
1975.508473	-3.006400	3.234700	-9.723900	27.133750	0.000399	20.835489
1976.508185	-2.991800	3.234300	-9.675500	27.120106	0.000398	20.828404
1977.507486	-2.981900	3.234300	-9.642000	27.119490	0.000397	20.824466
1978.508295	-3.005300	3.234200	-9.718500	27.098148	0.000394	20.816278
1979.509368	-2.995100	3.232700	-9.681100	27.091551	0.000394	20.826238
1980.505320	-3.022300	3.230700	-9.762600	27.131181	0.000395	20.832430
1981.516074	-3.010600	3.230700	-9.724800	27.177012	0.000392	20.820679
1982.511241	-2.999500	3.231300	-9.691400	27.195745	0.000394	20.849003
1983.510044	-3.004600	3.230900	-9.706900	27.204483	0.000392	20.827447
1984.505882	-2.996700	3.232200	-9.685300	27.233017	0.000390	20.837655
1985.513885	-3.004500	3.230300	-9.705100	27.295067	0.000390	20.824206
1986.508731	-3.010900	3.229800	-9.724200	27.331288	0.000389	20.812278
1987.511357	-2.998700	3.230600	-9.685000	27.375573	0.000390	20.808463
1988.513987	-2.993900	3.229800	-9.668900	27.403160	0.000388	20.819620
1989.508569	-2.991500	3.229200	-9.659400	27.418319	0.000388	20.820645
1990.509169	-3.025300	3.228000	-9.764500	27.439630	0.000387	20.821222
1991.513334	-2.992700	3.230100	-9.665600	27.461735	0.000386	20.824969
1992.510820	-3.004500	3.228700	-9.699700	27.485253	0.000385	20.823974
1993.508591	-3.009100	3.226900	-9.709000	27.515837	0.000385	20.804484
1994.514531	-3.007600	3.226000	-9.700600	27.457697	0.000384	20.841294
1995.508607	-2.985300	3.228000	-9.635300	27.468192	0.000381	20.825301
1996.509099	-3.003100	3.226900	-9.688400	27.475338	0.000382	20.804042
1997.505126	-3.004900	3.226600	-9.694600	27.506077	0.000383	20.820742
1998.512855	-3.004700	3.225600	-9.690700	27.509277	0.000381	20.822066
1999.508389	-2.994600	3.224800	-9.656500	27.482343	0.000381	20.821046
2000.506468	-2.997000	3.224700	-9.662700	27.496710	0.000379	20.821276
2001.508089	-2.993800	3.223800	-9.650300	27.499538	0.000378	20.803258
2002.518776	-3.008400	3.224100	-9.698200	27.523375	0.000377	20.809224
2003.511708	-3.020300	3.222100	-9.730700	27.536402	0.000377	20.804312
2004.508787	-3.022200	3.222300	-9.737900	27.532114	0.000376	20.805688
2005.510980	-2.994500	3.222000	-9.647300	27.541916	0.000375	20.814127
2006.508587	-2.999800	3.221900	-9.663500	27.531797	0.000373	20.825284
2007.509582	-3.003900	3.221000	-9.674700	27.498692	0.000373	20.805252
2008.514625	-2.987200	3.222300	-9.624900	27.510948	0.000372	20.786763
2009.513363	-2.987000	3.220500	-9.617800	27.519111	0.000373	20.804459
2010.510922	-2.975400	3.220000	-9.579800	27.511352	0.000370	20.800446
2011.511137	-2.985600	3.220600	-9.614600	27.524604	0.000372	20.800502
2012.518391	-2.996500	3.220200	-9.649100	27.512600	0.000368	20.802176
2013.517984	-2.998800	3.218000	-9.648700	27.532372	0.000369	20.794094
2014.512517	-3.012500	3.217900	-9.692500	27.533820	0.000368	20.790810
2015.516472	-2.980200	3.218500	-9.590700	27.549495	0.000368	20.795201
2016.520166	-2.982500	3.219000	-9.599900	27.576012	0.000367	20.798647
2017.515686	-2.989400	3.217400	-9.617100	27.579240	0.000368	20.787671
2018.520017	-2.999700	3.216000	-9.646100	27.608411	0.000365	20.806591
2019.517118	-2.993900	3.215700	-9.626500	27.647079	0.000364	20.797136
2020.513702	-3.009400	3.216000	-9.676800	27.635003	0.000364	20.779295
2021.520929	-3.012100	3.215800	-9.685200	27.623500	0.000364	20.802807
2022.513696	-3.003700	3.214300	-9.654000	27.631166	0.000364	20.799616
2023.515142	-3.026600	3.214500	-9.727300	27.633796	0.000364	20.789934
2024.517076	-3.024800	3.214600	-9.722000	27.644912	0.000363	20.778834
2025.514346	-3.003500	3.213800	-9.651400	27.618200	0.000361	20.782302
2026.514734	-3.008100	3.211200	-9.658100	27.606792	0.000361	20.781254
2027.517097	-2.982700	3.212600	-9.580200	27.619343	0.000361	20.794831
2028.515670	-2.994900	3.211900	-9.618000	27.547570	0.000362	20.804643
2029.514468	-3.007400	3.211200	-9.656300	27.516913	0.000360	20.786601
2030.520494	-2.974600	3.211400	-9.552400	27.479115	0.000361	20.764219
2031.521813	-2.989900	3.211600	-9.600900	27.464083	0.000359	20.770433
2032.519014	-2.991300	3.210100	-9.601800	27.494144	0.000359	20.782185
2033.519217	-2.993700	3.209800	-9.608600	27.510290	0.000358	20.778515
2034.519468	-2.984500	3.210500	-9.580400	27.537033	0.000355	20.783610
2035.527750	-2.978200	3.210500	-9.560500	27.532616	0.000356	20.763519
2036.522105	-2.983800	3.209600	-9.576500	27.503597	0.000355	20.767039
2037.522198	-3.001100	3.208100	-9.627000	27.485865	0.000352	20.777174
2038.521715	-3.003100	3.209400	-9.637300	27.510318	0.000352	20.770483
2039.520481	-3.022700	3.206300	-9.690800	27.523567	0.000351	20.760104
2040.521607	-2.993400	3.207000	-9.597200	27.578159	0.000352	20.803178
2041.523118	-3.033400	3.205600	-9.722100	27.599589	0.000349	20.783964
2042.521330	-2.978500	3.206700	-9.549300	27.638571	0.000350	20.763444
2043.525111	-2.987600	3.204900	-9.574000	27.681479	0.000350	20.780542
2044.518508	-3.004000	3.205400	-9.628200	27.641701	0.000349	20.769438
2045.518068	-2.966600	3.206200	-9.510600	27.642819	0.000349	20.777202
2046.521442	-2.985400	3.204100	-9.564800	27.641258	0.000345	20.776105
2047.521563	-3.010900	3.203500	-9.644800	27.674045	0.000347	20.779226
2048.521235	-3.025800	3.201000	-9.684300	27.704202	0.000346	20.797718
2049.520543	-2.975500	3.204300	-9.533300	27.716431	0.000346	20.760238
2050.525750	-2.996900	3.201100	-9.592700	27.716256	0.000345	20.779502
2051.527196	-2.980200	3.201800	-9.541200	27.731632	0.000343	20.754198
2052.522254	-3.004000	3.200400	-9.612300	27.708076	0.000341	20.767952
2053.522304	-3.005800	3.200500	-9.618300	27.739797	0.000342	20.777113
2054.524223	-2.989600	3.200500	-9.567000	27.723432	0.000342	20.769654
2055.535609	-2.995800	3.201900	-9.591500	27.691690	0.000341	20.759523
2056.523693	-2.997700	3.199500	-9.590700	27.684576	0.000341	20.785556
2057.525911	-3.000200	3.198200	-9.593900	27.689461	0.000339	20.762969
2058.527713	-2.998800	3.200700	-9.597100	27.689914	0.000338	20.762003
2059.528854	-3.011100	3.198700	-9.631000	27.632374	0.000339	20.744880
2060.520782	-2.978300	3.199000	-9.527000	27.599216	0.000336	20.765096
2061.526686	-3.008300	3.198400	-9.620100	27.564224	0.000335	20.783468
2062.530324	-2.996900	3.197300	-9.580600	27.565364	0.000337	20.779398
2063.528069	-3.008000	3.196900	-9.615500	27.562810	0.000335	20.773984
2064.524319	-2.966300	3.197600	-9.484100	27.563609	0.000334	20.764356
2065.531946	-2.996700	3.196800	-9.578800	27.605844	0.000335	20.750428
2066.529449	-2.969500	3.195200	-9.487200	27.624841	0.000333	20.779975
2067.526771	-2.984400	3.194700	-9.533400	27.622787	0.000333	20.778383
2068.534394	-2.999100	3.194900	-9.580700	27.651233	0.000331	20.759590
2069.533549	-3.004900	3.192900	-9.593600	27.667528	0.000330	20.751330
2070.532622	-3.015300	3.193700	-9.628500	27.699095	0.000331	20.774561
2071.535704	-2.974800	3.196700	-9.508400	27.721592	0.000329	20.781079
2072.534467	-2.990300	3.192500	-9.545700	27.771160	0.000328	20.770269
2073.533394	-2.980300	3.192700	-9.513300	27.765932	0.000327	20.773068
2074.534698	-3.029600	3.190100	-9.664000	27.769574	0.000329	20.779105
2075.534873	-3.016600	3.190000	-9.622400	27.724342	0.000326	20.791907
2076.535490	-2.994500	3.190900	-9.554600	27.689569	0.000325	20.775407
2077.532010	-2.997900	3.188700	-9.558700	27.654827	0.000327	20.766525
2078.536729	-2.994800	3.190400	-9.554000	27.651226	0.000325	20.780446
2079.536441	-3.013100	3.189300	-9.608500	27.664198	0.000325	20.763627
2080.539086	-3.002000	3.188600	-9.571400	27.708716	0.000324	20.757215
2081.542265	-3.021100	3.187000	-9.627700	27.695892	0.000323	20.776079
2082.538590	-2.989100	3.187700	-9.527200	27.681556	0.000321	20.771136
2083.537873	-2.995900	3.186200	-9.544500	27.707492	0.000321	20.775899
2084.540308	-3.004700	3.188400	-9.578500	27.761083	0.000321	20.760128
2085.539785	-3.028100	3.186300	-9.646800	27.798108	0.000321	20.756136
2086.535801	-2.992200	3.186700	-9.534500	27.815952	0.000320	20.780733
2087.542055	-2.986700	3.185100	-9.511800	27.844522	0.000317	20.778192
2088.540750	-3.000800	3.184900	-9.555900	27.873728	0.000317	20.761119
2089.537654	-2.998600	3.185700	-9.551900	27.903703	0.000316	20.775167
2090.541197	-2.989100	3.184300	-9.517200	27.932215	0.000315	20.770673
2091.542248	-2.997500	3.184100	-9.542200	27.888972	0.000315	20.777410
2092.541605	-2.997600	3.182300	-9.538400	27.871070	0.000314	20.766030
2093.541943	-3.010800	3.182200	-9.580200	27.849817	0.000311	20.777357
2094.543842	-3.011000	3.182300	-9.580500	27.873570	0.000312	20.761908
2095.538944	-2.999000	3.184000	-9.547800	27.896506	0.000311	20.777881
2096.540653	-2.996300	3.180100	-9.528800	27.885794	0.000308	20.780850
2097.547429	-2.987700	3.182700	-9.508000	27.846537	0.000310	20.755090
2098.543979	-2.990000	3.180000	-9.506900	27.828089	0.000308	20.777775
2099.544877	-3.011000	3.180400	-9.575600	27.790746	0.000306	20.779548
2100.544438	-3.005700	3.177300	-9.549000	27.747448	0.000306	20.776278
2101.543050	-3.016300	3.176400	-9.578700	27.729122	0.000307	20.796717
2102.552717	-3.000600	3.177500	-9.534200	27.685846	0.000304	20.776402
2103.545771	-3.012000	3.176800	-9.567500	27.658714	0.000305	20.771385
2104.542868	-3.007300	3.177500	-9.554400	27.660201	0.000305	20.785684
2105.542126	-3.053500	3.175800	-9.694700	27.662314	0.000304	20.775482
2106.550153	-3.000000	3.176200	-9.527000	27.681110	0.000305	20.788231
2107.548303	-2.984700	3.176800	-9.480700	27.684978	0.000303	20.770312
2108.546952	-2.999800	3.174400	-9.521700	27.695763	0.000304	20.784010
2109.542236	-3.002400	3.175200	-9.532300	27.747420	0.000302	20.772931
2110.546637	-3.004300	3.175800	-9.539700	27.783454	0.000302	20.768416
2111.546826	-3.029500	3.173900	-9.614500	27.845742	0.000301	20.767092
2112.547213	-3.003000	3.172600	-9.526000	27.878693	0.000301	20.776073
2113.548231	-2.986400	3.172300	-9.473200	27.940213	0.000300	20.793897
2114.551230	-2.994900	3.174200	-9.505000	27.973185	0.000297	20.770185
2115.548777	-2.977500	3.171500	-9.441900	28.015085	0.000299	20.787704
2116.546894	-3.016500	3.171800	-9.566900	28.033533	0.000297	20.803429
2117.548332	-3.005000	3.169300	-9.521800	28.044015	0.000296	20.786006
2118.549730	-2.979000	3.170100	-9.441700	28.085592	0.000295	20.785659
2119.546059	-3.001600	3.169700	-9.512800	28.090232	0.000296	20.785114
2120.545778	-2.983700	3.169600	-9.456200	28.091965	0.000296	20.779746
2121.546563	-3.012600	3.167500	-9.540000	28.061148	0.000295	20.779070
2122.552901	-3.003900	3.167600	-9.514000	28.056666	0.000293	20.770291
2123.549219	-2.990700	3.167200	-9.470100	28.084777	0.000295	20.772984
2124.551079	-3.036900	3.165100	-9.610600	28.101238	0.000295	20.768692
2125.552780	-2.976500	3.166000	-9.423000	28.047172	0.000292	20.792028
2126.548100	-3.002900	3.166400	-9.507100	28.020122	0.000290	20.775231
2127.551003	-2.973100	3.165000	-9.408200	28.056912	0.000291	20.781445
2128.556204	-3.008700	3.166000	-9.524700	28.063556	0.000290	20.794296
2129.554263	-2.977700	3.164800	-9.422000	28.078407	0.000292	20.791228
2130.558031	-3.001100	3.163100	-9.491700	28.022551	0.000289	20.770564
2131.550878	-2.992100	3.162900	-9.462300	27.966593	0.000289	20.782991
2132.553139	-2.968900	3.162700	-9.388200	27.878896	0.000287	20.801883
2133.561041	-2.995400	3.161000	-9.467600	27.837906	0.000290	20.791448
2134.555011	-3.000100	3.160700	-9.480500	27.859503	0.000287	20.803702
2135.551142	-2.982700	3.160500	-9.426000	27.885689	0.000286	20.778847
2136.555647	-2.975800	3.161000	-9.406100	27.852212	0.000285	20.803949
2137.554370	-2.986000	3.159600	-9.433700	27.841601	0.000281	20.777149
2138.553679	-3.000400	3.158900	-9.476600	27.841896	0.000281	20.776972
2139.554099	-3.002400	3.158000	-9.480900	27.835919	0.000281	20.774276
2140.556458	-3.015500	3.157500	-9.520000	27.836538	0.000280	20.816624
2141.559897	-2.994600	3.157900	-9.456000	27.822900	0.000281	20.794838
2142.561323	-2.990100	3.157300	-9.440100	27.887714	0.000280	20.795585
2143.556986	-3.009400	3.155100	-9.493300	27.927062	0.000280	20.819540
2144.557038	-2.990500	3.154200	-9.431700	27.961817	0.000279	20.776760
2145.556458	-2.977900	3.154900	-9.393900	28.007735	0.000277	20.792160
2146.552535	-2.990900	3.155100	-9.435500	28.049682	0.000275	20.806883
2147.557649	-2.978000	3.154300	-9.392200	28.045812	0.000276	20.817212
2148.557929	-3.001600	3.152100	-9.459800	28.077294	0.000274	20.798643
2149.558437	-3.021900	3.150400	-9.519600	28.091815	0.000275	20.809467
2150.560761	-3.015200	3.151800	-9.502300	28.100666	0.000274	20.804152
2151.560227	-2.982700	3.150500	-9.395400	28.080932	0.000273	20.809892
2152.562019	-3.001800	3.150300	-9.455100	28.071635	0.000273	20.808119
2153.557002	-2.997100	3.151500	-9.443700	28.064295	0.000272	20.808317
2154.560739	-2.987400	3.149900	-9.408000	28.084251	0.000272	20.801852
2155.555097	-2.997900	3.148100	-9.436500	28.083506	0.000271	20.806318
2156.560439	-3.009100	3.146700	-9.468000	28.096793	0.000271	20.797408
2157.557707	-3.025400	3.146300	-9.515900	28.109658	0.000270	20.807514
2158.558936	-2.982300	3.146600	-9.381100	28.115383	0.000270	20.804269
2159.560617	-3.005400	3.145600	-9.452000	28.116944	0.000269	20.801573
2160.561755	-2.986100	3.145200	-9.390400	28.132389	0.000268	20.811431
2161.559904	-2.999700	3.144000	-9.430800	28.171899	0.000269	20.800947
2162.560063	-2.982300	3.145600	-9.380700	28.181147	0.000269	20.805989
2163.562878	-3.020100	3.144300	-9.493900	28.181962	0.000268	20.818190
2164.556198	-2.973500	3.143000	-9.344900	28.171179	0.000267	20.816817
2165.560185	-3.003800	3.143000	-9.440200	28.170957	0.000265	20.825128
2166.560540	-3.003300	3.140900	-9.431600	28.191308	0.000266	20.819538
2167.562787	-3.023200	3.140700	-9.493500	28.218719	0.000265	20.825797
2168.558610	-3.017300	3.140600	-9.475000	28.219984	0.000267	20.822804
2169.560471	-3.011200	3.139800	-9.454000	28.250891	0.000267	20.818360
2170.561111	-2.993600	3.140400	-9.399700	28.239736	0.000264	20.823250
2171.563957	-3.001300	3.136700	-9.413600	28.167355	0.000264	20.816286
2172.561289	-3.017100	3.136600	-9.462100	28.108431	0.000262	20.843737
2173.561212	-3.006100	3.137600	-9.431000	28.053048	0.000262	20.836823
2174.564772	-2.990400	3.136400	-9.377600	28.048190	0.000261	20.837623
2175.561511	-3.002300	3.136900	-9.416600	28.067601	0.000261	20.815911
2176.566806	-3.006700	3.135300	-9.426100	28.089317	0.000258	20.818806
2177.563017	-2.982200	3.136700	-9.352700	28.116608	0.000259	20.820674
2178.573885	-2.997000	3.136600	-9.398700	28.120400	0.000260	20.841087
2179.566162	-2.995300	3.134600	-9.388800	28.077464	0.000257	20.823470
2180.561895	-2.960900	3.134300	-9.279900	28.073492	0.000257	20.824687
2181.567306	-2.973500	3.133200	-9.316300	28.111198	0.000257	20.842729
2182.570461	-2.992900	3.131300	-9.370700	28.124214	0.000256	20.822642
2183.566394	-2.997000	3.131200	-9.382600	28.120098	0.000255	20.845999
2184.567607	-2.998600	3.129800	-9.384100	28.107135	0.000254	20.819199
2185.571684	-2.961400	3.132500	-9.275100	28.092035	0.000253	20.836714
2186.564497	-3.019000	3.129000	-9.445500	28.099472	0.000252	20.824762
2187.570731	-2.996600	3.127300	-9.369800	28.068111	0.000254	20.836339
2188.568711	-2.995400	3.128300	-9.369600	28.053558	0.000251	20.837337
2189.566463	-2.976900	3.127700	-9.310200	28.034520	0.000250	20.840458
2190.570158	-3.004700	3.125200	-9.387700	27.999462	0.000250	20.826506
2191.568759	-2.987300	3.124100	-9.332100	28.001251	0.000251	20.840634
2192.569298	-2.960500	3.124500	-9.249200	27.967756	0.000249	20.833947
2193.574251	-3.015000	3.122100	-9.412200	27.953919	0.000247	20.842779
2194.566165	-3.010700	3.123500	-9.403400	27.988061	0.000246	20.831626
2195.567013	-3.008600	3.123300	-9.394700	28.044338	0.000249	20.840383
2196.568673	-2.992800	3.120400	-9.337400	28.073542	0.000247	20.839909
2197.568913	-3.000300	3.120900	-9.362500	28.012581	0.000246	20.839711
2198.571737	-2.968300	3.120800	-9.262900	28.003806	0.000245	20.838939
2199.566560	-3.007200	3.119500	-9.380000	27.937164	0.000246	20.841561
2200.570662	-3.016600	3.119400	-9.407600	27.896006	0.000245	20.838069
2201.585458	-3.004700	3.117700	-9.367100	27.878101	0.000246	20.843755
2202.573409	-3.018300	3.118500	-9.411600	27.828218	0.000244	20.827691
2203.572302	-3.014400	3.116700	-9.392600	27.827399	0.000243	20.813116
2204.570537	-3.006700	3.115400	-9.365400	27.869406	0.000242	20.855866
2205.567808	-2.989600	3.115200	-9.312200	27.891647	0.000241	20.859284
2206.570878	-2.995000	3.114700	-9.328100	27.952421	0.000241	20.852176
2207.571454	-3.022800	3.112300	-9.406700	28.029949	0.000239	20.851977
2208.569073	-3.020300	3.112200	-9.398800	28.055536	0.000239	20.853078
2209.576844	-3.044900	3.112200	-9.474800	28.058682	0.000240	20.849607
2210.569433	-3.000900	3.110900	-9.333600	28.056805	0.000239	20.853407
2211.570130	-2.988100	3.110300	-9.292000	28.107053	0.000238	20.857996
2212.572991	-3.021200	3.109300	-9.392200	28.107503	0.000236	20.849914
2213.573898	-2.988400	3.108400	-9.288600	28.085368	0.000237	20.850866
2214.571823	-2.981800	3.108700	-9.267900	28.087351	0.000236	20.871352
2215.571680	-3.013500	3.107600	-9.363600	28.099576	0.000234	20.836245
2216.576036	-3.014700	3.107900	-9.368600	28.074837	0.000234	20.870135
2217.575269	-3.036500	3.104500	-9.425400	28.091723	0.000234	20.845409
2218.578014	-3.009400	3.105200	-9.343600	28.063560	0.000234	20.845034
2219.577425	-3.002800	3.104300	-9.320700	28.051341	0.000233	20.867346
2220.574999	-3.024000	3.103700	-9.383400	28.028116	0.000234	20.874787
2221.582682	-3.001500	3.104200	-9.316700	27.948753	0.000232	20.871242
2222.588363	-2.978600	3.102200	-9.237700	27.917517	0.000232	20.863511
2223.579393	-3.015400	3.101300	-9.350600	27.948088	0.000232	20.848763
2224.577227	-2.996700	3.101700	-9.293300	28.016073	0.000230	20.842751
2225.577157	-2.999600	3.100200	-9.298500	28.056210	0.000230	20.848540
2226.586522	-3.025900	3.099200	-9.377000	28.084945	0.000229	20.864664
2227.573258	-2.991600	3.097800	-9.266100	28.128725	0.000230	20.864165
2228.575202	-2.980800	3.099000	-9.234800	28.150939	0.000229	20.863769
2229.577850	-2.991800	3.096000	-9.261300	28.169110	0.000231	20.854562
2230.580491	-2.996900	3.096800	-9.280000	28.211993	0.000231	20.860750
2231.574317	-3.008400	3.094800	-9.309600	28.139438	0.000229	20.876846
2232.579877	-2.979100	3.094900	-9.219500	28.093083	0.000228	20.877596
2233.578288	-2.979500	3.096000	-9.223400	28.060782	0.000228	20.873056
2234.578149	-2.982700	3.093100	-9.224500	27.992583	0.000228	20.872211
2235.580917	-3.028200	3.092300	-9.361900	27.996080	0.000228	20.866249
2236.575225	-2.996500	3.090600	-9.259100	28.011203	0.000226	20.849704
2237.574880	-2.991600	3.091200	-9.246400	28.062448	0.000227	20.863354
2238.579585	-2.994400	3.091200	-9.255700	28.125093	0.000226	20.854820
2239.579330	-3.011700	3.088800	-9.301300	28.179261	0.000225	20.857668
2240.574030	-2.989600	3.087800	-9.229700	28.221152	0.000225	20.869497
2241.575501	-2.996200	3.087100	-9.248300	28.249142	0.000224	20.865434
2242.573538	-2.990800	3.086400	-9.229400	28.240936	0.000224	20.862862
2243.576018	-2.981000	3.086000	-9.198300	28.249810	0.000223	20.871796
2244.579536	-2.993300	3.084100	-9.229700	28.210450	0.000225	20.880058
2245.576323	-3.017700	3.083200	-9.303800	28.202025	0.000221	20.860198
2246.578526	-2.999800	3.083500	-9.249200	28.228522	0.000221	20.885924
2247.578780	-3.000700	3.081600	-9.244700	28.207431	0.000222	20.859950
2248.580565	-3.004100	3.080600	-9.253000	28.217567	0.000222	20.866361
2249.579496	-2.968300	3.081600	-9.145900	28.240672	0.000220	20.878243
2250.583486	-3.005400	3.079900	-9.255400	28.288363	0.000219	20.876473
2251.580126	-2.993400	3.079000	-9.215700	28.338899	0.000221	20.869510
2252.576904	-3.012600	3.077400	-9.268000	28.327625	0.000220	20.870961
2253.576129	-3.014200	3.076700	-9.273400	28.294264	0.000220	20.886207
2254.580679	-2.979800	3.077000	-9.167900	28.277166	0.000221	20.875157
2255.585577	-2.979900	3.074100	-9.159500	28.270794	0.000220	20.881544
2256.586603	-3.007900	3.075000	-9.248100	28.241596	0.000221	20.857837
2257.578768	-2.990700	3.074600	-9.193600	28.220034	0.000222	20.881172
2258.585084	-2.947100	3.074000	-9.057700	28.179755	0.000219	20.876657
2259.580938	-3.012300	3.069500	-9.244800	28.204935	0.000219	20.895367
2260.579320	-3.013000	3.069100	-9.246200	28.247599	0.000221	20.878578
2261.578972	-3.026900	3.068200	-9.286400	28.275282	0.000221	20.903130
2262.582788	-2.984300	3.069200	-9.157700	28.302600	0.000220	20.889858
2263.589324	-2.958200	3.069800	-9.079500	28.307379	0.000219	20.890877
2264.584128	-3.010400	3.066600	-9.230500	28.308497	0.000219	20.876356
2265.581628	-2.998300	3.065500	-9.190600	28.329192	0.000220	20.884866
2266.581161	-2.982000	3.064900	-9.138200	28.363371	0.000220	20.891779
2267.583427	-3.002000	3.064300	-9.197500	28.355243	0.000217	20.902086
2268.581688	-3.015600	3.062800	-9.234200	28.398470	0.000218	20.899146
2269.584339	-3.007500	3.062900	-9.209200	28.440574	0.000218	20.859518
2270.580883	-2.993900	3.061100	-9.163300	28.389720	0.000219	20.887965
2271.585522	-3.000100	3.060000	-9.179700	28.380056	0.000218	20.872546
2272.586176	-3.007700	3.059400	-9.200900	28.360676	0.000219	20.888117
2273.582698	-2.990300	3.057400	-9.142000	28.357851	0.000218	20.889065
2274.590181	-2.996000	3.055900	-9.154100	28.395350	0.000216	20.923502
2275.587261	-2.992700	3.056400	-9.145800	28.416465	0.000216	20.915368
2276.587082	-2.999300	3.054400	-9.159400	28.438845	0.000215	20.889543
2277.583079	-2.997600	3.052900	-9.150600	28.424646	0.000215	20.903218
2278.585230	-3.001700	3.054100	-9.166900	28.384744	0.000215	20.891963
2279.587123	-3.021700	3.050900	-9.218000	28.345473	0.000214	20.904576
2280.587538	-2.989800	3.051000	-9.120800	28.249897	0.000213	20.915028
2281.587915	-2.989300	3.051100	-9.120100	28.217826	0.000216	20.916878
2282.587871	-3.017200	3.047800	-9.194800	28.182679	0.000216	20.912314
2283.587373	-2.999200	3.048800	-9.143300	28.161063	0.000216	20.912364
2284.587867	-3.002800	3.047200	-9.149300	28.200035	0.000214	20.911769
2285.590302	-2.995400	3.044800	-9.117800	28.234366	0.000213	20.914090
2286.587294	-2.985100	3.045100	-9.088700	28.316684	0.000215	20.895504
2287.592988	-3.011500	3.043900	-9.165600	28.350688	0.000215	20.911723
2288.592844	-3.008100	3.041600	-9.148700	28.340233	0.000214	20.890767
2289.594745	-2.998000	3.040400	-9.114200	28.359888	0.000214	20.909133
2290.595911	-3.014700	3.039400	-9.162100	28.349901	0.000216	20.905241
2291.591341	-3.020900	3.037900	-9.175100	28.382273	0.000215	20.900854
2292.591323	-3.016300	3.037700	-9.162100	28.408319	0.000215	20.917596
2293.600311	-3.008100	3.036500	-9.133400	28.398905	0.000214	20.905273
2294.592271	-2.999900	3.037000	-9.109000	28.366488	0.000214	20.900606
2295.590273	-3.001300	3.035200	-9.108400	28.360194	0.000213	20.904226
2296.595726	-2.991200	3.033300	-9.072600	28.329961	0.000212	20.907449
2297.591714	-3.048400	3.031000	-9.238200	28.295338	0.000214	20.917158
2298.590356	-3.011100	3.031300	-9.126800	28.296305	0.000213	20.915760
2299.599326	-3.010400	3.028900	-9.117700	28.314203	0.000212	20.921453
2300.591256	-2.993100	3.029000	-9.065500	28.323843	0.000213	20.924520
2301.594780	-3.004900	3.026900	-9.095000	28.322708	0.000213	20.920533
2302.597661	-2.984500	3.026700	-9.032200	28.392798	0.000213	20.925200
2303.598417	-2.998800	3.025100	-9.070600	28.412996	0.000212	20.918039
2304.593572	-3.007500	3.024200	-9.094000	28.451832	0.000213	20.892189
2305.594405	-2.988900	3.021700	-9.029600	28.469774	0.000213	20.910729
2306.595979	-2.998500	3.022400	-9.060300	28.513611	0.000213	20.903667
2307.597200	-3.024300	3.018700	-9.128200	28.501422	0.000212	20.905142
2308.596550	-2.976000	3.020600	-8.987700	28.526699	0.000211	20.908786
2309.597376	-2.968700	3.019800	-8.962400	28.567263	0.000212	20.907913
2310.594686	-2.982900	3.017100	-8.999100	28.611714	0.000213	20.895310
2311.600403	-2.987500	3.016600	-9.011100	28.645761	0.000212	20.913478
2312.598287	-3.020400	3.015000	-9.105100	28.691425	0.000212	20.901151
2313.602632	-2.999900	3.012800	-9.036800	28.658423	0.000210	20.903946
2314.602167	-3.024700	3.012500	-9.110300	28.656020	0.000212	20.920965
2315.598798	-2.999900	3.011100	-9.032100	28.687782	0.000211	20.902697
2316.604413	-2.986900	3.010400	-8.990400	28.706939	0.000214	20.908716
2317.603418	-2.999900	3.007400	-9.020900	28.724651	0.000212	20.902849
2318.597602	-3.003200	3.005700	-9.025100	28.678420	0.000211	20.886631
2319.605453	-2.992800	3.004700	-8.991800	28.631115	0.000212	20.901572
2320.601889	-2.949500	3.007700	-8.870900	28.599203	0.000213	20.897882
2321.598242	-2.993300	3.004200	-8.991200	28.590578	0.000214	20.881610
2322.601672	-2.974000	3.002600	-8.929100	28.603989	0.000213	20.888003
2323.604466	-2.997500	3.001100	-8.994300	28.642438	0.000212	20.903019
2324.600239	-2.971100	3.000400	-8.913600	28.648730	0.000213	20.882332
2325.600315	-3.015000	2.997300	-9.035000	28.628729	0.000212	20.902489
2326.603009	-3.005000	2.998600	-9.009300	28.650114	0.000211	20.885148
2327.605767	-3.008000	2.995800	-9.010400	28.681304	0.000211	20.896173
2328.602972	-2.999300	2.994200	-8.979700	28.712500	0.000212	20.885396
2329.603068	-3.007900	2.993000	-9.001400	28.733556	0.000212	20.880527
2330.606129	-2.964900	2.992300	-8.869600	28.732141	0.000213	20.888110
2331.604726	-2.999000	2.991400	-8.970800	28.766525	0.000212	20.880545
2332.604527	-2.974600	2.989900	-8.892400	28.771703	0.000210	20.903777
2333.604658	-3.013500	2.988600	-9.005400	28.722870	0.000210	20.870238
2334.605376	-2.972200	2.986700	-8.875700	28.695265	0.000211	20.887002
2335.603398	-3.005000	2.983300	-8.963500	28.740333	0.000211	20.866965
2336.600778	-2.972300	2.984100	-8.869200	28.714288	0.000211	20.887671
2337.604982	-2.989500	2.981500	-8.912300	28.713196	0.000210	20.884200
2338.601367	-3.001500	2.981600	-8.947400	28.729893	0.000210	20.883001
2339.603916	-3.015500	2.978900	-8.982500	28.755881	0.000211	20.884996
2340.607280	-3.020600	2.977200	-8.991900	28.738436	0.000211	20.867425
2341.606365	-2.990500	2.975800	-8.898700	28.739869	0.000210	20.884989
2342.606604	-2.994200	2.976400	-8.911000	28.738900	0.000210	20.876427
2343.605209	-2.970700	2.975500	-8.838600	28.728045	0.000210	20.883984
2344.604966	-3.017600	2.971600	-8.965800	28.746874	0.000213	20.877821
2345.609072	-3.034600	2.968400	-9.006600	28.732626	0.000210	20.881961
2346.603887	-3.013500	2.968200	-8.944000	28.668928	0.000209	20.878019
2347.606713	-3.019600	2.968500	-8.962900	28.626081	0.000211	20.884176
2348.610836	-3.007900	2.967100	-8.923500	28.614881	0.000208	20.876215
2349.607561	-3.018000	2.965900	-8.949900	28.620382	0.000208	20.877963
2350.608902	-3.010900	2.963300	-8.921800	28.659428	0.000208	20.880779
2351.615735	-3.032000	2.960900	-8.976600	28.680982	0.000207	20.872616
2352.608672	-3.001800	2.961100	-8.887300	28.701076	0.000206	20.879580
2353.604795	-3.016500	2.959000	-8.925000	28.714106	0.000206	20.891281
2354.609004	-2.996800	2.957100	-8.861600	28.688984	0.000208	20.885418
2355.605330	-3.002700	2.955400	-8.873000	28.636132	0.000207	20.881023
2356.608575	-3.023100	2.954400	-8.930600	28.659696	0.000206	20.886738
2357.609981	-2.995400	2.952900	-8.844400	28.706599	0.000207	20.885142
2358.611821	-3.008500	2.950700	-8.875200	28.731818	0.000206	20.888259
2359.607782	-3.004800	2.949200	-8.861000	28.749906	0.000206	20.871392
2360.606800	-3.014400	2.947000	-8.883000	28.768064	0.000205	20.873561
2361.610166	-3.011300	2.946600	-8.872200	28.759194	0.000208	20.873636
2362.610816	-2.998400	2.945000	-8.829600	28.781862	0.000205	20.877503
2363.610658	-2.995800	2.942900	-8.815100	28.821057	0.000204	20.861036
2364.609433	-3.003000	2.942000	-8.834000	28.844096	0.000204	20.887562
2365.611787	-2.993600	2.941300	-8.803200	28.844791	0.000203	20.863608
2366.613402	-3.019900	2.937900	-8.870600	28.887598	0.000204	20.860739
2367.610920	-2.995900	2.937100	-8.798400	28.828690	0.000204	20.875836
2368.611294	-2.982800	2.937800	-8.762100	28.832258	0.000203	20.875638
2369.613364	-2.998800	2.934200	-8.797900	28.814499	0.000202	20.865335
2370.615938	-2.979000	2.934400	-8.740300	28.809595	0.000203	20.845697
2371.611942	-2.997700	2.931400	-8.786800	28.821689	0.000203	20.853612
2372.611786	-2.974500	2.929800	-8.713600	28.841110	0.000204	20.870805
2373.613291	-3.015200	2.927200	-8.825500	28.865167	0.000204	20.852367
2374.613959	-2.988300	2.927600	-8.748200	28.881043	0.000203	20.849395
2375.610519	-3.007600	2.925700	-8.798100	28.894278	0.000204	20.854192
2376.613494	-2.992400	2.921700	-8.742200	28.921706	0.000206	20.863332
2377.612237	-2.978500	2.921100	-8.699900	28.925742	0.000204	20.853173
2378.614450	-3.011300	2.918700	-8.788200	28.898995	0.000206	20.867953
2379.614971	-2.984400	2.918500	-8.709500	28.885546	0.000203	20.879533
2380.618924	-3.018100	2.916900	-8.802800	28.866969	0.000206	20.865561
2381.614062	-3.011200	2.914600	-8.775100	28.869470	0.000204	20.865709
2382.610556	-3.003400	2.914200	-8.751600	28.834495	0.000204	20.870780
2383.617119	-2.999300	2.912000	-8.732800	28.815324	0.000206	20.848149
2384.623950	-3.030300	2.909400	-8.815600	28.780692	0.000204	20.848825
2385.613622	-2.989100	2.909200	-8.695600	28.753938	0.000203	20.842264
2386.612993	-3.007500	2.905200	-8.736100	28.784612	0.000204	20.836179
2387.615268	-3.014500	2.902400	-8.747800	28.789790	0.000204	20.841868
2388.614839	-3.026500	2.902100	-8.782300	28.756467	0.000204	20.857139
2389.618699	-3.001300	2.902000	-8.708100	28.709742	0.000204	20.853697
2390.617301	-2.976900	2.899200	-8.629100	28.716803	0.000204	20.854171
2391.618568	-2.980300	2.896800	-8.631600	28.746234	0.000207	20.842565
2392.627488	-2.986500	2.895400	-8.646300	28.810676	0.000206	20.850105
2393.623043	-3.007300	2.893000	-8.699500	28.852518	0.000205	20.851478
2394.619288	-3.002200	2.891300	-8.679200	28.913360	0.000205	20.834063
2395.615355	-2.982100	2.891100	-8.620400	28.924280	0.000205	20.844115
2396.625062	-2.975800	2.888700	-8.595200	28.978034	0.000205	20.825252
2397.617326	-2.998300	2.885500	-8.650300	28.995665	0.000205	20.844911
2398.620193	-2.978500	2.884200	-8.588900	28.994653	0.000208	20.828720
2399.619865	-2.994700	2.882400	-8.630800	28.991949	0.000206	20.843064
2400.622547	-2.994100	2.879900	-8.622000	29.006071	0.000204	20.857766
2401.619905	-3.015400	2.876900	-8.673800	29.039828	0.000206	20.858587
2402.622099	-3.024300	2.876000	-8.696600	29.061226	0.000204	20.843163
2403.621854	-3.021700	2.874200	-8.682000	29.084186	0.000205	20.849702
2404.619054	-3.012900	2.871200	-8.650000	29.067315	0.000206	20.850721
2405.623381	-3.005000	2.870000	-8.623800	29.017601	0.000204	20.842357
2406.625635	-2.993200	2.869400	-8.587200	29.010124	0.000204	20.848573
2407.622061	-2.993500	2.866700	-8.579800	29.037443	0.000205	20.847176
2408.623018	-2.991100	2.865800	-8.571200	29.012277	0.000206	20.836992
2409.621757	-2.983100	2.863500	-8.541300	29.005516	0.000207	20.839190
2410.624097	-2.992900	2.861100	-8.561900	28.939499	0.000206	20.861817
2411.623308	-3.026400	2.857200	-8.645300	28.890502	0.000206	20.850389
2412.623930	-3.011800	2.856400	-8.601900	28.853614	0.000205	20.846419
2413.622844	-3.007200	2.854300	-8.582500	28.850618	0.000207	20.840081
2414.619485	-3.048200	2.851400	-8.690100	28.797599	0.000205	20.844044
2415.633085	-3.028100	2.848700	-8.624900	28.792892	0.000207	20.840251
2416.623997	-3.007700	2.848600	-8.566400	28.790707	0.000207	20.848482
2417.620766	-2.993300	2.847400	-8.522100	28.839659	0.000207	20.833783
2418.623669	-3.009200	2.842400	-8.552000	28.852167	0.000205	20.850176
2419.628849	-3.022800	2.840800	-8.586100	28.875845	0.000205	20.858856
2420.622313	-2.998100	2.840000	-8.513500	28.897099	0.000205	20.846129
2421.626865	-3.027600	2.836400	-8.586700	28.919693	0.000206	20.852770
2422.624740	-3.019700	2.836400	-8.563500	28.984831	0.000205	20.849642
2423.625381	-3.000800	2.832800	-8.498900	29.006082	0.000206	20.840708
2424.624901	-3.005100	2.832000	-8.509400	29.025152	0.000206	20.846171
2425.631059	-3.019900	2.827200	-8.536600	29.022599	0.000204	20.833642
2426.629202	-3.004400	2.826900	-8.491900	29.024703	0.000205	20.849512
2427.628316	-2.984900	2.824600	-8.430800	29.043056	0.000204	20.848563
2428.631781	-2.987400	2.822700	-8.432000	29.086817	0.000205	20.822956
2429.627174	-3.028300	2.819700	-8.538300	29.114679	0.000205	20.833012
2430.635450	-3.009700	2.817700	-8.478800	29.148207	0.000204	20.835029
2431.625228	-3.038300	2.813800	-8.547700	29.149672	0.000205	20.845039
2432.629891	-2.971000	2.813800	-8.359000	29.130622	0.000204	20.840068
2433.627234	-2.996400	2.810700	-8.420300	29.070761	0.000205	20.816736
2434.632157	-3.000800	2.808700	-8.427600	29.031822	0.000205	20.830133
2435.631301	-2.973800	2.807100	-8.346900	29.016144	0.000202	20.814811
2436.630670	-2.993900	2.804100	-8.393900	29.006434	0.000203	20.855761
2437.633112	-2.977700	2.800800	-8.339100	29.015298	0.000205	20.827235
2438.630278	-3.022600	2.797300	-8.453700	29.023126	0.000205	20.839863
2439.630844	-2.984500	2.796500	-8.345100	29.015941	0.000205	20.834046
2440.626959	-3.001700	2.793900	-8.385100	28.979654	0.000204	20.816927
2441.629867	-2.982200	2.792700	-8.327300	28.988965	0.000204	20.844325
2442.633090	-3.020400	2.788000	-8.419800	28.925107	0.000204	20.837362
2443.629945	-3.008000	2.785700	-8.377700	28.909972	0.000207	20.825908
2444.636086	-2.999900	2.782000	-8.345000	28.934738	0.000207	20.835210
2445.634346	-2.987400	2.780500	-8.305100	28.987697	0.000205	20.817918
2446.634686	-2.994900	2.777900	-8.318500	29.033445	0.000206	20.836983
2447.637015	-3.012100	2.774400	-8.356300	29.093402	0.000206	20.812523
2448.632143	-3.001600	2.770800	-8.315600	29.128916	0.000204	20.826022
2449.630244	-3.018500	2.768300	-8.354900	29.176167	0.000203	20.843289
2450.635647	-3.008200	2.766800	-8.321400	29.140156	0.000204	20.831184
2451.632213	-3.021000	2.762200	-8.343600	29.174085	0.000205	20.842139
2452.631820	-3.003200	2.759800	-8.287400	29.229898	0.000203	20.829631
2453.645455	-2.997800	2.756900	-8.263500	29.274571	0.000204	20.840037
2454.633882	-3.021900	2.753700	-8.319900	29.256194	0.000204	20.842854
2455.636831	-2.980400	2.752500	-8.201600	29.210923	0.000203	20.832320
2456.634251	-3.029700	2.747700	-8.323000	29.168130	0.000203	20.830449
2457.635499	-3.028700	2.744500	-8.311700	29.123923	0.000204	20.816249
2458.630895	-3.007000	2.740300	-8.239600	29.166718	0.000204	20.828078
2459.634283	-3.002500	2.739400	-8.224000	29.202823	0.000203	20.824632
2460.635514	-2.997400	2.735900	-8.199000	29.226520	0.000203	20.821012
2461.632553	-2.996600	2.732100	-8.186200	29.277187	0.000203	20.842674
2462.633538	-2.985200	2.729900	-8.147300	29.258659	0.000203	20.832063
2463.638809	-2.999200	2.725400	-8.172100	29.260295	0.000204	20.819013
2464.639692	-2.982800	2.723000	-8.119700	29.297983	0.000202	20.814795
2465.635707	-3.018100	2.718300	-8.203300	29.272180	0.000203	20.817714
2466.636739	-2.964100	2.715700	-8.048500	29.271190	0.000202	20.802018
2467.632893	-2.986400	2.712400	-8.098900	29.233645	0.000201	20.806381
2468.637507	-3.001300	2.709300	-8.130600	29.150113	0.000203	20.825096
2469.637172	-3.016800	2.704200	-8.157200	29.124183	0.000203	20.824098
2470.637581	-2.986900	2.701600	-8.068500	29.066847	0.000204	20.822276
2471.636544	-2.978300	2.698500	-8.035800	29.051936	0.000203	20.799665
2472.635244	-2.972600	2.695300	-8.010800	29.072098	0.000205	20.810970
2473.640446	-2.999000	2.690000	-8.065200	29.099461	0.000204	20.808671
2474.641539	-2.963500	2.689100	-7.967900	29.131537	0.000203	20.814438
2475.640656	-2.979200	2.682600	-7.991200	29.203403	0.000204	20.811466
2476.636830	-2.971000	2.679400	-7.959400	29.239657	0.000203	20.807223
2477.638931	-3.020300	2.676100	-8.081100	29.288191	0.000203	20.797341
2478.637935	-3.024900	2.670200	-8.074800	29.307084	0.000204	20.800260
2479.641188	-2.983700	2.667600	-7.958600	29.374237	0.000202	20.799662
2480.638462	-3.006000	2.662500	-8.002600	29.390577	0.000203	20.811388
2481.638267	-3.012800	2.659600	-8.011400	29.434744	0.000203	20.816551
2482.640399	-3.016100	2.655200	-8.007100	29.491611	0.000202	20.829774
2483.638188	-2.992200	2.650800	-7.930000	29.470963	0.000203	20.793314
2484.639617	-3.018000	2.645500	-7.982200	29.513224	0.000202	20.794662
2485.638873	-2.977400	2.642200	-7.866000	29.512157	0.000202	20.810656
2486.639604	-3.006300	2.637800	-7.929200	29.518321	0.000203	20.816396
2487.643493	-3.005400	2.634900	-7.917700	29.536789	0.000203	20.825528
2488.638800	-3.029300	2.628800	-7.961300	29.506958	0.000202	20.812528
2489.642640	-2.999000	2.624600	-7.870200	29.526985	0.000202	20.810430
2490.644096	-3.021800	2.620100	-7.916400	29.550900	0.000203	20.800398
2491.639295	-3.018800	2.614000	-7.890500	29.552459	0.000203	20.798176
2492.647247	-2.994700	2.610200	-7.815400	29.577956	0.000203	20.813922
2493.648958	-3.030400	2.603700	-7.889600	29.601127	0.000202	20.795080
2494.644038	-2.977500	2.600400	-7.741400	29.598052	0.000204	20.793878
2495.647697	-3.022100	2.594600	-7.839500	29.516732	0.000203	20.806733
2496.646824	-3.044400	2.587800	-7.876200	29.450676	0.000204	20.812695
2497.646804	-2.995200	2.584600	-7.740100	29.382166	0.000201	20.787264
2498.649926	-2.951500	2.579400	-7.611900	29.374962	0.000204	20.784271
2499.648746	-2.977300	2.574600	-7.664400	29.379048	0.000206	20.787915
2500.646007	-2.999300	2.568300	-7.702300	29.353591	0.000203	20.799716
2501.650703	-2.980800	2.561500	-7.633800	29.301443	0.000202	20.805480
2502.649760	-2.953900	2.557300	-7.553700	29.276677	0.000202	20.803280
2503.646273	-3.000500	2.551700	-7.655100	29.308918	0.000202	20.795470
2504.648195	-2.993100	2.545200	-7.616900	29.349477	0.000202	20.785138
2505.645848	-2.995200	2.539100	-7.603700	29.383493	0.000205	20.780542
2506.645647	-2.983400	2.533000	-7.555300	29.402609	0.000205	20.794119
2507.646505	-2.972200	2.527300	-7.510800	29.363735	0.000205	20.781016
2508.653715	-2.978100	2.521300	-7.508200	29.361976	0.000204	20.772131
2509.650834	-2.991000	2.513900	-7.518100	29.332955	0.000204	20.777495
2510.653026	-3.023100	2.506200	-7.575700	29.368190	0.000204	20.806843
2511.656671	-3.019400	2.500200	-7.547600	29.369201	0.000206	20.791267
2512.657106	-2.991000	2.494700	-7.460500	29.327109	0.000205	20.791992
