LabVIEW Measurement	
Writer_Version	2
Reader_Version	2
Separator	Tab
Decimal_Separator	.
Multi_Headings	No
X_Columns	One
Time_Pref	Absolute
Operator	admin
Description	Clolumns are: time, Current, Voltage, Power, Battery Temp, and Chamber Temp
Date	2024/08/16
Time	13:06:06.104549407958984375
***End_of_Header***	
	
Channels	6						
Samples	1	1	1	1	1	1	
Date	2024/08/26	2024/08/26	2024/08/26	2024/08/26	2024/08/26	2024/08/26	
Time	16:09:02.8188128471374511719	16:09:02.8286046981811523437	16:09:02.8367533683776855469	16:09:02.8003473281860351562	16:09:02.8003473281860351562	16:09:02.8003473281860351562	
X_Dimension	Time	Time	Time	Time	Time	Time	
X0	0.0000000000000000E+0	0.0000000000000000E+0	0.0000000000000000E+0	0.0000000000000000E+0	0.0000000000000000E+0	0.0000000000000000E+0	
Delta_X	1.000000	1.000000	1.000000	1.000000	1.000000	1.000000	
***End_of_Header***							
X_Value	Untitled	Untitled 1	Untitled 2	Untitled 3	Untitled 4	Untitled 5	Comment
0.000000	0.029221	4.108300	0.120060	20.949799	0.000954	20.766312
0.997702	-3.006700	3.947700	-11.868000	20.959183	0.000957	20.760998
1.998099	-3.002200	3.940300	-11.829000	20.968412	0.000954	20.748416
3.002108	-2.996600	3.936200	-11.794000	20.986286	0.000954	20.759656
3.996092	-2.983600	3.932100	-11.731000	20.960988	0.000954	20.759958
4.996284	-2.998400	3.928200	-11.777000	20.958389	0.000953	20.756884
5.998298	-3.014600	3.925500	-11.833000	20.967077	0.000952	20.748504
6.996766	-2.999100	3.923300	-11.766000	20.957528	0.000950	20.757446
7.998749	-2.997600	3.920900	-11.752000	20.954038	0.000948	20.745894
9.000167	-2.976000	3.918200	-11.659000	20.986479	0.000949	20.735665
9.998900	-3.007700	3.915600	-11.776000	20.958810	0.000949	20.752564
10.996110	-3.005500	3.916500	-11.770000	20.988831	0.000946	20.753666
12.001280	-3.013200	3.912900	-11.790000	20.988111	0.000945	20.729237
12.998542	-3.024300	3.911500	-11.827000	20.990629	0.000946	20.764000
13.995835	-3.012300	3.910400	-11.778000	20.990088	0.000944	20.740224
14.996655	-3.027600	3.907600	-11.830000	20.987767	0.000945	20.754973
15.996953	-2.987300	3.909300	-11.678000	20.993364	0.000945	20.733069
16.996665	-3.008100	3.908100	-11.755000	21.000124	0.000943	20.723708
17.998420	-2.983500	3.906800	-11.655000	21.001104	0.000943	20.742707
18.998175	-2.980600	3.904900	-11.638000	21.017450	0.000944	20.745780
19.998127	-3.009800	3.904900	-11.752000	21.011238	0.000942	20.757585
20.999712	-2.995100	3.903100	-11.689000	21.010936	0.000943	20.748274
21.999726	-2.998800	3.903600	-11.706000	20.999172	0.000942	20.731291
23.001225	-3.008500	3.901500	-11.736000	21.011905	0.000942	20.729802
24.001151	-2.999200	3.901600	-11.700000	21.045637	0.000942	20.759274
25.001301	-2.996900	3.901300	-11.691000	21.051301	0.000941	20.729377
26.003627	-2.991300	3.901000	-11.668000	21.041230	0.000939	20.730683
27.003591	-2.984400	3.899200	-11.636000	21.052533	0.000941	20.727290
28.002840	-2.989100	3.898100	-11.651000	21.054503	0.000938	20.746805
29.007010	-2.999100	3.897000	-11.686000	21.060740	0.000938	20.735499
30.004309	-2.992700	3.897300	-11.662000	21.063363	0.000937	20.726268
31.004407	-3.006700	3.897300	-11.717000	21.069926	0.000938	20.747058
32.003512	-3.022700	3.895200	-11.772000	21.067383	0.000938	20.729341
33.006175	-3.008300	3.895800	-11.719000	21.067309	0.000936	20.721681
34.004354	-3.022400	3.894600	-11.770000	21.071003	0.000936	20.736282
35.004216	-3.000400	3.894000	-11.682000	21.075972	0.000936	20.726078
36.006522	-2.999900	3.892400	-11.676000	21.079863	0.000937	20.719538
37.007160	-3.001100	3.892100	-11.679000	21.088975	0.000935	20.733394
38.005235	-3.011900	3.891400	-11.720000	21.098301	0.000934	20.711902
39.004723	-2.996600	3.891400	-11.659000	21.101626	0.000934	20.717125
40.007629	-3.000600	3.890600	-11.674000	21.111303	0.000933	20.726805
41.005018	-2.995900	3.891500	-11.658000	21.112743	0.000933	20.737729
42.006361	-2.995900	3.892100	-11.660000	21.144183	0.000932	20.725555
43.006124	-3.021400	3.888800	-11.749000	21.137546	0.000931	20.723184
44.007329	-2.999700	3.890500	-11.669000	21.141338	0.000932	20.720813
45.009648	-2.985200	3.889200	-11.608000	21.139892	0.000934	20.707037
46.009806	-2.996600	3.889700	-11.654000	21.128164	0.000930	20.712850
47.009505	-2.981000	3.890200	-11.596000	21.169698	0.000931	20.715042
48.010268	-3.001900	3.888900	-11.673000	21.178908	0.000930	20.726626
49.011814	-2.986500	3.888000	-11.611000	21.171194	0.000929	20.705632
50.011861	-3.022900	3.887500	-11.749000	21.166935	0.000930	20.724606
51.012012	-2.966700	3.887700	-11.531000	21.176457	0.000929	20.726071
52.015188	-2.985500	3.887200	-11.604000	21.186190	0.000930	20.720634
53.012599	-2.997300	3.886600	-11.649000	21.176204	0.000931	20.719180
54.015406	-3.009700	3.886800	-11.698000	21.195368	0.000931	20.700890
55.017003	-3.019100	3.886900	-11.733000	21.202225	0.000930	20.723872
56.015799	-2.998900	3.885600	-11.651000	21.218888	0.000931	20.719679
57.013285	-3.001700	3.885400	-11.662000	21.207463	0.000928	20.718681
58.017354	-2.993700	3.886000	-11.632000	21.225370	0.000928	20.734224
59.014647	-3.007000	3.885300	-11.683000	21.217828	0.000928	20.716721
60.015603	-3.009700	3.883900	-11.687000	21.214542	0.000927	20.707269
61.018344	-2.999000	3.884400	-11.649000	21.223554	0.000928	20.709647
62.012781	-3.002700	3.884600	-11.662000	21.237693	0.000928	20.722369
63.017298	-3.005900	3.883200	-11.671000	21.230601	0.000927	20.716223
64.016563	-3.018100	3.881900	-11.714000	21.248236	0.000927	20.687395
65.013443	-3.002200	3.884100	-11.659000	21.249455	0.000927	20.709953
66.014964	-3.003600	3.883900	-11.663000	21.258787	0.000927	20.721660
67.018875	-2.987200	3.882700	-11.597000	21.264990	0.000927	20.720280
68.016773	-2.996900	3.881900	-11.633000	21.273669	0.000928	20.712840
69.014926	-2.979200	3.881600	-11.562000	21.290307	0.000927	20.712415
70.019045	-2.992900	3.881600	-11.616000	21.279178	0.000926	20.704126
71.016193	-2.992200	3.881200	-11.612000	21.289303	0.000927	20.712359
72.016895	-2.991000	3.881000	-11.607000	21.305066	0.000926	20.717698
73.022528	-2.991500	3.881900	-11.612000	21.299920	0.000924	20.714446
74.017221	-2.993100	3.881400	-11.617000	21.308918	0.000925	20.704955
75.016759	-2.996600	3.879800	-11.625000	21.313165	0.000925	20.712051
76.022326	-3.000800	3.879500	-11.641000	21.308672	0.000926	20.704709
77.017357	-3.001900	3.879600	-11.645000	21.332264	0.000925	20.697966
78.017747	-3.027600	3.879600	-11.745000	21.307391	0.000925	20.703902
79.021684	-3.004900	3.879600	-11.657000	21.341342	0.000926	20.707523
80.018220	-2.998600	3.880100	-11.634000	21.336768	0.000924	20.711956
81.018468	-2.998700	3.878800	-11.630000	21.340763	0.000926	20.692718
82.021164	-2.996900	3.879700	-11.625000	21.341501	0.000924	20.689188
83.021212	-3.000500	3.878300	-11.636000	21.347637	0.000924	20.703389
84.018126	-2.997500	3.878400	-11.625000	21.359362	0.000925	20.716070
85.020613	-3.005000	3.877500	-11.651000	21.355940	0.000924	20.693203
86.019848	-3.022200	3.877500	-11.718000	21.346560	0.000923	20.697569
87.016912	-3.008600	3.876600	-11.662000	21.380411	0.000924	20.709153
88.022290	-3.009500	3.875800	-11.661000	21.348905	0.000925	20.726944
89.021197	-3.013300	3.876700	-11.681000	21.363221	0.000924	20.692427
90.017921	-2.988500	3.878000	-11.587000	21.377487	0.000924	20.690579
91.019930	-3.013800	3.875300	-11.678000	21.393871	0.000926	20.704127
92.019591	-3.010000	3.874800	-11.662000	21.404346	0.000924	20.704651
93.021085	-3.008600	3.874300	-11.655000	21.407737	0.000924	20.702828
94.021613	-2.985700	3.875500	-11.570000	21.400734	0.000923	20.704356
95.020532	-2.992200	3.876000	-11.596000	21.416120	0.000927	20.691774
96.020033	-2.995300	3.874100	-11.602000	21.423327	0.000924	20.699933
97.024108	-3.003400	3.875200	-11.638000	21.442461	0.000924	20.699638
98.021433	-3.003000	3.874100	-11.632000	21.442928	0.000926	20.674499
99.020647	-2.994900	3.874800	-11.602000	21.446073	0.000926	20.695666
100.026282	-2.981700	3.876200	-11.557000	21.464001	0.000923	20.697956
101.022566	-3.021000	3.873000	-11.699000	21.470610	0.000925	20.695560
102.022295	-2.990400	3.874400	-11.585000	21.463853	0.000925	20.691170
103.029327	-2.983600	3.874100	-11.557000	21.455330	0.000924	20.699712
104.026147	-2.995400	3.874300	-11.604000	21.482587	0.000923	20.697587
105.024144	-3.005700	3.872800	-11.639000	21.492163	0.000924	20.674924
106.027485	-3.011300	3.873200	-11.662000	21.519591	0.000925	20.693836
107.025909	-2.982900	3.872500	-11.550000	21.502858	0.000926	20.714553
108.024772	-2.996400	3.873800	-11.607000	21.525979	0.000925	20.673674
109.028282	-3.014200	3.872600	-11.671000	21.531093	0.000924	20.686853
110.031318	-3.002100	3.871600	-11.622000	21.521893	0.000925	20.698037
111.026423	-2.987100	3.872800	-11.567000	21.533690	0.000924	20.699884
112.030961	-2.992900	3.872700	-11.590000	21.527302	0.000926	20.680688
113.030102	-2.996600	3.871000	-11.599000	21.541019	0.000925	20.679241
114.026982	-2.994800	3.871500	-11.593000	21.558004	0.000925	20.671106
115.028856	-3.018200	3.870600	-11.682000	21.571893	0.000927	20.679789
116.027366	-3.010700	3.870300	-11.651000	21.549025	0.000926	20.691995
117.028933	-3.011800	3.870100	-11.655000	21.563142	0.000925	20.703277
118.030078	-3.003300	3.870100	-11.622000	21.581942	0.000926	20.688423
119.029998	-2.990000	3.869000	-11.567000	21.574939	0.000927	20.683312
120.031482	-3.002500	3.871100	-11.622000	21.575216	0.000927	20.667941
121.035113	-2.995500	3.869000	-11.589000	21.585862	0.000928	20.670533
122.032209	-3.004100	3.869700	-11.624000	21.595043	0.000927	20.666918
123.030763	-2.996800	3.869500	-11.595000	21.609006	0.000929	20.679943
124.032286	-2.996500	3.868700	-11.591000	21.613695	0.000927	20.669936
125.032286	-2.983300	3.869600	-11.544000	21.604095	0.000928	20.661277
126.031182	-2.962400	3.869600	-11.462000	21.607493	0.000929	20.683645
127.034350	-3.002700	3.867900	-11.613000	21.597265	0.000928	20.674358
128.033683	-3.016900	3.867600	-11.667000	21.606840	0.000928	20.669240
129.033051	-2.976200	3.868500	-11.511000	21.613000	0.000927	20.684415
130.031963	-2.992800	3.868400	-11.576000	21.614207	0.000928	20.662861
131.031943	-2.983300	3.869100	-11.541000	21.645927	0.000927	20.663785
132.032274	-3.010100	3.867900	-11.642000	21.669045	0.000929	20.673645
133.033908	-3.010200	3.867900	-11.640000	21.657681	0.000929	20.675548
134.033756	-3.025600	3.865900	-11.695000	21.669568	0.000929	20.677962
135.033905	-3.003100	3.866700	-11.611000	21.692987	0.000928	20.659671
136.032933	-2.986700	3.867000	-11.548000	21.681062	0.000929	20.663384
137.032395	-3.018100	3.866400	-11.668000	21.692507	0.000930	20.664407
138.034148	-3.003100	3.866100	-11.609000	21.689997	0.000928	20.673276
139.034541	-3.013200	3.866200	-11.649000	21.676749	0.000928	20.667603
140.035165	-2.999000	3.866300	-11.593000	21.674583	0.000929	20.685826
141.040275	-3.020800	3.864700	-11.674000	21.698648	0.000929	20.658224
142.033562	-3.009400	3.865200	-11.631000	21.673211	0.000932	20.673546
143.032741	-3.004000	3.866000	-11.612000	21.680995	0.000931	20.651462
144.035303	-2.987000	3.866400	-11.548000	21.713188	0.000929	20.650963
145.035864	-3.010800	3.864300	-11.633000	21.720498	0.000928	20.663497
146.036113	-2.994900	3.863800	-11.571000	21.719828	0.000931	20.676103
147.036060	-3.009600	3.863800	-11.627000	21.725833	0.000930	20.657455
148.040701	-2.995100	3.864700	-11.574000	21.760294	0.000931	20.654487
149.036923	-3.016000	3.864000	-11.652000	21.726959	0.000932	20.670912
150.035997	-3.008200	3.864900	-11.626000	21.756308	0.000933	20.666619
151.040967	-3.013600	3.862400	-11.639000	21.774360	0.000933	20.651968
152.038057	-3.008400	3.864000	-11.623000	21.766576	0.000933	20.673104
153.038417	-2.992300	3.863900	-11.561000	21.773412	0.000933	20.657658
154.038633	-3.000100	3.864300	-11.593000	21.784143	0.000932	20.630463
155.039990	-2.989400	3.863500	-11.549000	21.767229	0.000931	20.651943
156.041013	-3.002000	3.862700	-11.595000	21.767327	0.000933	20.650619
157.040534	-2.997700	3.863800	-11.581000	21.789200	0.000935	20.647854
158.041261	-2.998000	3.862700	-11.579000	21.805886	0.000936	20.647485
159.040477	-3.009500	3.863800	-11.626000	21.800047	0.000934	20.661083
160.042769	-3.003200	3.861800	-11.597000	21.799900	0.000934	20.669945
161.039674	-3.011400	3.863100	-11.633000	21.802121	0.000934	20.647510
162.041458	-3.012000	3.861200	-11.629000	21.822498	0.000934	20.655578
163.043110	-3.004400	3.862100	-11.602000	21.832791	0.000937	20.670623
164.043820	-2.993800	3.861200	-11.558000	21.824541	0.000935	20.660942
165.041200	-3.010800	3.860800	-11.623000	21.844364	0.000937	20.643797
166.039463	-2.993900	3.861000	-11.559000	21.836114	0.000935	20.634590
167.043962	-3.007600	3.861100	-11.612000	21.839854	0.000936	20.637860
168.043111	-2.980700	3.863000	-11.513000	21.852343	0.000937	20.669330
169.041151	-2.971600	3.862400	-11.477000	21.851968	0.000938	20.672748
170.044826	-3.002600	3.858800	-11.585000	21.864414	0.000939	20.643477
171.040582	-3.002600	3.859500	-11.588000	21.861621	0.000937	20.658227
172.043097	-2.999100	3.860000	-11.576000	21.877081	0.000937	20.652838
173.045304	-3.020000	3.859700	-11.655000	21.870425	0.000939	20.655659
174.043787	-3.001800	3.858900	-11.582000	21.882496	0.000941	20.667743
175.044889	-2.999300	3.858500	-11.571000	21.865270	0.000938	20.651921
176.046289	-3.016600	3.857800	-11.637000	21.862716	0.000939	20.633715
177.042905	-2.995000	3.859900	-11.560000	21.880994	0.000940	20.656755
178.043849	-2.994400	3.857200	-11.549000	21.874418	0.000941	20.645904
179.047518	-3.002600	3.858400	-11.584000	21.862674	0.000938	20.651693
180.045671	-3.003600	3.857100	-11.584000	21.876011	0.000941	20.627582
181.047512	-3.000500	3.857500	-11.573000	21.891096	0.000941	20.637941
182.052234	-2.985700	3.859600	-11.523000	21.924058	0.000944	20.652919
183.047756	-3.016900	3.856600	-11.634000	21.938244	0.000941	20.656688
184.045900	-3.008000	3.856500	-11.599000	21.955027	0.000942	20.651201
185.050290	-3.014800	3.857200	-11.628000	21.950886	0.000942	20.645159
186.048508	-3.001400	3.856800	-11.575000	21.970054	0.000944	20.635897
187.056274	-2.980900	3.857200	-11.497000	21.963823	0.000942	20.654317
188.051205	-2.968500	3.858400	-11.452000	21.968265	0.000943	20.645960
189.047175	-2.989400	3.857200	-11.530000	21.964925	0.000943	20.652575
190.048308	-3.002400	3.857500	-11.580000	21.945332	0.000946	20.663309
191.051863	-3.007000	3.856500	-11.596000	21.982475	0.000943	20.636950
192.049266	-3.000900	3.855200	-11.568000	21.968573	0.000944	20.649589
193.049717	-3.002100	3.856600	-11.576000	21.995418	0.000945	20.640898
194.053101	-2.989200	3.855500	-11.524000	21.977763	0.000946	20.636975
195.051214	-3.000300	3.855800	-11.567000	21.971938	0.000947	20.638731
196.052118	-2.975400	3.855600	-11.471000	21.988615	0.000948	20.661592
197.053093	-3.006400	3.855400	-11.590000	21.993007	0.000946	20.657454
198.055008	-2.985400	3.854600	-11.507000	22.017803	0.000948	20.627743
199.052549	-2.992500	3.855100	-11.535000	22.028721	0.000948	20.653376
200.054319	-2.981300	3.854800	-11.490000	22.022921	0.000947	20.639507
201.053883	-3.020300	3.852200	-11.634000	22.031668	0.000947	20.661068
202.054575	-3.005100	3.853300	-11.579000	22.039369	0.000948	20.636058
203.059037	-2.995200	3.854000	-11.543000	22.030149	0.000952	20.628249
204.057371	-3.012300	3.853600	-11.607000	22.042611	0.000952	20.650210
205.056237	-2.998900	3.853000	-11.552000	22.004695	0.000950	20.649712
206.062557	-2.979300	3.854000	-11.481000	22.054624	0.000951	20.650857
207.057987	-2.983600	3.855000	-11.501000	22.052189	0.000951	20.656006
208.057211	-2.998500	3.853200	-11.553000	22.058451	0.000953	20.648524
209.056477	-3.015500	3.852200	-11.615000	22.054933	0.000951	20.648320
210.056835	-3.013900	3.852700	-11.610000	22.073257	0.000953	20.637266
211.062988	-3.011000	3.851500	-11.597000	22.087890	0.000954	20.657608
212.057114	-2.998500	3.851800	-11.548000	22.101095	0.000956	20.675098
213.057037	-3.002700	3.851300	-11.563000	22.100025	0.000954	20.648419
214.055719	-3.014200	3.849600	-11.601000	22.099127	0.000956	20.662220
215.062849	-3.006000	3.851200	-11.577000	22.107031	0.000954	20.654011
216.060267	-3.015900	3.850300	-11.611000	22.121485	0.000953	20.643350
217.056020	-2.971100	3.851400	-11.442000	22.108501	0.000955	20.661648
218.057902	-3.005500	3.851200	-11.574000	22.121085	0.000955	20.663341
219.055414	-3.026000	3.848800	-11.644000	22.132673	0.000955	20.651233
220.056192	-3.003700	3.850900	-11.566000	22.153739	0.000956	20.665213
221.058472	-2.967700	3.852000	-11.430000	22.140700	0.000955	20.654528
222.058863	-3.004500	3.849300	-11.565000	22.154009	0.000955	20.648886
223.055749	-3.020600	3.850200	-11.627000	22.154132	0.000957	20.662761
224.057226	-3.025600	3.848600	-11.643000	22.145509	0.000958	20.668828
225.057577	-2.989100	3.849700	-11.506000	22.149102	0.000957	20.658198
226.055689	-3.031300	3.849000	-11.666000	22.164004	0.000959	20.632812
227.058627	-3.032300	3.847400	-11.665000	22.184442	0.000959	20.645690
228.058509	-3.011600	3.849100	-11.589000	22.212734	0.000960	20.652206
229.056085	-3.012500	3.846500	-11.585000	22.218693	0.000959	20.657225
230.058137	-2.994300	3.848100	-11.521000	22.208927	0.000962	20.664992
231.059283	-3.000100	3.847500	-11.542000	22.219167	0.000959	20.672400
232.055969	-2.990400	3.848700	-11.507000	22.224604	0.000962	20.667886
233.058784	-3.007400	3.847700	-11.570000	22.226326	0.000961	20.670085
234.058609	-2.993300	3.846400	-11.512000	22.248763	0.000961	20.667419
235.057970	-2.999100	3.846700	-11.536000	22.231038	0.000964	20.648721
236.061258	-2.979300	3.849000	-11.466000	22.243799	0.000964	20.654861
237.061613	-2.994500	3.847100	-11.519000	22.244623	0.000964	20.658058
238.058572	-3.013900	3.846000	-11.590000	22.236426	0.000965	20.666920
239.060274	-2.995700	3.847300	-11.524000	22.255768	0.000965	20.672537
240.060564	-3.004700	3.847100	-11.558000	22.255048	0.000965	20.655219
241.060542	-2.987900	3.846100	-11.491000	22.274765	0.000965	20.665954
242.062380	-3.008100	3.846700	-11.570000	22.286832	0.000964	20.666656
243.063138	-3.009400	3.845700	-11.572000	22.311456	0.000967	20.673769
244.060138	-2.977100	3.847700	-11.453000	22.317261	0.000966	20.653501
245.061382	-3.001800	3.845800	-11.542000	22.322992	0.000967	20.653076
246.060639	-3.002700	3.844600	-11.542000	22.335605	0.000967	20.664285
247.060024	-2.988300	3.845500	-11.490000	22.347198	0.000967	20.687275
248.061650	-3.008200	3.843800	-11.562000	22.338169	0.000969	20.656895
249.063470	-3.020100	3.842800	-11.605000	22.333459	0.000970	20.674465
250.064267	-2.986500	3.844300	-11.480000	22.343231	0.000969	20.688993
251.065507	-3.005600	3.842800	-11.546000	22.343083	0.000971	20.677465
252.065051	-3.001200	3.843700	-11.534000	22.353322	0.000970	20.677285
253.066096	-3.017800	3.842800	-11.596000	22.343802	0.000972	20.679133
254.065144	-3.014500	3.841700	-11.580000	22.357110	0.000971	20.665905
255.066111	-3.024700	3.842800	-11.621000	22.360751	0.000970	20.658170
256.064950	-2.999500	3.844500	-11.530000	22.366279	0.000974	20.680303
257.066661	-2.976900	3.842700	-11.437000	22.377772	0.000972	20.683752
258.066411	-2.995700	3.841300	-11.507000	22.377741	0.000972	20.698895
259.066902	-3.015000	3.841900	-11.582000	22.391521	0.000975	20.693728
260.067106	-3.005300	3.841500	-11.544000	22.402148	0.000975	20.676393
261.065705	-2.995500	3.841700	-11.507000	22.416900	0.000975	20.672673
262.066391	-3.010300	3.841900	-11.564000	22.393576	0.000975	20.690096
263.078542	-3.018600	3.840400	-11.592000	22.415350	0.000977	20.678708
264.065912	-3.010500	3.840500	-11.561000	22.414908	0.000978	20.673998
265.067672	-3.013000	3.841500	-11.573000	22.419710	0.000979	20.671693
266.066202	-3.011300	3.840800	-11.565000	22.437832	0.000977	20.670401
267.064975	-3.013300	3.839100	-11.568000	22.419520	0.000977	20.673875
268.068734	-3.008900	3.841000	-11.557000	22.429512	0.000978	20.680088
269.066730	-3.008100	3.841400	-11.554000	22.404239	0.000980	20.682280
270.065892	-2.991200	3.840000	-11.485000	22.409928	0.000979	20.678494
271.066992	-2.973500	3.840800	-11.420000	22.426770	0.000979	20.679713
272.067861	-2.981400	3.841200	-11.449000	22.455725	0.000980	20.689270
273.065825	-2.974600	3.840500	-11.423000	22.443773	0.000981	20.672083
274.069873	-3.001800	3.839500	-11.524000	22.444835	0.000981	20.680261
275.067070	-2.997700	3.839700	-11.509000	22.468442	0.000982	20.678297
276.067682	-3.008100	3.838100	-11.544000	22.465601	0.000981	20.698213
277.066697	-2.979100	3.839100	-11.435000	22.479356	0.000982	20.679270
278.066342	-2.999900	3.838400	-11.514000	22.461487	0.000983	20.682238
279.067161	-3.002300	3.837700	-11.520000	22.468024	0.000982	20.682147
280.070198	-3.023100	3.837400	-11.598000	22.488131	0.000986	20.698491
281.068738	-2.985400	3.838400	-11.458000	22.472801	0.000984	20.702579
282.070985	-3.014700	3.837200	-11.567000	22.477494	0.000986	20.683569
283.070326	-3.001700	3.837600	-11.517000	22.494317	0.000985	20.721283
284.071351	-2.995400	3.837300	-11.493000	22.504789	0.000986	20.688146
285.071300	-2.986600	3.837000	-11.458000	22.521857	0.000986	20.703819
286.071807	-2.998100	3.836400	-11.501000	22.537204	0.000987	20.685522
287.073367	-3.000300	3.836700	-11.510000	22.529955	0.000987	20.698178
288.070952	-3.009500	3.836200	-11.543000	22.536061	0.000987	20.675367
289.070968	-3.018900	3.834500	-11.575000	22.551186	0.000989	20.677239
290.073988	-2.977200	3.835900	-11.419000	22.532476	0.000988	20.708764
291.072693	-2.996000	3.835800	-11.491000	22.522387	0.000989	20.690597
292.074934	-3.005000	3.833400	-11.518000	22.535398	0.000990	20.700310
293.077650	-2.979400	3.834500	-11.423000	22.550891	0.000989	20.718673
294.073898	-2.988900	3.834900	-11.461000	22.578406	0.000991	20.704504
295.072686	-2.984900	3.835100	-11.446000	22.576291	0.000991	20.685314
296.073935	-2.999100	3.833700	-11.497000	22.571655	0.000990	20.705803
297.071654	-3.010000	3.834900	-11.542000	22.613266	0.000994	20.691054
298.073724	-2.999700	3.834400	-11.501000	22.616562	0.000993	20.688191
299.073131	-3.031100	3.832300	-11.614000	22.606179	0.000995	20.708613
300.071537	-3.008700	3.832700	-11.531000	22.631188	0.000995	20.712800
301.074399	-2.990500	3.833000	-11.461000	22.616218	0.000995	20.697331
302.073587	-3.009600	3.832900	-11.534000	22.618038	0.000993	20.693938
303.073468	-3.020500	3.832900	-11.576000	22.617344	0.000996	20.694190
304.072230	-3.006100	3.834000	-11.524000	22.635536	0.000996	20.704352
305.074137	-2.978300	3.834200	-11.417000	22.659427	0.000996	20.712635
306.073822	-2.977100	3.831800	-11.406000	22.664038	0.000997	20.710615
307.074682	-2.997400	3.833700	-11.490000	22.671717	0.000996	20.721152
308.075781	-2.970800	3.833200	-11.387000	22.647893	0.000996	20.710092
309.076374	-2.992200	3.830600	-11.461000	22.635894	0.000998	20.698072
310.076657	-2.978800	3.832600	-11.415000	22.648521	0.001000	20.690330
311.077383	-3.009200	3.831800	-11.530000	22.634302	0.001000	20.710703
312.077762	-2.983800	3.831700	-11.432000	22.646936	0.001002	20.702968
313.075186	-3.002700	3.830200	-11.499000	22.654910	0.001001	20.710481
314.074808	-3.011000	3.829800	-11.531000	22.651799	0.001001	20.723014
315.077993	-3.009100	3.830300	-11.524000	22.651246	0.001002	20.714872
316.075325	-2.993600	3.830800	-11.466000	22.644029	0.001000	20.722343
317.077857	-3.007900	3.830000	-11.518000	22.636283	0.001001	20.711264
318.078351	-2.984200	3.828600	-11.424000	22.648037	0.001002	20.687000
319.077849	-3.004300	3.829100	-11.502000	22.660205	0.001003	20.705827
320.078140	-3.006900	3.828900	-11.511000	22.675998	0.001002	20.709793
321.082699	-3.004900	3.829000	-11.505000	22.690451	0.001003	20.712891
322.079249	-3.018700	3.827200	-11.553000	22.695112	0.001004	20.722775
323.081405	-2.974300	3.830700	-11.393000	22.731487	0.001004	20.708475
324.086598	-2.969900	3.830300	-11.374000	22.712012	0.001005	20.724057
325.081164	-3.001100	3.827900	-11.487000	22.713832	0.001005	20.713077
326.081347	-2.982800	3.828400	-11.417000	22.716322	0.001006	20.704664
327.085001	-3.002100	3.827600	-11.490000	22.720859	0.001007	20.711106
328.082426	-2.999100	3.827800	-11.478000	22.736455	0.001007	20.715823
329.082756	-3.001900	3.827200	-11.488000	22.734937	0.001007	20.706241
330.089404	-3.009400	3.825900	-11.512000	22.748565	0.001009	20.726533
331.082798	-3.009800	3.826600	-11.517000	22.731329	0.001008	20.718749
332.083081	-2.970900	3.827700	-11.371000	22.745627	0.001006	20.709838
333.087586	-3.005500	3.826500	-11.499000	22.748818	0.001006	20.715880
334.087023	-2.987500	3.827400	-11.432000	22.755795	0.001010	20.720973
335.086397	-3.018500	3.826200	-11.547000	22.786660	0.001010	20.725339
336.088101	-3.018000	3.824500	-11.541000	22.785524	0.001009	20.719933
337.089039	-2.994400	3.825900	-11.454000	22.791327	0.001010	20.730962
338.084442	-3.001700	3.825700	-11.483000	22.806498	0.001013	20.726245
339.088501	-3.010600	3.824700	-11.513000	22.839384	0.001011	20.730741
340.089402	-3.021000	3.824000	-11.552000	22.881311	0.001014	20.717741
341.085407	-3.009900	3.824600	-11.510000	22.852163	0.001012	20.711773
342.086575	-3.006700	3.823700	-11.496000	22.864746	0.001013	20.712999
343.086544	-3.014500	3.825700	-11.532000	22.867912	0.001013	20.745570
344.085512	-3.012500	3.823600	-11.517000	22.857205	0.001013	20.746697
345.088290	-3.014400	3.822800	-11.522000	22.864557	0.001016	20.727509
346.086935	-3.019600	3.822600	-11.540000	22.853197	0.001015	20.714706
347.088091	-3.013600	3.822600	-11.519000	22.870611	0.001014	20.727885
348.092944	-3.004200	3.822000	-11.482000	22.862947	0.001016	20.721629
349.089921	-2.985500	3.822200	-11.411000	22.884620	0.001015	20.726273
350.087111	-2.993500	3.822300	-11.441000	22.877528	0.001017	20.757575
351.091514	-2.989700	3.821800	-11.425000	22.902987	0.001017	20.730923
352.091286	-2.980800	3.822000	-11.391000	22.901119	0.001017	20.747070
353.089479	-2.992800	3.820800	-11.433000	22.900221	0.001019	20.731471
354.091622	-3.010000	3.822300	-11.503000	22.921869	0.001017	20.740832
355.090670	-2.996100	3.819500	-11.442000	22.905133	0.001020	20.725486
356.089879	-2.987500	3.820200	-11.411000	22.902651	0.001020	20.737224
357.093488	-3.000700	3.819900	-11.460000	22.888477	0.001020	20.726817
358.095140	-3.007100	3.819400	-11.484000	22.903801	0.001020	20.721306
359.093082	-3.020800	3.818700	-11.535000	22.909308	0.001020	20.752429
360.098561	-3.000100	3.819600	-11.459000	22.925897	0.001022	20.745341
361.093517	-3.003000	3.820300	-11.472000	22.923790	0.001022	20.747498
362.094859	-2.998100	3.818700	-11.447000	22.900502	0.001023	20.730803
363.095952	-2.982700	3.818300	-11.388000	22.919236	0.001022	20.739142
364.097596	-2.992000	3.818500	-11.424000	22.914430	0.001024	20.750922
365.100444	-3.002300	3.818100	-11.463000	22.942752	0.001022	20.730459
366.097636	-2.994900	3.817800	-11.433000	22.928025	0.001023	20.765492
367.097742	-2.978800	3.817300	-11.370000	22.920582	0.001022	20.753293
368.095610	-2.985500	3.817400	-11.397000	22.936957	0.001024	20.735559
369.098288	-3.005200	3.817000	-11.470000	22.973847	0.001023	20.746441
370.095248	-3.004300	3.817200	-11.466000	22.995143	0.001024	20.750234
371.094251	-2.980200	3.818900	-11.378000	22.974450	0.001024	20.748941
372.096507	-3.018700	3.815300	-11.517000	22.990435	0.001026	20.755000
373.098361	-3.016700	3.816400	-11.512000	23.012481	0.001025	20.760968
374.095191	-2.990000	3.817500	-11.413000	22.997818	0.001026	20.755759
375.101533	-2.982900	3.815700	-11.379000	22.995027	0.001027	20.758653
376.099252	-2.984200	3.816800	-11.389000	22.988483	0.001026	20.759208
377.096955	-2.992100	3.817300	-11.420000	23.014437	0.001030	20.747280
378.100369	-3.006200	3.815200	-11.468000	22.994119	0.001028	20.760114
379.100307	-3.007400	3.814600	-11.470000	23.015611	0.001028	20.749405
380.098604	-2.978000	3.815300	-11.361000	23.018980	0.001029	20.742349
381.101059	-3.002000	3.814500	-11.450000	23.028217	0.001031	20.740224
382.096533	-2.988500	3.815000	-11.399000	23.047724	0.001029	20.748864
383.096915	-3.002300	3.814700	-11.451000	23.034547	0.001029	20.759370
384.097208	-2.985200	3.814800	-11.387000	23.074697	0.001031	20.769253
385.097399	-2.990600	3.813200	-11.403000	23.059537	0.001031	20.755011
386.097689	-3.018000	3.811900	-11.503000	23.036521	0.001032	20.757080
387.097596	-2.992400	3.814300	-11.413000	23.057725	0.001032	20.771213
388.099075	-3.000000	3.812200	-11.435000	23.066887	0.001033	20.777550
389.099596	-3.008100	3.811600	-11.465000	23.045961	0.001033	20.776022
390.099365	-3.019300	3.810700	-11.504000	23.074718	0.001033	20.770697
391.100235	-3.010000	3.811300	-11.471000	23.079426	0.001033	20.762612
392.099636	-2.996200	3.812300	-11.421000	23.078504	0.001034	20.766429
393.099445	-3.003400	3.810600	-11.443000	23.081708	0.001034	20.757786
394.100643	-2.990300	3.810700	-11.394000	23.043321	0.001035	20.778119
395.104021	-3.018700	3.810400	-11.501000	23.071616	0.001033	20.790348
396.100700	-2.992900	3.811200	-11.405000	23.058447	0.001035	20.777153
397.100749	-2.997700	3.810200	-11.420000	23.061367	0.001034	20.772966
398.100975	-2.995700	3.809600	-11.410000	23.062264	0.001034	20.785719
399.100665	-2.973900	3.809900	-11.329000	23.055443	0.001036	20.759918
400.102084	-2.979500	3.811100	-11.354000	23.048523	0.001035	20.791392
401.103772	-3.007500	3.807800	-11.451000	23.068318	0.001038	20.768077
402.101056	-2.998000	3.809100	-11.419000	23.055769	0.001038	20.771624
403.100495	-2.996200	3.807800	-11.408000	23.081077	0.001036	20.772801
404.101726	-3.001900	3.808700	-11.431000	23.100632	0.001037	20.774852
405.100509	-3.014600	3.807800	-11.478000	23.095427	0.001038	20.787180
406.101275	-3.027600	3.807700	-11.527000	23.121950	0.001038	20.778196
407.103786	-2.973500	3.808400	-11.323000	23.151785	0.001040	20.770634
408.106954	-2.978000	3.809000	-11.342000	23.143292	0.001040	20.782038
409.104950	-2.993700	3.806700	-11.395000	23.175549	0.001039	20.794921
410.106741	-2.998600	3.808600	-11.417000	23.178412	0.001040	20.788308
411.104417	-2.984400	3.808600	-11.365000	23.163173	0.001040	20.793425
412.106323	-3.023000	3.805700	-11.502000	23.171143	0.001040	20.774385
413.104974	-2.965000	3.808300	-11.291000	23.176372	0.001042	20.756391
414.108911	-3.013200	3.807200	-11.471000	23.166639	0.001042	20.790261
415.109578	-2.999200	3.806400	-11.415000	23.148227	0.001042	20.764698
416.108054	-3.001500	3.805300	-11.420000	23.152966	0.001042	20.775137
417.106986	-3.027600	3.804200	-11.515000	23.161280	0.001043	20.792951
418.107724	-2.994800	3.804000	-11.391000	23.178198	0.001044	20.806586
419.106511	-2.987700	3.805800	-11.370000	23.193266	0.001044	20.780907
420.107525	-2.994300	3.803900	-11.389000	23.199084	0.001044	20.789583
421.108400	-3.008000	3.804000	-11.440000	23.169177	0.001045	20.807502
422.106276	-3.005100	3.803700	-11.429000	23.125774	0.001046	20.791511
423.107685	-2.993200	3.805000	-11.388000	23.148585	0.001047	20.787816
424.112258	-3.005800	3.802800	-11.430000	23.200037	0.001044	20.786271
425.109389	-3.006500	3.802600	-11.431000	23.190199	0.001043	20.791585
426.108788	-3.002700	3.801500	-11.414000	23.200234	0.001046	20.791683
427.109735	-3.010900	3.802100	-11.447000	23.216973	0.001046	20.789491
428.110703	-2.998800	3.802900	-11.403000	23.228654	0.001046	20.791241
429.110527	-3.001900	3.800200	-11.407000	23.243493	0.001047	20.810379
430.110260	-2.981800	3.801700	-11.335000	23.261994	0.001047	20.781979
431.111581	-3.021400	3.800200	-11.480000	23.226909	0.001046	20.798500
432.110557	-3.003500	3.801000	-11.414000	23.228801	0.001046	20.808458
433.110180	-3.009500	3.800000	-11.435000	23.205764	0.001046	20.806709
434.114176	-3.009200	3.800400	-11.435000	23.202182	0.001046	20.802645
435.110317	-3.009100	3.799900	-11.433000	23.198071	0.001047	20.811801
436.110586	-3.019200	3.799300	-11.469000	23.218865	0.001047	20.807509
437.113914	-3.005100	3.800300	-11.419000	23.237773	0.001049	20.798009
438.113012	-3.007200	3.799100	-11.423000	23.259513	0.001050	20.806993
439.110633	-3.002400	3.798800	-11.404000	23.259439	0.001049	20.795540
440.114954	-2.982900	3.798500	-11.329000	23.290812	0.001050	20.802325
441.111572	-2.997900	3.798900	-11.386000	23.310168	0.001051	20.804180
442.111082	-2.997300	3.798300	-11.384000	23.297036	0.001051	20.806666
443.114168	-3.012400	3.798400	-11.441000	23.323537	0.001050	20.797665
444.111045	-2.988500	3.798000	-11.349000	23.342983	0.001050	20.784912
445.111423	-2.991800	3.798400	-11.363000	23.373391	0.001051	20.785990
446.113882	-3.011500	3.797000	-11.434000	23.331857	0.001052	20.796520
447.111187	-3.003700	3.797200	-11.404000	23.321726	0.001051	20.787314
448.113151	-2.999400	3.796500	-11.385000	23.320681	0.001052	20.797173
449.114457	-3.021500	3.796800	-11.471000	23.336269	0.001051	20.803786
450.112872	-3.015200	3.796800	-11.447000	23.329450	0.001053	20.804538
451.112575	-2.997100	3.797300	-11.380000	23.324768	0.001054	20.791785
452.113310	-2.983200	3.795700	-11.322000	23.322728	0.001054	20.799224
453.116010	-3.016500	3.794500	-11.445000	23.346236	0.001052	20.781533
454.112239	-3.003400	3.795800	-11.399000	23.341750	0.001053	20.785572
455.112757	-2.997500	3.795200	-11.374000	23.332190	0.001054	20.775042
456.115128	-2.992500	3.794000	-11.352000	23.341351	0.001055	20.783275
457.112441	-3.000400	3.794100	-11.383000	23.353406	0.001055	20.765011
458.112809	-3.003100	3.792900	-11.389000	23.378349	0.001054	20.767726
459.116407	-3.000500	3.794200	-11.384000	23.363120	0.001054	20.787549
460.114120	-3.014500	3.792200	-11.431000	23.365632	0.001058	20.766360
461.113668	-3.007600	3.793300	-11.407000	23.376538	0.001054	20.787247
462.113073	-2.972600	3.793700	-11.276000	23.398005	0.001055	20.769883
463.112823	-2.980500	3.793600	-11.306000	23.396309	0.001057	20.794736
464.113090	-2.994200	3.792800	-11.355000	23.417148	0.001055	20.775320
465.113717	-3.009100	3.792200	-11.410000	23.395934	0.001057	20.782032
466.113610	-2.982800	3.793000	-11.314000	23.399774	0.001057	20.776872
467.117965	-3.025900	3.790100	-11.466000	23.403128	0.001056	20.805838
468.112719	-3.028900	3.791500	-11.483000	23.424465	0.001057	20.778386
469.116997	-3.011500	3.790300	-11.414000	23.397335	0.001057	20.779643
470.113885	-3.037500	3.789900	-11.511000	23.385494	0.001058	20.768249
471.124887	-3.029400	3.789400	-11.479000	23.387548	0.001056	20.762247
472.115274	-2.990200	3.789600	-11.330000	23.387352	0.001059	20.762524
473.116129	-2.984900	3.790500	-11.314000	23.390884	0.001056	20.785505
474.116297	-2.979600	3.789700	-11.291000	23.379082	0.001057	20.786004
475.117063	-2.991800	3.790100	-11.339000	23.372329	0.001059	20.791564
476.115483	-3.013000	3.789200	-11.416000	23.380077	0.001057	20.776570
477.116389	-3.000100	3.790500	-11.370000	23.420516	0.001058	20.759254
478.119284	-2.997700	3.788500	-11.355000	23.417807	0.001057	20.763178
479.118652	-2.994500	3.787500	-11.340000	23.450497	0.001059	20.763227
480.119046	-3.004200	3.787500	-11.376000	23.435906	0.001059	20.768516
481.125182	-2.995500	3.788500	-11.348000	23.437122	0.001059	20.774951
482.118505	-3.004600	3.786200	-11.374000	23.423964	0.001059	20.754175
483.117897	-3.023000	3.786200	-11.443000	23.397896	0.001059	20.756971
484.122556	-2.984400	3.788700	-11.306000	23.392146	0.001059	20.756423
485.120644	-3.023300	3.787400	-11.450000	23.398590	0.001058	20.760986
486.119781	-2.993800	3.787000	-11.336000	23.388190	0.001060	20.750087
487.121683	-3.009400	3.786200	-11.393000	23.387219	0.001059	20.771400
488.118882	-3.021400	3.785500	-11.436000	23.380123	0.001061	20.760494
489.119479	-3.010300	3.785800	-11.393000	23.407039	0.001061	20.757600
490.118694	-3.028500	3.784300	-11.460000	23.409380	0.001062	20.756153
491.119744	-3.004600	3.785300	-11.372000	23.428572	0.001060	20.775390
492.120714	-3.021800	3.783400	-11.432000	23.404509	0.001061	20.744632
493.120902	-2.993600	3.783600	-11.326000	23.423333	0.001061	20.761130
494.121053	-3.000400	3.783400	-11.351000	23.400072	0.001060	20.739237
495.121089	-2.987700	3.784600	-11.306000	23.412747	0.001059	20.787978
496.120702	-3.002800	3.783100	-11.359000	23.385936	0.001061	20.762054
497.120773	-3.004500	3.782500	-11.363000	23.416556	0.001062	20.738215
498.122815	-3.006900	3.783100	-11.375000	23.414352	0.001061	20.751654
499.122892	-2.993300	3.784300	-11.327000	23.419678	0.001060	20.746087
500.124126	-3.005000	3.782100	-11.364000	23.429686	0.001062	20.743315
501.123729	-3.016700	3.781300	-11.406000	23.465245	0.001063	20.748612
502.124121	-3.015500	3.781600	-11.402000	23.471020	0.001064	20.741598
503.128296	-2.993500	3.782300	-11.321000	23.503855	0.001063	20.765029
504.124593	-2.988400	3.780800	-11.297000	23.488627	0.001064	20.751661
505.124741	-2.996300	3.781600	-11.330000	23.503992	0.001062	20.743828
506.128192	-2.995800	3.780300	-11.324000	23.500036	0.001063	20.752666
507.127508	-3.005900	3.779800	-11.360000	23.524535	0.001063	20.716530
508.127704	-2.990400	3.781200	-11.306000	23.497892	0.001064	20.729178
509.127064	-2.991600	3.781100	-11.310000	23.514399	0.001065	20.729603
510.130430	-3.002100	3.779300	-11.345000	23.512790	0.001064	20.745536
511.127887	-3.024000	3.777000	-11.421000	23.498796	0.001062	20.722023
512.127502	-3.007200	3.778100	-11.359000	23.516925	0.001067	20.729291
513.129453	-2.994200	3.777700	-11.310000	23.502433	0.001064	20.730411
514.128789	-2.996300	3.779100	-11.321000	23.484710	0.001065	20.731612
515.129082	-3.031300	3.776800	-11.448000	23.480379	0.001064	20.739600
516.129658	-2.996500	3.777500	-11.318000	23.466262	0.001063	20.752002
517.128100	-2.984000	3.778500	-11.274000	23.466791	0.001064	20.740678
518.129004	-3.008900	3.776300	-11.362000	23.461570	0.001065	20.729754
519.131358	-2.992100	3.776900	-11.300000	23.474335	0.001066	20.733541
520.128159	-2.991400	3.776200	-11.295000	23.486357	0.001066	20.723305
521.129116	-2.984800	3.776700	-11.272000	23.510471	0.001064	20.726140
522.132656	-2.991900	3.775000	-11.292000	23.519932	0.001065	20.726140
523.131693	-2.976600	3.776500	-11.239000	23.527997	0.001067	20.726165
524.129996	-2.992300	3.775400	-11.295000	23.534718	0.001066	20.716779
525.132086	-3.003500	3.775300	-11.337000	23.523446	0.001066	20.740095
526.129721	-2.987500	3.773900	-11.274000	23.556728	0.001066	20.736948
527.131516	-3.013200	3.774000	-11.370000	23.569107	0.001065	20.724226
528.130576	-2.994800	3.774300	-11.301000	23.560292	0.001066	20.724398
529.131708	-2.972600	3.774500	-11.219000	23.593899	0.001064	20.718258
530.132124	-2.989200	3.774100	-11.281000	23.593107	0.001066	20.724103
531.131659	-2.995200	3.773600	-11.300000	23.583272	0.001065	20.740798
532.133940	-3.016300	3.771900	-11.376000	23.602549	0.001066	20.721715
533.138174	-3.007100	3.772800	-11.345000	23.619250	0.001066	20.707637
534.138611	-3.000400	3.772600	-11.318000	23.610443	0.001067	20.726783
535.134608	-2.987900	3.772200	-11.270000	23.622968	0.001066	20.723692
536.134087	-3.002100	3.771100	-11.321000	23.638674	0.001066	20.724739
537.133924	-3.007700	3.770100	-11.337000	23.598618	0.001066	20.704497
538.136245	-2.999500	3.771800	-11.312000	23.633559	0.001067	20.718663
539.136370	-3.011900	3.770500	-11.356000	23.627134	0.001067	20.723601
540.136288	-3.032000	3.767500	-11.422000	23.638404	0.001068	20.711666
541.137014	-3.016300	3.769100	-11.367000	23.647667	0.001066	20.697718
542.135629	-2.990600	3.771300	-11.277000	23.643411	0.001069	20.730436
543.136649	-3.015200	3.768900	-11.363000	23.639406	0.001069	20.712670
544.137576	-3.013200	3.769000	-11.355000	23.658381	0.001069	20.747816
545.135777	-3.013100	3.766800	-11.348000	23.681832	0.001068	20.723911
546.136790	-3.014700	3.767100	-11.356000	23.693102	0.001070	20.727149
547.139363	-2.996000	3.767400	-11.286000	23.683668	0.001068	20.723854
548.137912	-2.974600	3.767800	-11.206000	23.710258	0.001067	20.715424
549.139780	-2.979200	3.767100	-11.222000	23.695849	0.001068	20.722790
550.138960	-3.000600	3.767500	-11.303000	23.658315	0.001067	20.714557
551.146713	-3.001800	3.767800	-11.307000	23.668026	0.001068	20.717655
552.140789	-2.984900	3.767600	-11.246000	23.631209	0.001067	20.705400
553.139798	-2.975400	3.767600	-11.209000	23.653340	0.001067	20.726166
554.139850	-3.009200	3.765600	-11.330000	23.645699	0.001069	20.709970
555.138748	-3.009600	3.765900	-11.332000	23.658746	0.001068	20.710247
556.140322	-3.002900	3.765900	-11.308000	23.656437	0.001069	20.700346
557.139357	-3.000300	3.765200	-11.295000	23.675152	0.001069	20.695400
558.142694	-2.982600	3.765700	-11.230000	23.680526	0.001070	20.696995
559.139389	-2.992900	3.764100	-11.265000	23.684667	0.001067	20.708259
560.144878	-2.989000	3.765200	-11.253000	23.676897	0.001070	20.704262
561.142343	-2.995400	3.763800	-11.273000	23.686804	0.001069	20.725102
562.140945	-3.021200	3.763600	-11.370000	23.704874	0.001067	20.719510
563.141308	-3.001000	3.763400	-11.293000	23.708461	0.001067	20.708881
564.142517	-3.008300	3.762800	-11.319000	23.733614	0.001069	20.708495
565.141090	-3.007400	3.761900	-11.313000	23.744982	0.001071	20.694287
566.142685	-2.979400	3.763100	-11.211000	23.740652	0.001068	20.698481
567.147006	-3.014000	3.762000	-11.336000	23.741069	0.001069	20.714547
568.142483	-2.998700	3.760400	-11.275000	23.718768	0.001068	20.710205
569.143085	-2.988100	3.763100	-11.243000	23.725445	0.001069	20.718797
570.144563	-3.010100	3.762000	-11.322000	23.731470	0.001070	20.704448
571.142725	-3.012200	3.762700	-11.333000	23.719623	0.001069	20.712959
572.142852	-2.998100	3.761100	-11.275000	23.731544	0.001070	20.714954
573.145799	-3.014500	3.761100	-11.337000	23.709145	0.001069	20.707669
574.142435	-3.007700	3.760700	-11.310000	23.696596	0.001070	20.700304
575.141521	-2.996700	3.759700	-11.265000	23.694385	0.001070	20.699984
576.144748	-2.965200	3.760300	-11.149000	23.714526	0.001070	20.678449
577.143929	-3.004200	3.759700	-11.293000	23.697843	0.001070	20.716728
578.142627	-2.991500	3.759500	-11.245000	23.677987	0.001069	20.713890
579.145823	-2.989900	3.759200	-11.239000	23.646936	0.001070	20.697933
580.143050	-2.981200	3.757600	-11.200000	23.643233	0.001070	20.697539
581.143503	-3.010000	3.757200	-11.307000	23.645426	0.001069	20.722974
582.148064	-2.985400	3.758800	-11.221000	23.636009	0.001070	20.707367
583.145497	-3.017500	3.757200	-11.337000	23.630820	0.001070	20.678930
584.144858	-2.996700	3.755600	-11.253000	23.662127	0.001068	20.703679
585.146306	-3.008500	3.755700	-11.298000	23.651991	0.001069	20.698734
586.151285	-2.993700	3.756600	-11.245000	23.662446	0.001070	20.686928
587.144434	-3.020100	3.755500	-11.341000	23.683648	0.001070	20.704392
588.145394	-3.004000	3.754800	-11.278000	23.679945	0.001070	20.693567
589.145543	-2.994900	3.755900	-11.248000	23.703641	0.001068	20.686029
590.146488	-3.016800	3.755100	-11.327000	23.681609	0.001069	20.703296
591.147223	-3.012400	3.754700	-11.310000	23.688002	0.001069	20.688368
592.149715	-2.999200	3.754300	-11.259000	23.637217	0.001071	20.682024
593.148379	-3.004900	3.754200	-11.280000	23.632960	0.001069	20.679179
594.148221	-3.026700	3.753400	-11.359000	23.639452	0.001069	20.701336
595.147961	-3.002200	3.753700	-11.267000	23.657449	0.001068	20.695670
596.149406	-2.995800	3.753700	-11.244000	23.641165	0.001067	20.693570
597.149961	-2.981100	3.752200	-11.184000	23.653879	0.001068	20.688771
598.150515	-3.016100	3.752600	-11.317000	23.669641	0.001069	20.705523
599.150207	-2.987500	3.752300	-11.209000	23.687189	0.001068	20.678069
600.151319	-3.006500	3.751800	-11.277000	23.707673	0.001069	20.683432
601.149798	-3.003000	3.750800	-11.263000	23.717947	0.001067	20.690415
602.150235	-3.020000	3.751600	-11.328000	23.722530	0.001069	20.680784
603.150705	-2.984700	3.752500	-11.198000	23.711204	0.001069	20.691715
604.150457	-3.000600	3.750000	-11.251000	23.717425	0.001069	20.701272
605.150002	-3.008700	3.750400	-11.283000	23.706996	0.001071	20.682754
606.151273	-3.017300	3.749300	-11.312000	23.680879	0.001068	20.712523
607.152519	-3.015200	3.748200	-11.300000	23.669056	0.001067	20.702565
608.151225	-3.003000	3.749300	-11.258000	23.659099	0.001068	20.684995
609.153350	-2.986800	3.749300	-11.197000	23.696308	0.001071	20.677728
610.151186	-2.980200	3.749100	-11.172000	23.710065	0.001069	20.689150
611.151517	-2.988000	3.749600	-11.202000	23.726691	0.001068	20.709140
612.151830	-3.005700	3.748300	-11.264000	23.730751	0.001069	20.689976
613.152572	-2.994800	3.748700	-11.225000	23.706558	0.001069	20.669511
614.153084	-2.989100	3.748500	-11.204000	23.721163	0.001071	20.685578
615.155103	-3.011400	3.748000	-11.286000	23.725395	0.001069	20.662792
616.152426	-3.006900	3.746700	-11.264000	23.751773	0.001070	20.689716
617.155969	-2.981700	3.749000	-11.177000	23.788366	0.001066	20.684679
618.152660	-3.005300	3.746500	-11.258000	23.772207	0.001068	20.681753
619.152845	-3.003700	3.746600	-11.252000	23.755907	0.001067	20.662089
620.158581	-3.010800	3.745800	-11.277000	23.729595	0.001068	20.682178
621.153225	-3.018500	3.745500	-11.305000	23.757375	0.001066	20.683952
622.155788	-2.990600	3.746000	-11.201000	23.760930	0.001067	20.654322
623.154410	-3.013200	3.744300	-11.282000	23.777402	0.001068	20.658035
624.155038	-2.983900	3.745200	-11.174000	23.778305	0.001067	20.663684
625.157036	-3.003700	3.745300	-11.248000	23.788653	0.001068	20.666473
626.156227	-2.993000	3.744200	-11.206000	23.787732	0.001065	20.674559
627.155602	-2.993900	3.744500	-11.210000	23.785325	0.001067	20.664084
628.158080	-3.008700	3.745000	-11.266000	23.811198	0.001068	20.695244
629.156293	-3.000100	3.743300	-11.229000	23.792167	0.001068	20.669047
630.156105	-2.971600	3.743600	-11.124000	23.782138	0.001069	20.685546
631.157348	-3.006200	3.743000	-11.251000	23.798405	0.001067	20.676252
632.156722	-2.971300	3.743900	-11.123000	23.783427	0.001066	20.651273
633.158678	-2.980900	3.743900	-11.159000	23.806248	0.001066	20.674158
634.157404	-2.998300	3.742000	-11.219000	23.817199	0.001065	20.660006
635.158067	-2.996500	3.743100	-11.215000	23.799351	0.001067	20.658706
636.161386	-3.009200	3.741200	-11.256000	23.778918	0.001066	20.667144
637.159335	-2.995900	3.741000	-11.207000	23.780785	0.001066	20.677077
638.160710	-3.014100	3.741600	-11.274000	23.777402	0.001065	20.655190
639.159746	-2.986300	3.741000	-11.171000	23.778789	0.001066	20.658004
640.165141	-2.988500	3.740600	-11.178000	23.797834	0.001064	20.655288
641.159877	-2.993500	3.741000	-11.197000	23.830163	0.001064	20.656409
642.163252	-2.979500	3.739800	-11.141000	23.838853	0.001065	20.637619
643.160939	-2.986200	3.740900	-11.170000	23.863247	0.001065	20.663030
644.162391	-2.974300	3.739400	-11.122000	23.878224	0.001063	20.655763
645.165350	-2.971400	3.740500	-11.113000	23.906522	0.001066	20.674657
646.161809	-2.981000	3.739400	-11.146000	23.918490	0.001066	20.665320
647.165461	-2.995200	3.737200	-11.192000	23.948002	0.001068	20.673579
648.163221	-2.960000	3.739000	-11.067000	23.952037	0.001062	20.669090
649.166601	-2.970100	3.738200	-11.102000	23.946388	0.001064	20.667217
650.165026	-3.016900	3.737300	-11.274000	23.916175	0.001064	20.659205
651.170358	-2.995400	3.737500	-11.195000	23.905398	0.001064	20.658829
652.166901	-2.995300	3.737900	-11.194000	23.876676	0.001063	20.677446
653.165951	-2.986300	3.737000	-11.159000	23.863134	0.001066	20.660072
654.164864	-2.988900	3.736400	-11.165000	23.855999	0.001065	20.667618
655.165582	-3.004100	3.734600	-11.218000	23.875257	0.001066	20.668436
656.165945	-3.002500	3.736100	-11.217000	23.848107	0.001062	20.652116
657.166577	-2.979800	3.735600	-11.130000	23.857190	0.001063	20.663596
658.168852	-2.986300	3.735500	-11.154000	23.855772	0.001066	20.659328
659.167136	-3.015300	3.734100	-11.259000	23.841414	0.001064	20.666743
660.166559	-3.012600	3.734200	-11.248000	23.842832	0.001063	20.665320
661.166056	-3.023500	3.733000	-11.286000	23.819727	0.001064	20.667758
662.167543	-3.012200	3.734300	-11.247000	23.837322	0.001063	20.666908
663.169646	-3.022300	3.732300	-11.280000	23.848395	0.001064	20.672321
664.168768	-3.012500	3.731700	-11.239000	23.880770	0.001065	20.658316
665.171681	-2.981800	3.733200	-11.131000	23.910161	0.001064	20.685419
666.169494	-3.005100	3.733200	-11.216000	23.916315	0.001062	20.673571
667.169390	-3.010000	3.732300	-11.233000	23.953312	0.001064	20.654719
668.171258	-2.989500	3.732800	-11.158000	23.962670	0.001064	20.659837
669.171187	-2.996400	3.732900	-11.184000	23.953515	0.001061	20.672943
670.168846	-2.996100	3.730600	-11.176000	23.954723	0.001062	20.661825
671.169989	-2.992000	3.732700	-11.167000	23.963161	0.001062	20.665545
672.169805	-2.993800	3.732600	-11.173000	23.956695	0.001061	20.677080
673.168849	-2.990100	3.731400	-11.156000	23.989313	0.001062	20.659053
674.171426	-2.993600	3.730000	-11.165000	23.988343	0.001062	20.673255
675.168700	-3.007000	3.729600	-11.214000	23.979506	0.001061	20.666764
676.174541	-3.011000	3.728500	-11.226000	23.991603	0.001061	20.659454
677.168911	-3.008900	3.729400	-11.220000	23.995582	0.001061	20.658702
678.178455	-3.011000	3.727500	-11.222000	24.017576	0.001060	20.667484
679.175151	-2.995300	3.729400	-11.170000	24.043286	0.001059	20.669560
680.174869	-3.028800	3.727200	-11.288000	24.059550	0.001061	20.660739
681.170753	-3.008600	3.727700	-11.213000	24.082594	0.001060	20.681007
682.170055	-3.023300	3.726700	-11.266000	24.090704	0.001061	20.661164
683.170534	-3.007800	3.727700	-11.210000	24.084478	0.001060	20.672939
684.182069	-2.998700	3.728500	-11.180000	24.063528	0.001060	20.662359
685.172507	-3.022400	3.726200	-11.259000	24.076048	0.001059	20.664484
686.171152	-3.006000	3.725900	-11.199000	24.066953	0.001058	20.668639
687.173177	-2.998700	3.726800	-11.174000	24.045107	0.001060	20.650047
688.170290	-2.978700	3.726800	-11.100000	24.055477	0.001062	20.665664
689.173769	-3.012700	3.725100	-11.222000	24.064460	0.001060	20.672777
690.176571	-3.025400	3.724400	-11.267000	24.053610	0.001059	20.657627
691.173096	-3.002300	3.725400	-11.183000	24.091303	0.001059	20.677414
692.177153	-2.996100	3.724800	-11.159000	24.065121	0.001059	20.678657
693.176699	-2.996500	3.724000	-11.158000	24.072816	0.001059	20.675468
694.175450	-3.009100	3.724900	-11.208000	24.056016	0.001059	20.699399
695.184511	-2.993100	3.724000	-11.145000	24.054370	0.001058	20.676883
696.179394	-3.003900	3.724200	-11.186000	24.062334	0.001058	20.668748
697.174787	-2.992700	3.724200	-11.144000	24.065041	0.001059	20.669566
698.175526	-3.007500	3.722900	-11.195000	24.073779	0.001058	20.660785
699.185001	-2.967200	3.724300	-11.049000	24.039405	0.001057	20.668987
700.176508	-3.012900	3.722200	-11.213000	24.014095	0.001057	20.664466
701.178101	-2.991000	3.722000	-11.131000	24.000187	0.001059	20.691773
702.190877	-3.010000	3.722000	-11.203000	24.025589	0.001058	20.676468
703.177509	-2.999200	3.721100	-11.160000	24.010330	0.001056	20.671596
704.177135	-3.017600	3.721900	-11.230000	24.046532	0.001057	20.674238
705.177671	-3.008100	3.720600	-11.191000	24.082579	0.001058	20.686683
706.177999	-2.999300	3.720700	-11.158000	24.099697	0.001058	20.671133
707.177773	-3.017600	3.721000	-11.227000	24.094871	0.001056	20.695218
708.189241	-3.006300	3.720000	-11.181000	24.143828	0.001057	20.702121
709.179571	-2.988400	3.721500	-11.120000	24.154750	0.001056	20.676563
710.181240	-2.988900	3.719200	-11.114000	24.181745	0.001056	20.681828
711.184109	-3.001900	3.719900	-11.165000	24.197443	0.001057	20.682401
712.181182	-2.995900	3.718400	-11.139000	24.191070	0.001056	20.685966
713.189950	-2.981400	3.720500	-11.091000	24.215498	0.001055	20.680121
714.183273	-2.991600	3.720100	-11.128000	24.232939	0.001055	20.691453
715.208655	-3.023500	3.718000	-11.241000	24.234749	0.001055	20.687578
716.206495	-3.006500	3.719300	-11.181000	24.218831	0.001055	20.673981
717.194037	-3.007600	3.717400	-11.179000	24.191928	0.001054	20.678765
718.187742	-2.992500	3.717500	-11.123000	24.217315	0.001053	20.671512
719.189301	-3.027800	3.716000	-11.250000	24.215711	0.001054	20.680810
720.188422	-3.010400	3.716900	-11.189000	24.221163	0.001054	20.691969
721.187603	-3.016400	3.715500	-11.204000	24.232134	0.001055	20.699655
722.193342	-3.009100	3.717200	-11.184000	24.195384	0.001054	20.702149
723.186831	-2.997600	3.716600	-11.139000	24.218996	0.001054	20.674146
724.186167	-2.999300	3.717900	-11.150000	24.153482	0.001053	20.700898
725.203393	-3.011300	3.716100	-11.189000	24.140123	0.001054	20.702672
726.212229	-2.996800	3.715400	-11.132000	24.138004	0.001053	20.681105
727.208630	-3.021700	3.713400	-11.220000	24.117203	0.001050	20.704814
728.202600	-3.004800	3.714500	-11.159000	24.125867	0.001051	20.695959
729.189899	-3.012000	3.715400	-11.189000	24.122834	0.001051	20.697659
730.212987	-2.996200	3.713900	-11.127000	24.125516	0.001050	20.714576
731.200911	-2.986300	3.713900	-11.089000	24.168634	0.001052	20.700448
732.207156	-2.980800	3.715800	-11.074000	24.174566	0.001052	20.699286
733.204806	-3.012400	3.714600	-11.188000	24.179588	0.001051	20.689149
734.206101	-3.004300	3.713600	-11.157000	24.192905	0.001050	20.706300
735.211311	-3.004000	3.713700	-11.155000	24.213085	0.001052	20.699040
736.211714	-2.996700	3.712700	-11.125000	24.195090	0.001048	20.692844
737.215502	-3.009000	3.712200	-11.169000	24.184623	0.001052	20.686138
738.209497	-3.024900	3.710000	-11.221000	24.185422	0.001050	20.702588
739.206373	-3.026600	3.710800	-11.230000	24.190198	0.001049	20.689834
740.215056	-2.972500	3.711700	-11.031000	24.202146	0.001050	20.681428
741.217741	-2.983400	3.712500	-11.074000	24.212073	0.001051	20.686644
742.206771	-3.011700	3.711600	-11.177000	24.239312	0.001049	20.685042
743.209555	-2.981500	3.712600	-11.068000	24.218814	0.001048	20.719012
744.211366	-3.003700	3.711200	-11.145000	24.220526	0.001048	20.703659
745.194030	-2.979100	3.712100	-11.058000	24.199537	0.001048	20.710582
746.191459	-3.013700	3.710100	-11.181000	24.159575	0.001049	20.690413
747.208344	-2.977700	3.712000	-11.052000	24.180548	0.001047	20.701018
748.195098	-2.987700	3.709700	-11.083000	24.180604	0.001047	20.708187
749.192991	-2.997800	3.710900	-11.124000	24.180978	0.001047	20.688172
750.193417	-2.987600	3.710000	-11.083000	24.219146	0.001047	20.710336
751.192946	-2.998700	3.708200	-11.120000	24.234844	0.001046	20.703322
752.214507	-3.001500	3.709000	-11.132000	24.247656	0.001047	20.709061
753.212399	-3.025300	3.708000	-11.217000	24.235765	0.001047	20.715626
754.213173	-2.991900	3.708400	-11.095000	24.244151	0.001047	20.714555
755.210426	-2.992000	3.706700	-11.089000	24.261788	0.001048	20.712806
756.209500	-3.015400	3.708300	-11.180000	24.234672	0.001048	20.705995
757.215491	-2.993800	3.706600	-11.096000	24.277989	0.001046	20.701081
758.217532	-3.017000	3.706900	-11.183000	24.282790	0.001045	20.713009
759.215095	-2.989100	3.707500	-11.081000	24.279400	0.001047	20.712929
760.213286	-3.018900	3.706200	-11.188000	24.287737	0.001045	20.709911
761.220198	-2.977800	3.707100	-11.038000	24.285594	0.001045	20.726729
762.223260	-3.007200	3.706400	-11.144000	24.288952	0.001045	20.699750
763.217714	-2.995900	3.704700	-11.098000	24.282342	0.001045	20.712560
764.220813	-2.980000	3.706800	-11.045000	24.304330	0.001045	20.731773
765.217957	-3.005900	3.705600	-11.137000	24.281666	0.001045	20.735591
766.233695	-2.997400	3.705600	-11.105000	24.281095	0.001044	20.709887
767.221916	-3.000900	3.705300	-11.117000	24.279940	0.001045	20.719160
768.219317	-2.986500	3.706200	-11.068000	24.272513	0.001044	20.726409
769.214855	-3.012700	3.702900	-11.155000	24.263231	0.001045	20.711408
770.212769	-3.006500	3.703300	-11.132000	24.228821	0.001043	20.706764
771.196056	-2.999200	3.703200	-11.106000	24.238577	0.001044	20.707066
772.204662	-3.009500	3.702800	-11.142000	24.225715	0.001043	20.729729
773.207726	-3.011500	3.702900	-11.150000	24.254127	0.001042	20.716027
774.221921	-3.016800	3.700900	-11.162000	24.265545	0.001043	20.694762
775.217455	-3.002300	3.702800	-11.116000	24.259278	0.001044	20.727832
776.219372	-3.017000	3.701700	-11.168000	24.296921	0.001041	20.731453
777.236279	-2.995700	3.702300	-11.089000	24.292520	0.001042	20.733203
778.200449	-3.017000	3.702100	-11.168000	24.280973	0.001040	20.716877
779.199900	-3.021200	3.701400	-11.181000	24.316203	0.001040	20.718078
780.203214	-3.012400	3.701500	-11.150000	24.302643	0.001039	20.736244
781.204068	-3.011300	3.701000	-11.144000	24.325275	0.001039	20.727179
782.223201	-3.000500	3.701300	-11.104000	24.319627	0.001039	20.727677
783.201277	-2.989200	3.701000	-11.062000	24.317719	0.001040	20.721021
784.201582	-2.991800	3.700600	-11.071000	24.326994	0.001039	20.739809
785.200840	-3.020900	3.699700	-11.175000	24.360676	0.001040	20.747045
786.204788	-2.980500	3.699800	-11.025000	24.323237	0.001041	20.725134
787.216111	-3.000800	3.700600	-11.103000	24.311763	0.001040	20.725004
788.202899	-2.970200	3.699500	-10.987000	24.303525	0.001038	20.734284
789.223203	-2.997100	3.698800	-11.085000	24.323034	0.001039	20.718292
790.217874	-2.999500	3.699600	-11.096000	24.323654	0.001039	20.723181
791.218084	-2.989100	3.699000	-11.056000	24.351639	0.001038	20.731815
792.218748	-3.003000	3.697900	-11.103000	24.323745	0.001037	20.725169
793.219648	-2.996800	3.696800	-11.077000	24.310069	0.001038	20.727572
794.222419	-3.015200	3.697800	-11.147000	24.326150	0.001039	20.728057
795.202549	-3.016700	3.697000	-11.151000	24.309337	0.001037	20.731105
796.225238	-3.010800	3.697400	-11.132000	24.306077	0.001036	20.720248
797.203114	-2.990100	3.697200	-11.054000	24.309060	0.001038	20.747898
798.234922	-2.972600	3.696300	-10.987000	24.318717	0.001036	20.730558
799.224438	-3.014200	3.696100	-11.139000	24.334676	0.001037	20.729497
800.225370	-2.984700	3.696300	-11.031000	24.343208	0.001036	20.748014
801.224929	-2.980400	3.695600	-11.014000	24.368959	0.001036	20.759148
802.225136	-2.984100	3.696200	-11.029000	24.360900	0.001037	20.750589
803.227325	-3.009800	3.695700	-11.122000	24.354030	0.001036	20.761242
804.222627	-2.996800	3.695200	-11.073000	24.361869	0.001035	20.744923
805.224035	-2.974700	3.695000	-10.990000	24.364821	0.001035	20.747410
806.220440	-3.025700	3.693800	-11.175000	24.376434	0.001035	20.732981
807.224429	-3.007100	3.694700	-11.109000	24.356289	0.001035	20.752127
808.223160	-3.005700	3.693000	-11.099000	24.355343	0.001035	20.757343
809.223773	-3.009600	3.692400	-11.110000	24.393946	0.001035	20.755766
810.205289	-3.019300	3.691600	-11.144000	24.370860	0.001034	20.753943
811.219878	-2.998700	3.692700	-11.073000	24.372523	0.001032	20.751818
812.207585	-2.985400	3.694100	-11.027000	24.352150	0.001033	20.756985
813.208094	-2.991000	3.693600	-11.046000	24.360217	0.001032	20.755120
814.205472	-2.987500	3.692200	-11.028000	24.367919	0.001032	20.781339
815.205888	-3.003900	3.691200	-11.086000	24.368294	0.001033	20.742359
816.207965	-3.014400	3.690200	-11.123000	24.380404	0.001033	20.763518
817.231180	-3.007600	3.691700	-11.102000	24.382099	0.001030	20.750044
818.208486	-3.004900	3.691000	-11.089000	24.369386	0.001032	20.764793
819.207035	-3.020100	3.688800	-11.138000	24.372744	0.001031	20.751565
820.209345	-3.008200	3.689700	-11.099000	24.363413	0.001031	20.754059
821.242321	-3.005000	3.690000	-11.086000	24.356821	0.001031	20.753609
822.207772	-3.024100	3.689300	-11.155000	24.363756	0.001029	20.770051
823.209838	-2.984200	3.690100	-11.011000	24.351443	0.001029	20.759120
824.208149	-2.966900	3.690200	-10.946000	24.339878	0.001030	20.755580
825.219755	-2.980900	3.689800	-10.998000	24.342438	0.001030	20.760518
826.209215	-2.988800	3.688500	-11.023000	24.374799	0.001029	20.780654
827.228449	-2.992700	3.689400	-11.041000	24.382158	0.001031	20.770967
828.209319	-3.002100	3.688700	-11.073000	24.394766	0.001029	20.753269
829.227618	-3.003600	3.688500	-11.078000	24.439095	0.001027	20.744635
830.223333	-2.982300	3.689000	-11.000000	24.450242	0.001028	20.764828
831.208231	-2.993400	3.687700	-11.038000	24.428869	0.001028	20.771361
832.233083	-2.991900	3.687400	-11.031000	24.428267	0.001027	20.779766
833.228746	-2.994900	3.687800	-11.044000	24.446748	0.001027	20.765116
834.227401	-2.991500	3.686900	-11.029000	24.437271	0.001027	20.762246
835.235420	-3.003100	3.686900	-11.071000	24.436840	0.001029	20.774617
836.229145	-3.018700	3.686500	-11.127000	24.429100	0.001027	20.783921
837.237636	-3.010400	3.685700	-11.095000	24.424367	0.001025	20.787233
838.230082	-2.987100	3.685800	-11.009000	24.417627	0.001026	20.790429
839.210560	-3.021600	3.685300	-11.135000	24.392122	0.001026	20.761523
840.225867	-3.002700	3.685900	-11.067000	24.424881	0.001026	20.764515
841.227820	-2.994400	3.684700	-11.033000	24.403165	0.001026	20.764066
842.231547	-2.984200	3.684800	-10.996000	24.415999	0.001024	20.789270
843.225463	-3.015300	3.684300	-11.109000	24.434670	0.001025	20.780500
844.225278	-3.024500	3.683600	-11.139000	24.415170	0.001026	20.780377
845.233125	-2.974900	3.684300	-10.959000	24.444171	0.001022	20.781023
846.210661	-2.996600	3.682400	-11.034000	24.473393	0.001025	20.783787
847.211391	-2.985600	3.684500	-11.000000	24.453862	0.001024	20.778417
848.210900	-3.007600	3.684200	-11.079000	24.463818	0.001025	20.793148
849.233370	-2.994500	3.682800	-11.027000	24.455182	0.001024	20.784483
850.237625	-2.980300	3.683000	-10.975000	24.463086	0.001023	20.791465
851.229705	-3.010500	3.683000	-11.087000	24.465849	0.001024	20.776693
852.233534	-2.982000	3.682900	-10.981000	24.494352	0.001022	20.792013
853.232827	-3.015500	3.682100	-11.102000	24.475245	0.001023	20.793232
854.240224	-3.010100	3.679600	-11.074000	24.459950	0.001021	20.799224
855.233198	-3.003600	3.681000	-11.056000	24.450441	0.001022	20.798219
856.242160	-3.017400	3.680300	-11.104000	24.460790	0.001022	20.782523
857.235422	-3.013300	3.681300	-11.091000	24.500268	0.001022	20.811699
858.231438	-3.018500	3.680800	-11.109000	24.515636	0.001020	20.783022
859.212310	-3.007000	3.682100	-11.071000	24.497531	0.001020	20.796625
860.230588	-2.992400	3.680300	-11.012000	24.499642	0.001021	20.792105
861.230202	-3.004100	3.680800	-11.056000	24.517029	0.001020	20.794377
862.227941	-2.988800	3.679600	-10.996000	24.557118	0.001021	20.799038
863.219429	-2.980200	3.679400	-10.965000	24.530524	0.001020	20.796537
864.213171	-2.999000	3.678800	-11.032000	24.544352	0.001020	20.793815
865.230973	-2.985900	3.677800	-10.980000	24.574376	0.001018	20.810663
866.227635	-3.010100	3.679600	-11.074000	24.578972	0.001020	20.801999
867.223879	-3.013700	3.678400	-11.085000	24.589074	0.001020	20.790324
868.217830	-3.002000	3.677300	-11.038000	24.601213	0.001019	20.792547
869.214608	-3.013400	3.677600	-11.081000	24.645576	0.001018	20.822837
870.221123	-3.012700	3.676300	-11.075000	24.656567	0.001018	20.826279
871.217762	-3.015900	3.675000	-11.082000	24.607773	0.001018	20.792017
872.226343	-2.999900	3.676200	-11.028000	24.570245	0.001015	20.805096
873.216070	-2.993400	3.676000	-11.003000	24.552207	0.001018	20.827301
874.218225	-2.985100	3.676700	-10.974000	24.535317	0.001017	20.829794
875.216080	-2.984900	3.675700	-10.971000	24.530444	0.001015	20.791715
876.220290	-2.990800	3.677000	-10.996000	24.533353	0.001015	20.807910
877.215982	-2.966900	3.676200	-10.906000	24.531081	0.001017	20.824596
878.218626	-2.998400	3.675700	-11.020000	24.537900	0.001015	20.801093
879.225363	-2.997000	3.676100	-11.016000	24.563045	0.001017	20.824424
880.218837	-2.973700	3.675100	-10.928000	24.567224	0.001016	20.831462
881.226839	-2.977600	3.675600	-10.944000	24.576522	0.001014	20.813765
882.218956	-2.974000	3.676000	-10.931000	24.577589	0.001014	20.827638
883.224550	-2.999700	3.674900	-11.023000	24.608225	0.001016	20.808117
884.216128	-3.001900	3.674600	-11.029000	24.597185	0.001014	20.793246
885.220089	-3.005300	3.674300	-11.041000	24.617228	0.001014	20.825211
886.240269	-2.997100	3.673600	-11.009000	24.629097	0.001012	20.822422
887.221162	-2.996800	3.672600	-11.005000	24.630077	0.001013	20.819613
888.218014	-3.016100	3.672000	-11.074000	24.618313	0.001011	20.821558
889.221906	-3.000300	3.671400	-11.014000	24.596331	0.001011	20.838382
890.217897	-2.989200	3.672900	-10.978000	24.606296	0.001011	20.810924
891.219101	-2.993400	3.671400	-10.989000	24.608911	0.001012	20.841521
892.222626	-2.984000	3.674000	-10.962000	24.645290	0.001012	20.832980
893.237522	-2.999300	3.672000	-11.012000	24.642038	0.001010	20.834933
894.228118	-2.978800	3.671600	-10.935000	24.653501	0.001010	20.836952
895.240377	-2.992800	3.670200	-10.982000	24.668713	0.001009	20.828035
896.236290	-3.025300	3.669700	-11.101000	24.670978	0.001011	20.848799
897.271244	-3.031200	3.670100	-11.123000	24.648216	0.001009	20.826908
898.223897	-3.004900	3.670800	-11.029000	24.654758	0.001009	20.821144
899.223063	-3.010700	3.669600	-11.047000	24.632745	0.001010	20.834617
900.223235	-2.989200	3.669500	-10.967000	24.667656	0.001007	20.821759
901.229641	-2.986700	3.668400	-10.956000	24.650327	0.001009	20.828077
902.249317	-3.010500	3.668200	-11.042000	24.646337	0.001008	20.841617
903.240670	-2.979000	3.669100	-10.928000	24.668122	0.001007	20.850200
904.250410	-3.007500	3.667600	-11.029000	24.673540	0.001007	20.858482
905.254519	-2.999600	3.668600	-11.003000	24.670901	0.001006	20.802730
906.242539	-2.993300	3.667700	-10.975000	24.702430	0.001006	20.854756
907.223242	-3.007400	3.667500	-11.029000	24.684205	0.001005	20.837416
908.231267	-3.007000	3.668200	-11.029000	24.684370	0.001004	20.850383
909.225254	-3.007900	3.666400	-11.026000	24.692875	0.001004	20.833314
910.232380	-3.001000	3.666100	-11.001000	24.683890	0.001007	20.834730
911.248025	-3.000400	3.666900	-11.001000	24.693985	0.001005	20.833005
912.243344	-2.993900	3.667200	-10.979000	24.669186	0.001004	20.841312
913.250929	-3.009800	3.666400	-11.034000	24.689781	0.001002	20.833529
914.246030	-3.029100	3.664900	-11.100000	24.680226	0.001004	20.835794
915.226240	-3.011100	3.666300	-11.038000	24.654384	0.001003	20.854907
916.242976	-2.993900	3.666200	-10.974000	24.657734	0.001002	20.834087
917.250908	-3.007800	3.666100	-11.025000	24.659943	0.001003	20.838674
918.248040	-2.992600	3.664900	-10.967000	24.666631	0.001002	20.833058
919.244483	-3.000900	3.665500	-10.998000	24.631167	0.001001	20.824025
920.247994	-3.005000	3.663600	-11.008000	24.612762	0.001004	20.832584
921.247154	-2.997600	3.664900	-10.985000	24.574633	0.001000	20.834628
922.257369	-3.014500	3.663000	-11.040000	24.575725	0.001002	20.826241
923.251357	-3.017800	3.663300	-11.053000	24.531328	0.001001	20.831007
924.255847	-3.004100	3.662400	-11.000000	24.525373	0.001001	20.843525
925.257123	-2.971300	3.663500	-10.885000	24.520794	0.001001	20.832293
926.247806	-3.004300	3.662000	-11.001000	24.518106	0.001001	20.829122
927.232585	-2.992700	3.662900	-10.961000	24.550315	0.001001	20.821135
928.260727	-3.000500	3.661200	-10.985000	24.576152	0.000998	20.828093
929.257364	-2.986200	3.662800	-10.936000	24.607642	0.000999	20.810377
930.257239	-3.001900	3.660600	-10.988000	24.605475	0.000998	20.809151
931.256557	-3.014500	3.661900	-11.038000	24.584333	0.000997	20.816387
932.253227	-2.967700	3.662400	-10.868000	24.564013	0.000997	20.809749
933.252866	-2.992600	3.661600	-10.957000	24.578680	0.000997	20.815456
934.250786	-2.999400	3.660100	-10.977000	24.582590	0.000995	20.822224
935.272360	-3.000300	3.660200	-10.980000	24.583773	0.000998	20.809661
936.259328	-3.007800	3.660400	-11.008000	24.610009	0.000996	20.804691
937.271024	-3.004700	3.660100	-10.995000	24.612525	0.000997	20.810061
938.256542	-2.983600	3.661200	-10.922000	24.635127	0.000996	20.811877
939.251485	-2.985300	3.659700	-10.924000	24.640447	0.000996	20.814845
940.243446	-3.023500	3.659000	-11.062000	24.679219	0.000995	20.817240
941.235932	-3.007800	3.659000	-11.004000	24.667326	0.000995	20.809573
942.243019	-2.995000	3.659700	-10.959000	24.662576	0.000994	20.802437
943.237680	-3.013300	3.658400	-11.023000	24.668883	0.000994	20.822042
944.237438	-3.019000	3.657300	-11.040000	24.637777	0.000994	20.810743
945.237495	-3.006100	3.658500	-10.997000	24.635421	0.000993	20.816440
946.239610	-3.021800	3.656800	-11.050000	24.620471	0.000994	20.815664
947.238033	-2.987000	3.656800	-10.922000	24.632554	0.000992	20.819253
948.248077	-2.992400	3.658500	-10.946000	24.640035	0.000992	20.800681
949.256013	-3.003200	3.657300	-10.983000	24.645828	0.000992	20.809813
950.255992	-3.023600	3.656100	-11.054000	24.662415	0.000993	20.830250
951.264124	-3.001600	3.656500	-10.975000	24.650976	0.000991	20.796487
952.256624	-2.996700	3.656300	-10.956000	24.628571	0.000990	20.824265
953.259113	-3.020100	3.655100	-11.038000	24.628872	0.000990	20.796592
954.239551	-2.999400	3.654200	-10.960000	24.642642	0.000991	20.802823
955.239540	-3.017500	3.655100	-11.028000	24.645429	0.000991	20.810360
956.239312	-3.011000	3.654600	-11.002000	24.660931	0.000990	20.799838
957.247349	-3.002200	3.654300	-10.970000	24.660623	0.000990	20.794313
958.240166	-2.983000	3.654400	-10.900000	24.688974	0.000989	20.809486
959.244403	-3.006500	3.653800	-10.985000	24.692184	0.000991	20.788051
960.241642	-2.989500	3.654300	-10.924000	24.714588	0.000990	20.819541
961.250319	-2.983600	3.654800	-10.903000	24.723492	0.000989	20.800502
962.263897	-3.032600	3.652500	-11.075000	24.723362	0.000988	20.800846
963.246477	-3.006000	3.653300	-10.981000	24.729603	0.000988	20.797151
964.264847	-3.013500	3.653500	-11.009000	24.748649	0.000988	20.804411
965.268897	-2.996300	3.652200	-10.941000	24.776907	0.000988	20.785353
966.265710	-3.003700	3.653000	-10.970000	24.711746	0.000988	20.801043
967.267159	-2.993000	3.652200	-10.930000	24.723184	0.000986	20.785020
968.272826	-2.975500	3.651900	-10.865000	24.681855	0.000988	20.779109
969.264505	-3.005100	3.651500	-10.972000	24.698092	0.000986	20.784497
970.256438	-3.000500	3.652100	-10.956000	24.710507	0.000987	20.808808
971.242909	-2.994000	3.652000	-10.933000	24.722865	0.000986	20.797977
972.253674	-3.009600	3.650700	-10.986000	24.726694	0.000986	20.799448
973.249862	-2.981100	3.651800	-10.885000	24.737611	0.000986	20.788118
974.268973	-2.988000	3.650600	-10.906000	24.753798	0.000984	20.782077
975.248682	-3.004000	3.650000	-10.964000	24.762898	0.000981	20.783622
976.258822	-2.994000	3.650100	-10.927000	24.772893	0.000981	20.791282
977.258153	-3.015400	3.649100	-11.003000	24.737506	0.000983	20.787064
978.262223	-2.981500	3.649600	-10.880000	24.704830	0.000981	20.781300
979.263963	-2.981700	3.650000	-10.882000	24.703185	0.000981	20.785814
980.270589	-2.995000	3.648300	-10.925000	24.706296	0.000981	20.793204
981.268928	-2.980000	3.649300	-10.874000	24.705253	0.000979	20.788364
982.265923	-3.004100	3.647000	-10.955000	24.699503	0.000981	20.780222
983.263810	-3.012700	3.647300	-10.987000	24.724938	0.000980	20.773978
984.263411	-3.009900	3.648600	-10.980000	24.692163	0.000979	20.776176
985.279087	-3.013000	3.646300	-10.985000	24.703283	0.000980	20.788283
986.262975	-3.003000	3.647400	-10.951000	24.716555	0.000978	20.789274
987.263110	-3.017600	3.646300	-11.002000	24.719691	0.000978	20.774877
988.264131	-2.985000	3.647000	-10.886000	24.738168	0.000977	20.780616
989.277163	-3.000500	3.646900	-10.942000	24.723901	0.000979	20.767722
990.265771	-2.991600	3.646600	-10.908000	24.688677	0.000978	20.785955
991.271208	-2.983300	3.646800	-10.878000	24.686616	0.000979	20.764919
992.250465	-3.007400	3.645400	-10.962000	24.667788	0.000976	20.782537
993.266923	-2.987800	3.645500	-10.891000	24.676367	0.000978	20.780714
994.274779	-3.010700	3.645100	-10.973000	24.713573	0.000976	20.798135
995.272591	-3.001500	3.644500	-10.938000	24.713101	0.000977	20.760202
996.275410	-3.001000	3.643800	-10.934000	24.721410	0.000975	20.776601
997.271762	-3.007100	3.644100	-10.957000	24.747691	0.000975	20.771681
998.252585	-3.004100	3.643500	-10.945000	24.768235	0.000975	20.752942
999.252901	-2.975800	3.644200	-10.843000	24.766744	0.000976	20.783215
1000.279686	-3.007000	3.643000	-10.952000	24.774070	0.000976	20.779186
1001.252606	-2.975200	3.645400	-10.844000	24.797651	0.000973	20.777247
1002.254597	-2.993200	3.643100	-10.903000	24.787078	0.000973	20.784181
1003.254384	-3.004100	3.642600	-10.941000	24.820452	0.000974	20.788276
1004.254293	-3.025300	3.642100	-11.017000	24.801903	0.000973	20.773454
1005.255675	-3.005700	3.641100	-10.943000	24.794907	0.000973	20.785400
1006.254418	-2.994600	3.641400	-10.904000	24.787176	0.000973	20.776693
1007.288411	-3.000200	3.642100	-10.926000	24.786427	0.000972	20.783528
1008.280038	-3.003200	3.642000	-10.936000	24.778175	0.000970	20.773349
1009.271943	-3.000300	3.640100	-10.920000	24.768099	0.000971	20.776040
1010.273812	-2.996900	3.642100	-10.912000	24.773100	0.000972	20.774420
1011.291684	-3.007200	3.641200	-10.949000	24.804958	0.000969	20.763718
1012.275705	-2.998000	3.640300	-10.913000	24.782998	0.000970	20.765387
1013.279005	-3.000000	3.639500	-10.917000	24.791226	0.000970	20.774592
1014.275050	-2.989100	3.639000	-10.877000	24.782648	0.000966	20.765510
1015.257117	-2.983300	3.640100	-10.859000	24.760882	0.000968	20.777332
1016.260306	-2.981800	3.640600	-10.853000	24.790882	0.000971	20.761446
1017.283682	-2.994600	3.638600	-10.895000	24.798957	0.000967	20.761962
1018.257702	-3.006200	3.638400	-10.937000	24.813463	0.000966	20.774624
1019.281320	-3.002000	3.638300	-10.922000	24.822604	0.000966	20.776212
1020.283758	-2.983100	3.638600	-10.853000	24.834023	0.000965	20.753532
1021.274791	-3.006400	3.638100	-10.936000	24.809351	0.000965	20.768126
1022.276599	-2.991300	3.636900	-10.878000	24.802092	0.000967	20.777437
1023.276232	-2.978200	3.638800	-10.836000	24.807965	0.000966	20.761994
1024.274305	-3.003500	3.638300	-10.927000	24.781402	0.000966	20.777062
1025.284654	-3.001200	3.635700	-10.910000	24.779641	0.000967	20.754906
1026.276587	-3.016200	3.635800	-10.965000	24.792643	0.000963	20.774592
1027.269090	-3.010300	3.636000	-10.944000	24.800626	0.000966	20.761267
1028.278495	-3.009300	3.635900	-10.940000	24.823322	0.000963	20.750378
1029.278450	-3.009000	3.637300	-10.944000	24.833145	0.000963	20.766402
1030.282171	-3.008300	3.635100	-10.934000	24.845453	0.000961	20.741770
1031.276078	-3.004500	3.634700	-10.920000	24.862713	0.000960	20.758618
1032.274683	-3.021000	3.634300	-10.979000	24.874696	0.000963	20.775386
1033.285174	-2.999200	3.634400	-10.900000	24.886905	0.000962	20.775787
1034.280352	-3.015100	3.633600	-10.955000	24.900900	0.000962	20.753322
1035.281853	-3.004100	3.634200	-10.916000	24.894139	0.000960	20.768348
1036.284460	-3.007000	3.633300	-10.923000	24.888512	0.000960	20.769338
1037.281053	-2.987200	3.633200	-10.852000	24.821652	0.000959	20.761980
1038.295192	-2.995300	3.631600	-10.877000	24.817253	0.000962	20.757565
1039.285624	-3.001000	3.633000	-10.900000	24.821303	0.000960	20.764474
1040.279363	-2.996700	3.632500	-10.884000	24.832193	0.000960	20.759757
1041.285501	-2.977100	3.632100	-10.812000	24.846164	0.000962	20.739638
1042.281989	-3.026700	3.631700	-10.991000	24.863098	0.000958	20.753315
1043.276478	-2.999900	3.631600	-10.892000	24.836740	0.000959	20.754362
1044.284349	-3.004500	3.631600	-10.909000	24.812921	0.000957	20.733776
1045.281153	-2.994400	3.632200	-10.875000	24.827591	0.000959	20.766992
1046.260671	-3.010800	3.629500	-10.925000	24.858202	0.000959	20.732279
1047.289418	-3.012700	3.630200	-10.935000	24.865940	0.000959	20.754270
1048.262474	-2.982000	3.632400	-10.830000	24.864841	0.000956	20.747477
1049.266499	-3.000700	3.629200	-10.889000	24.882020	0.000955	20.747175
1050.281330	-3.004400	3.629900	-10.904000	24.897236	0.000955	20.744429
1051.296812	-2.995600	3.628500	-10.868000	24.882825	0.000954	20.747035
1052.266234	-3.010700	3.628300	-10.922000	24.866405	0.000953	20.737667
1053.263582	-3.004700	3.628500	-10.901000	24.893040	0.000952	20.748752
1054.262889	-3.007900	3.628000	-10.910000	24.867602	0.000953	20.733178
1055.281270	-2.980100	3.629200	-10.815000	24.862902	0.000953	20.745532
1056.263770	-3.020000	3.627500	-10.954000	24.846822	0.000953	20.745988
1057.283145	-3.018100	3.627500	-10.947000	24.842937	0.000951	20.725019
1058.291705	-2.987200	3.629100	-10.840000	24.842164	0.000953	20.753167
1059.290870	-3.004700	3.627800	-10.900000	24.826947	0.000951	20.741689
1060.286243	-2.992000	3.627900	-10.854000	24.838605	0.000952	20.746276
1061.284591	-3.035500	3.626300	-11.006000	24.854570	0.000952	20.730530
1062.283338	-3.007900	3.626200	-10.906000	24.862633	0.000949	20.741942
1063.293426	-2.995300	3.626300	-10.861000	24.865964	0.000950	20.750501
1064.274917	-2.989900	3.625900	-10.840000	24.903955	0.000949	20.740741
1065.265339	-3.003000	3.626000	-10.888000	24.917336	0.000947	20.743266
1066.281096	-3.015800	3.624500	-10.929000	24.946552	0.000949	20.750305
1067.284781	-2.987700	3.624300	-10.826000	24.943840	0.000949	20.738573
1068.299237	-3.021900	3.623400	-10.949000	24.904133	0.000946	20.748506
1069.283631	-3.004600	3.624400	-10.889000	24.874321	0.000949	20.736603
1070.284090	-2.995400	3.624300	-10.855000	24.878402	0.000946	20.727895
1071.299483	-2.996100	3.624900	-10.859000	24.854521	0.000946	20.729058
1072.290674	-2.995700	3.623900	-10.855000	24.869167	0.000944	20.735223
1073.268631	-2.991700	3.622100	-10.834000	24.860988	0.000945	20.727488
1074.266265	-2.980100	3.622600	-10.794000	24.838930	0.000946	20.739964
1075.265764	-2.987800	3.622100	-10.821000	24.809074	0.000946	20.727070
1076.286829	-3.014400	3.620800	-10.912000	24.798551	0.000944	20.723621
1077.293675	-2.971500	3.622200	-10.762000	24.782494	0.000944	20.718412
1078.286561	-2.984600	3.622000	-10.809000	24.779246	0.000944	20.716575
1079.286834	-3.005100	3.622100	-10.883000	24.773436	0.000943	20.727815
1080.299968	-3.038100	3.619000	-10.992000	24.778707	0.000943	20.723147
1081.286743	-3.006100	3.620800	-10.883000	24.800465	0.000942	20.733129
1082.289145	-2.995200	3.621000	-10.844000	24.786690	0.000942	20.714088
1083.293144	-3.002200	3.619500	-10.865000	24.779106	0.000941	20.735402
1084.303385	-2.992200	3.621100	-10.834000	24.787684	0.000942	20.709395
1085.288785	-2.968900	3.620600	-10.747000	24.776173	0.000942	20.720129
1086.297309	-2.972500	3.622200	-10.765000	24.757225	0.000939	20.734780
1087.288435	-2.995000	3.620200	-10.841000	24.772614	0.000941	20.721299
1088.299017	-3.003600	3.619300	-10.869000	24.806110	0.000941	20.736898
1089.294549	-3.010600	3.618300	-10.893000	24.818720	0.000939	20.726318
1090.287750	-3.000900	3.617900	-10.856000	24.805890	0.000939	20.727193
1091.296381	-2.994700	3.617700	-10.833000	24.799380	0.000938	20.722082
1092.273132	-3.006300	3.616800	-10.872000	24.823892	0.000936	20.730087
1093.278585	-2.990000	3.617400	-10.815000	24.845054	0.000937	20.713867
1094.277061	-2.977500	3.618000	-10.771000	24.872155	0.000936	20.714039
1095.275438	-3.005100	3.617100	-10.869000	24.910803	0.000937	20.713947
1096.276102	-3.024500	3.616000	-10.935000	24.897593	0.000937	20.719655
1097.287926	-3.013300	3.614800	-10.892000	24.927957	0.000936	20.715043
1098.293704	-2.985700	3.615500	-10.795000	24.961644	0.000934	20.714717
1099.280922	-3.004700	3.615100	-10.861000	24.970123	0.000934	20.722279
1100.302649	-3.007600	3.614100	-10.868000	24.986607	0.000934	20.717014
1101.300161	-2.999800	3.614000	-10.840000	25.021196	0.000934	20.713326
1102.297706	-3.001200	3.613400	-10.843000	24.998938	0.000933	20.707579
1103.303407	-3.002800	3.615300	-10.855000	24.959331	0.000935	20.707653
1104.298060	-2.994300	3.615100	-10.824000	24.972663	0.000934	20.688790
1105.302630	-3.015700	3.612700	-10.893000	24.987031	0.000933	20.718861
1106.305796	-3.021000	3.611000	-10.906000	24.988203	0.000934	20.696328
1107.298408	-3.004200	3.612300	-10.851000	25.006300	0.000933	20.686518
1108.302189	-3.028300	3.611000	-10.933000	25.017448	0.000931	20.718099
1109.296875	-2.987200	3.613300	-10.793000	25.027018	0.000929	20.704945
1110.283427	-2.994000	3.611800	-10.812000	25.011220	0.000929	20.709950
1111.298406	-2.972100	3.614500	-10.742000	25.017515	0.000931	20.702992
1112.296614	-2.992300	3.611100	-10.803000	25.023607	0.000930	20.706736
1113.282979	-3.001300	3.610200	-10.834000	25.005331	0.000929	20.711626
1114.301867	-2.986100	3.610400	-10.780000	25.017123	0.000929	20.699279
1115.285626	-3.017400	3.611300	-10.896000	24.991706	0.000929	20.705061
1116.285773	-2.984800	3.610700	-10.776000	25.007423	0.000929	20.708510
1117.288874	-2.998700	3.610400	-10.826000	25.020324	0.000928	20.717193
1118.306186	-2.979200	3.612000	-10.759000	25.044691	0.000927	20.710357
1119.285056	-3.031700	3.609000	-10.940000	25.077192	0.000926	20.700308
1120.288283	-3.016500	3.608100	-10.883000	25.080842	0.000927	20.714878
1121.320668	-3.003900	3.608500	-10.839000	25.089344	0.000925	20.702549
1122.291710	-2.961500	3.609700	-10.688000	25.080394	0.000924	20.702574
1123.287533	-3.006800	3.608900	-10.850000	25.107373	0.000925	20.717329
1124.286665	-2.992000	3.608700	-10.797000	25.112065	0.000926	20.691692
1125.307693	-2.997400	3.609800	-10.819000	25.109955	0.000924	20.706645
1126.291402	-3.017400	3.607600	-10.885000	25.085726	0.000925	20.684691
1127.287050	-2.991200	3.606900	-10.788000	25.072745	0.000923	20.699163
1128.291736	-2.995200	3.607200	-10.803000	25.063470	0.000922	20.695541
1129.289670	-2.979900	3.607900	-10.750000	25.038834	0.000922	20.695468
1130.287533	-3.009200	3.606300	-10.850000	24.964076	0.000922	20.699138
1131.312834	-2.996800	3.606400	-10.807000	24.973370	0.000919	20.699458
1132.305867	-3.003800	3.605400	-10.829000	24.969493	0.000920	20.699834
1133.302961	-2.988300	3.604400	-10.770000	24.935903	0.000922	20.705475
1134.319539	-2.996000	3.604700	-10.799000	24.963278	0.000921	20.694544
1135.308736	-2.991900	3.604900	-10.785000	24.971438	0.000921	20.711744
1136.314946	-2.984400	3.605400	-10.759000	24.955027	0.000920	20.701909
1137.312541	-3.014900	3.603400	-10.863000	24.974941	0.000919	20.689654
1138.305254	-2.982800	3.605400	-10.754000	24.981383	0.000920	20.694698
1139.290151	-3.020200	3.603000	-10.880000	24.992419	0.000918	20.690603
1140.291522	-3.008200	3.603200	-10.839000	25.024418	0.000918	20.688109
1141.300554	-3.010000	3.603700	-10.846000	24.998584	0.000918	20.699163
1142.298661	-3.016800	3.604500	-10.873000	25.022854	0.000917	20.707403
1143.292454	-3.011800	3.602400	-10.848000	25.043491	0.000916	20.681175
1144.292606	-2.997400	3.603600	-10.799000	25.061913	0.000918	20.699194
1145.293434	-2.996700	3.603400	-10.798000	25.075040	0.000914	20.699570
1146.310105	-3.034500	3.601400	-10.927000	25.071832	0.000914	20.709152
1147.308162	-3.005100	3.602300	-10.824000	25.078053	0.000916	20.693110
1148.315654	-3.004800	3.601500	-10.821000	25.052000	0.000916	20.704891
1149.314483	-3.005900	3.599600	-10.819000	25.033326	0.000913	20.699422
1150.318038	-2.990800	3.600200	-10.766000	25.057742	0.000912	20.706862
1151.311714	-3.004900	3.600300	-10.819000	25.028179	0.000913	20.699472
1152.315757	-3.005900	3.599600	-10.819000	25.041461	0.000910	20.719918
1153.321321	-3.010200	3.598700	-10.831000	25.033063	0.000912	20.711013
1154.311413	-3.003300	3.599700	-10.809000	25.067864	0.000911	20.698056
1155.319354	-3.004700	3.598500	-10.811000	25.065110	0.000909	20.703353
1156.311831	-3.001200	3.598900	-10.800000	25.056136	0.000908	20.694817
1157.317597	-2.990200	3.599400	-10.762000	25.038788	0.000910	20.704905
1158.299637	-2.976200	3.599000	-10.709000	25.062553	0.000909	20.706001
1159.318518	-3.028600	3.597900	-10.895000	25.048032	0.000909	20.710866
1160.314439	-2.998000	3.598700	-10.787000	25.035831	0.000907	20.705730
1161.315853	-2.996700	3.597600	-10.780000	25.001876	0.000909	20.697725
1162.299453	-3.001800	3.595700	-10.793000	24.994710	0.000908	20.709499
1163.326866	-2.991700	3.597500	-10.761000	24.994815	0.000907	20.714821
1164.323669	-2.995400	3.598200	-10.775000	25.048616	0.000906	20.696752
1165.300631	-2.991700	3.598000	-10.763000	25.053144	0.000905	20.699875
1166.302405	-2.999500	3.596100	-10.785000	25.078528	0.000905	20.704020
1167.316607	-2.998100	3.595800	-10.779000	25.072394	0.000905	20.724891
1168.303031	-3.007100	3.594300	-10.807000	25.043784	0.000904	20.696169
1169.321036	-2.981600	3.595500	-10.719000	25.050691	0.000904	20.709267
1170.300841	-2.989000	3.596000	-10.747000	25.079903	0.000902	20.701132
1171.301271	-2.977000	3.593300	-10.696000	25.085406	0.000902	20.697647
1172.301920	-2.995400	3.594300	-10.766000	25.099552	0.000903	20.709952
1173.301354	-2.990400	3.592300	-10.741000	25.126076	0.000902	20.696748
1174.304281	-3.011900	3.591600	-10.815000	25.127769	0.000902	20.704139
1175.303392	-3.008200	3.592300	-10.806000	25.124064	0.000900	20.708954
1176.321954	-3.021900	3.591300	-10.852000	25.126880	0.000900	20.702772
1177.327203	-3.009000	3.592200	-10.808000	25.114649	0.000900	20.698554
1178.325853	-2.983200	3.592600	-10.716000	25.132499	0.000900	20.709362
1179.320969	-2.985900	3.593200	-10.728000	25.151962	0.000901	20.700924
1180.304521	-2.994800	3.592300	-10.756000	25.160845	0.000901	20.705575
1181.305263	-3.008300	3.591400	-10.803000	25.153117	0.000900	20.723896
1182.304643	-2.988400	3.591600	-10.732000	25.166488	0.000898	20.712189
1183.326409	-2.973700	3.591600	-10.679000	25.167611	0.000898	20.711420
1184.335280	-2.992300	3.590300	-10.742000	25.177438	0.000896	20.729821
1185.310603	-2.975900	3.590100	-10.683000	25.139696	0.000899	20.724173
1186.309116	-2.987700	3.588600	-10.719000	25.124588	0.000896	20.721809
1187.307674	-3.015400	3.588000	-10.817000	25.113326	0.000894	20.710029
1188.308313	-3.012900	3.587900	-10.808000	25.102168	0.000895	20.709259
1189.324774	-3.023200	3.588400	-10.847000	25.108928	0.000895	20.716045
1190.310902	-2.974400	3.589100	-10.674000	25.132926	0.000894	20.717851
1191.333688	-3.021800	3.588000	-10.841000	25.120792	0.000892	20.717998
1192.335673	-2.999000	3.587600	-10.758000	25.086809	0.000894	20.714704
1193.310445	-2.991700	3.586800	-10.729000	25.074038	0.000894	20.724644
1194.310545	-2.975100	3.587300	-10.671000	25.057726	0.000893	20.717752
1195.312014	-3.012100	3.586400	-10.801000	25.050095	0.000894	20.723843
1196.310824	-2.979500	3.587200	-10.686000	25.042464	0.000893	20.711440
1197.311399	-2.975000	3.586900	-10.670000	25.052985	0.000894	20.710622
1198.311480	-2.997100	3.586900	-10.747000	25.076008	0.000890	20.729940
1199.311440	-2.976000	3.586800	-10.673000	25.089779	0.000889	20.731911
1200.311979	-3.005800	3.584800	-10.774000	25.074689	0.000890	20.721029
1201.313777	-2.993600	3.585400	-10.732000	25.086025	0.000889	20.701113
1202.312284	-3.003100	3.585000	-10.765000	25.096976	0.000888	20.705469
1203.312496	-3.014200	3.583500	-10.800000	25.100730	0.000887	20.726783
1204.313848	-2.998600	3.583500	-10.744000	25.112042	0.000888	20.721068
1205.313058	-3.006000	3.583800	-10.771000	25.126813	0.000890	20.730681
1206.322201	-2.996000	3.582800	-10.733000	25.123843	0.000886	20.733390
1207.315561	-3.001600	3.583000	-10.754000	25.159844	0.000885	20.719744
1208.315222	-3.019500	3.582600	-10.817000	25.172204	0.000886	20.720773
1209.320471	-2.989100	3.583900	-10.710000	25.156170	0.000883	20.720797
1210.312760	-3.019700	3.581300	-10.814000	25.179093	0.000886	20.714412
1211.317049	-3.005100	3.583400	-10.767000	25.111412	0.000883	20.722806
1212.315190	-2.994100	3.582500	-10.725000	25.089831	0.000884	20.724376
1213.312644	-3.009300	3.580800	-10.773000	25.088666	0.000881	20.736958
1214.313764	-3.028500	3.580300	-10.841000	25.088690	0.000885	20.729870
1215.312257	-3.017400	3.580300	-10.802000	25.053166	0.000881	20.732142
1216.314474	-3.016700	3.578800	-10.795000	25.061571	0.000882	20.710706
1217.317845	-2.988500	3.580900	-10.700000	25.073054	0.000882	20.723182
1218.314706	-2.993500	3.579500	-10.714000	25.113553	0.000881	20.739181
1219.324162	-2.996500	3.579600	-10.726000	25.107745	0.000881	20.724341
1220.314548	-3.005600	3.578300	-10.755000	25.139660	0.000882	20.729353
1221.336064	-2.987200	3.578400	-10.687000	25.180831	0.000879	20.737021
1222.333445	-2.986400	3.577800	-10.684000	25.161694	0.000881	20.729188
1223.334192	-2.997500	3.579400	-10.728000	25.196784	0.000879	20.743554
1224.319112	-2.998400	3.579400	-10.731000	25.192964	0.000880	20.736399
1225.316602	-3.002600	3.578400	-10.742000	25.168901	0.000877	20.735475
1226.317203	-3.000900	3.578500	-10.738000	25.190008	0.000877	20.716361
1227.321414	-2.989600	3.577200	-10.693000	25.185015	0.000878	20.730316
1228.334251	-3.003400	3.578500	-10.746000	25.195357	0.000876	20.737853
1229.347483	-3.000400	3.575800	-10.728000	25.171742	0.000876	20.743543
1230.343659	-2.996100	3.575500	-10.711000	25.126099	0.000877	20.732810
1231.336046	-3.010200	3.577000	-10.767000	25.129762	0.000875	20.749764
1232.319634	-2.980100	3.575400	-10.654000	25.124370	0.000874	20.727755
1233.324095	-3.005000	3.575000	-10.741000	25.130805	0.000873	20.713350
1234.321858	-3.007600	3.572500	-10.744000	25.151593	0.000872	20.752240
1235.340670	-3.015300	3.573700	-10.774000	25.171081	0.000873	20.734818
1236.322470	-2.986900	3.574500	-10.675000	25.157782	0.000873	20.730477
1237.323733	-3.009700	3.573400	-10.753000	25.192261	0.000872	20.755134
1238.339281	-2.991600	3.573300	-10.688000	25.167830	0.000871	20.758583
1239.322936	-2.995800	3.574300	-10.706000	25.169867	0.000870	20.734548
1240.324265	-3.004600	3.572900	-10.733000	25.164566	0.000868	20.738236
1241.323537	-2.990300	3.572000	-10.680000	25.168474	0.000870	20.733624
1242.326282	-2.999800	3.571200	-10.712000	25.154508	0.000869	20.747105
1243.326174	-3.009500	3.571200	-10.747000	25.204890	0.000868	20.743157
1244.324419	-2.981200	3.572700	-10.649000	25.184686	0.000867	20.737572
1245.339482	-2.979100	3.571300	-10.638000	25.178221	0.000868	20.747203
1246.331245	-3.008500	3.569200	-10.737000	25.146055	0.000867	20.752370
1247.330083	-3.006400	3.570800	-10.734000	25.113472	0.000868	20.761386
1248.342493	-2.998800	3.570700	-10.707000	25.116778	0.000865	20.744316
1249.357271	-3.007500	3.569700	-10.734000	25.136665	0.000865	20.760013
1250.343554	-2.984900	3.569200	-10.652000	25.148147	0.000866	20.736926
1251.341155	-2.998000	3.569200	-10.698000	25.174278	0.000865	20.743245
1252.348280	-2.994800	3.570300	-10.691000	25.184098	0.000863	20.743620
1253.344182	-3.014400	3.568900	-10.756000	25.217858	0.000861	20.759971
1254.346220	-2.967800	3.569300	-10.592000	25.209707	0.000863	20.738510
1255.358991	-2.995200	3.569200	-10.689000	25.191589	0.000862	20.736441
1256.354469	-3.010400	3.566800	-10.735000	25.207076	0.000862	20.735394
1257.328385	-2.995500	3.568200	-10.687000	25.225072	0.000864	20.735443
1258.347625	-3.010900	3.566900	-10.737000	25.236995	0.000863	20.763061
1259.347274	-2.976700	3.568900	-10.622000	25.250907	0.000862	20.748580
1260.330117	-2.986600	3.568000	-10.655000	25.275335	0.000859	20.743234
1261.345397	-2.986200	3.565900	-10.648000	25.289762	0.000862	20.761987
1262.350746	-3.016400	3.564900	-10.751000	25.299875	0.000861	20.761235
1263.331890	-3.010900	3.565400	-10.734000	25.314392	0.000859	20.756844
1264.335544	-2.993000	3.564900	-10.669000	25.320685	0.000860	20.730445
1265.333166	-2.977500	3.565900	-10.616000	25.331326	0.000859	20.749191
1266.339838	-3.003000	3.565400	-10.706000	25.371465	0.000859	20.769106
1267.357837	-2.994900	3.563900	-10.673000	25.357673	0.000858	20.759524
1268.353122	-2.995700	3.563000	-10.671000	25.398805	0.000855	20.757677
1269.353373	-3.004600	3.562400	-10.703000	25.361654	0.000857	20.745029
1270.352717	-3.029200	3.562200	-10.789000	25.376618	0.000856	20.765745
1271.336066	-2.995300	3.563400	-10.673000	25.385761	0.000856	20.756908
1272.355466	-2.982700	3.563400	-10.627000	25.393796	0.000855	20.763553
1273.339470	-3.012800	3.562700	-10.733000	25.364169	0.000853	20.768892
1274.361468	-2.989400	3.562300	-10.648000	25.328164	0.000853	20.758344
1275.358467	-2.993200	3.563500	-10.665000	25.326195	0.000851	20.765850
1276.336468	-3.026100	3.559600	-10.770000	25.336640	0.000853	20.778234
1277.353515	-3.017000	3.561200	-10.743000	25.327919	0.000852	20.772797
1278.361086	-3.004200	3.560800	-10.697000	25.337234	0.000851	20.780254
1279.359965	-2.983900	3.561300	-10.625000	25.328465	0.000854	20.782829
1280.340169	-2.999000	3.559500	-10.674000	25.296604	0.000851	20.780236
1281.358202	-3.001200	3.560800	-10.685000	25.272145	0.000849	20.778912
1282.362861	-3.000300	3.560200	-10.681000	25.277095	0.000850	20.790046
1283.356297	-2.989100	3.560700	-10.642000	25.238100	0.000850	20.776499
1284.339834	-2.972300	3.559800	-10.579000	25.229648	0.000849	20.792670
1285.339129	-2.999500	3.558400	-10.673000	25.208671	0.000850	20.780619
1286.340049	-2.989000	3.560100	-10.640000	25.243277	0.000850	20.756093
1287.355202	-2.999200	3.558600	-10.672000	25.252772	0.000846	20.770841
1288.367263	-2.998900	3.559300	-10.672000	25.272607	0.000847	20.785066
1289.360455	-3.012800	3.558300	-10.719000	25.272607	0.000848	20.769893
1290.342294	-3.011900	3.557900	-10.715000	25.252925	0.000846	20.780479
1291.360239	-3.010100	3.558100	-10.709000	25.263389	0.000845	20.789087
1292.360857	-2.996900	3.557600	-10.660000	25.280170	0.000844	20.795978
1293.363026	-3.005400	3.558400	-10.694000	25.289125	0.000846	20.778891
1294.366088	-2.984700	3.557600	-10.617000	25.282286	0.000845	20.788620
1295.344251	-3.001300	3.556400	-10.673000	25.264340	0.000843	20.790043
1296.346902	-2.989100	3.555400	-10.627000	25.284598	0.000843	20.772450
1297.343362	-3.016600	3.554600	-10.720000	25.289426	0.000841	20.781090
1298.342249	-3.005300	3.554400	-10.681000	25.270168	0.000843	20.790204
1299.343750	-2.997800	3.554900	-10.655000	25.273817	0.000840	20.813782
1300.343679	-3.002000	3.554900	-10.670000	25.263557	0.000841	20.784514
1301.345853	-3.003400	3.554500	-10.674000	25.242654	0.000841	20.776805
1302.347318	-2.980500	3.555000	-10.593000	25.190833	0.000840	20.783573
1303.345493	-2.990500	3.552300	-10.622000	25.205768	0.000838	20.788610
1304.346157	-2.978900	3.553800	-10.585000	25.220636	0.000839	20.779355
1305.370378	-3.008000	3.553800	-10.688000	25.231652	0.000837	20.787096
1306.349809	-3.007000	3.552800	-10.681000	25.241643	0.000838	20.797601
1307.349360	-2.981100	3.554200	-10.594000	25.245771	0.000837	20.788943
1308.348478	-3.004400	3.552500	-10.671000	25.286442	0.000836	20.803698
1309.351122	-3.001300	3.551200	-10.658000	25.313661	0.000835	20.800207
1310.373880	-3.014600	3.550500	-10.701000	25.325785	0.000836	20.775396
1311.369301	-3.015800	3.549700	-10.703000	25.332648	0.000836	20.792719
1312.371228	-3.012300	3.551000	-10.695000	25.374407	0.000835	20.805251
1313.367426	-2.993600	3.549600	-10.626000	25.368489	0.000836	20.808317
1314.363917	-2.994400	3.550800	-10.632000	25.392977	0.000833	20.803983
1315.347710	-2.997300	3.549600	-10.637000	25.381970	0.000833	20.792456
1316.348175	-3.004200	3.549500	-10.662000	25.364896	0.000832	20.812770
1317.367015	-2.984600	3.548500	-10.590000	25.316306	0.000831	20.809501
1318.365703	-2.989100	3.548900	-10.606000	25.266849	0.000830	20.804415
1319.363785	-3.001700	3.549500	-10.653000	25.260636	0.000832	20.794858
1320.363162	-2.989500	3.546800	-10.601000	25.244407	0.000829	20.804643
1321.368470	-3.028100	3.545300	-10.734000	25.222910	0.000830	20.802501
1322.348708	-3.019000	3.547500	-10.706000	25.208066	0.000830	20.805142
1323.373712	-2.989400	3.547700	-10.604000	25.210386	0.000830	20.812686
1324.376083	-3.000100	3.546800	-10.640000	25.197714	0.000830	20.794275
1325.367610	-2.990900	3.546000	-10.604000	25.219538	0.000830	20.802908
1326.371754	-2.986900	3.546400	-10.592000	25.241864	0.000828	20.803987
1327.352257	-2.988000	3.546100	-10.594000	25.293683	0.000828	20.820452
1328.369882	-3.016400	3.546200	-10.696000	25.298088	0.000827	20.811123
1329.352951	-2.988400	3.545100	-10.593000	25.295156	0.000827	20.822879
1330.372442	-3.023800	3.544300	-10.716000	25.307337	0.000826	20.813297
1331.369689	-2.993300	3.544600	-10.609000	25.338602	0.000824	20.819085
1332.367010	-3.005300	3.545600	-10.653000	25.340173	0.000824	20.823507
1333.376374	-3.005900	3.543100	-10.649000	25.326975	0.000824	20.812152
1334.373285	-3.001700	3.544300	-10.638000	25.323767	0.000824	20.812251
1335.384014	-3.005000	3.543300	-10.646000	25.351979	0.000821	20.827775
1336.368033	-2.984400	3.543200	-10.572000	25.347501	0.000822	20.804787
1337.352222	-2.986600	3.542300	-10.578000	25.345164	0.000821	20.825674
1338.352646	-3.002100	3.541800	-10.631000	25.324858	0.000824	20.824252
1339.355078	-2.978000	3.543500	-10.552000	25.333236	0.000822	20.820810
1340.352077	-2.988900	3.542300	-10.586000	25.368076	0.000820	20.831136
1341.353663	-3.010400	3.540900	-10.658000	25.393331	0.000820	20.826623
1342.353424	-3.017300	3.539600	-10.678000	25.439550	0.000820	20.828937
1343.356599	-2.999700	3.541700	-10.623000	25.425556	0.000819	20.830532
1344.354303	-3.004500	3.540600	-10.637000	25.457542	0.000819	20.824245
1345.355525	-3.018600	3.540100	-10.685000	25.489618	0.000817	20.809515
1346.355504	-2.987800	3.540600	-10.577000	25.488226	0.000817	20.833721
1347.371042	-2.998500	3.539700	-10.613000	25.475477	0.000816	20.815703
1348.381166	-2.997100	3.539500	-10.607000	25.465090	0.000819	20.836565
1349.356818	-3.031000	3.538600	-10.724000	25.436433	0.000818	20.811109
1350.371813	-3.006300	3.539300	-10.639000	25.416122	0.000815	20.850456
1351.372902	-2.999100	3.540500	-10.617000	25.382197	0.000816	20.827771
1352.378674	-2.990300	3.539300	-10.583000	25.337979	0.000816	20.831736
1353.373391	-2.985900	3.539300	-10.566000	25.346927	0.000812	20.819384
1354.359419	-3.001500	3.537900	-10.618000	25.344689	0.000815	20.823300
1355.360021	-2.990500	3.537700	-10.579000	25.347497	0.000814	20.833232
1356.361897	-2.978800	3.538100	-10.538000	25.353556	0.000811	20.848798
1357.383721	-2.989300	3.537900	-10.574000	25.335352	0.000813	20.833366
1358.381279	-2.975900	3.537300	-10.524000	25.342160	0.000812	20.836407
1359.377575	-3.006500	3.536300	-10.631000	25.385236	0.000811	20.846944
1360.377251	-3.011200	3.535700	-10.645000	25.375149	0.000810	20.827806
1361.361374	-3.005400	3.536800	-10.627000	25.345668	0.000810	20.856525
1362.359805	-2.985200	3.534500	-10.549000	25.325925	0.000809	20.846659
1363.359183	-2.995800	3.535700	-10.591000	25.333488	0.000809	20.821537
1364.360291	-3.025000	3.533900	-10.688000	25.344912	0.000808	20.840594
1365.381298	-2.987900	3.535300	-10.561000	25.357565	0.000806	20.833857
1366.381502	-3.002500	3.533100	-10.606000	25.331910	0.000808	20.821375
1367.380058	-2.992900	3.533900	-10.575000	25.340190	0.000810	20.830637
1368.378177	-3.004400	3.532500	-10.613000	25.338945	0.000808	20.834128
1369.361848	-3.015700	3.531500	-10.649000	25.324012	0.000806	20.838100
1370.364864	-2.988900	3.532200	-10.556000	25.345280	0.000805	20.847126
1371.384684	-3.003400	3.532100	-10.607000	25.355399	0.000805	20.836899
1372.367445	-2.996700	3.531700	-10.583000	25.385719	0.000806	20.830833
1373.363896	-3.043900	3.529900	-10.744000	25.422575	0.000803	20.817582
1374.363495	-2.999600	3.530800	-10.590000	25.427923	0.000804	20.820581
1375.381733	-2.982300	3.531800	-10.532000	25.386142	0.000804	20.837896
1376.383394	-3.012800	3.531300	-10.638000	25.398819	0.000803	20.825495
1377.383106	-3.003900	3.531900	-10.608000	25.357166	0.000804	20.826345
1378.389314	-2.996000	3.530100	-10.575000	25.343569	0.000802	20.831659
1379.384640	-3.010900	3.529700	-10.626000	25.335688	0.000800	20.813315
1380.383038	-3.013000	3.527900	-10.628000	25.334369	0.000800	20.816732
1381.390008	-2.992000	3.528700	-10.556000	25.314763	0.000800	20.834978
1382.380030	-3.024600	3.526100	-10.664000	25.329801	0.000801	20.812145
1383.365094	-2.990500	3.528000	-10.548000	25.331690	0.000799	20.809300
1384.365451	-2.995400	3.527800	-10.565000	25.378863	0.000799	20.819208
1385.369274	-2.983600	3.528300	-10.526000	25.396930	0.000797	20.811745
1386.368614	-3.009200	3.527400	-10.614000	25.391011	0.000798	20.813389
1387.365204	-2.998700	3.526600	-10.574000	25.366439	0.000797	20.803414
1388.365176	-2.958700	3.527300	-10.436000	25.359558	0.000794	20.814049
1389.366236	-2.994400	3.526200	-10.558000	25.357645	0.000797	20.820188
1390.366154	-3.015500	3.524700	-10.627000	25.361920	0.000797	20.805514
1391.367559	-2.996800	3.526100	-10.566000	25.377006	0.000794	20.809757
1392.366775	-2.980600	3.526100	-10.509000	25.377184	0.000796	20.827954
1393.386110	-2.981400	3.525400	-10.510000	25.387825	0.000795	20.799758
1394.390933	-2.983700	3.525700	-10.519000	25.359940	0.000795	20.812061
1395.390259	-3.010300	3.522900	-10.604000	25.370776	0.000794	20.793544
1396.393216	-2.986100	3.524700	-10.523000	25.371973	0.000792	20.817031
1397.366149	-2.995400	3.523800	-10.553000	25.372770	0.000792	20.801236
1398.368203	-2.983200	3.524800	-10.514000	25.399693	0.000792	20.800295
1399.393675	-2.999600	3.523700	-10.568000	25.396860	0.000794	20.803614
1400.387475	-3.017600	3.522300	-10.628000	25.401858	0.000791	20.794883
1401.384811	-2.983500	3.524800	-10.515000	25.393040	0.000792	20.786028
1402.385549	-3.013300	3.522700	-10.613000	25.355515	0.000790	20.795764
1403.385880	-2.979000	3.522400	-10.492000	25.331204	0.000789	20.789846
1404.391882	-3.018900	3.522100	-10.632000	25.365407	0.000786	20.795266
1405.395008	-2.986800	3.522400	-10.520000	25.364592	0.000791	20.788283
1406.383418	-3.008100	3.520100	-10.588000	25.354577	0.000789	20.789607
1407.370178	-2.995900	3.521200	-10.548000	25.306060	0.000788	20.793049
1408.369428	-3.016500	3.519400	-10.615000	25.261374	0.000787	20.793703
1409.393371	-2.992100	3.520300	-10.532000	25.240822	0.000788	20.792509
1410.384864	-3.007000	3.519900	-10.583000	25.206964	0.000786	20.781276
1411.387753	-3.008000	3.519200	-10.586000	25.201745	0.000786	20.811597
1412.396929	-3.012700	3.518600	-10.600000	25.211743	0.000786	20.773746
1413.388693	-2.990600	3.518800	-10.521000	25.237425	0.000785	20.782934
1414.386680	-2.999700	3.518400	-10.552000	25.265908	0.000786	20.782133
1415.389136	-3.014300	3.517900	-10.602000	25.320941	0.000785	20.803249
1416.396024	-3.008000	3.518200	-10.582000	25.350716	0.000785	20.781462
1417.394236	-2.997400	3.516400	-10.539000	25.390774	0.000786	20.791813
1418.373502	-2.995500	3.516300	-10.532000	25.400159	0.000784	20.794598
1419.372355	-3.006900	3.516000	-10.571000	25.423370	0.000782	20.773809
1420.371786	-3.014800	3.515500	-10.598000	25.429361	0.000782	20.795473
1421.373785	-2.977000	3.515300	-10.463000	25.444790	0.000782	20.776826
1422.376252	-2.979400	3.515700	-10.472000	25.434832	0.000782	20.783422
1423.394601	-2.991700	3.515700	-10.517000	25.419225	0.000780	20.783872
1424.398645	-3.005800	3.513800	-10.561000	25.404814	0.000781	20.774617
1425.393585	-2.988700	3.514700	-10.504000	25.377622	0.000782	20.793780
1426.397908	-2.996800	3.512700	-10.526000	25.374152	0.000779	20.796460
1427.399825	-3.015500	3.513400	-10.593000	25.380462	0.000779	20.762493
1428.392435	-2.984100	3.514200	-10.486000	25.364187	0.000777	20.793092
1429.397553	-2.970200	3.514000	-10.434000	25.415437	0.000779	20.768214
1430.395038	-3.004700	3.511800	-10.550000	25.389361	0.000778	20.766212
1431.401684	-3.004600	3.512300	-10.552000	25.414272	0.000778	20.777002
1432.393963	-2.971500	3.513600	-10.439000	25.423122	0.000777	20.784940
1433.395632	-3.012600	3.512200	-10.580000	25.412905	0.000776	20.766146
1434.390762	-2.996700	3.512300	-10.524000	25.401051	0.000778	20.771786
1435.398554	-2.975900	3.512100	-10.450000	25.356638	0.000774	20.782667
1436.404165	-2.997100	3.511300	-10.522000	25.358950	0.000775	20.776928
1437.399392	-3.005600	3.510500	-10.550000	25.366995	0.000774	20.772678
1438.392259	-3.023900	3.509500	-10.610000	25.373068	0.000773	20.783517
1439.395332	-3.005600	3.509600	-10.547000	25.413744	0.000773	20.790222
1440.400221	-2.993900	3.510500	-10.510000	25.432670	0.000773	20.758966
1441.400313	-2.996200	3.509000	-10.513000	25.436798	0.000772	20.763585
1442.397197	-3.013800	3.508200	-10.572000	25.446039	0.000771	20.781400
1443.394356	-2.965700	3.509900	-10.408000	25.395594	0.000771	20.768204
1444.396246	-3.028500	3.506900	-10.619000	25.377276	0.000770	20.771147
1445.398620	-2.993000	3.508100	-10.499000	25.360447	0.000770	20.775587
1446.376936	-3.002600	3.506400	-10.527000	25.385720	0.000771	20.771091
1447.380180	-3.020900	3.506200	-10.590000	25.369297	0.000770	20.750333
1448.381269	-3.028400	3.504600	-10.612000	25.367450	0.000770	20.753220
1449.378115	-2.990700	3.507000	-10.488000	25.404884	0.000768	20.768049
1450.379469	-2.998700	3.507000	-10.515000	25.419946	0.000767	20.776061
1451.380208	-2.994200	3.505400	-10.495000	25.425164	0.000767	20.765654
1452.380533	-3.001400	3.505000	-10.519000	25.437889	0.000767	20.761362
1453.384360	-3.007900	3.504600	-10.539000	25.441642	0.000767	20.775088
1454.381217	-2.988300	3.505200	-10.474000	25.468385	0.000766	20.766381
1455.405509	-3.002400	3.504100	-10.518000	25.486124	0.000765	20.767600
1456.399145	-3.009700	3.502800	-10.541000	25.503122	0.000764	20.771867
1457.381881	-2.996000	3.503500	-10.496000	25.506802	0.000764	20.749009
1458.381315	-3.012500	3.502000	-10.549000	25.545941	0.000763	20.757020
1459.406703	-3.013400	3.501300	-10.549000	25.531483	0.000764	20.757200
1460.402753	-2.978500	3.503700	-10.435000	25.526079	0.000763	20.758885
1461.405100	-3.005400	3.503000	-10.527000	25.556702	0.000762	20.755500
1462.405252	-3.011100	3.502800	-10.545000	25.550939	0.000762	20.763462
1463.382897	-2.980300	3.502100	-10.436000	25.577924	0.000760	20.758320
1464.386583	-2.983700	3.501100	-10.445000	25.558591	0.000761	20.764035
1465.405578	-3.017800	3.499400	-10.559000	25.547284	0.000759	20.744144
1466.384560	-3.000800	3.500100	-10.502000	25.535131	0.000759	20.761337
1467.387561	-2.993600	3.500200	-10.478000	25.509984	0.000759	20.746989
1468.384134	-2.992800	3.499600	-10.471000	25.497831	0.000759	20.752802
1469.408626	-3.017900	3.498100	-10.556000	25.494900	0.000756	20.751281
1470.389015	-2.984500	3.500400	-10.445000	25.454538	0.000760	20.765278
1471.388139	-3.012300	3.498200	-10.537000	25.490878	0.000759	20.759096
1472.403854	-3.016900	3.497300	-10.550000	25.477388	0.000758	20.757878
1473.400852	-2.959000	3.498000	-10.350000	25.498156	0.000756	20.755500
1474.405402	-2.977400	3.498400	-10.416000	25.500419	0.000758	20.762514
1475.407361	-3.000700	3.496700	-10.490000	25.478528	0.000756	20.764238
1476.405779	-3.025500	3.496200	-10.576000	25.509764	0.000756	20.752458
1477.403002	-2.993800	3.496100	-10.465000	25.513891	0.000755	20.764663
1478.387710	-2.991400	3.496400	-10.458000	25.515608	0.000756	20.752637
1479.403355	-2.990100	3.494500	-10.448000	25.521526	0.000754	20.736294
1480.388696	-2.992700	3.497000	-10.463000	25.519980	0.000754	20.738061
1481.387569	-3.011000	3.495200	-10.523000	25.537855	0.000755	20.754590
1482.389201	-3.010200	3.494400	-10.518000	25.574024	0.000753	20.746343
1483.410756	-2.984900	3.494900	-10.430000	25.569034	0.000753	20.739908
1484.388115	-2.986000	3.495400	-10.436000	25.543122	0.000753	20.748974
1485.391269	-3.032000	3.493000	-10.589000	25.519134	0.000751	20.749539
1486.404878	-2.979500	3.494800	-10.412000	25.472299	0.000751	20.740913
1487.413328	-3.016100	3.493600	-10.536000	25.449390	0.000752	20.755841
1488.388230	-3.015600	3.492300	-10.530000	25.461886	0.000751	20.742311
1489.408802	-3.005300	3.492500	-10.495000	25.422450	0.000750	20.734952
1490.412426	-2.999100	3.493000	-10.474000	25.406941	0.000750	20.749725
1491.408636	-2.998200	3.491000	-10.466000	25.404629	0.000748	20.736024
1492.408504	-3.011300	3.491700	-10.513000	25.421604	0.000750	20.734576
1493.390620	-2.983000	3.492200	-10.416000	25.450432	0.000748	20.745981
1494.395042	-3.008300	3.490300	-10.499000	25.471753	0.000748	20.748426
1495.394190	-2.990500	3.491500	-10.440000	25.499359	0.000749	20.744854
1496.395153	-2.981300	3.488400	-10.399000	25.505350	0.000747	20.723842
1497.414182	-3.003900	3.489000	-10.480000	25.525898	0.000748	20.735943
1498.414902	-2.998600	3.488700	-10.460000	25.524775	0.000748	20.735764
1499.409149	-3.026800	3.488000	-10.556000	25.514395	0.000747	20.748099
1500.395288	-2.980300	3.488200	-10.395000	25.525695	0.000747	20.728626
1501.410903	-3.010900	3.488800	-10.503000	25.556832	0.000746	20.738085
1502.416087	-3.004100	3.487000	-10.474000	25.520022	0.000745	20.740474
1503.422268	-2.966200	3.489200	-10.349000	25.515007	0.000745	20.737808
1504.413519	-3.021900	3.486100	-10.534000	25.502161	0.000745	20.724907
1505.418740	-3.023500	3.485800	-10.539000	25.498653	0.000744	20.739402
1506.418558	-3.003700	3.486900	-10.473000	25.524841	0.000743	20.734882
1507.412189	-3.011800	3.485600	-10.497000	25.518077	0.000744	20.734727
1508.422570	-2.976800	3.486700	-10.378000	25.487160	0.000743	20.740663
1509.397059	-3.014400	3.485100	-10.504000	25.457868	0.000742	20.728317
1510.414819	-3.011200	3.484400	-10.490000	25.442800	0.000741	20.745904
1511.416621	-3.009000	3.484500	-10.484000	25.485719	0.000740	20.722146
1512.397099	-3.005900	3.482700	-10.467000	25.485271	0.000742	20.732602
1513.398019	-3.000400	3.484200	-10.453000	25.492745	0.000740	20.707390
1514.397479	-3.015700	3.482500	-10.501000	25.474834	0.000741	20.729234
1515.396791	-3.013800	3.482700	-10.495000	25.471921	0.000738	20.735317
1516.399710	-2.957600	3.485000	-10.305000	25.472638	0.000737	20.741727
1517.398179	-2.997400	3.482700	-10.438000	25.493462	0.000738	20.734190
1518.398269	-2.991300	3.482200	-10.415000	25.503297	0.000737	20.725574
1519.406934	-3.004300	3.480200	-10.454000	25.515947	0.000736	20.725949
1520.398993	-3.013800	3.481300	-10.491000	25.533116	0.000737	20.753150
1521.401349	-3.008400	3.480400	-10.469000	25.519578	0.000736	20.735286
1522.399313	-2.991700	3.481500	-10.414000	25.489818	0.000735	20.734323
1523.419906	-2.978000	3.481500	-10.366000	25.475579	0.000736	20.736620
1524.421996	-2.984600	3.479800	-10.385000	25.487824	0.000735	20.715250
1525.399043	-3.018700	3.479300	-10.501000	25.488254	0.000734	20.751246
1526.403577	-3.008200	3.478800	-10.464000	25.496152	0.000735	20.718398
1527.398479	-2.993600	3.478100	-10.411000	25.513572	0.000733	20.731625
1528.403514	-3.004200	3.477800	-10.447000	25.493245	0.000734	20.710737
1529.418706	-2.999700	3.478100	-10.432000	25.527111	0.000733	20.720091
1530.401810	-2.993000	3.477000	-10.405000	25.527429	0.000732	20.722307
1531.403440	-3.001400	3.477200	-10.435000	25.513614	0.000732	20.701320
1532.403766	-3.010300	3.476500	-10.465000	25.530279	0.000731	20.718531
1533.404650	-2.988300	3.476900	-10.389000	25.525436	0.000731	20.706553
1534.405471	-2.978000	3.477100	-10.354000	25.544500	0.000729	20.708155
1535.405003	-3.010700	3.475500	-10.462000	25.572349	0.000732	20.727590
1536.404960	-3.020200	3.474300	-10.493000	25.609891	0.000729	20.723568
1537.405819	-2.974900	3.475800	-10.339000	25.611779	0.000728	20.710765
1538.405969	-3.011600	3.474300	-10.462000	25.610909	0.000726	20.705622
1539.406123	-2.994700	3.475500	-10.407000	25.566284	0.000726	20.728137
1540.405639	-3.016300	3.473500	-10.476000	25.587303	0.000726	20.712261
1541.429895	-2.995300	3.474800	-10.406000	25.527440	0.000727	20.700030
1542.427855	-3.015000	3.472600	-10.469000	25.471001	0.000726	20.708313
1543.424355	-2.985000	3.473000	-10.366000	25.441620	0.000724	20.690188
1544.406607	-2.985700	3.474100	-10.371000	25.438910	0.000724	20.712598
1545.428543	-3.002100	3.472700	-10.424000	25.451389	0.000723	20.711854
1546.407060	-3.010400	3.471900	-10.451000	25.498460	0.000724	20.729251
1547.406851	-3.019900	3.470000	-10.477000	25.482308	0.000724	20.713030
1548.409929	-3.020600	3.469800	-10.480000	25.499201	0.000724	20.713399
1549.405324	-2.988700	3.471900	-10.375000	25.467989	0.000724	20.713350
1550.427734	-2.995100	3.470000	-10.392000	25.488439	0.000723	20.693581
1551.426309	-3.005200	3.469000	-10.424000	25.510508	0.000722	20.712426
1552.409738	-3.012000	3.469400	-10.448000	25.504916	0.000722	20.697800
1553.431493	-2.990200	3.469600	-10.374000	25.504045	0.000721	20.714470
1554.433190	-2.980100	3.469700	-10.339000	25.524225	0.000723	20.705812
1555.431910	-3.002300	3.468300	-10.411000	25.550186	0.000720	20.701063
1556.409567	-3.001200	3.468200	-10.408000	25.527149	0.000721	20.724871
1557.409507	-2.996300	3.467400	-10.388000	25.523624	0.000718	20.701414
1558.428091	-3.005100	3.467500	-10.418000	25.536151	0.000720	20.705461
1559.436591	-3.010100	3.466200	-10.432000	25.518927	0.000721	20.727045
1560.432189	-3.024200	3.466700	-10.481000	25.532822	0.000717	20.726775
1561.409871	-2.990500	3.466100	-10.364000	25.558807	0.000718	20.715886
1562.430930	-2.993700	3.466000	-10.374000	25.581322	0.000719	20.714790
1563.430962	-3.006900	3.464900	-10.416000	25.591765	0.000718	20.708682
1564.429416	-3.007900	3.464200	-10.420000	25.587142	0.000718	20.697400
1565.432435	-3.017500	3.464000	-10.452000	25.587761	0.000716	20.690434
1566.413946	-3.011600	3.464900	-10.434000	25.601900	0.000715	20.672390
1567.413355	-3.015900	3.462900	-10.443000	25.598773	0.000716	20.713824
1568.413237	-3.020800	3.463300	-10.461000	25.594972	0.000717	20.704790
1569.416162	-2.992200	3.464500	-10.365000	25.572733	0.000715	20.709483
1570.414882	-3.014200	3.461900	-10.434000	25.575346	0.000713	20.703571
1571.417503	-3.006800	3.463500	-10.414000	25.579270	0.000715	20.701822
1572.417861	-3.000300	3.462600	-10.388000	25.542817	0.000714	20.693188
1573.416170	-3.005900	3.460800	-10.402000	25.545154	0.000712	20.709286
1574.418188	-3.003800	3.461400	-10.396000	25.522735	0.000714	20.682029
1575.419552	-2.987700	3.461500	-10.341000	25.563616	0.000711	20.691316
1576.438474	-3.008900	3.460900	-10.413000	25.573146	0.000711	20.693775
1577.440887	-3.005400	3.460400	-10.398000	25.570901	0.000711	20.693416
1578.417601	-2.987500	3.460700	-10.337000	25.580361	0.000711	20.686321
1579.417977	-2.992200	3.459700	-10.352000	25.571796	0.000713	20.707593
1580.437081	-3.023400	3.459400	-10.458000	25.592821	0.000708	20.707372
1581.437114	-3.005300	3.458300	-10.391000	25.620204	0.000709	20.695043
1582.440326	-2.980900	3.459300	-10.311000	25.615458	0.000709	20.694070
1583.434850	-3.020000	3.458300	-10.443000	25.593220	0.000711	20.696866
1584.434601	-2.995000	3.458300	-10.357000	25.599162	0.000708	20.715162
1585.448247	-3.011000	3.459200	-10.414000	25.571607	0.000707	20.687487
1586.419541	-3.024700	3.456500	-10.454000	25.573790	0.000707	20.698215
1587.421091	-2.992700	3.457300	-10.345000	25.555775	0.000706	20.687234
1588.438630	-3.006800	3.457100	-10.394000	25.535798	0.000707	20.704158
1589.422036	-3.014100	3.455800	-10.415000	25.502919	0.000705	20.692001
1590.423398	-3.005500	3.456800	-10.388000	25.528968	0.000707	20.701566
1591.421282	-3.012800	3.457300	-10.415000	25.553397	0.000706	20.701917
1592.443041	-2.998100	3.455600	-10.359000	25.559486	0.000704	20.685271
1593.421065	-3.004300	3.455000	-10.377000	25.557468	0.000705	20.712644
1594.421274	-3.006200	3.455500	-10.386000	25.568904	0.000701	20.698998
1595.423927	-2.999900	3.455400	-10.365000	25.569124	0.000701	20.699693
1596.432971	-2.995100	3.454600	-10.346000	25.549497	0.000700	20.690887
1597.421704	-2.995700	3.452600	-10.342000	25.544133	0.000703	20.699251
1598.421400	-2.997700	3.452100	-10.346000	25.540177	0.000703	20.689114
1599.422182	-2.990300	3.452500	-10.323000	25.506483	0.000701	20.696054
1600.436449	-3.040400	3.451000	-10.491000	25.517717	0.000699	20.700224
1601.447485	-3.012900	3.451900	-10.399000	25.502153	0.000700	20.720631
1602.420457	-3.024300	3.450000	-10.433000	25.532280	0.000701	20.682605
1603.443294	-2.999900	3.451600	-10.353000	25.542821	0.000700	20.681811
1604.447542	-2.977800	3.450800	-10.275000	25.525051	0.000699	20.704270
1605.445526	-2.997600	3.449800	-10.339000	25.484494	0.000700	20.707639
1606.448171	-2.993600	3.450400	-10.327000	25.472144	0.000697	20.708988
1607.423165	-2.998100	3.450700	-10.344000	25.464516	0.000697	20.708914
1608.423286	-3.011200	3.448800	-10.384000	25.449406	0.000697	20.698007
1609.422656	-3.059300	3.447400	-10.546000	25.436706	0.000696	20.714179
1610.423744	-3.006100	3.447500	-10.363000	25.462830	0.000697	20.697737
1611.445320	-3.000300	3.447700	-10.343000	25.427595	0.000698	20.699339
1612.445781	-3.017200	3.447300	-10.400000	25.421058	0.000696	20.716957
1613.448753	-3.004100	3.447900	-10.357000	25.393149	0.000694	20.691776
1614.425462	-3.014700	3.446600	-10.389000	25.331694	0.000694	20.705935
1615.424978	-2.993500	3.447100	-10.317000	25.339120	0.000694	20.693476
1616.433524	-2.998100	3.446200	-10.331000	25.359524	0.000694	20.688833
1617.426684	-3.006700	3.445500	-10.359000	25.342653	0.000694	20.704137
1618.426356	-2.994600	3.445600	-10.317000	25.398301	0.000693	20.705011
1619.443252	-2.991100	3.445700	-10.305000	25.407843	0.000692	20.714594
1620.428507	-3.002100	3.444500	-10.340000	25.438837	0.000692	20.701144
1621.442133	-2.979900	3.444400	-10.263000	25.478972	0.000691	20.698299
1622.429690	-2.989300	3.444300	-10.295000	25.506707	0.000689	20.692486
1623.431197	-3.018000	3.443400	-10.390000	25.505420	0.000691	20.706367
1624.443274	-3.018000	3.442300	-10.387000	25.529671	0.000690	20.707488
1625.450311	-2.973300	3.443000	-10.236000	25.546920	0.000690	20.705844
1626.450414	-3.003100	3.442500	-10.336000	25.537747	0.000691	20.684776
1627.444469	-2.997700	3.442100	-10.317000	25.558300	0.000689	20.681235
1628.450966	-3.006100	3.441600	-10.344000	25.540936	0.000688	20.690824
1629.445670	-3.004400	3.442400	-10.340000	25.523117	0.000687	20.701380
1630.429755	-3.023300	3.440400	-10.401000	25.537827	0.000686	20.708566
1631.446079	-2.976100	3.442600	-10.245000	25.563420	0.000686	20.693016
1632.431470	-3.006700	3.440500	-10.343000	25.579008	0.000687	20.711043
1633.455822	-3.010900	3.439600	-10.356000	25.605513	0.000686	20.697358
1634.446462	-3.009400	3.440900	-10.353000	25.601435	0.000685	20.718868
1635.450173	-3.004500	3.439600	-10.333000	25.596983	0.000684	20.687368
1636.453264	-3.018300	3.438500	-10.377000	25.560752	0.000686	20.708355
1637.436300	-2.990400	3.440100	-10.284000	25.535127	0.000685	20.693051
1638.466313	-2.988200	3.439500	-10.277000	25.553523	0.000683	20.735711
1639.457311	-3.015100	3.439300	-10.369000	25.564700	0.000682	20.712795
1640.451459	-3.027300	3.436300	-10.402000	25.545685	0.000682	20.678049
1641.459612	-3.013800	3.435600	-10.353000	25.562308	0.000682	20.708496
1642.455240	-2.981400	3.438100	-10.249000	25.568096	0.000684	20.704825
1643.467156	-3.001800	3.436700	-10.315000	25.594185	0.000683	20.722967
1644.453591	-3.002800	3.437500	-10.321000	25.610685	0.000679	20.694017
1645.457896	-2.994200	3.435800	-10.285000	25.594063	0.000681	20.720948
1646.452577	-2.992900	3.436400	-10.283000	25.598557	0.000681	20.717874
1647.436041	-3.005500	3.435500	-10.325000	25.601414	0.000682	20.723589
1648.458318	-2.992100	3.435500	-10.277000	25.620617	0.000678	20.722486
1649.438717	-3.028800	3.432500	-10.395000	25.597735	0.000681	20.715152
1650.464310	-2.995100	3.435900	-10.290000	25.596091	0.000681	20.722985
1651.438886	-2.974900	3.434500	-10.216000	25.589310	0.000679	20.710010
1652.438265	-2.989100	3.434500	-10.265000	25.609303	0.000677	20.719658
1653.440200	-2.979900	3.433700	-10.231000	25.621837	0.000677	20.712806
1654.466771	-3.016400	3.433600	-10.356000	25.638525	0.000677	20.732412
1655.457200	-3.006800	3.431500	-10.316000	25.612958	0.000677	20.729493
1656.440911	-3.005000	3.431600	-10.311000	25.608604	0.000677	20.716585
1657.442273	-2.996300	3.431500	-10.280000	25.617396	0.000676	20.720673
1658.441731	-2.986800	3.433100	-10.253000	25.603411	0.000675	20.698092
1659.442118	-2.991500	3.431300	-10.263000	25.606838	0.000673	20.722398
1660.445032	-2.990600	3.431500	-10.261000	25.617941	0.000675	20.739714
1661.442307	-2.992500	3.430100	-10.264000	25.640399	0.000675	20.730501
1662.463796	-3.001300	3.431100	-10.297000	25.599749	0.000676	20.718598
1663.442053	-2.999800	3.429900	-10.288000	25.539463	0.000671	20.734393
1664.460315	-2.978500	3.429300	-10.214000	25.548654	0.000674	20.723234
1665.463072	-2.985000	3.428500	-10.233000	25.546049	0.000672	20.711608
1666.460366	-3.003800	3.427900	-10.296000	25.582354	0.000673	20.722465
1667.474254	-3.006700	3.429700	-10.310000	25.578399	0.000672	20.726079
1668.470273	-3.014200	3.427700	-10.331000	25.597179	0.000673	20.728819
1669.465253	-3.007500	3.428200	-10.310000	25.630153	0.000671	20.713571
1670.461105	-2.998000	3.426800	-10.272000	25.658357	0.000671	20.737632
1671.463151	-2.988400	3.427500	-10.242000	25.684167	0.000672	20.730838
1672.467450	-2.984700	3.427100	-10.228000	25.698735	0.000669	20.727453
1673.445974	-2.983800	3.427100	-10.224000	25.694032	0.000668	20.735531
1674.471334	-3.020800	3.426300	-10.349000	25.690710	0.000670	20.735039
1675.447106	-2.999800	3.426300	-10.277000	25.706736	0.000670	20.736912
1676.448077	-2.997700	3.424700	-10.265000	25.711124	0.000668	20.744639
1677.448064	-3.007100	3.424500	-10.297000	25.696473	0.000667	20.729448
1678.465287	-3.000900	3.425100	-10.277000	25.691728	0.000669	20.731794
1679.465709	-3.002600	3.424900	-10.282000	25.660668	0.000668	20.745643
1680.451645	-2.978400	3.425100	-10.200000	25.614297	0.000666	20.729416
1681.451792	-3.008400	3.422100	-10.294000	25.579521	0.000667	20.723887
1682.450229	-3.012900	3.423100	-10.311000	25.585757	0.000667	20.747220
1683.451791	-2.985800	3.421700	-10.217000	25.599749	0.000665	20.733297
1684.448851	-2.979200	3.423400	-10.198000	25.650313	0.000664	20.740459
1685.468234	-2.978800	3.422000	-10.192000	25.630436	0.000663	20.734246
1686.471712	-3.005900	3.421400	-10.283000	25.623110	0.000665	20.743957
1687.475845	-2.969300	3.423400	-10.164000	25.631486	0.000663	20.749050
1688.453226	-2.995100	3.421200	-10.246000	25.630199	0.000664	20.736852
1689.470870	-3.003800	3.420400	-10.273000	25.596336	0.000661	20.738404
1690.475352	-3.011800	3.420600	-10.300000	25.588677	0.000661	20.739722
1691.454414	-3.000200	3.419700	-10.259000	25.562563	0.000661	20.742893
1692.469715	-2.979400	3.421500	-10.193000	25.568026	0.000662	20.741741
1693.454236	-2.993000	3.420700	-10.237000	25.561301	0.000660	20.743522
1694.474082	-3.004600	3.419100	-10.272000	25.591461	0.000661	20.771442
1695.472535	-3.001400	3.420300	-10.264000	25.596116	0.000660	20.749089
1696.473464	-2.975600	3.419700	-10.175000	25.598623	0.000658	20.754453
1697.480689	-3.005300	3.417600	-10.270000	25.591248	0.000658	20.728078
1698.473598	-2.994500	3.418600	-10.236000	25.599225	0.000659	20.737038
1699.474607	-3.019900	3.416800	-10.316000	25.601886	0.000656	20.735918
1700.482527	-3.008600	3.416300	-10.277000	25.627625	0.000657	20.747070
1701.455378	-3.010600	3.416700	-10.286000	25.637571	0.000658	20.755162
1702.458858	-3.014000	3.414500	-10.291000	25.640134	0.000655	20.740192
1703.457098	-2.995300	3.415800	-10.229000	25.619582	0.000655	20.745630
1704.473803	-2.981700	3.416100	-10.185000	25.617148	0.000656	20.748875
1705.459385	-3.020000	3.414200	-10.310000	25.635493	0.000655	20.758292
1706.457963	-3.004800	3.415800	-10.263000	25.649478	0.000655	20.752897
1707.458915	-3.001700	3.415100	-10.250000	25.656664	0.000656	20.739251
1708.473643	-3.000500	3.412800	-10.239000	25.622918	0.000654	20.761309
1709.458913	-2.993300	3.413900	-10.218000	25.655265	0.000654	20.748278
1710.457788	-3.027000	3.411500	-10.325000	25.663476	0.000653	20.746093
1711.457398	-2.992200	3.414500	-10.216000	25.707673	0.000652	20.749233
1712.473474	-2.997500	3.412500	-10.228000	25.694732	0.000652	20.752356
1713.480924	-2.995700	3.412300	-10.221000	25.683531	0.000652	20.769082
1714.477878	-2.997700	3.412700	-10.229000	25.709128	0.000651	20.762075
1715.480073	-3.000500	3.412400	-10.238000	25.702488	0.000652	20.735489
1716.479876	-3.023800	3.410200	-10.311000	25.717625	0.000650	20.755436
1717.461269	-2.998000	3.411400	-10.227000	25.687388	0.000650	20.760153
1718.464553	-3.057200	3.409900	-10.423000	25.674789	0.000650	20.764094
1719.463299	-3.000400	3.410300	-10.231000	25.685972	0.000649	20.763947
1720.463636	-3.010900	3.409100	-10.264000	25.702893	0.000648	20.779520
1721.466089	-2.988000	3.410500	-10.188000	25.699582	0.000649	20.757228
1722.464019	-2.998000	3.409800	-10.222000	25.725406	0.000649	20.762777
1723.487777	-3.007600	3.408700	-10.250000	25.707467	0.000648	20.784115
1724.466763	-3.003800	3.409600	-10.241000	25.723787	0.000647	20.766367
1725.478899	-2.998900	3.407700	-10.218000	25.710023	0.000648	20.771509
1726.467916	-3.000100	3.408800	-10.226000	25.696610	0.000646	20.760881
1727.482821	-3.003800	3.407400	-10.234000	25.693158	0.000648	20.775906
1728.466129	-3.005100	3.405300	-10.232000	25.671817	0.000646	20.766799
1729.482832	-3.000700	3.407400	-10.223000	25.652062	0.000645	20.769243
1730.465561	-3.001500	3.405500	-10.221000	25.649230	0.000646	20.763079
1731.467624	-2.998900	3.405900	-10.213000	25.626090	0.000644	20.775400
1732.466024	-2.985700	3.406600	-10.170000	25.628174	0.000645	20.781761
1733.467754	-2.998800	3.405500	-10.212000	25.611503	0.000645	20.765018
1734.469885	-3.010600	3.404200	-10.248000	25.626058	0.000640	20.795283
1735.491158	-3.020000	3.404500	-10.280000	25.632489	0.000643	20.777086
1736.470165	-3.001300	3.404000	-10.215000	25.663029	0.000642	20.766507
1737.486394	-2.993100	3.406100	-10.195000	25.648289	0.000640	20.773988
1738.468949	-3.013900	3.404600	-10.260000	25.643169	0.000641	20.756518
1739.470735	-3.001600	3.403900	-10.216000	25.661459	0.000641	20.774413
1740.467721	-3.010600	3.401900	-10.241000	25.669802	0.000642	20.775681
1741.469357	-3.009900	3.401600	-10.238000	25.682825	0.000637	20.786390
1742.492386	-2.982000	3.403500	-10.147000	25.701781	0.000640	20.743315
1743.486208	-3.002200	3.401500	-10.211000	25.680034	0.000640	20.774104
1744.486908	-3.002900	3.401200	-10.213000	25.699991	0.000640	20.771863
1745.487346	-2.994900	3.402500	-10.189000	25.743022	0.000637	20.787584
1746.470688	-3.002200	3.402800	-10.214000	25.756558	0.000637	20.788852
1747.469984	-2.992600	3.401800	-10.179000	25.799440	0.000638	20.770760
1748.486080	-3.004900	3.401200	-10.220000	25.802027	0.000638	20.800387
1749.490480	-3.015400	3.400300	-10.252000	25.819289	0.000637	20.777423
1750.491266	-2.989400	3.400100	-10.164000	25.799936	0.000634	20.786907
1751.491717	-3.001400	3.399000	-10.200000	25.802223	0.000635	20.788255
1752.489191	-2.984300	3.399400	-10.144000	25.800205	0.000634	20.792867
1753.470647	-3.002400	3.399600	-10.206000	25.787761	0.000636	20.791272
1754.471929	-2.997300	3.399600	-10.188000	25.805335	0.000633	20.795648
1755.490388	-2.996600	3.398500	-10.182000	25.786394	0.000634	20.782312
1756.470230	-3.004900	3.398400	-10.211000	25.779209	0.000636	20.776991
1757.473135	-3.025200	3.397400	-10.277000	25.750561	0.000633	20.785674
1758.470801	-3.018800	3.398300	-10.258000	25.727154	0.000631	20.787767
1759.472486	-3.029400	3.396800	-10.289000	25.721017	0.000632	20.786819
1760.472883	-3.021100	3.397100	-10.262000	25.683797	0.000631	20.791160
1761.492782	-3.010700	3.396700	-10.225000	25.657269	0.000629	20.785853
1762.473041	-3.013600	3.395200	-10.231000	25.678856	0.000631	20.800896
1763.475195	-2.987500	3.395400	-10.143000	25.695648	0.000629	20.790261
1764.489023	-3.006500	3.395500	-10.208000	25.712488	0.000629	20.789158
1765.476295	-2.972300	3.396600	-10.095000	25.744914	0.000628	20.801812
1766.494635	-3.003900	3.395600	-10.199000	25.726203	0.000628	20.817157
1767.475338	-3.000600	3.395300	-10.187000	25.735098	0.000628	20.792428
1768.502044	-3.017100	3.393400	-10.237000	25.761281	0.000628	20.804029
1769.492872	-3.012600	3.393200	-10.222000	25.765261	0.000627	20.792379
1770.475439	-3.007100	3.394500	-10.206000	25.782352	0.000628	20.831831
1771.495513	-2.984000	3.395000	-10.130000	25.779691	0.000628	20.820150
1772.492716	-3.023100	3.393200	-10.257000	25.788139	0.000626	20.803031
1773.492572	-2.986800	3.393400	-10.135000	25.799475	0.000625	20.825323
1774.496228	-3.002800	3.391700	-10.184000	25.743767	0.000625	20.794971
1775.478209	-3.023700	3.390900	-10.252000	25.756715	0.000624	20.808925
1776.481335	-3.027600	3.390700	-10.265000	25.770534	0.000627	20.818063
1777.479450	-2.980200	3.392100	-10.108000	25.762355	0.000625	20.824073
1778.482575	-3.005400	3.390500	-10.188000	25.783831	0.000622	20.811980
1779.499182	-3.015300	3.389900	-10.220000	25.800101	0.000623	20.814098
1780.501301	-2.996500	3.390000	-10.157000	25.815555	0.000624	20.816820
1781.483349	-3.000600	3.389600	-10.170000	25.830009	0.000623	20.828969
1782.498068	-3.009600	3.389400	-10.200000	25.852292	0.000620	20.807256
1783.497568	-3.010000	3.389300	-10.201000	25.878626	0.000621	20.821857
1784.506842	-3.024400	3.388200	-10.245000	25.871528	0.000621	20.824210
1785.500473	-2.997900	3.388200	-10.156000	25.881091	0.000619	20.828600
1786.498349	-2.986400	3.388900	-10.119000	25.881514	0.000620	20.820965
1787.484201	-3.015900	3.388500	-10.219000	25.881912	0.000619	20.819943
1788.481408	-2.994100	3.388800	-10.145000	25.841369	0.000619	20.819992
1789.485133	-2.991700	3.387800	-10.135000	25.865718	0.000618	20.837338
1790.481246	-2.973200	3.388500	-10.074000	25.847684	0.000618	20.795041
1791.483728	-3.008200	3.386700	-10.187000	25.852379	0.000618	20.820620
1792.486353	-3.013200	3.385600	-10.199000	25.865896	0.000618	20.828509
1793.484289	-3.011800	3.385500	-10.195000	25.867361	0.000619	20.826187
1794.502025	-3.009800	3.385900	-10.189000	25.880308	0.000616	20.827813
1795.505328	-3.022600	3.384400	-10.228000	25.871168	0.000618	20.815788
1796.503520	-3.014700	3.385600	-10.206000	25.863193	0.000616	20.826742
1797.500386	-3.001500	3.385700	-10.161000	25.848163	0.000614	20.842462
1798.505147	-3.009400	3.384000	-10.183000	25.887706	0.000615	20.802055
1799.499770	-2.999700	3.385000	-10.154000	25.900530	0.000616	20.822998
1800.498992	-2.992500	3.384500	-10.127000	25.908756	0.000614	20.841693
1801.502937	-3.014000	3.383000	-10.195000	25.924185	0.000613	20.829692
1802.505476	-3.005300	3.383800	-10.168000	25.936463	0.000614	20.831122
1803.506492	-3.010900	3.381800	-10.182000	25.970346	0.000612	20.828653
1804.505869	-3.017600	3.381800	-10.204000	25.994115	0.000612	20.838782
1805.485272	-3.003800	3.382100	-10.158000	26.047094	0.000610	20.839379
1806.505405	-2.972600	3.383800	-10.056000	25.997614	0.000611	20.829022
1807.501582	-3.012700	3.382300	-10.188000	25.957579	0.000611	20.848542
1808.488365	-2.981300	3.381700	-10.080000	25.938701	0.000610	20.849964
1809.485867	-2.964600	3.382200	-10.025000	25.939823	0.000610	20.827385
1810.491283	-2.985100	3.381300	-10.092000	25.960288	0.000610	20.847471
1811.511188	-2.987600	3.381200	-10.101000	25.969777	0.000608	20.824761
1812.502010	-3.020900	3.379400	-10.208000	26.015849	0.000607	20.844496
1813.505299	-3.003200	3.378900	-10.147000	25.980859	0.000606	20.821197
1814.487782	-3.025600	3.379000	-10.221000	25.954608	0.000604	20.828014
1815.511044	-3.029400	3.380600	-10.240000	25.965316	0.000607	20.837823
1816.503801	-2.943600	3.381100	-9.950300	25.945039	0.000605	20.824091
1817.511062	-2.969200	3.380000	-10.034000	25.971769	0.000606	20.839565
1818.509504	-3.009300	3.379800	-10.170000	25.957219	0.000604	20.837275
1819.515675	-2.984700	3.379200	-10.086000	25.966511	0.000606	20.836180
1820.510579	-2.993900	3.378600	-10.114000	25.994503	0.000603	20.859560
1821.505638	-3.005600	3.378600	-10.153000	25.982460	0.000603	20.859788
1822.508383	-2.991800	3.378300	-10.106000	25.978359	0.000602	20.836229
1823.506250	-3.010300	3.376500	-10.162000	25.991231	0.000604	20.839204
1824.494237	-2.995400	3.376400	-10.113000	25.992322	0.000602	20.832239
1825.495677	-3.000500	3.377100	-10.131000	26.006749	0.000602	20.823027
1826.510150	-2.994900	3.375400	-10.108000	26.037757	0.000603	20.836636
1827.516867	-3.001000	3.376800	-10.133000	26.013909	0.000600	20.830220
1828.490582	-3.007800	3.374900	-10.150000	26.003778	0.000601	20.839007
1829.492679	-3.016200	3.373500	-10.174000	25.967113	0.000601	20.828723
1830.509564	-2.994600	3.374900	-10.105000	25.952563	0.000599	20.831175
1831.491750	-2.988500	3.374000	-10.083000	25.953874	0.000598	20.829173
1832.490257	-2.969300	3.373700	-10.016000	25.925010	0.000599	20.826254
1833.491542	-2.996000	3.373700	-10.107000	25.961156	0.000598	20.807092
1834.491622	-2.967300	3.374000	-10.011000	25.955150	0.000599	20.827610
1835.500888	-2.982600	3.374000	-10.062000	25.977527	0.000597	20.824962
1836.495377	-2.972300	3.374300	-10.028000	25.998464	0.000596	20.806642
1837.510271	-3.013100	3.372300	-10.160000	26.001866	0.000596	20.835189
1838.511634	-3.016200	3.371400	-10.167000	25.980359	0.000596	20.819272
1839.493096	-3.001200	3.371700	-10.118000	25.958520	0.000596	20.806340
1840.494518	-2.992700	3.371500	-10.089000	25.923318	0.000595	20.821710
1841.491677	-3.006700	3.371900	-10.137000	25.890531	0.000593	20.811057
1842.492779	-2.988700	3.371600	-10.075000	25.873043	0.000595	20.797282
1843.493794	-3.010500	3.371400	-10.149000	25.888049	0.000594	20.814727
1844.494230	-2.972100	3.371100	-10.018000	25.944410	0.000594	20.815398
1845.494465	-3.002300	3.370100	-10.117000	25.975412	0.000592	20.808613
1846.510965	-3.015800	3.370000	-10.162000	25.987683	0.000593	20.813354
1847.493893	-2.999400	3.368900	-10.103000	25.983159	0.000594	20.784627
1848.494424	-2.990000	3.369500	-10.074000	25.957754	0.000592	20.812683
1849.493035	-2.985100	3.370500	-10.059000	25.974493	0.000590	20.807689
1850.493287	-3.022300	3.368600	-10.180000	25.963987	0.000592	20.808040
1851.497754	-3.019400	3.368400	-10.169000	26.004477	0.000591	20.791346
1852.517717	-2.996900	3.368500	-10.094000	26.025193	0.000588	20.805048
1853.510993	-2.992700	3.368600	-10.080000	25.975860	0.000590	20.832769
1854.513346	-2.997000	3.367000	-10.090000	25.993598	0.000589	20.800805
1855.495236	-2.990900	3.367000	-10.069000	25.956094	0.000587	20.804851
1856.516518	-3.002900	3.367500	-10.112000	25.983939	0.000588	20.780195
1857.516736	-3.016700	3.365800	-10.153000	25.957387	0.000587	20.800935
1858.521599	-2.997300	3.364200	-10.083000	25.985925	0.000587	20.794992
1859.514001	-3.000400	3.365300	-10.097000	25.992312	0.000587	20.818004
1860.514738	-2.986400	3.367000	-10.055000	25.994126	0.000587	20.784740
1861.523114	-2.992200	3.364300	-10.065000	25.997202	0.000585	20.788305
1862.499474	-2.984800	3.366000	-10.045000	26.000163	0.000585	20.773262
1863.512815	-3.005400	3.364000	-10.109000	25.992263	0.000585	20.807998
1864.500967	-3.002200	3.363600	-10.098000	25.965019	0.000585	20.799593
1865.520348	-3.001700	3.363500	-10.096000	25.962439	0.000582	20.786096
1866.516106	-3.014500	3.363200	-10.137000	25.979950	0.000583	20.789938
1867.515301	-3.015500	3.363000	-10.140000	26.006208	0.000580	20.764161
1868.515386	-3.000000	3.363400	-10.089000	26.024085	0.000583	20.793503
1869.519629	-3.015900	3.362000	-10.138000	26.032196	0.000582	20.773676
1870.499567	-2.968000	3.362900	-9.980800	26.069016	0.000582	20.790282
1871.499025	-3.004400	3.361600	-10.098000	26.086759	0.000582	20.800050
1872.498946	-3.012400	3.361400	-10.125000	26.045906	0.000580	20.798831
1873.518234	-3.005000	3.361100	-10.099000	26.007924	0.000580	20.806664
1874.518568	-2.977100	3.361400	-10.006000	25.982708	0.000580	20.777536
1875.515148	-2.979900	3.360400	-10.012000	25.983457	0.000579	20.804841
1876.521671	-2.991700	3.360000	-10.051000	25.980926	0.000579	20.786177
1877.516969	-2.988800	3.360700	-10.043000	25.986988	0.000578	20.787051
1878.519814	-3.002200	3.359600	-10.085000	25.996052	0.000577	20.800900
1879.521545	-3.000400	3.359000	-10.078000	26.017045	0.000575	20.795439
1880.502434	-2.990900	3.360800	-10.051000	26.018632	0.000576	20.788024
1881.525739	-3.024500	3.358400	-10.157000	26.000405	0.000577	20.780143
1882.502861	-3.020800	3.356900	-10.139000	25.955210	0.000577	20.771246
1883.502292	-2.998400	3.358100	-10.068000	25.916802	0.000576	20.765377
1884.502349	-2.997400	3.358300	-10.066000	25.897971	0.000575	20.768271
1885.503133	-3.014700	3.356900	-10.119000	25.853058	0.000574	20.784793
1886.503672	-3.000800	3.356800	-10.072000	25.842178	0.000575	20.782398
1887.515947	-3.001000	3.358700	-10.078000	25.871725	0.000572	20.776044
1888.503414	-2.997300	3.356600	-10.060000	25.895367	0.000572	20.781302
1889.505143	-2.994600	3.357500	-10.054000	25.906726	0.000573	20.797455
1890.503781	-3.017800	3.355900	-10.126000	25.934149	0.000573	20.774270
1891.508403	-2.991700	3.355700	-10.038000	25.986715	0.000574	20.759276
1892.503714	-3.020900	3.355600	-10.136000	25.958405	0.000572	20.766870
1893.507166	-2.997500	3.355700	-10.057000	25.975682	0.000572	20.779486
1894.509590	-3.002900	3.354600	-10.072000	25.939250	0.000571	20.783662
1895.504233	-3.002800	3.356500	-10.076000	25.974508	0.000570	20.767401
1896.508598	-2.982000	3.354700	-10.003000	25.969536	0.000571	20.759561
1897.506450	-2.988200	3.353600	-10.021000	25.996462	0.000570	20.780449
1898.505048	-2.999700	3.353300	-10.058000	25.980122	0.000569	20.780154
1899.526394	-2.983100	3.354500	-10.006000	25.987152	0.000567	20.782950
1900.529009	-3.001500	3.354200	-10.067000	25.997689	0.000568	20.779785
1901.524667	-2.998800	3.352800	-10.054000	25.986485	0.000566	20.756200
1902.522337	-3.028300	3.351600	-10.147000	25.980479	0.000567	20.757278
1903.525890	-2.977900	3.352100	-9.981300	25.984272	0.000565	20.760615
1904.507485	-2.999000	3.351500	-10.050000	25.954472	0.000566	20.791843
1905.526768	-2.984200	3.350800	-9.997600	25.984702	0.000564	20.772901
1906.507022	-3.009000	3.351400	-10.083000	25.996298	0.000562	20.777913
1907.531964	-2.983600	3.350600	-9.994400	26.008177	0.000564	20.763295
1908.532875	-2.979400	3.352000	-9.985600	26.033808	0.000562	20.774822
1909.507679	-2.983500	3.351200	-9.997100	26.042775	0.000562	20.777667
1910.508763	-2.990700	3.349400	-10.017000	26.070715	0.000562	20.766386
1911.511214	-3.018100	3.350000	-10.109000	26.067859	0.000563	20.773473
1912.510238	-3.010800	3.349100	-10.083000	26.095181	0.000561	20.766312
1913.508801	-2.991100	3.348700	-10.016000	26.110761	0.000561	20.769164
1914.509261	-3.032700	3.348200	-10.153000	26.145981	0.000559	20.767569
1915.509444	-3.018100	3.347900	-10.103000	26.124470	0.000560	20.770137
1916.527115	-2.989100	3.348200	-10.007000	26.166799	0.000558	20.741072
1917.525265	-3.014900	3.348700	-10.095000	26.166597	0.000560	20.758413
1918.531518	-2.995200	3.346500	-10.023000	26.147225	0.000560	20.746060
1919.534498	-2.994500	3.348300	-10.025000	26.151864	0.000556	20.761626
1920.524593	-3.010100	3.346000	-10.071000	26.184430	0.000558	20.748357
1921.533328	-2.999800	3.345200	-10.033000	26.159770	0.000558	20.761037
1922.530976	-3.012500	3.346000	-10.079000	26.142839	0.000555	20.738807
1923.536207	-3.000100	3.345200	-10.034000	26.123093	0.000555	20.750261
1924.530127	-2.990900	3.344600	-10.001000	26.107122	0.000556	20.750809
1925.528184	-3.017900	3.345400	-10.094000	26.110303	0.000556	20.765385
1926.535339	-3.017400	3.344100	-10.089000	26.060086	0.000553	20.745747
1927.514339	-2.981400	3.346000	-9.974800	26.040859	0.000554	20.747767
1928.534545	-2.969900	3.345500	-9.935000	26.020542	0.000552	20.734940
1929.511395	-2.986600	3.344700	-9.988600	26.010166	0.000553	20.745379
1930.527165	-2.982800	3.343700	-9.972700	26.014617	0.000552	20.732306
1931.527391	-3.017300	3.342400	-10.084000	26.044960	0.000552	20.754258
1932.526608	-2.988400	3.342200	-9.986700	26.046945	0.000552	20.760995
1933.536985	-3.008200	3.343200	-10.055000	26.052021	0.000550	20.739067
1934.529133	-3.008400	3.342300	-10.054000	26.077326	0.000550	20.745526
1935.532934	-3.012800	3.341600	-10.067000	26.077896	0.000550	20.735667
1936.531805	-3.005300	3.343300	-10.046000	26.107185	0.000550	20.734750
1937.531726	-3.004300	3.342200	-10.040000	26.094811	0.000549	20.767837
1938.536253	-2.989400	3.341900	-9.989200	26.077106	0.000547	20.724915
1939.520319	-2.990100	3.340500	-9.987300	26.109611	0.000548	20.722488
1940.517142	-2.971700	3.341300	-9.928100	26.095657	0.000548	20.741185
1941.535283	-3.013300	3.339200	-10.060000	26.111408	0.000546	20.748951
1942.535802	-3.002700	3.339100	-10.026000	26.113320	0.000547	20.744708
1943.517453	-2.995000	3.340500	-10.004000	26.143171	0.000546	20.748150
1944.521377	-3.012600	3.338000	-10.054000	26.126533	0.000547	20.713886
1945.537861	-3.016000	3.338200	-10.067000	26.096209	0.000546	20.737947
1946.518485	-2.989900	3.338400	-9.979700	26.069758	0.000546	20.749302
1947.518687	-3.018700	3.338800	-10.078000	26.060442	0.000546	20.744209
1948.521275	-3.023700	3.337400	-10.090000	26.074851	0.000545	20.742091
1949.517958	-3.004900	3.337700	-10.029000	26.061418	0.000545	20.746612
1950.519543	-3.002600	3.336600	-10.017000	26.092018	0.000543	20.731839
1951.519441	-3.020000	3.335600	-10.073000	26.099422	0.000543	20.755400
1952.526192	-3.004500	3.337000	-10.025000	26.069961	0.000542	20.725323
1953.522121	-2.998800	3.335800	-10.001000	26.058887	0.000541	20.713721
1954.519610	-3.036700	3.335700	-10.128000	26.069010	0.000541	20.740964
1955.520360	-2.996800	3.333900	-9.990400	26.103847	0.000542	20.738509
1956.546905	-3.013400	3.333700	-10.045000	26.109290	0.000540	20.747771
1957.522493	-2.996900	3.335200	-9.994400	26.137075	0.000542	20.719738
1958.519989	-3.001000	3.334500	-10.006000	26.161165	0.000539	20.746791
1959.541217	-2.987900	3.335200	-9.964800	26.201281	0.000540	20.725460
1960.540801	-3.018900	3.332800	-10.060000	26.202941	0.000537	20.742776
1961.526778	-2.976500	3.333900	-9.922500	26.211410	0.000536	20.719517
1962.521756	-2.968300	3.333800	-9.895500	26.176996	0.000539	20.718600
1963.524402	-3.002400	3.333500	-10.008000	26.150075	0.000536	20.711463
1964.522326	-2.999700	3.333900	-9.998900	26.162637	0.000535	20.739735
1965.539611	-2.995300	3.332300	-9.979900	26.163784	0.000535	20.741361
1966.547701	-3.000000	3.331400	-9.993300	26.144835	0.000533	20.712836
1967.540240	-3.010500	3.330800	-10.026000	26.184277	0.000533	20.723546
1968.543038	-3.013000	3.330700	-10.034000	26.198831	0.000535	20.707350
1969.538249	-3.005600	3.331000	-10.011000	26.231958	0.000534	20.731158
1970.548451	-3.001700	3.330000	-9.994900	26.244453	0.000533	20.747034
1971.543081	-3.009200	3.330400	-10.021000	26.253694	0.000533	20.713170
1972.524544	-2.988700	3.329400	-9.949000	26.206258	0.000533	20.721453
1973.524786	-2.973100	3.331200	-9.902300	26.174221	0.000531	20.716760
1974.527033	-2.980400	3.329700	-9.922800	26.173162	0.000531	20.718067
1975.523664	-2.986900	3.328400	-9.940700	26.206314	0.000530	20.716293
1976.528524	-3.005900	3.326800	-9.999200	26.214262	0.000530	20.712900
1977.528418	-3.016700	3.328500	-10.039000	26.257476	0.000530	20.733567
1978.536005	-2.992700	3.328300	-9.959100	26.264431	0.000529	20.721590
1979.541969	-2.988200	3.328900	-9.946300	26.268677	0.000528	20.704993
1980.549195	-2.992900	3.327700	-9.957600	26.291251	0.000527	20.703971
1981.554041	-3.000100	3.326200	-9.977800	26.293813	0.000529	20.723143
1982.547905	-3.017200	3.326400	-10.036000	26.324058	0.000528	20.737891
1983.529686	-2.985600	3.327200	-9.932900	26.263397	0.000526	20.729086
1984.547183	-3.000700	3.324900	-9.976300	26.236429	0.000526	20.698664
1985.530016	-2.988000	3.327200	-9.941300	26.162722	0.000528	20.711369
1986.551516	-3.017300	3.326200	-10.035000	26.183159	0.000526	20.722897
1987.532969	-2.990700	3.325800	-9.945100	26.188804	0.000526	20.688738
1988.527943	-3.007900	3.324600	-9.999700	26.188577	0.000526	20.714590
1989.527758	-2.997500	3.325200	-9.965100	26.171597	0.000524	20.725978
1990.531844	-3.005300	3.324700	-9.990400	26.236632	0.000523	20.696497
1991.549571	-3.002300	3.324700	-9.980800	26.254048	0.000523	20.711155
1992.531636	-2.993300	3.324100	-9.948800	26.284318	0.000524	20.694632
1993.531896	-2.994700	3.323200	-9.951300	26.277174	0.000522	20.707369
1994.532835	-2.984900	3.322600	-9.916800	26.285293	0.000522	20.712209
1995.550635	-3.027100	3.322100	-10.055000	26.280005	0.000520	20.718275
1996.533160	-3.000900	3.321500	-9.967200	26.287097	0.000521	20.696002
1997.537510	-3.019900	3.321900	-10.030000	26.276360	0.000520	20.709395
1998.538231	-3.010400	3.322800	-10.001000	26.280208	0.000520	20.712314
1999.535917	-2.992800	3.322900	-9.943900	26.206567	0.000520	20.693786
2000.535905	-3.017700	3.321500	-10.022000	26.154501	0.000519	20.707850
2001.552350	-2.997000	3.321200	-9.952300	26.156176	0.000518	20.710481
2002.555808	-2.968200	3.321200	-9.857000	26.145323	0.000520	20.699101
2003.564186	-3.006600	3.321300	-9.984000	26.147536	0.000517	20.674295
2004.535165	-2.991800	3.321400	-9.934400	26.120956	0.000517	20.701644
2005.541394	-3.023100	3.319000	-10.032000	26.125959	0.000516	20.713783
2006.539212	-2.999900	3.320100	-9.958200	26.132264	0.000517	20.678865
2007.557775	-3.014300	3.318800	-10.003000	26.106440	0.000514	20.678521
2008.553230	-3.007500	3.318600	-9.978500	26.159266	0.000515	20.704103
2009.560016	-2.999000	3.319500	-9.953600	26.188823	0.000515	20.700611
2010.556768	-2.989300	3.317500	-9.915600	26.212740	0.000512	20.678651
2011.561989	-3.024500	3.316400	-10.029000	26.225358	0.000513	20.697970
2012.557742	-2.994000	3.318200	-9.933500	26.248282	0.000511	20.709154
2013.556495	-3.016400	3.316600	-10.003000	26.233379	0.000513	20.687538
2014.558528	-2.994300	3.317100	-9.929800	26.272443	0.000511	20.687440
2015.564605	-2.998600	3.317200	-9.946300	26.270539	0.000512	20.686474
2016.564417	-2.968900	3.316700	-9.846500	26.307983	0.000511	20.692336
2017.540965	-3.027200	3.316800	-10.039000	26.304551	0.000508	20.686990
2018.542657	-3.000400	3.315300	-9.945400	26.301598	0.000507	20.693506
2019.543025	-3.011000	3.314500	-9.978600	26.321071	0.000508	20.698378
2020.542305	-3.007700	3.315000	-9.969200	26.312921	0.000505	20.696825
2021.542315	-2.995500	3.314700	-9.926900	26.354226	0.000508	20.711785
2022.544505	-2.996300	3.313600	-9.927200	26.363955	0.000506	20.688371
2023.544281	-3.011500	3.313500	-9.977900	26.358570	0.000507	20.686277
2024.547634	-2.994700	3.314500	-9.924200	26.371829	0.000506	20.682059
2025.544278	-3.002400	3.311700	-9.942200	26.326034	0.000506	20.695778
2026.559681	-3.011600	3.311900	-9.972800	26.293389	0.000505	20.689049
2027.549834	-2.994300	3.312800	-9.918300	26.258051	0.000505	20.681985
2028.545175	-2.973700	3.312700	-9.849500	26.241806	0.000504	20.709758
2029.544589	-2.977300	3.313100	-9.863100	26.226389	0.000504	20.689523
2030.544998	-3.002900	3.311600	-9.943400	26.219246	0.000502	20.687560
2031.547647	-2.996700	3.310800	-9.920000	26.254277	0.000502	20.693840
2032.547157	-3.009200	3.310300	-9.960500	26.263273	0.000502	20.691501
2033.550752	-3.003000	3.310500	-9.940400	26.295926	0.000502	20.687331
2034.547678	-3.009700	3.310900	-9.964300	26.347076	0.000502	20.691795
2035.553303	-3.019500	3.309800	-9.992600	26.368663	0.000500	20.688360
2036.549600	-3.031800	3.308400	-10.029000	26.360489	0.000499	20.687257
2037.549463	-2.992900	3.309400	-9.901900	26.343732	0.000500	20.684166
2038.552347	-3.033800	3.307800	-10.034000	26.375471	0.000499	20.680503
2039.567747	-2.968600	3.309500	-9.822600	26.378522	0.000501	20.682621
2040.567648	-3.001400	3.308100	-9.926900	26.377578	0.000499	20.689734
2041.568374	-2.986100	3.308600	-9.878600	26.391088	0.000498	20.678655
2042.564192	-2.987100	3.308400	-9.881000	26.391567	0.000497	20.702372
2043.571889	-2.995500	3.306500	-9.904100	26.372127	0.000497	20.666709
2044.567709	-3.030900	3.307100	-10.022000	26.351166	0.000496	20.679783
2045.568950	-3.028700	3.305400	-10.011000	26.353671	0.000495	20.692260
2046.550601	-3.011300	3.305900	-9.954000	26.367783	0.000493	20.668034
2047.575307	-3.027300	3.305900	-10.008000	26.390079	0.000494	20.677640
2048.565795	-3.027300	3.304500	-10.002000	26.398050	0.000493	20.666685
2049.570734	-3.017800	3.304900	-9.971600	26.390086	0.000495	20.675751
2050.568162	-3.005800	3.303600	-9.929200	26.401359	0.000495	20.669537
2051.569961	-2.948300	3.306300	-9.746600	26.395999	0.000492	20.700188
2052.572875	-3.028700	3.302900	-10.003000	26.373899	0.000492	20.689355
2053.569141	-3.003900	3.303800	-9.923200	26.400545	0.000492	20.686739
2054.576318	-3.025800	3.301900	-9.989900	26.425248	0.000491	20.682643
2055.572934	-3.000100	3.304200	-9.912200	26.428778	0.000491	20.697097
2056.576131	-3.021800	3.301600	-9.976100	26.465745	0.000492	20.690630
2057.555335	-3.006300	3.302300	-9.926800	26.502645	0.000491	20.678407
2058.556116	-2.991400	3.302100	-9.877000	26.510444	0.000488	20.681979
2059.559088	-3.001700	3.300800	-9.906500	26.517422	0.000487	20.705591
2060.556721	-3.013700	3.301900	-9.949700	26.506223	0.000486	20.676788
2061.555760	-3.002700	3.302700	-9.915500	26.499594	0.000486	20.695257
2062.575237	-2.998100	3.299800	-9.891600	26.509336	0.000487	20.683711
2063.581787	-3.015000	3.299800	-9.947700	26.492403	0.000484	20.688502
2064.570791	-2.997600	3.300000	-9.890900	26.498577	0.000485	20.698502
2065.573510	-3.005400	3.299600	-9.915500	26.513582	0.000485	20.693669
2066.557408	-2.994800	3.298400	-9.875500	26.515322	0.000486	20.700161
2067.574093	-3.003900	3.299700	-9.910800	26.549610	0.000485	20.684365
2068.556605	-3.011700	3.296500	-9.925700	26.501244	0.000483	20.669886
2069.580883	-2.995900	3.299200	-9.883400	26.520176	0.000481	20.690814
2070.578117	-3.025500	3.298000	-9.977400	26.529750	0.000482	20.680048
2071.574565	-3.007300	3.297600	-9.916000	26.521657	0.000481	20.685665
2072.571904	-3.033100	3.295600	-9.993800	26.535889	0.000481	20.683375
2073.556566	-3.007000	3.298200	-9.916400	26.569907	0.000479	20.680112
2074.556362	-2.998900	3.295800	-9.883400	26.574869	0.000480	20.691264
2075.556336	-2.982400	3.297300	-9.831400	26.558790	0.000480	20.686480
2076.559177	-3.002300	3.294800	-9.890100	26.525414	0.000480	20.686121
2077.580597	-3.004000	3.294400	-9.895100	26.519589	0.000477	20.697337
2078.575830	-2.969300	3.296200	-9.786600	26.498386	0.000479	20.687404
2079.580992	-3.009200	3.295400	-9.915500	26.495060	0.000479	20.699234
2080.576578	-2.999500	3.295800	-9.884400	26.523339	0.000478	20.712013
2081.577809	-3.031900	3.291900	-9.979900	26.528356	0.000477	20.692399
2082.578308	-3.001400	3.294800	-9.887700	26.463217	0.000475	20.673389
2083.584602	-3.014300	3.292900	-9.924600	26.402906	0.000476	20.715192
2084.581061	-2.996700	3.295000	-9.872700	26.373786	0.000475	20.704416
2085.582566	-2.987300	3.292700	-9.835300	26.340558	0.000473	20.691883
2086.563988	-2.995300	3.292400	-9.860700	26.303286	0.000471	20.680976
2087.581109	-2.991300	3.292600	-9.846800	26.283274	0.000472	20.695480
2088.582109	-2.995800	3.292000	-9.861000	26.301780	0.000472	20.699853
2089.585083	-2.995500	3.290800	-9.855500	26.347642	0.000471	20.710384
2090.583015	-2.981500	3.291000	-9.811600	26.348659	0.000472	20.704293
2091.581319	-3.017600	3.290700	-9.929000	26.352783	0.000470	20.697057
2092.582625	-2.998900	3.289400	-9.863700	26.297030	0.000469	20.699821
2093.578790	-2.979200	3.290900	-9.802900	26.281719	0.000470	20.694866
2094.581349	-3.005400	3.289300	-9.884800	26.242355	0.000470	20.715052
2095.563109	-2.973000	3.289900	-9.779600	26.201678	0.000470	20.704521
2096.562587	-2.972400	3.290000	-9.778400	26.185335	0.000467	20.684777
2097.563871	-2.965000	3.289900	-9.753600	26.208903	0.000466	20.690443
2098.562778	-2.987600	3.288200	-9.822900	26.242680	0.000467	20.703998
2099.586206	-2.982200	3.289000	-9.807300	26.276148	0.000466	20.691637
2100.578313	-2.990100	3.287300	-9.827900	26.295426	0.000465	20.693942
2101.580078	-2.991600	3.287400	-9.834000	26.331650	0.000463	20.708536
2102.589534	-2.982600	3.288000	-9.804700	26.384588	0.000462	20.706263
2103.579751	-3.002200	3.287000	-9.867300	26.407655	0.000464	20.711905
2104.590273	-2.987600	3.286900	-9.819100	26.388589	0.000463	20.697482
2105.584934	-3.001200	3.286000	-9.859500	26.377641	0.000462	20.711610
2106.585412	-2.988800	3.286600	-9.821800	26.359395	0.000461	20.721722
2107.584502	-2.995600	3.286100	-9.843000	26.348226	0.000462	20.705755
2108.593023	-3.019700	3.284200	-9.916100	26.397878	0.000460	20.712509
2109.594168	-2.988900	3.285500	-9.818600	26.409581	0.000459	20.705305
2110.584419	-2.999400	3.284900	-9.851100	26.407069	0.000456	20.711789
2111.592733	-3.000200	3.285300	-9.854500	26.402708	0.000456	20.714993
2112.584054	-2.989300	3.282700	-9.812200	26.371669	0.000457	20.701814
2113.587500	-2.983300	3.283600	-9.795500	26.358281	0.000456	20.724395
2114.589443	-2.972400	3.282700	-9.755100	26.367308	0.000457	20.714501
2115.583511	-2.982900	3.283200	-9.792500	26.374702	0.000456	20.693482
2116.567236	-2.982000	3.283600	-9.789600	26.415795	0.000454	20.698273
2117.585698	-3.003200	3.281700	-9.853200	26.388562	0.000454	20.708361
2118.588889	-3.012500	3.281400	-9.884700	26.392092	0.000453	20.729454
2119.584685	-2.999600	3.282100	-9.844700	26.350544	0.000452	20.718516
2120.594676	-3.004200	3.279900	-9.853000	26.321503	0.000450	20.715882
2121.586956	-2.996700	3.281600	-9.833200	26.285621	0.000453	20.731031
2122.586886	-2.999800	3.280500	-9.839800	26.278177	0.000451	20.728766
2123.593436	-2.964400	3.280700	-9.724100	26.275566	0.000451	20.730410
2124.570149	-2.984000	3.280600	-9.787400	26.293527	0.000450	20.718587
2125.570335	-3.000300	3.280200	-9.840600	26.286044	0.000449	20.716283
2126.591478	-2.996700	3.279500	-9.827500	26.290200	0.000449	20.731840
2127.590431	-3.001800	3.277500	-9.837100	26.306412	0.000447	20.705931
2128.571498	-3.000800	3.278400	-9.836700	26.340260	0.000448	20.722405
2129.573595	-2.999900	3.278700	-9.834400	26.337681	0.000446	20.719339
2130.570318	-3.024300	3.277000	-9.910000	26.347759	0.000448	20.717614
2131.572022	-2.994200	3.276500	-9.809100	26.388455	0.000444	20.722953
2132.600435	-3.007000	3.277300	-9.853800	26.442047	0.000444	20.740308
2133.591895	-3.019800	3.276200	-9.891500	26.440006	0.000446	20.732093
2134.591508	-2.991300	3.276700	-9.800700	26.435215	0.000445	20.725380
2135.592098	-3.014500	3.274300	-9.869300	26.462324	0.000445	20.739353
2136.593008	-3.002300	3.274800	-9.831100	26.456688	0.000444	20.719462
2137.574011	-2.993100	3.275600	-9.802800	26.468978	0.000442	20.732289
2138.595375	-2.976900	3.274600	-9.747300	26.495101	0.000440	20.745746
2139.601269	-2.994300	3.274900	-9.804600	26.548160	0.000442	20.732223
2140.575902	-3.004700	3.273000	-9.834000	26.573575	0.000441	20.724105
2141.575373	-3.001300	3.272700	-9.821500	26.595175	0.000440	20.728275
2142.593384	-3.012100	3.274400	-9.862300	26.574893	0.000440	20.729223
2143.595670	-2.983100	3.272300	-9.760400	26.581790	0.000439	20.757020
2144.593711	-2.977500	3.273500	-9.746300	26.527170	0.000440	20.740048
2145.592168	-2.974200	3.273100	-9.733700	26.525755	0.000437	20.730565
2146.591316	-3.012700	3.270900	-9.853700	26.546388	0.000438	20.738503
2147.594062	-2.997500	3.272100	-9.807900	26.568981	0.000438	20.742721
2148.602857	-3.015300	3.271300	-9.862900	26.579658	0.000436	20.737333
2149.594345	-3.001500	3.269900	-9.813900	26.595046	0.000436	20.735257
2150.595493	-3.007500	3.270200	-9.833500	26.587198	0.000435	20.744439
2151.598382	-3.008100	3.270000	-9.835400	26.600381	0.000434	20.740621
2152.598938	-2.979800	3.269700	-9.742000	26.634837	0.000434	20.735903
2153.594356	-2.985900	3.268800	-9.758100	26.654769	0.000433	20.737923
2154.597069	-3.021700	3.269300	-9.877000	26.602201	0.000432	20.729174
2155.601822	-2.977200	3.270600	-9.736800	26.573404	0.000433	20.743849
2156.594503	-3.009600	3.267600	-9.832800	26.545990	0.000431	20.745689
2157.599840	-2.991600	3.268200	-9.776400	26.529861	0.000430	20.752237
2158.576590	-3.007300	3.267600	-9.825500	26.512237	0.000430	20.736891
2159.576282	-3.022600	3.266100	-9.870200	26.480453	0.000429	20.739082
2160.598763	-2.988900	3.266500	-9.762200	26.451286	0.000428	20.755285
2161.593665	-3.012600	3.264900	-9.833500	26.467000	0.000427	20.741682
2162.601917	-3.012400	3.265600	-9.835700	26.502055	0.000430	20.755106
2163.602512	-3.006900	3.265800	-9.818800	26.499591	0.000427	20.758794
2164.577257	-3.006500	3.264900	-9.814900	26.498491	0.000427	20.724970
2165.579875	-3.008600	3.264000	-9.818800	26.463380	0.000426	20.754165
2166.598346	-3.016100	3.265300	-9.847600	26.450741	0.000424	20.748573
2167.603951	-2.971200	3.264200	-9.697700	26.465991	0.000423	20.751573
2168.580145	-3.004200	3.264000	-9.804900	26.497418	0.000424	20.735746
2169.604362	-3.009300	3.262100	-9.815400	26.529030	0.000422	20.767523
2170.602592	-3.020400	3.262600	-9.853500	26.539911	0.000422	20.741475
2171.595794	-3.011100	3.262600	-9.823500	26.522629	0.000420	20.753502
2172.598675	-2.992800	3.262200	-9.762500	26.509600	0.000420	20.759845
2173.595605	-2.990100	3.262100	-9.753300	26.508698	0.000419	20.775535
2174.607007	-3.027400	3.260700	-9.870000	26.487803	0.000419	20.761644
2175.607502	-3.020300	3.260700	-9.846600	26.473406	0.000419	20.773726
2176.601528	-3.007400	3.260900	-9.806200	26.479798	0.000419	20.756917
2177.605864	-3.019300	3.260100	-9.842500	26.494008	0.000416	20.755553
2178.604869	-2.989500	3.259000	-9.742000	26.527710	0.000417	20.756239
2179.582614	-3.012000	3.259700	-9.816900	26.548018	0.000417	20.765747
2180.607818	-2.994500	3.258500	-9.756700	26.560998	0.000414	20.740861
2181.599953	-2.990000	3.258100	-9.740900	26.527662	0.000415	20.760457
2182.586600	-3.021500	3.258400	-9.844600	26.527271	0.000416	20.746313
2183.583109	-3.011000	3.258600	-9.811000	26.514307	0.000412	20.767896
2184.585056	-2.985200	3.257300	-9.722700	26.516372	0.000413	20.751480
2185.584429	-2.989300	3.256000	-9.731500	26.506386	0.000414	20.740967
2186.584473	-2.997000	3.256300	-9.757500	26.561956	0.000411	20.774542
2187.602181	-3.001100	3.256100	-9.770900	26.597375	0.000412	20.776480
2188.585541	-3.001800	3.254900	-9.769500	26.673864	0.000411	20.754276
2189.584621	-2.985100	3.256000	-9.718600	26.708301	0.000412	20.768034
2190.584845	-3.003500	3.255100	-9.774800	26.742942	0.000409	20.768248
2191.584629	-3.004800	3.254200	-9.777400	26.742226	0.000408	20.764683
2192.600367	-2.981200	3.256300	-9.706800	26.749105	0.000408	20.780608
2193.587595	-2.976100	3.254100	-9.683900	26.730736	0.000407	20.759295
2194.583705	-2.993100	3.254500	-9.740200	26.739030	0.000408	20.765263
2195.587761	-3.013200	3.252600	-9.799200	26.721734	0.000407	20.776797
2196.584852	-2.982700	3.253600	-9.703900	26.759211	0.000406	20.777018
2197.584492	-2.994000	3.254500	-9.742700	26.784255	0.000405	20.772800
2198.588568	-3.010200	3.253800	-9.793100	26.821511	0.000406	20.766162
2199.585624	-2.986400	3.252200	-9.711700	26.854902	0.000404	20.787882
2200.585331	-3.018600	3.251600	-9.814100	26.869618	0.000404	20.785136
2201.585426	-3.033500	3.251400	-9.861400	26.877903	0.000401	20.769284
2202.585304	-3.014100	3.251200	-9.797800	26.899553	0.000404	20.773510
2203.604639	-2.974900	3.251400	-9.670600	26.877837	0.000401	20.793874
2204.608683	-3.012100	3.248800	-9.785100	26.866740	0.000402	20.781293
2205.600822	-2.992300	3.249400	-9.721700	26.784539	0.000400	20.787784
2206.586202	-2.990100	3.249600	-9.716200	26.743827	0.000400	20.780991
2207.592254	-3.001300	3.248100	-9.747900	26.708592	0.000400	20.784448
2208.586237	-2.996800	3.247700	-9.732000	26.714122	0.000399	20.787637
2209.589185	-2.991400	3.248400	-9.716300	26.724547	0.000399	20.768245
2210.587143	-2.991500	3.247500	-9.714000	26.708609	0.000396	20.783517
2211.590790	-2.982700	3.247400	-9.685700	26.750982	0.000397	20.776805
2212.590193	-3.017100	3.245500	-9.791100	26.732914	0.000395	20.790882
2213.590302	-2.958500	3.247700	-9.606500	26.756396	0.000395	20.778930
2214.591808	-2.964300	3.247100	-9.623600	26.721717	0.000394	20.790057
2215.590338	-2.983900	3.246200	-9.685300	26.749835	0.000393	20.791774
2216.593657	-2.968300	3.245100	-9.631300	26.750087	0.000392	20.775431
2217.590795	-3.005400	3.243600	-9.747200	26.800069	0.000391	20.785381
2218.591992	-2.988500	3.244300	-9.694600	26.795248	0.000391	20.801871
2219.591718	-3.001500	3.243600	-9.734900	26.802273	0.000392	20.806563
2220.594328	-3.015900	3.242800	-9.779400	26.841512	0.000390	20.790541
2221.592537	-2.982200	3.243700	-9.671700	26.854122	0.000390	20.793737
2222.595247	-3.020700	3.241300	-9.789400	26.881920	0.000389	20.797505
2223.597604	-3.004700	3.242200	-9.740100	26.917156	0.000389	20.785047
2224.595378	-3.015600	3.240000	-9.769900	26.885465	0.000388	20.785897
2225.612962	-2.996000	3.241000	-9.709000	26.930464	0.000389	20.793213
2226.614575	-3.009600	3.240700	-9.751500	26.964707	0.000389	20.811526
2227.613452	-2.983500	3.241700	-9.670400	26.984853	0.000387	20.793852
2228.614919	-3.027600	3.240800	-9.810100	26.968895	0.000387	20.810995
2229.611769	-2.987100	3.239400	-9.675700	26.956139	0.000385	20.816186
2230.621270	-3.009600	3.239200	-9.747500	26.961546	0.000386	20.823994
2231.611745	-2.986300	3.239300	-9.672400	26.949555	0.000385	20.806721
2232.618874	-3.009900	3.237300	-9.743300	26.952619	0.000385	20.806957
2233.623850	-2.993200	3.239300	-9.695100	26.976813	0.000383	20.826070
2234.617170	-2.978400	3.238100	-9.643300	26.968277	0.000383	20.797572
2235.619860	-2.998900	3.235700	-9.702000	26.987601	0.000381	20.809892
2236.615100	-2.986800	3.237300	-9.668700	26.984349	0.000382	20.813260
2237.621035	-2.987200	3.236900	-9.668100	26.971692	0.000379	20.809541
2238.616651	-3.005300	3.235500	-9.722400	26.971668	0.000379	20.809516
2239.624458	-3.002100	3.233600	-9.705000	26.990227	0.000380	20.811111
2240.599881	-2.997700	3.237000	-9.702400	26.977196	0.000378	20.822662
2241.603535	-3.001900	3.234300	-9.708700	26.934808	0.000377	20.825556
2242.598597	-3.021100	3.233900	-9.768300	26.924068	0.000378	20.825662
2243.603080	-2.998700	3.234100	-9.697100	26.920565	0.000377	20.820717
2244.599586	-2.991600	3.233000	-9.670600	26.940840	0.000377	20.830674
2245.601986	-3.011300	3.233700	-9.736500	26.957546	0.000375	20.816653
2246.621608	-2.965900	3.233600	-9.589800	26.978010	0.000376	20.806885
2247.628426	-3.035100	3.230200	-9.802800	27.008113	0.000374	20.826726
2248.603664	-3.020200	3.230400	-9.754800	27.030964	0.000375	20.839274
2249.617561	-3.025000	3.230600	-9.771300	27.031387	0.000373	20.824527
2250.602875	-3.015900	3.231100	-9.742900	27.055733	0.000373	20.819614
2251.606473	-2.995100	3.229900	-9.673500	27.076778	0.000372	20.833192
2252.607120	-2.989200	3.229300	-9.650900	27.108529	0.000372	20.830511
2253.606230	-2.997700	3.229400	-9.678800	27.107115	0.000371	20.822451
2254.605132	-3.009300	3.228900	-9.715100	27.146545	0.000369	20.846460
2255.608167	-2.964800	3.229900	-9.574300	27.139442	0.000371	20.847376
2256.607856	-3.011900	3.228700	-9.724100	27.160388	0.000369	20.823399
2257.610703	-2.984300	3.228000	-9.631900	27.172149	0.000368	20.856090
2258.607426	-2.986400	3.228300	-9.640300	27.200158	0.000368	20.827364
2259.612314	-3.005500	3.226300	-9.694700	27.199313	0.000366	20.842635
2260.626473	-3.010400	3.226700	-9.713300	27.194941	0.000365	20.832074
2261.623387	-3.016200	3.225900	-9.729300	27.185090	0.000366	20.846821
2262.612120	-3.012000	3.226300	-9.716800	27.172760	0.000366	20.846748
2263.627133	-2.992000	3.226000	-9.651000	27.120951	0.000366	20.852486
2264.627262	-3.031700	3.225600	-9.777900	27.086063	0.000365	20.843004
2265.640181	-3.017000	3.225000	-9.726900	27.100842	0.000364	20.853125
2266.625220	-2.984000	3.226000	-9.625000	27.116879	0.000361	20.840805
2267.612930	-2.980400	3.225300	-9.611600	27.120919	0.000362	20.845817
2268.612938	-2.997900	3.223000	-9.661200	27.175459	0.000362	20.830497
2269.609631	-3.001000	3.224300	-9.674900	27.182157	0.000362	20.839130
2270.609990	-3.020600	3.222500	-9.732300	27.194242	0.000360	20.844647
2271.610160	-3.027400	3.221200	-9.751000	27.225942	0.000359	20.847607
2272.626881	-3.006400	3.222700	-9.688200	27.277557	0.000358	20.838835
2273.616127	-3.018800	3.219200	-9.717300	27.276412	0.000356	20.834838
2274.610652	-3.003000	3.221900	-9.673600	27.278923	0.000357	20.847794
2275.611105	-3.001200	3.220700	-9.665500	27.242099	0.000355	20.844893
2276.628024	-3.021200	3.218500	-9.722800	27.210068	0.000357	20.834486
2277.630330	-3.003100	3.222200	-9.675000	27.248080	0.000356	20.837633
2278.629740	-3.018000	3.217300	-9.708800	27.247577	0.000353	20.843291
2279.626461	-2.976900	3.218700	-9.580900	27.254680	0.000354	20.833840
2280.627135	-3.001500	3.218600	-9.659200	27.214139	0.000353	20.838582
2281.626366	-3.006300	3.218700	-9.674800	27.156651	0.000350	20.836710
2282.611529	-3.023300	3.218100	-9.728500	27.078268	0.000352	20.849863
2283.642077	-3.005700	3.216400	-9.665800	27.068497	0.000352	20.835295
2284.647191	-3.025800	3.215100	-9.727600	27.066269	0.000351	20.845856
2285.611270	-3.006400	3.214900	-9.664300	27.103361	0.000349	20.832425
2286.627822	-2.990600	3.216700	-9.618500	27.089947	0.000350	20.831263
2287.611979	-2.997300	3.215400	-9.636600	27.065302	0.000349	20.815486
2288.630363	-2.997200	3.213800	-9.630800	27.081153	0.000350	20.826686
2289.633199	-2.997100	3.214300	-9.632600	27.095321	0.000347	20.829556
2290.628161	-2.987900	3.213200	-9.599700	27.090534	0.000346	20.836594
2291.630834	-2.993500	3.214000	-9.619700	27.082526	0.000348	20.838498
2292.640246	-3.013100	3.212800	-9.679200	27.066398	0.000344	20.824650
2293.629929	-2.991500	3.211800	-9.606200	27.066626	0.000344	20.821085
2294.631979	-2.981400	3.212200	-9.575300	27.088467	0.000345	20.823611
2295.637360	-3.013200	3.210600	-9.673000	27.116608	0.000345	20.797859
2296.615013	-2.999900	3.210900	-9.631400	27.078566	0.000345	20.833568
2297.613741	-3.018900	3.210500	-9.690300	27.094816	0.000342	20.823358
2298.634101	-2.999300	3.209300	-9.625500	27.082914	0.000343	20.825613
2299.635994	-3.003400	3.210300	-9.641300	27.064803	0.000342	20.817356
2300.635490	-2.997900	3.208900	-9.619200	27.005958	0.000342	20.807964
2301.616850	-3.003600	3.210600	-9.642100	26.992697	0.000340	20.823077
2302.617716	-2.990000	3.208700	-9.592600	26.985625	0.000339	20.790361
2303.616231	-3.001800	3.207600	-9.627400	26.966789	0.000340	20.826421
2304.615996	-2.996100	3.207700	-9.609300	26.950163	0.000340	20.810177
2305.636626	-3.019700	3.206100	-9.679900	27.004736	0.000338	20.813848
2306.633933	-3.007700	3.205900	-9.640300	27.022255	0.000339	20.817240
2307.634812	-2.991500	3.206700	-9.591800	27.078881	0.000339	20.807807
2308.637284	-2.991800	3.204500	-9.584900	27.092683	0.000338	20.800350
2309.646962	-2.997200	3.204600	-9.603100	27.128960	0.000337	20.815024
2310.618349	-2.984800	3.206800	-9.570900	27.176380	0.000336	20.779266
2311.617098	-3.003500	3.204700	-9.623900	27.195383	0.000337	20.814975
2312.635218	-2.992900	3.203800	-9.587800	27.194741	0.000337	20.813381
2313.639414	-3.006900	3.203000	-9.629800	27.227072	0.000337	20.806072
2314.637177	-2.987100	3.203100	-9.567600	27.241840	0.000335	20.806701
2315.636474	-3.004300	3.201300	-9.615700	27.230218	0.000334	20.805443
2316.618216	-2.992500	3.201200	-9.578900	27.190684	0.000334	20.802662
2317.618497	-2.986300	3.202800	-9.563600	27.193204	0.000332	20.790499
2318.619750	-2.996400	3.202400	-9.594800	27.182271	0.000333	20.802262
2319.620923	-3.005700	3.200200	-9.618200	27.206980	0.000335	20.791079
2320.620752	-3.011500	3.199700	-9.634700	27.218839	0.000332	20.783092
2321.623353	-2.992700	3.199200	-9.573400	27.248715	0.000333	20.793228
2322.620617	-3.008300	3.199100	-9.622000	27.258517	0.000331	20.816837
2323.619105	-2.991300	3.196600	-9.561000	27.251697	0.000330	20.786271
2324.639894	-2.999000	3.197100	-9.586500	27.242831	0.000331	20.809121
2325.620466	-3.025500	3.195900	-9.668400	27.259801	0.000330	20.802483
2326.651819	-3.002200	3.196800	-9.596300	27.257867	0.000330	20.781571
2327.643953	-3.015300	3.194200	-9.630800	27.196560	0.000329	20.791029
2328.622209	-2.980800	3.197500	-9.528100	27.159667	0.000327	20.798967
2329.619589	-3.003100	3.195000	-9.593900	27.102972	0.000326	20.824448
2330.620606	-2.993900	3.195600	-9.565700	27.088333	0.000326	20.796923
2331.620754	-2.992300	3.194700	-9.557800	27.087414	0.000326	20.813069
2332.621005	-2.987800	3.193800	-9.540200	27.071465	0.000325	20.782804
2333.625736	-3.007700	3.192700	-9.602400	27.099550	0.000325	20.794454
2334.621411	-2.988900	3.193500	-9.544300	27.152051	0.000325	20.796523
2335.620664	-3.015300	3.192200	-9.624100	27.157765	0.000324	20.795157
2336.620812	-2.971300	3.192700	-9.485000	27.195105	0.000324	20.783401
2337.641465	-2.977700	3.191500	-9.503500	27.241075	0.000322	20.781750
2338.640016	-2.980500	3.191400	-9.511100	27.254697	0.000322	20.772692
2339.623521	-2.999200	3.189600	-9.565200	27.230761	0.000324	20.781807
2340.622082	-3.008400	3.189300	-9.594100	27.209181	0.000322	20.779542
2341.641312	-3.000200	3.188700	-9.565800	27.210068	0.000320	20.770002
2342.642241	-3.019100	3.187800	-9.623600	27.226323	0.000320	20.771179
2343.637815	-3.008500	3.188700	-9.592300	27.207491	0.000319	20.785428
2344.644301	-2.996800	3.189000	-9.554800	27.249145	0.000318	20.769479
2345.650946	-2.996500	3.187100	-9.549500	27.251949	0.000319	20.769454
2346.639019	-2.984400	3.189100	-9.516700	27.273884	0.000318	20.772552
2347.649417	-2.993200	3.185800	-9.534800	27.259491	0.000318	20.785575
2348.641873	-2.976100	3.187700	-9.485300	27.238359	0.000317	20.785182
2349.645229	-3.026800	3.183000	-9.632900	27.265724	0.000315	20.772405
2350.646541	-2.978700	3.187300	-9.493500	27.248632	0.000316	20.766592
2351.624539	-3.007700	3.184400	-9.577300	27.260043	0.000316	20.795140
2352.623850	-3.000900	3.183600	-9.553000	27.288700	0.000313	20.780343
2353.633296	-2.974600	3.184200	-9.470500	27.326409	0.000314	20.761376
2354.623817	-2.996000	3.182700	-9.532500	27.332065	0.000313	20.771333
2355.625733	-2.990200	3.182400	-9.515400	27.362954	0.000314	20.776802
2356.624755	-3.007800	3.181100	-9.567000	27.373868	0.000311	20.770712
2357.647764	-2.984500	3.181800	-9.495800	27.394167	0.000311	20.783546
2358.644781	-3.011500	3.182900	-9.584600	27.409494	0.000311	20.763403
2359.650914	-3.009100	3.178800	-9.564100	27.410607	0.000310	20.768791
2360.651378	-2.972200	3.180200	-9.451600	27.407965	0.000310	20.774193
2361.645095	-2.992800	3.179600	-9.515000	27.377939	0.000307	20.771962
2362.625798	-3.009700	3.177800	-9.563200	27.415799	0.000308	20.773540
2363.624673	-2.999600	3.178400	-9.532800	27.421399	0.000309	20.757361
2364.648082	-2.998100	3.179600	-9.532200	27.422502	0.000308	20.759895
2365.627329	-3.000000	3.177000	-9.530000	27.409582	0.000308	20.772500
2366.646245	-3.012300	3.176600	-9.567900	27.419025	0.000309	20.772518
2367.648607	-2.980700	3.177500	-9.469800	27.438625	0.000309	20.763312
2368.645944	-2.993900	3.176800	-9.509800	27.458825	0.000308	20.787902
2369.660863	-3.031700	3.174400	-9.622700	27.438803	0.000305	20.758750
2370.650617	-2.975700	3.175600	-9.448300	27.422827	0.000306	20.760221
2371.631133	-2.982200	3.174000	-9.464500	27.418195	0.000306	20.761251
2372.629906	-3.004000	3.173700	-9.532600	27.424444	0.000305	20.776547
2373.635671	-2.994400	3.172600	-9.498600	27.435609	0.000304	20.760752
2374.634881	-2.982800	3.173200	-9.463900	27.445303	0.000307	20.770980
2375.634546	-2.963700	3.172700	-9.402000	27.388802	0.000304	20.762975
2376.634617	-3.006300	3.170600	-9.530900	27.378831	0.000304	20.765747
2377.631877	-3.020200	3.170600	-9.574600	27.380122	0.000303	20.776530
2378.633286	-2.998000	3.171500	-9.506700	27.378091	0.000302	20.757416
2379.633511	-2.990000	3.169300	-9.474400	27.434317	0.000302	20.756133
2380.635141	-2.991500	3.168900	-9.478700	27.423680	0.000301	20.777200
2381.650771	-2.986500	3.170100	-9.467000	27.464861	0.000301	20.750352
2382.654342	-2.988200	3.168500	-9.467000	27.499119	0.000299	20.753998
2383.652832	-2.991300	3.167200	-9.472100	27.501653	0.000300	20.780257
2384.651514	-3.016700	3.165300	-9.547600	27.521049	0.000300	20.754725
2385.660918	-2.997300	3.165600	-9.487400	27.490587	0.000298	20.762958
2386.656811	-2.990900	3.165400	-9.466000	27.498281	0.000299	20.769277
2387.652889	-3.000100	3.163800	-9.490300	27.496648	0.000299	20.756728
2388.656137	-2.997200	3.164800	-9.484900	27.518741	0.000299	20.760465
2389.662811	-3.002700	3.162900	-9.495900	27.508925	0.000297	20.759123
2390.666187	-3.008000	3.164000	-9.515600	27.510405	0.000298	20.756819
2391.655694	-3.004700	3.161800	-9.499400	27.503563	0.000296	20.766056
2392.657133	-3.006600	3.161600	-9.503400	27.467445	0.000297	20.750581
2393.639575	-3.018800	3.161600	-9.542900	27.441157	0.000296	20.754006
2394.656258	-3.023800	3.160000	-9.554100	27.470451	0.000295	20.728948
2395.662919	-3.006200	3.159900	-9.498300	27.478040	0.000294	20.769776
2396.655975	-2.992200	3.160400	-9.455300	27.458644	0.000293	20.760693
2397.660762	-3.019300	3.158700	-9.536200	27.488929	0.000293	20.757971
2398.640689	-3.001700	3.158300	-9.479000	27.493844	0.000292	20.755330
2399.640443	-3.022100	3.155500	-9.535800	27.512249	0.000295	20.745871
2400.639940	-3.000000	3.157000	-9.469800	27.533829	0.000294	20.745773
2401.641958	-3.007000	3.156900	-9.491500	27.537502	0.000293	20.726707
2402.641267	-2.987400	3.154700	-9.422400	27.572455	0.000292	20.744807
2403.644875	-2.999400	3.153400	-9.457400	27.576787	0.000294	20.744898
2404.661120	-2.991800	3.153800	-9.434200	27.632424	0.000292	20.733550
2405.641723	-2.999200	3.152400	-9.453500	27.618312	0.000291	20.753964
2406.662961	-3.002200	3.151700	-9.461100	27.644627	0.000291	20.737294
2407.668201	-2.999000	3.150800	-9.448000	27.652515	0.000288	20.740965
2408.662757	-2.995100	3.151700	-9.438600	27.656163	0.000288	20.717133
2409.644581	-2.983200	3.151400	-9.399600	27.621261	0.000288	20.736542
2410.660394	-3.008000	3.150400	-9.475900	27.603183	0.000289	20.720248
2411.643868	-2.980100	3.150700	-9.387000	27.632204	0.000289	20.733803
2412.649241	-3.018400	3.148400	-9.501700	27.633293	0.000288	20.749124
2413.646261	-3.003400	3.147600	-9.451900	27.611121	0.000287	20.723020
2414.647278	-3.015400	3.149400	-9.494500	27.604255	0.000286	20.745036
2415.670236	-3.029300	3.145800	-9.528300	27.561778	0.000288	20.733115
2416.662581	-3.026000	3.146800	-9.520400	27.505226	0.000287	20.727899
2417.646916	-2.999600	3.144100	-9.430000	27.483393	0.000288	20.744341
2418.644677	-3.037600	3.142900	-9.545400	27.442593	0.000287	20.730319
2419.664060	-3.004900	3.143700	-9.444500	27.423895	0.000286	20.724784
2420.665286	-2.988400	3.142700	-9.391000	27.416996	0.000285	20.736336
2421.668055	-3.020500	3.143400	-9.493800	27.388172	0.000286	20.727727
2422.665814	-3.002100	3.142000	-9.431300	27.347466	0.000285	20.738935
2423.662509	-3.025300	3.140200	-9.498700	27.326360	0.000284	20.730506
2424.645949	-3.014400	3.138700	-9.460500	27.303239	0.000284	20.740913
2425.663809	-2.991300	3.138800	-9.388000	27.326084	0.000282	20.729280
2426.661825	-3.004200	3.137000	-9.422700	27.323483	0.000283	20.732828
2427.671315	-3.011500	3.138700	-9.451000	27.352033	0.000282	20.743056
2428.669971	-3.017700	3.137100	-9.465900	27.353161	0.000285	20.727595
2429.664286	-3.002300	3.135900	-9.413700	27.377769	0.000282	20.722477
2430.661866	-3.014200	3.134800	-9.447700	27.426437	0.000280	20.742041
2431.663522	-3.011200	3.133000	-9.433200	27.480986	0.000280	20.749031
2432.660689	-3.001300	3.134500	-9.406100	27.540439	0.000281	20.732508
2433.667562	-2.986000	3.134400	-9.357900	27.577847	0.000281	20.736481
2434.669570	-3.002400	3.131900	-9.402600	27.643753	0.000280	20.726457
2435.672413	-2.994500	3.133000	-9.380700	27.662099	0.000280	20.732115
2436.674160	-2.998100	3.130600	-9.384500	27.673180	0.000278	20.712919
2437.662283	-2.997100	3.130500	-9.381500	27.678915	0.000280	20.732442
2438.668293	-2.988200	3.130600	-9.352800	27.706992	0.000278	20.714227
2439.666041	-2.985000	3.128500	-9.338000	27.721525	0.000279	20.707514
2440.667662	-3.010400	3.128200	-9.416200	27.639366	0.000277	20.720145
2441.671108	-3.029500	3.126900	-9.471200	27.589262	0.000275	20.717145
2442.649066	-2.978800	3.127000	-9.313400	27.518581	0.000278	20.693443
2443.650409	-2.996000	3.126700	-9.366600	27.465878	0.000278	20.718657
2444.669466	-3.019900	3.125200	-9.436500	27.402869	0.000276	20.724020
2445.649760	-3.005800	3.125000	-9.391800	27.365089	0.000279	20.709721
2446.652594	-2.997100	3.125100	-9.365100	27.285130	0.000276	20.724592
2447.650646	-3.007200	3.123700	-9.392900	27.286502	0.000277	20.724077
2448.651458	-2.990000	3.122900	-9.336300	27.301391	0.000275	20.720561
2449.652997	-2.999000	3.122300	-9.361800	27.319945	0.000274	20.712197
2450.654452	-3.006000	3.120900	-9.380600	27.352444	0.000275	20.709802
2451.679837	-3.029000	3.117500	-9.441800	27.405997	0.000276	20.712942
2452.669267	-3.009000	3.118500	-9.382000	27.453258	0.000274	20.719237
2453.670986	-3.012600	3.117900	-9.392000	27.485721	0.000273	20.697367
2454.654191	-2.959600	3.118600	-9.228600	27.538811	0.000272	20.693883
2455.656409	-2.994400	3.117700	-9.334200	27.556516	0.000272	20.697473
2456.654477	-2.964400	3.116200	-9.236700	27.557954	0.000272	20.713620
2457.654366	-2.982900	3.115000	-9.289300	27.509934	0.000273	20.686166
2458.678312	-2.987500	3.115100	-9.305300	27.495527	0.000271	20.702493
2459.653920	-3.000500	3.113100	-9.339400	27.519018	0.000272	20.700048
2460.672217	-2.999000	3.113500	-9.334900	27.498363	0.000272	20.699181
2461.654080	-3.012000	3.111600	-9.371900	27.478188	0.000274	20.710652
2462.654440	-3.015900	3.110400	-9.379200	27.506692	0.000274	20.701397
2463.655150	-2.985600	3.110700	-9.286400	27.533903	0.000270	20.704119
2464.654390	-3.013000	3.108600	-9.365000	27.570239	0.000273	20.691839
2465.658891	-2.991400	3.109000	-9.299300	27.545018	0.000270	20.712932
2466.654239	-3.016400	3.107300	-9.372600	27.495689	0.000270	20.700758
2467.656072	-3.028200	3.106100	-9.404600	27.491447	0.000269	20.722097
2468.673995	-2.982400	3.107000	-9.265000	27.513426	0.000270	20.685886
2469.657651	-3.014800	3.103800	-9.356400	27.563900	0.000270	20.712964
2470.677962	-3.014100	3.104100	-9.354800	27.626802	0.000269	20.693751
2471.679110	-2.989800	3.104400	-9.280700	27.613234	0.000268	20.687685
2472.674066	-2.995100	3.102100	-9.289200	27.629588	0.000269	20.716945
2473.674123	-3.015100	3.100700	-9.348100	27.688237	0.000269	20.696301
2474.656425	-3.014500	3.099100	-9.341100	27.701194	0.000267	20.686105
2475.658754	-3.002500	3.099600	-9.305800	27.684768	0.000267	20.693758
2476.681392	-2.993600	3.099300	-9.277400	27.644196	0.000268	20.697029
2477.662095	-2.996600	3.098100	-9.283100	27.613654	0.000269	20.686211
2478.656923	-2.986400	3.097000	-9.248700	27.642960	0.000265	20.705269
2479.660027	-2.988900	3.097000	-9.256000	27.659736	0.000269	20.709348
2480.677848	-2.997800	3.094700	-9.275900	27.646940	0.000269	20.710697
2481.662037	-3.004500	3.093500	-9.293000	27.673394	0.000269	20.689899
2482.658990	-2.978500	3.093800	-9.213400	27.695345	0.000267	20.710567
2483.660275	-3.008200	3.092200	-9.301000	27.678706	0.000267	20.677700
2484.660198	-2.971600	3.092700	-9.188400	27.635785	0.000268	20.670545
2485.681198	-3.001500	3.090000	-9.272900	27.643771	0.000268	20.682850
2486.662914	-2.983600	3.090400	-9.218700	27.624109	0.000266	20.704793
2487.659822	-2.989600	3.088700	-9.232700	27.655527	0.000266	20.689464
2488.684435	-2.987900	3.088800	-9.226800	27.662424	0.000269	20.689766
2489.677698	-2.970300	3.088000	-9.171800	27.688536	0.000267	20.693756
2490.681793	-2.995800	3.085600	-9.243000	27.723233	0.000266	20.693584
2491.677853	-2.989400	3.085200	-9.221800	27.749562	0.000265	20.695899
2492.682685	-3.021600	3.083900	-9.315400	27.790243	0.000267	20.689897
2493.669058	-3.000000	3.082200	-9.246100	27.784272	0.000265	20.683887
2494.661131	-2.997800	3.082200	-9.238200	27.741455	0.000266	20.672091
2495.681827	-3.007500	3.081400	-9.265700	27.712127	0.000266	20.678614
2496.685677	-2.992100	3.079100	-9.212400	27.701956	0.000266	20.677862
2497.664514	-2.970700	3.079400	-9.146900	27.708399	0.000266	20.669646
2498.679753	-2.980600	3.078000	-9.173100	27.693677	0.000265	20.675221
2499.665191	-2.998400	3.077500	-9.225800	27.709673	0.000264	20.693216
2500.692789	-3.003900	3.077000	-9.241900	27.771194	0.000263	20.674518
2501.664362	-3.030000	3.074200	-9.313800	27.764330	0.000264	20.669506
2502.681753	-3.004000	3.074500	-9.234400	27.758131	0.000264	20.677019
2503.665746	-2.996100	3.072900	-9.205900	27.776507	0.000264	20.685081
2504.667348	-2.979900	3.072800	-9.155200	27.800657	0.000264	20.671452
2505.665762	-3.013500	3.069900	-9.249300	27.823524	0.000263	20.685457
2506.665280	-3.009200	3.070100	-9.237300	27.825376	0.000265	20.704393
2507.684246	-2.968300	3.072200	-9.117500	27.832849	0.000263	20.696739
2508.683053	-3.004500	3.068700	-9.218700	27.872772	0.000262	20.697091
2509.696366	-2.989600	3.068600	-9.172800	27.882219	0.000264	20.659179
2510.692137	-3.001500	3.065700	-9.199300	27.868451	0.000262	20.673774
2511.674702	-3.000400	3.063500	-9.189900	27.899398	0.000264	20.685956
2512.671305	-2.995200	3.063400	-9.175000	27.856356	0.000262	20.691000
2513.667199	-2.964100	3.063200	-9.078600	27.830119	0.000262	20.668386
2514.671348	-2.995500	3.062300	-9.172000	27.813459	0.000262	20.680069
2515.678435	-2.971800	3.062100	-9.099700	27.822508	0.000263	20.662147
2516.690434	-2.997600	3.060100	-9.171000	27.855162	0.000263	20.695963
2517.686518	-2.999400	3.059000	-9.172700	27.903289	0.000261	20.683707
2518.670754	-2.992400	3.057700	-9.149300	27.908893	0.000262	20.663268
2519.684472	-2.990100	3.056400	-9.136500	27.955109	0.000261	20.673749
2520.685616	-2.995600	3.056300	-9.154200	27.927810	0.000262	20.704122
2521.670007	-3.018300	3.054400	-9.218400	27.945509	0.000262	20.687322
2522.670357	-3.040400	3.050600	-9.274400	27.925779	0.000262	20.686430
2523.699235	-3.001400	3.052600	-9.161100	27.913336	0.000261	20.681491
2524.690238	-3.005600	3.050400	-9.167800	27.874373	0.000259	20.684476
2525.697490	-2.988300	3.050200	-9.114200	27.810178	0.000259	20.694786
2526.693283	-3.002700	3.048900	-9.154000	27.771243	0.000258	20.684526
2527.695052	-3.012300	3.046900	-9.177500	27.760106	0.000259	20.675213
2528.695228	-2.995300	3.045100	-9.119800	27.758043	0.000258	20.694950
2529.692122	-3.023000	3.044700	-9.202500	27.780090	0.000258	20.686317
2530.696750	-2.977900	3.045500	-9.068400	27.861467	0.000260	20.684764
2531.673138	-2.985100	3.043600	-9.084600	27.877314	0.000258	20.675582
2532.697486	-3.009700	3.041500	-9.152500	27.886517	0.000260	20.682948
2533.672974	-2.975200	3.041200	-9.047200	27.864116	0.000259	20.691697
2534.675169	-2.978700	3.040800	-9.056000	27.862954	0.000258	20.688157
2535.673563	-2.988700	3.038300	-9.078800	27.859722	0.000261	20.691542
2536.678743	-2.993200	3.036400	-9.087900	27.892082	0.000258	20.686179
2537.673779	-3.009200	3.035100	-9.132100	27.876316	0.000259	20.688803
2538.676787	-2.985000	3.035700	-9.061000	27.883895	0.000261	20.696906
2539.678238	-3.013300	3.033600	-9.140200	27.857879	0.000260	20.692532
2540.678053	-2.998800	3.032100	-9.091600	27.837969	0.000259	20.697151
2541.696038	-2.993700	3.031900	-9.076000	27.852452	0.000259	20.696554
2542.692530	-2.994600	3.030500	-9.073500	27.849723	0.000259	20.697601
2543.698639	-3.013400	3.028300	-9.124000	27.799483	0.000259	20.692083
2544.713861	-2.992100	3.028200	-9.059700	27.765608	0.000260	20.689761
2545.708421	-2.995100	3.027100	-9.065300	27.737209	0.000259	20.701485
2546.697208	-3.008000	3.024700	-9.097300	27.747006	0.000259	20.702336
2547.675225	-2.983900	3.025700	-9.027200	27.709036	0.000260	20.686884
2548.694539	-3.029200	3.023300	-9.156400	27.749037	0.000264	20.691576
2549.681310	-2.976500	3.022100	-8.994800	27.781523	0.000259	20.686336
2550.696993	-3.020300	3.021200	-9.124100	27.833422	0.000260	20.707748
2551.696142	-2.991600	3.019900	-9.033500	27.862185	0.000259	20.687857
2552.691828	-3.005900	3.018900	-9.072900	27.865084	0.000259	20.695992
2553.703423	-3.000900	3.017200	-9.052900	27.874409	0.000261	20.695419
2554.691281	-2.980600	3.016500	-8.988800	27.922852	0.000260	20.685854
2555.699142	-3.016200	3.014800	-9.091400	27.926897	0.000258	20.707945
2556.697728	-3.030300	3.014100	-9.132800	27.955130	0.000258	20.681358
2557.697571	-3.005000	3.012200	-9.051200	27.988381	0.000259	20.694913
2558.698276	-3.004100	3.011500	-9.046100	27.980048	0.000259	20.698854
2559.694705	-2.986300	3.010100	-8.987900	27.964129	0.000258	20.709384
2560.676222	-3.000500	3.008700	-9.026100	27.974939	0.000258	20.709360
2561.682707	-2.999300	3.007500	-9.019800	27.949574	0.000258	20.724607
2562.693663	-3.004000	3.006300	-9.029700	27.929521	0.000256	20.691618
2563.695199	-3.003900	3.006500	-9.029900	27.925427	0.000258	20.703620
2564.689998	-2.949400	3.005200	-8.862400	27.935320	0.000259	20.717846
2565.694185	-3.027900	3.000900	-9.085300	27.884458	0.000257	20.696999
2566.701557	-2.992900	3.000500	-8.979500	27.795716	0.000258	20.697301
2567.697643	-2.979200	2.999600	-8.933900	27.768218	0.000258	20.701871
2568.698722	-2.966300	2.998900	-8.894300	27.772905	0.000256	20.708011
2569.697863	-3.007400	2.997700	-9.013100	27.756512	0.000258	20.722335
2570.679757	-2.982600	2.996800	-8.937600	27.807567	0.000258	20.708281
2571.682971	-2.991900	2.996000	-8.962600	27.841213	0.000258	20.712745
2572.684557	-3.007900	2.994000	-9.003800	27.878781	0.000257	20.702665
2573.680727	-2.987800	2.992600	-8.939800	27.877741	0.000257	20.705886
2574.679688	-3.029700	2.989600	-9.056500	27.889194	0.000259	20.701291
2575.680869	-2.987900	2.989900	-8.933000	27.881534	0.000259	20.708281
2576.688574	-2.992000	2.988800	-8.941900	27.874890	0.000258	20.698274
2577.683189	-3.027200	2.985900	-9.037300	27.889194	0.000260	20.714094
2578.701133	-3.010400	2.985900	-8.987900	27.879901	0.000256	20.707112
2579.682626	-2.999200	2.984200	-8.949300	27.835120	0.000258	20.699974
2580.701225	-3.000600	2.982700	-8.949200	27.848060	0.000258	20.724853
2581.682616	-2.981800	2.981700	-8.888900	27.824487	0.000255	20.722465
2582.686939	-2.965100	2.981900	-8.840100	27.819768	0.000257	20.707284
2583.682826	-3.005000	2.978600	-8.949300	27.854454	0.000258	20.730813
2584.683237	-3.036100	2.976000	-9.034500	27.868643	0.000259	20.719490
2585.702773	-3.010000	2.975600	-8.955600	27.936108	0.000257	20.714846
2586.699732	-3.015300	2.973000	-8.963200	27.989413	0.000256	20.712075
2587.704515	-2.977400	2.973400	-8.852800	27.945091	0.000258	20.734794
2588.685937	-2.997300	2.970800	-8.903200	27.905016	0.000257	20.718165
2589.700501	-3.012200	2.969200	-8.942500	27.903205	0.000258	20.730094
2590.688994	-3.002700	2.969500	-8.915200	27.921334	0.000258	20.699974
2591.684800	-3.020900	2.967700	-8.963100	27.885872	0.000257	20.728769
2592.705554	-3.009500	2.965100	-8.922600	27.874419	0.000257	20.719138
2593.706609	-3.011700	2.964000	-8.925700	27.843300	0.000258	20.727175
2594.703415	-2.993300	2.962900	-8.867700	27.864711	0.000257	20.703677
2595.711050	-3.004000	2.961600	-8.896100	27.908370	0.000255	20.705893
2596.711314	-3.003700	2.960700	-8.892100	27.947976	0.000255	20.727740
2597.705592	-3.023000	2.958500	-8.942800	27.972730	0.000258	20.730371
2598.710686	-3.012000	2.958800	-8.910600	27.999386	0.000256	20.715949
2599.715509	-2.972800	2.957500	-8.791300	28.033099	0.000257	20.720013
2600.710946	-2.976700	2.955400	-8.796600	28.054400	0.000256	20.726283
2601.710597	-2.987700	2.952900	-8.820900	28.111491	0.000257	20.720691
2602.712041	-2.985100	2.951300	-8.809300	28.100138	0.000256	20.724435
2603.706239	-2.995000	2.950900	-8.836900	28.073988	0.000258	20.722767
2604.711183	-2.992100	2.947700	-8.819500	28.059509	0.000256	20.707716
2605.707630	-3.016300	2.947100	-8.888300	28.058445	0.000256	20.726087
2606.715709	-2.997700	2.945500	-8.828400	27.985652	0.000257	20.695960
2607.705017	-2.983800	2.943800	-8.782400	27.970365	0.000258	20.735103
2608.703475	-2.998600	2.941900	-8.819700	27.938625	0.000257	20.728286
2609.711655	-2.977800	2.941000	-8.756900	27.920870	0.000257	20.728433
2610.704805	-2.992800	2.939000	-8.795000	27.966021	0.000257	20.730256
2611.710123	-2.995400	2.938600	-8.800900	27.975718	0.000256	20.728163
2612.713671	-3.018400	2.935600	-8.860100	28.009390	0.000256	20.717485
2613.689531	-3.023700	2.935200	-8.874700	27.960287	0.000256	20.723536
2614.706788	-3.015600	2.932200	-8.840500	27.958889	0.000256	20.714067
2615.690721	-3.038100	2.930900	-8.903800	27.982662	0.000255	20.727092
2616.692933	-3.003600	2.930900	-8.802200	28.014645	0.000257	20.740794
2617.689656	-3.008500	2.927600	-8.806300	28.054066	0.000255	20.758191
2618.707873	-3.016100	2.926300	-8.825000	28.129722	0.000255	20.734302
2619.714951	-2.988500	2.926100	-8.743000	28.183317	0.000258	20.745110
2620.709211	-2.972500	2.924200	-8.689900	28.215343	0.000257	20.732308
2621.707407	-2.981200	2.921600	-8.708800	28.222731	0.000257	20.747808
2622.709909	-3.010300	2.920300	-8.790300	28.227214	0.000255	20.754218
2623.711776	-3.036500	2.916400	-8.854700	28.265588	0.000253	20.738324
2624.708586	-3.011500	2.916300	-8.781700	28.254083	0.000256	20.755665
2625.694501	-2.996500	2.916600	-8.738100	28.264800	0.000257	20.730418
2626.693285	-2.993000	2.913100	-8.717600	28.266010	0.000257	20.747285
2627.697994	-2.998400	2.912800	-8.732800	28.261918	0.000255	20.752174
2628.719853	-3.002100	2.911500	-8.739600	28.281129	0.000255	20.742592
2629.710548	-2.998600	2.908900	-8.721500	28.291521	0.000256	20.743098
2630.714163	-3.022700	2.906200	-8.784300	28.313776	0.000254	20.730892
2631.719284	-2.972100	2.905900	-8.636200	28.304861	0.000255	20.738986
2632.713710	-3.002200	2.904600	-8.718200	28.299405	0.000255	20.724957
2633.720665	-2.988900	2.902600	-8.675100	28.290611	0.000256	20.767313
2634.696238	-3.012300	2.898600	-8.731000	28.267064	0.000258	20.739337
2635.695526	-3.008000	2.898900	-8.719300	28.246196	0.000258	20.719748
2636.721094	-3.003900	2.895700	-8.696300	28.265229	0.000256	20.722316
2637.716536	-3.016600	2.895500	-8.733800	28.278618	0.000256	20.753341
2638.714394	-3.008500	2.892300	-8.700500	28.304617	0.000256	20.759604
2639.697192	-3.006700	2.890400	-8.689400	28.346657	0.000257	20.719903
2640.701213	-2.995900	2.890200	-8.657600	28.315748	0.000257	20.738568
2641.705128	-3.011800	2.888200	-8.696800	28.298892	0.000256	20.754314
2642.698724	-3.024400	2.885400	-8.725700	28.296301	0.000256	20.745541
2643.700255	-2.974300	2.883800	-8.576600	28.302497	0.000257	20.760788
2644.699035	-3.006300	2.882000	-8.661900	28.287354	0.000257	20.746489
2645.721677	-3.019600	2.879000	-8.692600	28.296692	0.000256	20.770591
2646.717508	-2.994600	2.878300	-8.618200	28.291421	0.000254	20.751059
2647.720062	-3.021700	2.875000	-8.686800	28.314148	0.000258	20.744543
2648.718143	-2.996800	2.874300	-8.613500	28.279697	0.000256	20.740202
2649.717429	-2.978300	2.874200	-8.558100	28.221153	0.000254	20.747641
2650.717955	-3.009600	2.871700	-8.641900	28.238213	0.000257	20.760076
2651.716165	-2.995900	2.869400	-8.595100	28.245277	0.000256	20.761498
2652.702619	-2.990100	2.868300	-8.575400	28.266843	0.000257	20.764245
2653.700424	-2.975700	2.865000	-8.524300	28.316217	0.000255	20.756110
2654.701821	-3.019400	2.862000	-8.640200	28.355253	0.000255	20.752268
2655.715836	-3.030400	2.859700	-8.665000	28.411216	0.000256	20.763574
2656.703025	-2.985800	2.860400	-8.539000	28.464082	0.000255	20.764179
2657.703131	-2.990400	2.857500	-8.544200	28.479198	0.000255	20.755219
2658.701271	-2.985700	2.854700	-8.522800	28.465892	0.000256	20.749406
2659.721064	-3.006600	2.852200	-8.574500	28.441481	0.000255	20.755169
2660.702797	-2.986200	2.850700	-8.511600	28.362227	0.000257	20.778256
2661.734030	-3.001000	2.848400	-8.546700	28.290770	0.000254	20.767947
2662.705572	-3.037800	2.844500	-8.640100	28.299271	0.000255	20.749479
2663.702473	-2.969000	2.846200	-8.449400	28.313601	0.000255	20.776711
2664.724604	-3.000400	2.843200	-8.529900	28.342376	0.000255	20.750681
2665.705126	-3.039300	2.840500	-8.631900	28.355593	0.000255	20.757351
2666.728240	-3.013800	2.838800	-8.554500	28.349764	0.000255	20.766655
2667.727468	-3.000500	2.837700	-8.513300	28.348473	0.000255	20.783848
2668.725425	-2.979700	2.835200	-8.446800	28.379235	0.000256	20.769778
2669.722068	-3.003700	2.832000	-8.506200	28.361244	0.000256	20.773473
2670.722688	-3.014600	2.829100	-8.526900	28.352492	0.000255	20.771773
2671.707186	-2.981200	2.828000	-8.429800	28.296234	0.000256	20.767758
2672.711622	-2.996800	2.824900	-8.464900	28.246485	0.000256	20.784526
2673.709519	-3.009700	2.823100	-8.496000	28.211788	0.000254	20.787052
2674.729106	-2.971900	2.822000	-8.385200	28.221427	0.000255	20.774470
2675.712545	-3.015300	2.817700	-8.495200	28.241556	0.000255	20.771503
2676.708836	-3.004600	2.818900	-8.469100	28.312196	0.000257	20.753958
2677.709442	-2.975200	2.815500	-8.375400	28.380753	0.000256	20.763720
2678.717608	-3.005000	2.811400	-8.447800	28.426501	0.000256	20.777544
2679.710143	-2.992500	2.808400	-8.402800	28.466322	0.000257	20.775917
2680.709338	-2.990700	2.806700	-8.393300	28.513803	0.000257	20.793388
2681.710724	-2.992500	2.804100	-8.391300	28.508527	0.000255	20.773375
2682.734876	-3.008000	2.801900	-8.426900	28.528650	0.000256	20.787003
2683.736894	-3.000200	2.798400	-8.394600	28.571592	0.000256	20.776669
2684.740437	-2.996600	2.795800	-8.377300	28.568986	0.000256	20.790641
2685.734750	-3.004600	2.794500	-8.395200	28.572777	0.000256	20.773122
2686.735963	-3.003400	2.790700	-8.380400	28.574538	0.000254	20.785327
2687.737557	-2.997800	2.789800	-8.362100	28.592973	0.000255	20.785875
2688.729253	-3.014000	2.785900	-8.395600	28.615002	0.000253	20.794786
2689.716478	-3.009600	2.783300	-8.373600	28.618703	0.000253	20.780495
2690.713525	-3.022900	2.780500	-8.403700	28.654840	0.000256	20.787020
2691.733741	-3.003200	2.777700	-8.341200	28.663345	0.000255	20.788948
2692.736555	-3.014300	2.774500	-8.361600	28.668897	0.000255	20.789324
2693.737257	-2.988600	2.772300	-8.283700	28.628638	0.000256	20.793346
2694.742140	-3.022900	2.769400	-8.370700	28.557824	0.000256	20.795046
2695.732817	-3.011000	2.767300	-8.331600	28.516758	0.000253	20.787828
2696.731907	-3.031700	2.762100	-8.371800	28.503850	0.000252	20.787157
2697.734505	-2.991700	2.760900	-8.258800	28.514728	0.000254	20.775353
2698.735244	-2.987600	2.759900	-8.244200	28.528877	0.000254	20.794344
2699.746917	-3.029200	2.755200	-8.345300	28.560300	0.000254	20.785686
2700.739947	-2.974600	2.753400	-8.189500	28.590926	0.000253	20.801358
2701.720491	-2.999600	2.748900	-8.243700	28.612307	0.000254	20.796813
2702.735624	-2.980500	2.747700	-8.188600	28.640212	0.000252	20.802633
2703.744793	-3.025500	2.742300	-8.294500	28.670690	0.000255	20.801087
2704.739029	-2.983600	2.739500	-8.172500	28.648142	0.000252	20.807300
2705.739723	-2.999800	2.736900	-8.209700	28.632502	0.000254	20.805298
2706.738533	-3.005300	2.733000	-8.212900	28.593954	0.000255	20.814838
2707.739875	-2.981200	2.729500	-8.136300	28.600196	0.000255	20.808797
2708.746732	-2.973200	2.727700	-8.109300	28.640561	0.000255	20.799191
2709.738556	-2.989100	2.723600	-8.140200	28.665512	0.000254	20.828588
2710.745794	-2.996000	2.718600	-8.143900	28.711743	0.000253	20.793599
2711.738433	-2.973400	2.717600	-8.079700	28.723275	0.000254	20.826077
2712.740801	-3.017600	2.713600	-8.187300	28.716353	0.000255	20.815786
2713.740264	-2.986100	2.709000	-8.088300	28.724494	0.000255	20.809762
2714.728061	-3.016100	2.704700	-8.156600	28.747428	0.000253	20.832863
2715.725699	-3.017700	2.701500	-8.150800	28.777303	0.000255	20.803687
2716.726456	-2.996100	2.699900	-8.086800	28.766233	0.000254	20.819562
2717.724524	-3.012700	2.693400	-8.112800	28.732333	0.000255	20.813865
2718.727662	-3.018300	2.690400	-8.119300	28.752274	0.000255	20.812140
2719.725300	-3.000700	2.688100	-8.065000	28.777271	0.000255	20.834474
2720.747283	-2.993400	2.684000	-8.032700	28.816518	0.000253	20.820903
2721.728764	-2.981100	2.678800	-7.984700	28.788146	0.000253	20.815083
2722.726609	-2.977100	2.675500	-7.964900	28.761811	0.000253	20.815582
2723.726913	-3.005200	2.670900	-8.025400	28.720289	0.000253	20.817855
2724.727818	-2.973600	2.668100	-7.932600	28.639044	0.000255	20.816154
2725.728675	-2.985500	2.665100	-7.955200	28.645805	0.000254	20.804947
2726.727912	-2.995700	2.660000	-7.967600	28.649328	0.000255	20.823193
2727.730949	-3.015300	2.654100	-8.002200	28.673117	0.000256	20.822498
2728.729582	-2.994100	2.651500	-7.938100	28.656779	0.000254	20.817422
2729.729440	-3.002700	2.647000	-7.946700	28.616032	0.000254	20.844659
2730.748117	-2.997700	2.642700	-7.920600	28.603240	0.000256	20.825613
2731.746009	-2.998100	2.639100	-7.911200	28.643159	0.000254	20.840213
2732.751264	-3.006500	2.633100	-7.915600	28.683944	0.000257	20.845256
2733.754032	-3.030100	2.627900	-7.961500	28.712587	0.000254	20.845657
2734.752264	-3.006200	2.625100	-7.890400	28.772637	0.000256	20.811315
2735.754741	-2.983600	2.619400	-7.814700	28.799711	0.000255	20.835742
2736.748742	-2.985300	2.615400	-7.806500	28.769262	0.000254	20.836363
2737.758616	-3.003600	2.608800	-7.834100	28.726150	0.000255	20.834663
2738.735715	-3.000200	2.605600	-7.815800	28.701752	0.000256	20.848020
2739.736704	-2.989100	2.599800	-7.769700	28.660772	0.000258	20.836616
2740.736233	-2.997400	2.594600	-7.776500	28.679034	0.000256	20.836044
2741.737996	-2.974800	2.589900	-7.703600	28.665302	0.000257	20.845445
2742.738028	-2.959000	2.584400	-7.645800	28.668995	0.000255	20.829251
2743.738298	-3.027600	2.577700	-7.803100	28.628906	0.000255	20.823013
2744.753283	-3.034600	2.571700	-7.803500	28.597517	0.000256	20.829332
2745.755722	-3.020200	2.566500	-7.750200	28.587282	0.000257	20.829455
2746.754343	-3.020200	2.560800	-7.733200	28.570114	0.000257	20.842984
2747.756353	-3.024800	2.555500	-7.729400	28.557572	0.000256	20.841259
2748.762202	-3.012000	2.548300	-7.674700	28.574448	0.000256	20.828858
2749.755305	-3.017500	2.543200	-7.672900	28.633882	0.000256	20.836085
2750.758769	-3.025000	2.537800	-7.676000	28.691891	0.000257	20.848519
2751.765520	-2.991700	2.532800	-7.576000	28.758686	0.000257	20.848470
2752.757225	-2.982000	2.527400	-7.536200	28.728040	0.000255	20.846998
2753.738967	-3.005700	2.519400	-7.571800	28.685300	0.000256	20.839984
2754.742169	-3.015300	2.513400	-7.578100	28.697516	0.000257	20.842804
2755.740107	-2.980500	2.509000	-7.477400	28.736409	0.000254	20.827453
2756.739450	-3.000700	2.502100	-7.506800	28.849824	0.000256	20.841178
2757.739151	-2.997500	2.496700	-7.482500	28.891892	0.000256	20.858426
