LabVIEW Measurement	
Writer_Version	2
Reader_Version	2
Separator	Tab
Decimal_Separator	.
Multi_Headings	No
X_Columns	One
Time_Pref	Absolute
Operator	admin
Description	Clolumns are: time, Current, Voltage, Power, Battery Temp, and Chamber Temp
Date	2024/08/16
Time	13:06:06.104549407958984375
***End_of_Header***	
	
Channels	6						
Samples	1	1	1	1	1	1	
Date	2024/09/09	2024/09/09	2024/09/09	2024/09/09	2024/09/09	2024/09/09	
Time	07:49:00.9412455558776855469	07:49:00.9472432136535644532	07:49:00.9549264907836914063	07:49:00.9217839241027832032	07:49:00.9217839241027832032	07:49:00.9217839241027832032	
X_Dimension	Time	Time	Time	Time	Time	Time	
X0	0.0000000000000000E+0	0.0000000000000000E+0	0.0000000000000000E+0	0.0000000000000000E+0	0.0000000000000000E+0	0.0000000000000000E+0	
Delta_X	1.000000	1.000000	1.000000	1.000000	1.000000	1.000000	
***End_of_Header***							
X_Value	Untitled	Untitled 1	Untitled 2	Untitled 3	Untitled 4	Untitled 5	Comment
0.000000	0.025851	4.100100	0.106030	20.966655	0.000900	20.756616
0.997013	-3.000300	3.925600	-11.776000	20.969621	0.000900	20.743935
1.998147	-2.993600	3.918200	-11.729000	21.001700	0.000901	20.726707
2.996053	-2.986100	3.913100	-11.684000	20.971384	0.000897	20.749018
3.995442	-2.985900	3.908500	-11.669000	21.000668	0.000897	20.756496
4.999463	-2.995700	3.905600	-11.700000	20.999793	0.000897	20.731912
5.999022	-3.002400	3.903000	-11.717000	20.986665	0.000897	20.746758
6.998199	-2.980100	3.899400	-11.618000	20.990737	0.000895	20.753675
7.997187	-2.979200	3.897700	-11.610000	20.983346	0.000896	20.751974
8.997762	-2.997500	3.895000	-11.673000	21.000827	0.000894	20.755233
9.998997	-2.986900	3.895300	-11.634000	20.995163	0.000893	20.736764
11.001861	-2.983600	3.892700	-11.613000	21.001290	0.000894	20.756170
12.000928	-2.982500	3.891500	-11.606000	21.020981	0.000893	20.752631
13.007036	-2.985200	3.889900	-11.611000	21.018903	0.000893	20.752449
14.005430	-3.003900	3.887700	-11.678000	21.013737	0.000891	20.770042
15.003054	-3.019000	3.885400	-11.729000	21.043202	0.000889	20.760632
16.011235	-2.981800	3.887200	-11.590000	21.024459	0.000890	20.776025
17.005456	-2.985500	3.885200	-11.598000	21.033710	0.000888	20.763466
18.007505	-3.008400	3.882400	-11.679000	21.052915	0.000888	20.757545
19.006760	-3.010300	3.881900	-11.685000	21.026587	0.000887	20.752548
20.009428	-2.995000	3.881200	-11.624000	21.051688	0.000887	20.779551
21.009001	-2.996800	3.879500	-11.624000	21.038403	0.000884	20.764841
22.013767	-2.989700	3.881500	-11.604000	21.045126	0.000886	20.775833
23.012194	-2.987200	3.879500	-11.588000	21.067163	0.000884	20.751407
24.011868	-3.001200	3.877600	-11.635000	21.080533	0.000887	20.758617
25.009735	-3.009400	3.878600	-11.671000	21.084485	0.000886	20.763044
26.014178	-3.010200	3.875800	-11.666000	21.089371	0.000884	20.754180
27.010900	-2.993300	3.875500	-11.599000	21.091110	0.000884	20.755445
28.011723	-3.010600	3.874400	-11.662000	21.131329	0.000886	20.772917
29.011691	-2.999700	3.874100	-11.620000	21.111043	0.000886	20.759263
30.012772	-3.005900	3.873500	-11.641000	21.125022	0.000882	20.762340
31.012263	-3.019600	3.872100	-11.691000	21.122555	0.000883	20.778839
32.012357	-2.984700	3.872300	-11.556000	21.123175	0.000882	20.756225
33.010695	-3.014700	3.870600	-11.667000	21.148614	0.000882	20.769344
34.013116	-2.991100	3.872100	-11.581000	21.143035	0.000881	20.766134
35.011393	-2.985900	3.870600	-11.556000	21.144385	0.000883	20.767485
36.012790	-3.010800	3.869000	-11.647000	21.163467	0.000881	20.772348
37.014822	-2.994200	3.870700	-11.588000	21.159177	0.000881	20.771850
38.013829	-2.992700	3.868300	-11.576000	21.165789	0.000881	20.781309
39.012187	-3.003500	3.868800	-11.619000	21.175136	0.000880	20.782124
40.012432	-3.002000	3.868100	-11.611000	21.193925	0.000881	20.759668
41.013150	-3.003700	3.867800	-11.617000	21.199930	0.000879	20.774209
42.014457	-2.972900	3.867500	-11.497000	21.178101	0.000880	20.775133
43.012554	-3.002000	3.866300	-11.606000	21.195008	0.000879	20.778769
44.015888	-2.988900	3.867700	-11.559000	21.202483	0.000880	20.772496
45.015470	-3.006100	3.866700	-11.623000	21.211196	0.000881	20.779316
46.016406	-2.986300	3.866800	-11.546000	21.225611	0.000878	20.798952
47.019334	-2.988300	3.865800	-11.550000	21.244667	0.000881	20.772022
48.018386	-3.009300	3.865300	-11.631000	21.247013	0.000879	20.785274
49.019908	-2.984100	3.864500	-11.531000	21.266518	0.000880	20.773967
50.019846	-3.001500	3.864400	-11.598000	21.255604	0.000879	20.780119
51.016847	-2.976000	3.863800	-11.497000	21.274770	0.000878	20.777007
52.016484	-3.002400	3.862900	-11.597000	21.273519	0.000878	20.783816
53.018160	-3.007300	3.862400	-11.612000	21.278830	0.000879	20.796716
54.017919	-3.020300	3.861100	-11.661000	21.290229	0.000879	20.784886
55.021863	-3.011100	3.862400	-11.628000	21.292101	0.000878	20.773956
56.019695	-2.991900	3.861900	-11.553000	21.297303	0.000878	20.782006
57.020597	-2.999600	3.862900	-11.586000	21.305967	0.000878	20.805846
58.025789	-3.004700	3.859400	-11.596000	21.314438	0.000877	20.794881
59.020499	-3.007500	3.860200	-11.609000	21.333214	0.000876	20.790432
60.022325	-3.023400	3.859600	-11.668000	21.325485	0.000877	20.799294
61.019824	-3.014700	3.861400	-11.640000	21.339618	0.000874	20.787356
62.021153	-2.993400	3.860400	-11.556000	21.339970	0.000877	20.774432
63.020627	-2.999700	3.859600	-11.576000	21.356522	0.000878	20.798578
64.026972	-2.985800	3.858800	-11.521000	21.383086	0.000877	20.801448
65.023035	-2.982500	3.859500	-11.510000	21.375601	0.000877	20.780208
66.020037	-2.979300	3.859100	-11.496000	21.374458	0.000875	20.789022
67.020970	-3.016700	3.857000	-11.635000	21.393051	0.000876	20.779175
68.021611	-2.993800	3.858800	-11.552000	21.389672	0.000876	20.800925
69.024352	-3.007800	3.856600	-11.598000	21.412178	0.000877	20.813011
70.024745	-3.013000	3.856600	-11.619000	21.414341	0.000878	20.794313
71.024100	-2.976700	3.858800	-11.486000	21.409724	0.000875	20.785900
72.024029	-3.003100	3.856600	-11.580000	21.429530	0.000876	20.799553
73.021358	-3.000700	3.856300	-11.569000	21.442131	0.000877	20.803151
74.024949	-3.017100	3.855500	-11.630000	21.452569	0.000877	20.803638
75.024311	-2.981700	3.855800	-11.496000	21.450005	0.000875	20.795383
76.027591	-3.006700	3.856700	-11.595000	21.430917	0.000876	20.799991
77.026354	-3.014100	3.853800	-11.615000	21.471051	0.000875	20.817863
78.024603	-2.991900	3.855100	-11.533000	21.470966	0.000876	20.790752
79.029639	-2.984400	3.856000	-11.507000	21.474113	0.000878	20.814289
80.029349	-2.996800	3.853800	-11.547000	21.485632	0.000877	20.822021
81.026575	-3.014700	3.853800	-11.617000	21.480384	0.000878	20.822460
82.029882	-3.012500	3.853900	-11.609000	21.518183	0.000876	20.818082
83.029241	-3.004000	3.852800	-11.572000	21.528196	0.000876	20.823360
84.027826	-2.981700	3.854000	-11.491000	21.519945	0.000877	20.819846
85.032436	-2.994300	3.852800	-11.535000	21.533481	0.000877	20.795458
86.028570	-3.023500	3.851700	-11.645000	21.560308	0.000875	20.812345
87.032247	-3.007900	3.853900	-11.591000	21.526397	0.000878	20.812078
88.028437	-2.995700	3.853600	-11.543000	21.541403	0.000876	20.807653
89.029563	-2.999600	3.852200	-11.554000	21.544563	0.000875	20.810814
90.031528	-2.975000	3.853000	-11.461000	21.572179	0.000876	20.791981
91.028494	-2.984400	3.851600	-11.494000	21.579931	0.000876	20.804006
92.029911	-2.980100	3.852200	-11.479000	21.559569	0.000880	20.802122
93.030001	-2.990800	3.851500	-11.518000	21.570892	0.000877	20.806815
94.029360	-2.984800	3.851000	-11.493000	21.603538	0.000878	20.796809
95.030923	-2.992800	3.851000	-11.523000	21.593357	0.000879	20.818389
96.029764	-3.011900	3.850100	-11.596000	21.596736	0.000879	20.811813
97.031175	-2.997900	3.850700	-11.542000	21.613441	0.000878	20.803400
98.031574	-3.008900	3.850600	-11.585000	21.608205	0.000877	20.804798
99.034957	-2.985500	3.851100	-11.496000	21.616419	0.000878	20.795475
100.032918	-2.987200	3.851100	-11.502000	21.643656	0.000878	20.788593
101.032298	-3.000100	3.850400	-11.550000	21.628362	0.000877	20.788934
102.032177	-3.000300	3.848700	-11.546000	21.646816	0.000876	20.768521
103.034759	-3.012700	3.847900	-11.592000	21.640244	0.000879	20.807938
104.035689	-3.020500	3.847200	-11.619000	21.656960	0.000879	20.800010
105.034203	-3.004700	3.848800	-11.562000	21.676131	0.000879	20.801652
106.037300	-2.998400	3.848100	-11.537000	21.678513	0.000880	20.799294
107.033502	-3.001700	3.847400	-11.548000	21.686823	0.000880	20.783902
108.036459	-3.023600	3.847200	-11.632000	21.663777	0.000881	20.805884
109.033674	-3.011400	3.847700	-11.586000	21.731687	0.000877	20.786603
110.033207	-3.010300	3.846000	-11.576000	21.692315	0.000879	20.782286
111.035583	-2.980900	3.847300	-11.467000	21.699300	0.000880	20.787854
112.037097	-3.016300	3.846300	-11.600000	21.717669	0.000881	20.805289
113.036713	-3.018600	3.845600	-11.607000	21.715980	0.000880	20.797909
114.035695	-2.997600	3.845800	-11.527000	21.706869	0.000880	20.780731
115.035398	-3.004700	3.846600	-11.557000	21.737264	0.000880	20.789339
116.036772	-3.008800	3.846200	-11.572000	21.729843	0.000881	20.794240
117.040713	-3.015800	3.844500	-11.593000	21.741784	0.000880	20.788173
118.037475	-2.993200	3.847900	-11.515000	21.744736	0.000880	20.772160
119.043452	-3.010900	3.844700	-11.575000	21.741273	0.000881	20.781023
120.036326	-3.007400	3.845200	-11.562000	21.740886	0.000881	20.779213
121.037137	-2.998600	3.845500	-11.531000	21.731313	0.000884	20.779590
122.037503	-3.005500	3.844000	-11.553000	21.752778	0.000882	20.770252
123.038187	-2.991500	3.843600	-11.497000	21.767319	0.000882	20.795237
124.036435	-3.011000	3.844500	-11.575000	21.785722	0.000884	20.769085
125.038289	-2.991700	3.843500	-11.497000	21.760930	0.000882	20.764186
126.037859	-3.003400	3.842900	-11.540000	21.781702	0.000881	20.789243
127.038526	-2.984900	3.843800	-11.473000	21.789452	0.000886	20.780879
128.039967	-2.990800	3.843200	-11.494000	21.781277	0.000884	20.760842
129.038671	-2.998000	3.843300	-11.521000	21.806033	0.000885	20.775663
130.038561	-2.972600	3.844200	-11.426000	21.786561	0.000885	20.772295
131.037416	-2.976700	3.843300	-11.439000	21.806580	0.000885	20.752028
132.037082	-3.019600	3.841200	-11.598000	21.813006	0.000884	20.755615
133.039955	-3.008300	3.841400	-11.555000	21.826793	0.000884	20.769415
134.039310	-2.992700	3.843100	-11.500000	21.837215	0.000886	20.769889
135.040808	-2.981400	3.841800	-11.452000	21.845269	0.000886	20.776527
136.038593	-2.982400	3.842500	-11.458000	21.848135	0.000886	20.775129
137.039809	-2.995800	3.841400	-11.507000	21.865433	0.000886	20.777744
138.041208	-2.984400	3.840700	-11.461000	21.861995	0.000887	20.757233
139.043654	-2.992800	3.842500	-11.499000	21.865189	0.000886	20.756637
140.040595	-2.990000	3.841300	-11.484000	21.869452	0.000887	20.775129
141.042695	-3.020300	3.840200	-11.597000	21.868056	0.000887	20.741962
142.044367	-2.997900	3.840400	-11.511000	21.871166	0.000885	20.754084
143.044346	-2.993700	3.841500	-11.499000	21.858424	0.000888	20.765513
144.047050	-3.002300	3.840800	-11.529000	21.896978	0.000888	20.776602
145.044535	-2.988300	3.841500	-11.478000	21.908117	0.000889	20.768785
146.048808	-2.988400	3.839700	-11.473000	21.895023	0.000888	20.759947
147.045690	-2.990700	3.840800	-11.484000	21.883362	0.000890	20.763922
148.046836	-2.979900	3.839000	-11.438000	21.921174	0.000891	20.769053
149.051783	-2.986800	3.841600	-11.473000	21.928693	0.000890	20.766622
150.046768	-2.996000	3.838600	-11.500000	21.942395	0.000890	20.762793
151.047977	-2.995900	3.838600	-11.500000	21.950824	0.000891	20.752738
152.047741	-3.004000	3.838500	-11.530000	21.947884	0.000891	20.743632
153.046307	-2.990900	3.838300	-11.478000	21.988633	0.000891	20.749809
154.051452	-3.017000	3.837000	-11.575000	21.959934	0.000891	20.759962
155.047932	-2.973300	3.839000	-11.413000	21.978542	0.000891	20.763890
156.049884	-3.000300	3.838200	-11.513000	21.984578	0.000892	20.749543
157.049124	-2.994200	3.837000	-11.488000	21.997028	0.000893	20.762481
158.048547	-3.003000	3.836900	-11.521000	22.005299	0.000894	20.741362
159.051796	-3.003300	3.836900	-11.522000	22.033377	0.000894	20.756669
160.053223	-2.984600	3.836600	-11.450000	22.036622	0.000895	20.747114
161.049951	-3.021800	3.834700	-11.587000	22.041721	0.000894	20.730407
162.051282	-2.993400	3.835500	-11.481000	22.019000	0.000895	20.737059
163.055573	-3.007200	3.835500	-11.534000	22.037837	0.000893	20.753072
164.053935	-2.988100	3.836000	-11.461000	22.044006	0.000895	20.745023
165.057184	-3.017600	3.835000	-11.571000	22.041274	0.000894	20.740866
166.054131	-3.001400	3.835400	-11.510000	22.044517	0.000897	20.757863
167.058000	-2.988400	3.835700	-11.461000	22.043193	0.000895	20.738045
168.054489	-2.963500	3.836300	-11.368000	22.038129	0.000896	20.755736
169.055693	-3.003400	3.833200	-11.512000	22.056674	0.000897	20.767663
170.058554	-2.992900	3.834000	-11.473000	22.061070	0.000898	20.733656
171.055870	-2.996900	3.834400	-11.490000	22.062915	0.000897	20.746410
172.055095	-3.001700	3.832800	-11.504000	22.069340	0.000899	20.758058
173.057769	-2.998800	3.833100	-11.494000	22.062988	0.000897	20.743164
174.058298	-3.007800	3.832600	-11.527000	22.074878	0.000898	20.726142
175.058487	-2.998600	3.833800	-11.494000	22.078036	0.000900	20.734520
176.063715	-3.003900	3.831700	-11.509000	22.072826	0.000900	20.732623
177.057467	-2.987500	3.832200	-11.447000	22.081192	0.000899	20.723928
178.058414	-2.979500	3.833700	-11.420000	22.094892	0.000901	20.748076
179.058690	-2.998300	3.832800	-11.490000	22.093677	0.000901	20.753972
180.060734	-2.997200	3.832900	-11.487000	22.115997	0.000904	20.747394
181.065038	-3.005400	3.831100	-11.513000	22.134310	0.000905	20.718785
182.058695	-2.984300	3.831100	-11.432000	22.152247	0.000903	20.755711
183.068646	-2.988200	3.832400	-11.451000	22.137406	0.000905	20.728524
184.059697	-3.009900	3.830800	-11.529000	22.137043	0.000903	20.727212
185.062340	-2.998500	3.831100	-11.487000	22.150631	0.000904	20.752671
186.060084	-2.999800	3.830500	-11.490000	22.152307	0.000905	20.728743
187.070991	-2.991500	3.830700	-11.457000	22.169210	0.000905	20.732390
188.061095	-3.005900	3.830500	-11.512000	22.173120	0.000905	20.729193
189.064482	-2.984500	3.831600	-11.434000	22.187983	0.000905	20.745023
190.060057	-2.989000	3.830500	-11.449000	22.197357	0.000906	20.721690
191.061802	-2.967300	3.831000	-11.366000	22.214468	0.000906	20.732184
192.063256	-3.013200	3.830000	-11.540000	22.236190	0.000907	20.726432
193.059535	-3.021500	3.828800	-11.568000	22.227568	0.000909	20.747199
194.064855	-2.978400	3.830000	-11.406000	22.222202	0.000908	20.729022
195.060698	-2.990500	3.828800	-11.448000	22.218340	0.000908	20.711405
196.062378	-2.990300	3.828100	-11.445000	22.231248	0.000908	20.724804
197.066577	-2.995700	3.827800	-11.466000	22.227993	0.000907	20.712535
198.062180	-2.993600	3.827600	-11.457000	22.226986	0.000910	20.718639
199.069881	-3.008500	3.827500	-11.514000	22.247216	0.000910	20.702858
200.062782	-3.000100	3.827900	-11.483000	22.228710	0.000910	20.711356
201.064221	-2.984500	3.829100	-11.427000	22.266400	0.000912	20.716851
202.067166	-3.004400	3.826600	-11.495000	22.262552	0.000910	20.731965
203.067775	-3.017400	3.826800	-11.547000	22.266024	0.000911	20.717423
204.061787	-3.006500	3.827900	-11.507000	22.290502	0.000912	20.702102
205.064169	-2.980900	3.826500	-11.405000	22.278980	0.000913	20.716171
206.065525	-2.998200	3.826700	-11.472000	22.282841	0.000914	20.727150
207.067433	-2.990200	3.826400	-11.440000	22.300483	0.000914	20.703563
208.070771	-3.003400	3.826100	-11.491000	22.299694	0.000914	20.700401
209.066932	-2.981900	3.828100	-11.414000	22.285561	0.000916	20.739831
210.064046	-3.005800	3.825400	-11.497000	22.302159	0.000916	20.712353
211.067548	-3.003200	3.825600	-11.488000	22.295772	0.000917	20.717813
212.069893	-3.004400	3.825500	-11.493000	22.315079	0.000916	20.712488
213.064249	-2.995500	3.824300	-11.455000	22.309443	0.000916	20.717751
214.065622	-2.996000	3.824500	-11.455000	22.338025	0.000916	20.702273
215.064259	-3.005500	3.823100	-11.489000	22.315734	0.000917	20.709350
216.065883	-3.001600	3.823900	-11.476000	22.354914	0.000918	20.698796
217.064139	-3.001000	3.823600	-11.474000	22.343344	0.000919	20.731783
218.065788	-3.015400	3.822600	-11.525000	22.343041	0.000920	20.715357
219.067646	-2.998900	3.823800	-11.466000	22.335270	0.000919	20.681969
220.065386	-3.006600	3.821500	-11.488000	22.344023	0.000919	20.705909
221.065193	-3.014600	3.821600	-11.520000	22.360851	0.000920	20.723235
222.070138	-3.003300	3.822600	-11.480000	22.378249	0.000920	20.698929
223.063828	-3.008000	3.821600	-11.494000	22.393595	0.000921	20.710031
224.069156	-2.995100	3.822700	-11.448000	22.400516	0.000920	20.689459
225.064900	-3.002200	3.822900	-11.477000	22.379913	0.000924	20.703915
226.069049	-2.986400	3.822200	-11.413000	22.409948	0.000920	20.714553
227.064237	-3.012900	3.821000	-11.512000	22.412887	0.000923	20.701848
228.068707	-3.010100	3.820300	-11.499000	22.416772	0.000925	20.702893
229.071319	-3.000400	3.820800	-11.463000	22.421361	0.000923	20.705118
230.068730	-3.000800	3.821200	-11.466000	22.416613	0.000923	20.715537
231.068819	-3.003500	3.821100	-11.474000	22.433853	0.000922	20.714784
232.073285	-2.991500	3.820300	-11.427000	22.457223	0.000924	20.729654
233.066552	-3.012900	3.819100	-11.505000	22.458911	0.000923	20.694358
234.066662	-2.982500	3.821300	-11.395000	22.463354	0.000925	20.694066
235.066419	-2.993500	3.819000	-11.431000	22.484987	0.000925	20.706723
236.066117	-2.993300	3.819200	-11.430000	22.469108	0.000927	20.687500
237.066551	-2.989200	3.818400	-11.413000	22.490766	0.000926	20.698759
238.069595	-3.005000	3.819300	-11.476000	22.496423	0.000928	20.701580
239.080118	-2.993200	3.819100	-11.429000	22.484343	0.000926	20.694223
240.068655	-2.974600	3.819500	-11.360000	22.503584	0.000928	20.682197
241.069326	-2.982600	3.819000	-11.389000	22.525133	0.000928	20.704254
242.067406	-3.006400	3.817500	-11.474000	22.537648	0.000930	20.707305
243.068290	-2.974600	3.819500	-11.360000	22.536300	0.000930	20.692679
244.067931	-2.993300	3.816900	-11.423000	22.526504	0.000933	20.669115
245.074079	-3.014700	3.815900	-11.503000	22.532513	0.000930	20.689359
246.072975	-2.999700	3.817400	-11.450000	22.555492	0.000933	20.692459
247.069651	-3.004600	3.816400	-11.466000	22.548610	0.000933	20.681772
248.070147	-3.009300	3.816700	-11.485000	22.544046	0.000932	20.695220
249.072652	-2.994000	3.817100	-11.427000	22.559571	0.000933	20.680422
250.076494	-3.011500	3.815300	-11.490000	22.544276	0.000934	20.678854
251.071919	-3.010700	3.815400	-11.486000	22.554691	0.000936	20.683596
252.073365	-2.994300	3.816300	-11.426000	22.535402	0.000932	20.679450
253.072411	-3.011400	3.814300	-11.484000	22.571734	0.000935	20.681699
254.073112	-3.011400	3.814900	-11.486000	22.565458	0.000934	20.678258
255.074204	-2.996000	3.816600	-11.434000	22.565434	0.000934	20.672543
256.071647	-3.031200	3.814400	-11.561000	22.586508	0.000936	20.693651
257.077239	-3.003400	3.814400	-11.454000	22.580705	0.000939	20.676932
258.072176	-3.022800	3.813400	-11.526000	22.597699	0.000938	20.685419
259.072058	-3.025200	3.811600	-11.529000	22.586459	0.000937	20.679851
260.080315	-2.982600	3.813600	-11.374000	22.613078	0.000937	20.660517
261.072892	-2.994900	3.812400	-11.417000	22.625132	0.000938	20.683972
262.073315	-2.997300	3.814200	-11.432000	22.611853	0.000938	20.687267
263.075110	-3.006200	3.812100	-11.458000	22.622790	0.000939	20.659338
264.074970	-3.015700	3.812500	-11.496000	22.636591	0.000940	20.687389
265.073796	-3.007700	3.812900	-11.466000	22.614523	0.000941	20.676190
266.077585	-3.009500	3.812300	-11.473000	22.634527	0.000942	20.681528
267.075678	-3.004900	3.811600	-11.452000	22.615494	0.000942	20.667205
268.073668	-3.004600	3.811000	-11.450000	22.612702	0.000943	20.679583
269.074677	-3.020300	3.811200	-11.510000	22.610638	0.000942	20.669454
270.075274	-3.029500	3.810300	-11.542000	22.608563	0.000942	20.655046
271.079680	-2.985600	3.811700	-11.377000	22.616757	0.000945	20.671789
272.077110	-2.993000	3.811700	-11.408000	22.625677	0.000945	20.666498
273.077193	-2.969100	3.810700	-11.313000	22.632658	0.000944	20.656420
274.074898	-2.972000	3.812300	-11.329000	22.627984	0.000944	20.653160
275.075872	-3.000600	3.809500	-11.430000	22.648109	0.000947	20.695608
276.077055	-2.989300	3.809400	-11.386000	22.660028	0.000947	20.673405
277.078155	-2.990300	3.810200	-11.393000	22.668768	0.000946	20.642326
278.076239	-3.003100	3.809300	-11.439000	22.691890	0.000947	20.666438
279.076378	-2.995300	3.811400	-11.416000	22.693286	0.000949	20.674949
280.079313	-2.965900	3.810900	-11.301000	22.699550	0.000948	20.678379
281.079089	-2.992000	3.809900	-11.398000	22.711371	0.000948	20.663666
282.079957	-2.987200	3.808700	-11.375000	22.719662	0.000950	20.661064
283.077691	-3.000900	3.809000	-11.429000	22.732745	0.000949	20.665636
284.082467	-2.967000	3.808900	-11.300000	22.715426	0.000950	20.660615
285.086774	-2.995600	3.807800	-11.406000	22.729943	0.000950	20.680848
286.079197	-2.994200	3.808700	-11.403000	22.744397	0.000951	20.666403
287.080648	-2.963300	3.809000	-11.286000	22.754835	0.000951	20.673066
288.079951	-2.982300	3.808100	-11.355000	22.763574	0.000952	20.668069
289.082834	-3.010500	3.806600	-11.458000	22.770845	0.000953	20.656858
290.080255	-3.007600	3.806100	-11.446000	22.799912	0.000953	20.658002
291.078574	-2.995500	3.806800	-11.403000	22.813068	0.000953	20.649843
292.081931	-3.005000	3.806500	-11.437000	22.800835	0.000954	20.666513
293.084386	-2.994200	3.807000	-11.397000	22.799136	0.000954	20.644420
294.080490	-2.979500	3.806100	-11.339000	22.807534	0.000954	20.657102
295.079817	-3.013900	3.804200	-11.463000	22.824974	0.000955	20.659874
296.081089	-2.997400	3.803900	-11.401000	22.840631	0.000955	20.666551
297.080163	-2.994100	3.805400	-11.392000	22.838069	0.000957	20.664933
298.084117	-2.989600	3.805000	-11.374000	22.834732	0.000956	20.667754
299.082244	-3.018300	3.803400	-11.479000	22.841141	0.000958	20.657578
300.084922	-3.003500	3.804000	-11.424000	22.842537	0.000956	20.666090
301.080050	-2.996100	3.804200	-11.396000	22.873047	0.000957	20.665361
302.080426	-2.987100	3.805300	-11.366000	22.864952	0.000958	20.661518
303.084545	-3.023000	3.802900	-11.495000	22.862537	0.000960	20.670479
304.080848	-3.015000	3.802900	-11.465000	22.874067	0.000960	20.664011
305.079377	-3.013100	3.801500	-11.453000	22.856179	0.000959	20.664109
306.079535	-3.005000	3.803500	-11.428000	22.834395	0.000961	20.674056
307.079865	-3.012800	3.801800	-11.453000	22.841847	0.000960	20.657337
308.081302	-3.025700	3.802600	-11.504000	22.830487	0.000961	20.656388
309.085891	-2.971200	3.803600	-11.300000	22.843329	0.000964	20.650760
310.081016	-3.027000	3.802300	-11.507000	22.845149	0.000962	20.646893
311.081641	-3.000300	3.802000	-11.406000	22.869287	0.000962	20.656377
312.081249	-3.004100	3.800900	-11.417000	22.888389	0.000961	20.654177
313.080869	-3.020700	3.799800	-11.478000	22.888875	0.000964	20.666519
314.085479	-3.019000	3.800500	-11.473000	22.905051	0.000965	20.657594
315.084211	-2.976200	3.801200	-11.311000	22.903474	0.000963	20.684940
316.081310	-2.995100	3.801600	-11.385000	22.921543	0.000964	20.642820
317.082678	-3.003900	3.798500	-11.410000	22.929079	0.000964	20.673608
318.081241	-2.985100	3.801000	-11.345000	22.950547	0.000967	20.670933
319.085029	-3.003300	3.800700	-11.413000	22.964017	0.000965	20.668782
320.081554	-2.996200	3.798800	-11.381000	22.954432	0.000966	20.649694
321.083031	-2.971100	3.800800	-11.292000	22.934469	0.000968	20.675214
322.081218	-2.999600	3.798200	-11.392000	22.929033	0.000967	20.672139
323.082937	-2.983500	3.798200	-11.330000	22.922396	0.000968	20.674024
324.084524	-2.992400	3.799400	-11.368000	22.932894	0.000968	20.643761
325.085809	-2.999800	3.797700	-11.391000	22.933403	0.000969	20.667982
326.083773	-3.005400	3.797000	-11.410000	22.945986	0.000968	20.657354
327.083855	-3.012200	3.796600	-11.435000	22.951825	0.000968	20.653246
328.084569	-2.999600	3.796900	-11.388000	22.958026	0.000968	20.664675
329.084022	-3.028600	3.795800	-11.494000	22.960429	0.000969	20.660445
330.086811	-3.015400	3.795600	-11.444000	22.987102	0.000971	20.668677
331.084218	-2.996300	3.796300	-11.374000	22.997464	0.000970	20.650134
332.085289	-2.989900	3.797000	-11.352000	22.990052	0.000971	20.662149
333.085846	-3.019200	3.794300	-11.455000	23.015328	0.000973	20.666138
334.086525	-2.999400	3.795600	-11.384000	23.018446	0.000972	20.681592
335.090474	-2.983300	3.795400	-11.322000	23.035677	0.000973	20.659025
336.091745	-3.006800	3.794600	-11.409000	23.042969	0.000974	20.655426
337.094154	-2.987000	3.793500	-11.330000	23.042739	0.000974	20.658041
338.091524	-3.010300	3.793600	-11.419000	23.044754	0.000976	20.667647
339.091052	-2.987000	3.794000	-11.331000	23.041455	0.000974	20.683783
340.095242	-2.995500	3.793500	-11.362000	23.059534	0.000974	20.680561
341.091537	-3.007400	3.793900	-11.409000	23.067930	0.000976	20.671904
342.090394	-3.014500	3.793300	-11.434000	23.071256	0.000974	20.668123
343.091506	-2.986700	3.793200	-11.327000	23.080890	0.000977	20.666397
344.091186	-2.986800	3.792200	-11.326000	23.090476	0.000976	20.670787
345.091105	-2.991600	3.792200	-11.343000	23.083694	0.000975	20.660671
346.095140	-2.979600	3.793500	-11.302000	23.080893	0.000976	20.665451
347.092034	-2.993700	3.793000	-11.354000	23.101713	0.000976	20.660709
348.095745	-2.966700	3.792500	-11.250000	23.106094	0.000977	20.672686
349.091879	-2.998000	3.791800	-11.366000	23.118386	0.000978	20.685004
350.093504	-2.987400	3.792900	-11.329000	23.117815	0.000979	20.666412
351.096842	-2.963900	3.792100	-11.238000	23.112477	0.000978	20.681928
352.092549	-3.003600	3.789600	-11.382000	23.127135	0.000979	20.656310
353.093460	-3.022500	3.789000	-11.451000	23.125764	0.000978	20.670111
354.092460	-2.990000	3.790900	-11.334000	23.137315	0.000980	20.685006
355.092618	-3.001200	3.789600	-11.372000	23.132948	0.000980	20.677784
356.091534	-2.998200	3.789800	-11.361000	23.120075	0.000977	20.696655
357.095645	-2.976200	3.790000	-11.278000	23.115732	0.000979	20.660057
358.093106	-3.019200	3.789400	-11.440000	23.139270	0.000981	20.681275
359.092039	-3.004900	3.788500	-11.383000	23.134478	0.000980	20.677421
360.093142	-3.005300	3.788900	-11.385000	23.157069	0.000983	20.668764
361.092957	-3.015300	3.788000	-11.419000	23.163815	0.000983	20.683111
362.095523	-2.986900	3.787600	-11.312000	23.179346	0.000984	20.684924
363.092424	-3.006500	3.788500	-11.390000	23.167116	0.000983	20.662710
364.093170	-2.993100	3.786700	-11.332000	23.189925	0.000983	20.664704
365.092911	-3.006400	3.787400	-11.386000	23.176447	0.000984	20.679648
366.092835	-3.007600	3.786300	-11.386000	23.212128	0.000984	20.674153
367.098844	-3.019600	3.786000	-11.431000	23.211752	0.000984	20.662395
368.092900	-2.992700	3.786500	-11.331000	23.227488	0.000985	20.683856
369.093324	-2.999600	3.786200	-11.356000	23.220464	0.000987	20.710958
370.095604	-3.007700	3.786100	-11.386000	23.204158	0.000985	20.659525
371.095229	-3.015000	3.784100	-11.408000	23.220464	0.000985	20.676342
372.096619	-2.990900	3.786700	-11.324000	23.212834	0.000986	20.672489
373.096688	-3.007700	3.784800	-11.382000	23.248598	0.000985	20.669448
374.095216	-3.011900	3.783500	-11.395000	23.261045	0.000988	20.689985
375.098549	-3.006800	3.783300	-11.375000	23.261870	0.000987	20.688441
376.096730	-3.017500	3.783400	-11.416000	23.255781	0.000987	20.685658
377.098963	-2.982200	3.785300	-11.287000	23.286120	0.000988	20.693305
378.104048	-2.987500	3.783900	-11.303000	23.280091	0.000989	20.690581
379.098051	-2.966300	3.784200	-11.224000	23.285890	0.000989	20.686910
380.098193	-3.003400	3.782300	-11.357000	23.277423	0.000989	20.679371
381.098177	-3.003800	3.782200	-11.360000	23.311633	0.000990	20.700856
382.098418	-2.994500	3.782700	-11.327000	23.344701	0.000989	20.693220
383.096642	-3.006600	3.781900	-11.369000	23.353411	0.000992	20.673025
384.102349	-2.994800	3.781600	-11.323000	23.347286	0.000991	20.710037
385.099591	-2.992700	3.781400	-11.315000	23.352003	0.000990	20.691530
386.099552	-2.981300	3.782400	-11.276000	23.384392	0.000991	20.697914
387.101253	-2.954400	3.781800	-11.172000	23.389814	0.000991	20.672526
388.099927	-2.973100	3.780800	-11.240000	23.404334	0.000992	20.717903
389.101047	-2.986600	3.780900	-11.291000	23.388298	0.000994	20.685706
390.100014	-2.986400	3.780700	-11.290000	23.411562	0.000992	20.688636
391.101195	-2.992500	3.779700	-11.310000	23.383919	0.000992	20.699336
392.099531	-3.008100	3.777900	-11.363000	23.365966	0.000993	20.690351
393.100714	-2.984300	3.781300	-11.283000	23.346072	0.000994	20.712614
394.101810	-2.992100	3.778300	-11.305000	23.344834	0.000993	20.679602
395.101046	-3.010700	3.779400	-11.378000	23.374457	0.000993	20.706449
396.101841	-2.996600	3.778500	-11.321000	23.356650	0.000994	20.682436
397.102291	-3.000300	3.778600	-11.335000	23.370770	0.000994	20.676672
398.102349	-3.000300	3.778700	-11.337000	23.381723	0.000994	20.704723
399.103820	-3.015100	3.778500	-11.391000	23.369277	0.000996	20.699361
400.105007	-3.016600	3.776500	-11.391000	23.383445	0.000995	20.686533
401.104371	-2.999100	3.778400	-11.331000	23.391366	0.000996	20.688782
402.104815	-3.007000	3.777300	-11.357000	23.401265	0.000995	20.705343
403.105557	-3.008000	3.775400	-11.356000	23.415930	0.000998	20.693963
404.107903	-3.005700	3.775900	-11.348000	23.401763	0.000998	20.709635
405.105818	-3.000900	3.775900	-11.330000	23.424518	0.000996	20.703046
406.107937	-2.975500	3.777000	-11.237000	23.434707	0.000998	20.688126
407.106460	-3.019600	3.773300	-11.392000	23.412970	0.000997	20.708067
408.105489	-3.013900	3.774500	-11.375000	23.441391	0.000998	20.700517
409.107742	-3.009800	3.774000	-11.358000	23.455631	0.000999	20.698669
410.109600	-2.986800	3.774400	-11.273000	23.467506	0.000997	20.703934
411.106498	-2.985100	3.773100	-11.262000	23.465249	0.000998	20.705465
412.107186	-2.996500	3.773100	-11.305000	23.459524	0.000999	20.698304
413.109295	-3.002700	3.773600	-11.330000	23.486609	0.000999	20.707909
414.108213	-2.989300	3.774600	-11.281000	23.509376	0.001001	20.698488
415.109611	-2.998900	3.772800	-11.313000	23.517247	0.001001	20.690256
416.106532	-3.019000	3.773000	-11.388000	23.526853	0.001000	20.707947
417.113545	-2.993800	3.772400	-11.292000	23.522826	0.001003	20.717661
418.107959	-3.015500	3.771400	-11.371000	23.523348	0.001002	20.689258
419.106806	-2.976600	3.773100	-11.230000	23.517052	0.001002	20.693380
420.115057	-2.942900	3.772300	-11.100000	23.529921	0.001002	20.691107
421.107599	-3.001800	3.770800	-11.318000	23.516895	0.001001	20.692749
422.108622	-2.995400	3.770400	-11.292000	23.513403	0.001002	20.712957
423.107735	-2.984800	3.771100	-11.255000	23.513525	0.001001	20.723985
424.106879	-3.010800	3.770100	-11.350000	23.521310	0.001001	20.712348
425.108394	-2.960500	3.772200	-11.167000	23.503905	0.001003	20.718135
426.111536	-2.981800	3.770300	-11.240000	23.532494	0.001002	20.713602
427.108618	-3.003700	3.768500	-11.318000	23.553390	0.001002	20.744508
428.107527	-2.988500	3.768900	-11.262000	23.555852	0.001005	20.704774
429.109803	-3.014500	3.768900	-11.360000	23.585627	0.001003	20.723243
430.109559	-3.000500	3.769600	-11.310000	23.582813	0.001004	20.725638
431.111249	-2.990300	3.768000	-11.267000	23.591873	0.001004	20.702476
432.109867	-3.011100	3.767300	-11.342000	23.570940	0.001004	20.717054
433.110075	-3.021400	3.767900	-11.383000	23.559358	0.001004	20.718246
434.111155	-3.018200	3.767200	-11.369000	23.530735	0.001004	20.706622
435.110298	-3.017800	3.766900	-11.367000	23.545033	0.001003	20.717163
436.111238	-3.012500	3.766200	-11.346000	23.524864	0.001005	20.722075
437.110698	-3.006000	3.765900	-11.318000	23.515658	0.001004	20.702414
438.109933	-3.004300	3.766500	-11.313000	23.522412	0.001004	20.715824
439.109839	-3.012700	3.766300	-11.344000	23.526877	0.001005	20.707971
440.112830	-2.988300	3.766300	-11.255000	23.551788	0.001004	20.721089
441.111451	-3.006400	3.764900	-11.317000	23.581197	0.001006	20.717380
442.112829	-2.998000	3.765200	-11.287000	23.594587	0.001005	20.726536
443.114257	-3.001600	3.765100	-11.299000	23.593082	0.001005	20.725975
444.112891	-2.996000	3.764500	-11.277000	23.589492	0.001004	20.715264
445.111462	-3.005900	3.764400	-11.314000	23.603415	0.001007	20.738230
446.111476	-2.978400	3.764300	-11.211000	23.578916	0.001007	20.723154
447.116928	-2.971900	3.765900	-11.190000	23.584179	0.001006	20.718472
448.112219	-2.999000	3.762600	-11.283000	23.616172	0.001006	20.702653
449.111875	-3.015100	3.762300	-11.342000	23.626431	0.001007	20.716733
450.112200	-3.008100	3.762000	-11.316000	23.631198	0.001007	20.724832
451.114943	-3.006700	3.762000	-11.310000	23.656398	0.001007	20.716429
452.113369	-3.020900	3.761200	-11.360000	23.667555	0.001008	20.704379
453.114684	-2.994500	3.761700	-11.264000	23.668549	0.001008	20.719128
454.113229	-2.999600	3.761900	-11.284000	23.675376	0.001009	20.724076
455.114183	-2.975400	3.761000	-11.189000	23.673157	0.001008	20.704780
456.114188	-2.985000	3.760800	-11.225000	23.653123	0.001006	20.725474
457.114924	-2.992800	3.760200	-11.252000	23.630348	0.001007	20.734885
458.116767	-3.008000	3.760200	-11.310000	23.640669	0.001008	20.727213
459.116302	-3.002500	3.759200	-11.287000	23.642998	0.001008	20.718643
460.115521	-3.006100	3.759100	-11.299000	23.626856	0.001008	20.736125
461.115915	-2.999400	3.759000	-11.274000	23.624139	0.001007	20.732454
462.117423	-3.018600	3.758800	-11.345000	23.607136	0.001010	20.715882
463.118554	-3.000400	3.758900	-11.277000	23.630604	0.001010	20.736090
464.118582	-2.992100	3.758800	-11.246000	23.618561	0.001009	20.738716
465.124054	-3.001500	3.757900	-11.278000	23.640912	0.001009	20.733622
466.120171	-3.000300	3.758200	-11.275000	23.657090	0.001010	20.734667
467.122603	-3.026700	3.757800	-11.372000	23.689737	0.001009	20.736577
468.124694	-3.008000	3.757600	-11.302000	23.682775	0.001009	20.723433
469.120154	-3.008300	3.756200	-11.298000	23.695982	0.001010	20.734304
470.121652	-2.984100	3.757100	-11.210000	23.723061	0.001010	20.738219
471.126341	-3.014500	3.756500	-11.322000	23.721375	0.001009	20.755496
472.121074	-2.980900	3.756300	-11.196000	23.720818	0.001009	20.728858
473.122063	-2.981900	3.755300	-11.197000	23.718767	0.001009	20.745768
474.126109	-3.003600	3.755600	-11.279000	23.735806	0.001010	20.725866
475.125225	-2.996500	3.755900	-11.254000	23.761914	0.001012	20.726912
476.123412	-2.977900	3.755700	-11.183000	23.756190	0.001011	20.717380
477.122201	-2.998600	3.753500	-11.254000	23.759998	0.001012	20.723569
478.125743	-2.996400	3.755200	-11.251000	23.759598	0.001011	20.753989
479.124310	-3.017300	3.753500	-11.325000	23.794398	0.001009	20.719653
480.123410	-3.016300	3.753700	-11.319000	23.775398	0.001011	20.745649
481.124332	-2.987300	3.752800	-11.210000	23.804924	0.001012	20.729259
482.125339	-3.021400	3.751700	-11.334000	23.760725	0.001012	20.752274
483.128230	-2.989700	3.752300	-11.217000	23.773542	0.001012	20.724820
484.125833	-2.991000	3.750800	-11.218000	23.742027	0.001011	20.712662
485.125137	-3.002600	3.750100	-11.259000	23.739760	0.001010	20.749272
486.125222	-3.004800	3.751300	-11.270000	23.732350	0.001011	20.749429
487.125354	-3.012600	3.750800	-11.299000	23.752323	0.001011	20.745746
488.126724	-2.988100	3.750500	-11.206000	23.753280	0.001011	20.727739
489.131088	-3.002800	3.750300	-11.259000	23.779022	0.001013	20.743593
490.127569	-2.999600	3.750300	-11.249000	23.766873	0.001012	20.749429
491.127209	-3.003700	3.749500	-11.262000	23.784213	0.001014	20.748323
492.126302	-2.989500	3.748500	-11.204000	23.797028	0.001012	20.744102
493.127993	-2.991700	3.750400	-11.218000	23.799963	0.001012	20.752735
494.132188	-3.012500	3.747200	-11.286000	23.809931	0.001012	20.739496
495.128335	-3.007500	3.748600	-11.272000	23.828687	0.001012	20.738388
496.130991	-3.010300	3.748300	-11.282000	23.830555	0.001012	20.747373
497.129834	-3.004900	3.748200	-11.262000	23.840812	0.001013	20.744856
498.131357	-2.988600	3.749300	-11.203000	23.845881	0.001012	20.737136
499.133245	-2.995400	3.747500	-11.224000	23.853507	0.001013	20.742412
500.130661	-3.001800	3.747400	-11.248000	23.901836	0.001015	20.750096
501.131456	-2.997000	3.747800	-11.230000	23.910845	0.001013	20.764819
502.131143	-3.007000	3.746500	-11.265000	23.901836	0.001015	20.739664
503.133039	-2.990500	3.746500	-11.203000	23.896695	0.001016	20.780976
504.132183	-2.983500	3.746600	-11.177000	23.923477	0.001014	20.775590
505.134567	-2.997200	3.746600	-11.229000	23.870214	0.001016	20.753949
506.132536	-3.013500	3.745300	-11.286000	23.869014	0.001015	20.739943
507.135331	-3.026600	3.744900	-11.333000	23.868542	0.001017	20.750375
508.132070	-2.995900	3.746000	-11.221000	23.851372	0.001015	20.754970
509.132838	-2.992200	3.745100	-11.205000	23.867923	0.001014	20.760186
510.139704	-2.991600	3.743800	-11.199000	23.886886	0.001015	20.754545
511.133493	-2.995800	3.744800	-11.217000	23.909086	0.001016	20.768272
512.134101	-2.981000	3.744100	-11.160000	23.909632	0.001014	20.781621
513.133825	-3.017900	3.741900	-11.291000	23.906600	0.001015	20.752976
514.135451	-2.969600	3.745100	-11.120000	23.896767	0.001014	20.742168
515.134821	-3.025900	3.741500	-11.320000	23.912177	0.001017	20.751456
516.139100	-3.016900	3.741900	-11.286000	23.900950	0.001016	20.775287
517.136406	-2.989200	3.741200	-11.183000	23.926035	0.001014	20.754448
518.136658	-3.009600	3.740300	-11.256000	23.917670	0.001015	20.767871
519.135547	-3.008400	3.742100	-11.256000	23.903558	0.001015	20.759409
520.136240	-2.985900	3.740600	-11.167000	23.860635	0.001017	20.771371
521.139370	-3.015500	3.741000	-11.281000	23.871900	0.001014	20.764175
522.135586	-2.998400	3.739400	-11.212000	23.867669	0.001015	20.769415
523.136031	-3.015000	3.738900	-11.272000	23.857071	0.001016	20.775384
524.139004	-3.016800	3.739200	-11.280000	23.862081	0.001016	20.780881
525.137022	-2.993600	3.740000	-11.194000	23.893530	0.001015	20.757889
526.136343	-3.013400	3.738300	-11.264000	23.898199	0.001015	20.763045
527.135188	-2.996800	3.739900	-11.206000	23.904795	0.001016	20.766814
528.138491	-2.975700	3.740000	-11.129000	23.940245	0.001015	20.755420
529.135430	-3.015300	3.737700	-11.270000	23.963089	0.001016	20.767423
530.138724	-3.028100	3.737100	-11.315000	23.980157	0.001014	20.790229
531.138479	-3.007000	3.737900	-11.238000	23.977890	0.001016	20.768515
532.137071	-2.984500	3.737400	-11.153000	23.971538	0.001017	20.779689
533.138336	-3.016500	3.736400	-11.269000	23.983845	0.001017	20.749356
534.138488	-2.984900	3.736600	-11.152000	23.996222	0.001016	20.793537
535.138762	-2.989000	3.737200	-11.169000	24.005205	0.001018	20.794960
536.141269	-3.020800	3.735500	-11.284000	23.978098	0.001016	20.765404
537.142693	-2.987100	3.736400	-11.160000	23.981686	0.001015	20.787969
538.138776	-3.010600	3.735600	-11.246000	24.014564	0.001016	20.775422
539.137138	-2.980600	3.736700	-11.137000	24.001884	0.001016	20.769344
540.140489	-2.994100	3.735400	-11.183000	23.985784	0.001015	20.770268
541.139223	-3.000800	3.735700	-11.209000	23.980376	0.001017	20.770060
542.141453	-2.985900	3.735300	-11.151000	23.977141	0.001015	20.768713
543.141044	-2.995400	3.735200	-11.187000	23.970595	0.001014	20.783485
544.142924	-3.014500	3.733600	-11.254000	23.984136	0.001015	20.770986
545.138857	-2.994000	3.733500	-11.177000	23.965926	0.001016	20.774061
546.140670	-2.982600	3.734100	-11.136000	24.016566	0.001014	20.786912
547.142642	-3.025300	3.732300	-11.290000	24.020797	0.001014	20.794949
548.140391	-2.987000	3.732500	-11.148000	24.023428	0.001016	20.776250
549.141356	-2.996300	3.731800	-11.181000	24.034835	0.001017	20.790535
550.144526	-2.985000	3.731900	-11.138000	24.077993	0.001017	20.777394
551.140747	-3.003200	3.731200	-11.204000	24.093133	0.001015	20.787836
552.141025	-2.997300	3.731400	-11.183000	24.091885	0.001015	20.788955
553.143898	-3.014300	3.730800	-11.245000	24.111074	0.001017	20.792079
554.142689	-2.994400	3.731100	-11.171000	24.126494	0.001018	20.781940
555.142250	-2.993300	3.731300	-11.167000	24.130662	0.001017	20.788492
556.141930	-2.961000	3.732600	-11.051000	24.133232	0.001016	20.798181
557.142954	-3.002200	3.729500	-11.196000	24.139923	0.001016	20.802048
558.148130	-2.986100	3.731000	-11.140000	24.148117	0.001017	20.783713
559.143677	-2.989400	3.730000	-11.149000	24.138056	0.001017	20.799701
560.145571	-3.007400	3.729100	-11.214000	24.116115	0.001017	20.787652
561.143647	-3.026800	3.728500	-11.283000	24.077724	0.001017	20.790874
562.143976	-2.998000	3.728100	-11.176000	24.061444	0.001016	20.784504
563.145535	-3.005100	3.728400	-11.203000	24.007205	0.001016	20.790801
564.145970	-2.996300	3.728000	-11.169000	24.037429	0.001017	20.788395
565.143227	-3.002400	3.727300	-11.189000	24.029767	0.001015	20.806315
566.146978	-3.000100	3.727700	-11.182000	24.040992	0.001018	20.803348
567.143763	-2.977000	3.727500	-11.096000	24.040290	0.001015	20.814497
568.144442	-2.987200	3.727200	-11.133000	24.014286	0.001013	20.813075
569.146321	-3.000400	3.725900	-11.179000	24.003957	0.001016	20.802717
570.145210	-3.027300	3.724900	-11.274000	24.033854	0.001016	20.795715
571.150614	-2.994000	3.725700	-11.153000	24.042218	0.001016	20.811690
572.144889	-2.996800	3.725900	-11.165000	24.068913	0.001017	20.813806
573.145453	-2.978400	3.726000	-11.096000	24.079060	0.001016	20.798853
574.151572	-3.006100	3.723600	-11.193000	24.066998	0.001017	20.800031
575.146345	-2.982800	3.725400	-11.111000	24.075327	0.001015	20.791315
576.146549	-2.985900	3.723500	-11.116000	24.096383	0.001015	20.808639
577.144386	-2.998500	3.722900	-11.161000	24.120410	0.001017	20.803814
578.147331	-2.975300	3.723700	-11.078000	24.119391	0.001016	20.820336
579.145935	-3.004800	3.722600	-11.184000	24.131999	0.001016	20.789359
580.148624	-3.007100	3.722500	-11.193000	24.147224	0.001015	20.801784
581.146223	-3.020100	3.720700	-11.237000	24.176788	0.001016	20.801565
582.146151	-3.025800	3.720800	-11.256000	24.194595	0.001017	20.776751
583.145569	-3.022300	3.720600	-11.244000	24.165407	0.001014	20.796788
584.146742	-2.982500	3.722000	-11.100000	24.132291	0.001015	20.796289
585.149796	-3.015200	3.720500	-11.217000	24.157784	0.001017	20.786297
586.145710	-2.985600	3.722200	-11.112000	24.156995	0.001015	20.786454
587.150678	-2.993300	3.719700	-11.133000	24.150801	0.001017	20.798733
588.153018	-2.978900	3.721500	-11.086000	24.168827	0.001016	20.779829
589.147158	-3.004600	3.720000	-11.176000	24.173082	0.001014	20.791683
590.148985	-3.019800	3.718900	-11.229000	24.182876	0.001014	20.792498
591.151223	-2.988700	3.720900	-11.119000	24.159991	0.001013	20.774759
592.147732	-2.994000	3.719500	-11.134000	24.173592	0.001014	20.785557
593.147099	-2.977300	3.719600	-11.073000	24.149858	0.001013	20.794468
594.148274	-3.008100	3.716900	-11.178000	24.172114	0.001014	20.788342
595.148167	-3.004900	3.718700	-11.173000	24.159253	0.001013	20.804365
596.150694	-3.004700	3.717700	-11.169000	24.205762	0.001012	20.785581
597.147918	-3.001400	3.718000	-11.158000	24.183095	0.001013	20.774225
598.156780	-2.986700	3.718400	-11.104000	24.187120	0.001013	20.782530
599.154350	-3.028500	3.715100	-11.250000	24.208768	0.001014	20.786226
600.149186	-3.010400	3.717400	-11.190000	24.222950	0.001014	20.784803
601.154596	-2.984800	3.717700	-11.096000	24.245010	0.001014	20.778482
602.150103	-2.999500	3.716400	-11.146000	24.222866	0.001011	20.761485
603.151151	-3.007100	3.715100	-11.171000	24.236477	0.001012	20.784622
604.152330	-3.013200	3.715200	-11.194000	24.224430	0.001013	20.779175
605.153494	-3.007900	3.714900	-11.173000	24.231677	0.001013	20.781229
606.155678	-2.998200	3.715100	-11.137000	24.217315	0.001012	20.775358
607.154138	-3.002200	3.714400	-11.150000	24.257968	0.001012	20.783893
608.154151	-2.975400	3.715500	-11.053000	24.261579	0.001013	20.773291
609.155011	-3.002100	3.714300	-11.149000	24.273045	0.001012	20.783370
610.164230	-3.021100	3.713600	-11.218000	24.321670	0.001012	20.755806
611.158088	-2.983700	3.714300	-11.082000	24.304691	0.001012	20.771966
612.158422	-3.020700	3.712400	-11.213000	24.326434	0.001010	20.798518
613.157798	-3.004000	3.712500	-11.152000	24.311697	0.001011	20.784684
614.157587	-2.989000	3.713000	-11.096000	24.306812	0.001010	20.768403
615.155807	-2.983200	3.713600	-11.078000	24.282742	0.001012	20.761328
616.157098	-3.009000	3.712600	-11.170000	24.291650	0.001013	20.778325
617.158421	-2.969200	3.712800	-11.023000	24.291348	0.001011	20.772805
618.158523	-2.989200	3.712600	-11.095000	24.330518	0.001011	20.755199
619.161112	-2.996700	3.711100	-11.120000	24.304534	0.001012	20.777972
620.157907	-3.003700	3.710700	-11.145000	24.306582	0.001012	20.786665
621.159756	-3.014400	3.709500	-11.181000	24.277918	0.001010	20.753169
622.162077	-3.000600	3.710700	-11.133000	24.258489	0.001013	20.763078
623.160390	-3.007300	3.709500	-11.154000	24.261833	0.001011	20.748889
624.161323	-3.033000	3.708900	-11.247000	24.278378	0.001012	20.755053
625.165857	-2.979600	3.710500	-11.054000	24.267373	0.001013	20.773412
626.162724	-3.010600	3.708100	-11.163000	24.289252	0.001009	20.757900
627.163787	-2.976300	3.710000	-11.041000	24.318085	0.001010	20.785402
628.167722	-3.006200	3.708600	-11.148000	24.318569	0.001012	20.749376
629.164096	-3.008200	3.708100	-11.153000	24.310728	0.001010	20.781814
630.163685	-2.987000	3.709200	-11.077000	24.304256	0.001010	20.770581
631.164244	-3.003700	3.706200	-11.131000	24.306633	0.001009	20.754947
632.164757	-2.983800	3.707100	-11.060000	24.309153	0.001011	20.766010
633.168405	-2.999400	3.706300	-11.114000	24.320073	0.001009	20.742824
634.165367	-2.990900	3.707900	-11.089000	24.313445	0.001010	20.773160
635.167160	-3.006400	3.707600	-11.145000	24.331928	0.001008	20.767045
636.165199	-3.028300	3.704900	-11.219000	24.294405	0.001009	20.748845
637.166297	-3.014100	3.704900	-11.165000	24.306719	0.001008	20.787276
638.168062	-3.014400	3.704900	-11.166000	24.333710	0.001011	20.768359
639.169553	-3.005600	3.703700	-11.131000	24.336352	0.001009	20.762948
640.166106	-3.014300	3.704300	-11.165000	24.315689	0.001009	20.763083
641.165565	-2.999300	3.705100	-11.112000	24.367245	0.001010	20.770705
642.166414	-2.977000	3.704400	-11.026000	24.369754	0.001007	20.743349
643.173175	-3.015500	3.702000	-11.162000	24.387836	0.001008	20.752481
644.167678	-3.012800	3.702700	-11.152000	24.373208	0.001006	20.752979
645.169612	-3.007600	3.702700	-11.134000	24.391012	0.001007	20.771789
646.166991	-3.019200	3.702500	-11.177000	24.370240	0.001009	20.764701
647.168466	-2.977600	3.703500	-11.026000	24.377075	0.001007	20.752592
648.172030	-3.003100	3.701400	-11.114000	24.393048	0.001008	20.756287
649.170673	-2.988500	3.702400	-11.064000	24.370556	0.001008	20.746525
650.173155	-2.991900	3.700800	-11.071000	24.405107	0.001007	20.754634
651.169638	-3.009600	3.702400	-11.142000	24.427745	0.001007	20.760750
652.169372	-3.015800	3.702400	-11.164000	24.447644	0.001007	20.754634
653.175782	-2.975700	3.701200	-11.012000	24.447765	0.001007	20.738160
654.171897	-2.993300	3.701600	-11.078000	24.441875	0.001004	20.758330
655.172341	-2.970900	3.700300	-10.991000	24.413347	0.001005	20.771436
656.170830	-2.996200	3.699500	-11.084000	24.414268	0.001006	20.755764
657.170942	-2.999500	3.699600	-11.096000	24.414220	0.001004	20.743861
658.171274	-2.990100	3.699100	-11.060000	24.403314	0.001006	20.747619
659.170092	-3.009500	3.699200	-11.131000	24.425165	0.001005	20.736824
660.171939	-2.999500	3.698600	-11.092000	24.425395	0.001004	20.747961
661.174795	-2.997300	3.699900	-11.089000	24.436992	0.001005	20.758173
662.173814	-2.982400	3.698500	-11.029000	24.455400	0.001003	20.736337
663.174360	-3.005500	3.697600	-11.112000	24.416377	0.001003	20.750294
664.180295	-3.002900	3.697900	-11.103000	24.421649	0.001003	20.741358
665.175467	-2.990700	3.696500	-11.054000	24.408197	0.001003	20.751570
666.174649	-2.985700	3.697700	-11.038000	24.399435	0.001004	20.733771
667.175060	-3.012300	3.696500	-11.133000	24.426738	0.001005	20.742195
668.175754	-2.980700	3.697800	-11.020000	24.410244	0.001003	20.734183
669.177667	-2.987200	3.697100	-11.043000	24.409650	0.001002	20.723629
670.178511	-3.008900	3.696300	-11.119000	24.403700	0.001002	20.757016
671.175281	-2.993900	3.693800	-11.056000	24.428447	0.001002	20.762403
672.176089	-2.975500	3.696500	-10.998000	24.443679	0.001001	20.737380
673.176187	-2.971800	3.695900	-10.982000	24.464061	0.001004	20.737440
674.176895	-2.996700	3.694900	-11.071000	24.455349	0.001003	20.738656
675.180773	-3.006700	3.693800	-11.104000	24.466097	0.001001	20.736164
676.178073	-2.995200	3.693300	-11.061000	24.474434	0.001002	20.755908
677.179214	-3.017100	3.692800	-11.139000	24.484443	0.001001	20.704781
678.176927	-3.004300	3.693700	-11.095000	24.497033	0.001004	20.734010
679.177494	-3.027800	3.692900	-11.181000	24.497773	0.001002	20.736649
680.178370	-3.006100	3.693500	-11.102000	24.491022	0.001001	20.733194
681.177255	-2.999200	3.693400	-11.075000	24.501529	0.001002	20.738521
682.176340	-3.005400	3.692100	-11.094000	24.473270	0.001000	20.738619
683.176637	-3.003700	3.691500	-11.086000	24.463103	0.001000	20.722253
684.178265	-2.998800	3.692300	-11.071000	24.497384	0.001002	20.743846
685.178158	-2.991700	3.691400	-11.043000	24.490660	0.001002	20.736150
686.181231	-2.987600	3.691300	-11.027000	24.486793	0.001000	20.753608
687.178892	-3.000100	3.690200	-11.070000	24.446669	0.001001	20.708610
688.181782	-2.999100	3.690100	-11.065000	24.465731	0.001000	20.717303
689.181683	-3.010600	3.689200	-11.106000	24.468809	0.001000	20.730823
690.182675	-2.965200	3.692200	-10.947000	24.472166	0.000999	20.730872
691.185088	-3.005300	3.690200	-11.089000	24.512931	0.001000	20.724830
692.181375	-3.005500	3.689800	-11.089000	24.514627	0.001000	20.722264
693.184983	-2.987700	3.688600	-11.019000	24.552833	0.000999	20.731200
694.182962	-2.957900	3.689200	-10.911000	24.552785	0.000998	20.737316
695.183759	-3.002800	3.688700	-11.076000	24.574512	0.000999	20.734460
696.184224	-3.000800	3.688600	-11.068000	24.563122	0.000997	20.731566
697.185038	-3.001400	3.687800	-11.068000	24.615419	0.000998	20.714338
698.182640	-2.989400	3.686400	-11.018000	24.602368	0.000998	20.729219
699.182037	-2.997600	3.688100	-11.053000	24.592869	0.000999	20.727274
700.182103	-2.994500	3.687000	-11.039000	24.628709	0.000998	20.719140
701.182930	-3.004200	3.685600	-11.069000	24.596673	0.000998	20.739627
702.184575	-3.012100	3.685300	-11.099000	24.590384	0.000999	20.748016
703.181827	-2.998600	3.687300	-11.055000	24.625826	0.000997	20.729997
704.185101	-3.019100	3.684600	-11.124000	24.615176	0.000997	20.719784
705.181123	-3.014000	3.686300	-11.110000	24.647357	0.000998	20.726946
706.182673	-3.016600	3.685300	-11.117000	24.641287	0.000997	20.721329
707.184000	-3.003300	3.684500	-11.065000	24.666426	0.000995	20.724743
708.183483	-3.008700	3.684900	-11.086000	24.667506	0.000995	20.733888
709.186452	-3.035900	3.682800	-11.180000	24.686020	0.000994	20.722594
710.183409	-3.012100	3.683800	-11.095000	24.673805	0.000995	20.735468
711.183457	-2.992100	3.683500	-11.020000	24.692851	0.000995	20.719966
712.185131	-3.008300	3.683400	-11.080000	24.669407	0.000993	20.724415
713.181933	-3.017100	3.682500	-11.108000	24.656176	0.000995	20.721570
714.182534	-2.969600	3.684900	-10.941000	24.628356	0.000993	20.706930
715.183967	-2.976200	3.684200	-10.964000	24.596890	0.000994	20.720402
716.184549	-2.989100	3.683300	-11.009000	24.604135	0.000994	20.711550
717.185915	-2.973600	3.683600	-10.952000	24.628259	0.000994	20.707781
718.185116	-2.991300	3.682700	-11.015000	24.610823	0.000993	20.720633
719.186117	-3.001900	3.681000	-11.047000	24.607734	0.000992	20.713739
720.185095	-3.006200	3.682400	-11.068000	24.626223	0.000992	20.721386
721.185097	-3.019200	3.680000	-11.110000	24.626561	0.000993	20.692800
722.189098	-2.983800	3.681500	-10.984000	24.617377	0.000992	20.715829
723.187042	-2.989700	3.680500	-11.003000	24.607332	0.000993	20.703852
724.189705	-2.999800	3.679700	-11.037000	24.592416	0.000992	20.706429
725.190066	-2.987500	3.680400	-10.994000	24.561942	0.000989	20.697663
726.186862	-3.024400	3.678700	-11.125000	24.549569	0.000991	20.717967
727.186019	-2.997900	3.680600	-11.033000	24.549677	0.000990	20.697685
728.187985	-2.988000	3.678400	-10.990000	24.536070	0.000990	20.691144
729.190275	-3.002800	3.679400	-11.046000	24.541608	0.000990	20.700969
730.189274	-2.986000	3.678600	-10.983000	24.565477	0.000990	20.709272
731.187532	-2.993200	3.679400	-11.013000	24.586791	0.000989	20.684189
732.186991	-2.977900	3.677900	-10.951000	24.605283	0.000988	20.685673
733.189711	-2.993700	3.677500	-11.009000	24.594085	0.000988	20.687714
734.187487	-2.984500	3.677100	-10.973000	24.602664	0.000991	20.704384
735.189337	-3.003300	3.676200	-11.039000	24.600531	0.000990	20.696079
736.186504	-3.020900	3.675900	-11.103000	24.621420	0.000988	20.685744
737.187303	-2.994400	3.677500	-11.011000	24.644307	0.000989	20.695434
738.190526	-2.994700	3.676000	-11.008000	24.662347	0.000987	20.680344
739.188489	-2.983300	3.677000	-10.969000	24.644961	0.000987	20.705100
740.187827	-3.005100	3.674700	-11.042000	24.638964	0.000988	20.681062
741.188974	-3.000200	3.675900	-11.027000	24.645833	0.000985	20.686533
742.188888	-2.999700	3.674700	-11.021000	24.617057	0.000986	20.685633
743.189831	-3.021300	3.674500	-11.101000	24.617311	0.000985	20.681620
744.193702	-3.000900	3.674500	-11.026000	24.595476	0.000985	20.683420
745.192992	-3.015900	3.673400	-11.077000	24.568068	0.000987	20.687213
746.189279	-3.012600	3.672700	-11.063000	24.552570	0.000987	20.681146
747.191803	-3.025200	3.672800	-11.109000	24.560409	0.000986	20.697074
748.192918	-3.018300	3.671200	-11.080000	24.581154	0.000986	20.701293
749.194842	-3.003600	3.671900	-11.028000	24.584351	0.000984	20.679843
750.191654	-2.991400	3.671800	-10.983000	24.632297	0.000985	20.691443
751.192845	-3.005300	3.672100	-11.034000	24.639699	0.000986	20.685119
752.193276	-3.022400	3.671400	-11.096000	24.685377	0.000984	20.686384
753.192627	-3.000800	3.671900	-11.018000	24.689641	0.000983	20.689715
754.198157	-3.008400	3.671000	-11.043000	24.686333	0.000985	20.679282
755.196150	-2.991300	3.671700	-10.982000	24.712054	0.000984	20.685179
756.193416	-3.013000	3.669200	-11.054000	24.703087	0.000984	20.676180
757.195418	-3.024600	3.669200	-11.097000	24.678433	0.000982	20.681786
758.193537	-3.018300	3.670400	-11.077000	24.664595	0.000980	20.682600
759.195094	-3.000500	3.669800	-11.009000	24.640399	0.000980	20.668750
760.193981	-2.989500	3.669600	-10.969000	24.634874	0.000983	20.675535
761.194792	-2.981100	3.670200	-10.939000	24.637369	0.000983	20.690368
762.195738	-3.005600	3.669100	-11.027000	24.631383	0.000982	20.666342
763.196994	-3.032200	3.668000	-11.120000	24.626293	0.000981	20.680676
764.197395	-2.995400	3.668800	-10.988000	24.633830	0.000982	20.673065
765.200337	-2.972400	3.669900	-10.907000	24.622332	0.000981	20.669114
766.199587	-3.021200	3.667200	-11.077000	24.635404	0.000980	20.664212
767.197289	-2.972300	3.668700	-10.903000	24.629563	0.000978	20.689648
768.198943	-3.001700	3.666800	-11.005000	24.594255	0.000979	20.663700
769.200278	-2.995100	3.668300	-10.986000	24.601076	0.000980	20.672916
770.200993	-2.977700	3.668400	-10.922000	24.609690	0.000980	20.670654
771.200266	-3.015300	3.667300	-11.057000	24.600336	0.000978	20.658422
772.204428	-3.009000	3.666400	-11.031000	24.563779	0.000978	20.690023
773.212423	-3.016600	3.665600	-11.056000	24.558835	0.000979	20.680794
774.202185	-2.981900	3.666700	-10.933000	24.567376	0.000978	20.667551
775.203753	-2.974600	3.667000	-10.906000	24.597898	0.000977	20.669253
776.207210	-2.997600	3.665100	-10.986000	24.599862	0.000980	20.672172
777.201906	-2.987400	3.666500	-10.952000	24.622617	0.000978	20.689316
778.202046	-2.993500	3.665900	-10.973000	24.620400	0.000980	20.685669
779.201159	-3.001000	3.664800	-10.997000	24.636442	0.000978	20.674263
780.203037	-3.005000	3.665300	-11.013000	24.632273	0.000977	20.661070
781.204114	-2.997100	3.663000	-10.976000	24.656626	0.000977	20.668438
782.202723	-2.990700	3.663000	-10.953000	24.682688	0.000979	20.668985
783.208270	-3.019800	3.662600	-11.058000	24.686432	0.000974	20.677011
784.203771	-3.008500	3.662300	-11.018000	24.730737	0.000976	20.684013
785.206002	-2.989000	3.662900	-10.946000	24.757972	0.000974	20.664400
786.210611	-3.018900	3.661400	-11.053000	24.733524	0.000976	20.681119
787.209619	-3.000600	3.661000	-10.985000	24.758639	0.000976	20.677399
788.205902	-3.001100	3.660800	-10.985000	24.774133	0.000975	20.662601
789.207370	-2.995300	3.660800	-10.964000	24.772268	0.000975	20.675903
790.208001	-2.977500	3.661300	-10.900000	24.742974	0.000976	20.667842
791.206499	-2.995300	3.660900	-10.964000	24.724220	0.000975	20.683163
792.209229	-3.014700	3.660400	-11.034000	24.727187	0.000975	20.704160
793.207931	-2.998500	3.660200	-10.974000	24.727406	0.000974	20.661227
794.207923	-3.005800	3.660700	-11.003000	24.729441	0.000975	20.663270
795.208724	-3.020300	3.659900	-11.052000	24.728556	0.000974	20.683247
796.209087	-2.976500	3.660900	-10.895000	24.720415	0.000973	20.671283
797.212127	-2.978300	3.660900	-10.902000	24.711182	0.000972	20.660119
798.208170	-2.994200	3.658900	-10.955000	24.742210	0.000973	20.661385
799.211379	-2.999700	3.657700	-10.971000	24.738551	0.000974	20.654393
800.215662	-2.997400	3.659700	-10.968000	24.742828	0.000972	20.667221
801.208443	-3.001600	3.656900	-10.975000	24.777392	0.000973	20.671088
802.208894	-2.992800	3.657000	-10.943000	24.773285	0.000972	20.659379
803.211918	-3.010500	3.658100	-11.012000	24.764708	0.000973	20.688232
804.210241	-2.984400	3.656900	-10.913000	24.781887	0.000970	20.685084
805.211146	-2.995600	3.657700	-10.955000	24.782881	0.000971	20.681339
806.211783	-2.989900	3.656900	-10.933000	24.810138	0.000971	20.666492
807.211854	-3.000300	3.656800	-10.970000	24.816050	0.000971	20.666736
808.212798	-3.004000	3.656400	-10.983000	24.824760	0.000970	20.691126
809.209281	-3.001200	3.655700	-10.971000	24.840073	0.000971	20.679466
810.212244	-3.013900	3.656000	-11.018000	24.851374	0.000969	20.685593
811.211610	-2.995600	3.656000	-10.952000	24.849692	0.000970	20.671576
812.212891	-3.003000	3.655100	-10.976000	24.859661	0.000969	20.673047
813.215103	-2.992600	3.654900	-10.937000	24.827473	0.000969	20.669665
814.214371	-3.000700	3.653700	-10.963000	24.840254	0.000969	20.674906
815.216181	-2.987300	3.656100	-10.921000	24.843466	0.000967	20.685243
816.213923	-3.008800	3.652900	-10.990000	24.814876	0.000968	20.680732
817.214087	-3.007900	3.653700	-10.989000	24.815602	0.000966	20.691419
818.214814	-3.035500	3.652300	-11.085000	24.820060	0.000966	20.685935
819.220205	-3.042200	3.652200	-11.109000	24.841914	0.000965	20.665666
820.218005	-3.030300	3.651200	-11.063000	24.821623	0.000966	20.684658
821.216812	-3.010200	3.652100	-10.992000	24.820362	0.000966	20.676280
822.218441	-2.995200	3.651600	-10.936000	24.778774	0.000965	20.693814
823.217198	-3.014700	3.651000	-11.006000	24.755804	0.000964	20.666018
824.224108	-2.990900	3.650900	-10.917000	24.759716	0.000966	20.669470
825.217407	-2.998000	3.651300	-10.944000	24.769106	0.000964	20.698811
826.219050	-2.977600	3.650700	-10.869000	24.760043	0.000967	20.660789
827.217771	-2.982200	3.651900	-10.889000	24.766053	0.000965	20.701911
828.218062	-3.017200	3.648800	-11.008000	24.747431	0.000965	20.702190
829.218027	-3.000700	3.650200	-10.952000	24.794255	0.000965	20.687539
830.218375	-2.995500	3.650500	-10.933000	24.779366	0.000964	20.685873
831.218068	-2.983900	3.650200	-10.890000	24.806637	0.000963	20.688585
832.220213	-3.022900	3.648600	-11.028000	24.787943	0.000964	20.692584
833.219414	-3.002300	3.649300	-10.954000	24.771358	0.000963	20.680207
834.218446	-2.985600	3.649200	-10.894000	24.766936	0.000962	20.693313
835.220879	-3.007300	3.647600	-10.968000	24.739726	0.000964	20.685447
836.221211	-3.002800	3.649600	-10.958000	24.737739	0.000962	20.678711
837.219775	-2.971000	3.649400	-10.841000	24.734637	0.000960	20.669433
838.219806	-3.036900	3.646200	-11.071000	24.713957	0.000961	20.678553
839.218029	-2.986200	3.647700	-10.892000	24.708420	0.000960	20.672048
840.224568	-3.031500	3.646200	-11.053000	24.719276	0.000960	20.678675
841.220892	-2.999600	3.647400	-10.940000	24.724873	0.000961	20.685241
842.223350	-3.002700	3.646600	-10.948000	24.702666	0.000960	20.680025
843.220967	-3.023300	3.646000	-11.021000	24.746184	0.000959	20.675332
844.221069	-2.992600	3.647300	-10.913000	24.772098	0.000959	20.691381
845.221467	-3.024100	3.644400	-11.020000	24.756700	0.000959	20.671186
846.225124	-3.005200	3.646000	-10.956000	24.749553	0.000960	20.677290
847.220353	-2.997900	3.645500	-10.928000	24.752339	0.000958	20.694787
848.221334	-2.997900	3.646000	-10.929000	24.767059	0.000957	20.694860
849.223269	-3.013300	3.644000	-10.979000	24.787181	0.000956	20.689923
850.222589	-3.006400	3.643900	-10.953000	24.763123	0.000958	20.701341
851.224956	-2.961600	3.646000	-10.797000	24.783172	0.000955	20.679735
852.224793	-3.016700	3.644100	-10.990000	24.802859	0.000956	20.681000
853.227385	-2.988800	3.643400	-10.889000	24.810818	0.000956	20.705585
854.225677	-2.998700	3.642300	-10.921000	24.822181	0.000958	20.678580
855.226390	-2.992500	3.643000	-10.901000	24.860001	0.000956	20.695676
856.227953	-2.982200	3.644800	-10.869000	24.878777	0.000955	20.700770
857.225687	-3.005300	3.642700	-10.947000	24.898098	0.000955	20.684598
858.224519	-2.990800	3.642200	-10.892000	24.876016	0.000954	20.707482
859.225439	-2.985400	3.642400	-10.874000	24.870843	0.000956	20.698496
860.225487	-3.009600	3.641200	-10.958000	24.835143	0.000953	20.716722
861.230578	-2.958900	3.642800	-10.777000	24.803137	0.000953	20.702144
862.233689	-2.994700	3.641000	-10.903000	24.787424	0.000955	20.702496
863.225545	-3.008800	3.641900	-10.957000	24.780543	0.000953	20.703650
864.224662	-3.008600	3.639400	-10.949000	24.785086	0.000953	20.693985
865.226553	-2.989300	3.640300	-10.881000	24.756908	0.000952	20.711226
866.225686	-2.983300	3.640000	-10.858000	24.765642	0.000952	20.709086
867.229229	-2.989600	3.639800	-10.880000	24.795225	0.000950	20.687563
868.227239	-2.986200	3.639700	-10.868000	24.818909	0.000951	20.708490
869.231300	-2.964400	3.640200	-10.789000	24.857516	0.000952	20.695077
870.226361	-3.001500	3.637600	-10.917000	24.900399	0.000951	20.728636
871.227694	-2.986600	3.638800	-10.867000	24.896727	0.000953	20.707880
872.229907	-3.008900	3.637200	-10.943000	24.879404	0.000950	20.717522
873.228390	-2.996900	3.638000	-10.902000	24.905315	0.000950	20.727881
874.226115	-2.992000	3.637600	-10.881000	24.898882	0.000949	20.717156
875.227225	-2.981600	3.638900	-10.849000	24.906913	0.000949	20.699611
876.228354	-2.991700	3.637000	-10.880000	24.872631	0.000949	20.709775
877.227245	-2.984700	3.636600	-10.852000	24.859500	0.000951	20.712244
878.226751	-2.978400	3.638200	-10.835000	24.856483	0.000949	20.708740
879.227152	-2.976200	3.638000	-10.826000	24.842395	0.000947	20.719259
880.229207	-2.972200	3.636300	-10.805000	24.853321	0.000947	20.726906
881.228572	-2.996300	3.637000	-10.894000	24.893478	0.000948	20.690393
882.228299	-2.994400	3.636500	-10.887000	24.924887	0.000946	20.711962
883.230967	-3.022600	3.634200	-10.983000	24.939772	0.000946	20.686123
884.234277	-2.991800	3.634900	-10.873000	24.963684	0.000948	20.699219
885.227266	-2.980400	3.635500	-10.835000	24.981198	0.000947	20.705419
886.226916	-3.001200	3.634400	-10.906000	25.010849	0.000946	20.696301
887.229270	-2.998500	3.633600	-10.895000	25.014699	0.000945	20.697794
888.232126	-2.993700	3.633800	-10.878000	24.994133	0.000946	20.699910
889.230537	-2.988900	3.635400	-10.865000	24.996120	0.000947	20.713285
890.233066	-2.992400	3.633300	-10.871000	24.956766	0.000945	20.716458
891.230836	-3.008200	3.632700	-10.927000	24.945221	0.000946	20.689221
892.229875	-2.988100	3.632200	-10.852000	24.889003	0.000945	20.726208
893.232672	-3.023900	3.631900	-10.982000	24.875000	0.000945	20.724956
894.232355	-2.983400	3.633600	-10.840000	24.891039	0.000945	20.711180
895.229535	-2.991100	3.633100	-10.866000	24.897240	0.000943	20.711714
896.229628	-3.000700	3.631600	-10.896000	24.926506	0.000943	20.725915
897.229609	-2.991000	3.631400	-10.860000	24.945075	0.000943	20.714207
898.230438	-2.982800	3.631500	-10.831000	24.938424	0.000943	20.714169
899.231853	-3.038700	3.629600	-11.028000	24.948126	0.000943	20.709208
900.232405	-2.989100	3.630800	-10.852000	24.946406	0.000942	20.712698
901.232906	-2.995000	3.630700	-10.873000	24.978105	0.000944	20.699470
902.231813	-3.010800	3.628300	-10.922000	24.984246	0.000940	20.717489
903.231132	-3.004400	3.628900	-10.900000	24.981169	0.000940	20.721513
904.234250	-3.002600	3.629400	-10.896000	24.998731	0.000939	20.727761
905.231131	-3.007600	3.628300	-10.912000	24.973829	0.000940	20.707981
906.231347	-3.002200	3.629800	-10.896000	24.940336	0.000940	20.722253
907.232682	-2.985800	3.629600	-10.835000	24.935468	0.000940	20.741076
908.231382	-3.002600	3.628300	-10.893000	24.971454	0.000939	20.724564
909.231401	-3.022800	3.626900	-10.962000	24.952256	0.000940	20.727105
910.232401	-2.995200	3.627500	-10.863000	24.935649	0.000940	20.730352
911.232588	-3.013900	3.625700	-10.926000	24.894911	0.000939	20.724551
912.232212	-2.998600	3.627200	-10.875000	24.926601	0.000938	20.717476
913.233039	-2.996300	3.626700	-10.865000	24.950148	0.000936	20.765294
914.233247	-3.005800	3.625300	-10.896000	25.004303	0.000937	20.721025
915.232933	-3.009100	3.624500	-10.906000	24.994021	0.000938	20.723507
916.232756	-3.005000	3.625900	-10.896000	24.995535	0.000937	20.719811
917.232189	-3.000800	3.627000	-10.880000	25.015629	0.000935	20.732869
918.240802	-3.003100	3.624800	-10.885000	25.048670	0.000936	20.730948
919.233368	-2.995200	3.624700	-10.856000	25.077326	0.000937	20.740274
920.233510	-3.008900	3.625000	-10.905000	25.131548	0.000936	20.744918
921.234211	-2.995500	3.625100	-10.857000	25.107931	0.000935	20.736383
922.234683	-2.994700	3.624200	-10.852000	25.057439	0.000935	20.717464
923.234658	-3.015800	3.623900	-10.929000	25.110039	0.000935	20.729015
924.235113	-2.992500	3.624400	-10.845000	25.057307	0.000934	20.742937
925.236120	-3.012400	3.622000	-10.909000	25.058554	0.000934	20.718583
926.236361	-3.023700	3.622600	-10.952000	25.044518	0.000933	20.730573
927.236810	-3.014000	3.622400	-10.916000	25.060880	0.000935	20.728980
928.233457	-3.015200	3.622400	-10.922000	25.055903	0.000931	20.711180
929.236722	-3.022600	3.620800	-10.944000	25.094538	0.000932	20.732895
930.235485	-3.039800	3.621600	-11.008000	25.120117	0.000933	20.753832
931.235526	-3.008900	3.620400	-10.892000	25.129952	0.000932	20.740945
932.238449	-3.003600	3.621600	-10.877000	25.128329	0.000932	20.742161
933.235770	-2.992000	3.620300	-10.830000	25.101974	0.000931	20.747473
934.236593	-2.994200	3.619700	-10.837000	25.111204	0.000929	20.743462
935.240708	-2.976400	3.620400	-10.775000	25.129153	0.000931	20.737772
936.237267	-2.999600	3.620000	-10.856000	25.149643	0.000931	20.745066
937.238680	-3.012900	3.619100	-10.904000	25.178139	0.000930	20.734318
938.241214	-3.002800	3.618900	-10.866000	25.151146	0.000929	20.765542
939.238744	-2.991400	3.619500	-10.825000	25.163159	0.000927	20.736824
940.239839	-3.011900	3.617500	-10.894000	25.193192	0.000926	20.744216
941.244392	-3.023600	3.618600	-10.940000	25.204177	0.000929	20.741018
942.241220	-3.005500	3.617900	-10.871000	25.175488	0.000928	20.757262
943.241914	-3.003800	3.617500	-10.865000	25.183371	0.000928	20.750477
944.246010	-3.015100	3.618300	-10.908000	25.159878	0.000925	20.743487
945.242208	-2.983500	3.617900	-10.793000	25.167313	0.000926	20.745736
946.241298	-3.007300	3.617300	-10.877000	25.180551	0.000928	20.750491
947.243698	-3.011700	3.617100	-10.892000	25.187017	0.000924	20.743706
948.241514	-3.010400	3.616500	-10.886000	25.201210	0.000925	20.750369
949.242570	-2.983400	3.617800	-10.793000	25.222706	0.000924	20.752983
950.245976	-2.985000	3.617200	-10.796000	25.242239	0.000925	20.744145
951.242754	-3.000800	3.614900	-10.847000	25.264873	0.000923	20.756912
952.243704	-2.996700	3.616300	-10.836000	25.267790	0.000924	20.753203
953.246747	-2.999700	3.614200	-10.841000	25.276618	0.000924	20.749737
954.243876	-3.043500	3.613300	-10.995000	25.298257	0.000926	20.750127
955.244588	-2.992600	3.614600	-10.816000	25.292809	0.000922	20.762201
956.247103	-2.997100	3.615100	-10.834000	25.285652	0.000923	20.775404
957.244251	-2.982400	3.613400	-10.775000	25.280312	0.000923	20.755817
958.246622	-2.999100	3.612800	-10.834000	25.274391	0.000921	20.764571
959.247723	-2.994700	3.613800	-10.821000	25.283436	0.000920	20.753739
960.245331	-2.987900	3.613100	-10.795000	25.295896	0.000919	20.752498
961.247058	-3.005600	3.612500	-10.856000	25.298017	0.000919	20.757472
962.249707	-3.002900	3.612900	-10.849000	25.309024	0.000920	20.753825
963.247156	-3.018200	3.611300	-10.898000	25.331897	0.000919	20.750238
964.250928	-2.992100	3.611900	-10.806000	25.304010	0.000919	20.764913
965.249718	-2.987100	3.610200	-10.783000	25.290860	0.000918	20.760244
966.250250	-2.994700	3.611400	-10.814000	25.239723	0.000916	20.760585
967.248600	-2.986900	3.611500	-10.785000	25.248176	0.000915	20.762907
968.252179	-2.981600	3.611400	-10.765000	25.232167	0.000917	20.762482
969.248730	-2.990600	3.610300	-10.795000	25.229927	0.000916	20.777303
970.248342	-2.984400	3.609400	-10.771000	25.252377	0.000916	20.763807
971.252234	-2.994100	3.610900	-10.810000	25.252947	0.000916	20.754895
972.249917	-2.996600	3.610600	-10.818000	25.250464	0.000917	20.774688
973.249628	-3.010900	3.609400	-10.866000	25.298030	0.000913	20.762227
974.249375	-3.003700	3.609700	-10.842000	25.273219	0.000915	20.771456
975.251554	-2.994900	3.608800	-10.807000	25.255878	0.000915	20.756889
976.251648	-3.016600	3.607100	-10.880000	25.283511	0.000917	20.762349
977.254855	-2.987800	3.607300	-10.776000	25.296492	0.000914	20.753096
978.251630	-2.981500	3.607900	-10.756000	25.293901	0.000915	20.777996
979.250970	-3.006900	3.606400	-10.843000	25.296141	0.000912	20.794470
980.254923	-2.996400	3.607600	-10.808000	25.330652	0.000912	20.763687
981.251798	-3.026100	3.605800	-10.910000	25.335399	0.000912	20.761815
982.252509	-2.991700	3.606400	-10.789000	25.340545	0.000911	20.785000
983.258638	-3.009900	3.605400	-10.850000	25.341597	0.000911	20.797437
984.253550	-3.012100	3.605700	-10.859000	25.332371	0.000910	20.787699
985.255041	-3.026200	3.605200	-10.908000	25.314099	0.000909	20.762715
986.259130	-2.988600	3.605100	-10.773000	25.320214	0.000910	20.776441
987.256942	-3.012200	3.603500	-10.853000	25.318447	0.000908	20.776563
988.256244	-2.989700	3.604300	-10.775000	25.304231	0.000908	20.792161
989.261234	-2.961700	3.604900	-10.676000	25.274031	0.000909	20.783651
990.256143	-2.973600	3.604800	-10.718000	25.260179	0.000908	20.765950
991.256027	-2.987700	3.603600	-10.765000	25.276368	0.000909	20.762289
992.260321	-2.980200	3.604700	-10.741000	25.278791	0.000907	20.771834
993.259565	-2.978700	3.603700	-10.733000	25.285899	0.000906	20.781342
994.257814	-2.974000	3.604300	-10.718000	25.295465	0.000906	20.780041
995.260765	-2.981500	3.603200	-10.741000	25.314744	0.000907	20.781380
996.259442	-2.988200	3.602000	-10.762000	25.320241	0.000905	20.768881
997.259346	-2.983100	3.603300	-10.747000	25.340353	0.000905	20.794291
998.260901	-3.003400	3.601700	-10.816000	25.314199	0.000903	20.787471
999.260539	-2.987000	3.601100	-10.756000	25.332664	0.000905	20.777088
1000.260108	-3.020900	3.600500	-10.875000	25.342049	0.000903	20.782718
1001.261248	-3.001200	3.600600	-10.805000	25.337546	0.000903	20.795740
1002.262573	-3.011500	3.598300	-10.835000	25.371279	0.000902	20.786463
1003.259478	-3.016100	3.599200	-10.854000	25.377431	0.000903	20.787424
1004.263397	-2.990000	3.600600	-10.765000	25.382261	0.000902	20.796542
1005.262911	-3.027000	3.598100	-10.890000	25.394285	0.000901	20.803873
1006.261640	-3.018500	3.597000	-10.856000	25.416805	0.000899	20.790925
1007.267116	-2.979200	3.598700	-10.720000	25.404322	0.000900	20.785503
1008.265649	-2.991500	3.598800	-10.765000	25.363253	0.000900	20.791206
1009.263812	-2.975600	3.599200	-10.708000	25.359705	0.000899	20.797127
1010.262915	-2.986200	3.598800	-10.746000	25.321430	0.000900	20.789042
1011.263712	-2.968600	3.598500	-10.682000	25.339969	0.000898	20.796276
1012.263492	-3.008000	3.595700	-10.814000	25.371014	0.000899	20.817491
1013.265213	-2.996400	3.597100	-10.777000	25.409603	0.000898	20.796969
1014.269566	-2.993600	3.598000	-10.770000	25.420234	0.000898	20.782988
1015.264871	-2.971500	3.597300	-10.688000	25.439278	0.000895	20.802586
1016.266492	-2.985800	3.596400	-10.737000	25.452124	0.000896	20.814537
1017.265188	-2.980300	3.597500	-10.720000	25.450853	0.000896	20.810890
1018.267045	-3.010600	3.594800	-10.822000	25.469824	0.000896	20.796276
1019.263906	-2.984800	3.596100	-10.730000	25.457305	0.000892	20.792239
1020.271270	-3.007000	3.593700	-10.803000	25.438601	0.000895	20.804276
1021.265156	-3.009200	3.593400	-10.812000	25.394541	0.000894	20.817881
1022.266397	-2.998400	3.593400	-10.773000	25.350927	0.000894	20.806330
1023.266713	-2.994600	3.593400	-10.759000	25.318537	0.000893	20.802732
1024.266839	-2.979000	3.595400	-10.710000	25.340864	0.000893	20.788166
1025.266618	-2.982700	3.592700	-10.715000	25.306294	0.000893	20.803716
1026.267129	-2.992500	3.592300	-10.749000	25.327642	0.000890	20.810926
1027.268311	-2.961000	3.593800	-10.640000	25.340114	0.000891	20.785042
1028.265469	-2.994600	3.591600	-10.754000	25.347476	0.000893	20.806658
1029.267356	-2.989400	3.591600	-10.734000	25.384551	0.000891	20.818756
1030.273396	-2.987200	3.591700	-10.728000	25.397749	0.000889	20.795972
1031.275142	-3.007600	3.592800	-10.804000	25.386173	0.000890	20.793358
1032.269424	-3.000600	3.590200	-10.772000	25.378038	0.000890	20.788508
1033.271891	-2.998200	3.591600	-10.766000	25.364864	0.000889	20.795669
1034.270065	-2.995100	3.590500	-10.753000	25.360493	0.000888	20.790805
1035.272107	-3.000900	3.590900	-10.775000	25.346374	0.000888	20.789431
1036.271620	-3.005400	3.591100	-10.792000	25.320051	0.000888	20.791450
1037.270561	-2.988200	3.590900	-10.729000	25.349742	0.000888	20.803244
1038.274631	-3.036700	3.587200	-10.893000	25.368328	0.000887	20.784448
1039.272399	-2.998400	3.590700	-10.765000	25.372940	0.000888	20.806623
1040.273460	-3.004600	3.588900	-10.782000	25.389165	0.000886	20.775499
1041.273285	-3.010400	3.588000	-10.801000	25.421469	0.000885	20.788496
1042.276838	-2.989400	3.588800	-10.726000	25.412716	0.000883	20.812898
1043.277490	-3.040200	3.586100	-10.900000	25.430527	0.000885	20.791902
1044.274938	-3.011400	3.588100	-10.803000	25.411421	0.000883	20.795476
1045.276021	-2.993300	3.587300	-10.737000	25.431604	0.000884	20.771646
1046.277128	-2.996000	3.587000	-10.746000	25.441908	0.000883	20.786735
1047.275882	-2.998000	3.586700	-10.752000	25.420902	0.000881	20.791246
1048.276590	-2.998100	3.586800	-10.752000	25.453410	0.000882	20.776000
1049.276651	-2.993600	3.586300	-10.735000	25.450820	0.000882	20.787149
1050.278538	-2.982900	3.584800	-10.692000	25.427489	0.000881	20.781739
1051.276625	-3.003300	3.585400	-10.765000	25.458944	0.000879	20.799575
1052.276589	-2.997300	3.585200	-10.745000	25.445227	0.000880	20.776791
1053.288430	-2.984900	3.584800	-10.699000	25.447018	0.000879	20.774323
1054.275759	-2.989600	3.584500	-10.716000	25.479393	0.000877	20.778858
1055.276776	-3.018600	3.583700	-10.815000	25.481452	0.000878	20.782348
1056.278166	-3.016000	3.582600	-10.804000	25.465374	0.000879	20.768099
1057.281501	-2.984900	3.584600	-10.699000	25.439355	0.000878	20.773266
1058.277245	-2.996500	3.583700	-10.737000	25.458993	0.000876	20.774967
1059.279186	-3.007600	3.582200	-10.772000	25.470301	0.000878	20.798177
1060.283731	-2.989700	3.583500	-10.712000	25.496210	0.000874	20.779151
1061.278370	-2.992900	3.582700	-10.722000	25.514673	0.000875	20.761181
1062.282540	-2.995400	3.582100	-10.728000	25.514382	0.000877	20.786968
1063.276110	-2.996900	3.581400	-10.732000	25.525810	0.000873	20.776634
1064.276307	-3.005800	3.581600	-10.765000	25.502554	0.000873	20.779357
1065.278780	-2.992900	3.580900	-10.716000	25.495471	0.000873	20.772244
1066.277691	-3.005800	3.581300	-10.762000	25.500277	0.000876	20.767587
1067.279217	-2.987100	3.581100	-10.696000	25.489260	0.000872	20.774542
1068.279923	-3.011400	3.580200	-10.780000	25.464187	0.000872	20.770700
1069.279810	-2.984100	3.578800	-10.679000	25.491718	0.000873	20.776062
1070.278476	-3.003500	3.578900	-10.748000	25.468401	0.000872	20.790105
1071.280361	-2.995400	3.578600	-10.719000	25.458437	0.000870	20.772038
1072.280095	-3.008100	3.577500	-10.761000	25.453232	0.000871	20.768234
1073.281636	-2.963200	3.579800	-10.606000	25.434260	0.000869	20.780952
1074.282530	-3.008100	3.577400	-10.760000	25.417297	0.000870	20.762969
1075.281395	-2.981800	3.578400	-10.670000	25.417696	0.000871	20.760999
1076.291016	-2.983600	3.577200	-10.673000	25.441608	0.000868	20.763674
1077.283752	-3.005300	3.576700	-10.747000	25.438667	0.000867	20.768307
1078.282947	-2.993700	3.577500	-10.708000	25.400384	0.000866	20.777755
1079.285776	-2.984900	3.577800	-10.678000	25.379170	0.000866	20.751237
1080.285380	-3.018700	3.576400	-10.796000	25.383069	0.000866	20.732866
1081.281534	-3.008800	3.575800	-10.757000	25.410348	0.000867	20.753147
1082.283322	-3.016900	3.574100	-10.781000	25.405046	0.000867	20.752564
1083.286554	-2.998400	3.574300	-10.715000	25.409247	0.000864	20.781914
1084.283415	-3.021700	3.574100	-10.799000	25.424152	0.000864	20.771750
1085.284505	-2.982400	3.574900	-10.660000	25.455535	0.000865	20.749210
1086.286666	-3.028200	3.574100	-10.822000	25.471929	0.000863	20.741016
1087.282358	-2.998200	3.574700	-10.717000	25.450838	0.000863	20.751131
1088.284957	-3.002300	3.574700	-10.731000	25.463587	0.000862	20.735957
1089.289262	-2.999000	3.574400	-10.719000	25.462618	0.000862	20.758693
1090.283759	-2.982800	3.573300	-10.658000	25.482293	0.000862	20.759484
1091.282193	-3.018300	3.572100	-10.780000	25.529738	0.000862	20.771094
1092.283229	-3.001000	3.572500	-10.720000	25.515948	0.000860	20.743495
1093.285434	-3.002900	3.571500	-10.724000	25.529484	0.000859	20.770365
1094.283924	-3.015300	3.570900	-10.766000	25.537014	0.000858	20.753745
1095.283936	-3.005900	3.571900	-10.736000	25.565634	0.000859	20.754512
1096.285439	-3.012900	3.572100	-10.761000	25.577413	0.000860	20.752117
1097.284637	-3.008300	3.570200	-10.739000	25.605449	0.000858	20.737599
1098.284924	-3.012200	3.570700	-10.754000	25.621959	0.000860	20.736163
1099.285999	-3.001400	3.570800	-10.717000	25.630373	0.000858	20.739398
1100.288423	-3.021400	3.569900	-10.785000	25.619563	0.000858	20.747034
1101.286158	-3.013900	3.569200	-10.756000	25.612919	0.000855	20.745102
1102.287867	-2.991400	3.570500	-10.680000	25.615835	0.000856	20.755618
1103.286058	-3.013900	3.569200	-10.757000	25.587411	0.000856	20.740821
1104.287617	-3.023800	3.569000	-10.791000	25.600970	0.000854	20.748275
1105.287302	-2.993500	3.569300	-10.684000	25.616367	0.000853	20.737185
1106.289305	-3.032500	3.566000	-10.813000	25.611125	0.000853	20.755154
1107.288663	-3.012100	3.566900	-10.743000	25.558525	0.000854	20.753537
1108.289513	-3.012500	3.568300	-10.748000	25.512182	0.000855	20.743032
1109.289353	-3.020500	3.566400	-10.772000	25.464615	0.000850	20.720393
1110.289861	-2.986300	3.569000	-10.658000	25.479724	0.000854	20.742680
1111.292640	-3.015400	3.565800	-10.752000	25.492181	0.000852	20.741439
1112.288178	-2.989500	3.566800	-10.661000	25.487290	0.000852	20.744113
1113.290403	-3.017300	3.566900	-10.761000	25.516213	0.000851	20.741864
1114.288506	-3.005100	3.565700	-10.713000	25.548052	0.000850	20.737803
1115.296557	-3.013600	3.565500	-10.743000	25.530232	0.000849	20.739347
1116.290607	-3.009000	3.564300	-10.724000	25.544445	0.000848	20.744138
1117.291551	-3.001900	3.565500	-10.701000	25.542386	0.000847	20.747760
1118.290655	-3.005500	3.564300	-10.712000	25.552652	0.000846	20.746216
1119.290925	-2.992300	3.563600	-10.662000	25.563522	0.000846	20.741485
1120.293348	-3.029100	3.562700	-10.790000	25.591075	0.000847	20.735017
1121.292470	-3.010900	3.563800	-10.728000	25.600771	0.000847	20.733850
1122.293694	-2.998700	3.563900	-10.686000	25.628130	0.000845	20.723393
1123.293921	-3.001300	3.562100	-10.690000	25.630296	0.000846	20.740743
1124.294553	-2.995800	3.562300	-10.672000	25.656116	0.000845	20.719733
1125.296458	-3.003000	3.564100	-10.701000	25.656248	0.000842	20.766809
1126.298303	-3.013800	3.561000	-10.731000	25.646588	0.000844	20.734346
1127.295071	-2.996400	3.562300	-10.673000	25.675919	0.000843	20.732037
1128.295610	-3.042900	3.559600	-10.830000	25.690637	0.000841	20.734018
1129.299434	-2.996400	3.561000	-10.669000	25.702413	0.000842	20.704592
1130.295334	-3.012000	3.559000	-10.719000	25.733062	0.000844	20.738224
1131.296669	-3.003400	3.560900	-10.693000	25.729768	0.000839	20.742977
1132.303179	-3.009300	3.559200	-10.710000	25.746617	0.000840	20.715802
1133.300487	-3.013800	3.559700	-10.728000	25.706613	0.000839	20.718769
1134.299054	-3.000700	3.559900	-10.681000	25.712750	0.000840	20.737736
1135.302383	-2.993100	3.559800	-10.654000	25.687948	0.000839	20.713298
1136.300102	-3.015800	3.558000	-10.730000	25.681822	0.000839	20.714732
1137.300527	-2.989000	3.560600	-10.641000	25.690719	0.000838	20.720349
1138.301559	-3.007500	3.557400	-10.698000	25.666195	0.000837	20.756411
1139.301071	-2.994400	3.558100	-10.653000	25.679074	0.000838	20.728567
1140.299421	-3.019000	3.556800	-10.736000	25.676907	0.000837	20.720701
1141.304407	-2.973300	3.557200	-10.576000	25.693247	0.000837	20.710085
1142.302406	-3.007100	3.556600	-10.694000	25.656147	0.000836	20.720238
1143.300406	-3.018700	3.554500	-10.728000	25.642032	0.000835	20.701793
1144.304310	-3.024200	3.555900	-10.752000	25.631295	0.000835	20.725625
1145.302849	-3.008200	3.554300	-10.691000	25.666484	0.000833	20.703593
1146.301854	-2.996900	3.555800	-10.655000	25.651267	0.000832	20.716285
1147.308830	-2.992500	3.556100	-10.640000	25.663347	0.000833	20.696174
1148.302797	-3.008400	3.554300	-10.692000	25.648580	0.000832	20.735399
1149.301030	-2.998300	3.555100	-10.658000	25.618438	0.000835	20.711763
1150.308236	-2.973100	3.557100	-10.575000	25.635035	0.000832	20.709939
1151.305146	-2.989300	3.554000	-10.623000	25.626246	0.000832	20.712017
1152.302309	-3.009000	3.553600	-10.692000	25.631342	0.000831	20.734207
1153.306499	-2.996700	3.553100	-10.646000	25.602494	0.000830	20.694326
1154.304497	-2.989000	3.553100	-10.620000	25.582630	0.000828	20.701878
1155.303497	-2.990900	3.553300	-10.627000	25.597544	0.000828	20.717331
1156.307295	-2.987600	3.552500	-10.611000	25.601950	0.000828	20.717962
1157.305305	-2.996600	3.551500	-10.641000	25.599602	0.000827	20.701379
1158.304811	-3.014600	3.551400	-10.705000	25.633460	0.000828	20.705512
1159.312992	-2.982600	3.552800	-10.595000	25.655964	0.000826	20.697293
1160.305995	-2.993700	3.551300	-10.630000	25.634671	0.000827	20.678276
1161.305995	-2.997300	3.551300	-10.643000	25.623195	0.000826	20.713695
1162.308279	-3.000700	3.549200	-10.649000	25.651437	0.000825	20.712662
1163.310236	-2.978800	3.551800	-10.578000	25.665586	0.000825	20.690362
1164.308791	-2.974500	3.549800	-10.556000	25.656811	0.000823	20.698144
1165.311790	-2.995400	3.549100	-10.630000	25.673164	0.000823	20.707457
1166.311790	-2.987600	3.548200	-10.600000	25.682678	0.000823	20.701840
1167.309791	-3.002200	3.549200	-10.654000	25.672970	0.000824	20.701572
1168.313792	-3.000800	3.548900	-10.648000	25.679568	0.000822	20.720054
1169.309188	-2.996400	3.547800	-10.630000	25.668880	0.000821	20.697938
1170.309878	-3.004100	3.548900	-10.658000	25.675621	0.000821	20.677206
1171.312878	-2.995000	3.547000	-10.622000	25.694335	0.000820	20.707384
1172.312879	-3.007500	3.548100	-10.670000	25.703522	0.000820	20.691007
1173.310880	-2.975300	3.547100	-10.552000	25.714453	0.000820	20.686812
1174.312879	-2.990400	3.547400	-10.606000	25.709853	0.000820	20.704479
1175.310878	-2.991500	3.547100	-10.610000	25.738588	0.000818	20.707262
1176.310878	-2.999100	3.546300	-10.634000	25.710590	0.000818	20.716600
1177.311879	-2.996000	3.544600	-10.619000	25.725273	0.000819	20.694836
1178.311878	-3.004800	3.544300	-10.649000	25.759817	0.000817	20.683539
1179.311879	-2.986500	3.545300	-10.587000	25.761257	0.000818	20.684512
1180.313879	-2.985000	3.544400	-10.579000	25.738296	0.000816	20.681363
1181.311879	-3.006300	3.543200	-10.651000	25.706606	0.000815	20.681775
1182.311879	-3.013300	3.543200	-10.675000	25.692965	0.000816	20.714543
1183.313881	-3.003500	3.543500	-10.642000	25.701195	0.000814	20.676340
1184.311879	-3.010800	3.542800	-10.666000	25.693521	0.000813	20.689496
1185.311882	-2.984000	3.544600	-10.576000	25.695603	0.000812	20.684949
1186.320879	-3.008600	3.542500	-10.656000	25.659749	0.000814	20.685921
1187.313881	-3.007700	3.542500	-10.654000	25.677966	0.000814	20.704694
1188.315880	-3.001000	3.543700	-10.634000	25.683691	0.000812	20.696693
1189.315877	-2.976100	3.542500	-10.541000	25.654095	0.000812	20.680716
1190.314877	-2.994200	3.541900	-10.604000	25.679480	0.000812	20.700998
1191.313879	-3.003900	3.542200	-10.640000	25.681695	0.000811	20.680936
1192.313879	-2.992800	3.541100	-10.597000	25.695784	0.000810	20.704098
1193.313878	-2.998100	3.540000	-10.613000	25.701570	0.000810	20.680984
1194.315882	-3.000900	3.540700	-10.624000	25.697262	0.000809	20.688512
1195.315879	-3.007500	3.540100	-10.646000	25.683256	0.000807	20.660691
1196.316881	-3.001700	3.539100	-10.621000	25.689817	0.000809	20.673920
1197.316878	-2.993100	3.538600	-10.590000	25.670365	0.000809	20.675245
1198.316879	-2.976000	3.540800	-10.536000	25.630201	0.000807	20.671890
1199.320878	-3.001300	3.538800	-10.621000	25.597976	0.000807	20.666552
1200.319879	-2.990300	3.537800	-10.577000	25.607322	0.000805	20.681155
1201.320879	-2.991500	3.537500	-10.581000	25.639546	0.000806	20.685070
1202.318882	-2.998200	3.537200	-10.603000	25.641483	0.000806	20.681326
1203.316881	-2.976300	3.537900	-10.528000	25.673089	0.000806	20.655220
1204.315877	-2.995700	3.536100	-10.592000	25.643288	0.000806	20.683612
1205.319885	-2.976500	3.536300	-10.525000	25.645756	0.000804	20.678505
1206.316879	-3.025100	3.534400	-10.691000	25.646908	0.000803	20.676342
1207.317878	-3.012800	3.536800	-10.655000	25.673623	0.000804	20.688476
1208.321334	-3.017300	3.535200	-10.665000	25.682471	0.000803	20.669386
1209.318057	-3.003600	3.532900	-10.610000	25.697758	0.000801	20.669094
1210.318285	-2.976000	3.535900	-10.522000	25.701559	0.000803	20.663428
1211.322488	-3.010800	3.533900	-10.639000	25.723541	0.000800	20.682664
1212.320503	-2.992500	3.536000	-10.581000	25.698522	0.000798	20.662747
1213.320279	-2.990100	3.533600	-10.564000	25.734688	0.000799	20.679161
1214.322762	-2.999300	3.533800	-10.597000	25.723565	0.000800	20.667040
1215.323828	-2.975200	3.534900	-10.515000	25.742000	0.000798	20.685084
1216.325667	-2.999800	3.533300	-10.597000	25.747702	0.000797	20.677060
1217.326880	-3.009800	3.532600	-10.631000	25.756331	0.000798	20.668657
1218.322578	-3.004600	3.532300	-10.612000	25.749251	0.000800	20.675296
1219.328083	-2.993100	3.530800	-10.567000	25.735343	0.000797	20.674128
1220.325397	-3.002200	3.531400	-10.601000	25.729896	0.000796	20.665812
1221.324806	-3.006100	3.532300	-10.617000	25.705870	0.000796	20.676767
1222.326640	-2.987200	3.531500	-10.548000	25.691513	0.000794	20.668511
1223.328676	-2.982500	3.529000	-10.524000	25.729400	0.000796	20.672901
1224.327286	-3.013200	3.528700	-10.631000	25.682144	0.000795	20.657677
1225.333343	-3.019400	3.529800	-10.657000	25.666299	0.000794	20.664522
1226.330389	-2.978100	3.530300	-10.511000	25.653455	0.000791	20.683867
1227.327506	-3.007800	3.528400	-10.612000	25.674397	0.000793	20.663647
1228.328607	-2.997100	3.529500	-10.578000	25.656385	0.000789	20.660729
1229.331398	-2.996900	3.528300	-10.573000	25.686356	0.000791	20.671866
1230.329995	-2.989600	3.526800	-10.542000	25.673985	0.000792	20.670346
1231.330650	-2.983300	3.527600	-10.522000	25.681986	0.000791	20.690712
1232.335290	-3.002500	3.525700	-10.585000	25.631229	0.000790	20.679088
1233.332830	-2.998200	3.525500	-10.569000	25.592262	0.000790	20.655597
1234.333040	-3.002700	3.526300	-10.587000	25.556017	0.000789	20.665664
1235.338802	-2.985400	3.526700	-10.528000	25.571041	0.000787	20.666528
1236.337025	-2.993000	3.527300	-10.556000	25.557565	0.000787	20.657261
1237.334273	-2.997100	3.525200	-10.564000	25.589719	0.000786	20.678175
1238.337887	-3.004100	3.525800	-10.591000	25.618385	0.000788	20.643899
1239.337233	-2.992100	3.524600	-10.544000	25.606752	0.000785	20.666357
1240.335863	-3.002000	3.525500	-10.582000	25.617247	0.000787	20.677847
1241.341228	-3.000300	3.523900	-10.571000	25.634073	0.000786	20.654440
1242.338930	-2.995000	3.522900	-10.550000	25.631556	0.000784	20.671354
1243.337279	-2.995200	3.524100	-10.554000	25.642862	0.000783	20.659949
1244.341538	-2.992200	3.523400	-10.541000	25.638842	0.000783	20.667292
1245.342018	-3.011500	3.521500	-10.604000	25.691015	0.000782	20.682236
1246.340174	-2.992000	3.522300	-10.538000	25.690748	0.000782	20.653516
1247.342038	-3.011200	3.521900	-10.604000	25.705261	0.000782	20.665249
1248.345814	-3.007000	3.522500	-10.591000	25.727402	0.000782	20.670893
1249.340461	-3.013500	3.519700	-10.606000	25.701460	0.000781	20.657163
1250.344163	-2.986000	3.520900	-10.513000	25.661298	0.000779	20.652386
1251.343311	-3.015100	3.521000	-10.615000	25.666286	0.000782	20.692961
1252.342425	-2.995500	3.521100	-10.546000	25.685266	0.000781	20.660813
1253.345789	-3.010100	3.519100	-10.591000	25.707054	0.000780	20.673690
1254.344776	-2.973900	3.520800	-10.469000	25.686936	0.000776	20.662016
1255.344510	-3.007800	3.518000	-10.580000	25.695773	0.000778	20.684171
1256.344816	-2.993300	3.518700	-10.531000	25.689418	0.000779	20.694384
1257.342528	-2.999500	3.516800	-10.547000	25.690629	0.000777	20.658612
1258.343792	-2.992900	3.517700	-10.527000	25.714451	0.000774	20.690129
1259.346810	-2.973400	3.518100	-10.459000	25.687675	0.000776	20.676985
1260.343908	-3.007600	3.515600	-10.572000	25.713663	0.000776	20.683174
1261.345163	-3.006800	3.517000	-10.574000	25.705179	0.000775	20.671332
1262.345695	-2.989300	3.516000	-10.509000	25.743306	0.000774	20.661737
1263.348083	-3.004800	3.517300	-10.567000	25.723722	0.000775	20.668145
1264.347412	-3.014800	3.514400	-10.595000	25.724448	0.000775	20.686420
1265.349773	-3.023100	3.513700	-10.621000	25.728478	0.000773	20.677665
1266.345209	-3.004700	3.514500	-10.558000	25.731796	0.000773	20.671514
1267.345355	-3.016800	3.513200	-10.598000	25.730355	0.000771	20.685241
1268.356523	-2.983700	3.515300	-10.486000	25.753909	0.000771	20.679976
1269.346099	-2.989500	3.513700	-10.503000	25.778674	0.000770	20.665969
1270.345313	-3.010800	3.513500	-10.577000	25.794553	0.000771	20.663428
1271.350942	-3.006800	3.514700	-10.567000	25.806632	0.000770	20.687417
1272.344670	-2.993700	3.513300	-10.517000	25.778105	0.000769	20.687211
1273.346581	-2.999200	3.511300	-10.530000	25.766703	0.000770	20.696622
1274.352032	-2.995400	3.511800	-10.518000	25.761899	0.000768	20.675673
1275.347158	-2.999800	3.512500	-10.536000	25.757977	0.000767	20.674578
1276.347060	-2.978200	3.512500	-10.460000	25.732729	0.000765	20.694738
1277.354603	-3.003400	3.511400	-10.544000	25.706064	0.000766	20.677911
1278.350635	-2.998400	3.509900	-10.523000	25.688330	0.000766	20.665313
1279.348191	-3.003200	3.510400	-10.540000	25.688923	0.000766	20.663064
1280.351293	-2.997100	3.510500	-10.520000	25.672970	0.000767	20.688294
1281.358137	-3.007200	3.510000	-10.554000	25.689965	0.000764	20.679285
1282.351568	-2.993800	3.510300	-10.508000	25.706838	0.000765	20.683431
1283.357133	-3.003600	3.508500	-10.537000	25.713846	0.000764	20.677193
1284.353671	-2.999700	3.508100	-10.523000	25.707310	0.000763	20.683905
1285.353003	-2.997500	3.508400	-10.516000	25.723724	0.000763	20.700393
1286.353901	-3.003900	3.507900	-10.536000	25.714876	0.000760	20.690557
1287.355510	-2.994300	3.507800	-10.503000	25.735634	0.000762	20.672050
1288.353574	-3.012900	3.506900	-10.565000	25.721993	0.000761	20.685376
1289.356384	-3.015200	3.506900	-10.574000	25.777695	0.000761	20.696757
1290.354524	-2.994300	3.507000	-10.500000	25.765047	0.000761	20.668877
1291.354353	-3.004500	3.505800	-10.532000	25.758546	0.000760	20.693169
1292.357161	-2.982100	3.505800	-10.454000	25.751902	0.000758	20.698350
1293.357766	-2.997800	3.506500	-10.511000	25.746394	0.000758	20.669581
1294.353966	-2.993600	3.505300	-10.492000	25.768327	0.000759	20.690665
1295.359083	-3.000700	3.504500	-10.515000	25.772732	0.000757	20.685607
1296.357764	-3.002000	3.502500	-10.513000	25.819959	0.000755	20.676147
1297.356377	-3.011100	3.503100	-10.547000	25.813254	0.000756	20.697863
1298.358725	-2.990500	3.504000	-10.478000	25.808630	0.000755	20.699857
1299.359615	-2.988700	3.501900	-10.465000	25.784508	0.000756	20.679892
1300.358078	-3.009900	3.503200	-10.543000	25.774474	0.000754	20.693048
1301.362408	-2.990200	3.503100	-10.474000	25.773166	0.000752	20.691259
1302.359640	-3.002500	3.500800	-10.511000	25.792096	0.000754	20.695102
1303.359460	-2.978600	3.501300	-10.428000	25.795497	0.000754	20.696148
1304.365422	-3.008500	3.501200	-10.532000	25.789844	0.000752	20.686675
1305.362779	-2.988100	3.503300	-10.467000	25.774982	0.000751	20.707783
1306.360984	-3.004800	3.502100	-10.522000	25.780028	0.000751	20.710482
1307.362569	-3.003800	3.500500	-10.514000	25.753025	0.000751	20.693788
1308.363139	-2.981800	3.501200	-10.438000	25.777426	0.000751	20.700280
1309.362291	-2.996300	3.499100	-10.484000	25.778831	0.000750	20.698372
1310.362183	-2.978500	3.501300	-10.428000	25.809839	0.000748	20.698226
1311.362720	-2.994200	3.499500	-10.477000	25.783344	0.000750	20.673506
1312.361175	-3.011000	3.497600	-10.530000	25.824617	0.000749	20.697424
1313.362558	-3.017300	3.497000	-10.551000	25.829761	0.000748	20.693582
1314.364324	-2.999100	3.498000	-10.489000	25.827134	0.000748	20.698055
1315.366263	-3.019700	3.496400	-10.556000	25.802311	0.000748	20.682128
1316.365910	-2.995400	3.497200	-10.475000	25.779859	0.000745	20.693715
1317.365408	-2.975200	3.498100	-10.407000	25.761837	0.000747	20.709753
1318.368268	-2.988700	3.498000	-10.453000	25.748498	0.000745	20.700147
1319.366501	-3.013700	3.495300	-10.533000	25.748657	0.000747	20.704574
1320.366481	-3.005800	3.493800	-10.499000	25.760313	0.000744	20.690202
1321.366459	-2.994100	3.496600	-10.467000	25.760785	0.000745	20.694470
1322.367926	-2.982700	3.495300	-10.424000	25.751598	0.000746	20.698993
1323.367164	-2.988600	3.494700	-10.443000	25.786094	0.000744	20.715627
1324.366094	-2.991200	3.493600	-10.448000	25.795597	0.000742	20.686289
1325.368262	-2.996400	3.494000	-10.468000	25.769621	0.000745	20.694337
1326.369602	-2.998500	3.493800	-10.474000	25.789363	0.000743	20.707056
1327.366847	-3.003600	3.492200	-10.488000	25.767952	0.000741	20.695505
1328.366881	-3.004400	3.491700	-10.489000	25.765060	0.000741	20.694971
1329.366806	-3.011600	3.492400	-10.517000	25.767129	0.000740	20.702265
1330.367391	-2.982500	3.492000	-10.414000	25.766282	0.000741	20.699518
1331.367083	-2.991700	3.492400	-10.446000	25.783469	0.000741	20.720103
1332.367301	-3.019200	3.490900	-10.539000	25.781242	0.000737	20.706959
1333.368018	-3.012600	3.490900	-10.515000	25.780564	0.000740	20.694424
1334.367045	-2.980600	3.490500	-10.402000	25.802194	0.000738	20.702875
1335.367450	-2.990600	3.490000	-10.435000	25.771668	0.000738	20.708722
1336.367157	-3.004700	3.489200	-10.482000	25.729475	0.000738	20.692418
1337.366587	-3.000900	3.489400	-10.470000	25.778290	0.000737	20.704942
1338.367929	-3.015800	3.488400	-10.519000	25.769891	0.000737	20.714523
1339.369484	-2.992900	3.489200	-10.442000	25.808646	0.000736	20.716943
1340.367299	-3.005400	3.487500	-10.479000	25.804543	0.000735	20.709502
1341.370582	-2.990200	3.487600	-10.428000	25.807254	0.000735	20.692310
1342.368221	-3.017200	3.486400	-10.519000	25.817579	0.000734	20.725917
1343.369282	-2.997500	3.487300	-10.451000	25.818124	0.000733	20.716032
1344.370052	-2.989900	3.486900	-10.424000	25.810088	0.000734	20.717444
1345.372231	-2.984900	3.486700	-10.406000	25.809592	0.000732	20.708884
1346.372658	-2.999900	3.486200	-10.457000	25.791787	0.000732	20.706172
1347.373436	-3.011600	3.485700	-10.496000	25.794886	0.000732	20.711182
1348.373147	-3.010600	3.485100	-10.491000	25.821538	0.000733	20.731317
1349.373470	-3.007200	3.484600	-10.477000	25.835057	0.000731	20.705066
1350.374181	-3.003500	3.484000	-10.462000	25.842949	0.000730	20.723427
1351.373179	-3.008600	3.482500	-10.476000	25.859045	0.000729	20.717311
1352.375225	-2.991300	3.483300	-10.419000	25.875007	0.000730	20.705370
1353.373547	-2.994900	3.482800	-10.430000	25.914099	0.000729	20.713821
1354.372527	-2.969300	3.483700	-10.342000	25.916083	0.000728	20.714393
1355.374374	-2.990400	3.481700	-10.411000	25.921869	0.000728	20.714040
1356.374790	-2.959000	3.482900	-10.305000	25.904176	0.000727	20.736097
1357.373672	-3.011800	3.481300	-10.484000	25.875759	0.000728	20.714187
1358.372855	-3.005900	3.481400	-10.464000	25.845479	0.000727	20.729287
1359.374892	-2.961700	3.482500	-10.313000	25.867336	0.000727	20.724692
1360.375819	-2.987300	3.481300	-10.399000	25.889277	0.000724	20.718758
1361.377306	-3.007800	3.478900	-10.462000	25.879560	0.000724	20.717530
1362.376835	-3.004900	3.479600	-10.455000	25.920053	0.000726	20.710320
1363.377754	-3.006400	3.479700	-10.460000	25.900702	0.000724	20.706052
1364.378657	-3.000500	3.479400	-10.439000	25.883106	0.000723	20.712084
1365.376342	-3.003400	3.479100	-10.448000	25.882815	0.000724	20.715585
1366.376617	-3.001800	3.479300	-10.443000	25.869575	0.000722	20.713190
1367.378042	-2.989400	3.478100	-10.396000	25.864323	0.000722	20.735890
1368.378591	-3.015900	3.478000	-10.488000	25.868377	0.000722	20.732376
1369.380019	-2.990300	3.476200	-10.394000	25.871465	0.000721	20.723150
1370.378336	-3.000700	3.476000	-10.429000	25.856941	0.000720	20.723258
1371.377986	-3.010600	3.476200	-10.465000	25.829384	0.000721	20.733983
1372.381157	-3.005000	3.476000	-10.445000	25.808785	0.000721	20.725618
1373.381091	-3.016000	3.475300	-10.481000	25.762622	0.000719	20.744683
1374.380095	-2.991800	3.474300	-10.393000	25.738936	0.000719	20.726580
1375.380724	-2.997800	3.475800	-10.419000	25.730113	0.000720	20.764660
1376.384171	-2.998800	3.475100	-10.420000	25.756270	0.000720	20.714592
1377.383108	-2.992800	3.474300	-10.396000	25.798899	0.000718	20.738448
1378.383101	-2.988900	3.475000	-10.385000	25.837337	0.000716	20.723006
1379.381938	-3.010900	3.472900	-10.455000	25.848509	0.000717	20.711942
1380.382957	-3.000000	3.472100	-10.415000	25.870609	0.000715	20.741257
1381.383190	-2.990400	3.473800	-10.387000	25.852093	0.000716	20.742097
1382.382349	-2.990900	3.470400	-10.379000	25.863082	0.000716	20.750765
1383.382920	-2.985700	3.471800	-10.364000	25.840185	0.000716	20.726815
1384.382470	-2.992400	3.471700	-10.388000	25.849747	0.000712	20.752068
1385.381778	-2.997200	3.470900	-10.402000	25.830818	0.000712	20.732578
1386.381309	-3.016700	3.470000	-10.465000	25.853959	0.000713	20.727375
1387.381488	-2.997100	3.470300	-10.400000	25.891320	0.000713	20.746890
1388.384402	-2.993200	3.470200	-10.386000	25.926211	0.000715	20.733103
1389.382519	-2.990500	3.469400	-10.374000	25.920354	0.000712	20.741443
1390.382923	-2.999500	3.470800	-10.409000	25.933666	0.000712	20.748179
1391.383073	-3.005800	3.469900	-10.429000	25.928123	0.000712	20.734550
1392.382731	-3.018800	3.469600	-10.473000	25.894238	0.000712	20.743657
1393.386112	-2.997200	3.468500	-10.395000	25.865023	0.000710	20.730903
1394.383037	-2.980500	3.468900	-10.339000	25.849145	0.000712	20.755731
1395.386578	-2.989800	3.468700	-10.369000	25.891503	0.000711	20.746125
1396.383301	-2.965100	3.467600	-10.280000	25.872817	0.000708	20.750114
1397.386643	-2.998900	3.465500	-10.391000	25.871717	0.000708	20.742844
1398.383934	-2.992200	3.465600	-10.369000	25.871172	0.000708	20.754151
1399.389899	-2.970800	3.465400	-10.293000	25.900363	0.000707	20.732266
1400.386492	-3.006200	3.464000	-10.412000	25.899661	0.000706	20.749580
1401.386032	-3.001800	3.463300	-10.395000	25.855342	0.000705	20.767647
1402.386018	-3.008600	3.465400	-10.425000	25.820546	0.000706	20.752132
1403.385612	-3.007200	3.462500	-10.412000	25.820643	0.000705	20.754601
1404.386965	-2.992000	3.463100	-10.360000	25.845430	0.000706	20.765750
1405.386741	-2.988100	3.463600	-10.349000	25.866889	0.000703	20.752219
1406.385326	-2.993500	3.463200	-10.367000	25.875131	0.000705	20.752438
1407.389194	-2.983900	3.462500	-10.330000	25.858428	0.000703	20.746564
1408.385548	-3.012000	3.460400	-10.422000	25.875833	0.000702	20.748401
1409.386407	-2.998300	3.461500	-10.377000	25.870835	0.000702	20.751915
1410.386906	-3.011500	3.460400	-10.420000	25.859046	0.000701	20.757142
1411.387159	-2.997800	3.460100	-10.371000	25.866900	0.000701	20.767403
1412.386774	-3.014400	3.459000	-10.424000	25.878519	0.000702	20.733081
1413.385923	-3.035900	3.458500	-10.497000	25.839294	0.000703	20.766699
1414.387367	-3.012500	3.459500	-10.421000	25.819494	0.000702	20.759136
1415.387674	-2.959800	3.460400	-10.241000	25.799353	0.000699	20.746491
1416.387631	-2.983100	3.460300	-10.321000	25.816975	0.000700	20.772728
1417.388410	-3.013800	3.457700	-10.420000	25.850622	0.000699	20.764802
1418.388548	-3.004400	3.458000	-10.388000	25.882778	0.000698	20.762017
1419.387843	-2.993600	3.458000	-10.349000	25.908907	0.000699	20.768826
1420.389061	-2.983500	3.457600	-10.314000	25.956794	0.000697	20.770468
1421.390285	-3.001500	3.457200	-10.376000	25.953588	0.000696	20.778152
1422.390591	-3.022000	3.457000	-10.446000	25.958620	0.000696	20.774673
1423.391628	-2.999400	3.457400	-10.369000	25.951662	0.000695	20.768157
1424.393655	-2.991700	3.456100	-10.337000	25.975055	0.000696	20.768425
1425.392473	-2.983700	3.457000	-10.313000	25.991560	0.000696	20.762721
1426.393386	-3.013700	3.454600	-10.410000	26.010305	0.000695	20.763063
1427.391769	-3.022500	3.454400	-10.440000	25.994828	0.000694	20.770747
1428.391371	-3.013800	3.454300	-10.410000	25.995481	0.000693	20.765238
1429.392715	-3.008800	3.452500	-10.386000	26.015497	0.000693	20.774443
1430.392426	-2.994400	3.453300	-10.339000	26.053469	0.000695	20.773239
1431.393958	-3.005000	3.453000	-10.376000	26.024536	0.000691	20.789689
1432.394679	-2.991700	3.454100	-10.332000	26.035318	0.000692	20.770175
1433.393059	-3.014100	3.451600	-10.402000	26.014553	0.000691	20.788193
1434.393468	-3.009300	3.451200	-10.385000	26.061624	0.000692	20.753457
1435.393787	-3.011800	3.452000	-10.395000	26.071933	0.000691	20.768558
1436.392495	-2.990600	3.451200	-10.320000	26.079338	0.000691	20.764144
1437.395869	-3.009900	3.450700	-10.385000	26.058792	0.000688	20.763889
1438.392156	-3.012200	3.449500	-10.389000	26.056384	0.000689	20.771901
1439.393470	-3.018500	3.448700	-10.409000	26.061031	0.000690	20.784156
1440.393066	-3.005100	3.449900	-10.366000	26.069247	0.000689	20.788144
1441.394081	-3.012000	3.447800	-10.384000	26.094633	0.000687	20.780460
1442.393580	-3.006500	3.449100	-10.369000	26.069525	0.000688	20.770880
1443.393961	-3.007100	3.448200	-10.368000	26.061551	0.000685	20.783257
1444.392933	-2.981700	3.447400	-10.278000	26.097864	0.000686	20.778016
1445.395575	-3.021100	3.445600	-10.408000	26.115893	0.000687	20.778588
1446.394460	-3.007600	3.446500	-10.365000	26.101167	0.000686	20.785129
1447.394886	-2.983100	3.447600	-10.284000	26.087700	0.000686	20.781555
1448.394720	-3.017600	3.446000	-10.398000	26.051436	0.000684	20.793482
1449.397414	-2.988400	3.446700	-10.299000	26.054122	0.000686	20.808034
1450.395432	-2.989400	3.445100	-10.298000	26.029353	0.000684	20.791209
1451.397152	-3.006600	3.445300	-10.357000	26.008841	0.000685	20.806162
1452.396226	-2.996900	3.445500	-10.325000	25.983345	0.000684	20.781495
1453.396569	-3.012800	3.445300	-10.379000	25.964092	0.000683	20.791076
1454.397824	-2.968200	3.445700	-10.226000	25.961902	0.000682	20.771332
1455.397060	-3.015500	3.441400	-10.375000	25.952414	0.000683	20.779818
1456.397078	-3.006300	3.443600	-10.351000	25.970977	0.000681	20.795148
1457.399650	-2.999700	3.443400	-10.327000	25.969235	0.000682	20.797665
1458.397650	-2.992300	3.442200	-10.299000	25.951640	0.000682	20.806067
1459.399639	-3.023000	3.441000	-10.400000	25.943374	0.000681	20.804875
1460.398746	-2.999100	3.442800	-10.324000	25.926529	0.000680	20.783210
1461.397841	-3.009100	3.440000	-10.350000	25.907299	0.000679	20.789022
1462.398759	-3.010100	3.440700	-10.356000	25.906113	0.000679	20.788304
1463.404360	-2.989100	3.440600	-10.283000	25.928139	0.000677	20.796682
1464.399602	-3.010300	3.439300	-10.352000	25.972709	0.000678	20.796888
1465.399954	-2.984700	3.439100	-10.264000	25.977889	0.000676	20.802092
1466.402027	-3.015400	3.438400	-10.367000	25.968218	0.000675	20.801859
1467.399111	-3.015400	3.438500	-10.368000	25.992083	0.000676	20.795964
1468.400835	-2.973100	3.438400	-10.221000	26.010464	0.000675	20.802103
1469.401423	-2.997500	3.438900	-10.307000	26.070024	0.000677	20.810261
1470.399005	-2.996700	3.437300	-10.300000	26.053361	0.000675	20.822443
1471.399794	-2.988300	3.438000	-10.273000	26.077102	0.000673	20.802201
1472.400328	-3.019200	3.437900	-10.378000	26.069371	0.000675	20.795381
1473.402891	-3.006900	3.437300	-10.334000	26.084060	0.000674	20.779319
1474.401200	-3.003100	3.436900	-10.320000	26.076800	0.000673	20.790043
1475.409750	-2.999500	3.436000	-10.305000	26.038030	0.000672	20.798505
1476.401726	-2.982600	3.436700	-10.249000	26.019264	0.000672	20.802883
1477.401114	-2.972600	3.437400	-10.217000	26.014544	0.000671	20.795297
1478.401427	-2.986700	3.435000	-10.259000	26.022955	0.000669	20.787152
1479.404246	-2.989100	3.434500	-10.265000	26.048849	0.000670	20.786142
1480.401367	-2.997600	3.435100	-10.295000	26.052263	0.000670	20.794313
1481.403123	-3.006400	3.434700	-10.325000	25.994145	0.000669	20.797561
1482.403637	-2.997600	3.434100	-10.293000	25.985200	0.000669	20.802799
1483.404527	-3.032500	3.432000	-10.405000	25.985370	0.000668	20.799651
1484.405191	-2.971900	3.434100	-10.204000	25.994822	0.000668	20.773111
1485.404340	-3.000100	3.433500	-10.299000	26.016992	0.000667	20.783058
1486.404701	-3.001800	3.431400	-10.300000	26.043250	0.000668	20.790948
1487.404198	-2.966900	3.433000	-10.184000	26.041363	0.000666	20.785258
1488.403266	-2.979900	3.432100	-10.226000	26.044777	0.000667	20.781101
1489.404235	-3.005300	3.430600	-10.309000	26.049024	0.000665	20.760712
1490.405433	-3.008000	3.430400	-10.318000	26.043409	0.000665	20.778305
1491.404281	-3.005600	3.430700	-10.309000	26.030376	0.000664	20.771374
1492.404406	-3.027100	3.428500	-10.377000	26.022874	0.000665	20.779484
1493.410667	-2.993800	3.430000	-10.268000	26.069160	0.000665	20.788530
1494.407583	-2.986400	3.428200	-10.237000	26.059878	0.000663	20.783946
1495.407689	-2.992700	3.428700	-10.259000	26.073019	0.000663	20.784821
1496.409348	-2.979500	3.429000	-10.215000	26.080424	0.000660	20.786098
1497.406983	-3.014400	3.426500	-10.327000	26.094556	0.000659	20.781332
1498.407478	-3.037300	3.426400	-10.405000	26.085313	0.000660	20.796700
1499.409682	-3.019300	3.427400	-10.347000	26.055110	0.000660	20.782001
1500.407326	-3.029400	3.426300	-10.377000	26.003042	0.000659	20.777576
1501.408616	-3.017600	3.425200	-10.335000	26.004191	0.000660	20.779205
1502.413332	-2.983200	3.426600	-10.220000	26.000353	0.000660	20.773452
1503.410105	-2.998700	3.425200	-10.271000	26.021978	0.000660	20.783326
1504.409957	-2.995100	3.424700	-10.257000	26.011839	0.000660	20.769345
1505.413671	-2.985700	3.425200	-10.226000	25.962743	0.000658	20.773599
1506.411167	-2.999700	3.423700	-10.270000	25.919117	0.000659	20.779557
1507.409567	-3.009100	3.424800	-10.305000	25.875705	0.000655	20.773878
1508.414411	-3.008200	3.422700	-10.295000	25.874688	0.000657	20.753890
1509.411350	-3.002500	3.423800	-10.279000	25.883111	0.000657	20.752394
1510.412344	-2.979900	3.423700	-10.201000	25.890833	0.000655	20.763945
1511.416303	-2.998100	3.423000	-10.261000	25.897549	0.000655	20.770692
1512.412655	-3.005100	3.422600	-10.284000	25.925431	0.000654	20.754131
1513.411497	-3.005200	3.421500	-10.282000	25.962608	0.000654	20.763506
1514.415291	-2.985800	3.421600	-10.214000	25.962050	0.000654	20.757255
1515.414191	-3.013700	3.421700	-10.312000	25.987487	0.000653	20.744878
1516.415463	-3.009400	3.419300	-10.288000	25.965548	0.000652	20.766460
1517.415805	-2.985200	3.421500	-10.213000	25.968439	0.000653	20.763200
1518.414406	-3.037800	3.417700	-10.380000	25.982937	0.000651	20.765912
1519.413849	-2.986400	3.419700	-10.211000	25.986967	0.000651	20.762848
1520.418301	-3.009400	3.419500	-10.289000	26.020038	0.000651	20.760038
1521.414482	-3.000300	3.419600	-10.258000	26.057586	0.000652	20.759358
1522.414877	-2.997800	3.418900	-10.248000	26.081266	0.000651	20.760391
1523.416997	-3.020000	3.418200	-10.321000	26.101231	0.000650	20.744889
1524.416364	-2.994400	3.418200	-10.234000	26.111939	0.000647	20.748536
1525.416439	-2.971900	3.418400	-10.158000	26.160362	0.000650	20.761631
1526.418997	-3.010500	3.415200	-10.280000	26.151070	0.000652	20.756088
1527.417252	-3.004500	3.416400	-10.264000	26.097639	0.000648	20.747918
1528.417881	-3.002700	3.415700	-10.254000	26.072555	0.000649	20.725559
1529.417135	-3.014000	3.415400	-10.292000	26.071709	0.000648	20.740830
1530.416628	-2.999600	3.415100	-10.243000	26.079138	0.000646	20.745450
1531.416674	-2.985800	3.414800	-10.195000	26.124888	0.000648	20.758228
1532.418602	-3.005900	3.414800	-10.263000	26.152281	0.000647	20.743553
1533.416400	-3.000800	3.413500	-10.242000	26.142722	0.000648	20.762398
1534.416652	-3.017800	3.413800	-10.302000	26.187816	0.000645	20.760770
1535.420883	-2.997700	3.414000	-10.232000	26.185880	0.000646	20.754082
1536.417670	-3.022300	3.411900	-10.311000	26.181041	0.000645	20.743055
1537.418108	-2.978400	3.412200	-10.162000	26.186654	0.000643	20.740161
1538.422543	-3.008900	3.412500	-10.267000	26.215559	0.000642	20.745499
1539.420465	-2.980200	3.412300	-10.168000	26.188323	0.000642	20.750847
1540.421515	-2.996800	3.412100	-10.224000	26.176201	0.000642	20.743881
1541.422650	-2.990900	3.412900	-10.207000	26.155487	0.000642	20.742033
1542.421895	-3.026900	3.411200	-10.324000	26.172110	0.000640	20.735503
1543.424998	-3.012900	3.411900	-10.277000	26.180458	0.000642	20.737728
1544.423918	-3.021900	3.409400	-10.301000	26.168033	0.000640	20.748002
1545.423621	-3.014200	3.409800	-10.277000	26.162371	0.000641	20.752270
1546.425259	-2.994300	3.409600	-10.209000	26.181645	0.000639	20.728962
1547.423022	-3.012000	3.408000	-10.264000	26.197906	0.000639	20.723017
1548.425591	-2.993500	3.408100	-10.201000	26.179612	0.000638	20.741619
1549.424491	-2.993700	3.408200	-10.202000	26.202576	0.000637	20.740987
1550.427458	-2.999700	3.407600	-10.220000	26.235230	0.000638	20.733498
1551.424861	-3.018300	3.406200	-10.280000	26.246263	0.000636	20.719928
1552.429866	-2.980500	3.407800	-10.156000	26.284530	0.000637	20.734202
1553.429250	-2.987800	3.407900	-10.181000	26.278396	0.000636	20.723296
1554.428147	-2.986400	3.408000	-10.177000	26.266625	0.000637	20.740391
1555.427087	-3.004600	3.407000	-10.235000	26.274791	0.000634	20.733425
1556.429161	-3.001000	3.405600	-10.218000	26.256137	0.000636	20.725583
1557.434039	-3.004200	3.405400	-10.230000	26.243192	0.000634	20.728222
1558.426695	-2.997100	3.405300	-10.204000	26.204005	0.000635	20.729146
1559.429403	-3.001300	3.405600	-10.220000	26.225201	0.000632	20.712038
1560.427285	-2.996100	3.403900	-10.197000	26.188639	0.000634	20.728404
1561.427297	-2.995400	3.404400	-10.196000	26.214833	0.000634	20.733389
1562.429158	-2.999400	3.404400	-10.210000	26.196612	0.000634	20.718397
1563.428624	-3.030200	3.401700	-10.306000	26.184416	0.000632	20.732222
1564.428802	-2.996500	3.402300	-10.194000	26.186921	0.000633	20.705814
1565.433383	-2.978700	3.402800	-10.134000	26.193940	0.000631	20.730411
1566.431406	-2.997400	3.401400	-10.194000	26.207610	0.000630	20.717121
1567.432530	-3.022400	3.402200	-10.281000	26.223774	0.000631	20.713923
1568.437204	-2.989500	3.400800	-10.165000	26.162155	0.000632	20.730715
1569.431391	-3.011200	3.401600	-10.241000	26.118791	0.000629	20.701838
1570.432271	-3.013300	3.399800	-10.243000	26.077142	0.000628	20.728745
1571.433918	-3.012900	3.401500	-10.246000	26.043927	0.000628	20.738047
1572.433074	-3.010700	3.399200	-10.233000	26.038434	0.000629	20.728260
1573.432577	-2.997600	3.398800	-10.187000	26.044593	0.000628	20.709317
1574.434652	-3.004700	3.398500	-10.210000	26.071759	0.000626	20.705317
1575.434258	-3.007300	3.397900	-10.218000	26.050499	0.000625	20.725683
1576.432718	-3.021800	3.398000	-10.266000	26.052689	0.000626	20.721245
1577.436317	-2.998400	3.398200	-10.188000	26.066641	0.000625	20.714400
1578.435235	-2.952200	3.400200	-10.037000	26.086958	0.000627	20.727702
1579.433110	-2.996300	3.399400	-10.183000	26.121322	0.000625	20.727143
1580.434878	-2.986300	3.397300	-10.143000	26.138636	0.000626	20.705659
1581.435048	-3.008200	3.397200	-10.217000	26.157282	0.000623	20.725818
1582.433868	-3.010500	3.395700	-10.222000	26.125024	0.000623	20.733234
1583.436270	-3.012100	3.395700	-10.227000	26.124989	0.000620	20.735570
1584.433490	-3.009300	3.394800	-10.215000	26.164905	0.000622	20.715933
1585.439217	-3.003100	3.395100	-10.195000	26.151620	0.000621	20.720602
1586.436987	-3.002800	3.395300	-10.195000	26.181458	0.000622	20.717394
1587.435498	-2.988300	3.394700	-10.143000	26.181083	0.000619	20.728872
1588.436893	-3.010800	3.393000	-10.214000	26.115746	0.000621	20.723910
1589.435993	-3.014300	3.393600	-10.228000	26.093858	0.000618	20.708555
1590.434761	-3.012000	3.393100	-10.219000	26.095853	0.000619	20.726208
1591.434891	-3.010700	3.393400	-10.215000	26.060679	0.000617	20.718367
1592.435254	-3.025200	3.392800	-10.263000	26.051966	0.000615	20.725260
1593.441143	-3.008000	3.392100	-10.203000	26.017334	0.000617	20.707533
1594.436854	-3.003300	3.391900	-10.187000	26.002437	0.000617	20.718646
1595.436110	-2.983300	3.393500	-10.122000	25.977920	0.000615	20.717248
1596.436190	-3.003900	3.390900	-10.184000	25.950752	0.000616	20.705599
1597.436911	-2.989200	3.391600	-10.137000	25.971240	0.000615	20.711010
1598.438219	-3.010900	3.390400	-10.208000	26.004579	0.000613	20.711788
1599.436204	-3.010500	3.388500	-10.199000	26.035907	0.000614	20.706753
1600.435382	-2.994000	3.390500	-10.151000	26.043131	0.000614	20.712116
1601.437996	-2.997700	3.388600	-10.158000	26.029360	0.000613	20.711081
1602.438779	-3.029200	3.387200	-10.260000	26.030015	0.000614	20.717903
1603.438687	-2.996800	3.388200	-10.152000	26.027690	0.000612	20.711300
1604.440644	-2.985400	3.390100	-10.120000	26.058001	0.000611	20.689596
1605.440082	-2.993000	3.388100	-10.139000	26.100001	0.000611	20.714254
1606.441191	-3.005100	3.387000	-10.178000	26.140594	0.000612	20.698142
1607.441335	-2.957700	3.389300	-10.023000	26.152124	0.000611	20.718264
1608.443004	-2.995600	3.386600	-10.144000	26.153516	0.000611	20.692634
1609.442958	-3.030300	3.385000	-10.257000	26.131240	0.000609	20.704391
1610.444914	-2.987700	3.386700	-10.117000	26.167599	0.000609	20.702519
1611.441414	-3.018300	3.384200	-10.212000	26.179625	0.000608	20.692791
1612.440548	-3.009300	3.384600	-10.185000	26.199831	0.000607	20.687965
1613.445391	-2.994400	3.385300	-10.136000	26.174712	0.000609	20.702080
1614.442480	-2.998700	3.385000	-10.149000	26.178972	0.000606	20.683125
1615.442925	-2.996500	3.383400	-10.137000	26.187247	0.000605	20.704719
1616.447385	-2.998700	3.384900	-10.149000	26.228697	0.000603	20.695162
1617.447091	-2.994700	3.383400	-10.130000	26.278191	0.000605	20.689423
1618.441902	-2.985800	3.383400	-10.101000	26.227306	0.000603	20.702299
1619.445688	-2.972200	3.384100	-10.056000	26.218123	0.000603	20.693070
1620.445395	-2.968600	3.384600	-10.045000	26.194107	0.000604	20.686006
1621.446373	-2.985300	3.382600	-10.097000	26.156514	0.000603	20.706079
1622.448553	-2.988400	3.382400	-10.106000	26.155740	0.000603	20.702931
1623.447145	-2.962200	3.382900	-10.020000	26.132497	0.000601	20.708973
1624.448054	-2.990300	3.381700	-10.111000	26.146279	0.000601	20.705277
1625.449017	-2.994200	3.380600	-10.121000	26.143302	0.000602	20.689008
1626.447211	-2.967900	3.381000	-10.034000	26.202212	0.000601	20.676606
1627.447168	-2.998700	3.379300	-10.131000	26.223348	0.000600	20.686467
1628.449255	-2.986800	3.381500	-10.098000	26.237288	0.000600	20.673446
1629.448146	-3.002900	3.380000	-10.149000	26.219283	0.000598	20.678587
1630.449864	-2.994300	3.379200	-10.117000	26.195110	0.000598	20.672314
1631.450478	-2.975100	3.379900	-10.055000	26.196307	0.000599	20.661188
1632.449728	-2.999500	3.377400	-10.130000	26.215858	0.000596	20.682733
1633.450261	-2.997400	3.377800	-10.124000	26.208805	0.000596	20.685128
1634.450928	-2.981900	3.379200	-10.075000	26.220286	0.000597	20.683389
1635.453025	-3.032100	3.376900	-10.237000	26.249806	0.000595	20.690770
1636.452142	-3.010400	3.376900	-10.165000	26.234805	0.000595	20.681858
1637.456033	-2.986600	3.376700	-10.084000	26.233087	0.000594	20.672544
1638.451443	-3.009100	3.375200	-10.155000	26.158788	0.000595	20.682283
1639.452813	-2.992700	3.375900	-10.101000	26.126336	0.000595	20.674330
1640.454082	-2.996000	3.375800	-10.113000	26.139333	0.000597	20.676958
1641.456010	-3.016300	3.373300	-10.174000	26.145006	0.000593	20.680763
1642.452319	-2.987600	3.373800	-10.079000	26.160446	0.000594	20.671146
1643.455532	-2.987500	3.376100	-10.085000	26.161934	0.000594	20.677384
1644.452850	-2.999400	3.373900	-10.119000	26.154287	0.000592	20.673018
1645.456976	-2.998200	3.374600	-10.117000	26.170102	0.000589	20.659036
1646.458226	-2.993400	3.374200	-10.098000	26.202805	0.000590	20.671037
1647.455791	-3.017000	3.371300	-10.170000	26.216090	0.000592	20.659255
1648.455909	-2.989100	3.373800	-10.083000	26.229156	0.000589	20.668593
1649.455855	-2.982700	3.372900	-10.059000	26.249712	0.000589	20.675500
1650.455586	-2.997700	3.371100	-10.105000	26.311811	0.000588	20.670577
1651.456680	-3.007300	3.371600	-10.139000	26.258447	0.000588	20.664837
1652.461545	-2.999600	3.371500	-10.112000	26.282850	0.000588	20.668024
1653.457844	-2.991800	3.369500	-10.080000	26.291499	0.000590	20.674820
1654.458268	-2.994300	3.370700	-10.092000	26.296702	0.000587	20.667246
1655.461102	-3.030100	3.369200	-10.207000	26.324309	0.000588	20.671284
1656.460209	-2.995800	3.370300	-10.096000	26.310325	0.000586	20.669083
1657.458674	-2.998200	3.370100	-10.104000	26.336069	0.000587	20.668877
1658.462185	-3.006300	3.369400	-10.129000	26.344356	0.000585	20.664403
1659.459954	-2.995000	3.368900	-10.089000	26.359588	0.000585	20.670229
1660.458790	-2.983800	3.369900	-10.054000	26.368830	0.000585	20.677147
1661.465119	-3.006500	3.369100	-10.128000	26.397101	0.000583	20.699399
1662.463030	-3.014700	3.366500	-10.147000	26.379211	0.000583	20.665294
1663.458875	-2.996400	3.366200	-10.086000	26.385476	0.000584	20.691034
1664.463833	-3.015200	3.366700	-10.149000	26.325077	0.000582	20.668261
1665.463275	-3.006500	3.366100	-10.119000	26.282385	0.000580	20.662341
1666.459851	-2.987000	3.366900	-10.057000	26.271860	0.000582	20.672153
1667.464438	-3.000800	3.365200	-10.096000	26.306024	0.000582	20.670451
1668.463024	-3.020400	3.366700	-10.168000	26.288362	0.000580	20.667874
1669.459507	-3.010300	3.366000	-10.133000	26.270989	0.000580	20.675071
1670.462299	-3.003600	3.365100	-10.106000	26.233558	0.000579	20.675862
1671.463578	-3.007600	3.365200	-10.120000	26.262388	0.000580	20.682550
1672.461449	-3.003300	3.363800	-10.102000	26.274378	0.000577	20.684167
1673.463998	-3.013100	3.363500	-10.133000	26.272442	0.000577	20.670367
1674.463686	-3.031500	3.363000	-10.192000	26.301791	0.000576	20.650073
1675.460623	-2.999900	3.365100	-10.093000	26.334974	0.000578	20.661612
1676.461347	-2.998000	3.362800	-10.081000	26.357862	0.000576	20.664226
1677.460847	-2.988200	3.362800	-10.048000	26.358226	0.000575	20.665066
1678.461903	-3.026400	3.362600	-10.175000	26.358674	0.000574	20.680217
1679.462168	-2.998200	3.362000	-10.079000	26.315716	0.000576	20.671656
1680.466863	-3.026600	3.360100	-10.168000	26.275637	0.000574	20.661248
1681.464747	-3.019500	3.360100	-10.145000	26.275782	0.000574	20.668982
1682.465322	-3.005300	3.361000	-10.100000	26.275612	0.000573	20.683512
1683.461806	-2.979200	3.361700	-10.014000	26.319709	0.000573	20.680412
1684.462715	-3.003500	3.360000	-10.091000	26.323556	0.000571	20.666733
1685.461103	-3.027900	3.358300	-10.168000	26.323580	0.000571	20.671499
1686.462260	-3.026800	3.357300	-10.160000	26.330307	0.000571	20.657395
1687.460411	-3.008000	3.360200	-10.106000	26.359062	0.000570	20.666855
1688.464625	-2.999900	3.358500	-10.074000	26.359717	0.000568	20.676049
1689.459568	-3.015000	3.357600	-10.122000	26.354888	0.000572	20.683525
1690.460974	-2.998800	3.358000	-10.070000	26.351818	0.000571	20.659573
1691.466785	-2.992800	3.359100	-10.052000	26.333224	0.000570	20.662698
1692.461689	-2.973400	3.358400	-9.984800	26.336405	0.000569	20.663998
1693.462808	-2.994200	3.357200	-10.051000	26.373700	0.000568	20.652642
1694.461428	-2.974900	3.357700	-9.987600	26.337289	0.000567	20.649712
1695.463676	-2.974200	3.356200	-9.980900	26.314497	0.000567	20.675173
1696.463263	-2.973300	3.357400	-9.981300	26.324491	0.000567	20.673363
1697.463829	-3.004600	3.355000	-10.079000	26.322736	0.000569	20.659744
1698.464633	-3.002800	3.355700	-10.074000	26.329791	0.000565	20.683907
1699.464063	-3.002000	3.355700	-10.073000	26.347563	0.000566	20.672843
1700.464861	-3.021400	3.354300	-10.133000	26.354918	0.000563	20.681657
1701.465311	-3.026700	3.354500	-10.152000	26.342675	0.000564	20.675991
1702.465424	-2.999700	3.354500	-10.062000	26.317587	0.000564	20.686340
1703.467930	-3.001800	3.353800	-10.067000	26.304255	0.000564	20.663930
1704.465914	-2.984400	3.353700	-10.008000	26.269135	0.000562	20.669415
1705.467572	-2.988000	3.354100	-10.021000	26.254231	0.000562	20.691423
1706.472105	-2.979900	3.353800	-9.993100	26.260438	0.000561	20.673002
1707.466080	-2.981400	3.352700	-9.995000	26.229817	0.000562	20.677319
1708.467731	-2.979200	3.351200	-9.982100	26.263948	0.000561	20.671314
1709.467497	-2.974000	3.351900	-9.966700	26.296261	0.000561	20.670122
1710.468094	-2.998400	3.352200	-10.050000	26.308334	0.000560	20.676566
1711.469517	-3.022200	3.350200	-10.124000	26.305371	0.000560	20.691133
1712.470634	-3.002600	3.351700	-10.063000	26.280572	0.000557	20.671425
1713.469695	-3.006000	3.350900	-10.072000	26.280982	0.000560	20.676105
1714.469599	-3.016900	3.349400	-10.103000	26.278164	0.000558	20.697457
1715.469330	-3.007600	3.350100	-10.075000	26.295465	0.000557	20.685445
1716.469722	-3.009900	3.349200	-10.080000	26.337310	0.000558	20.674866
1717.473493	-3.009200	3.349900	-10.079000	26.358745	0.000555	20.681711
1718.471093	-3.013100	3.348700	-10.088000	26.379191	0.000556	20.671439
1719.472665	-2.997500	3.348300	-10.036000	26.421372	0.000555	20.664520
1720.470579	-3.010000	3.347600	-10.075000	26.407424	0.000554	20.663304
1721.472096	-2.994900	3.347700	-10.025000	26.409276	0.000554	20.704998
1722.471436	-2.999700	3.348800	-10.043000	26.361519	0.000554	20.692561
1723.472579	-3.012900	3.345700	-10.080000	26.349301	0.000553	20.669848
1724.471338	-2.997000	3.346900	-10.030000	26.345371	0.000554	20.663526
1725.473825	-3.018100	3.345500	-10.096000	26.326547	0.000553	20.692975
1726.472709	-3.005100	3.345100	-10.052000	26.310579	0.000551	20.673606
1727.474663	-2.997900	3.345300	-10.027000	26.310506	0.000552	20.695820
1728.475042	-2.999500	3.343700	-10.028000	26.318103	0.000550	20.695869
1729.473398	-3.001500	3.344800	-10.038000	26.299970	0.000551	20.681911
1730.473569	-3.002300	3.343000	-10.036000	26.329343	0.000549	20.685353
1731.476586	-3.009000	3.344300	-10.062000	26.361123	0.000551	20.703069
1732.475326	-2.996900	3.343500	-10.019000	26.345807	0.000549	20.688149
1733.478249	-2.980800	3.344800	-9.968600	26.328968	0.000549	20.680234
1734.476877	-2.977700	3.344300	-9.957700	26.352509	0.000547	20.692989
1735.475982	-2.976800	3.343700	-9.951500	26.368404	0.000547	20.680039
1736.476617	-2.995000	3.341900	-10.008000	26.371526	0.000546	20.697877
1737.478610	-3.004600	3.340800	-10.037000	26.380587	0.000546	20.686594
1738.478598	-2.991500	3.341700	-9.995600	26.355680	0.000546	20.693804
1739.477746	-2.998300	3.340800	-10.015000	26.388146	0.000545	20.694192
1740.479240	-3.006900	3.340800	-10.045000	26.373872	0.000546	20.693596
1741.477274	-3.033900	3.338800	-10.128000	26.427049	0.000544	20.676392
1742.478281	-3.004900	3.339700	-10.034000	26.452960	0.000543	20.691057
1743.477086	-2.989600	3.339800	-9.983200	26.439023	0.000543	20.706448
1744.478350	-3.015100	3.339500	-10.067000	26.448458	0.000541	20.704077
1745.477913	-3.008000	3.338100	-10.040000	26.454130	0.000543	20.682749
1746.480013	-3.013700	3.338200	-10.060000	26.467411	0.000541	20.722180
1747.479555	-2.984100	3.338400	-9.961200	26.510436	0.000539	20.703310
1748.480238	-2.995900	3.337700	-9.998500	26.507630	0.000539	20.709499
1749.482231	-2.987300	3.339600	-9.974200	26.515926	0.000538	20.687491
1750.480195	-2.979800	3.337900	-9.943800	26.521042	0.000539	20.673192
1751.480773	-3.003800	3.338100	-10.026000	26.503783	0.000536	20.704209
1752.480242	-2.995200	3.337800	-9.996400	26.460928	0.000540	20.688160
1753.483877	-2.984700	3.338000	-9.961700	26.459912	0.000538	20.709900
1754.480850	-2.996100	3.337300	-9.997400	26.464762	0.000538	20.703868
1755.483893	-2.984300	3.336100	-9.954600	26.461799	0.000538	20.698045
1756.480452	-2.984600	3.336700	-9.957200	26.418350	0.000536	20.679028
1757.485198	-3.021200	3.335000	-10.075000	26.419595	0.000537	20.690238
1758.482950	-3.004000	3.335200	-10.018000	26.393721	0.000535	20.689837
1759.481911	-3.007900	3.334000	-10.026000	26.361738	0.000534	20.701316
1760.483170	-2.989300	3.335400	-9.969500	26.390443	0.000534	20.699346
1761.487613	-2.989200	3.334900	-9.967600	26.394967	0.000535	20.692512
1762.486987	-3.025200	3.332800	-10.082000	26.401911	0.000532	20.685266
1763.485270	-2.985200	3.333000	-9.947800	26.393260	0.000532	20.689848
1764.485558	-3.028400	3.332100	-10.090000	26.405914	0.000532	20.702567
1765.487290	-3.019400	3.331000	-10.056000	26.397725	0.000529	20.693387
1766.486735	-2.991400	3.331600	-9.964200	26.421943	0.000531	20.692598
1767.486873	-2.997900	3.331400	-9.986800	26.442978	0.000529	20.700939
1768.488207	-3.001200	3.332000	-9.999000	26.432586	0.000531	20.688122
1769.485126	-3.015000	3.331300	-10.042000	26.428160	0.000531	20.712124
1770.488477	-3.007100	3.329600	-10.011000	26.446992	0.000530	20.714457
1771.490829	-2.990800	3.331100	-9.961700	26.481925	0.000530	20.689824
1772.487870	-2.983200	3.330800	-9.935300	26.495133	0.000527	20.701679
1773.489711	-2.998500	3.328500	-9.979300	26.514390	0.000528	20.700172
1774.489508	-2.995000	3.328100	-9.966700	26.549248	0.000527	20.702494
1775.489042	-2.985400	3.330400	-9.942000	26.551897	0.000525	20.701364
1776.495564	-2.980900	3.328900	-9.921600	26.554957	0.000525	20.699224
1777.492968	-3.011300	3.327300	-10.019000	26.554994	0.000528	20.697839
1778.491117	-3.007100	3.325800	-10.000000	26.547169	0.000525	20.693292
1779.492609	-2.980800	3.327800	-9.918300	26.546202	0.000524	20.700855
1780.492082	-2.987900	3.327000	-9.940100	26.522991	0.000526	20.710715
1781.490428	-2.998900	3.326300	-9.973600	26.530226	0.000523	20.714194
1782.493057	-3.015100	3.326200	-10.028000	26.543832	0.000522	20.710802
1783.491739	-3.014600	3.325800	-10.024000	26.517576	0.000521	20.714755
1784.493093	-3.016600	3.324100	-10.026000	26.492103	0.000523	20.708591
1785.493205	-3.005000	3.326400	-9.995000	26.446199	0.000521	20.702754
1786.494334	-3.006600	3.324100	-9.992200	26.460969	0.000521	20.689149
1787.494856	-2.997900	3.323800	-9.963600	26.459629	0.000520	20.719573
1788.494212	-2.994700	3.323300	-9.951300	26.513538	0.000521	20.727767
1789.494420	-3.001400	3.323100	-9.972200	26.548954	0.000519	20.714053
1790.495963	-2.996800	3.323500	-9.959000	26.570506	0.000518	20.729555
1791.496343	-3.007200	3.322400	-9.990000	26.565900	0.000519	20.693154
1792.496069	-2.989300	3.324400	-9.937100	26.545689	0.000519	20.720256
1793.496223	-2.993100	3.323100	-9.944100	26.533740	0.000518	20.710615
1794.495941	-2.991700	3.322800	-9.939600	26.533280	0.000516	20.720109
1795.495325	-3.019000	3.322400	-10.029000	26.522964	0.000517	20.716378
1796.495394	-3.011200	3.321900	-10.001000	26.468886	0.000517	20.697581
1797.497975	-3.002900	3.320800	-9.971300	26.447463	0.000515	20.715405
1798.495439	-2.991800	3.320500	-9.933000	26.426841	0.000514	20.716963
1799.501884	-3.004100	3.320300	-9.972700	26.403822	0.000514	20.701887
1800.500234	-2.988300	3.320300	-9.920800	26.421773	0.000514	20.710447
1801.496258	-3.028700	3.317800	-10.047000	26.449159	0.000513	20.720429
1802.498398	-3.008600	3.317800	-9.981000	26.503130	0.000512	20.715882
1803.497962	-3.013300	3.318200	-9.997600	26.514222	0.000512	20.707591
1804.497224	-2.988600	3.320000	-9.920800	26.519726	0.000511	20.713124
1805.496503	-2.997700	3.317400	-9.943100	26.580225	0.000509	20.718936
1806.500627	-2.990600	3.317800	-9.921100	26.576573	0.000510	20.725696
1807.498458	-3.006900	3.317100	-9.973400	26.569075	0.000509	20.718632
1808.500906	-2.987900	3.317200	-9.910300	26.581338	0.000510	20.716736
1809.500380	-2.984500	3.318400	-9.903000	26.634419	0.000510	20.715094
1810.497866	-3.005700	3.315700	-9.964800	26.653577	0.000508	20.729137
1811.500070	-2.982000	3.317500	-9.891400	26.686314	0.000508	20.723642
1812.501537	-2.989600	3.316100	-9.913000	26.677450	0.000506	20.732275
1813.499049	-3.003100	3.314500	-9.953300	26.668319	0.000505	20.720724
1814.499827	-3.006700	3.314900	-9.966100	26.593109	0.000507	20.729517
1815.508817	-3.007700	3.314700	-9.968700	26.581522	0.000506	20.746793
1816.502858	-3.002400	3.313200	-9.946100	26.579080	0.000506	20.741967
1817.501822	-2.943200	3.315800	-9.758500	26.596605	0.000504	20.735876
1818.502164	-2.980900	3.314000	-9.877800	26.581244	0.000505	20.714744
1819.501231	-2.989400	3.314200	-9.907100	26.580460	0.000504	20.752838
1820.499737	-2.976700	3.313500	-9.862100	26.599896	0.000503	20.739185
1821.502710	-2.986300	3.312600	-9.891400	26.620143	0.000503	20.757168
1822.501963	-3.010600	3.311500	-9.968400	26.603815	0.000504	20.745495
1823.501671	-3.004300	3.311500	-9.948300	26.576107	0.000502	20.741350
1824.504761	-2.987300	3.312000	-9.892400	26.553576	0.000501	20.737667
1825.501660	-3.003200	3.310800	-9.941600	26.562018	0.000500	20.733351
1826.503306	-3.004900	3.310500	-9.947200	26.568743	0.000498	20.759552
1827.506561	-3.001800	3.311200	-9.939000	26.566977	0.000498	20.731224
1828.503119	-3.012900	3.309700	-9.971300	26.566724	0.000500	20.738082
1829.504771	-2.996700	3.310400	-9.919400	26.619892	0.000497	20.752174
1830.505571	-3.007100	3.309300	-9.950800	26.636861	0.000497	20.735093
1831.505558	-2.991500	3.309000	-9.896900	26.645337	0.000498	20.734605
1832.505214	-3.002500	3.307000	-9.928200	26.642074	0.000497	20.741756
1833.507030	-2.998200	3.308700	-9.919000	26.613798	0.000496	20.727081
1834.505667	-2.999800	3.306800	-9.918000	26.583950	0.000496	20.726474
1835.506421	-3.024400	3.306300	-9.998600	26.538244	0.000495	20.750706
1836.509762	-2.997400	3.306000	-9.908300	26.539999	0.000495	20.749625
1837.505789	-3.006200	3.306800	-9.940100	26.518602	0.000494	20.750876
1838.506538	-2.992000	3.305600	-9.889400	26.521495	0.000494	20.754258
1839.508359	-2.980300	3.307600	-9.856600	26.535452	0.000492	20.741734
1840.506319	-2.996900	3.305500	-9.904500	26.550934	0.000491	20.755401
1841.508825	-3.009500	3.305900	-9.947400	26.536384	0.000492	20.756897
1842.509927	-2.989600	3.304900	-9.879300	26.527010	0.000490	20.730403
1843.507543	-3.000900	3.303500	-9.912700	26.506475	0.000490	20.764291
1844.508491	-3.005600	3.304200	-9.930400	26.475886	0.000490	20.742553
1845.509366	-2.989000	3.303800	-9.873700	26.519549	0.000489	20.720532
1846.508067	-3.002400	3.303900	-9.918800	26.531535	0.000488	20.728314
1847.507674	-3.017200	3.303700	-9.966000	26.580896	0.000491	20.767502
1848.511169	-3.005000	3.302500	-9.923100	26.608119	0.000489	20.748400
1849.510356	-3.020100	3.300700	-9.967300	26.648574	0.000487	20.761094
1850.508951	-2.992900	3.302000	-9.882000	26.684080	0.000486	20.764072
1851.512707	-2.992700	3.302700	-9.883400	26.680695	0.000486	20.739331
1852.510988	-3.018600	3.300900	-9.962200	26.674189	0.000484	20.757447
1853.510527	-3.003100	3.300900	-9.912000	26.672240	0.000485	20.753117
1854.513203	-2.995700	3.299000	-9.881200	26.692896	0.000484	20.764874
1855.511055	-3.021500	3.300000	-9.969700	26.700733	0.000486	20.768960
1856.511592	-3.010200	3.299600	-9.930800	26.700563	0.000481	20.723743
1857.513582	-3.006300	3.299400	-9.917900	26.725160	0.000482	20.777871
1858.511241	-3.027000	3.298400	-9.983100	26.731087	0.000482	20.754906
1859.509938	-2.997100	3.299800	-9.888500	26.758392	0.000482	20.744899
1860.511769	-3.000500	3.297600	-9.893400	26.740179	0.000481	20.749822
1861.509479	-2.997200	3.298700	-9.886300	26.766264	0.000481	20.766565
1862.510473	-3.027700	3.298100	-9.984800	26.772672	0.000480	20.779172
1863.513841	-3.005300	3.298100	-9.911300	26.788501	0.000480	20.750990
1864.513597	-2.968400	3.299700	-9.792400	26.774863	0.000477	20.780901
1865.511438	-2.984200	3.297800	-9.840300	26.736458	0.000477	20.747977
1866.517105	-2.993200	3.297200	-9.868000	26.729384	0.000478	20.770263
1867.516495	-3.023100	3.294900	-9.958200	26.751574	0.000477	20.772184
1868.513766	-2.989300	3.296900	-9.854200	26.791320	0.000476	20.783223
1869.516477	-2.990600	3.296600	-9.858200	26.785141	0.000473	20.755198
1870.515778	-3.019300	3.294500	-9.946100	26.796594	0.000475	20.755808
1871.514033	-2.985200	3.295300	-9.836200	26.802194	0.000476	20.773767
1872.517250	-2.982100	3.294500	-9.823500	26.788542	0.000476	20.751031
1873.517238	-3.015000	3.293800	-9.930600	26.790016	0.000474	20.763893
1874.514833	-3.005300	3.294700	-9.900300	26.809823	0.000473	20.765790
1875.520811	-2.997600	3.294300	-9.873800	26.849556	0.000473	20.766860
1876.517529	-2.976800	3.293000	-9.801400	26.866581	0.000473	20.761693
1877.517836	-2.994500	3.292500	-9.858400	26.872566	0.000472	20.769608
1878.518304	-3.014800	3.291800	-9.923100	26.854865	0.000473	20.772198
1879.517831	-2.983800	3.293000	-9.823900	26.879424	0.000471	20.775555
1880.516033	-2.992500	3.291100	-9.847400	26.898345	0.000471	20.751432
1881.517909	-2.998600	3.290100	-9.864600	26.868540	0.000471	20.773620
1882.517455	-3.010700	3.291200	-9.907600	26.787610	0.000468	20.789923
1883.514765	-3.005800	3.289400	-9.886100	26.730340	0.000466	20.774070
1884.517740	-2.990000	3.290200	-9.836100	26.691740	0.000468	20.785997
1885.517149	-2.989600	3.290300	-9.835400	26.701789	0.000467	20.777135
1886.515463	-3.017500	3.288400	-9.921200	26.709977	0.000466	20.770193
1887.518253	-3.026400	3.288100	-9.949700	26.715866	0.000465	20.770423
1888.518505	-2.993400	3.289100	-9.844200	26.744780	0.000465	20.790484
1889.517302	-3.008800	3.289000	-9.894100	26.753304	0.000467	20.790045
1890.522583	-3.006500	3.287800	-9.883200	26.768627	0.000463	20.763251
1891.522165	-2.992400	3.287500	-9.836900	26.756231	0.000463	20.771651
1892.517330	-2.997000	3.288000	-9.853200	26.727087	0.000463	20.784076
1893.520262	-2.994200	3.287400	-9.842300	26.707702	0.000464	20.761268
1894.517196	-2.982900	3.286300	-9.802600	26.708815	0.000461	20.773293
1895.517842	-2.991800	3.285800	-9.829000	26.710060	0.000462	20.787347
1896.519490	-2.979800	3.285300	-9.788200	26.756449	0.000461	20.771870
1897.519071	-2.986800	3.286900	-9.815900	26.771554	0.000461	20.786583
1898.517976	-2.983000	3.287000	-9.804400	26.778566	0.000461	20.794581
1899.524614	-3.001400	3.285800	-9.861000	26.799475	0.000459	20.783835
1900.518793	-3.002200	3.283800	-9.857500	26.834237	0.000460	20.797924
1901.518315	-3.004100	3.284700	-9.867100	26.849764	0.000457	20.800260
1902.521313	-2.977100	3.283600	-9.774000	26.871130	0.000460	20.799458
1903.518631	-2.997100	3.283100	-9.838800	26.905601	0.000458	20.789549
1904.519283	-2.997400	3.283000	-9.839700	26.867139	0.000458	20.765573
1905.522767	-2.993200	3.282400	-9.822600	26.915056	0.000455	20.795738
1906.521174	-2.996400	3.283000	-9.835800	26.918117	0.000455	20.794074
1907.519932	-3.001800	3.283200	-9.853800	26.892845	0.000457	20.795689
1908.524169	-3.007000	3.282800	-9.870200	26.878906	0.000454	20.782147
1909.530866	-3.003500	3.280800	-9.852300	26.876646	0.000456	20.795047
1910.522095	-2.993500	3.281900	-9.823300	26.899304	0.000453	20.782269
1911.527070	-3.020000	3.280200	-9.904300	26.935456	0.000452	20.809139
1912.525589	-2.987900	3.281500	-9.804100	26.973819	0.000452	20.794611
1913.522762	-2.998000	3.279700	-9.830800	26.988134	0.000452	20.802368
1914.532703	-2.998100	3.279000	-9.829400	27.018057	0.000450	20.810174
1915.528034	-2.997700	3.279700	-9.829900	26.970037	0.000451	20.797919
1916.530806	-2.986000	3.279500	-9.791600	26.918883	0.000449	20.820922
1917.525150	-3.003400	3.278200	-9.844200	26.872890	0.000448	20.817823
1918.525383	-2.994200	3.277500	-9.812300	26.850497	0.000448	20.800997
1919.526573	-2.994800	3.276400	-9.810600	26.856496	0.000447	20.794701
1920.523951	-3.031100	3.276000	-9.928400	26.860098	0.000447	20.804013
1921.525167	-2.996500	3.277100	-9.818700	26.885188	0.000446	20.804585
1922.527861	-3.002000	3.276200	-9.833700	26.915332	0.000444	20.804075
1923.523729	-2.981300	3.277900	-9.770800	26.930300	0.000444	20.793996
1924.525456	-2.987800	3.275900	-9.785800	26.922259	0.000444	20.815783
1925.525219	-2.977200	3.275600	-9.751100	26.909493	0.000444	20.800575
1926.524545	-2.994100	3.275200	-9.804700	26.898079	0.000442	20.800477
1927.527085	-3.005800	3.272900	-9.837000	26.931450	0.000444	20.788515
1928.525127	-2.982900	3.275000	-9.767600	26.964530	0.000441	20.821305
1929.524209	-2.997700	3.273700	-9.812700	26.976897	0.000441	20.819516
1930.525453	-2.991000	3.275300	-9.795600	27.007825	0.000441	20.820746
1931.524990	-3.011500	3.272300	-9.853600	27.036645	0.000442	20.804211
1932.526143	-2.994300	3.272100	-9.796700	27.031882	0.000441	20.830714
1933.526378	-3.017800	3.272800	-9.875500	27.053729	0.000438	20.820443
1934.526267	-2.991000	3.273200	-9.789600	27.041082	0.000439	20.828113
1935.526766	-2.992400	3.270800	-9.786700	27.075260	0.000437	20.815070
1936.529161	-3.010000	3.272700	-9.848900	27.081026	0.000435	20.827032
1937.529393	-3.013500	3.270600	-9.855100	27.055809	0.000437	20.814000
1938.531244	-2.992100	3.271400	-9.787800	27.054165	0.000436	20.814718
1939.529839	-3.002000	3.271300	-9.818500	27.046403	0.000435	20.822559
1940.530675	-2.989900	3.269200	-9.773800	27.048012	0.000432	20.839349
1941.529819	-3.009300	3.269000	-9.836700	27.062531	0.000433	20.824079
1942.532397	-2.992200	3.269800	-9.783600	27.011767	0.000435	20.836090
1943.533155	-2.997200	3.268700	-9.795700	27.026782	0.000432	20.806145
1944.533119	-2.994600	3.268600	-9.787300	27.043030	0.000433	20.821538
1945.534825	-2.996500	3.267600	-9.789400	27.061431	0.000431	20.833879
1946.535494	-2.999600	3.267900	-9.800700	27.090881	0.000430	20.836469
1947.535690	-2.995700	3.266800	-9.784100	27.090759	0.000431	20.826864
1948.535465	-2.983600	3.268700	-9.751400	27.069228	0.000429	20.801892
1949.536999	-3.031000	3.265600	-9.895800	27.114235	0.000430	20.851896
1950.536474	-3.022200	3.266600	-9.871800	27.111043	0.000429	20.841573
1951.538267	-3.001900	3.266000	-9.802900	27.136442	0.000428	20.821600
1952.536770	-3.018000	3.265400	-9.853800	27.168354	0.000428	20.820980
1953.537616	-3.006500	3.265100	-9.815500	27.163192	0.000427	20.839495
1954.537636	-2.994200	3.265000	-9.774800	27.139922	0.000427	20.816566
1955.537340	-2.994800	3.264900	-9.776200	27.051302	0.000426	20.833175
1956.536330	-3.012100	3.264200	-9.830900	27.008927	0.000426	20.810949
1957.539005	-2.986600	3.264300	-9.748300	27.027665	0.000425	20.851129
1958.538513	-2.997800	3.262500	-9.779600	27.025998	0.000422	20.828116
1959.538386	-3.018300	3.262500	-9.846700	27.023834	0.000424	20.862449
1960.539057	-3.001100	3.261400	-9.786100	27.029745	0.000422	20.853695
1961.539222	-2.997600	3.260900	-9.773900	27.042874	0.000419	20.850777
1962.537962	-2.994300	3.261000	-9.763500	27.075128	0.000423	20.841964
1963.539820	-2.963800	3.262600	-9.668600	27.073568	0.000421	20.841817
1964.537230	-2.990400	3.260800	-9.750300	27.096937	0.000420	20.832603
1965.537364	-2.991100	3.260900	-9.752800	27.096199	0.000418	20.854619
1966.538882	-3.006300	3.259500	-9.797100	27.159590	0.000421	20.823071
1967.541134	-2.995800	3.260200	-9.765800	27.188406	0.000419	20.869596
1968.537178	-2.999700	3.260300	-9.779200	27.161740	0.000418	20.841354
1969.540686	-3.006700	3.259200	-9.798200	27.157788	0.000417	20.849707
1970.541332	-3.003400	3.258500	-9.785700	27.175848	0.000417	20.853172
1971.541040	-2.979700	3.259100	-9.711100	27.188275	0.000417	20.844809
1972.541462	-2.995500	3.257500	-9.756800	27.201315	0.000416	20.856976
1973.541387	-3.009900	3.258200	-9.805600	27.203915	0.000413	20.851530
1974.541082	-3.006000	3.256500	-9.787700	27.166322	0.000413	20.852600
1975.542963	-2.970900	3.258400	-9.678500	27.184646	0.000411	20.860124
1976.542327	-3.011400	3.255800	-9.803200	27.188008	0.000412	20.852126
1977.543063	-3.006100	3.255300	-9.782900	27.220715	0.000411	20.865109
1978.543846	-2.990600	3.255400	-9.733600	27.229298	0.000410	20.855250
1979.542228	-2.973500	3.257400	-9.684500	27.240552	0.000410	20.866096
1980.542471	-3.016600	3.254500	-9.815900	27.206986	0.000410	20.859360
1981.545420	-3.016900	3.253300	-9.813700	27.178905	0.000410	20.872367
1982.545190	-3.023600	3.253100	-9.835200	27.122756	0.000409	20.870896
1983.544089	-3.012800	3.252800	-9.797800	27.109351	0.000407	20.843191
1984.545547	-2.996300	3.253300	-9.746200	27.120908	0.000407	20.850073
1985.552118	-3.014900	3.251700	-9.802000	27.094483	0.000407	20.835824
1986.544439	-3.004700	3.252900	-9.773800	27.081608	0.000405	20.850376
1987.545981	-2.960600	3.254600	-9.634600	27.086613	0.000405	20.855884
1988.547292	-2.974700	3.252600	-9.674400	27.118540	0.000405	20.856700
1989.548707	-2.988100	3.252400	-9.716400	27.111697	0.000406	20.836068
1990.546255	-3.019800	3.250200	-9.812400	27.168887	0.000404	20.846171
1991.547256	-2.997000	3.249800	-9.738600	27.188638	0.000402	20.837588
1992.544445	-2.978100	3.249900	-9.677300	27.203470	0.000401	20.851558
1993.546907	-2.997500	3.250600	-9.743100	27.214773	0.000400	20.836849
1994.549032	-3.015600	3.248400	-9.794500	27.239009	0.000400	20.842733
1995.549139	-3.010900	3.248600	-9.780300	27.255421	0.000399	20.832216
1996.548737	-2.999100	3.249700	-9.743900	27.254118	0.000400	20.853189
1997.549450	-3.016500	3.247400	-9.793900	27.216842	0.000399	20.844619
1998.547193	-2.988700	3.246900	-9.702500	27.232337	0.000397	20.824643
1999.548998	-2.999700	3.246300	-9.737000	27.205588	0.000398	20.834722
2000.546682	-3.001000	3.247200	-9.743200	27.160442	0.000395	20.849057
2001.548407	-3.011400	3.247500	-9.778300	27.140170	0.000397	20.854747
2002.548566	-2.986800	3.247500	-9.697900	27.055138	0.000394	20.833240
2003.547464	-2.985100	3.245600	-9.687600	27.023476	0.000391	20.862089
2004.548231	-3.004700	3.244900	-9.748700	26.985649	0.000394	20.854869
2005.550743	-3.015700	3.245100	-9.784300	27.022655	0.000393	20.825703
2006.548280	-2.998800	3.244400	-9.728700	27.026052	0.000392	20.834809
2007.548542	-3.003000	3.245100	-9.743900	27.069671	0.000393	20.837423
2008.549199	-2.990300	3.245900	-9.704900	27.122172	0.000390	20.820999
2009.548759	-2.999100	3.245500	-9.732600	27.164844	0.000388	20.826933
2010.547686	-3.019700	3.244300	-9.796300	27.204818	0.000389	20.827309
2011.549511	-2.989200	3.243100	-9.692500	27.232280	0.000387	20.826009
2012.547117	-3.010700	3.243500	-9.763800	27.259548	0.000386	20.844427
2013.550102	-2.981600	3.242400	-9.666000	27.285367	0.000387	20.834836
2014.550084	-2.998800	3.241500	-9.719600	27.281911	0.000384	20.827093
2015.548729	-3.005000	3.239500	-9.733200	27.337410	0.000386	20.846885
2016.549247	-2.999600	3.241900	-9.723600	27.370235	0.000383	20.823007
2017.553526	-3.002700	3.240300	-9.729000	27.387591	0.000384	20.829087
2018.551069	-2.996000	3.242600	-9.713600	27.394889	0.000382	20.830740
2019.550589	-3.000700	3.238400	-9.716600	27.446287	0.000382	20.848307
2020.551776	-2.991600	3.238700	-9.688600	27.402576	0.000382	20.825196
2021.551322	-2.988900	3.238300	-9.677900	27.438323	0.000382	20.828916
2022.550437	-3.018700	3.236800	-9.769400	27.437817	0.000381	20.816553
2023.551673	-3.007200	3.236900	-9.732100	27.452584	0.000379	20.841840
2024.553562	-3.016600	3.237100	-9.764300	27.446217	0.000378	20.809831
2025.552056	-2.996100	3.236600	-9.696700	27.483183	0.000378	20.813356
2026.553356	-3.008200	3.237900	-9.739100	27.432851	0.000376	20.806342
2027.557432	-2.996900	3.237000	-9.699800	27.378552	0.000378	20.830425
2028.553384	-3.014700	3.234300	-9.749400	27.316795	0.000376	20.830415
2029.553822	-3.007900	3.234900	-9.729400	27.262105	0.000375	20.820447
2030.554098	-3.001700	3.235100	-9.709900	27.250962	0.000374	20.819195
2031.553650	-3.029300	3.235500	-9.800000	27.279740	0.000376	20.814004
2032.552406	-2.999900	3.234200	-9.701600	27.275619	0.000374	20.834514
2033.555623	-3.031800	3.235000	-9.805200	27.257453	0.000371	20.812449
2034.556564	-2.982200	3.235000	-9.645500	27.273300	0.000372	20.838345
2035.555333	-3.023000	3.232100	-9.769700	27.275525	0.000372	20.829204
2036.555399	-2.979800	3.234400	-9.636100	27.318444	0.000371	20.810737
2037.554460	-2.994100	3.232000	-9.676100	27.353844	0.000370	20.804622
2038.555429	-2.997800	3.231700	-9.687000	27.373786	0.000370	20.832743
2039.555914	-2.998400	3.231500	-9.688300	27.376083	0.000368	20.821778
2040.554353	-2.998100	3.233700	-9.693900	27.414659	0.000366	20.819334
2041.554781	-2.995500	3.231900	-9.680800	27.449428	0.000365	20.805001
2042.556771	-2.978500	3.231200	-9.622900	27.404061	0.000366	20.813888
2043.556251	-3.005800	3.231000	-9.709300	27.390816	0.000365	20.812891
2044.557917	-2.997800	3.229900	-9.679700	27.396121	0.000365	20.827238
2045.557979	-3.003000	3.229900	-9.698100	27.383627	0.000364	20.812298
2046.560952	-3.010800	3.228800	-9.719300	27.348686	0.000364	20.801804
2047.557106	-3.010900	3.229300	-9.722100	27.329000	0.000359	20.806183
2048.560327	-3.020700	3.227800	-9.748400	27.294251	0.000362	20.826704
2049.560986	-2.988900	3.228500	-9.648900	27.232923	0.000361	20.798680
2050.557582	-3.012400	3.227100	-9.719300	27.251889	0.000360	20.812542
2051.562430	-2.996100	3.227400	-9.668800	27.296923	0.000358	20.811374
2052.559336	-3.008600	3.226800	-9.705900	27.320613	0.000361	20.797272
2053.559991	-3.013600	3.224700	-9.716900	27.313133	0.000358	20.816300
2054.561491	-3.006700	3.224200	-9.693100	27.316783	0.000358	20.813333
2055.561194	-2.989800	3.225900	-9.643200	27.301567	0.000357	20.814623
2056.558767	-2.992900	3.225500	-9.652800	27.310485	0.000356	20.806525
2057.561005	-3.001000	3.223900	-9.673200	27.305605	0.000357	20.814417
2058.561537	-2.991900	3.224000	-9.644800	27.315587	0.000353	20.811182
2059.560218	-3.011100	3.222700	-9.702200	27.302052	0.000354	20.818430
2060.562546	-2.993100	3.223300	-9.646500	27.284067	0.000352	20.821676
2061.561453	-3.008700	3.222500	-9.694100	27.265334	0.000351	20.819427
2062.561394	-3.001100	3.222600	-9.670400	27.281323	0.000351	20.807061
2063.562874	-2.983100	3.222800	-9.613200	27.280102	0.000349	20.819584
2064.563742	-3.009500	3.220300	-9.690300	27.310246	0.000349	20.820982
2065.561134	-3.001100	3.221100	-9.665700	27.351725	0.000349	20.818137
2066.566127	-2.984400	3.222500	-9.617300	27.383027	0.000350	20.814539
2067.562897	-3.010100	3.221100	-9.694700	27.368742	0.000346	20.817712
2068.562207	-3.013500	3.219000	-9.699000	27.403970	0.000347	20.800995
2069.565114	-3.009000	3.219100	-9.685300	27.425627	0.000348	20.803341
2070.564247	-2.993900	3.219200	-9.636700	27.423246	0.000345	20.792411
2071.563078	-3.003700	3.218000	-9.664200	27.455814	0.000343	20.808581
2072.563982	-3.013100	3.217800	-9.694800	27.487294	0.000344	20.804690
2073.563541	-2.993200	3.217600	-9.629800	27.482158	0.000344	20.813748
2074.566458	-3.001500	3.217100	-9.655200	27.512829	0.000342	20.800510
2075.567324	-2.996600	3.217500	-9.640300	27.486604	0.000341	20.796884
2076.569285	-3.001600	3.215300	-9.650600	27.495982	0.000341	20.796362
2077.563596	-3.018700	3.213700	-9.699600	27.491029	0.000342	20.801336
2078.564214	-3.016400	3.213400	-9.692000	27.480744	0.000339	20.807584
2079.566432	-2.989600	3.215100	-9.609800	27.473530	0.000339	20.796532
2080.565568	-2.998000	3.214700	-9.637100	27.424407	0.000338	20.806381
2081.565656	-3.000700	3.214400	-9.644400	27.384005	0.000339	20.800824
2082.564643	-3.005500	3.212700	-9.654900	27.364344	0.000337	20.803805
2083.565306	-3.014700	3.212300	-9.682700	27.373105	0.000336	20.793652
2084.564785	-3.019500	3.211900	-9.696000	27.411536	0.000336	20.792484
2085.565303	-2.992900	3.212400	-9.613600	27.430243	0.000336	20.788545
2086.565078	-2.987100	3.212400	-9.594600	27.429712	0.000334	20.802710
2087.564766	-2.983000	3.211500	-9.579000	27.435912	0.000333	20.814163
2088.564999	-3.022100	3.209400	-9.697700	27.420504	0.000333	20.810990
2089.565784	-3.014300	3.210600	-9.677000	27.455381	0.000332	20.792972
2090.567435	-3.014500	3.210500	-9.677000	27.413483	0.000333	20.791125
2091.568729	-3.020000	3.209400	-9.691300	27.429726	0.000330	20.798931
2092.565791	-3.018600	3.209300	-9.686500	27.434377	0.000328	20.779902
2093.567252	-2.994100	3.209300	-9.608300	27.459176	0.000328	20.792523
2094.567970	-3.003800	3.208600	-9.636500	27.476939	0.000327	20.775781
2095.567786	-2.990200	3.208900	-9.593900	27.483319	0.000327	20.785993
2096.568963	-3.006500	3.205900	-9.638000	27.494328	0.000327	20.796121
2097.568087	-3.013100	3.206100	-9.659400	27.488867	0.000326	20.798212
2098.568151	-3.004500	3.207000	-9.634500	27.510920	0.000326	20.775829
2099.567514	-2.942900	3.206700	-9.435000	27.529819	0.000324	20.789155
2100.568322	-2.995100	3.204600	-9.597500	27.543195	0.000324	20.777482
2101.567904	-2.999000	3.204400	-9.609200	27.547436	0.000323	20.777482
2102.568236	-3.001800	3.204200	-9.617800	27.583192	0.000322	20.783113
2103.570594	-2.961400	3.205200	-9.491000	27.593691	0.000321	20.794151
2104.569345	-3.003200	3.203200	-9.618800	27.604301	0.000321	20.789179
2105.568701	-2.997600	3.203700	-9.602600	27.659060	0.000320	20.779319
2106.574756	-2.997200	3.202800	-9.597900	27.661246	0.000319	20.788158
2107.569199	-2.994900	3.202700	-9.590900	27.635246	0.000319	20.788074
2108.568553	-3.005100	3.201700	-9.619400	27.641323	0.000318	20.763843
2109.574245	-3.009400	3.201800	-9.633400	27.659510	0.000317	20.798264
2110.570986	-3.002200	3.200500	-9.607500	27.672450	0.000317	20.794216
2111.571873	-3.002100	3.201100	-9.609100	27.703861	0.000317	20.796901
2112.573776	-3.004900	3.199200	-9.612700	27.722324	0.000317	20.766642
2113.570800	-3.002000	3.200300	-9.605100	27.699790	0.000314	20.765778
2114.572264	-2.998000	3.200000	-9.591800	27.681559	0.000315	20.791054
2115.572629	-2.976700	3.198800	-9.520700	27.632529	0.000313	20.765899
2116.573895	-2.981000	3.200700	-9.539900	27.611168	0.000313	20.775226
2117.572971	-2.993600	3.198100	-9.572900	27.622537	0.000312	20.782872
2118.574185	-2.993000	3.197700	-9.569400	27.633316	0.000313	20.781864
2119.574647	-2.984200	3.196700	-9.538200	27.591487	0.000310	20.773915
2120.573709	-3.015200	3.194700	-9.630900	27.539781	0.000309	20.765512
2121.575013	-2.986200	3.196100	-9.543000	27.538416	0.000309	20.785476
2122.575382	-2.982800	3.195500	-9.529800	27.536773	0.000308	20.766753
2123.575737	-3.010700	3.193700	-9.614500	27.576528	0.000309	20.775459
2124.576956	-3.006400	3.193500	-9.600800	27.604210	0.000309	20.768225
2125.576039	-3.010300	3.194300	-9.614100	27.634587	0.000311	20.753745
2126.576219	-2.988700	3.194800	-9.547600	27.636631	0.000308	20.765285
2127.580838	-2.995100	3.193000	-9.562900	27.648616	0.000305	20.780664
2128.576849	-2.977900	3.193200	-9.507800	27.671185	0.000307	20.773977
2129.578583	-2.992500	3.191300	-9.549300	27.675731	0.000306	20.779025
2130.588393	-3.003800	3.191000	-9.584300	27.697430	0.000308	20.786636
2131.577972	-2.981300	3.191500	-9.513900	27.662780	0.000305	20.753664
2132.577583	-3.022500	3.189900	-9.639100	27.640089	0.000302	20.781093
2133.578679	-2.989100	3.189800	-9.533300	27.605932	0.000302	20.767586
2134.578670	-3.014500	3.189100	-9.612600	27.575956	0.000304	20.762081
2135.577374	-2.984300	3.189900	-9.518000	27.624784	0.000302	20.768537
2136.581074	-2.989100	3.190900	-9.537400	27.638013	0.000301	20.769995
2137.581113	-2.997300	3.187700	-9.553900	27.600353	0.000300	20.769085
2138.579796	-3.008300	3.187600	-9.587400	27.616375	0.000297	20.766714
2139.579730	-3.000300	3.187700	-9.562600	27.663486	0.000297	20.765755
2140.582979	-3.000000	3.187100	-9.560400	27.668742	0.000294	20.777208
2141.582098	-3.012600	3.185900	-9.597000	27.645001	0.000296	20.778449
2142.585494	-2.993200	3.184200	-9.529500	27.577736	0.000296	20.755337
2143.581941	-2.994100	3.185200	-9.535900	27.556180	0.000295	20.754985
2144.582449	-2.985800	3.185700	-9.511100	27.540785	0.000296	20.754194
2145.585022	-2.989900	3.185700	-9.523800	27.569025	0.000291	20.766487
2146.581579	-2.991100	3.183800	-9.522900	27.597445	0.000292	20.788445
2147.582363	-3.019600	3.181100	-9.605200	27.608987	0.000291	20.780143
2148.583884	-3.006300	3.182500	-9.565400	27.641584	0.000292	20.755571
2149.582831	-2.987700	3.183600	-9.511000	27.672927	0.000292	20.762453
2150.581336	-3.005100	3.182200	-9.561500	27.666777	0.000292	20.772860
2151.584962	-3.032300	3.182400	-9.648300	27.645960	0.000289	20.762345
2152.583567	-2.982800	3.181100	-9.486600	27.673990	0.000290	20.760204
2153.583380	-3.003500	3.179400	-9.547800	27.677265	0.000288	20.748325
2154.584759	-3.016000	3.181400	-9.593700	27.722052	0.000286	20.761152
2155.583430	-3.027200	3.179700	-9.625000	27.728988	0.000286	20.754381
2156.582928	-2.993300	3.179300	-9.515900	27.741238	0.000286	20.750114
2157.586100	-2.985800	3.178600	-9.490000	27.725461	0.000285	20.725227
2158.584934	-3.005300	3.177900	-9.549800	27.736007	0.000285	20.743427
2159.582842	-3.026700	3.176300	-9.612700	27.748368	0.000286	20.749702
2160.592087	-3.003700	3.177800	-9.544200	27.764388	0.000283	20.745435
2161.587719	-2.978800	3.179300	-9.469600	27.759749	0.000283	20.741240
2162.586991	-2.995700	3.177100	-9.515200	27.711242	0.000282	20.762128
2163.594727	-2.980900	3.176100	-9.466300	27.691175	0.000281	20.751418
2164.591999	-3.009800	3.174600	-9.553500	27.667445	0.000281	20.761679
2165.587794	-3.011300	3.173400	-9.555200	27.648500	0.000280	20.747830
2166.590549	-3.004400	3.175700	-9.540200	27.663859	0.000279	20.754277
2167.591947	-3.019000	3.172600	-9.577200	27.693205	0.000277	20.753461
2168.588581	-3.007600	3.173800	-9.544500	27.718819	0.000278	20.751735
2169.592342	-3.001300	3.173100	-9.522200	27.769719	0.000276	20.752223
2170.592140	-3.008900	3.171600	-9.542300	27.783466	0.000274	20.723382
2171.589725	-3.010700	3.170800	-9.545500	27.753856	0.000275	20.749061
2172.598530	-3.000900	3.171600	-9.516100	27.755390	0.000274	20.727845
2173.594633	-3.046100	3.171000	-9.657100	27.754521	0.000274	20.737401
2174.590869	-3.010200	3.170300	-9.542100	27.775203	0.000274	20.739724
2175.595576	-2.963900	3.171100	-9.397700	27.762264	0.000273	20.728124
2176.594326	-3.019000	3.167600	-9.561800	27.756915	0.000272	20.740759
2177.598306	-2.998100	3.168400	-9.498400	27.758508	0.000270	20.746156
2178.596254	-2.983300	3.169100	-9.453200	27.753506	0.000271	20.715042
2179.596003	-3.015000	3.166600	-9.545900	27.792227	0.000271	20.739786
2180.591973	-3.021100	3.166900	-9.566600	27.815531	0.000269	20.719142
2181.593191	-3.001100	3.166800	-9.502000	27.809902	0.000270	20.745720
2182.592687	-2.984800	3.166500	-9.450100	27.852993	0.000270	20.723179
2183.593003	-2.992000	3.166100	-9.471100	27.873747	0.000268	20.724626
2184.593235	-3.003000	3.164100	-9.500900	27.885441	0.000266	20.728336
2185.592524	-2.995100	3.164700	-9.477400	27.851365	0.000266	20.730550
2186.598286	-3.004900	3.163800	-9.505700	27.864605	0.000265	20.715425
2187.594103	-2.992200	3.163500	-9.464600	27.817492	0.000265	20.730599
2188.595554	-3.003700	3.161500	-9.494400	27.824549	0.000265	20.713518
2189.595798	-3.004600	3.163100	-9.502500	27.836507	0.000265	20.740727
2190.598968	-3.026200	3.161100	-9.564200	27.846608	0.000263	20.723866
2191.595842	-3.004900	3.162000	-9.500600	27.847249	0.000263	20.739685
2192.597079	-3.017500	3.159500	-9.532300	27.885507	0.000263	20.733618
2193.596921	-3.046400	3.159000	-9.622000	27.894894	0.000261	20.728367
2194.598242	-2.989300	3.157700	-9.438400	27.913932	0.000261	20.721449
2195.600578	-2.992700	3.159000	-9.451900	27.911892	0.000261	20.722715
2196.597301	-2.997000	3.158700	-9.465300	27.920191	0.000262	20.712102
2197.598066	-3.015700	3.157500	-9.520400	27.940472	0.000263	20.718765
2198.599235	-3.028300	3.157500	-9.560800	27.926956	0.000257	20.739301
2199.602365	-3.016100	3.155300	-9.515400	27.916810	0.000260	20.709173
2200.600421	-2.994500	3.155300	-9.447500	27.889573	0.000258	20.711631
2201.600548	-3.011600	3.154600	-9.499300	27.850422	0.000257	20.711108
2202.601303	-2.972300	3.154600	-9.375300	27.865075	0.000257	20.715898
2203.600846	-3.027600	3.152400	-9.542200	27.842281	0.000254	20.719985
2204.601453	-2.995100	3.153900	-9.445100	27.894565	0.000256	20.731829
2205.601188	-3.031100	3.151700	-9.552100	27.928387	0.000256	20.717032
2206.602379	-3.006200	3.152000	-9.474200	27.930645	0.000254	20.739695
2207.602561	-3.015100	3.151100	-9.499700	27.944379	0.000253	20.715585
2208.601971	-3.017700	3.151000	-9.507300	27.941397	0.000253	20.708315
2209.604377	-3.002100	3.149500	-9.453900	27.904409	0.000252	20.710442
2210.601705	-3.002400	3.147600	-9.449300	27.864777	0.000252	20.711331
2211.601915	-2.986600	3.149000	-9.403700	27.820793	0.000252	20.711160
2212.608573	-3.008100	3.146700	-9.463900	27.812143	0.000250	20.725215
2213.601974	-2.982500	3.147900	-9.387600	27.830409	0.000252	20.703768
2214.601537	-2.982200	3.149000	-9.389700	27.856491	0.000250	20.722432
2215.602246	-3.001100	3.145700	-9.439400	27.889722	0.000251	20.708935
2216.603455	-2.988600	3.145100	-9.398700	27.929041	0.000249	20.711052
2217.603218	-2.980100	3.145700	-9.373700	27.948418	0.000250	20.714908
2218.605506	-2.981000	3.145400	-9.375900	27.912688	0.000250	20.709291
2219.602841	-3.017600	3.143400	-9.485200	27.894907	0.000247	20.726958
2220.604403	-2.978500	3.144600	-9.364600	27.855105	0.000245	20.703967
2221.608200	-2.993100	3.141700	-9.401800	27.829533	0.000246	20.714741
2222.606281	-3.022100	3.139900	-9.488500	27.808526	0.000246	20.711142
2223.605015	-3.010500	3.140700	-9.454000	27.828216	0.000244	20.706777
2224.607353	-3.033600	3.139700	-9.522300	27.844526	0.000243	20.697586
2225.611366	-2.998100	3.139700	-9.412200	27.885887	0.000243	20.707921
2226.608134	-2.988400	3.139800	-9.381000	27.872142	0.000244	20.697879
2227.611140	-2.991900	3.139300	-9.391600	27.888693	0.000243	20.720228
2228.606813	-2.996100	3.138600	-9.402400	27.857031	0.000243	20.680299
2229.607799	-3.018500	3.136600	-9.465500	27.873292	0.000242	20.698562
2230.609533	-3.016200	3.136700	-9.460400	27.862141	0.000241	20.707729
2231.607415	-3.028400	3.135200	-9.493800	27.872893	0.000240	20.700058
2232.609065	-3.011000	3.135100	-9.438500	27.897512	0.000240	20.685954
2233.611254	-3.021200	3.134100	-9.466600	27.939924	0.000239	20.695452
2234.607931	-2.992900	3.135900	-9.384800	27.906564	0.000240	20.677994
2235.608509	-2.999400	3.134800	-9.401000	27.888478	0.000239	20.684922
2236.614199	-3.009000	3.134500	-9.430700	27.904340	0.000239	20.690456
2237.612039	-3.011700	3.132800	-9.433800	27.935941	0.000239	20.709936
2238.611305	-3.003100	3.132300	-9.405900	27.942173	0.000236	20.684437
2239.613538	-3.023700	3.131600	-9.467200	27.985380	0.000233	20.709437
2240.616462	-2.990300	3.130300	-9.358800	27.953769	0.000235	20.696111
2241.613126	-2.998000	3.129400	-9.380900	27.957043	0.000234	20.680912
2242.615457	-2.980400	3.128800	-9.323600	27.910720	0.000231	20.682652
2243.613693	-2.996800	3.128400	-9.372800	27.811678	0.000233	20.685389
2244.613302	-3.005000	3.125800	-9.391700	27.816871	0.000231	20.710532
2245.612814	-2.995200	3.126300	-9.363000	27.800925	0.000232	20.687844
2246.611351	-3.046900	3.124100	-9.518300	27.832782	0.000230	20.686714
2247.613087	-2.993100	3.124700	-9.351200	27.871788	0.000231	20.710326
2248.614401	-3.004300	3.123700	-9.383800	27.861884	0.000230	20.683287
2249.613918	-3.011600	3.123300	-9.404900	27.881079	0.000230	20.704978
2250.615496	-3.015100	3.121600	-9.410100	27.847727	0.000230	20.706498
2251.616879	-2.954100	3.123200	-9.225600	27.817127	0.000232	20.708419
2252.617974	-3.001400	3.121500	-9.368100	27.750501	0.000228	20.703482
2253.616665	-2.993800	3.121600	-9.344700	27.801919	0.000228	20.721090
2254.619479	-2.994700	3.119600	-9.341500	27.814917	0.000230	20.703824
2255.616487	-2.991600	3.118700	-9.328500	27.828351	0.000227	20.697903
2256.616696	-2.979000	3.119400	-9.291100	27.865508	0.000227	20.689779
2257.621919	-3.002900	3.117300	-9.359900	27.902099	0.000226	20.711909
2258.619559	-3.020200	3.116000	-9.409100	27.949159	0.000225	20.700006
2259.618382	-3.002300	3.116100	-9.354500	27.958075	0.000225	20.700919
2260.621046	-3.021900	3.114000	-9.408400	27.926114	0.000225	20.689138
2261.619795	-2.986100	3.114500	-9.298300	27.900602	0.000225	20.703764
2262.619575	-2.984300	3.113700	-9.291600	27.870087	0.000224	20.697234
2263.624051	-2.978300	3.115100	-9.277100	27.894031	0.000223	20.694779
2264.618816	-2.969400	3.113600	-9.244000	27.897291	0.000223	20.682886
2265.620206	-2.999500	3.110700	-9.329700	27.948567	0.000222	20.701306
2266.620572	-2.985100	3.110700	-9.284800	27.963510	0.000222	20.690267
2267.621171	-3.004000	3.109800	-9.341000	27.991424	0.000222	20.717892
2268.620935	-3.011800	3.110100	-9.366600	27.968944	0.000222	20.698583
2269.621957	-3.026000	3.108300	-9.404300	27.900903	0.000218	20.683203
2270.621360	-2.992500	3.109200	-9.302300	27.870777	0.000221	20.690340
2271.621540	-2.999900	3.108200	-9.322500	27.876406	0.000219	20.690790
2272.621807	-2.982400	3.106400	-9.263300	27.917440	0.000217	20.693684
2273.623741	-3.003100	3.106300	-9.327200	27.893861	0.000219	20.706937
2274.623524	-2.999700	3.105500	-9.315200	27.907596	0.000219	20.701794
2275.622221	-3.025900	3.102500	-9.386800	27.913779	0.000218	20.681463
2276.626675	-3.020900	3.101700	-9.368000	27.914191	0.000216	20.672868
2277.623558	-2.983700	3.102200	-9.254600	27.898028	0.000218	20.693112
2278.622769	-2.987800	3.101700	-9.265900	27.878786	0.000218	20.694134
2279.622835	-2.997000	3.100800	-9.291700	27.875294	0.000214	20.697732
2280.622312	-3.016300	3.100100	-9.348800	27.912632	0.000217	20.703545
2281.624319	-2.987400	3.098400	-9.254400	27.919747	0.000216	20.695532
2282.624722	-2.995800	3.098800	-9.282600	27.926789	0.000214	20.695508
2283.623571	-3.012200	3.097400	-9.328900	27.938747	0.000214	20.689525
2284.631922	-2.991900	3.096600	-9.261700	27.977617	0.000215	20.678862
2285.624210	-2.995600	3.094400	-9.269100	27.966132	0.000215	20.706184
2286.624931	-3.014400	3.093300	-9.323200	27.986772	0.000215	20.693294
2287.626142	-3.037000	3.094700	-9.396600	28.021256	0.000213	20.687227
2288.627423	-3.015200	3.092300	-9.322800	27.985203	0.000215	20.692188
2289.625129	-2.998600	3.092600	-9.272400	27.926679	0.000213	20.689232
2290.626981	-2.982100	3.092400	-9.221200	27.926246	0.000215	20.694012
2291.626587	-2.972500	3.091900	-9.189400	27.901496	0.000212	20.700396
2292.626634	-2.979000	3.091700	-9.208700	27.923807	0.000213	20.707680
2293.628384	-2.984800	3.090600	-9.223700	27.954885	0.000215	20.692966
2294.629829	-3.005000	3.088700	-9.280300	27.924676	0.000212	20.713297
2295.630993	-2.971800	3.089500	-9.180800	27.876454	0.000211	20.677087
2296.630396	-2.982100	3.087300	-9.205600	27.876129	0.000211	20.691934
2297.630209	-2.993700	3.085800	-9.236600	27.897450	0.000212	20.721930
2298.629849	-2.992700	3.085900	-9.232200	27.945744	0.000213	20.697990
2299.631118	-2.988700	3.084400	-9.217900	28.005632	0.000209	20.690940
2300.629931	-2.978200	3.083300	-9.182100	28.061842	0.000210	20.706271
2301.634901	-2.991100	3.083000	-9.220500	28.067445	0.000209	20.705274
2302.631267	-2.995700	3.081600	-9.230100	28.094065	0.000210	20.702673
2303.631101	-2.986900	3.080600	-9.200200	28.106336	0.000211	20.705543
2304.632563	-2.995900	3.079600	-9.224600	28.128604	0.000210	20.718478
2305.631422	-3.033000	3.078200	-9.335000	28.120213	0.000208	20.689165
2306.638165	-2.991000	3.078600	-9.207400	28.163364	0.000210	20.719332
2307.631193	-3.029300	3.075900	-9.316100	28.176587	0.000210	20.710358
2308.631001	-2.998900	3.075700	-9.222100	28.178232	0.000209	20.700159
2309.632809	-2.983900	3.076500	-9.177900	28.199183	0.000208	20.713667
2310.631781	-2.993700	3.074900	-9.203900	28.149346	0.000208	20.705218
2311.631852	-3.019900	3.072000	-9.275400	28.147112	0.000208	20.718618
2312.634238	-2.996900	3.071100	-9.202900	28.154852	0.000207	20.696062
2313.633126	-3.003900	3.072100	-9.227200	28.153550	0.000206	20.728893
2314.635626	-3.008100	3.069500	-9.232000	28.126378	0.000208	20.718133
2315.635695	-3.010700	3.068900	-9.239100	28.101293	0.000207	20.699518
2316.635477	-3.012900	3.067100	-9.240400	28.088541	0.000206	20.727460
2317.635090	-2.995000	3.068000	-9.187200	28.133349	0.000209	20.718987
2318.635284	-3.007500	3.067000	-9.223100	28.178540	0.000206	20.714221
2319.633759	-2.974900	3.067000	-9.122800	28.201992	0.000208	20.706062
2320.638276	-2.972800	3.065000	-9.110300	28.239357	0.000206	20.722819
2321.636372	-2.988700	3.065300	-9.159800	28.251795	0.000207	20.720644
2322.637239	-3.038200	3.061200	-9.299200	28.306254	0.000206	20.715731
2323.636838	-3.003600	3.062500	-9.197700	28.320866	0.000207	20.701519
2324.637831	-2.998300	3.060700	-9.176300	28.331770	0.000208	20.716292
2325.637027	-2.975200	3.061800	-9.107400	28.311763	0.000207	20.710846
2326.637340	-2.996600	3.058800	-9.165300	28.314301	0.000206	20.720040
2327.639637	-3.006000	3.057200	-9.189200	28.350935	0.000205	20.720417
2328.637610	-2.978400	3.057200	-9.104800	28.359207	0.000205	20.718789
2329.638084	-2.999500	3.055900	-9.164500	28.362071	0.000204	20.720250
2330.639077	-3.012200	3.054200	-9.197800	28.310080	0.000205	20.724800
2331.638183	-3.007000	3.053300	-9.179600	28.237868	0.000203	20.718475
2332.641899	-2.992600	3.052600	-9.134200	28.200579	0.000204	20.712701
2333.640020	-2.979500	3.051700	-9.091800	28.223428	0.000203	20.720058
2334.642363	-2.994600	3.049300	-9.130700	28.239104	0.000205	20.729204
2335.640591	-3.005900	3.049700	-9.165500	28.250359	0.000203	20.725361
2336.640922	-3.000000	3.047100	-9.139600	28.233418	0.000204	20.686018
2337.642043	-3.008100	3.047100	-9.164200	28.207117	0.000203	20.714068
2338.640972	-3.030200	3.043400	-9.220700	28.212059	0.000203	20.699128
2339.645360	-3.032900	3.044800	-9.233400	28.177581	0.000202	20.717524
2340.644269	-2.990500	3.045400	-9.105600	28.182436	0.000202	20.734266
2341.641829	-2.983400	3.042400	-9.075600	28.161956	0.000203	20.734985
2342.645138	-2.987700	3.041900	-9.087800	28.165918	0.000201	20.721903
2343.642953	-3.004800	3.041000	-9.134900	28.176823	0.000201	20.728615
2344.644401	-2.997600	3.038700	-9.107400	28.227712	0.000201	20.726742
2345.646357	-3.007300	3.038200	-9.136300	28.244330	0.000200	20.735414
2346.644432	-2.982600	3.039200	-9.063600	28.253230	0.000201	20.740107
2347.645218	-3.001800	3.035800	-9.110800	28.270159	0.000199	20.731547
2348.647511	-2.988900	3.035300	-9.071000	28.299046	0.000200	20.752097
2349.647445	-3.005400	3.035200	-9.121500	28.324243	0.000199	20.727206
2350.647982	-2.994200	3.032200	-9.078300	28.349613	0.000198	20.721931
2351.650242	-2.990600	3.032400	-9.067500	28.343287	0.000201	20.736899
2352.650874	-3.002100	3.031000	-9.098400	28.353322	0.000198	20.749848
2353.650299	-2.976200	3.030300	-9.017400	28.394556	0.000198	20.737788
2354.654023	-2.995500	3.028700	-9.071100	28.393517	0.000198	20.734371
2355.652304	-2.977300	3.026600	-9.010500	28.439313	0.000199	20.727381
2356.653551	-3.008100	3.025300	-9.098900	28.402138	0.000199	20.717447
2357.654692	-2.990900	3.024400	-9.044500	28.422473	0.000200	20.746460
2358.656160	-3.003200	3.023300	-9.078700	28.456316	0.000197	20.739762
2359.655626	-2.982000	3.023000	-9.013600	28.472117	0.000199	20.738130
2360.656921	-3.017200	3.021700	-9.115800	28.450049	0.000199	20.725390
2361.656919	-2.973400	3.020500	-8.979400	28.417740	0.000198	20.736952
2362.653827	-2.998300	3.019600	-9.053100	28.370738	0.000198	20.728504
2363.655293	-2.994900	3.017500	-9.035900	28.308385	0.000197	20.743008
2364.657386	-2.990800	3.017100	-9.022700	28.296456	0.000197	20.731471
2365.656120	-2.991800	3.016100	-9.022800	28.299777	0.000196	20.745246
2366.661624	-2.989000	3.014500	-9.009200	28.330410	0.000196	20.742900
2367.658201	-3.016500	3.011800	-9.084100	28.367587	0.000198	20.741927
2368.657890	-3.017500	3.011700	-9.087200	28.414748	0.000196	20.740104
2369.659079	-2.987200	3.011100	-8.993900	28.411054	0.000196	20.735909
2370.656843	-2.991900	3.009700	-9.004600	28.473198	0.000196	20.744908
2371.656876	-3.012800	3.007500	-9.060000	28.496342	0.000196	20.744982
2372.658501	-2.989200	3.006200	-8.984700	28.495992	0.000197	20.743207
2373.657888	-3.018900	3.004200	-9.067200	28.454388	0.000196	20.736872
2374.658245	-2.983600	3.004900	-8.964000	28.456742	0.000195	20.738769
2375.659931	-2.990300	3.003400	-8.980300	28.475275	0.000194	20.736569
2376.662846	-2.980900	3.001300	-8.945500	28.502632	0.000194	20.747049
2377.659596	-3.014200	2.999400	-9.040300	28.501812	0.000193	20.743378
2378.662163	-2.987700	2.998100	-8.956100	28.500423	0.000194	20.746722
2379.659292	-3.011100	2.997100	-9.023800	28.523698	0.000194	20.734599
2380.661573	-2.982000	2.995600	-8.931400	28.520562	0.000193	20.750407
2381.668335	-2.982000	2.996300	-8.934100	28.475410	0.000194	20.746188
2382.660347	-2.990000	2.993800	-8.949700	28.414247	0.000195	20.751927
2383.660835	-3.003400	2.991100	-8.982500	28.373799	0.000193	20.751028
2384.662577	-3.012600	2.989700	-9.005900	28.347201	0.000194	20.737521
2385.660533	-3.010200	2.988600	-8.995300	28.304081	0.000196	20.749107
2386.664886	-2.998400	2.986300	-8.953300	28.294978	0.000192	20.751795
2387.664255	-3.013800	2.987200	-9.001500	28.322655	0.000193	20.759274
2388.663785	-3.018400	2.984600	-9.007800	28.370337	0.000194	20.756551
2389.664380	-3.026800	2.983500	-9.029300	28.365857	0.000193	20.747771
2390.664935	-3.017100	2.981200	-8.993800	28.409241	0.000192	20.753524
2391.663642	-2.977700	2.982300	-8.879600	28.458560	0.000194	20.737755
2392.664852	-3.031700	2.979100	-9.030800	28.447318	0.000193	20.765790
2393.664628	-2.986900	2.980200	-8.899500	28.405920	0.000194	20.732162
2394.662572	-2.993600	2.977700	-8.912500	28.357841	0.000192	20.752503
2395.664830	-2.999700	2.975800	-8.925400	28.339791	0.000190	20.749975
2396.663999	-2.994500	2.974100	-8.904100	28.363215	0.000192	20.758388
2397.665425	-2.984600	2.974500	-8.877100	28.396274	0.000192	20.765124
2398.665775	-2.996000	2.970300	-8.896800	28.366151	0.000192	20.762767
2399.663933	-2.987700	2.970600	-8.874000	28.348316	0.000191	20.746705
2400.666402	-2.981100	2.968500	-8.848600	28.294836	0.000193	20.751652
2401.665908	-2.979900	2.967600	-8.842200	28.267789	0.000192	20.764249
2402.664721	-2.986900	2.965500	-8.856500	28.241935	0.000193	20.774255
2403.664795	-3.001800	2.963500	-8.895000	28.216926	0.000191	20.758559
2404.666341	-2.987500	2.963100	-8.851300	28.215804	0.000192	20.767387
2405.667372	-2.993400	2.960200	-8.859900	28.230244	0.000193	20.768175
2406.666839	-3.008300	2.959300	-8.901200	28.248626	0.000191	20.741161
2407.667309	-2.970200	2.958300	-8.786000	28.286107	0.000193	20.728163
2408.667380	-2.988200	2.955700	-8.831600	28.272003	0.000192	20.759009
2409.666505	-2.974200	2.955700	-8.790100	28.311308	0.000192	20.772505
2410.667099	-2.986000	2.954000	-8.819600	28.321052	0.000194	20.762401
2411.667893	-3.027200	2.950400	-8.929600	28.355826	0.000193	20.759957
2412.668196	-2.990300	2.951400	-8.823700	28.405498	0.000192	20.762558
2413.667663	-3.010300	2.948800	-8.874800	28.474050	0.000194	20.768053
2414.667839	-2.999000	2.947400	-8.838500	28.510595	0.000191	20.770716
2415.668005	-2.978900	2.945700	-8.774200	28.536903	0.000191	20.751691
2416.667038	-2.993100	2.945400	-8.815100	28.556614	0.000192	20.743567
2417.667475	-2.986300	2.942100	-8.784900	28.596535	0.000193	20.764807
2418.667733	-2.988100	2.941400	-8.788200	28.615042	0.000191	20.768272
2419.668293	-3.005500	2.939200	-8.833100	28.627355	0.000191	20.769294
2420.668901	-3.006900	2.937700	-8.832300	28.623744	0.000192	20.769925
2421.669619	-2.984600	2.936600	-8.764200	28.634416	0.000193	20.772613
2422.669610	-2.986400	2.935400	-8.765800	28.646404	0.000192	20.754340
2423.670294	-2.973900	2.934400	-8.724300	28.624880	0.000191	20.769172
2424.678724	-2.979800	2.933300	-8.739400	28.621744	0.000192	20.747047
2425.674514	-3.014000	2.930000	-8.830000	28.571272	0.000192	20.790098
2426.670236	-2.987600	2.928500	-8.748000	28.553610	0.000190	20.766146
2427.673072	-3.013300	2.927300	-8.820200	28.511900	0.000191	20.772979
2428.674603	-2.980200	2.927500	-8.723600	28.480583	0.000192	20.768942
2429.671844	-3.073600	2.920700	-8.975500	28.511163	0.000190	20.753270
2430.673401	-3.009800	2.921800	-8.793100	28.555842	0.000189	20.771714
2431.674806	-2.982500	2.919900	-8.707200	28.600219	0.000191	20.747653
2432.671527	-2.987500	2.919700	-8.721200	28.637508	0.000191	20.762924
2433.674489	-3.023300	2.916200	-8.814800	28.627185	0.000190	20.760114
2434.674680	-2.985700	2.915700	-8.704700	28.607208	0.000192	20.764176
2435.673244	-2.990000	2.915200	-8.715400	28.556784	0.000192	20.767446
2436.674222	-2.999600	2.912000	-8.734400	28.543650	0.000191	20.773659
2437.673793	-3.002800	2.910700	-8.739100	28.490058	0.000192	20.774691
2438.671524	-2.980300	2.908900	-8.668900	28.485316	0.000191	20.773234
2439.675302	-3.001300	2.907500	-8.725200	28.519745	0.000191	20.774715
2440.674479	-2.984800	2.906100	-8.672900	28.562638	0.000191	20.771445
2441.676549	-2.996700	2.905000	-8.704100	28.581567	0.000189	20.785768
2442.674933	-3.009200	2.901400	-8.729000	28.604189	0.000190	20.760187
2443.674227	-3.017400	2.898000	-8.743300	28.643808	0.000190	20.770218
2444.672575	-3.023300	2.897400	-8.757200	28.706370	0.000191	20.774437
2445.677255	-2.976700	2.897100	-8.622800	28.779488	0.000189	20.782180
2446.677443	-2.972700	2.894800	-8.605000	28.802009	0.000190	20.771675
2447.677246	-3.016000	2.892600	-8.722700	28.844628	0.000190	20.770985
2448.677602	-3.011100	2.891700	-8.706100	28.841717	0.000191	20.759518
2449.675233	-3.003600	2.888200	-8.674400	28.862330	0.000190	20.784077
2450.675969	-3.012800	2.886600	-8.695800	28.872529	0.000192	20.810946
2451.676437	-2.987700	2.886600	-8.624100	28.872311	0.000189	20.790338
2452.676635	-2.981400	2.883700	-8.595400	28.840305	0.000189	20.790338
2453.676030	-2.976300	2.881100	-8.573600	28.874799	0.000192	20.784310
2454.678098	-2.991900	2.878800	-8.612700	28.888386	0.000189	20.775713
2455.675855	-2.991300	2.877200	-8.605200	28.891390	0.000190	20.804817
2456.675430	-2.996600	2.875400	-8.614200	28.918930	0.000189	20.794630
2457.678277	-3.002000	2.873000	-8.624400	28.943248	0.000191	20.781197
2458.676751	-3.010000	2.872000	-8.643800	28.950536	0.000189	20.803712
2459.676679	-2.986100	2.869100	-8.566600	28.960914	0.000192	20.789986
2460.676593	-2.986300	2.867500	-8.562500	28.974839	0.000189	20.794532
2461.677339	-3.017700	2.864700	-8.643900	28.927257	0.000191	20.791639
2462.677774	-3.023700	2.861900	-8.653200	28.923467	0.000190	20.798727
2463.678506	-3.013900	2.861100	-8.621300	28.950027	0.000190	20.781388
2464.680547	-3.011900	2.860400	-8.614500	28.930357	0.000192	20.799030
2465.677555	-3.018700	2.856600	-8.622600	28.905554	0.000190	20.784948
2466.677882	-3.029700	2.854100	-8.645800	28.884825	0.000191	20.795833
2467.677932	-3.001500	2.853800	-8.564000	28.869400	0.000191	20.783139
2468.675935	-2.987800	2.851100	-8.518000	28.846313	0.000190	20.783114
2469.676203	-2.990900	2.850600	-8.524200	28.855799	0.000190	20.798360
2470.676463	-2.995400	2.847300	-8.527800	28.902308	0.000190	20.785945
2471.677116	-3.009400	2.844100	-8.557400	28.927447	0.000191	20.809848
2472.677078	-2.978100	2.841800	-8.462200	28.957640	0.000192	20.802335
2473.677103	-2.999900	2.840500	-8.520300	28.975078	0.000191	20.809471
2474.678718	-2.997300	2.838400	-8.506400	29.025962	0.000190	20.797677
2475.680998	-2.965200	2.837300	-8.411700	28.999574	0.000191	20.807125
2476.678972	-2.977000	2.835300	-8.440100	29.001927	0.000192	20.802858
2477.680625	-2.993700	2.832100	-8.477600	28.993892	0.000191	20.811358
2478.687180	-3.018900	2.830300	-8.543500	28.990982	0.000190	20.802736
2479.679965	-2.994300	2.827800	-8.466100	28.966330	0.000190	20.813934
2480.679641	-2.983000	2.825100	-8.426200	28.932299	0.000191	20.793399
2481.681002	-3.013400	2.822800	-8.504000	28.857332	0.000190	20.806543
2482.679761	-3.036800	2.820500	-8.562400	28.872792	0.000191	20.805047
2483.684930	-2.998500	2.820300	-8.455500	28.895747	0.000191	20.801146
2484.704203	-2.990100	2.818300	-8.424900	28.920823	0.000189	20.795114
2485.681578	-3.017100	2.813300	-8.486900	28.966897	0.000191	20.798385
2486.682821	-3.002600	2.812000	-8.440900	29.012644	0.000189	20.800853
2487.682251	-3.018800	2.808900	-8.477900	29.007021	0.000191	20.802300
2488.682765	-3.025500	2.806700	-8.490900	28.982248	0.000190	20.790617
2489.683058	-2.979800	2.805900	-8.360200	28.953322	0.000191	20.805096
2490.686062	-2.979300	2.803100	-8.350400	28.955446	0.000190	20.799650
2491.684039	-2.997100	2.799900	-8.390800	28.969818	0.000189	20.819819
2492.685203	-2.996800	2.796700	-8.380200	28.946698	0.000191	20.815018
2493.686345	-3.008700	2.795700	-8.410300	28.964243	0.000190	20.804720
2494.685481	-3.020900	2.792100	-8.433500	29.014225	0.000191	20.814774
2495.685823	-3.004500	2.789600	-8.380100	29.034184	0.000190	20.816392
2496.688794	-3.008600	2.786600	-8.382900	29.039880	0.000190	20.808380
2497.687082	-3.009000	2.784900	-8.378600	29.005356	0.000190	20.808210
2498.687983	-3.003100	2.782600	-8.355300	28.973282	0.000188	20.822361
2499.690065	-3.016000	2.778500	-8.378900	28.964703	0.000188	20.804709
2500.687275	-2.975800	2.778200	-8.266200	28.942594	0.000189	20.822737
2501.689015	-2.990500	2.774100	-8.295500	28.955305	0.000190	20.828431
2502.691295	-3.001100	2.771400	-8.316000	28.964077	0.000187	20.822570
2503.688076	-3.009100	2.766900	-8.325000	28.972656	0.000190	20.806083
2504.687396	-2.966600	2.766700	-8.206200	28.973441	0.000189	20.809245
2505.688980	-2.986000	2.762800	-8.249000	28.983674	0.000190	20.811494
2506.689877	-3.019800	2.758800	-8.329200	29.003682	0.000189	20.804626
2507.692131	-3.004900	2.757200	-8.284500	29.009256	0.000191	20.812139
2508.692428	-2.992500	2.753700	-8.239700	29.057922	0.000188	20.822291
2509.692436	-3.009200	2.750700	-8.276000	29.058732	0.000189	20.843495
2510.695979	-2.974700	2.748400	-8.174700	29.014966	0.000187	20.818840
2511.692213	-3.008600	2.744900	-8.256700	29.006675	0.000189	20.817599
2512.691759	-2.998800	2.739900	-8.215400	28.953761	0.000190	20.824031
2513.692446	-3.011400	2.737300	-8.242100	28.936299	0.000187	20.830620
2514.691831	-2.995800	2.735200	-8.192800	28.984304	0.000189	20.811654
2515.690967	-2.987100	2.734400	-8.165700	29.044434	0.000191	20.819607
2516.691833	-3.036600	2.727300	-8.280900	29.089416	0.000189	20.838377
2517.692434	-3.006300	2.725100	-8.190900	29.101966	0.000189	20.827315
2518.692459	-3.019300	2.721500	-8.215000	29.142264	0.000188	20.816239
2519.694193	-2.991600	2.718400	-8.131300	29.168867	0.000191	20.817442
2520.693695	-2.985800	2.715600	-8.107700	29.216923	0.000189	20.821298
2521.693916	-2.980100	2.711700	-8.080500	29.229870	0.000190	20.846671
2522.693366	-2.987900	2.708500	-8.092600	29.270609	0.000191	20.834623
2523.694924	-3.039500	2.703800	-8.217000	29.312904	0.000190	20.838367
2524.695253	-3.029600	2.700500	-8.180400	29.286111	0.000188	20.828909
2525.696830	-2.993200	2.696500	-8.070100	29.258255	0.000189	20.830233
2526.696706	-3.017100	2.692600	-8.122600	29.236408	0.000191	20.835717
2527.697452	-3.012400	2.690800	-8.104700	29.219169	0.000189	20.817397
2528.700258	-3.023500	2.684600	-8.115700	29.192097	0.000191	20.810978
2529.698838	-3.010400	2.682900	-8.075400	29.167508	0.000191	20.806115
2530.698556	-3.017300	2.678900	-8.081300	29.167062	0.000189	20.805665
2531.699760	-3.007800	2.673400	-8.040200	29.165916	0.000190	20.832960
2532.699892	-3.003400	2.670300	-8.019400	29.200193	0.000189	20.811550
2533.700014	-2.990300	2.667500	-7.975900	29.230306	0.000187	20.801593
2534.702563	-3.000000	2.663900	-7.990100	29.220740	0.000189	20.819928
2535.700132	-3.019100	2.659900	-8.028700	29.221933	0.000188	20.822553
2536.701465	-3.006100	2.654000	-7.976900	29.268164	0.000192	20.813192
2537.699641	-3.009100	2.650200	-7.973800	29.302340	0.000191	20.801642
2538.703540	-2.993000	2.647500	-7.923000	29.282652	0.000191	20.787965
2539.701511	-3.016600	2.641900	-7.968200	29.264604	0.000188	20.815769
2540.701010	-3.001200	2.637700	-7.914900	29.247005	0.000190	20.806094
2541.701352	-3.008000	2.631800	-7.916000	29.231236	0.000189	20.796841
2542.701227	-2.978100	2.629500	-7.829600	29.221453	0.000190	20.802629
2543.701213	-3.018500	2.623300	-7.916600	29.204874	0.000189	20.798724
2544.704852	-2.999700	2.619700	-7.856800	29.187973	0.000189	20.787383
2545.705233	-3.003900	2.612800	-7.847100	29.210558	0.000190	20.819151
2546.703050	-3.001700	2.610000	-7.833400	29.219013	0.000189	20.801119
2547.705227	-2.987300	2.603600	-7.776400	29.234288	0.000192	20.791856
2548.703744	-2.994400	2.598900	-7.781900	29.253904	0.000192	20.812098
2549.702491	-3.028400	2.592400	-7.850300	29.251696	0.000190	20.788537
2550.704957	-3.052800	2.588400	-7.900200	29.211606	0.000190	20.798396
2551.703880	-3.011800	2.583500	-7.779500	29.171553	0.000188	20.804027
2552.703148	-3.001400	2.577700	-7.735800	29.125076	0.000190	20.785169
2553.705182	-3.028500	2.571700	-7.788100	29.133667	0.000189	20.795722
2554.704247	-3.011300	2.566000	-7.725500	29.125993	0.000191	20.794627
2555.703958	-3.013600	2.559500	-7.711800	29.134055	0.000188	20.794690
2556.708554	-2.993600	2.556200	-7.650900	29.181652	0.000191	20.798557
2557.709107	-2.999800	2.549000	-7.644800	29.218242	0.000191	20.783272
2558.708007	-3.007000	2.544400	-7.647700	29.229621	0.000191	20.758229
2559.712192	-2.996500	2.539000	-7.606500	29.228631	0.000189	20.795639
2560.709002	-3.014200	2.531300	-7.628000	29.221380	0.000191	20.774580
2561.708593	-3.004500	2.525100	-7.586300	29.233482	0.000189	20.782509
2562.711654	-2.993400	2.519900	-7.541600	29.272980	0.000190	20.789122
2563.708542	-3.016800	2.512000	-7.577600	29.332332	0.000190	20.785877
2564.708942	-2.940600	2.509700	-7.378200	29.370401	0.000190	20.769242
2565.708764	-3.004600	2.501600	-7.514700	29.402730	0.000191	20.769584
2566.711901	-2.991000	2.495500	-7.463800	29.388060	0.000191	20.769023
