LabVIEW Measurement	
Writer_Version	2
Reader_Version	2
Separator	Tab
Decimal_Separator	.
Multi_Headings	No
X_Columns	One
Time_Pref	Absolute
Operator	admin
Description	Clolumns are: time, Current, Voltage, Power, Battery Temp, and Chamber Temp
Date	2024/08/16
Time	13:06:06.104549407958984375
***End_of_Header***	
	
Channels	6						
Samples	1	1	1	1	1	1	
Date	2024/09/11	2024/09/11	2024/09/11	2024/09/11	2024/09/11	2024/09/11	
Time	01:39:00.9002857208251953125	01:39:00.9092841148376464844	01:39:00.9180998802185058594	01:39:00.8800382614135742187	01:39:00.8800382614135742187	01:39:00.8800382614135742187	
X_Dimension	Time	Time	Time	Time	Time	Time	
X0	0.0000000000000000E+0	0.0000000000000000E+0	0.0000000000000000E+0	0.0000000000000000E+0	0.0000000000000000E+0	0.0000000000000000E+0	
Delta_X	1.000000	1.000000	1.000000	1.000000	1.000000	1.000000	
***End_of_Header***							
X_Value	Untitled	Untitled 1	Untitled 2	Untitled 3	Untitled 4	Untitled 5	Comment
0.000000	0.012740	4.098600	0.052153	20.969885	0.000906	20.718120
0.997898	-3.008900	3.920900	-11.796000	20.974134	0.000906	20.724740
1.996828	-3.009700	3.914800	-11.781000	20.970987	0.000906	20.707842
2.996570	-2.991400	3.909400	-11.694000	20.989975	0.000906	20.691744
3.998326	-3.004400	3.904700	-11.731000	20.988233	0.000904	20.700434
4.998962	-3.004400	3.901500	-11.721000	20.973772	0.000901	20.689288
5.999714	-3.010200	3.898700	-11.735000	20.995506	0.000902	20.711027
6.995440	-2.992500	3.896500	-11.659000	20.980328	0.000902	20.714340
7.996199	-3.001600	3.894400	-11.690000	20.990740	0.000902	20.713848
8.999129	-3.000600	3.891500	-11.676000	20.989497	0.000900	20.691740
9.997308	-2.960000	3.890900	-11.516000	20.972665	0.000902	20.715210
11.004454	-2.991000	3.888800	-11.630000	21.002353	0.000897	20.711238
11.997567	-2.979800	3.890200	-11.591000	20.994244	0.000897	20.709766
13.000661	-3.006600	3.884900	-11.680000	21.002040	0.000898	20.719460
14.002253	-3.006400	3.885100	-11.679000	21.002163	0.000898	20.700615
15.004763	-2.993200	3.884400	-11.625000	20.999318	0.000896	20.705357
16.005841	-2.991000	3.883000	-11.612000	20.983811	0.000895	20.719720
17.005085	-3.006800	3.881100	-11.668000	21.003026	0.000897	20.723292
18.002480	-2.999000	3.878900	-11.631000	21.022112	0.000895	20.715828
19.003953	-3.033800	3.876800	-11.761000	21.025862	0.000894	20.718630
20.006954	-2.990500	3.878100	-11.597000	21.043230	0.000894	20.701387
20.999382	-3.005100	3.876600	-11.649000	21.036575	0.000891	20.715121
22.003753	-3.017700	3.876600	-11.698000	21.029661	0.000894	20.693031
23.003096	-3.009100	3.875300	-11.661000	21.065499	0.000891	20.721292
24.004308	-2.990000	3.875100	-11.585000	21.045270	0.000891	20.701057
25.010144	-3.004500	3.873500	-11.637000	21.061640	0.000889	20.709845
26.005319	-2.993900	3.873600	-11.596000	21.078207	0.000892	20.700811
27.007194	-3.011500	3.871900	-11.660000	21.088495	0.000891	20.710628
28.006566	-3.012800	3.871400	-11.662000	21.079242	0.000889	20.700424
29.009471	-3.003300	3.872000	-11.628000	21.107733	0.000890	20.710431
30.010431	-3.012400	3.870300	-11.657000	21.094861	0.000887	20.687122
31.008304	-3.005100	3.868600	-11.623000	21.108867	0.000888	20.703504
32.012183	-2.999700	3.869500	-11.606000	21.111195	0.000888	20.726223
33.015289	-3.012200	3.868300	-11.651000	21.133590	0.000889	20.711165
34.010625	-3.020700	3.867600	-11.682000	21.120799	0.000888	20.708327
35.011102	-3.004500	3.867000	-11.617000	21.138362	0.000889	20.715464
36.011285	-2.998800	3.867400	-11.597000	21.139015	0.000889	20.708056
37.011722	-3.031100	3.865400	-11.715000	21.147972	0.000889	20.720336
38.013719	-2.988000	3.867400	-11.555000	21.187289	0.000886	20.718889
39.008816	-2.995900	3.865600	-11.579000	21.157852	0.000889	20.729272
40.011707	-3.007900	3.865200	-11.624000	21.190158	0.000887	20.703739
41.008400	-2.989800	3.864600	-11.554000	21.180801	0.000888	20.705285
42.011774	-2.992800	3.865200	-11.567000	21.150293	0.000885	20.722658
43.009325	-2.986000	3.864300	-11.537000	21.177760	0.000889	20.708407
44.009134	-2.979600	3.864500	-11.513000	21.198412	0.000887	20.703936
45.011230	-3.004000	3.862700	-11.602000	21.193402	0.000889	20.733539
46.011000	-2.997100	3.861000	-11.571000	21.219552	0.000887	20.726507
47.011055	-3.005700	3.862500	-11.609000	21.209044	0.000887	20.700346
48.014247	-3.006900	3.860600	-11.606000	21.221761	0.000887	20.732510
49.013394	-3.013500	3.860600	-11.632000	21.224562	0.000886	20.723933
50.009342	-3.015600	3.860400	-11.640000	21.222340	0.000889	20.743047
51.011641	-3.014100	3.859800	-11.632000	21.264172	0.000885	20.731316
52.013330	-2.994300	3.860900	-11.560000	21.258295	0.000886	20.731600
53.012551	-3.004000	3.860300	-11.595000	21.252102	0.000885	20.731094
54.011829	-2.994600	3.860100	-11.558000	21.254398	0.000887	20.742401
55.012028	-3.004300	3.858900	-11.592000	21.277720	0.000886	20.725429
56.010461	-2.996200	3.857300	-11.556000	21.275979	0.000887	20.714677
57.011695	-3.006100	3.857900	-11.597000	21.300993	0.000885	20.715994
58.018792	-2.980300	3.858500	-11.498000	21.303665	0.000885	20.727203
59.010302	-3.002700	3.856800	-11.579000	21.301590	0.000886	20.722282
60.015093	-2.984700	3.856900	-11.511000	21.326309	0.000886	20.753651
61.011274	-2.994100	3.855600	-11.542000	21.319575	0.000885	20.732215
62.014837	-3.006800	3.856400	-11.595000	21.307801	0.000883	20.727073
63.017647	-3.008600	3.854600	-11.596000	21.344048	0.000885	20.715921
64.017045	-3.006900	3.854800	-11.590000	21.353231	0.000885	20.733170
65.014073	-3.017400	3.855600	-11.634000	21.346474	0.000885	20.739212
66.019320	-3.000900	3.856300	-11.571000	21.365855	0.000885	20.726360
67.013674	-3.026100	3.854300	-11.662000	21.360316	0.000886	20.746897
68.016290	-3.008700	3.853900	-11.594000	21.369689	0.000883	20.765758
69.017953	-3.019000	3.852600	-11.630000	21.394789	0.000885	20.741084
70.017073	-2.984400	3.853800	-11.501000	21.385181	0.000885	20.746170
71.014064	-2.997300	3.853700	-11.550000	21.404741	0.000883	20.740609
72.017436	-3.012200	3.853100	-11.605000	21.422872	0.000885	20.745000
73.018732	-2.967500	3.854600	-11.438000	21.418853	0.000885	20.733866
74.014795	-3.016000	3.852700	-11.618000	21.413001	0.000884	20.731804
75.018620	-2.994000	3.853200	-11.536000	21.449287	0.000882	20.731600
76.019289	-3.004800	3.851800	-11.574000	21.444899	0.000886	20.721519
77.020522	-2.973700	3.853600	-11.459000	21.450887	0.000886	20.741263
78.019662	-3.028500	3.850800	-11.660000	21.469966	0.000884	20.742334
79.018066	-2.997500	3.852900	-11.547000	21.466550	0.000887	20.748874
80.026845	-3.005200	3.851300	-11.572000	21.478495	0.000884	20.758456
81.026567	-2.994200	3.852300	-11.533000	21.496053	0.000885	20.745204
82.028053	-2.979600	3.851900	-11.475000	21.489173	0.000883	20.772934
83.024573	-3.018100	3.849700	-11.617000	21.504460	0.000884	20.757883
84.027378	-3.010400	3.848400	-11.584000	21.523765	0.000884	20.755389
85.031571	-3.012500	3.848200	-11.589000	21.514583	0.000884	20.758530
86.024619	-2.996900	3.848900	-11.533000	21.517690	0.000886	20.752629
87.027163	-2.967000	3.849700	-11.421000	21.537230	0.000884	20.755112
88.025281	-3.002100	3.847900	-11.551000	21.537876	0.000887	20.753862
89.024560	-2.995000	3.848100	-11.523000	21.559044	0.000886	20.756552
90.033470	-3.004900	3.848200	-11.562000	21.549518	0.000885	20.730898
91.032336	-3.004900	3.848400	-11.563000	21.543660	0.000886	20.744002
92.033314	-3.009700	3.847700	-11.579000	21.575611	0.000886	20.766492
93.030097	-2.995900	3.848000	-11.527000	21.575137	0.000885	20.748000
94.030357	-3.030800	3.846500	-11.657000	21.600219	0.000889	20.757926
95.032254	-2.973700	3.846400	-11.437000	21.584066	0.000886	20.748400
96.027833	-3.013200	3.845300	-11.586000	21.601142	0.000885	20.753634
97.031408	-2.989000	3.847900	-11.501000	21.597881	0.000887	20.745629
98.029957	-2.976000	3.846600	-11.447000	21.591037	0.000888	20.767230
99.037467	-3.018200	3.845800	-11.606000	21.621769	0.000887	20.751515
100.028681	-3.004900	3.845000	-11.552000	21.613609	0.000887	20.766584
101.031305	-3.016200	3.845300	-11.597000	21.628623	0.000886	20.765488
102.029406	-2.991400	3.844700	-11.499000	21.636555	0.000887	20.754459
103.029694	-3.002900	3.845500	-11.545000	21.636881	0.000887	20.773752
104.029127	-3.004400	3.845000	-11.551000	21.655753	0.000887	20.768930
105.034311	-2.995400	3.844600	-11.515000	21.648049	0.000887	20.780187
106.030841	-2.993500	3.845100	-11.509000	21.652215	0.000888	20.747845
107.031320	-2.997300	3.845200	-11.524000	21.673610	0.000886	20.770679
108.034359	-2.985500	3.845200	-11.478000	21.674866	0.000888	20.776204
109.031140	-3.007800	3.843200	-11.556000	21.683037	0.000889	20.756405
110.033360	-3.002500	3.843200	-11.539000	21.700746	0.000888	20.777921
111.031884	-2.997800	3.843700	-11.522000	21.732261	0.000887	20.751140
112.032259	-3.000800	3.843200	-11.531000	21.709698	0.000887	20.766018
113.031185	-2.994300	3.842600	-11.503000	21.748203	0.000889	20.745758
114.034441	-2.990600	3.842700	-11.491000	21.726687	0.000889	20.766425
115.035319	-2.993000	3.841800	-11.497000	21.749828	0.000891	20.752601
116.031608	-3.010700	3.842000	-11.566000	21.752597	0.000890	20.779554
117.037938	-3.004600	3.841300	-11.541000	21.762872	0.000890	20.771346
118.033958	-3.001100	3.841700	-11.529000	21.770452	0.000891	20.776088
119.036414	-3.005700	3.840800	-11.543000	21.761205	0.000893	20.757349
120.039075	-2.982800	3.841500	-11.457000	21.789402	0.000891	20.782252
121.039106	-3.000700	3.840600	-11.523000	21.782050	0.000891	20.780583
122.033844	-2.979800	3.841300	-11.445000	21.770133	0.000893	20.784303
123.039746	-2.973800	3.841600	-11.422000	21.797512	0.000892	20.776618
124.034387	-2.991400	3.839400	-11.483000	21.814051	0.000894	20.777998
125.037229	-3.001900	3.840200	-11.527000	21.805966	0.000893	20.769431
126.038802	-2.996700	3.839600	-11.505000	21.816567	0.000894	20.786680
127.036108	-2.983700	3.839800	-11.455000	21.830502	0.000893	20.767436
128.042060	-3.009100	3.840000	-11.554000	21.841545	0.000895	20.804568
129.041605	-3.027300	3.837700	-11.616000	21.842222	0.000893	20.776797
130.038574	-2.992500	3.839400	-11.488000	21.833793	0.000894	20.776895
131.040622	-3.014800	3.837500	-11.567000	21.865655	0.000893	20.791243
132.044599	-2.987900	3.838200	-11.466000	21.853272	0.000897	20.791176
133.036722	-3.009800	3.838100	-11.551000	21.876028	0.000897	20.807315
134.038496	-3.004100	3.837800	-11.528000	21.874589	0.000895	20.783115
135.043941	-3.002900	3.836800	-11.520000	21.876256	0.000898	20.785258
136.040235	-3.000900	3.836400	-11.511000	21.902155	0.000897	20.788897
137.037944	-2.991100	3.838500	-11.480000	21.904857	0.000899	20.786385
138.041713	-2.984000	3.838100	-11.452000	21.914724	0.000900	20.803374
139.041577	-2.993500	3.837600	-11.487000	21.934366	0.000900	20.785103
140.042225	-3.024200	3.835800	-11.599000	21.929156	0.000897	20.802647
141.039390	-3.005900	3.837000	-11.532000	21.938180	0.000901	20.808836
142.039710	-2.996700	3.836700	-11.496000	21.926363	0.000898	20.796058
143.041922	-2.990900	3.835300	-11.470000	21.936408	0.000899	20.804217
144.045137	-2.983800	3.837300	-11.449000	21.940444	0.000898	20.785497
145.048204	-3.009300	3.835200	-11.540000	21.955307	0.000899	20.792314
146.040792	-3.017900	3.833700	-11.568000	21.942510	0.000899	20.774289
147.043897	-2.976200	3.836500	-11.417000	21.945672	0.000901	20.780773
148.042510	-2.994500	3.834800	-11.482000	21.978362	0.000902	20.793108
149.042585	-2.981200	3.834900	-11.431000	21.968163	0.000902	20.823675
150.047103	-3.007900	3.834300	-11.531000	21.993242	0.000901	20.780503
151.046817	-3.008200	3.834700	-11.534000	21.990825	0.000901	20.798945
152.047065	-2.997200	3.835800	-11.496000	22.006645	0.000902	20.811463
153.046158	-3.036800	3.833000	-11.638000	22.032377	0.000903	20.805928
154.045266	-2.999600	3.833600	-11.498000	22.038453	0.000901	20.805373
155.043082	-2.993200	3.834000	-11.475000	22.044137	0.000902	20.799209
156.040740	-2.994600	3.832200	-11.474000	22.068563	0.000901	20.804221
157.044053	-2.985600	3.834100	-11.446000	22.074450	0.000904	20.809640
158.045724	-3.003200	3.833700	-11.512000	22.064472	0.000902	20.784005
159.046591	-3.004000	3.832700	-11.512000	22.081228	0.000906	20.803624
160.045716	-3.014000	3.831700	-11.548000	22.072450	0.000906	20.803371
161.042487	-2.975900	3.833700	-11.408000	22.109835	0.000907	20.807133
162.043106	-3.023000	3.829700	-11.576000	22.102159	0.000907	20.822207
163.044526	-3.000900	3.830800	-11.494000	22.127660	0.000906	20.822608
164.050692	-3.014800	3.832100	-11.552000	22.118311	0.000906	20.804713
165.046051	-3.016700	3.830800	-11.555000	22.138202	0.000908	20.813248
166.046707	-3.002100	3.830600	-11.499000	22.123668	0.000907	20.815766
167.044828	-3.008300	3.830400	-11.522000	22.138700	0.000909	20.816117
168.046797	-2.989600	3.830400	-11.450000	22.142489	0.000908	20.815169
169.048847	-3.001600	3.830400	-11.496000	22.128625	0.000910	20.820255
170.045747	-2.989700	3.828700	-11.445000	22.157595	0.000909	20.827447
171.043624	-2.995100	3.829200	-11.466000	22.186428	0.000910	20.816960
172.045635	-2.991700	3.830500	-11.459000	22.178082	0.000908	20.821407
173.045319	-3.002600	3.830400	-11.499000	22.177405	0.000912	20.799866
174.047794	-3.004000	3.827500	-11.496000	22.194184	0.000911	20.818088
175.051620	-3.024500	3.826500	-11.572000	22.201133	0.000910	20.805131
176.049362	-3.009800	3.827300	-11.519000	22.201231	0.000914	20.800488
177.050718	-2.993200	3.829000	-11.460000	22.166137	0.000911	20.827465
178.055534	-3.013300	3.827400	-11.532000	22.184256	0.000913	20.809571
179.052464	-3.001900	3.828600	-11.492000	22.178931	0.000912	20.819886
180.051210	-3.008100	3.828100	-11.515000	22.207739	0.000913	20.804632
181.050908	-2.997300	3.828900	-11.474000	22.205223	0.000913	20.832934
182.051475	-3.011200	3.827500	-11.524000	22.191612	0.000914	20.822151
183.051561	-3.017100	3.825900	-11.541000	22.219904	0.000915	20.821554
184.052534	-2.991600	3.828400	-11.452000	22.228600	0.000913	20.838795
185.052576	-3.004100	3.826500	-11.494000	22.218957	0.000916	20.828666
186.052900	-3.004900	3.826900	-11.497000	22.236854	0.000915	20.822878
187.055508	-3.025400	3.826000	-11.574000	22.262777	0.000917	20.816591
188.055237	-3.011600	3.824700	-11.518000	22.282494	0.000915	20.822583
189.055746	-3.024700	3.824500	-11.566000	22.265348	0.000917	20.825330
190.057257	-3.003700	3.825800	-11.489000	22.274966	0.000916	20.821684
191.059453	-2.972700	3.826600	-11.375000	22.285415	0.000917	20.827879
192.057022	-3.016200	3.824200	-11.531000	22.299492	0.000918	20.854775
193.060562	-2.991600	3.823900	-11.439000	22.317149	0.000916	20.838317
194.059058	-3.027700	3.824600	-11.578000	22.303638	0.000920	20.842806
195.058541	-2.999300	3.823000	-11.465000	22.337780	0.000917	20.825786
196.062968	-3.012500	3.822900	-11.515000	22.322186	0.000920	20.829136
197.064358	-3.000200	3.825000	-11.473000	22.321638	0.000919	20.825269
198.058255	-3.000600	3.822600	-11.469000	22.318699	0.000921	20.833706
199.064325	-2.993300	3.823300	-11.443000	22.332252	0.000920	20.833052
200.059723	-2.990100	3.823000	-11.429000	22.338064	0.000922	20.845510
201.059182	-3.001400	3.823400	-11.475000	22.345241	0.000922	20.859808
202.061293	-2.995200	3.823600	-11.451000	22.360652	0.000924	20.831619
203.066257	-3.007700	3.821200	-11.493000	22.360351	0.000924	20.838903
204.061475	-3.009000	3.822000	-11.498000	22.363837	0.000924	20.845239
205.062025	-3.004500	3.821300	-11.480000	22.391012	0.000925	20.849218
206.067424	-2.986700	3.823800	-11.419000	22.410598	0.000925	20.856028
207.063016	-3.016300	3.820700	-11.523000	22.422017	0.000924	20.843757
208.074253	-3.022600	3.821000	-11.548000	22.421470	0.000924	20.846054
209.063037	-3.018100	3.820500	-11.530000	22.439641	0.000927	20.841491
210.063977	-2.999600	3.820700	-11.460000	22.464931	0.000927	20.856386
211.068488	-2.982700	3.822400	-11.400000	22.459257	0.000928	20.838850
212.070206	-2.995400	3.820700	-11.444000	22.473965	0.000929	20.852157
213.062597	-2.993200	3.820300	-11.434000	22.480366	0.000928	20.837231
214.068853	-3.006100	3.819800	-11.482000	22.473394	0.000927	20.852059
215.071183	-2.998100	3.820200	-11.452000	22.468862	0.000929	20.847521
216.060777	-3.009400	3.819400	-11.494000	22.469662	0.000930	20.853538
217.069949	-3.022200	3.819400	-11.541000	22.507040	0.000930	20.843556
218.062087	-2.991800	3.820300	-11.428000	22.505750	0.000930	20.841315
219.071675	-3.014100	3.818600	-11.508000	22.515250	0.000930	20.866002
220.065165	-3.000200	3.819100	-11.455000	22.514899	0.000933	20.856168
221.067476	-3.000000	3.819600	-11.457000	22.518799	0.000930	20.879986
222.061872	-3.022300	3.817600	-11.536000	22.526048	0.000932	20.852635
223.072045	-3.017200	3.817700	-11.517000	22.509958	0.000933	20.867339
224.068941	-2.990000	3.818800	-11.417000	22.509140	0.000933	20.854194
225.066892	-3.009500	3.817400	-11.487000	22.500864	0.000935	20.833104
226.068767	-2.999200	3.817800	-11.449000	22.504897	0.000936	20.846625
227.069044	-2.999400	3.816700	-11.447000	22.512356	0.000934	20.865474
228.069374	-3.006200	3.816700	-11.472000	22.513051	0.000935	20.847679
229.072739	-2.993000	3.817100	-11.423000	22.552402	0.000936	20.857692
230.070689	-2.993000	3.816900	-11.423000	22.546075	0.000938	20.861787
231.070702	-2.989800	3.817100	-11.410000	22.550459	0.000939	20.831091
232.071966	-2.986500	3.816700	-11.397000	22.532493	0.000938	20.849607
233.070429	-3.000300	3.816000	-11.449000	22.558605	0.000939	20.855844
234.074506	-3.013600	3.815400	-11.497000	22.529912	0.000938	20.864091
235.073769	-2.978500	3.816600	-11.367000	22.538181	0.000941	20.832545
236.072143	-3.005500	3.815300	-11.465000	22.544581	0.000940	20.839429
237.075466	-3.019100	3.814100	-11.514000	22.572317	0.000939	20.843025
238.071760	-3.007400	3.815200	-11.472000	22.569059	0.000942	20.863469
239.074602	-3.031200	3.814000	-11.559000	22.555232	0.000941	20.837767
240.079470	-3.008200	3.813400	-11.470000	22.558065	0.000941	20.820217
241.074701	-3.004000	3.814200	-11.454000	22.573320	0.000943	20.825064
242.072631	-3.005600	3.814200	-11.463000	22.573597	0.000942	20.854738
243.080346	-3.024700	3.813000	-11.533000	22.603797	0.000942	20.847528
244.078388	-3.006100	3.813900	-11.463000	22.596549	0.000944	20.845009
245.077969	-2.998000	3.812900	-11.430000	22.578738	0.000943	20.841395
246.078092	-2.978800	3.812600	-11.356000	22.615011	0.000946	20.853070
247.074250	-3.015300	3.812800	-11.495000	22.617638	0.000945	20.838157
248.075789	-3.000700	3.811700	-11.437000	22.644523	0.000945	20.826679
249.082121	-2.994200	3.811900	-11.413000	22.655337	0.000946	20.822338
250.085585	-2.997800	3.811900	-11.425000	22.646841	0.000947	20.835165
251.081954	-3.018000	3.811300	-11.501000	22.652651	0.000948	20.837665
252.074188	-3.019200	3.811500	-11.507000	22.687681	0.000948	20.817751
253.076572	-2.994900	3.812000	-11.415000	22.683894	0.000950	20.842881
254.078305	-3.018200	3.811200	-11.502000	22.698243	0.000950	20.826433
255.081339	-3.003200	3.809700	-11.440000	22.701496	0.000950	20.830641
256.078476	-3.006200	3.808900	-11.449000	22.705578	0.000949	20.837100
257.080726	-3.013300	3.809400	-11.479000	22.724789	0.000951	20.843067
258.081274	-2.974100	3.809700	-11.330000	22.724537	0.000952	20.841392
259.079498	-2.992600	3.809600	-11.399000	22.731244	0.000953	20.823455
260.082432	-2.999100	3.810200	-11.426000	22.732222	0.000951	20.841030
261.078593	-2.992000	3.809900	-11.398000	22.706293	0.000954	20.821695
262.082401	-2.979100	3.811000	-11.353000	22.737356	0.000955	20.830051
263.081725	-2.973800	3.810200	-11.329000	22.738155	0.000954	20.816153
264.081208	-3.001100	3.809400	-11.432000	22.737436	0.000956	20.817804
265.082250	-3.000600	3.809200	-11.429000	22.763845	0.000954	20.811542
266.084685	-3.003100	3.808200	-11.435000	22.757373	0.000954	20.820231
267.085152	-3.004600	3.808000	-11.439000	22.767208	0.000957	20.827712
268.080432	-2.999400	3.808300	-11.422000	22.746707	0.000955	20.821874
269.082819	-2.994200	3.807300	-11.398000	22.728018	0.000956	20.822594
270.081062	-3.000100	3.807600	-11.422000	22.740308	0.000958	20.823051
271.084577	-2.986200	3.806500	-11.366000	22.731118	0.000958	20.822380
272.086306	-2.985600	3.807400	-11.367000	22.748477	0.000957	20.832657
273.084691	-2.995000	3.807000	-11.401000	22.726114	0.000958	20.812153
274.087510	-2.992100	3.805800	-11.386000	22.743954	0.000958	20.809634
275.085260	-2.994100	3.807500	-11.400000	22.749056	0.000957	20.802891
276.086313	-3.011300	3.806200	-11.460000	22.761917	0.000959	20.818618
277.089674	-3.003500	3.806100	-11.431000	22.761401	0.000961	20.834223
278.087857	-3.020200	3.803900	-11.488000	22.783525	0.000961	20.822246
279.082904	-3.003400	3.804700	-11.425000	22.807405	0.000961	20.813926
280.088466	-2.980000	3.805600	-11.340000	22.811623	0.000961	20.809143
281.087089	-3.003100	3.805300	-11.427000	22.797743	0.000960	20.824635
282.087189	-3.005400	3.804300	-11.432000	22.822232	0.000961	20.800330
283.084114	-3.008200	3.803700	-11.441000	22.825626	0.000962	20.826015
284.086298	-3.004900	3.804200	-11.430000	22.820223	0.000964	20.818706
285.088633	-3.021100	3.804200	-11.492000	22.840004	0.000964	20.814341
286.088990	-3.019900	3.803100	-11.484000	22.839752	0.000966	20.797492
287.089288	-2.995800	3.803300	-11.393000	22.848457	0.000964	20.797204
288.091391	-3.014200	3.802200	-11.460000	22.851567	0.000965	20.805061
289.088889	-2.991400	3.802200	-11.372000	22.838844	0.000965	20.818868
290.086152	-3.009600	3.801800	-11.442000	22.855606	0.000966	20.809581
291.090014	-2.984000	3.803700	-11.349000	22.862859	0.000967	20.813529
292.094429	-2.994500	3.801600	-11.384000	22.853516	0.000968	20.809859
293.087846	-2.983300	3.802200	-11.342000	22.862435	0.000968	20.814052
294.092944	-3.007700	3.801700	-11.434000	22.895345	0.000968	20.792020
295.090850	-2.992000	3.801300	-11.372000	22.884231	0.000968	20.794163
296.091292	-3.013900	3.801400	-11.456000	22.895916	0.000969	20.799231
297.089193	-2.995800	3.800900	-11.386000	22.895320	0.000968	20.807169
298.093593	-2.993900	3.800600	-11.378000	22.943871	0.000971	20.803179
299.089801	-3.003200	3.800400	-11.412000	22.950724	0.000969	20.801036
300.091883	-2.990400	3.800200	-11.364000	22.951173	0.000968	20.804331
301.089114	-2.978200	3.801200	-11.320000	22.968911	0.000971	20.785119
302.092009	-2.987900	3.800200	-11.354000	22.976557	0.000971	20.782347
303.108970	-3.025900	3.800000	-11.496000	22.970461	0.000973	20.816543
304.092549	-3.006900	3.797200	-11.417000	22.970110	0.000969	20.794855
305.093217	-3.016000	3.797500	-11.451000	22.975845	0.000973	20.802497
306.091620	-3.022300	3.796700	-11.474000	22.979810	0.000974	20.796986
307.094011	-2.980500	3.799000	-11.322000	22.963148	0.000973	20.809690
308.091262	-3.011200	3.797400	-11.434000	22.968925	0.000973	20.808840
309.096233	-3.011000	3.797500	-11.434000	22.940838	0.000975	20.785442
310.098035	-3.003700	3.796300	-11.402000	22.949553	0.000976	20.784690
311.092812	-2.990200	3.797400	-11.354000	22.931797	0.000975	20.799617
312.095953	-2.994800	3.798200	-11.374000	22.947390	0.000975	20.785368
313.097330	-3.014000	3.797400	-11.445000	22.931208	0.000974	20.788596
314.099163	-3.004000	3.796300	-11.402000	22.960648	0.000975	20.803867
315.100626	-3.000100	3.796700	-11.389000	22.982376	0.000976	20.783910
316.097854	-2.986000	3.796600	-11.336000	22.980409	0.000978	20.792845
317.095010	-2.996800	3.796900	-11.377000	22.978092	0.000977	20.785308
318.106085	-3.010800	3.795500	-11.426000	23.005221	0.000979	20.797317
319.098562	-3.001900	3.796400	-11.395000	23.017679	0.000979	20.793204
320.098871	-3.010500	3.794000	-11.421000	23.032406	0.000980	20.799424
321.107158	-3.017000	3.793700	-11.444000	23.020280	0.000978	20.803396
322.103473	-2.999200	3.794700	-11.380000	23.024263	0.000982	20.785101
323.100608	-2.983400	3.795800	-11.323000	23.031564	0.000980	20.787201
324.098186	-3.007900	3.793100	-11.408000	23.052835	0.000980	20.778168
325.101121	-3.011400	3.792500	-11.420000	23.052786	0.000981	20.773377
326.098702	-3.007300	3.793000	-11.405000	23.046266	0.000980	20.787707
327.103114	-2.999400	3.791400	-11.370000	23.098473	0.000982	20.772214
328.103494	-2.975600	3.793700	-11.288000	23.085917	0.000984	20.781445
329.107903	-3.003300	3.792000	-11.388000	23.115501	0.000983	20.769362
330.105272	-2.984700	3.793500	-11.321000	23.127036	0.000983	20.794672
331.104851	-2.996900	3.791500	-11.362000	23.116093	0.000983	20.765214
332.106026	-3.011900	3.791100	-11.418000	23.121389	0.000986	20.779531
333.105503	-2.980700	3.791700	-11.300000	23.108336	0.000984	20.761709
334.111320	-2.991700	3.792800	-11.346000	23.088438	0.000984	20.799617
335.111831	-3.009900	3.790600	-11.407000	23.093520	0.000985	20.789063
336.116795	-2.998400	3.790600	-11.365000	23.072103	0.000986	20.767603
337.108048	-3.010500	3.788700	-11.404000	23.102150	0.000986	20.767364
338.104282	-3.021000	3.789300	-11.447000	23.130762	0.000987	20.783707
339.117785	-2.979900	3.791600	-11.297000	23.126503	0.000985	20.760473
340.109319	-3.009900	3.788600	-11.402000	23.151606	0.000989	20.791318
341.108432	-2.988000	3.790100	-11.324000	23.120236	0.000988	20.780746
342.108265	-2.992400	3.789100	-11.336000	23.128158	0.000987	20.782520
343.113822	-3.026900	3.788100	-11.465000	23.136177	0.000988	20.763054
344.106529	-3.017900	3.787800	-11.430000	23.136314	0.000989	20.766511
345.113861	-3.019700	3.787900	-11.438000	23.162209	0.000990	20.781080
346.114773	-2.984200	3.788100	-11.303000	23.165626	0.000989	20.761270
347.112183	-3.002600	3.788000	-11.373000	23.158406	0.000989	20.777269
348.110708	-2.999400	3.788200	-11.361000	23.165227	0.000991	20.752809
349.110921	-3.016600	3.786800	-11.422000	23.168725	0.000989	20.771013
350.115134	-2.995300	3.786300	-11.340000	23.194153	0.000991	20.774684
351.113189	-2.990700	3.786900	-11.324000	23.239004	0.000990	20.779801
352.114780	-3.008500	3.785500	-11.388000	23.223421	0.000992	20.785997
353.114971	-3.001600	3.786400	-11.364000	23.237665	0.000993	20.748113
354.115950	-2.990800	3.785100	-11.320000	23.254175	0.000994	20.759918
355.110900	-2.992300	3.786100	-11.328000	23.259061	0.000992	20.761969
356.113766	-2.982000	3.785000	-11.286000	23.282651	0.000992	20.779447
357.113817	-3.022700	3.783800	-11.436000	23.273784	0.000993	20.757758
358.114563	-2.983400	3.784100	-11.287000	23.258024	0.000994	20.741963
359.126199	-2.994800	3.783600	-11.330000	23.252574	0.000994	20.782495
360.112453	-2.987700	3.784800	-11.307000	23.275848	0.000994	20.768362
361.114726	-2.999600	3.783700	-11.348000	23.278049	0.000994	20.767248
362.117573	-3.011800	3.784700	-11.397000	23.308605	0.000995	20.768000
363.119579	-3.008900	3.783600	-11.383000	23.323923	0.000996	20.753954
364.113359	-2.998200	3.782700	-11.341000	23.308286	0.000995	20.766732
365.115541	-2.997900	3.783300	-11.340000	23.301214	0.000995	20.749687
366.115869	-3.016000	3.781700	-11.405000	23.282412	0.000998	20.760716
367.124245	-2.999200	3.782600	-11.343000	23.282591	0.000996	20.737660
368.117049	-3.019800	3.781300	-11.417000	23.278431	0.000996	20.742026
369.116090	-3.002700	3.781200	-11.352000	23.266628	0.000996	20.781881
370.120395	-2.992800	3.780400	-11.313000	23.292134	0.000997	20.765243
371.122720	-3.005800	3.780900	-11.364000	23.301043	0.000997	20.756153
372.117695	-3.016000	3.781000	-11.403000	23.298709	0.000999	20.749072
373.128741	-3.002600	3.780800	-11.351000	23.330210	0.001000	20.756462
374.121101	-2.986900	3.780800	-11.292000	23.332373	0.000999	20.767638
375.120066	-2.992800	3.779600	-11.310000	23.355856	0.001000	20.754664
376.123917	-2.992400	3.779900	-11.309000	23.343433	0.000998	20.777775
377.121306	-3.016400	3.779200	-11.399000	23.344810	0.001000	20.756396
378.119190	-3.008800	3.779400	-11.370000	23.357632	0.001001	20.765454
379.123146	-2.987600	3.779500	-11.290000	23.367217	0.001000	20.754197
380.119769	-3.010500	3.777900	-11.372000	23.384524	0.001001	20.746413
381.120217	-2.993700	3.776700	-11.305000	23.397550	0.001002	20.752831
382.122322	-2.995000	3.777700	-11.313000	23.377673	0.001001	20.772738
383.118659	-2.985500	3.778500	-11.280000	23.397525	0.001002	20.760867
384.120805	-3.006400	3.777700	-11.357000	23.387517	0.001002	20.732817
385.124179	-2.994100	3.777100	-11.308000	23.392770	0.001003	20.746143
386.123951	-3.000700	3.776600	-11.331000	23.381269	0.001002	20.740305
387.118482	-3.004300	3.777400	-11.347000	23.392605	0.001004	20.757832
388.122977	-3.006100	3.776100	-11.350000	23.381619	0.001003	20.734967
389.121264	-3.008500	3.776200	-11.360000	23.364971	0.001005	20.753368
390.125121	-3.016600	3.776400	-11.391000	23.347515	0.001004	20.750098
391.131396	-2.985500	3.775100	-11.270000	23.342147	0.001004	20.760365
392.125222	-2.990500	3.776400	-11.292000	23.368860	0.001006	20.749680
393.122045	-3.002200	3.775000	-11.333000	23.362718	0.001005	20.720762
394.123933	-2.992900	3.774600	-11.296000	23.376454	0.001006	20.739273
395.125474	-2.993900	3.774900	-11.301000	23.376885	0.001007	20.741602
396.123028	-2.993000	3.773600	-11.294000	23.389837	0.001008	20.753635
397.127066	-3.000400	3.774700	-11.325000	23.414657	0.001006	20.742476
398.129735	-2.993600	3.773500	-11.295000	23.435780	0.001006	20.737096
399.123287	-3.009000	3.773600	-11.353000	23.439842	0.001006	20.742589
400.131965	-3.008400	3.772600	-11.349000	23.416059	0.001006	20.750994
401.128391	-3.034800	3.771500	-11.445000	23.404559	0.001009	20.735199
402.123404	-2.979900	3.773400	-11.242000	23.403938	0.001006	20.706600
403.126411	-2.985100	3.772300	-11.260000	23.413424	0.001008	20.730808
404.131008	-2.990600	3.770400	-11.275000	23.397599	0.001007	20.753829
405.122912	-3.004000	3.771600	-11.329000	23.410495	0.001007	20.746365
406.129858	-3.002800	3.770600	-11.322000	23.441871	0.001008	20.737510
407.123387	-3.014300	3.768700	-11.359000	23.457352	0.001008	20.718887
408.123463	-2.985800	3.770700	-11.258000	23.432606	0.001009	20.708782
409.129178	-2.986000	3.770800	-11.258000	23.431015	0.001009	20.728051
410.129449	-3.012700	3.768500	-11.352000	23.425787	0.001009	20.733243
411.126563	-3.003200	3.768900	-11.318000	23.421302	0.001008	20.725427
412.130448	-3.008100	3.769500	-11.337000	23.411392	0.001009	20.746316
413.130280	-2.997300	3.769000	-11.295000	23.429922	0.001008	20.736439
414.127604	-3.006900	3.768800	-11.332000	23.440427	0.001009	20.742702
415.141579	-2.997000	3.768400	-11.292000	23.457986	0.001008	20.737068
416.131357	-2.997300	3.767000	-11.289000	23.464584	0.001010	20.744156
417.129181	-2.990700	3.767600	-11.266000	23.478726	0.001009	20.698585
418.132944	-3.009300	3.766900	-11.335000	23.497598	0.001009	20.725090
419.140490	-2.982200	3.767100	-11.232000	23.517840	0.001011	20.715508
420.131112	-3.021200	3.765500	-11.376000	23.543131	0.001011	20.731378
421.134796	-2.962600	3.768200	-11.162000	23.533443	0.001012	20.726407
422.132857	-2.994400	3.765200	-11.272000	23.542486	0.001011	20.726464
423.132794	-3.011100	3.765600	-11.338000	23.518615	0.001010	20.721975
424.135832	-3.006400	3.766100	-11.320000	23.516698	0.001011	20.731908
425.130390	-2.988300	3.764200	-11.246000	23.526786	0.001013	20.713095
426.132213	-2.993600	3.765200	-11.270000	23.533856	0.001012	20.719235
427.136298	-3.006400	3.765300	-11.319000	23.568256	0.001011	20.717683
428.133150	-2.994800	3.763700	-11.270000	23.566967	0.001012	20.732987
429.131172	-3.013400	3.763500	-11.339000	23.574167	0.001013	20.731195
430.137024	-2.984100	3.762500	-11.226000	23.615348	0.001013	20.711786
431.132204	-3.013800	3.761600	-11.336000	23.605612	0.001014	20.712456
432.135108	-3.006900	3.762600	-11.312000	23.608506	0.001014	20.710616
433.139164	-2.970200	3.764600	-11.180000	23.610814	0.001014	20.724311
434.134482	-2.998500	3.762000	-11.278000	23.613039	0.001013	20.718955
435.133421	-3.009900	3.761100	-11.320000	23.619293	0.001014	20.745614
436.139759	-3.017200	3.761600	-11.349000	23.625631	0.001014	20.721621
437.137039	-3.011300	3.760800	-11.323000	23.663696	0.001014	20.708572
438.134708	-3.003700	3.760700	-11.295000	23.642746	0.001014	20.719338
439.135456	-3.000300	3.761100	-11.284000	23.661541	0.001013	20.713999
440.136383	-3.009600	3.761300	-11.319000	23.668033	0.001015	20.720507
441.135376	-3.007200	3.761600	-11.310000	23.693695	0.001016	20.705456
442.138417	-3.007300	3.760800	-11.308000	23.683402	0.001015	20.705095
443.137481	-3.009800	3.759900	-11.316000	23.703185	0.001016	20.691736
444.136418	-3.046000	3.759400	-11.450000	23.673047	0.001016	20.700402
445.136237	-3.021300	3.759300	-11.356000	23.699661	0.001015	20.724241
446.137866	-3.013300	3.758000	-11.324000	23.704285	0.001015	20.708014
447.136981	-2.989600	3.759900	-11.239000	23.694060	0.001016	20.694915
448.137843	-3.007300	3.758600	-11.302000	23.687536	0.001018	20.691220
449.136383	-2.990800	3.758700	-11.240000	23.676284	0.001016	20.723563
450.136181	-3.000200	3.757300	-11.272000	23.713524	0.001018	20.715379
451.144139	-2.986500	3.756600	-11.218000	23.720015	0.001015	20.693911
452.145038	-2.982200	3.758000	-11.205000	23.709943	0.001017	20.712264
453.138112	-3.003100	3.758000	-11.284000	23.687382	0.001019	20.724259
454.139771	-3.011300	3.755900	-11.307000	23.696147	0.001017	20.706019
455.139132	-2.996800	3.757600	-11.259000	23.707375	0.001016	20.707318
456.148702	-3.014300	3.755200	-11.317000	23.681942	0.001017	20.714062
457.142857	-2.988900	3.756900	-11.228000	23.702923	0.001019	20.699060
458.137817	-3.016900	3.755200	-11.328000	23.727368	0.001019	20.704129
459.139358	-3.000400	3.754900	-11.265000	23.734813	0.001019	20.700687
460.138501	-3.010300	3.753500	-11.298000	23.748226	0.001018	20.705126
461.139834	-3.011500	3.754200	-11.303000	23.727743	0.001017	20.704979
462.140197	-3.012200	3.754600	-11.309000	23.730696	0.001020	20.700353
463.138580	-3.019000	3.753200	-11.329000	23.753421	0.001017	20.693264
464.141018	-3.007600	3.752700	-11.285000	23.768057	0.001018	20.690395
465.139682	-2.997500	3.753300	-11.249000	23.747126	0.001021	20.711610
466.139196	-2.989900	3.753800	-11.222000	23.762137	0.001018	20.715281
467.141373	-3.018000	3.752200	-11.323000	23.725046	0.001018	20.730725
468.141778	-3.000500	3.752700	-11.259000	23.726570	0.001019	20.715183
469.148489	-3.015000	3.751200	-11.309000	23.715986	0.001021	20.697458
470.143738	-3.012200	3.751000	-11.297000	23.712073	0.001019	20.689267
471.141156	-3.016100	3.751400	-11.314000	23.709880	0.001017	20.711726
472.144077	-3.013600	3.750400	-11.300000	23.719591	0.001020	20.717669
473.145517	-2.984300	3.751300	-11.195000	23.736788	0.001020	20.721635
474.141305	-2.990400	3.750100	-11.213000	23.718246	0.001020	20.722485
475.144809	-2.999700	3.749700	-11.247000	23.750804	0.001020	20.704866
476.143560	-2.993900	3.749700	-11.225000	23.725592	0.001018	20.719893
477.143449	-3.000100	3.749400	-11.248000	23.777508	0.001018	20.716942
478.149218	-3.009900	3.749700	-11.285000	23.784128	0.001020	20.723107
479.142383	-2.974400	3.750600	-11.155000	23.797703	0.001020	20.716328
480.144673	-2.980300	3.749800	-11.174000	23.776986	0.001021	20.704090
481.145519	-2.989700	3.748600	-11.205000	23.783312	0.001020	20.715176
482.154949	-2.997500	3.748400	-11.235000	23.814548	0.001022	20.704768
483.146452	-2.993200	3.746900	-11.214000	23.799121	0.001020	20.707792
484.147230	-3.000300	3.747600	-11.243000	23.842301	0.001021	20.706043
485.156204	-2.997200	3.747300	-11.230000	23.856929	0.001020	20.704115
486.147413	-3.004300	3.746600	-11.253000	23.870477	0.001021	20.726711
487.150943	-2.996100	3.746100	-11.223000	23.853454	0.001022	20.722443
488.154821	-2.997000	3.746400	-11.226000	23.835232	0.001023	20.710810
489.153914	-3.007800	3.745000	-11.263000	23.832721	0.001021	20.717775
490.149529	-2.994900	3.746100	-11.218000	23.834679	0.001023	20.702667
491.153075	-3.020500	3.745500	-11.311000	23.832273	0.001021	20.726809
492.153645	-3.007000	3.743900	-11.255000	23.863906	0.001022	20.714905
493.151618	-3.012100	3.743700	-11.276000	23.878036	0.001022	20.717694
494.157784	-2.996900	3.743800	-11.218000	23.835958	0.001022	20.707743
495.155041	-2.990600	3.743900	-11.195000	23.844641	0.001022	20.711235
496.155416	-2.990400	3.744700	-11.196000	23.858330	0.001022	20.705520
497.152105	-3.005400	3.741700	-11.244000	23.874211	0.001021	20.712436
498.154345	-2.981300	3.742600	-11.155000	23.885241	0.001023	20.703581
499.154848	-2.997200	3.742100	-11.215000	23.885479	0.001023	20.709510
500.154905	-3.008300	3.742500	-11.258000	23.901311	0.001023	20.700254
501.160295	-3.009600	3.741700	-11.259000	23.927840	0.001022	20.712633
502.155663	-3.011700	3.742400	-11.268000	23.926478	0.001023	20.699886
503.161083	-3.008200	3.740900	-11.252000	23.933318	0.001022	20.705797
504.157078	-2.984200	3.742500	-11.167000	23.925353	0.001023	20.727684
505.156734	-3.000300	3.740400	-11.220000	23.919980	0.001021	20.715183
506.162657	-2.998300	3.739600	-11.211000	23.930407	0.001021	20.738442
507.158459	-3.028700	3.739200	-11.323000	23.923959	0.001022	20.713957
508.158042	-2.992400	3.739600	-11.190000	23.934418	0.001022	20.717332
509.161150	-3.021600	3.738600	-11.295000	23.913483	0.001024	20.705348
510.158304	-2.993100	3.739000	-11.190000	23.909952	0.001023	20.724094
511.162121	-2.988700	3.739000	-11.174000	23.904058	0.001023	20.703483
512.162864	-2.992000	3.738500	-11.185000	23.916523	0.001024	20.720251
513.159537	-2.991700	3.737800	-11.181000	23.927539	0.001024	20.721340
514.160240	-2.994900	3.737500	-11.192000	23.909928	0.001023	20.708421
515.166001	-3.017700	3.736500	-11.274000	23.953657	0.001024	20.718133
516.162261	-3.004700	3.737200	-11.228000	23.969025	0.001024	20.724536
517.163850	-3.002700	3.736100	-11.217000	23.973852	0.001025	20.722738
518.165005	-2.999500	3.736200	-11.206000	23.963579	0.001022	20.729032
519.167253	-3.004700	3.735200	-11.222000	23.959177	0.001024	20.716556
520.166569	-2.997300	3.735400	-11.195000	23.936309	0.001022	20.732506
521.173280	-3.007500	3.734800	-11.231000	23.969309	0.001024	20.725769
522.162881	-3.009100	3.735000	-11.236000	23.980633	0.001024	20.714839
523.166833	-3.006000	3.733900	-11.222000	23.985557	0.001021	20.736848
524.168684	-2.996400	3.735600	-11.192000	24.008325	0.001024	20.733602
525.163734	-3.024900	3.732800	-11.289000	23.988768	0.001024	20.720153
526.169498	-3.011500	3.734700	-11.246000	23.978888	0.001025	20.723047
527.167220	-3.001400	3.732700	-11.203000	23.982801	0.001022	20.718910
528.163814	-3.026300	3.732500	-11.294000	24.001527	0.001026	20.745752
529.165540	-2.990500	3.733000	-11.162000	24.003996	0.001022	20.723096
530.171449	-3.032700	3.730700	-11.313000	23.983690	0.001024	20.706524
531.167211	-2.993000	3.732200	-11.170000	24.000329	0.001024	20.737912
532.164733	-2.982500	3.733100	-11.132000	24.002921	0.001023	20.728657
533.176061	-3.005100	3.731500	-11.213000	24.025028	0.001021	20.735179
534.165858	-2.997400	3.730800	-11.182000	23.982972	0.001025	20.726669
535.172366	-3.027100	3.730000	-11.290000	23.996897	0.001023	20.725460
536.171436	-2.995400	3.730800	-11.174000	23.981179	0.001023	20.740992
537.175839	-3.036700	3.729200	-11.324000	23.987571	0.001022	20.731755
538.172325	-3.016100	3.730300	-11.251000	23.978587	0.001023	20.751196
539.173977	-2.993700	3.729500	-11.164000	23.967264	0.001024	20.743159
540.166677	-3.010100	3.730700	-11.229000	23.988989	0.001022	20.737445
541.166810	-3.012000	3.728900	-11.231000	24.009499	0.001023	20.707276
542.173219	-2.969700	3.730300	-11.077000	24.025696	0.001022	20.723047
543.170991	-3.021000	3.727800	-11.260000	24.012360	0.001022	20.739545
544.168808	-2.980600	3.728800	-11.113000	24.010721	0.001024	20.731737
545.176649	-2.987900	3.728000	-11.137000	24.034900	0.001024	20.744132
546.167499	-3.020400	3.728200	-11.260000	24.029731	0.001024	20.740371
547.171569	-2.988800	3.728800	-11.143000	24.029528	0.001024	20.731632
548.173824	-2.991600	3.727200	-11.149000	24.060561	0.001024	20.730985
549.180742	-3.005900	3.725500	-11.196000	24.102214	0.001023	20.736725
550.171791	-2.990200	3.727600	-11.146000	24.090101	0.001023	20.730266
551.174162	-2.987700	3.726900	-11.134000	24.108654	0.001023	20.733700
552.173490	-3.012000	3.725300	-11.219000	24.102214	0.001024	20.737199
553.173344	-3.023900	3.725000	-11.262000	24.093998	0.001025	20.737020
554.190989	-3.010900	3.724700	-11.214000	24.096418	0.001023	20.735654
555.184455	-3.004300	3.724300	-11.186000	24.103632	0.001024	20.752847
556.173604	-3.026100	3.723500	-11.268000	24.114432	0.001022	20.748980
557.183513	-3.021500	3.725000	-11.254000	24.148919	0.001024	20.742317
558.178712	-3.009200	3.723700	-11.204000	24.155089	0.001024	20.732858
559.178745	-2.978000	3.723400	-11.088000	24.148863	0.001026	20.729932
560.176422	-3.010100	3.721700	-11.202000	24.124679	0.001024	20.760679
561.180916	-2.992900	3.723300	-11.142000	24.150761	0.001023	20.751277
562.172706	-2.972900	3.722700	-11.067000	24.151143	0.001025	20.755927
563.177711	-2.978500	3.723200	-11.088000	24.162457	0.001024	20.732187
564.177816	-2.981200	3.722400	-11.095000	24.184546	0.001025	20.756240
565.180960	-3.014300	3.721900	-11.217000	24.194228	0.001025	20.747459
566.182561	-3.039300	3.719700	-11.305000	24.186395	0.001024	20.751456
567.176182	-3.006500	3.722000	-11.189000	24.198759	0.001022	20.745840
568.181885	-2.991500	3.720900	-11.130000	24.193143	0.001024	20.751586
569.180990	-3.000300	3.720700	-11.162000	24.141019	0.001026	20.739135
570.185246	-2.988500	3.721000	-11.119000	24.126234	0.001026	20.768877
571.184086	-2.999000	3.720600	-11.157000	24.125940	0.001024	20.742029
572.181747	-3.009400	3.719200	-11.191000	24.167030	0.001022	20.752896
573.181058	-3.007900	3.719900	-11.188000	24.176499	0.001023	20.746272
574.178584	-3.008500	3.719700	-11.190000	24.184928	0.001023	20.740501
575.190667	-3.000500	3.719600	-11.160000	24.191227	0.001024	20.761519
576.179172	-3.002600	3.718400	-11.163000	24.217945	0.001022	20.755601
577.186245	-2.980000	3.719000	-11.082000	24.205980	0.001022	20.755453
578.183022	-3.002000	3.718800	-11.163000	24.205150	0.001022	20.760785
579.189794	-3.005600	3.717100	-11.170000	24.191392	0.001021	20.748881
580.184594	-2.990100	3.718400	-11.117000	24.194978	0.001022	20.751530
581.183877	-3.004200	3.716900	-11.165000	24.196795	0.001021	20.752878
582.178819	-2.984700	3.717500	-11.095000	24.214807	0.001021	20.761937
583.179941	-2.982000	3.717800	-11.085000	24.226601	0.001022	20.746739
584.191039	-2.997200	3.716700	-11.138000	24.220382	0.001022	20.765158
585.185153	-3.030300	3.715500	-11.258000	24.244613	0.001024	20.744417
586.195629	-3.012300	3.715400	-11.191000	24.249487	0.001022	20.747884
587.193178	-2.993400	3.715700	-11.121000	24.263048	0.001023	20.750107
588.181424	-3.012600	3.714600	-11.189000	24.298199	0.001021	20.781100
589.188289	-3.011300	3.714100	-11.184000	24.267947	0.001020	20.762133
590.185588	-3.019500	3.714500	-11.215000	24.283969	0.001021	20.767300
591.183932	-2.997500	3.714300	-11.132000	24.252869	0.001022	20.748906
592.184053	-3.002800	3.714300	-11.151000	24.236601	0.001023	20.760089
593.191562	-2.975300	3.714100	-11.049000	24.272568	0.001021	20.775779
594.200468	-3.002200	3.712000	-11.142000	24.283139	0.001021	20.774054
595.185646	-2.982300	3.713000	-11.073000	24.305453	0.001021	20.750918
596.188893	-3.005100	3.712500	-11.155000	24.312438	0.001021	20.747019
597.193017	-3.010300	3.711300	-11.171000	24.288885	0.001023	20.767015
598.185352	-3.016800	3.711200	-11.195000	24.324035	0.001022	20.761972
599.189828	-3.010200	3.711500	-11.171000	24.319497	0.001020	20.768325
600.188577	-3.003500	3.709900	-11.142000	24.298755	0.001020	20.767433
601.187774	-3.007300	3.710300	-11.156000	24.307858	0.001021	20.772772
602.192996	-2.989700	3.710600	-11.092000	24.288699	0.001020	20.765407
603.185688	-3.000700	3.710900	-11.134000	24.286027	0.001021	20.768416
604.190731	-2.973900	3.710900	-11.035000	24.322375	0.001021	20.778799
605.195630	-3.003000	3.711100	-11.143000	24.315414	0.001021	20.748582
606.192630	-3.025700	3.708900	-11.220000	24.345014	0.001021	20.775431
607.191916	-3.004900	3.709000	-11.144000	24.356431	0.001020	20.766495
608.195351	-3.002200	3.708100	-11.131000	24.348917	0.001021	20.767493
609.192453	-2.996300	3.708700	-11.110000	24.350906	0.001019	20.766168
610.192560	-2.990400	3.707900	-11.086000	24.329279	0.001021	20.776242
611.207682	-2.993100	3.707600	-11.096000	24.331471	0.001021	20.773225
612.194437	-2.982500	3.708400	-11.058000	24.346547	0.001020	20.785504
613.204902	-2.977200	3.707900	-11.038000	24.322791	0.001018	20.779217
614.204275	-2.989300	3.708100	-11.084000	24.288156	0.001016	20.793785
615.201418	-2.987000	3.708100	-11.075000	24.319580	0.001017	20.769358
616.197469	-3.007900	3.706900	-11.149000	24.297602	0.001021	20.774812
617.199132	-3.000500	3.706000	-11.118000	24.317658	0.001018	20.783551
618.198850	-2.975000	3.706300	-11.024000	24.347681	0.001020	20.768623
619.194344	-3.007600	3.706000	-11.144000	24.323151	0.001017	20.778630
620.198574	-2.987200	3.705800	-11.069000	24.331880	0.001019	20.778377
621.196789	-3.002600	3.705200	-11.124000	24.331603	0.001017	20.779996
622.192164	-2.979100	3.705300	-11.037000	24.342027	0.001018	20.781443
623.200065	-3.007700	3.703100	-11.136000	24.312077	0.001017	20.784590
624.203782	-3.007700	3.703500	-11.137000	24.336705	0.001019	20.775156
625.200845	-2.984200	3.702900	-11.049000	24.345808	0.001016	20.771960
626.199988	-2.977700	3.704900	-11.031000	24.385178	0.001017	20.781109
627.200709	-2.995300	3.703400	-11.091000	24.386375	0.001017	20.792742
628.195771	-2.996700	3.703300	-11.096000	24.397792	0.001017	20.787126
629.196289	-3.009000	3.702000	-11.138000	24.412836	0.001014	20.790838
630.199091	-2.986000	3.702100	-11.053000	24.435326	0.001019	20.790167
631.203772	-2.985300	3.702600	-11.052000	24.419722	0.001016	20.792531
632.199310	-3.001800	3.701300	-11.109000	24.429297	0.001018	20.782222
633.212148	-3.000100	3.700900	-11.101000	24.432084	0.001016	20.789286
634.206591	-2.997400	3.702300	-11.097000	24.461607	0.001016	20.813214
635.196817	-2.995100	3.701600	-11.085000	24.496604	0.001015	20.791428
636.198827	-2.996700	3.701000	-11.090000	24.505909	0.001015	20.809773
637.202553	-2.995100	3.701200	-11.085000	24.508199	0.001016	20.796897
638.201578	-3.012900	3.698500	-11.142000	24.534982	0.001017	20.780621
639.203436	-2.993200	3.700200	-11.075000	24.496352	0.001017	20.799236
640.199478	-3.003200	3.698600	-11.107000	24.521350	0.001014	20.790652
641.197447	-3.013300	3.698300	-11.143000	24.516877	0.001014	20.788534
642.205077	-3.030900	3.697300	-11.204000	24.532195	0.001013	20.794895
643.202073	-3.020000	3.697000	-11.164000	24.501967	0.001015	20.806292
644.200061	-3.013900	3.696600	-11.141000	24.503108	0.001015	20.814549
645.210649	-2.968800	3.699200	-10.980000	24.528604	0.001016	20.813102
646.203957	-2.985900	3.697700	-11.039000	24.533623	0.001016	20.816716
647.199458	-3.016200	3.696400	-11.147000	24.547549	0.001017	20.811721
648.201466	-2.987200	3.697700	-11.045000	24.526664	0.001014	20.797406
649.200788	-3.011700	3.696200	-11.131000	24.525117	0.001014	20.812449
650.200092	-2.995200	3.696500	-11.070000	24.522176	0.001014	20.795274
651.201173	-3.012200	3.694500	-11.128000	24.530683	0.001015	20.812817
652.201696	-2.991400	3.695600	-11.055000	24.538521	0.001014	20.810250
653.202394	-3.006300	3.695100	-11.108000	24.548917	0.001012	20.791758
654.209896	-3.014000	3.693700	-11.132000	24.554189	0.001012	20.820755
655.208238	-3.010900	3.693300	-11.119000	24.560186	0.001012	20.814443
656.203998	-2.992300	3.695300	-11.056000	24.555859	0.001011	20.821956
657.205818	-3.011200	3.693600	-11.122000	24.544836	0.001012	20.802361
658.204457	-3.006800	3.693700	-11.105000	24.522512	0.001013	20.816473
659.200792	-2.999700	3.692200	-11.074000	24.524165	0.001012	20.809597
660.200585	-2.994300	3.691900	-11.053000	24.483399	0.001013	20.827965
661.214595	-3.001200	3.691600	-11.078000	24.473768	0.001012	20.815458
662.219177	-2.983500	3.692300	-11.015000	24.484890	0.001012	20.820927
663.208626	-3.006800	3.692000	-11.100000	24.475659	0.001012	20.824941
664.206108	-3.013300	3.691100	-11.122000	24.485135	0.001011	20.818802
665.210503	-2.998100	3.691800	-11.068000	24.461187	0.001011	20.808999
666.208991	-3.015500	3.689100	-11.124000	24.478568	0.001011	20.825963
667.209112	-3.008400	3.689700	-11.099000	24.463991	0.001012	20.811338
668.207826	-3.002300	3.691200	-11.080000	24.462426	0.001012	20.814510
669.206726	-2.989000	3.690900	-11.030000	24.445093	0.001011	20.820354
670.202776	-3.000500	3.690000	-11.071000	24.445730	0.001012	20.815778
671.204201	-3.027700	3.689200	-11.168000	24.461628	0.001011	20.825563
672.212562	-3.027200	3.688000	-11.163000	24.439488	0.001010	20.810938
673.208220	-3.029300	3.687800	-11.171000	24.463525	0.001012	20.836949
674.202951	-2.998900	3.689300	-11.063000	24.456387	0.001010	20.833581
675.211360	-2.997100	3.690100	-11.059000	24.451017	0.001010	20.834357
676.211724	-2.996700	3.688400	-11.051000	24.430939	0.001011	20.817060
677.214129	-2.983600	3.687700	-11.001000	24.439152	0.001010	20.832886
678.213360	-2.998300	3.687600	-11.055000	24.455099	0.001008	20.826125
679.207446	-3.016400	3.685300	-11.115000	24.427491	0.001011	20.825454
680.206151	-2.993200	3.687000	-11.034000	24.456019	0.001012	20.841273
681.209857	-2.997700	3.686300	-11.050000	24.488101	0.001011	20.826518
682.210718	-3.016200	3.685300	-11.115000	24.476741	0.001008	20.829820
683.211661	-2.990000	3.686800	-11.022000	24.502888	0.001009	20.847043
684.215613	-2.995900	3.687100	-11.044000	24.519453	0.001008	20.812930
685.211431	-2.991200	3.685900	-11.024000	24.533925	0.001007	20.846889
686.212805	-3.016100	3.685400	-11.114000	24.552534	0.001008	20.833318
687.213586	-3.027000	3.684200	-11.150000	24.577856	0.001007	20.828854
688.211970	-2.974400	3.687000	-10.966000	24.572136	0.001007	20.853934
689.208839	-3.001900	3.685500	-11.062000	24.573180	0.001007	20.814205
690.209953	-3.017900	3.683400	-11.116000	24.580733	0.001009	20.844543
691.216787	-3.006700	3.683200	-11.073000	24.603903	0.001007	20.828910
692.219470	-2.989600	3.684400	-11.013000	24.572910	0.001005	20.823891
693.217745	-3.007400	3.684700	-11.079000	24.586436	0.001006	20.841255
694.212906	-2.988000	3.683200	-11.005000	24.591511	0.001007	20.855831
695.212940	-2.991700	3.682700	-11.017000	24.629137	0.001005	20.842376
696.210556	-3.007600	3.681900	-11.073000	24.613028	0.001005	20.847075
697.212901	-2.991500	3.682900	-11.016000	24.595593	0.001006	20.855184
698.213477	-2.974100	3.682900	-10.952000	24.604001	0.001005	20.814310
699.213048	-2.992000	3.681000	-11.013000	24.588708	0.001004	20.851121
700.216269	-2.996200	3.680500	-11.026000	24.590069	0.001005	20.829729
701.211666	-2.997300	3.681000	-11.032000	24.598526	0.001007	20.840585
702.220558	-2.988200	3.680500	-10.997000	24.590794	0.001005	20.860326
703.217563	-3.002700	3.680000	-11.049000	24.639270	0.001004	20.844483
704.213726	-3.005200	3.679100	-11.055000	24.665578	0.001005	20.845277
705.212471	-3.005500	3.679900	-11.059000	24.676544	0.001003	20.841108
706.225183	-3.009000	3.679000	-11.069000	24.680583	0.001003	20.867445
707.210245	-3.011400	3.678500	-11.076000	24.639620	0.001004	20.853369
708.213564	-2.991000	3.679100	-11.003000	24.630512	0.001003	20.859402
709.211218	-2.996900	3.678700	-11.024000	24.611716	0.001002	20.853344
710.211521	-3.011900	3.677500	-11.075000	24.621583	0.001003	20.823891
711.218887	-3.005900	3.677900	-11.054000	24.611513	0.001000	20.854563
712.218948	-3.005400	3.677900	-11.053000	24.620964	0.001004	20.858356
713.219423	-2.990000	3.676400	-10.990000	24.639939	0.001003	20.880239
714.216243	-3.007900	3.676400	-11.057000	24.631066	0.001000	20.867069
715.233499	-3.020100	3.675100	-11.098000	24.663044	0.001000	20.868811
716.211868	-2.993800	3.675500	-11.003000	24.663492	0.001000	20.859778
717.222583	-3.002700	3.674600	-11.032000	24.686295	0.001000	20.881237
718.230440	-2.994300	3.674800	-11.003000	24.700502	0.001001	20.875579
719.212040	-2.998600	3.675400	-11.019000	24.691328	0.001001	20.853573
720.213380	-2.994000	3.675100	-11.002000	24.724274	0.000999	20.865296
721.220198	-3.009600	3.674700	-11.058000	24.716200	0.001000	20.878055
722.222545	-3.024800	3.673500	-11.110000	24.747979	0.001000	20.872963
723.216047	-3.010200	3.673800	-11.058000	24.758105	0.001001	20.864158
724.221612	-3.011900	3.674500	-11.065000	24.756558	0.001000	20.893897
725.217049	-3.026200	3.674300	-11.117000	24.699435	0.000998	20.856965
726.223790	-3.027300	3.672400	-11.116000	24.669698	0.000998	20.858419
727.215206	-2.961900	3.674600	-10.882000	24.634388	0.000997	20.865661
728.215559	-3.013700	3.672100	-11.065000	24.625630	0.000997	20.851184
729.225464	-2.982700	3.672900	-10.955000	24.600323	0.000997	20.851395
730.216662	-3.025600	3.671300	-11.107000	24.563438	0.000999	20.862276
731.218845	-2.998600	3.672200	-11.010000	24.550605	0.000997	20.858409
732.224281	-2.985800	3.672900	-10.965000	24.586146	0.000998	20.836223
733.227697	-3.008600	3.672700	-11.049000	24.619721	0.000996	20.855687
734.220881	-2.999500	3.671100	-11.011000	24.602188	0.000999	20.864646
735.224102	-2.980700	3.673300	-10.948000	24.615028	0.000997	20.870417
736.218445	-2.996600	3.671000	-10.999000	24.612689	0.000997	20.860959
737.218164	-3.007400	3.670200	-11.037000	24.634108	0.000998	20.879604
738.219408	-3.002500	3.670400	-11.020000	24.660594	0.000996	20.835535
739.226152	-3.031500	3.668500	-11.120000	24.677980	0.000997	20.863885
740.221441	-3.027800	3.668900	-11.107000	24.706981	0.000997	20.848892
741.224227	-2.998400	3.669000	-11.000000	24.667087	0.000996	20.842050
742.229134	-2.981600	3.670600	-10.943000	24.666671	0.000996	20.855382
743.224300	-3.014900	3.667100	-11.055000	24.628217	0.000995	20.850936
744.224985	-3.013500	3.668400	-11.053000	24.630163	0.000995	20.845776
745.237883	-3.000800	3.668300	-11.006000	24.618448	0.000995	20.853461
746.223372	-3.017500	3.668000	-11.067000	24.617804	0.000995	20.843806
747.224692	-3.013100	3.666500	-11.047000	24.666076	0.000993	20.839613
748.229029	-2.961000	3.668600	-10.861000	24.717244	0.000994	20.858241
749.229953	-2.994800	3.666300	-10.979000	24.759141	0.000995	20.846233
750.230752	-3.018000	3.666100	-11.062000	24.769113	0.000992	20.846756
751.231619	-3.005100	3.667200	-11.018000	24.768045	0.000992	20.852797
752.237330	-2.991200	3.665300	-10.963000	24.757700	0.000992	20.819183
753.235273	-3.007200	3.665800	-11.022000	24.798210	0.000993	20.839922
754.235378	-2.987700	3.665900	-10.951000	24.793842	0.000993	20.843125
755.229463	-2.995000	3.666800	-10.981000	24.811992	0.000992	20.825779
756.230980	-2.992900	3.664700	-10.968000	24.815404	0.000993	20.826832
757.240117	-3.006400	3.663900	-11.014000	24.822215	0.000993	20.837460
758.229604	-2.975100	3.664700	-10.902000	24.807145	0.000991	20.852207
759.234118	-3.009600	3.664400	-11.027000	24.825123	0.000991	20.834215
760.247635	-2.983300	3.664300	-10.931000	24.822540	0.000991	20.823563
761.231509	-3.021100	3.663100	-11.065000	24.809164	0.000990	20.829105
762.237778	-3.017300	3.663000	-11.052000	24.813074	0.000990	20.829235
763.239689	-3.004900	3.662400	-11.003000	24.778682	0.000990	20.829333
764.234394	-2.993600	3.662000	-10.961000	24.804041	0.000989	20.830601
765.249295	-3.006500	3.662100	-11.009000	24.803022	0.000989	20.812510
766.233427	-3.003200	3.662900	-10.999000	24.822050	0.000989	20.822123
767.234677	-2.995100	3.663400	-10.971000	24.831394	0.000990	20.826759
768.240687	-2.996900	3.661100	-10.970000	24.846649	0.000991	20.823577
769.235522	-3.010800	3.661900	-11.024000	24.832672	0.000989	20.819506
770.231984	-2.967600	3.663300	-10.869000	24.828004	0.000988	20.821933
771.235945	-2.986600	3.660400	-10.931000	24.799306	0.000987	20.801668
772.240315	-3.002000	3.660300	-10.987000	24.775780	0.000986	20.826422
773.234945	-2.998600	3.661200	-10.977000	24.814645	0.000988	20.812320
774.236667	-3.016300	3.659400	-11.037000	24.829673	0.000987	20.819342
775.242068	-3.010000	3.659000	-11.013000	24.842177	0.000989	20.803442
776.241274	-2.988600	3.659800	-10.937000	24.844693	0.000987	20.810709
777.245423	-2.974500	3.659700	-10.884000	24.860536	0.000987	20.822815
778.236435	-2.983600	3.659500	-10.917000	24.868469	0.000987	20.806122
779.234749	-3.005200	3.659300	-10.995000	24.824809	0.000987	20.820150
780.241613	-2.989900	3.657900	-10.935000	24.849824	0.000985	20.795469
781.243080	-2.996500	3.657700	-10.959000	24.831227	0.000986	20.799090
782.235720	-3.008500	3.658300	-11.006000	24.815286	0.000985	20.808222
783.244177	-3.004700	3.657500	-10.989000	24.816140	0.000985	20.797226
784.238692	-3.009300	3.657000	-11.004000	24.827031	0.000985	20.812423
785.236529	-3.010000	3.656600	-11.006000	24.847021	0.000984	20.823476
786.248464	-2.995100	3.656000	-10.949000	24.849464	0.000985	20.806013
787.238734	-3.012900	3.655900	-11.014000	24.852396	0.000985	20.793309
788.247566	-2.994200	3.655700	-10.945000	24.847875	0.000983	20.801100
789.238341	-2.998600	3.655600	-10.961000	24.837082	0.000983	20.801648
790.248511	-2.977800	3.655800	-10.886000	24.834598	0.000985	20.779714
791.243060	-3.010100	3.654300	-10.998000	24.825719	0.000982	20.807313
792.246406	-3.005700	3.654800	-10.984000	24.808189	0.000981	20.807264
793.246441	-2.985800	3.654800	-10.911000	24.820123	0.000981	20.799800
794.237877	-2.992100	3.654900	-10.934000	24.817491	0.000981	20.790521
795.240118	-2.980900	3.654200	-10.890000	24.857478	0.000981	20.792720
796.243248	-3.003100	3.654400	-10.973000	24.848250	0.000983	20.800053
797.241399	-3.015200	3.653500	-11.015000	24.852134	0.000979	20.791150
798.241560	-3.013400	3.653200	-11.008000	24.864614	0.000980	20.802726
799.246441	-3.003100	3.654400	-10.974000	24.904900	0.000981	20.802856
800.236598	-3.030600	3.653000	-11.069000	24.905942	0.000979	20.792523
801.250830	-3.009800	3.651800	-10.990000	24.887158	0.000979	20.794058
802.236872	-2.997300	3.652800	-10.947000	24.886685	0.000979	20.812076
803.237047	-2.989500	3.651700	-10.915000	24.907237	0.000980	20.817530
804.243233	-3.023500	3.651200	-11.037000	24.899955	0.000979	20.796945
805.243371	-3.008900	3.651300	-10.985000	24.915048	0.000978	20.789808
806.239562	-2.996300	3.650700	-10.937000	24.926019	0.000978	20.793707
807.244721	-2.995800	3.650300	-10.934000	24.879273	0.000976	20.785197
808.245028	-2.977700	3.650900	-10.871000	24.868513	0.000977	20.764439
809.237385	-2.986800	3.650400	-10.903000	24.843596	0.000979	20.788270
810.243670	-3.027600	3.648100	-11.043000	24.847155	0.000978	20.797532
811.244049	-3.028100	3.649200	-11.049000	24.853794	0.000977	20.776220
812.242121	-3.021400	3.648500	-11.023000	24.861272	0.000975	20.795579
813.245237	-3.000400	3.649500	-10.949000	24.868544	0.000975	20.784386
814.242303	-3.010400	3.648700	-10.983000	24.842837	0.000976	20.775654
815.241311	-2.988800	3.648500	-10.903000	24.847414	0.000976	20.801111
816.239530	-3.023700	3.647500	-11.028000	24.863176	0.000975	20.788007
817.248345	-2.996100	3.648200	-10.928000	24.856643	0.000976	20.781924
818.243748	-3.000900	3.646800	-10.943000	24.814815	0.000975	20.791628
819.257365	-2.993000	3.647900	-10.916000	24.784910	0.000975	20.772522
820.246346	-2.998000	3.647700	-10.934000	24.765514	0.000975	20.792886
821.251565	-3.016400	3.646300	-10.998000	24.741767	0.000975	20.755778
822.247454	-3.005600	3.645000	-10.953000	24.734599	0.000973	20.785570
823.253417	-3.007900	3.646600	-10.968000	24.753758	0.000973	20.774450
824.247362	-2.995800	3.646300	-10.923000	24.779891	0.000973	20.769856
825.249215	-2.994300	3.644800	-10.912000	24.792379	0.000972	20.768637
826.244701	-3.008900	3.644000	-10.963000	24.814788	0.000974	20.770264
827.246209	-2.995400	3.645200	-10.918000	24.849668	0.000974	20.761174
828.252685	-3.016100	3.643600	-10.988000	24.854767	0.000972	20.780990
829.242377	-3.004800	3.643000	-10.946000	24.874414	0.000971	20.776526
830.246790	-3.003400	3.644500	-10.944000	24.831380	0.000971	20.785019
831.242072	-3.015000	3.643900	-10.986000	24.808075	0.000970	20.767320
832.246361	-3.016700	3.643600	-10.989000	24.800254	0.000970	20.761367
833.243690	-3.003900	3.643600	-10.944000	24.811113	0.000971	20.788861
834.246603	-3.018300	3.643600	-10.996000	24.817980	0.000970	20.792434
835.254292	-3.000900	3.643200	-10.932000	24.822452	0.000972	20.771792
836.250792	-2.990000	3.642500	-10.890000	24.841431	0.000970	20.769502
837.255068	-3.021400	3.640900	-10.999000	24.875699	0.000970	20.768332
838.253257	-2.999600	3.642800	-10.926000	24.909185	0.000968	20.772069
839.244708	-3.004200	3.642200	-10.941000	24.930573	0.000969	20.771725
840.248023	-2.991000	3.642200	-10.893000	24.958249	0.000968	20.766313
841.255339	-3.009600	3.641400	-10.956000	24.996439	0.000967	20.772877
842.245127	-2.996400	3.641000	-10.909000	24.997929	0.000968	20.770106
843.254940	-2.980500	3.640500	-10.850000	25.010463	0.000967	20.761350
844.249265	-2.997500	3.639500	-10.907000	24.991593	0.000969	20.775600
845.250054	-3.010600	3.639400	-10.956000	24.976900	0.000966	20.771757
846.255986	-2.995400	3.639300	-10.900000	24.964047	0.000967	20.767391
847.255561	-3.008200	3.639800	-10.948000	24.919967	0.000966	20.760131
848.251373	-3.010900	3.639600	-10.957000	24.905574	0.000966	20.770816
849.255221	-3.008700	3.639900	-10.951000	24.930710	0.000965	20.756689
850.256221	-3.004700	3.638000	-10.929000	24.941778	0.000965	20.764006
851.248763	-2.976500	3.638000	-10.826000	24.985287	0.000964	20.758839
852.269463	-2.996600	3.638300	-10.901000	25.001030	0.000965	20.762313
853.256522	-3.004600	3.638200	-10.930000	25.014404	0.000964	20.768624
854.266805	-3.000500	3.637000	-10.912000	25.042550	0.000964	20.740452
855.262328	-3.003500	3.639000	-10.929000	25.025643	0.000961	20.752404
856.260641	-2.991700	3.637300	-10.882000	25.073781	0.000961	20.760423
857.256874	-2.992200	3.637900	-10.884000	25.053340	0.000963	20.769303
858.262693	-3.004100	3.635200	-10.920000	25.068365	0.000963	20.752616
859.257618	-3.000300	3.636300	-10.909000	25.066101	0.000961	20.752240
860.254127	-3.009500	3.634900	-10.938000	25.044975	0.000962	20.734825
861.265634	-3.000000	3.634400	-10.902000	25.041798	0.000960	20.742068
862.261064	-3.019200	3.634900	-10.973000	25.015191	0.000959	20.730059
863.256118	-2.993300	3.633800	-10.876000	25.011567	0.000960	20.749181
864.263529	-2.985200	3.635600	-10.852000	24.987279	0.000959	20.762735
865.265529	-2.980400	3.635900	-10.836000	24.987825	0.000961	20.746213
866.257380	-3.008700	3.633300	-10.930000	25.015108	0.000959	20.752262
867.256862	-3.005900	3.632600	-10.918000	24.981048	0.000958	20.734194
868.257421	-3.004300	3.633600	-10.916000	25.002011	0.000958	20.742434
869.261735	-2.988300	3.633400	-10.856000	25.035819	0.000957	20.743179
870.264111	-3.002200	3.632500	-10.904000	25.063842	0.000956	20.745704
871.258755	-3.025900	3.632000	-10.989000	25.059468	0.000957	20.740840
872.260035	-3.018400	3.630500	-10.958000	25.073720	0.000956	20.749930
873.260749	-3.020000	3.630400	-10.962000	25.088313	0.000957	20.768373
874.256255	-3.008900	3.631300	-10.925000	25.122524	0.000956	20.756249
875.263217	-2.973400	3.632900	-10.801000	25.114177	0.000956	20.734117
876.257589	-2.995500	3.631400	-10.877000	25.114722	0.000954	20.749365
877.266685	-3.005000	3.630800	-10.909000	25.099405	0.000955	20.757222
878.256293	-2.994500	3.632600	-10.875000	25.102474	0.000954	20.717627
879.265644	-3.004500	3.629800	-10.905000	25.081439	0.000954	20.730177
880.267355	-3.010400	3.630100	-10.925000	25.088443	0.000953	20.738631
881.259295	-2.988000	3.631500	-10.850000	25.071576	0.000954	20.733552
882.264166	-3.038300	3.628300	-11.023000	25.043203	0.000954	20.736840
883.258247	-3.007900	3.629400	-10.916000	25.016912	0.000951	20.737002
884.259016	-3.005300	3.628100	-10.902000	24.965747	0.000952	20.745389
885.265630	-2.994400	3.629300	-10.867000	24.916764	0.000950	20.748382
886.265718	-3.008600	3.627900	-10.914000	24.930219	0.000951	20.724427
887.257174	-2.993400	3.628700	-10.861000	24.957447	0.000951	20.741326
888.264876	-2.987900	3.628000	-10.837000	24.950085	0.000950	20.733935
889.262547	-3.016600	3.627300	-10.941000	24.959313	0.000950	20.741775
890.266649	-2.999400	3.626800	-10.877000	24.946883	0.000949	20.717445
891.268598	-2.982000	3.626600	-10.813000	24.964761	0.000951	20.712155
892.261226	-3.028900	3.625000	-10.979000	24.955803	0.000947	20.728769
893.259656	-3.002300	3.625000	-10.882000	25.016748	0.000947	20.721663
894.266452	-3.012300	3.624500	-10.917000	25.032710	0.000947	20.753809
895.268769	-3.021000	3.623400	-10.945000	25.073284	0.000947	20.733845
896.260630	-3.010100	3.624100	-10.909000	25.056605	0.000946	20.733697
897.265911	-2.984900	3.624500	-10.818000	25.060985	0.000944	20.723869
898.261632	-2.996200	3.624600	-10.858000	25.061636	0.000946	20.729265
899.263459	-2.996000	3.624500	-10.858000	25.060782	0.000947	20.727459
900.270135	-2.997500	3.623900	-10.861000	25.051693	0.000946	20.735879
901.266014	-3.036100	3.622200	-10.995000	25.035478	0.000945	20.730982
902.263178	-3.018100	3.622900	-10.932000	24.998535	0.000948	20.710968
903.269222	-2.977800	3.624300	-10.792000	24.955874	0.000944	20.702760
904.261387	-3.011200	3.622600	-10.907000	24.964758	0.000945	20.711678
905.266611	-2.992100	3.622100	-10.836000	24.952378	0.000943	20.727702
906.264915	-2.977600	3.624300	-10.791000	24.970907	0.000943	20.726385
907.265171	-2.988100	3.622300	-10.823000	24.957452	0.000942	20.707664
908.263530	-2.977600	3.623100	-10.788000	24.984085	0.000943	20.731078
909.272041	-3.003400	3.622300	-10.879000	25.016287	0.000943	20.701285
910.263241	-2.989800	3.622700	-10.829000	24.976786	0.000943	20.711897
911.267378	-3.008500	3.622000	-10.896000	24.957320	0.000941	20.698521
912.265950	-2.974700	3.622000	-10.773000	24.977290	0.000943	20.727577
913.266546	-2.995700	3.622200	-10.849000	25.003898	0.000941	20.702126
914.271865	-3.013100	3.621200	-10.910000	25.019535	0.000942	20.705968
915.276771	-3.000400	3.619700	-10.860000	25.045515	0.000942	20.719720
916.263425	-3.008100	3.618600	-10.883000	25.059301	0.000940	20.697521
917.265073	-2.983400	3.619700	-10.798000	25.054676	0.000941	20.721329
918.273382	-2.996200	3.617900	-10.837000	25.051849	0.000941	20.709007
919.271730	-3.003300	3.617400	-10.862000	25.071737	0.000940	20.710005
920.268810	-3.020700	3.617800	-10.926000	25.091761	0.000938	20.709243
921.279222	-3.008600	3.617000	-10.882000	25.125426	0.000937	20.722651
922.271086	-3.013900	3.618100	-10.903000	25.089407	0.000937	20.714941
923.271046	-3.022300	3.616800	-10.930000	25.124717	0.000938	20.703919
924.278481	-3.019100	3.615400	-10.914000	25.143756	0.000938	20.702644
925.271413	-2.980500	3.616700	-10.778000	25.143152	0.000937	20.696347
926.274435	-3.004300	3.616900	-10.864000	25.158339	0.000937	20.700688
927.280409	-2.971200	3.617600	-10.747000	25.200903	0.000935	20.670870
928.272042	-3.019000	3.615600	-10.914000	25.209932	0.000937	20.711708
929.279143	-2.987500	3.615400	-10.799000	25.258031	0.000936	20.695037
930.278314	-2.990200	3.615100	-10.809000	25.227243	0.000933	20.708224
931.285365	-3.016100	3.613900	-10.898000	25.204427	0.000935	20.690057
932.275052	-2.986500	3.616100	-10.798000	25.185770	0.000935	20.692190
933.279383	-3.026700	3.614700	-10.940000	25.209458	0.000932	20.693686
934.274452	-2.997100	3.614400	-10.831000	25.184727	0.000932	20.700627
935.273900	-3.008600	3.612800	-10.869000	25.205043	0.000934	20.689728
936.276755	-3.011000	3.612600	-10.876000	25.237883	0.000931	20.697094
937.278368	-3.009100	3.611400	-10.865000	25.269997	0.000933	20.722700
938.272254	-3.013000	3.613000	-10.885000	25.274052	0.000932	20.706381
939.276984	-2.980000	3.613600	-10.768000	25.260347	0.000931	20.683136
940.273782	-3.026800	3.610800	-10.928000	25.239266	0.000930	20.703698
941.276834	-3.000700	3.612200	-10.838000	25.223632	0.000932	20.677569
942.281729	-2.991100	3.611500	-10.800000	25.226465	0.000930	20.698907
943.274305	-2.992800	3.611800	-10.808000	25.218388	0.000929	20.706445
944.271712	-2.990800	3.611600	-10.801000	25.230699	0.000928	20.704581
945.274898	-2.993700	3.612300	-10.813000	25.246389	0.000929	20.689512
946.278476	-2.988200	3.610800	-10.789000	25.239232	0.000929	20.698922
947.280067	-3.012100	3.609300	-10.871000	25.250444	0.000927	20.685996
948.276901	-2.994300	3.611600	-10.813000	25.261191	0.000926	20.699632
949.276742	-3.010700	3.610700	-10.870000	25.258749	0.000927	20.696232
950.283457	-2.984900	3.611100	-10.778000	25.252113	0.000925	20.694785
951.274761	-3.000100	3.610800	-10.831000	25.249507	0.000925	20.693591
952.274623	-3.001300	3.608600	-10.830000	25.277891	0.000924	20.696959
953.274634	-2.996500	3.609700	-10.814000	25.261761	0.000926	20.703524
954.273158	-2.983400	3.610700	-10.771000	25.275334	0.000925	20.694866
955.278730	-3.026900	3.608400	-10.920000	25.282443	0.000925	20.692994
956.275434	-2.979400	3.609100	-10.752000	25.297587	0.000926	20.689232
957.280156	-2.993000	3.607500	-10.796000	25.314034	0.000922	20.683935
958.280707	-2.990400	3.607500	-10.785000	25.279095	0.000924	20.698168
959.285968	-3.010400	3.606000	-10.854000	25.269300	0.000923	20.691652
960.278567	-3.006000	3.606200	-10.839000	25.261003	0.000922	20.703711
961.279837	-3.006300	3.605300	-10.837000	25.239978	0.000923	20.715794
962.284028	-2.989100	3.605100	-10.775000	25.234832	0.000922	20.696876
963.297274	-2.995900	3.604800	-10.799000	25.199386	0.000920	20.692584
964.287655	-2.997500	3.603700	-10.801000	25.195282	0.000920	20.684195
965.281061	-2.979000	3.606000	-10.741000	25.196235	0.000922	20.708861
966.278512	-3.008600	3.603700	-10.842000	25.191813	0.000922	20.695412
967.283673	-2.960800	3.604900	-10.672000	25.197571	0.000921	20.708780
968.285545	-2.994800	3.603900	-10.793000	25.198784	0.000920	20.703360
969.279918	-2.994600	3.605200	-10.795000	25.205233	0.000918	20.697505
970.283784	-3.005300	3.602600	-10.826000	25.170828	0.000919	20.704217
971.282287	-3.012900	3.602200	-10.852000	25.144957	0.000916	20.709539
972.279560	-3.011700	3.603900	-10.852000	25.169891	0.000918	20.694741
973.284585	-3.032000	3.600100	-10.913000	25.155869	0.000916	20.695363
974.288673	-3.012500	3.601800	-10.850000	25.159973	0.000918	20.697112
975.284473	-3.019200	3.601100	-10.871000	25.203603	0.000916	20.689704
976.288982	-2.987400	3.601800	-10.759000	25.226843	0.000917	20.710193
977.283530	-2.985300	3.602700	-10.755000	25.225832	0.000916	20.696375
978.285867	-3.006600	3.600600	-10.825000	25.216663	0.000914	20.706137
979.284699	-2.985800	3.600400	-10.748000	25.252125	0.000915	20.696694
980.283670	-3.002600	3.600900	-10.810000	25.233438	0.000913	20.717289
981.282189	-3.006900	3.599300	-10.822000	25.267091	0.000914	20.692753
982.288980	-3.017100	3.599700	-10.859000	25.281308	0.000914	20.682370
983.284484	-2.996000	3.599100	-10.780000	25.294090	0.000911	20.698051
984.286438	-2.978300	3.600300	-10.721000	25.289889	0.000913	20.699997
985.296005	-3.005200	3.599200	-10.815000	25.276935	0.000911	20.685093
986.285725	-2.997600	3.598500	-10.785000	25.322572	0.000914	20.712898
987.285020	-2.989000	3.598700	-10.755000	25.345508	0.000910	20.712220
988.285550	-2.985400	3.599600	-10.745000	25.348146	0.000910	20.696375
989.291376	-3.001500	3.597000	-10.795000	25.361742	0.000912	20.705761
990.293031	-2.974000	3.598600	-10.701000	25.346453	0.000909	20.707004
991.291847	-2.984500	3.597000	-10.734000	25.342633	0.000911	20.706488
992.292761	-2.992100	3.598000	-10.765000	25.337236	0.000908	20.693007
993.287775	-3.006300	3.595400	-10.807000	25.350556	0.000908	20.706382
994.286955	-2.982200	3.596500	-10.725000	25.364576	0.000910	20.696751
995.285381	-2.988800	3.595200	-10.744000	25.359553	0.000907	20.695026
996.288154	-2.991600	3.595600	-10.756000	25.337806	0.000909	20.713969
997.288993	-3.008400	3.595000	-10.814000	25.286356	0.000908	20.697397
998.288769	-2.994700	3.596400	-10.769000	25.332888	0.000908	20.710928
999.296298	-3.009000	3.595800	-10.818000	25.320113	0.000905	20.694306
1000.299232	-2.999700	3.594500	-10.782000	25.328540	0.000904	20.686645
1001.294417	-3.001100	3.594000	-10.785000	25.329354	0.000906	20.708802
1002.288393	-3.016100	3.593500	-10.837000	25.376927	0.000904	20.692557
1003.295710	-2.963000	3.594000	-10.647000	25.375657	0.000905	20.714991
1004.294704	-3.005100	3.592300	-10.794000	25.404909	0.000906	20.723028
1005.289018	-3.010100	3.592100	-10.811000	25.387014	0.000903	20.707429
1006.292486	-3.005000	3.591800	-10.792000	25.413930	0.000903	20.707903
1007.293734	-3.002100	3.591500	-10.781000	25.426728	0.000903	20.720281
1008.291959	-2.976400	3.592500	-10.692000	25.452300	0.000904	20.722251
1009.293347	-2.991700	3.592000	-10.746000	25.441667	0.000903	20.728644
1010.294317	-3.012800	3.590000	-10.814000	25.453961	0.000902	20.715858
1011.290385	-3.002500	3.591500	-10.781000	25.443605	0.000900	20.722055
1012.299355	-3.005800	3.589900	-10.789000	25.417439	0.000900	20.722333
1013.293828	-3.009900	3.590700	-10.805000	25.401995	0.000899	20.710618
1014.292658	-3.008800	3.589900	-10.801000	25.382170	0.000900	20.722006
1015.296786	-3.009700	3.588600	-10.799000	25.372946	0.000899	20.726495
1016.295130	-2.980700	3.589200	-10.697000	25.343636	0.000899	20.732153
1017.295380	-3.014200	3.588100	-10.814000	25.345256	0.000899	20.714338
1018.303805	-2.996800	3.588900	-10.753000	25.309122	0.000897	20.727843
1019.294071	-3.028200	3.586100	-10.859000	25.280706	0.000898	20.747678
1020.302846	-3.023400	3.586800	-10.843000	25.235809	0.000896	20.723937
1021.294105	-2.996700	3.587600	-10.750000	25.199524	0.000896	20.724492
1022.299451	-3.023100	3.585100	-10.836000	25.218488	0.000896	20.714134
1023.292458	-2.992500	3.586200	-10.731000	25.224344	0.000895	20.730919
1024.292818	-3.039400	3.584700	-10.894000	25.252566	0.000894	20.719423
1025.297549	-3.014300	3.585200	-10.806000	25.283686	0.000894	20.726961
1026.292073	-2.979100	3.585500	-10.680000	25.293368	0.000895	20.724828
1027.296830	-2.995500	3.586300	-10.741000	25.276343	0.000893	20.731442
1028.296915	-3.002300	3.585600	-10.762000	25.306175	0.000892	20.733420
1029.296040	-3.008200	3.585200	-10.784000	25.302446	0.000893	20.732995
1030.299352	-3.014700	3.584100	-10.803000	25.334013	0.000893	20.710161
1031.300853	-2.992800	3.584400	-10.726000	25.360230	0.000892	20.706613
1032.297769	-3.023300	3.583400	-10.832000	25.362836	0.000891	20.732465
1033.300029	-3.003200	3.583800	-10.762000	25.396314	0.000892	20.729570
1034.299714	-2.991400	3.583800	-10.720000	25.400564	0.000891	20.720087
1035.301424	-2.991600	3.582800	-10.716000	25.393596	0.000890	20.739169
1036.312380	-2.991800	3.582800	-10.718000	25.409487	0.000890	20.728099
1037.297324	-2.990800	3.583300	-10.715000	25.441491	0.000891	20.725622
1038.304199	-3.039500	3.582200	-10.887000	25.460158	0.000889	20.745791
1039.301363	-3.022400	3.580900	-10.821000	25.479167	0.000887	20.727420
1040.302513	-3.029800	3.581500	-10.850000	25.469821	0.000888	20.723725
1041.314631	-3.018000	3.579700	-10.802000	25.467135	0.000887	20.710595
1042.301177	-2.992500	3.581900	-10.717000	25.479965	0.000885	20.747663
1043.307263	-2.995600	3.580500	-10.725000	25.471270	0.000886	20.732767
1044.304725	-2.990300	3.580600	-10.706000	25.495416	0.000888	20.740420
1045.310052	-2.993400	3.581600	-10.720000	25.508637	0.000884	20.755593
1046.302187	-3.002300	3.578900	-10.742000	25.470594	0.000886	20.722131
1047.302157	-2.988200	3.579900	-10.695000	25.496686	0.000887	20.738376
1048.304325	-3.004900	3.579100	-10.753000	25.491549	0.000885	20.740329
1049.314340	-3.015800	3.577500	-10.788000	25.468177	0.000885	20.738196
1050.307830	-3.006700	3.578600	-10.759000	25.472297	0.000884	20.730953
1051.305239	-2.997500	3.577400	-10.721000	25.466085	0.000882	20.749847
1052.308689	-2.989300	3.578400	-10.696000	25.431486	0.000883	20.745923
1053.303294	-2.982800	3.577100	-10.668000	25.396250	0.000883	20.745154
1054.320420	-2.977600	3.578000	-10.651000	25.379601	0.000883	20.726538
1055.307428	-3.016500	3.575700	-10.784000	25.374626	0.000881	20.734346
1056.306792	-3.011500	3.575300	-10.766000	25.379366	0.000880	20.746692
1057.305058	-3.001600	3.576000	-10.733000	25.416352	0.000877	20.740683
1058.307958	-3.007700	3.575400	-10.753000	25.398579	0.000878	20.752709
1059.306457	-2.993100	3.575400	-10.701000	25.405337	0.000878	20.740054
1060.311716	-2.989800	3.574500	-10.685000	25.405834	0.000878	20.743397
1061.309479	-2.989400	3.574200	-10.684000	25.375661	0.000879	20.752930
1062.306838	-2.989300	3.573600	-10.681000	25.349364	0.000877	20.749284
1063.305721	-3.003700	3.574600	-10.735000	25.340660	0.000879	20.766150
1064.313280	-3.019400	3.572300	-10.784000	25.346149	0.000876	20.739891
1065.314388	-2.985900	3.573500	-10.668000	25.369882	0.000876	20.760878
1066.306917	-3.000700	3.573100	-10.720000	25.392947	0.000876	20.727138
1067.312429	-3.012100	3.571000	-10.754000	25.412185	0.000875	20.759733
1068.314124	-2.994000	3.571500	-10.693000	25.454528	0.000877	20.740137
1069.313447	-3.004100	3.572000	-10.729000	25.466577	0.000877	20.756504
1070.312427	-2.997700	3.570200	-10.702000	25.503829	0.000875	20.734169
1071.312408	-3.009700	3.571400	-10.748000	25.503423	0.000873	20.758892
1072.310753	-2.998000	3.570600	-10.704000	25.522659	0.000873	20.756399
1073.312109	-3.000000	3.570800	-10.710000	25.503472	0.000875	20.756571
1074.310275	-3.028000	3.568300	-10.803000	25.531329	0.000872	20.753252
1075.309442	-3.016700	3.570900	-10.770000	25.506469	0.000873	20.749623
1076.312243	-3.009100	3.568600	-10.738000	25.492776	0.000871	20.771434
1077.313308	-3.017700	3.569000	-10.769000	25.495137	0.000870	20.759106
1078.315584	-3.005100	3.569100	-10.724000	25.484123	0.000872	20.722440
1079.312265	-3.007900	3.567900	-10.731000	25.513023	0.000870	20.755730
1080.313049	-2.986700	3.568900	-10.658000	25.517940	0.000870	20.763514
1081.324598	-2.968600	3.570500	-10.598000	25.532870	0.000870	20.744842
1082.319458	-3.016800	3.566600	-10.757000	25.536811	0.000869	20.749274
1083.316463	-2.985500	3.567400	-10.649000	25.519317	0.000868	20.780070
1084.312873	-2.998800	3.567500	-10.696000	25.521149	0.000868	20.782384
1085.320006	-3.014600	3.566400	-10.751000	25.526717	0.000866	20.768535
1086.325086	-3.003400	3.566500	-10.710000	25.519782	0.000867	20.761570
1087.320796	-2.991300	3.566900	-10.669000	25.551286	0.000866	20.757172
1088.323012	-2.990300	3.567900	-10.668000	25.544627	0.000865	20.774193
1089.322788	-3.005100	3.565700	-10.713000	25.597978	0.000863	20.785573
1090.323926	-2.992300	3.566600	-10.672000	25.589430	0.000865	20.746168
1091.318285	-2.999300	3.566500	-10.695000	25.622349	0.000864	20.783971
1092.322098	-2.995600	3.565500	-10.678000	25.624482	0.000862	20.770940
1093.317926	-3.020500	3.563600	-10.762000	25.560477	0.000863	20.760713
1094.322549	-2.989300	3.564000	-10.652000	25.552898	0.000861	20.778706
1095.321332	-2.991700	3.563800	-10.661000	25.497918	0.000862	20.777547
1096.319964	-3.015800	3.563200	-10.744000	25.483428	0.000861	20.773427
1097.331984	-2.989700	3.563400	-10.653000	25.477664	0.000861	20.779018
1098.321642	-2.986900	3.563500	-10.643000	25.468847	0.000858	20.778699
1099.327477	-3.001600	3.561300	-10.689000	25.489476	0.000860	20.777129
1100.321859	-3.000100	3.562700	-10.687000	25.469784	0.000857	20.772527
1101.319504	-2.978500	3.562400	-10.610000	25.488027	0.000858	20.776149
1102.319470	-3.001500	3.561600	-10.689000	25.481693	0.000857	20.787806
1103.327894	-3.002700	3.562700	-10.697000	25.493637	0.000856	20.771825
1104.324469	-3.004700	3.561600	-10.700000	25.514290	0.000857	20.776918
1105.322747	-3.035700	3.559800	-10.805000	25.551183	0.000856	20.785519
1106.327450	-2.989800	3.561600	-10.646000	25.551533	0.000855	20.795353
1107.327221	-2.991300	3.560500	-10.649000	25.542237	0.000857	20.774638
1108.326471	-2.983400	3.560500	-10.622000	25.510463	0.000857	20.803421
1109.325498	-3.005500	3.560000	-10.698000	25.509407	0.000857	20.786713
1110.326654	-2.992900	3.559500	-10.652000	25.535805	0.000855	20.781930
1111.326516	-2.997800	3.559100	-10.669000	25.527852	0.000853	20.795280
1112.329678	-2.990500	3.559800	-10.644000	25.540495	0.000854	20.800864
1113.332761	-2.999200	3.558400	-10.672000	25.549351	0.000853	20.795059
1114.327034	-3.013000	3.557700	-10.719000	25.596206	0.000853	20.794226
1115.328430	-3.016400	3.557100	-10.729000	25.593944	0.000852	20.791005
1116.330706	-2.996500	3.558000	-10.661000	25.599665	0.000851	20.783001
1117.325797	-2.994900	3.557000	-10.652000	25.630898	0.000850	20.801566
1118.326980	-2.987800	3.556600	-10.625000	25.639770	0.000850	20.787244
1119.326055	-3.018500	3.555800	-10.732000	25.672687	0.000850	20.780949
1120.329057	-3.002000	3.555900	-10.674000	25.673883	0.000849	20.794005
1121.332034	-3.016700	3.555300	-10.725000	25.698627	0.000849	20.803210
1122.336018	-3.004000	3.555900	-10.681000	25.698015	0.000846	20.824407
1123.334382	-3.003900	3.554100	-10.675000	25.726811	0.000847	20.803544
1124.333447	-3.014700	3.554200	-10.714000	25.678286	0.000848	20.795582
1125.326625	-3.007100	3.553300	-10.684000	25.680321	0.000848	20.819911
1126.329234	-3.006100	3.554100	-10.683000	25.698389	0.000846	20.802023
1127.334222	-3.022000	3.552000	-10.732000	25.725632	0.000844	20.799515
1128.331610	-3.013700	3.552400	-10.703000	25.732591	0.000844	20.806505
1129.340005	-2.998000	3.552100	-10.648000	25.732518	0.000845	20.815914
1130.330464	-3.011600	3.552900	-10.699000	25.711502	0.000843	20.820410
1131.335625	-2.989900	3.551900	-10.620000	25.654349	0.000843	20.805679
1132.329083	-2.988400	3.551700	-10.613000	25.634976	0.000842	20.803291
1133.346864	-2.987700	3.552400	-10.612000	25.639347	0.000842	20.812897
1134.331863	-2.998600	3.551800	-10.649000	25.628359	0.000841	20.797594
1135.335802	-3.005900	3.550700	-10.672000	25.622522	0.000842	20.786991
1136.332016	-3.001600	3.550500	-10.656000	25.638273	0.000840	20.801387
1137.343257	-2.986000	3.552100	-10.605000	25.664921	0.000838	20.808237
1138.341541	-2.987700	3.551500	-10.609000	25.669764	0.000840	20.801721
1139.333069	-3.000900	3.550000	-10.651000	25.715205	0.000838	20.820336
1140.334796	-3.019400	3.548900	-10.715000	25.707718	0.000838	20.818980
1141.335614	-3.016300	3.548900	-10.704000	25.684325	0.000839	20.802596
1142.340362	-2.970900	3.549800	-10.545000	25.690609	0.000839	20.819338
1143.334715	-3.012200	3.546900	-10.682000	25.692001	0.000839	20.836857
1144.334547	-2.993900	3.548700	-10.623000	25.702068	0.000837	20.817098
1145.344089	-2.984000	3.548500	-10.588000	25.651010	0.000838	20.789998
1146.335455	-2.987200	3.548800	-10.600000	25.618760	0.000837	20.833946
1147.335450	-3.005500	3.546700	-10.659000	25.643285	0.000836	20.833921
1148.338604	-2.976200	3.546600	-10.554000	25.675013	0.000834	20.842080
1149.340312	-3.001500	3.546600	-10.644000	25.673426	0.000833	20.828632
1150.339426	-3.009400	3.545600	-10.670000	25.712209	0.000833	20.841508
1151.341017	-3.001300	3.545500	-10.639000	25.733704	0.000833	20.813786
1152.334591	-3.004800	3.545800	-10.651000	25.689078	0.000832	20.811637
1153.337287	-3.010000	3.545500	-10.670000	25.696288	0.000833	20.816508
1154.342369	-2.982200	3.546600	-10.576000	25.705331	0.000833	20.827961
1155.342748	-3.012200	3.545000	-10.678000	25.679619	0.000832	20.831534
1156.340094	-3.010800	3.543300	-10.667000	25.671324	0.000831	20.811823
1157.339106	-3.005000	3.544100	-10.647000	25.699275	0.000832	20.826146
1158.345241	-2.982700	3.544000	-10.571000	25.720567	0.000829	20.814816
1159.341647	-2.983900	3.542700	-10.570000	25.720697	0.000828	20.823955
1160.338164	-3.021100	3.541400	-10.699000	25.673311	0.000829	20.837051
1161.336022	-3.006600	3.543000	-10.651000	25.703149	0.000828	20.807278
1162.349861	-3.004200	3.541900	-10.639000	25.723130	0.000826	20.824028
1163.352713	-2.993000	3.542300	-10.601000	25.729365	0.000828	20.824127
1164.341621	-2.990800	3.541800	-10.592000	25.746814	0.000827	20.821739
1165.351859	-2.992400	3.541500	-10.596000	25.786385	0.000826	20.829718
1166.344580	-2.996900	3.540600	-10.610000	25.782014	0.000825	20.853302
1167.339851	-3.007100	3.539200	-10.641000	25.783528	0.000828	20.835383
1168.343645	-2.993200	3.541000	-10.598000	25.786563	0.000824	20.835113
1169.348049	-3.018700	3.539300	-10.683000	25.778326	0.000824	20.828735
1170.347437	-2.994200	3.540100	-10.598000	25.737348	0.000825	20.833568
1171.349267	-2.999100	3.539400	-10.613000	25.734565	0.000821	20.827927
1172.353292	-3.000800	3.537100	-10.613000	25.744933	0.000821	20.836919
1173.346624	-2.997900	3.538900	-10.608000	25.768137	0.000822	20.831303
1174.348506	-3.021100	3.538700	-10.690000	25.759518	0.000821	20.829757
1175.347514	-3.003300	3.537200	-10.623000	25.749304	0.000822	20.825188
1176.356981	-3.001300	3.536800	-10.613000	25.758297	0.000822	20.858876
1177.344065	-2.992500	3.538500	-10.588000	25.757206	0.000819	20.823643
1178.347466	-3.024200	3.536400	-10.694000	25.771042	0.000819	20.830428
1179.344949	-3.019600	3.536400	-10.677000	25.776096	0.000819	20.836926
1180.348410	-2.975900	3.535700	-10.521000	25.762203	0.000819	20.844782
1181.348573	-2.987000	3.536300	-10.561000	25.798103	0.000818	20.839592
1182.354301	-3.004900	3.536600	-10.625000	25.762480	0.000818	20.837000
1183.353193	-2.993200	3.534900	-10.580000	25.791925	0.000816	20.843817
1184.347538	-2.974000	3.536000	-10.514000	25.775575	0.000815	20.838773
1185.350688	-3.009200	3.534500	-10.635000	25.815526	0.000815	20.846662
1186.350317	-3.010200	3.533700	-10.635000	25.830858	0.000816	20.845942
1187.345315	-3.018500	3.533000	-10.661000	25.856689	0.000816	20.850079
1188.354599	-2.993800	3.531300	-10.570000	25.829890	0.000815	20.865357
1189.350973	-3.006700	3.533300	-10.623000	25.850431	0.000813	20.833361
1190.346593	-2.983100	3.533200	-10.539000	25.866877	0.000813	20.843719
1191.364739	-2.989800	3.533100	-10.562000	25.847753	0.000813	20.845844
1192.350032	-3.012200	3.533400	-10.641000	25.853148	0.000815	20.843203
1193.350365	-3.012800	3.530300	-10.635000	25.861636	0.000812	20.839402
1194.358329	-3.037300	3.530600	-10.722000	25.824152	0.000811	20.852956
1195.348979	-3.020800	3.530500	-10.663000	25.814166	0.000810	20.831072
1196.349914	-3.017500	3.531100	-10.655000	25.793649	0.000810	20.875419
1197.346518	-3.017800	3.529700	-10.649000	25.757270	0.000810	20.848836
1198.355555	-2.970700	3.530300	-10.485000	25.737598	0.000809	20.840456
1199.346172	-2.998100	3.529900	-10.582000	25.735133	0.000810	20.837980
1200.352538	-2.991900	3.529100	-10.558000	25.735238	0.000807	20.828603
1201.350442	-2.986600	3.530100	-10.542000	25.748854	0.000808	20.843227
1202.347839	-2.993700	3.529400	-10.565000	25.756725	0.000807	20.834064
1203.359015	-3.000200	3.528100	-10.583000	25.719872	0.000808	20.816963
1204.350420	-2.992400	3.527900	-10.555000	25.679680	0.000807	20.820690
1205.357702	-2.995100	3.527900	-10.565000	25.655425	0.000806	20.827623
1206.355032	-2.976400	3.527600	-10.497000	25.656670	0.000807	20.827451
1207.351794	-3.018400	3.525600	-10.641000	25.637493	0.000804	20.818621
1208.350517	-2.997800	3.526900	-10.572000	25.626586	0.000803	20.837064
1209.374928	-2.985400	3.526400	-10.526000	25.609362	0.000802	20.852008
1210.352257	-2.993100	3.527000	-10.556000	25.613937	0.000804	20.825308
1211.350645	-3.019700	3.524500	-10.642000	25.624543	0.000804	20.833590
1212.357069	-2.979100	3.527100	-10.505000	25.648596	0.000803	20.807013
1213.353193	-2.989000	3.525700	-10.537000	25.661839	0.000803	20.840228
1214.353958	-2.992600	3.525600	-10.550000	25.670711	0.000800	20.820690
1215.362013	-3.016300	3.523200	-10.626000	25.684125	0.000800	20.829421
1216.358832	-3.018200	3.524200	-10.636000	25.664874	0.000801	20.839009
1217.352443	-2.998200	3.522800	-10.561000	25.677792	0.000800	20.827328
1218.357152	-2.963500	3.523500	-10.441000	25.673414	0.000797	20.818663
1219.361189	-2.983700	3.522600	-10.509000	25.694608	0.000797	20.816717
1220.354816	-2.994400	3.523200	-10.548000	25.672721	0.000798	20.815597
1221.353581	-2.994600	3.522300	-10.547000	25.672844	0.000796	20.797702
1222.353067	-2.997100	3.522300	-10.554000	25.680974	0.000796	20.789273
1223.358799	-3.026400	3.521200	-10.656000	25.680747	0.000798	20.813701
1224.357553	-2.998600	3.522200	-10.561000	25.691653	0.000793	20.803318
1225.358605	-3.003800	3.519800	-10.573000	25.735930	0.000796	20.796108
1226.353672	-3.010900	3.518800	-10.594000	25.754812	0.000793	20.806539
1227.366350	-2.979900	3.522300	-10.495000	25.771260	0.000793	20.806465
1228.359454	-2.992200	3.520700	-10.533000	25.789149	0.000794	20.793614
1229.356801	-2.972900	3.519000	-10.461000	25.816551	0.000791	20.817820
1230.354836	-2.990400	3.520200	-10.526000	25.826162	0.000793	20.796656
1231.357818	-2.996100	3.518200	-10.539000	25.779302	0.000793	20.812647
1232.355673	-2.994100	3.517900	-10.531000	25.762414	0.000791	20.814649
1233.357730	-3.017300	3.518300	-10.614000	25.709739	0.000790	20.804414
1234.363649	-3.009400	3.517700	-10.585000	25.640871	0.000789	20.796410
1235.356277	-2.990300	3.518400	-10.520000	25.602102	0.000789	20.800621
1236.366478	-2.986600	3.518600	-10.508000	25.585438	0.000790	20.805697
1237.355829	-2.992600	3.517400	-10.525000	25.603599	0.000789	20.804021
1238.360074	-3.012300	3.515900	-10.589000	25.597567	0.000787	20.810765
1239.357654	-2.987800	3.517000	-10.507000	25.613115	0.000787	20.803621
1240.362609	-3.004500	3.515000	-10.559000	25.622508	0.000788	20.789347
1241.355757	-3.018600	3.514700	-10.608000	25.588645	0.000787	20.812711
1242.360457	-3.000700	3.514500	-10.543000	25.567050	0.000786	20.805721
1243.367854	-3.017800	3.514300	-10.604000	25.566382	0.000786	20.793197
1244.365150	-3.017000	3.513600	-10.599000	25.534553	0.000786	20.781620
1245.361333	-2.979500	3.515100	-10.473000	25.500086	0.000786	20.785888
1246.364191	-3.001500	3.512700	-10.542000	25.515349	0.000784	20.803112
1247.362594	-3.018600	3.512200	-10.601000	25.520193	0.000783	20.774786
1248.359057	-3.005700	3.512900	-10.558000	25.531752	0.000784	20.784497
1249.369021	-2.985300	3.512200	-10.484000	25.543181	0.000782	20.774638
1250.359566	-2.974100	3.512800	-10.446000	25.565648	0.000783	20.790089
1251.372369	-3.004800	3.510900	-10.549000	25.580634	0.000783	20.795656
1252.369019	-3.022000	3.510900	-10.608000	25.610231	0.000782	20.797879
1253.364006	-3.023900	3.509900	-10.613000	25.599788	0.000780	20.792133
1254.367218	-3.010100	3.511800	-10.570000	25.621530	0.000780	20.793106
1255.361109	-2.980100	3.511800	-10.464000	25.613682	0.000780	20.780009
1256.365502	-3.036100	3.508000	-10.649000	25.618876	0.000780	20.780009
1257.366930	-3.005900	3.509200	-10.547000	25.611623	0.000779	20.785527
1258.364442	-3.001300	3.508000	-10.526000	25.637368	0.000778	20.794789
1259.361477	-2.996800	3.507000	-10.509000	25.652549	0.000778	20.788698
1260.362293	-2.981900	3.508600	-10.462000	25.621806	0.000777	20.790064
1261.363346	-3.010200	3.507900	-10.558000	25.617963	0.000775	20.786205
1262.367539	-2.980200	3.508700	-10.455000	25.652444	0.000775	20.783377
1263.371761	-2.987000	3.508400	-10.478000	25.697113	0.000776	20.781301
1264.364469	-2.985400	3.507400	-10.470000	25.710363	0.000776	20.795084
1265.369125	-2.995200	3.506600	-10.501000	25.764153	0.000774	20.767558
1266.363825	-2.995500	3.507400	-10.505000	25.782156	0.000775	20.783745
1267.365697	-3.002100	3.504700	-10.521000	25.736693	0.000774	20.776486
1268.368569	-3.005700	3.504400	-10.533000	25.751302	0.000773	20.766504
1269.371005	-3.024700	3.505300	-10.601000	25.764992	0.000774	20.767926
1270.365267	-3.002200	3.506000	-10.524000	25.769492	0.000772	20.794258
1271.366753	-3.000200	3.504700	-10.514000	25.824786	0.000771	20.770616
1272.374346	-3.019400	3.503400	-10.577000	25.819202	0.000771	20.772594
1273.370704	-3.024000	3.503700	-10.595000	25.838310	0.000770	20.778513
1274.368810	-2.992100	3.504900	-10.486000	25.876983	0.000771	20.764730
1275.367881	-3.011700	3.501900	-10.545000	25.883794	0.000768	20.775840
1276.378518	-2.981800	3.502800	-10.444000	25.895674	0.000768	20.788249
1277.370366	-3.013900	3.503200	-10.557000	25.867445	0.000769	20.771744
1278.374382	-2.991400	3.503000	-10.478000	25.868470	0.000769	20.777041
1279.367213	-3.008200	3.501500	-10.532000	25.889888	0.000765	20.775324
1280.367737	-3.000200	3.502000	-10.505000	25.908418	0.000768	20.763118
1281.375152	-3.004400	3.499700	-10.512000	25.895569	0.000765	20.784824
1282.372324	-2.998600	3.500500	-10.496000	25.957520	0.000764	20.784947
1283.371897	-3.012100	3.498700	-10.537000	25.922650	0.000763	20.773624
1284.370818	-2.982500	3.499800	-10.437000	25.964152	0.000762	20.806783
1285.370413	-3.003600	3.499200	-10.509000	25.928055	0.000763	20.748232
1286.370533	-2.966400	3.500600	-10.384000	25.877308	0.000764	20.769798
1287.387082	-3.008300	3.497600	-10.521000	25.830873	0.000763	20.775783
1288.375935	-2.996400	3.499200	-10.484000	25.804789	0.000762	20.753374
1289.374282	-2.982600	3.498600	-10.434000	25.788838	0.000764	20.758214
1290.374363	-3.002700	3.497400	-10.500000	25.801957	0.000761	20.786566
1291.375111	-2.991300	3.496100	-10.457000	25.791891	0.000761	20.765548
1292.378660	-3.009300	3.495800	-10.519000	25.790719	0.000759	20.792347
1293.377809	-3.000600	3.496600	-10.491000	25.787219	0.000760	20.775080
1294.377262	-2.991400	3.496300	-10.458000	25.753298	0.000760	20.778940
1295.375769	-3.000500	3.494900	-10.485000	25.698441	0.000759	20.756556
1296.376174	-3.009100	3.496600	-10.520000	25.647847	0.000757	20.767855
1297.391945	-2.998800	3.493800	-10.476000	25.622085	0.000757	20.747669
1298.375835	-2.979200	3.495700	-10.412000	25.655376	0.000758	20.769253
1299.379694	-3.005800	3.493500	-10.500000	25.687999	0.000759	20.772147
1300.377872	-2.983800	3.494900	-10.427000	25.706085	0.000757	20.774191
1301.383471	-2.995800	3.494300	-10.466000	25.751143	0.000756	20.763973
1302.381079	-2.987500	3.493100	-10.434000	25.732765	0.000755	20.773014
1303.380679	-2.972200	3.493000	-10.381000	25.773386	0.000755	20.763081
1304.379210	-3.002400	3.490900	-10.480000	25.803197	0.000753	20.764103
1305.380849	-3.006300	3.491500	-10.496000	25.823819	0.000753	20.751627
1306.380912	-2.999700	3.491400	-10.473000	25.838354	0.000753	20.757693
1307.384892	-2.989000	3.490900	-10.434000	25.847444	0.000753	20.762084
1308.381939	-2.993100	3.491400	-10.450000	25.876579	0.000753	20.751522
1309.377344	-2.988000	3.490800	-10.430000	25.862776	0.000752	20.742397
1310.379050	-3.019600	3.488600	-10.533000	25.845011	0.000753	20.767700
1311.382396	-2.996600	3.489800	-10.455000	25.856234	0.000749	20.749576
1312.384436	-2.979500	3.490500	-10.398000	25.843539	0.000751	20.754841
1313.385429	-3.012400	3.487400	-10.505000	25.830200	0.000752	20.758986
1314.384721	-2.991100	3.489300	-10.435000	25.806672	0.000749	20.771862
1315.385166	-2.990700	3.489900	-10.436000	25.811539	0.000749	20.756362
1316.384409	-3.012100	3.486800	-10.502000	25.813550	0.000749	20.737992
1317.383637	-2.997400	3.487800	-10.453000	25.799746	0.000748	20.756843
1318.383832	-3.007600	3.487000	-10.485000	25.825756	0.000746	20.754522
1319.386676	-2.988500	3.487500	-10.421000	25.830648	0.000749	20.777453
1320.390643	-2.975900	3.486500	-10.374000	25.865209	0.000748	20.748161
1321.387146	-2.987500	3.485800	-10.413000	25.878597	0.000747	20.757816
1322.386454	-2.986700	3.486300	-10.411000	25.915240	0.000744	20.746738
1323.387732	-2.979700	3.486300	-10.387000	25.905297	0.000745	20.765199
1324.386519	-2.991000	3.485100	-10.423000	25.888777	0.000743	20.749551
1325.394320	-2.989400	3.484400	-10.416000	25.838420	0.000743	20.754915
1326.387776	-2.994900	3.482200	-10.428000	25.846948	0.000742	20.733609
1327.387377	-2.989800	3.483400	-10.414000	25.796589	0.000742	20.761258
1328.387578	-3.002700	3.482700	-10.456000	25.772564	0.000742	20.769368
1329.383976	-2.988200	3.483300	-10.407000	25.772263	0.000741	20.761953
1330.390932	-3.018700	3.482200	-10.510000	25.763822	0.000740	20.761062
1331.384622	-2.974100	3.483300	-10.359000	25.766549	0.000741	20.761430
1332.389822	-3.001700	3.481000	-10.447000	25.740310	0.000740	20.743134
1333.389386	-3.001900	3.482500	-10.452000	25.760486	0.000739	20.743959
1334.393072	-3.004900	3.480700	-10.458000	25.756465	0.000739	20.738972
1335.393025	-2.990900	3.481500	-10.410000	25.767689	0.000737	20.743134
1336.392521	-3.022900	3.478600	-10.514000	25.789183	0.000738	20.736749
1337.390961	-2.998400	3.480500	-10.435000	25.794400	0.000737	20.738670
1338.388745	-3.004100	3.479300	-10.451000	25.823959	0.000736	20.744655
1339.394909	-3.006000	3.479200	-10.458000	25.818766	0.000734	20.740387
1340.389426	-3.002700	3.477800	-10.441000	25.846566	0.000735	20.733225
1341.390465	-3.018800	3.477400	-10.497000	25.862468	0.000735	20.723120
1342.400831	-3.002800	3.479200	-10.447000	25.850091	0.000732	20.726808
1343.395363	-3.016700	3.476600	-10.487000	25.847014	0.000733	20.750745
1344.389670	-3.000100	3.477800	-10.432000	25.848227	0.000733	20.724462
1345.395468	-2.991300	3.476900	-10.400000	25.852979	0.000731	20.726864
1346.391253	-2.973400	3.477500	-10.339000	25.834717	0.000732	20.712312
1347.387900	-3.001500	3.476300	-10.433000	25.843507	0.000730	20.729678
1348.392524	-2.985600	3.476000	-10.376000	25.787060	0.000729	20.740780
1349.397725	-3.002100	3.474400	-10.429000	25.776252	0.000732	20.736562
1350.400257	-3.009800	3.474600	-10.456000	25.759413	0.000731	20.721543
1351.402353	-2.997900	3.475200	-10.418000	25.773518	0.000729	20.745669
1352.398396	-2.973800	3.475100	-10.333000	25.785676	0.000728	20.719948
1353.391487	-2.991800	3.473500	-10.391000	25.806242	0.000727	20.732547
1354.393396	-3.007500	3.474200	-10.447000	25.799413	0.000728	20.734223
1355.399726	-2.991600	3.474000	-10.390000	25.827686	0.000727	20.731803
1356.388460	-3.008700	3.472400	-10.446000	25.797941	0.000728	20.728476
1357.397386	-2.992200	3.473600	-10.393000	25.794197	0.000725	20.715705
1358.390310	-2.987100	3.472700	-10.373000	25.770546	0.000727	20.729407
1359.391202	-2.992600	3.470600	-10.384000	25.718351	0.000726	20.723447
1360.398030	-2.993200	3.471300	-10.390000	25.704353	0.000725	20.721241
1361.400150	-3.025900	3.471000	-10.502000	25.723397	0.000725	20.725670
1362.397637	-2.993000	3.469600	-10.384000	25.751794	0.000724	20.726218
1363.395408	-3.003300	3.469000	-10.417000	25.796466	0.000721	20.739798
1364.399786	-2.955400	3.470300	-10.255000	25.806232	0.000723	20.749608
1365.394905	-2.992800	3.470000	-10.384000	25.786138	0.000723	20.720413
1366.392725	-3.020700	3.467900	-10.474000	25.761714	0.000723	20.720536
1367.406581	-2.988200	3.467300	-10.360000	25.734587	0.000722	20.738333
1368.395895	-2.994700	3.467500	-10.382000	25.714687	0.000722	20.728302
1369.398691	-3.010800	3.467100	-10.438000	25.719090	0.000722	20.748372
1370.396463	-3.001600	3.467100	-10.405000	25.711911	0.000719	20.720772
1371.400436	-3.001200	3.467000	-10.403000	25.754144	0.000721	20.722889
1372.396221	-3.009700	3.465300	-10.428000	25.757180	0.000719	20.720248
1373.397335	-2.988600	3.467000	-10.361000	25.779163	0.000720	20.719570
1374.403049	-3.006300	3.465700	-10.418000	25.786999	0.000720	20.713691
1375.403781	-3.002600	3.466100	-10.407000	25.769240	0.000718	20.708180
1376.406051	-3.004400	3.463700	-10.405000	25.734528	0.000718	20.734481
1377.407280	-2.997900	3.464700	-10.386000	25.701418	0.000718	20.737260
1378.405037	-3.007200	3.463100	-10.412000	25.700400	0.000716	20.724383
1379.418736	-2.989700	3.463300	-10.353000	25.659232	0.000718	20.716698
1380.404061	-3.005900	3.462500	-10.407000	25.666215	0.000715	20.728929
1381.398539	-3.005900	3.461900	-10.404000	25.658938	0.000716	20.728258
1382.408813	-2.993300	3.461800	-10.361000	25.699911	0.000715	20.718676
1383.417180	-3.003600	3.461800	-10.397000	25.695320	0.000715	20.741567
1384.406042	-2.994900	3.461200	-10.365000	25.653655	0.000713	20.715364
1385.404744	-3.006300	3.461100	-10.404000	25.660956	0.000714	20.736449
1386.407331	-3.003200	3.459700	-10.390000	25.692341	0.000715	20.706330
1387.407107	-3.005100	3.460700	-10.398000	25.700545	0.000714	20.715519
1388.401000	-3.006900	3.459300	-10.401000	25.747157	0.000711	20.721561
1389.408056	-2.985400	3.460100	-10.328000	25.780322	0.000713	20.711725
1390.412982	-3.007600	3.460000	-10.405000	25.814389	0.000712	20.731722
1391.413049	-2.998700	3.459500	-10.373000	25.811354	0.000711	20.708757
1392.401736	-2.997600	3.458400	-10.366000	25.841319	0.000710	20.702822
1393.410111	-2.994100	3.456700	-10.348000	25.839504	0.000712	20.714750
1394.406196	-3.009100	3.455500	-10.396000	25.824065	0.000708	20.709197
1395.415968	-3.006600	3.455900	-10.389000	25.815194	0.000710	20.696018
1396.414268	-3.004900	3.457000	-10.387000	25.817026	0.000709	20.712084
1397.420045	-3.006200	3.456200	-10.389000	25.821127	0.000708	20.706247
1398.414169	-3.013800	3.455000	-10.412000	25.790795	0.000708	20.723669
1399.412357	-3.017500	3.455100	-10.425000	25.739252	0.000707	20.699394
1400.413896	-2.982300	3.454700	-10.302000	25.720345	0.000706	20.739675
1401.410165	-2.997200	3.455400	-10.355000	25.741434	0.000706	20.717708
1402.412041	-3.004000	3.454700	-10.376000	25.793806	0.000706	20.710571
1403.418965	-2.988800	3.454400	-10.324000	25.811743	0.000706	20.717210
1404.423276	-3.018800	3.453700	-10.425000	25.784830	0.000704	20.706770
1405.413672	-2.993500	3.453300	-10.336000	25.770383	0.000704	20.694154
1406.415208	-2.993300	3.452900	-10.334000	25.752983	0.000704	20.712713
1407.414160	-2.988300	3.452000	-10.313000	25.717505	0.000705	20.715485
1408.412902	-3.000900	3.450900	-10.355000	25.663493	0.000703	20.704856
1409.419547	-2.982800	3.452700	-10.298000	25.645896	0.000702	20.708993
1410.410792	-2.982500	3.452200	-10.296000	25.631562	0.000701	20.718779
1411.414252	-2.983500	3.453200	-10.302000	25.626417	0.000702	20.711716
1412.417809	-3.023300	3.449200	-10.426000	25.640336	0.000700	20.701512
1413.413146	-2.984300	3.449800	-10.294000	25.678005	0.000700	20.705682
1414.410590	-3.010200	3.451000	-10.385000	25.731097	0.000699	20.725344
1415.416501	-3.006000	3.448600	-10.365000	25.753081	0.000699	20.711389
1416.422794	-2.996500	3.449200	-10.335000	25.779662	0.000700	20.720072
1417.414783	-2.991800	3.447900	-10.315000	25.807894	0.000698	20.711920
1418.420742	-2.980100	3.448700	-10.277000	25.801799	0.000699	20.715755
1419.415182	-3.012700	3.447700	-10.385000	25.852556	0.000699	20.723595
1420.413154	-2.990500	3.447000	-10.307000	25.898259	0.000697	20.726833
1421.420499	-2.999400	3.446500	-10.336000	25.877712	0.000698	20.716622
1422.421670	-2.992900	3.445300	-10.311000	25.890764	0.000695	20.706026
1423.411793	-2.998400	3.446300	-10.331000	25.897543	0.000693	20.722320
1424.414383	-3.005500	3.445000	-10.354000	25.936668	0.000695	20.734599
1425.423993	-2.982300	3.445200	-10.274000	25.953113	0.000693	20.728361
1426.418173	-2.987500	3.444400	-10.289000	25.969502	0.000693	20.727757
1427.424801	-3.009700	3.442900	-10.361000	25.975515	0.000692	20.715305
1428.419189	-2.986700	3.444400	-10.286000	25.939248	0.000694	20.717750
1429.417975	-2.963000	3.444300	-10.204000	25.920890	0.000691	20.718273
1430.415630	-3.001000	3.443500	-10.332000	25.892945	0.000692	20.715804
1431.418080	-2.984000	3.443000	-10.272000	25.861972	0.000692	20.713138
1432.420770	-3.008700	3.441900	-10.354000	25.825180	0.000691	20.690876
1433.424387	-3.017200	3.440500	-10.380000	25.807991	0.000694	20.732882
1434.422039	-3.032300	3.440400	-10.431000	25.789347	0.000689	20.738810
1435.423044	-3.005200	3.439700	-10.336000	25.761455	0.000688	20.725018
1436.428905	-2.996000	3.441100	-10.308000	25.773599	0.000690	20.722991
1437.419074	-2.984900	3.440100	-10.268000	25.812232	0.000689	20.709165
1438.420292	-3.010100	3.440000	-10.353000	25.870541	0.000689	20.715583
1439.420675	-3.015800	3.438800	-10.370000	25.876425	0.000686	20.731452
1440.416184	-3.002300	3.439900	-10.326000	25.907633	0.000688	20.707325
1441.419702	-3.017800	3.437500	-10.372000	25.946254	0.000689	20.734747
1442.421193	-2.999400	3.437400	-10.310000	25.966695	0.000687	20.712608
1443.422495	-3.029900	3.435800	-10.409000	25.998658	0.000685	20.731445
1444.439492	-2.993100	3.437300	-10.287000	25.968135	0.000688	20.724487
1445.422318	-2.993600	3.437500	-10.288000	25.961755	0.000685	20.709067
1446.425446	-3.002200	3.436000	-10.313000	25.929906	0.000684	20.731600
1447.426597	-2.990400	3.438200	-10.280000	25.884417	0.000686	20.733317
1448.421470	-3.007700	3.436200	-10.333000	25.874376	0.000685	20.724177
1449.429595	-2.980800	3.436100	-10.241000	25.859719	0.000684	20.733162
1450.426929	-2.973500	3.436300	-10.216000	25.875450	0.000685	20.733791
1451.428443	-2.991600	3.434800	-10.275000	25.905349	0.000684	20.715937
1452.432294	-3.003000	3.434900	-10.314000	25.903216	0.000683	20.726123
1453.432297	-2.981600	3.435500	-10.242000	25.886966	0.000683	20.740619
1454.433272	-2.991300	3.434700	-10.273000	25.868030	0.000682	20.706421
1455.432621	-3.002600	3.433300	-10.307000	25.839245	0.000681	20.725870
1456.428413	-3.012600	3.433900	-10.344000	25.861015	0.000681	20.727351
1457.425478	-3.014800	3.431800	-10.345000	25.887105	0.000681	20.735068
1458.432884	-2.979000	3.433700	-10.228000	25.924423	0.000680	20.725143
1459.433304	-3.014700	3.430200	-10.340000	25.992420	0.000678	20.743196
1460.430381	-2.997100	3.431500	-10.283000	26.020264	0.000681	20.737506
1461.428008	-3.004100	3.431100	-10.306000	26.034219	0.000677	20.719283
1462.430064	-3.011600	3.430400	-10.330000	26.045919	0.000677	20.755696
1463.428679	-3.011200	3.430400	-10.328000	26.061688	0.000678	20.745461
1464.437982	-3.019700	3.428800	-10.353000	26.058125	0.000676	20.730027
1465.448008	-3.011500	3.430500	-10.330000	26.063422	0.000675	20.746254
1466.435157	-2.982300	3.429100	-10.225000	26.039224	0.000675	20.727157
1467.432980	-2.985200	3.429500	-10.237000	26.026084	0.000675	20.746198
1468.435422	-2.962800	3.430000	-10.161000	26.053154	0.000673	20.743525
1469.436048	-3.012800	3.429300	-10.331000	26.063830	0.000674	20.763735
1470.427541	-3.000300	3.427800	-10.284000	26.045946	0.000673	20.742446
1471.430041	-3.024300	3.426500	-10.362000	26.050787	0.000674	20.742095
1472.428473	-3.002000	3.427500	-10.288000	26.053888	0.000671	20.751848
1473.435045	-2.990700	3.426700	-10.248000	26.073586	0.000672	20.747932
1474.433046	-3.017100	3.426000	-10.336000	26.067972	0.000669	20.744188
1475.439010	-2.996300	3.427100	-10.266000	26.100533	0.000670	20.738024
1476.431230	-2.984200	3.426600	-10.224000	26.062260	0.000669	20.732759
1477.434546	-2.999300	3.425000	-10.272000	25.996980	0.000670	20.756787
1478.443689	-2.983700	3.425000	-10.218000	25.987915	0.000671	20.765698
1479.432539	-2.977500	3.424000	-10.194000	25.997606	0.000668	20.764054
1480.439327	-3.003000	3.423500	-10.280000	25.999909	0.000668	20.746453
1481.440439	-3.001900	3.423900	-10.276000	25.993351	0.000670	20.749347
1482.442967	-3.003600	3.422900	-10.280000	26.036021	0.000671	20.732474
1483.437872	-3.008900	3.422400	-10.297000	26.027974	0.000668	20.768960
1484.439041	-3.013200	3.421600	-10.308000	26.030602	0.000666	20.763540
1485.445405	-2.996900	3.421400	-10.253000	26.055614	0.000664	20.745522
1486.440057	-2.996500	3.420900	-10.248000	26.092521	0.000666	20.755578
1487.441884	-3.031800	3.419600	-10.366000	26.075427	0.000664	20.754524
1488.443955	-3.028000	3.419800	-10.354000	26.116815	0.000666	20.753910
1489.441688	-3.028100	3.419000	-10.351000	26.101032	0.000666	20.765078
1490.449948	-3.007100	3.421800	-10.288000	26.138343	0.000665	20.740453
1491.453481	-3.003700	3.418700	-10.268000	26.151336	0.000664	20.767734
1492.447221	-3.018300	3.418100	-10.316000	26.189053	0.000663	20.755848
1493.442324	-2.998900	3.419000	-10.253000	26.205592	0.000663	20.756347
1494.446391	-3.011100	3.418300	-10.292000	26.215802	0.000662	20.742424
1495.442461	-3.027700	3.416400	-10.342000	26.247985	0.000662	20.752954
1496.440110	-2.980800	3.419100	-10.190000	26.242347	0.000663	20.745392
1497.447023	-2.998900	3.417400	-10.248000	26.228640	0.000661	20.752006
1498.446609	-2.985200	3.418300	-10.202000	26.236409	0.000660	20.761710
1499.441399	-2.990700	3.418000	-10.220000	26.215575	0.000661	20.775387
1500.454340	-3.017100	3.415800	-10.306000	26.231260	0.000660	20.753217
1501.445805	-2.995200	3.415300	-10.229000	26.239558	0.000659	20.753020
1502.445585	-3.018000	3.415500	-10.307000	26.256673	0.000659	20.764531
1503.447491	-2.996700	3.414800	-10.232000	26.273879	0.000658	20.752897
1504.446698	-2.995500	3.414400	-10.227000	26.276287	0.000658	20.761482
1505.446949	-2.998400	3.412600	-10.231000	26.241281	0.000657	20.775142
1506.451978	-2.991000	3.413500	-10.209000	26.218227	0.000655	20.754345
1507.450868	-2.997400	3.413000	-10.229000	26.215501	0.000656	20.765830
1508.445468	-3.003000	3.413600	-10.250000	26.198043	0.000655	20.768675
1509.454835	-2.994800	3.412200	-10.217000	26.184132	0.000657	20.765602
1510.456909	-3.040200	3.410400	-10.367000	26.207399	0.000655	20.771439
1511.451764	-3.023500	3.412100	-10.315000	26.217357	0.000654	20.786661
1512.461152	-3.014400	3.411500	-10.282000	26.229128	0.000654	20.768619
1513.452050	-3.026900	3.410700	-10.323000	26.232082	0.000652	20.775380
1514.453913	-3.013700	3.409800	-10.275000	26.236035	0.000653	20.776033
1515.453264	-3.019000	3.409700	-10.293000	26.215641	0.000652	20.769289
1516.448649	-3.000400	3.410600	-10.232000	26.195669	0.000653	20.770083
1517.449041	-3.009000	3.410300	-10.260000	26.191674	0.000652	20.769862
1518.467189	-2.986300	3.410000	-10.182000	26.148042	0.000651	20.772960
1519.461522	-3.019500	3.408300	-10.290000	26.185718	0.000650	20.780947
1520.454324	-3.008400	3.408600	-10.253000	26.172205	0.000651	20.782541
1521.456934	-3.000300	3.406700	-10.219000	26.192244	0.000650	20.755735
1522.450660	-2.970500	3.409100	-10.125000	26.254974	0.000649	20.787005
1523.456652	-2.995000	3.407000	-10.203000	26.247083	0.000649	20.765798
1524.455971	-2.980000	3.408600	-10.156000	26.262450	0.000650	20.779819
1525.457776	-2.973600	3.407600	-10.132000	26.268958	0.000648	20.783988
1526.452941	-3.006800	3.405900	-10.240000	26.314496	0.000647	20.771906
1527.457473	-3.003700	3.405500	-10.228000	26.306776	0.000647	20.787381
1528.450038	-3.000300	3.404000	-10.212000	26.333718	0.000645	20.776999
1529.452484	-2.983300	3.405300	-10.157000	26.301506	0.000644	20.772601
1530.457484	-2.996100	3.404200	-10.198000	26.286237	0.000646	20.780490
1531.453603	-2.998000	3.404300	-10.205000	26.240445	0.000644	20.769560
1532.451706	-2.970600	3.403400	-10.107000	26.200184	0.000645	20.791690
1533.457464	-3.017500	3.403800	-10.270000	26.197678	0.000643	20.778741
1534.457212	-3.034300	3.403100	-10.325000	26.216821	0.000643	20.783752
1535.455470	-3.020100	3.401600	-10.272000	26.195466	0.000642	20.795958
1536.456921	-2.996800	3.403000	-10.197000	26.226388	0.000641	20.769658
1537.456675	-2.992600	3.402200	-10.180000	26.210915	0.000640	20.779714
1538.456631	-2.996900	3.401900	-10.194000	26.268136	0.000642	20.788379
1539.457590	-3.000000	3.402200	-10.205000	26.281665	0.000640	20.760248
1540.457304	-2.988800	3.401100	-10.164000	26.286286	0.000641	20.773901
1541.466018	-2.985800	3.399600	-10.149000	26.316555	0.000639	20.798631
1542.453773	-3.001400	3.399600	-10.203000	26.304654	0.000637	20.781455
1543.454730	-2.987900	3.399600	-10.156000	26.294925	0.000640	20.800127
1544.460397	-3.015900	3.398700	-10.249000	26.304882	0.000639	20.794960
1545.458158	-2.994000	3.398800	-10.175000	26.286009	0.000638	20.791641
1546.456371	-2.998100	3.399600	-10.191000	26.266535	0.000638	20.785821
1547.466509	-2.977400	3.398300	-10.117000	26.276761	0.000636	20.789934
1548.466842	-3.018900	3.398300	-10.258000	26.295267	0.000637	20.806635
1549.463343	-3.012200	3.397000	-10.231000	26.287596	0.000635	20.811253
1550.465028	-2.980100	3.398800	-10.128000	26.315083	0.000634	20.807109
1551.463583	-2.999600	3.396300	-10.186000	26.274004	0.000637	20.800913
1552.459306	-2.978200	3.396000	-10.113000	26.255431	0.000633	20.780352
1553.462825	-3.037200	3.395300	-10.311000	26.235883	0.000635	20.782993
1554.465541	-2.993500	3.395700	-10.163000	26.255903	0.000635	20.806905
1555.463016	-2.980800	3.397100	-10.126000	26.261086	0.000633	20.815432
1556.465333	-3.013600	3.394800	-10.229000	26.289493	0.000634	20.818375
1557.464657	-3.003800	3.393800	-10.193000	26.255595	0.000632	20.803276
1558.465658	-2.989400	3.394600	-10.145000	26.267586	0.000633	20.800154
1559.462528	-3.014100	3.394600	-10.230000	26.279179	0.000631	20.802795
1560.469522	-2.985700	3.393500	-10.131000	26.309375	0.000632	20.808485
1561.471932	-2.971300	3.394600	-10.085000	26.331144	0.000630	20.818034
1562.464190	-3.020300	3.391500	-10.243000	26.373783	0.000628	20.803040
1563.469683	-2.997900	3.392400	-10.169000	26.398958	0.000629	20.792307
1564.468825	-3.016700	3.390900	-10.228000	26.357393	0.000628	20.812646
1565.466191	-2.993300	3.393200	-10.155000	26.310636	0.000629	20.826347
1566.466905	-3.002500	3.391700	-10.182000	26.267124	0.000628	20.797793
1567.463173	-3.005500	3.389500	-10.186000	26.213611	0.000628	20.806131
1568.470724	-2.992200	3.390700	-10.145000	26.173601	0.000628	20.813342
1569.467638	-2.979800	3.391300	-10.104000	26.169005	0.000627	20.813939
1570.467833	-3.018700	3.388900	-10.228000	26.151644	0.000626	20.808347
1571.477626	-3.002500	3.389600	-10.176000	26.192549	0.000627	20.814838
1572.468646	-2.998100	3.388700	-10.159000	26.199602	0.000625	20.816236
1573.469935	-2.976700	3.388600	-10.086000	26.217232	0.000625	20.819252
1574.474156	-2.999600	3.387500	-10.159000	26.181095	0.000623	20.807595
1575.466696	-2.981000	3.389600	-10.103000	26.184244	0.000625	20.818346
1576.464837	-2.997400	3.386000	-10.147000	26.196991	0.000623	20.807922
1577.471977	-2.994700	3.388000	-10.144000	26.233519	0.000624	20.825662
1578.477806	-2.988400	3.387300	-10.122000	26.261049	0.000622	20.829146
1579.471820	-3.012300	3.385900	-10.199000	26.259284	0.000621	20.839699
1580.468492	-3.017500	3.385200	-10.214000	26.239548	0.000623	20.822237
1581.470402	-2.997200	3.385700	-10.146000	26.218364	0.000620	20.807114
1582.473004	-3.016300	3.384900	-10.208000	26.221017	0.000620	20.801719
1583.470833	-2.999400	3.385900	-10.155000	26.229779	0.000619	20.820955
1584.470361	-3.010400	3.385300	-10.190000	26.201646	0.000620	20.812126
1585.470108	-3.012900	3.384500	-10.195000	26.188078	0.000618	20.825043
1586.473405	-3.008200	3.384200	-10.180000	26.188410	0.000618	20.823006
1587.470860	-2.988100	3.384200	-10.111000	26.222481	0.000617	20.825001
1588.470543	-3.022100	3.382000	-10.219000	26.261741	0.000616	20.796176
1589.472475	-3.005400	3.382600	-10.165000	26.266093	0.000617	20.845593
1590.471484	-2.998100	3.382000	-10.138000	26.282135	0.000616	20.832791
1591.475274	-3.008100	3.381000	-10.170000	26.333879	0.000616	20.838800
1592.470477	-2.975000	3.384600	-10.068000	26.330300	0.000615	20.823350
1593.471674	-2.995500	3.382000	-10.130000	26.309272	0.000614	20.836356
1594.475001	-3.029600	3.381200	-10.242000	26.325362	0.000613	20.848733
1595.470457	-3.022300	3.379500	-10.211000	26.273593	0.000613	20.825156
1596.477805	-3.009000	3.381800	-10.175000	26.265345	0.000612	20.832514
1597.474787	-3.019200	3.379200	-10.201000	26.295842	0.000614	20.830919
1598.473334	-3.013300	3.378900	-10.180000	26.326509	0.000612	20.857471
1599.473633	-2.997500	3.378700	-10.127000	26.348326	0.000615	20.813017
1600.474787	-2.992800	3.379700	-10.114000	26.323825	0.000611	20.831541
1601.471881	-3.004900	3.379400	-10.154000	26.358094	0.000611	20.860291
1602.474962	-3.013800	3.376200	-10.175000	26.362015	0.000610	20.835783
1603.478962	-2.969900	3.379700	-10.035000	26.342980	0.000611	20.853162
1604.479646	-2.999600	3.377900	-10.132000	26.333984	0.000609	20.828001
1605.475358	-2.977500	3.377500	-10.055000	26.346747	0.000609	20.846991
1606.478468	-2.993000	3.376600	-10.105000	26.385059	0.000609	20.854201
1607.474584	-3.015600	3.375100	-10.177000	26.397284	0.000608	20.830927
1608.476216	-2.968400	3.378000	-10.025000	26.405621	0.000608	20.860168
1609.476444	-2.978500	3.376000	-10.054000	26.445078	0.000609	20.847669
1610.477308	-3.009400	3.374800	-10.155000	26.429510	0.000607	20.841031
1611.477968	-2.997200	3.375300	-10.115000	26.416098	0.000606	20.838930
1612.481875	-3.018600	3.375400	-10.188000	26.369295	0.000605	20.840255
1613.478990	-3.002800	3.375700	-10.135000	26.313631	0.000605	20.851641
1614.478550	-3.004800	3.374900	-10.140000	26.293539	0.000606	20.856579
1615.479034	-2.997400	3.375000	-10.115000	26.263325	0.000604	20.839019
1616.479665	-2.999400	3.374400	-10.120000	26.264587	0.000603	20.822743
1617.477446	-3.001000	3.373900	-10.124000	26.268638	0.000603	20.848624
1618.481672	-2.990700	3.373100	-10.087000	26.281677	0.000602	20.856513
1619.479468	-3.014500	3.372100	-10.164000	26.289275	0.000601	20.851821
1620.478533	-2.987700	3.372600	-10.075000	26.300379	0.000602	20.879573
1621.479675	-2.995600	3.371000	-10.097000	26.335715	0.000601	20.858662
1622.482444	-3.001700	3.370800	-10.117000	26.353301	0.000600	20.860689
1623.478760	-2.998800	3.370100	-10.106000	26.360231	0.000600	20.870498
1624.480949	-3.014700	3.369500	-10.157000	26.377418	0.000599	20.865487
1625.481563	-3.022800	3.369700	-10.185000	26.412238	0.000600	20.845482
1626.480630	-2.998700	3.368700	-10.100000	26.435941	0.000599	20.846072
1627.480896	-2.995500	3.369100	-10.092000	26.438185	0.000595	20.850698
1628.482113	-2.994400	3.368800	-10.086000	26.412189	0.000597	20.860131
1629.483704	-2.979700	3.368700	-10.037000	26.450279	0.000597	20.860008
1630.480628	-2.996800	3.368400	-10.094000	26.484048	0.000598	20.846062
1631.481378	-3.016800	3.366700	-10.155000	26.462869	0.000594	20.854172
1632.483448	-2.992200	3.368400	-10.078000	26.487382	0.000595	20.855103
1633.486142	-3.012900	3.367800	-10.146000	26.467496	0.000593	20.875890
1634.483818	-3.004500	3.367100	-10.116000	26.473692	0.000594	20.873584
1635.484668	-3.022600	3.366500	-10.175000	26.448561	0.000594	20.845006
1636.485640	-2.973900	3.368800	-10.017000	26.390420	0.000593	20.860537
1637.485483	-2.996600	3.365500	-10.084000	26.401864	0.000594	20.856867
1638.485404	-2.996200	3.367300	-10.087000	26.391884	0.000592	20.857741
1639.484879	-2.991800	3.366600	-10.071000	26.389623	0.000593	20.874908
1640.484940	-3.001200	3.364800	-10.098000	26.417611	0.000590	20.867477
1641.486812	-2.996500	3.364700	-10.082000	26.391046	0.000591	20.867803
1642.489928	-3.012900	3.364100	-10.135000	26.389711	0.000591	20.868359
1643.486900	-3.007600	3.364900	-10.119000	26.397690	0.000589	20.852197
1644.485138	-3.012500	3.362500	-10.129000	26.407719	0.000589	20.858957
1645.489772	-2.998900	3.363600	-10.086000	26.430688	0.000587	20.835577
1646.487844	-3.021100	3.362200	-10.157000	26.462962	0.000590	20.844308
1647.486460	-3.002200	3.362200	-10.092000	26.457976	0.000590	20.849254
1648.490959	-2.999900	3.362700	-10.087000	26.476301	0.000588	20.855818
1649.489334	-2.979300	3.362900	-10.017000	26.478659	0.000588	20.852499
1650.489474	-2.998100	3.360500	-10.074000	26.495016	0.000588	20.850922
1651.490361	-2.980600	3.360700	-10.016000	26.502717	0.000587	20.844439
1652.492212	-3.036700	3.359700	-10.201000	26.533207	0.000587	20.851853
1653.490576	-2.990500	3.360700	-10.048000	26.531321	0.000586	20.835258
1654.491362	-2.992500	3.360700	-10.056000	26.511753	0.000585	20.838348
1655.489815	-2.996100	3.358900	-10.063000	26.497658	0.000586	20.852155
1656.490303	-2.988100	3.360100	-10.040000	26.472282	0.000584	20.856994
1657.490736	-2.992800	3.359900	-10.055000	26.485019	0.000585	20.832814
1658.495774	-3.027900	3.357100	-10.164000	26.464612	0.000584	20.847389
1659.489963	-3.011900	3.359500	-10.117000	26.430427	0.000583	20.850487
1660.491921	-3.031000	3.356800	-10.173000	26.439749	0.000583	20.839943
1661.493192	-3.030200	3.357500	-10.173000	26.433323	0.000582	20.833010
1662.492465	-2.978200	3.357100	-9.996200	26.395827	0.000583	20.843213
1663.491452	-2.979200	3.357700	-10.001000	26.430737	0.000581	20.827092
1664.492901	-2.986100	3.358300	-10.026000	26.436031	0.000580	20.842844
1665.492332	-2.984200	3.356900	-10.016000	26.412045	0.000581	20.816366
1666.490498	-2.994500	3.356700	-10.050000	26.406856	0.000580	20.818737
1667.493658	-3.001600	3.355300	-10.070000	26.368122	0.000580	20.840972
1668.495451	-2.987500	3.356500	-10.027000	26.357540	0.000578	20.833182
1669.493403	-2.994000	3.356500	-10.049000	26.350886	0.000578	20.818435
1670.498238	-2.970500	3.356100	-9.968300	26.319325	0.000578	20.833656
1671.492816	-2.990900	3.355600	-10.034000	26.297524	0.000577	20.816489
1672.491792	-3.002300	3.353700	-10.068000	26.284166	0.000579	20.832462
1673.494701	-2.979800	3.355300	-9.996100	26.284858	0.000575	20.827468
1674.497946	-3.020100	3.352400	-10.123000	26.338920	0.000575	20.812573
1675.498760	-3.018600	3.351900	-10.117000	26.337725	0.000578	20.845510
1676.493837	-2.994000	3.353200	-10.038000	26.371718	0.000577	20.815189
1677.496746	-2.989500	3.352100	-10.020000	26.385749	0.000575	20.838773
1678.500535	-3.009100	3.351600	-10.084000	26.390043	0.000575	20.841193
1679.496055	-2.994900	3.351400	-10.036000	26.412395	0.000573	20.834735
1680.498278	-3.005700	3.350600	-10.069000	26.403749	0.000575	20.838847
1681.496078	-3.000800	3.351700	-10.057000	26.394761	0.000575	20.821754
1682.512272	-2.991100	3.350500	-10.021000	26.355205	0.000573	20.811396
1683.498175	-2.992000	3.349900	-10.021000	26.367765	0.000573	20.826863
1684.498079	-3.007600	3.349700	-10.072000	26.338025	0.000570	20.818786
1685.495478	-2.987700	3.350800	-10.010000	26.321212	0.000573	20.819432
1686.495061	-3.010400	3.347900	-10.076000	26.348388	0.000570	20.805018
1687.499019	-2.981500	3.350800	-9.990100	26.387685	0.000569	20.834081
1688.499925	-2.997000	3.348400	-10.034000	26.422546	0.000569	20.811747
1689.496322	-3.019700	3.348000	-10.108000	26.441458	0.000570	20.818427
1690.498971	-3.004600	3.347300	-10.055000	26.459692	0.000569	20.818263
1691.502296	-2.999800	3.347900	-10.042000	26.465199	0.000567	20.811470
1692.499159	-2.984200	3.349100	-9.992900	26.448957	0.000568	20.813162
1693.507807	-2.984900	3.347700	-9.991700	26.420537	0.000567	20.804512
1694.501886	-2.983600	3.346500	-9.983500	26.392598	0.000565	20.813890
1695.509068	-2.987300	3.347500	-9.999700	26.331860	0.000565	20.805952
1696.504801	-3.008300	3.345500	-10.063000	26.307253	0.000564	20.812042
1697.503503	-3.010500	3.345400	-10.069000	26.302902	0.000563	20.796290
1698.503243	-3.008700	3.343500	-10.058000	26.326614	0.000564	20.786929
1699.504671	-3.018100	3.342800	-10.088000	26.369425	0.000563	20.815256
1700.505149	-3.000800	3.344800	-10.036000	26.410168	0.000562	20.810212
1701.505285	-3.013000	3.344500	-10.076000	26.394876	0.000562	20.808593
1702.505125	-3.006200	3.343700	-10.050000	26.442247	0.000562	20.819221
1703.504617	-2.988800	3.343900	-9.992400	26.425037	0.000561	20.833216
1704.505435	-3.010800	3.342100	-10.059000	26.421043	0.000562	20.816400
1705.509509	-3.011800	3.343600	-10.069000	26.409095	0.000559	20.809133
1706.507691	-3.013700	3.341600	-10.070000	26.412023	0.000560	20.801645
1707.505410	-3.013000	3.342800	-10.071000	26.440922	0.000560	20.820260
1708.510359	-2.983300	3.341700	-9.968500	26.419889	0.000559	20.818560
1709.509435	-2.983600	3.342600	-9.971900	26.450959	0.000559	20.807588
1710.507082	-2.993500	3.341300	-10.000000	26.448593	0.000559	20.798572
1711.511198	-2.984400	3.341800	-9.971700	26.426518	0.000559	20.805308
1712.511166	-3.017700	3.341100	-10.081000	26.434839	0.000556	20.804662
1713.507963	-3.001900	3.340800	-10.027000	26.428950	0.000555	20.787838
1714.508537	-3.003200	3.339900	-10.029000	26.416262	0.000557	20.799267
1715.510569	-2.988500	3.340300	-9.981600	26.466690	0.000555	20.812968
1716.509140	-2.990500	3.339700	-9.986800	26.501314	0.000554	20.786605
1717.512308	-2.996100	3.338300	-10.001000	26.504795	0.000555	20.820923
1718.516212	-3.009700	3.337500	-10.043000	26.481834	0.000552	20.812069
1719.512345	-3.036000	3.336800	-10.129000	26.500028	0.000553	20.818029
1720.514994	-3.001400	3.339000	-10.020000	26.492830	0.000553	20.813165
1721.514432	-2.986800	3.337300	-9.966400	26.522419	0.000552	20.798336
1722.512696	-2.998400	3.336600	-10.004000	26.543555	0.000550	20.816737
1723.512573	-3.000000	3.337900	-10.013000	26.542979	0.000552	20.811416
1724.512517	-2.983800	3.338600	-9.959200	26.503233	0.000550	20.825517
1725.514015	-3.018300	3.336200	-10.067000	26.517230	0.000550	20.799284
1726.512710	-3.026300	3.334600	-10.089000	26.484356	0.000551	20.803699
1727.512975	-3.017900	3.335200	-10.065000	26.521305	0.000549	20.813811
1728.513843	-3.002600	3.334100	-10.010000	26.541246	0.000549	20.804932
1729.517799	-2.974600	3.334400	-9.917800	26.586203	0.000549	20.800812
1730.513222	-2.978900	3.334200	-9.932000	26.558398	0.000547	20.781871
1731.520090	-2.993300	3.332900	-9.974900	26.503802	0.000547	20.780571
1732.514171	-2.996400	3.333300	-9.986600	26.496059	0.000547	20.809298
1733.513917	-2.991700	3.333000	-9.970400	26.485999	0.000546	20.799186
1734.517754	-3.020500	3.332500	-10.064000	26.448861	0.000546	20.784617
1735.515027	-2.991400	3.333900	-9.971800	26.401410	0.000544	20.792875
1736.515035	-3.020600	3.332300	-10.064000	26.394162	0.000544	20.805031
1737.514222	-3.023000	3.330900	-10.068000	26.373495	0.000544	20.806544
1738.515532	-2.999900	3.331800	-9.995000	26.341560	0.000544	20.794363
1739.519517	-2.995200	3.330400	-9.974100	26.337370	0.000542	20.805325
1740.516022	-2.981400	3.331600	-9.932100	26.346953	0.000541	20.781765
1741.516942	-2.996300	3.330700	-9.978400	26.397897	0.000543	20.786025
1742.530443	-2.999600	3.330000	-9.988400	26.439761	0.000540	20.780686
1743.518534	-2.997500	3.329500	-9.978700	26.461144	0.000543	20.782738
1744.518553	-3.002000	3.327500	-9.987100	26.469034	0.000542	20.808686
1745.522639	-2.989100	3.329000	-9.949200	26.467601	0.000539	20.792548
1746.520495	-2.992200	3.327900	-9.956800	26.475914	0.000540	20.798532
1747.517395	-2.991100	3.328700	-9.955300	26.420371	0.000538	20.796759
1748.520410	-2.992500	3.327100	-9.954600	26.390625	0.000536	20.802898
1749.520373	-2.980000	3.328200	-9.916800	26.382654	0.000537	20.787774
1750.518862	-2.990200	3.327500	-9.949200	26.353819	0.000538	20.774915
1751.519917	-3.005100	3.326900	-9.996800	26.376423	0.000534	20.794314
1752.521933	-3.040600	3.323900	-10.106000	26.378660	0.000536	20.788976
1753.518528	-3.003900	3.324600	-9.985500	26.419549	0.000536	20.807787
1754.518114	-2.997500	3.326100	-9.969300	26.415230	0.000536	20.796808
1755.518842	-3.021700	3.323400	-10.041000	26.466682	0.000534	20.775028
1756.518909	-2.987800	3.326100	-9.937000	26.448155	0.000533	20.785330
1757.522850	-2.966100	3.326500	-9.864900	26.437916	0.000532	20.783099
1758.523605	-3.008900	3.322500	-9.995000	26.421143	0.000530	20.790897
1759.521470	-2.999200	3.324600	-9.969900	26.389674	0.000534	20.785821
1760.523324	-2.978100	3.323600	-9.897300	26.422778	0.000531	20.798230
1761.526093	-3.003900	3.324300	-9.985200	26.446642	0.000531	20.764368
1762.520399	-2.978000	3.324200	-9.898400	26.459421	0.000531	20.790489
1763.520105	-3.002000	3.321400	-9.969600	26.432685	0.000529	20.763617
1764.524506	-2.999200	3.322100	-9.963100	26.420940	0.000528	20.781684
1765.520625	-2.985100	3.323500	-9.919400	26.421908	0.000527	20.787398
1766.520054	-3.006600	3.320700	-9.983000	26.449944	0.000526	20.782861
1767.524546	-3.018800	3.319900	-10.021000	26.467171	0.000528	20.786900
1768.520018	-3.020300	3.321100	-10.029000	26.497638	0.000525	20.790022
1769.529307	-2.994200	3.319900	-9.939500	26.519955	0.000524	20.787799
1770.522669	-2.970600	3.320200	-9.861500	26.538401	0.000526	20.781210
1771.521297	-2.993300	3.319500	-9.934400	26.546843	0.000525	20.773100
1772.523610	-2.987700	3.319200	-9.916400	26.606649	0.000527	20.793390
1773.522385	-2.975800	3.319100	-9.876000	26.588677	0.000525	20.782436
1774.523676	-2.990900	3.320300	-9.928200	26.557741	0.000524	20.766037
1775.522694	-2.995000	3.318800	-9.938600	26.566678	0.000524	20.767434
1776.523495	-2.982400	3.318200	-9.894600	26.563377	0.000523	20.771702
1777.524638	-2.999200	3.316100	-9.944000	26.606901	0.000522	20.778945
1778.524421	-3.007900	3.315600	-9.972300	26.630802	0.000522	20.776419
1779.530113	-2.999700	3.317400	-9.950400	26.647132	0.000522	20.773395
1780.525936	-2.990900	3.316100	-9.917600	26.594808	0.000521	20.776272
1781.525802	-2.990000	3.317100	-9.917200	26.591182	0.000521	20.768832
1782.524931	-3.004500	3.315700	-9.960200	26.594109	0.000518	20.776991
1783.526388	-3.027200	3.313700	-10.031000	26.580414	0.000520	20.769388
1784.528708	-2.980700	3.315100	-9.880200	26.609909	0.000518	20.749726
1785.528620	-2.965400	3.315300	-9.827700	26.630827	0.000519	20.763641
1786.525901	-2.984600	3.315000	-9.892300	26.627525	0.000517	20.762219
1787.527872	-2.987200	3.314100	-9.898200	26.675519	0.000515	20.768267
1788.524973	-2.985200	3.313800	-9.890800	26.681716	0.000516	20.774498
1789.531741	-2.984100	3.314000	-9.887500	26.694377	0.000515	20.748819
1790.527320	-3.021100	3.311600	-10.004000	26.723950	0.000516	20.773336
1791.526896	-2.983800	3.313600	-9.886300	26.719520	0.000516	20.767933
1792.536265	-2.986600	3.313100	-9.894900	26.695873	0.000514	20.775453
1793.526678	-2.995300	3.312300	-9.920800	26.648537	0.000516	20.763902
1794.527077	-2.995700	3.311800	-9.919600	26.580714	0.000512	20.768267
1795.527801	-3.025600	3.310000	-10.014000	26.558618	0.000512	20.768341
1796.526052	-2.991300	3.311800	-9.905200	26.590050	0.000512	20.785239
1797.529233	-2.971500	3.311600	-9.837800	26.601322	0.000512	20.756740
1798.527129	-2.992300	3.311500	-9.907800	26.603655	0.000511	20.775208
1799.528957	-2.983900	3.310700	-9.875900	26.610836	0.000511	20.762037
1800.526398	-2.995200	3.310400	-9.914200	26.602663	0.000510	20.789858
1801.526711	-3.003800	3.309300	-9.939800	26.632906	0.000510	20.737282
1802.529413	-2.990800	3.307900	-9.892500	26.681267	0.000509	20.744647
1803.527870	-2.985600	3.308100	-9.875400	26.702857	0.000509	20.769199
1804.528471	-2.974100	3.308200	-9.837100	26.735057	0.000508	20.760794
1805.527825	-2.997300	3.308300	-9.915400	26.787894	0.000508	20.753224
1806.529114	-2.987200	3.307400	-9.878500	26.784380	0.000507	20.753959
1807.532084	-2.982000	3.306700	-9.859500	26.817010	0.000505	20.745989
1808.530943	-3.029600	3.306500	-10.017000	26.826571	0.000505	20.759396
1809.529278	-3.005900	3.306900	-9.937900	26.807009	0.000504	20.747787
1810.535289	-3.004500	3.305700	-9.928700	26.758588	0.000503	20.761693
1811.531765	-2.996300	3.304800	-9.899600	26.707532	0.000505	20.762044
1812.530773	-2.992700	3.304100	-9.887000	26.664466	0.000503	20.745301
1813.531017	-3.014300	3.304500	-9.958900	26.599701	0.000501	20.745628
1814.534172	-3.000000	3.303300	-9.907500	26.586316	0.000500	20.766312
1815.531452	-3.015000	3.303200	-9.958200	26.594757	0.000499	20.759150
1816.532588	-3.017300	3.303000	-9.964800	26.610452	0.000498	20.746478
1817.535110	-3.027600	3.301300	-9.994100	26.611542	0.000500	20.744254
1818.532526	-2.996800	3.302600	-9.896900	26.628969	0.000498	20.750868
1819.530774	-3.021800	3.300400	-9.972100	26.663921	0.000499	20.746176
1820.535153	-2.982400	3.303000	-9.850000	26.672533	0.000497	20.731599
1821.533756	-2.986500	3.301800	-9.860000	26.655829	0.000496	20.746102
1822.532473	-2.993600	3.301000	-9.880400	26.689910	0.000496	20.746225
1823.535439	-2.982400	3.301700	-9.844700	26.687901	0.000494	20.739938
1824.536054	-3.016500	3.300100	-9.953400	26.681567	0.000495	20.760597
1825.532916	-2.983900	3.300900	-9.848000	26.675827	0.000496	20.729695
1826.534396	-2.994800	3.298800	-9.878800	26.671865	0.000493	20.719548
1827.542311	-3.001700	3.299000	-9.901300	26.640656	0.000495	20.745547
1828.536865	-2.993900	3.300400	-9.880400	26.662384	0.000494	20.751269
1829.533868	-2.978100	3.299100	-9.823400	26.655487	0.000492	20.737223
1830.534262	-3.009100	3.298600	-9.924700	26.657635	0.000492	20.739382
1831.533962	-2.989900	3.297900	-9.858700	26.629839	0.000493	20.744630
1832.534044	-3.008500	3.297700	-9.919500	26.587210	0.000491	20.754883
1833.533731	-3.015400	3.298500	-9.943600	26.557428	0.000487	20.725417
1834.534287	-2.996600	3.297700	-9.879700	26.594009	0.000488	20.735164
1835.536242	-2.992600	3.297500	-9.867100	26.637630	0.000489	20.722589
1836.539009	-3.000900	3.296900	-9.892500	26.682811	0.000487	20.716801
1837.536023	-3.013300	3.296600	-9.931400	26.704409	0.000490	20.746102
1838.537144	-2.985600	3.296200	-9.840400	26.705775	0.000486	20.722344
1839.536860	-2.990500	3.294900	-9.852600	26.674297	0.000488	20.749969
1840.537850	-3.028700	3.293000	-9.972700	26.692349	0.000486	20.724019
1841.537229	-3.014500	3.292700	-9.924900	26.700244	0.000485	20.726267
1842.536789	-3.050600	3.291700	-10.040000	26.745366	0.000484	20.707145
1843.537025	-2.981000	3.294600	-9.820600	26.731917	0.000484	20.735351
1844.537853	-3.014100	3.291500	-9.919600	26.750156	0.000483	20.723815
1845.537807	-2.987500	3.293100	-9.836800	26.754481	0.000482	20.735751
1846.540127	-3.019400	3.292200	-9.939300	26.765978	0.000484	20.731189
1847.537108	-2.985700	3.292000	-9.828000	26.759595	0.000481	20.731410
1848.538538	-2.983100	3.291800	-9.818800	26.757042	0.000481	20.704185
1849.540445	-3.002300	3.291200	-9.880200	26.799860	0.000482	20.729692
1850.537659	-3.001500	3.291800	-9.878900	26.829195	0.000480	20.733110
1851.538683	-2.954500	3.291500	-9.723200	26.883799	0.000480	20.732063
1852.538362	-2.983800	3.289300	-9.812800	26.877571	0.000480	20.715843
1853.539316	-2.978400	3.291000	-9.800200	26.841512	0.000479	20.718941
1854.542596	-3.006800	3.288600	-9.887500	26.815226	0.000479	20.719538
1855.540672	-2.995400	3.289900	-9.852700	26.759439	0.000478	20.726511
1856.544320	-3.004200	3.289700	-9.881900	26.711424	0.000476	20.743198
1857.540849	-3.006400	3.287900	-9.883600	26.682142	0.000477	20.727983
1858.545902	-3.009500	3.287900	-9.893800	26.671961	0.000476	20.728653
1859.539435	-2.997800	3.287500	-9.854200	26.682955	0.000475	20.731646
1860.540032	-2.991900	3.288100	-9.836800	26.711334	0.000475	20.722243
1861.539716	-3.024300	3.285800	-9.936300	26.737689	0.000473	20.714600
1862.542033	-2.986800	3.288200	-9.819800	26.756812	0.000474	20.716757
1863.540356	-3.005300	3.285100	-9.870300	26.813941	0.000471	20.728204
1864.540946	-2.991200	3.286000	-9.827800	26.808136	0.000472	20.723789
1865.543468	-3.002100	3.285100	-9.861200	26.793174	0.000473	20.711590
1866.543661	-2.990000	3.285400	-9.821700	26.754967	0.000471	20.709212
1867.543272	-2.988600	3.285400	-9.817800	26.729280	0.000470	20.726535
1868.545200	-2.993800	3.285000	-9.833800	26.707585	0.000468	20.710413
1869.544046	-3.015400	3.284000	-9.901300	26.772742	0.000468	20.706219
1870.544693	-3.024500	3.283900	-9.931700	26.731524	0.000469	20.704133
1871.544820	-2.994400	3.284200	-9.833600	26.712211	0.000468	20.710796
1872.546053	-3.004300	3.283600	-9.864000	26.664877	0.000465	20.733859
1873.545636	-2.993100	3.284100	-9.828600	26.667301	0.000466	20.721597
1874.545842	-3.014200	3.281900	-9.890600	26.671497	0.000466	20.728661
1875.546258	-2.996200	3.282100	-9.832000	26.600332	0.000466	20.713069
1876.544992	-2.988900	3.283100	-9.811500	26.636008	0.000463	20.713371
1877.545741	-2.986300	3.283800	-9.805900	26.661998	0.000464	20.713895
1878.547112	-3.017200	3.281000	-9.898100	26.712788	0.000463	20.709954
1879.547178	-2.997000	3.281100	-9.832500	26.774748	0.000462	20.713927
1880.546284	-3.006900	3.280400	-9.862300	26.844738	0.000463	20.719339
1881.548743	-2.978500	3.279200	-9.765700	26.876780	0.000462	20.691812
1882.549382	-2.989300	3.278700	-9.798700	26.908779	0.000461	20.726835
1883.548739	-2.996900	3.279400	-9.827600	26.913023	0.000462	20.709765
1884.548752	-3.010200	3.276200	-9.860100	26.940973	0.000460	20.727914
1885.554762	-3.019600	3.277600	-9.895200	26.934518	0.000459	20.718104
1886.549376	-3.003700	3.277600	-9.844000	26.934469	0.000460	20.719003
1887.550231	-3.013500	3.275800	-9.870600	26.960508	0.000458	20.720531
1888.554597	-3.007400	3.275400	-9.849500	26.962150	0.000457	20.721708
1889.551994	-2.989200	3.277300	-9.795000	26.954874	0.000457	20.709175
1890.553837	-2.994900	3.275000	-9.806900	26.892493	0.000455	20.703345
1891.552824	-2.999400	3.275300	-9.823000	26.903932	0.000455	20.714848
1892.554640	-2.992400	3.276700	-9.803400	26.827197	0.000454	20.713082
1893.553131	-2.993600	3.276000	-9.806100	26.800261	0.000454	20.719190
1894.554251	-2.990900	3.276900	-9.800300	26.770020	0.000453	20.724347
1895.556506	-2.987100	3.274500	-9.779700	26.719777	0.000453	20.709868
1896.555172	-2.984800	3.273800	-9.770800	26.682934	0.000453	20.709812
1897.553308	-2.989400	3.275400	-9.789400	26.702075	0.000453	20.714357
1898.556089	-2.996800	3.274500	-9.811600	26.686543	0.000451	20.714389
1899.556279	-2.980800	3.274900	-9.760600	26.627807	0.000450	20.700859
1900.555727	-2.996400	3.273200	-9.807600	26.626221	0.000449	20.724396
1901.557802	-2.978600	3.272700	-9.746700	26.613706	0.000449	20.728885
1902.555461	-3.015300	3.271600	-9.864000	26.636524	0.000449	20.716735
1903.555330	-3.017100	3.270300	-9.865000	26.702554	0.000447	20.716735
1904.555329	-3.007600	3.270600	-9.834400	26.725591	0.000448	20.721403
1905.554941	-3.012900	3.269400	-9.849600	26.790348	0.000448	20.711593
1906.554865	-2.994000	3.270700	-9.791200	26.783054	0.000447	20.732710
1907.555556	-2.980300	3.270700	-9.746200	26.774866	0.000446	20.716416
1908.557593	-2.998400	3.270800	-9.805800	26.800398	0.000445	20.712215
1909.556146	-2.987600	3.270300	-9.769500	26.819659	0.000444	20.714986
1910.555525	-3.007300	3.268700	-9.828600	26.859418	0.000442	20.717030
1911.554108	-2.990600	3.267700	-9.771100	26.865946	0.000444	20.716482
1912.556650	-3.016600	3.267000	-9.853800	26.867735	0.000442	20.722548
1913.555658	-3.016700	3.268000	-9.857500	26.849376	0.000443	20.728745
1914.555836	-2.989100	3.267100	-9.763900	26.855978	0.000440	20.701716
1915.555845	-2.975200	3.267300	-9.719600	26.833440	0.000440	20.735956
1916.556534	-3.020900	3.266600	-9.867100	26.820537	0.000441	20.706384
1917.556697	-2.998200	3.267900	-9.796800	26.813365	0.000442	20.704389
1918.557010	-3.002000	3.266500	-9.804900	26.846871	0.000441	20.699198
1919.556779	-3.002000	3.265600	-9.801100	26.856083	0.000438	20.696132
1920.558056	-3.024000	3.264300	-9.870000	26.901572	0.000439	20.731917
1921.558603	-3.015300	3.264300	-9.841900	26.933497	0.000438	20.718025
1922.559168	-2.977500	3.265000	-9.720700	26.983649	0.000437	20.731000
1923.559323	-3.001800	3.263400	-9.795200	27.027003	0.000436	20.716750
1924.559855	-3.009600	3.263400	-9.820400	27.043334	0.000436	20.698559
1925.560176	-3.017100	3.263000	-9.843400	27.081100	0.000434	20.708092
1926.559812	-3.007000	3.261900	-9.807100	27.078125	0.000436	20.732602
1927.561058	-3.025000	3.263000	-9.869800	27.089213	0.000433	20.720519
1928.563047	-2.997700	3.262800	-9.779500	27.026465	0.000431	20.705304
1929.560278	-2.981400	3.263300	-9.727900	27.012572	0.000433	20.734482
1930.562465	-2.997400	3.261500	-9.775200	27.060136	0.000431	20.730632
1931.566362	-3.012100	3.261900	-9.823300	27.061875	0.000432	20.744710
1932.562735	-3.011000	3.260700	-9.817100	27.054803	0.000429	20.720052
1933.564154	-2.995400	3.260600	-9.764900	27.057486	0.000430	20.705205
1934.568324	-2.984000	3.261000	-9.729600	27.105819	0.000431	20.722996
1935.565163	-2.982700	3.259800	-9.721500	27.128050	0.000429	20.742037
1936.564260	-2.986600	3.259500	-9.732900	27.182768	0.000427	20.706979
1937.567649	-2.999200	3.258100	-9.770400	27.177111	0.000427	20.724998
1938.565253	-2.997700	3.260900	-9.773900	27.210355	0.000426	20.716234
1939.564509	-3.013500	3.257400	-9.815000	27.230349	0.000424	20.722595
1940.565050	-3.007500	3.257600	-9.795700	27.223488	0.000425	20.732290
1941.565992	-3.009100	3.258100	-9.802600	27.204356	0.000424	20.718261
1942.566373	-3.022500	3.256800	-9.841900	27.202836	0.000422	20.728588
1943.565269	-3.004700	3.256000	-9.782100	27.181745	0.000421	20.735823
1944.565100	-3.005500	3.256600	-9.786000	27.189889	0.000421	20.735479
1945.566353	-3.014000	3.256300	-9.813100	27.162522	0.000420	20.744464
1946.567170	-2.980200	3.256300	-9.701800	27.189669	0.000420	20.744268
1947.568106	-2.993600	3.254800	-9.741000	27.216393	0.000420	20.710453
1948.566583	-3.008000	3.253600	-9.785500	27.235403	0.000419	20.720092
1949.565938	-2.988000	3.255400	-9.726300	27.265271	0.000419	20.730222
1950.567941	-2.979600	3.254500	-9.695500	27.293253	0.000417	20.720436
1951.566854	-3.000700	3.253500	-9.761800	27.319252	0.000418	20.738054
1952.565580	-3.007300	3.252400	-9.779600	27.339764	0.000418	20.718384
1953.568353	-2.982900	3.253600	-9.704800	27.353164	0.000416	20.733762
1954.568164	-2.994200	3.252000	-9.736200	27.368621	0.000415	20.725603
1955.565738	-2.995700	3.251500	-9.739600	27.317642	0.000415	20.719839
1956.569493	-3.004900	3.250900	-9.767600	27.285589	0.000413	20.728374
1957.566286	-2.987100	3.250600	-9.708700	27.232452	0.000414	20.727082
1958.565834	-2.996900	3.250500	-9.740000	27.202673	0.000412	20.748339
1959.570825	-3.005000	3.250200	-9.765600	27.196894	0.000413	20.746793
1960.566750	-2.998200	3.250800	-9.745500	27.174112	0.000411	20.742845
1961.567407	-2.978700	3.250700	-9.682300	27.165780	0.000410	20.740155
1962.570389	-2.995600	3.250600	-9.735500	27.145110	0.000410	20.763463
1963.567815	-3.013200	3.249500	-9.789400	27.135608	0.000408	20.748690
1964.565923	-3.022600	3.245900	-9.810700	27.144769	0.000408	20.719495
1965.566001	-2.996200	3.248600	-9.732500	27.123099	0.000407	20.739428
1966.569666	-3.023700	3.247300	-9.818000	27.125610	0.000406	20.703545
1967.567781	-3.012100	3.246400	-9.776800	27.116702	0.000408	20.718768
1968.566589	-3.015800	3.247000	-9.790200	27.160294	0.000404	20.728947
1969.568186	-3.003300	3.245900	-9.747600	27.205128	0.000406	20.754601
1970.567776	-3.003300	3.246500	-9.748400	27.236240	0.000404	20.745592
1971.569448	-2.989100	3.244600	-9.697700	27.276430	0.000404	20.727222
1972.570260	-2.995800	3.245200	-9.721200	27.275878	0.000404	20.754169
1973.569195	-3.020300	3.243600	-9.795900	27.247432	0.000400	20.740253
1974.570085	-3.011500	3.244100	-9.768500	27.238468	0.000402	20.740720
1975.569553	-3.007100	3.243500	-9.752400	27.221993	0.000401	20.735054
1976.574741	-3.014500	3.242900	-9.775000	27.224074	0.000400	20.733828
1977.571886	-3.011200	3.242800	-9.764000	27.204893	0.000399	20.722121
1978.573662	-3.007500	3.241700	-9.748500	27.232186	0.000396	20.729659
1979.572318	-2.981400	3.243600	-9.669400	27.239997	0.000399	20.734197
1980.572526	-2.991500	3.241900	-9.696700	27.279918	0.000398	20.732153
1981.573746	-2.984600	3.242100	-9.674900	27.240412	0.000397	20.742201
1982.574308	-3.023500	3.239500	-9.793300	27.238258	0.000398	20.731973
1983.573820	-3.014700	3.240300	-9.767300	27.197490	0.000396	20.752134
1984.573272	-3.007900	3.240700	-9.746300	27.213273	0.000394	20.759001
1985.577732	-3.013700	3.240200	-9.763100	27.240248	0.000393	20.747727
1986.574401	-2.991000	3.240400	-9.690700	27.298440	0.000395	20.752682
1987.575329	-3.002000	3.238600	-9.721200	27.265427	0.000393	20.755036
1988.578435	-3.019000	3.238200	-9.774600	27.208437	0.000392	20.742757
1989.575181	-3.020600	3.238200	-9.779600	27.222237	0.000392	20.763750
1990.574952	-3.002800	3.238600	-9.723900	27.257357	0.000391	20.738857
1991.575047	-2.989400	3.238400	-9.680200	27.278154	0.000391	20.747923
1992.576240	-2.990100	3.238200	-9.680400	27.303601	0.000388	20.760718
1993.574890	-3.005000	3.238000	-9.729000	27.326925	0.000388	20.756205
1994.575886	-2.998100	3.236600	-9.702500	27.356303	0.000388	20.739764
1995.575677	-3.009100	3.234800	-9.733000	27.354271	0.000387	20.774705
1996.576650	-3.000800	3.236000	-9.709100	27.378878	0.000386	20.757734
1997.576742	-3.033000	3.233300	-9.805200	27.422662	0.000388	20.768590
1998.577965	-3.008300	3.234100	-9.728200	27.423922	0.000384	20.765116
1999.577528	-2.994400	3.234100	-9.683100	27.435112	0.000385	20.734646
2000.577481	-3.000300	3.233700	-9.701300	27.424125	0.000385	20.762949
2001.578310	-3.013300	3.233800	-9.743100	27.408401	0.000381	20.756613
2002.579228	-3.003000	3.234000	-9.710500	27.380868	0.000382	20.759262
2003.579153	-2.996000	3.232100	-9.682600	27.285281	0.000381	20.762679
2004.580294	-3.023500	3.232000	-9.770200	27.255682	0.000379	20.745707
2005.579125	-3.013300	3.230600	-9.733900	27.220879	0.000379	20.762859
2006.578577	-3.009700	3.231800	-9.725700	27.236533	0.000377	20.764854
2007.581158	-3.016400	3.229800	-9.740900	27.236509	0.000377	20.730214
2008.579361	-3.004300	3.230200	-9.703900	27.228764	0.000376	20.768892
2009.581030	-2.996200	3.230100	-9.677600	27.249837	0.000376	20.765433
2010.580164	-2.992500	3.229200	-9.661700	27.283753	0.000376	20.764935
2011.580666	-2.997500	3.229300	-9.678600	27.303606	0.000377	20.754560
2012.581028	-3.008400	3.228300	-9.711000	27.331588	0.000373	20.762792
2013.582561	-3.006400	3.228800	-9.705500	27.344883	0.000374	20.749614
2014.581524	-3.016300	3.227400	-9.733700	27.392373	0.000374	20.761827
2015.580988	-2.995500	3.228300	-9.669700	27.417752	0.000373	20.768866
2016.582158	-3.025000	3.226600	-9.759700	27.426658	0.000372	20.755540
2017.583277	-3.007700	3.227800	-9.706000	27.432289	0.000370	20.746506
2018.580552	-3.026700	3.225100	-9.760500	27.473243	0.000370	20.772062
2019.580822	-3.017000	3.224700	-9.728000	27.471878	0.000370	20.764525
2020.583069	-2.982200	3.226000	-9.620400	27.507305	0.000369	20.775986
2021.583572	-3.025800	3.223700	-9.753600	27.576979	0.000367	20.778283
2022.583222	-3.017200	3.223300	-9.724300	27.567156	0.000368	20.775037
2023.585123	-2.983200	3.225200	-9.619800	27.556397	0.000368	20.766109
2024.583470	-3.002900	3.223400	-9.678300	27.526505	0.000364	20.769699
2025.583337	-2.998900	3.222200	-9.662300	27.489900	0.000365	20.752784
2026.584675	-2.984600	3.222900	-9.618600	27.468870	0.000365	20.776197
2027.587036	-2.986100	3.222400	-9.621100	27.486129	0.000365	20.769854
2028.583206	-2.961900	3.222400	-9.542500	27.495978	0.000362	20.773598
2029.584454	-2.999100	3.221700	-9.661300	27.451034	0.000361	20.745924
2030.582273	-2.978400	3.222500	-9.596500	27.431491	0.000360	20.766092
2031.583337	-3.010700	3.221600	-9.697100	27.428866	0.000360	20.757761
2032.585964	-2.975200	3.220900	-9.582200	27.450895	0.000358	20.770441
2033.582999	-2.982500	3.219800	-9.602300	27.428402	0.000360	20.790486
2034.583223	-2.986100	3.220800	-9.617100	27.368512	0.000359	20.772910
2035.584017	-2.992000	3.219000	-9.630600	27.331031	0.000360	20.792105
2036.582562	-2.988500	3.218700	-9.618200	27.349739	0.000357	20.791009
2037.582397	-2.974100	3.218600	-9.571300	27.382139	0.000357	20.792309
2038.585379	-3.000800	3.218400	-9.656700	27.427760	0.000356	20.788418
2039.583090	-2.994100	3.217500	-9.632400	27.455274	0.000355	20.784330
2040.583413	-3.002500	3.218000	-9.661000	27.509025	0.000355	20.791941
2041.582777	-2.972800	3.216500	-9.559000	27.546824	0.000352	20.798677
2042.586629	-2.999300	3.216700	-9.646900	27.535570	0.000353	20.775974
2043.582691	-3.001400	3.215600	-9.650600	27.560400	0.000352	20.783413
2044.584730	-2.999100	3.215300	-9.642600	27.561992	0.000351	20.788809
2045.588356	-3.029600	3.214100	-9.735200	27.572279	0.000348	20.773080
2046.583383	-3.014600	3.214700	-9.689900	27.592721	0.000350	20.805976
2047.584462	-2.993600	3.214600	-9.622500	27.627917	0.000349	20.783069
2048.587065	-2.999300	3.212200	-9.633400	27.648601	0.000349	20.806728
2049.584665	-2.970100	3.212300	-9.539900	27.639153	0.000348	20.776358
2050.586008	-2.994400	3.212900	-9.619700	27.674647	0.000345	20.783625
2051.586789	-2.992200	3.212600	-9.611500	27.667279	0.000347	20.779055
2052.590100	-2.999400	3.212400	-9.634400	27.656985	0.000345	20.780077
2053.587596	-3.022500	3.211900	-9.706900	27.623951	0.000343	20.780028
2054.588042	-3.004100	3.210300	-9.641800	27.642695	0.000346	20.806475
2055.588117	-2.997100	3.210500	-9.620600	27.635781	0.000344	20.775336
2056.587707	-3.025400	3.209200	-9.708600	27.657156	0.000343	20.784991
2057.589227	-3.006700	3.211200	-9.654100	27.678361	0.000342	20.805379
2058.588175	-3.014400	3.209100	-9.672400	27.666995	0.000339	20.802004
2059.588178	-2.983400	3.209000	-9.572800	27.689994	0.000341	20.791482
2060.589237	-3.000500	3.208100	-9.624600	27.688353	0.000341	20.790779
2061.588597	-3.005700	3.207700	-9.640600	27.695868	0.000337	20.794547
2062.590099	-3.012300	3.206000	-9.656500	27.679051	0.000338	20.787108
2063.594433	-2.996800	3.206000	-9.606100	27.625804	0.000337	20.787583
2064.592707	-2.985000	3.206200	-9.567600	27.601747	0.000336	20.782342
2065.593283	-2.987000	3.206200	-9.575600	27.551698	0.000335	20.805478
2066.590066	-3.014000	3.205800	-9.661900	27.520765	0.000334	20.769139
2067.590600	-3.003400	3.203800	-9.622000	27.486614	0.000333	20.790256
2068.594410	-2.982500	3.205500	-9.559100	27.452851	0.000334	20.804178
2069.592912	-2.988500	3.203300	-9.571400	27.503182	0.000333	20.796967
2070.592644	-2.965400	3.204500	-9.501800	27.529671	0.000333	20.807497
2071.594051	-3.010200	3.202200	-9.638600	27.538056	0.000331	20.822097
2072.593330	-3.010500	3.202600	-9.640500	27.585677	0.000329	20.814061
2073.592845	-2.992600	3.204300	-9.587300	27.561692	0.000332	20.814110
2074.591770	-2.992200	3.200900	-9.576500	27.584563	0.000330	20.802510
2075.592872	-2.995300	3.202900	-9.592700	27.580988	0.000329	20.811241
2076.592527	-2.990400	3.200800	-9.571000	27.578933	0.000328	20.806328
2077.593180	-3.026200	3.200900	-9.685400	27.587439	0.000329	20.801137
2078.594235	-3.016000	3.198600	-9.645600	27.593370	0.000328	20.812794
2079.594997	-2.972800	3.199200	-9.509500	27.578039	0.000328	20.797368
2080.594756	-3.016200	3.199000	-9.648300	27.576032	0.000327	20.813840
2081.597530	-2.997500	3.198400	-9.586400	27.525136	0.000323	20.803409
2082.596702	-3.006500	3.198400	-9.614200	27.538835	0.000324	20.818614
2083.595290	-2.998800	3.197600	-9.587700	27.550162	0.000325	20.796346
2084.599021	-2.989800	3.198200	-9.560800	27.558093	0.000324	20.817127
2085.596564	-3.000200	3.196900	-9.589900	27.620060	0.000323	20.811674
2086.596941	-2.992100	3.196800	-9.562600	27.675436	0.000322	20.826618
2087.597734	-3.020200	3.196000	-9.651100	27.678336	0.000321	20.818631
2088.599272	-2.998900	3.195200	-9.581200	27.670968	0.000320	20.835398
2089.597598	-2.993800	3.196000	-9.567100	27.660828	0.000319	20.820454
2090.597928	-3.010800	3.193300	-9.612900	27.678978	0.000318	20.806475
2091.597387	-3.018600	3.193000	-9.637100	27.687801	0.000320	20.813931
2092.599179	-3.034500	3.194600	-9.692400	27.705170	0.000317	20.837572
2093.599957	-2.998900	3.197200	-9.587100	27.750947	0.000316	20.823421
2094.600211	-2.984000	3.193300	-9.528000	27.762621	0.000314	20.838962
2095.599715	-2.963200	3.192600	-9.459500	27.737520	0.000316	20.834565
2096.602708	-2.979400	3.193900	-9.515100	27.733580	0.000313	20.817324
2097.599894	-3.003700	3.191700	-9.586600	27.785310	0.000313	20.847570
2098.600802	-3.013200	3.192100	-9.617900	27.776993	0.000313	20.830192
2099.601064	-2.996900	3.189700	-9.558600	27.759040	0.000311	20.828246
2100.605000	-2.996000	3.190500	-9.557600	27.730916	0.000312	20.814169
2101.601322	-2.985700	3.191500	-9.528300	27.750412	0.000311	20.853228
2102.601034	-2.996500	3.190200	-9.558700	27.744751	0.000309	20.850850
2103.604638	-2.991800	3.189100	-9.539200	27.691068	0.000309	20.828597
2104.606753	-3.010200	3.188400	-9.596600	27.622540	0.000306	20.827445
2105.604078	-2.994900	3.186900	-9.543400	27.564456	0.000308	20.833486
2106.613383	-2.986800	3.188400	-9.522300	27.540373	0.000308	20.852877
2107.606902	-3.008300	3.188200	-9.589300	27.551805	0.000306	20.854896
2108.605197	-2.997300	3.187400	-9.552000	27.577919	0.000305	20.833282
2109.606826	-3.028100	3.185000	-9.643800	27.596971	0.000305	20.839650
2110.613566	-2.995100	3.185900	-9.540400	27.588863	0.000303	20.820586
2111.604345	-3.011000	3.187100	-9.595200	27.635092	0.000304	20.853825
2112.604733	-2.998900	3.184800	-9.550000	27.656240	0.000303	20.859458
2113.605349	-2.993300	3.185800	-9.534500	27.666631	0.000303	20.832457
2114.604537	-2.993600	3.183700	-9.529700	27.676639	0.000302	20.832570
2115.604770	-2.997000	3.183100	-9.538500	27.713539	0.000300	20.821338
2116.605077	-2.994200	3.184000	-9.532300	27.758788	0.000301	20.847907
2117.605630	-3.006300	3.183500	-9.568300	27.786091	0.000301	20.841718
2118.605474	-3.010900	3.181900	-9.579800	27.818852	0.000298	20.852402
2119.608793	-2.994200	3.180500	-9.521100	27.845608	0.000298	20.850408
2120.608675	-2.989800	3.180000	-9.506800	27.872365	0.000297	20.835611
2121.607329	-2.989700	3.181100	-9.509800	27.922448	0.000296	20.842871
2122.607833	-2.991400	3.180500	-9.512900	27.927288	0.000296	20.849639
2123.607570	-2.991400	3.181300	-9.515600	27.953418	0.000296	20.851756
2124.607577	-3.015700	3.181500	-9.593700	27.989634	0.000295	20.848381
2125.609532	-2.966100	3.179400	-9.429100	27.985572	0.000296	20.849983
2126.611741	-3.009400	3.178000	-9.562500	27.940300	0.000292	20.853727
2127.608249	-3.003900	3.177100	-9.543300	27.905691	0.000296	20.864411
2128.609440	-2.992900	3.177600	-9.509100	27.868498	0.000293	20.846892
2129.612418	-3.004600	3.176000	-9.540000	27.887196	0.000293	20.860021
2130.608890	-2.994000	3.176000	-9.508200	27.876751	0.000290	20.858991
2131.610025	-2.994700	3.174400	-9.505700	27.858548	0.000290	20.859637
2132.613609	-3.011800	3.175700	-9.563200	27.839086	0.000291	20.849059
2133.609475	-3.020700	3.174000	-9.587100	27.851684	0.000286	20.863634
2134.611493	-3.008900	3.173600	-9.548700	27.832766	0.000287	20.859293
2135.616662	-2.984200	3.174200	-9.470300	27.800055	0.000285	20.857193
2136.613211	-2.984100	3.172000	-9.464400	27.738870	0.000286	20.857733
2137.612842	-2.986700	3.171300	-9.471500	27.676202	0.000284	20.865319
2138.613867	-2.977300	3.173800	-9.448500	27.640683	0.000286	20.881734
2139.613788	-2.997800	3.172500	-9.510300	27.635621	0.000283	20.870004
2140.612478	-2.994100	3.170700	-9.492700	27.669207	0.000282	20.889099
2141.612693	-2.974100	3.170400	-9.427500	27.739910	0.000284	20.868736
2142.614595	-2.980700	3.171400	-9.452500	27.769464	0.000281	20.867184
2143.617362	-2.998000	3.168000	-9.495700	27.811721	0.000282	20.874622
2144.614517	-2.982300	3.168800	-9.449700	27.860191	0.000282	20.859394
2145.615632	-3.000100	3.167100	-9.501100	27.894680	0.000279	20.852854
2146.614398	-2.987200	3.168400	-9.463600	27.900828	0.000280	20.858568
2147.616141	-2.994300	3.167500	-9.482900	27.932838	0.000280	20.866604
2148.617268	-3.008500	3.166700	-9.525700	27.894875	0.000278	20.861111
2149.617200	-2.995700	3.165900	-9.482400	27.917878	0.000279	20.854866
2150.620459	-2.982100	3.165300	-9.438300	27.908676	0.000276	20.854613
2151.620881	-2.996100	3.164400	-9.480100	27.884235	0.000279	20.871264
2152.619677	-2.984700	3.164900	-9.445600	27.890027	0.000275	20.865714
2153.619420	-2.997500	3.162700	-9.478600	27.869671	0.000276	20.850444
2154.622688	-2.996200	3.162300	-9.473900	27.897264	0.000276	20.855929
2155.621404	-2.981200	3.163100	-9.429000	27.931500	0.000275	20.864309
2156.620219	-3.016300	3.160100	-9.530100	27.899969	0.000272	20.847746
2157.622794	-2.977000	3.162400	-9.413800	27.882213	0.000272	20.878238
2158.622302	-3.004900	3.159700	-9.493500	27.872027	0.000270	20.875573
2159.620757	-3.022600	3.158600	-9.546400	27.886055	0.000271	20.858398
2160.624480	-3.031700	3.158300	-9.574000	27.838716	0.000271	20.845368
2161.621533	-2.981500	3.161100	-9.422800	27.847124	0.000271	20.852407
2162.624205	-2.999900	3.158100	-9.472900	27.862565	0.000270	20.869369
2163.628607	-2.976500	3.160200	-9.404600	27.907401	0.000269	20.841477
2164.624674	-2.992900	3.157600	-9.449500	27.936480	0.000267	20.850355
2165.621029	-3.015300	3.156400	-9.516500	27.973922	0.000266	20.853429
2166.625560	-2.980100	3.156700	-9.406600	28.000001	0.000267	20.855971
2167.625527	-2.990000	3.155200	-9.432900	28.021799	0.000268	20.844248
2168.623961	-2.996400	3.154900	-9.451700	28.031317	0.000266	20.841976
2169.624151	-2.986700	3.153900	-9.418800	28.074101	0.000266	20.865601
2170.624984	-3.008300	3.153700	-9.486200	28.111287	0.000263	20.847085
2171.622677	-2.992200	3.152800	-9.433100	28.119594	0.000265	20.855448
2172.624641	-2.989900	3.152800	-9.425800	28.108834	0.000264	20.828022
2173.626203	-3.004400	3.152400	-9.470800	28.121105	0.000263	20.835158
2174.627066	-2.975800	3.152100	-9.378500	28.133968	0.000263	20.831513
2175.624626	-3.029900	3.150600	-9.544000	28.170632	0.000261	20.835232
2176.626677	-3.010500	3.150500	-9.483700	28.184493	0.000263	20.840177
2177.629680	-2.997500	3.151000	-9.442200	28.160075	0.000262	20.842622
2178.626360	-3.014700	3.149100	-9.492100	28.155617	0.000260	20.850461
2179.628692	-2.990600	3.149200	-9.415900	28.102247	0.000260	20.843676
2180.628856	-3.000100	3.147500	-9.442000	28.049786	0.000260	20.841600
2181.626044	-3.037200	3.145300	-9.551400	27.957337	0.000260	20.821563
2182.628040	-3.002000	3.146300	-9.443700	27.929843	0.000258	20.824710
2183.625767	-2.992100	3.145700	-9.410500	27.915832	0.000257	20.797807
2184.626943	-3.004100	3.145500	-9.448900	27.938550	0.000257	20.832525
2185.636514	-2.972300	3.145200	-9.346200	27.960886	0.000255	20.824661
2186.629566	-3.000500	3.144600	-9.434400	27.952616	0.000255	20.808277
2187.627377	-2.995100	3.142900	-9.412000	27.995110	0.000254	20.832557
2188.632157	-3.002100	3.142800	-9.434000	27.992950	0.000255	20.814262
2189.631557	-2.985300	3.143300	-9.382800	27.985762	0.000252	20.823148
2190.629553	-3.021600	3.140900	-9.488600	27.957725	0.000255	20.816738
2191.628773	-3.001900	3.141000	-9.426500	27.942878	0.000252	20.824079
2192.631856	-3.027200	3.140100	-9.505000	27.943551	0.000251	20.808636
2193.631790	-3.020200	3.139800	-9.481700	28.003370	0.000251	20.816215
2194.628023	-3.021800	3.139300	-9.485600	28.015170	0.000252	20.824300
2195.631474	-2.981000	3.140800	-9.362000	28.076388	0.000249	20.829024
2196.630535	-2.994200	3.137800	-9.393700	28.081318	0.000248	20.816444
2197.628565	-3.002100	3.138000	-9.420100	28.064856	0.000247	20.826425
2198.630274	-2.997500	3.137900	-9.404800	28.018580	0.000246	20.815405
2199.628107	-3.016800	3.134400	-9.455100	28.030820	0.000248	20.802121
2200.629661	-3.011000	3.134900	-9.437600	28.049718	0.000245	20.820195
2201.630120	-3.048200	3.132100	-9.546400	28.084525	0.000246	20.834844
2202.628127	-2.994600	3.135700	-9.389100	28.119250	0.000247	20.837085
2203.629631	-3.017700	3.132600	-9.452200	28.164993	0.000244	20.824814
2204.633455	-3.000300	3.133600	-9.401200	28.212237	0.000244	20.816901
2205.634488	-2.998500	3.132200	-9.391100	28.181843	0.000245	20.824708
2206.630745	-3.009400	3.130600	-9.419700	28.181136	0.000242	20.812142
2207.635304	-2.974400	3.131000	-9.311900	28.161201	0.000243	20.810565
2208.635781	-2.988100	3.130200	-9.352500	28.199877	0.000241	20.802087
2209.632548	-2.988000	3.129500	-9.350000	28.198562	0.000242	20.807875
2210.631640	-2.981400	3.130200	-9.330600	28.184928	0.000240	20.801261
2211.632455	-3.002600	3.127200	-9.387900	28.141207	0.000241	20.823153
2212.634292	-2.966300	3.128200	-9.278300	28.118023	0.000240	20.809297
2213.634418	-2.987600	3.127600	-9.343600	28.083468	0.000238	20.811970
2214.635078	-3.009700	3.126100	-9.408200	28.088894	0.000238	20.796095
2215.636423	-2.978300	3.127200	-9.311200	28.130203	0.000239	20.809231
2216.635256	-2.990500	3.126200	-9.347900	28.165926	0.000237	20.800149
2217.635106	-3.004000	3.123400	-9.381100	28.164764	0.000239	20.816523
2218.635302	-3.005400	3.123600	-9.386200	28.119492	0.000237	20.799871
2219.639531	-3.009300	3.121400	-9.392000	28.122099	0.000236	20.793012
2220.637961	-2.988400	3.123400	-9.333300	28.157001	0.000235	20.808234
2221.639634	-3.008900	3.122300	-9.392600	28.165211	0.000234	20.787575
2222.638808	-3.016000	3.120000	-9.408100	28.197293	0.000236	20.791425
2223.635655	-2.988500	3.120800	-9.324900	28.212064	0.000233	20.796338
2224.635530	-2.990300	3.119200	-9.326700	28.248108	0.000233	20.812238
2225.642134	-3.004000	3.118200	-9.365800	28.276884	0.000233	20.794744
2226.636874	-3.003600	3.117400	-9.362200	28.228514	0.000233	20.798675
2227.637974	-2.973600	3.118000	-9.270700	28.231332	0.000232	20.795348
2228.640752	-3.001400	3.115800	-9.350200	28.227320	0.000232	20.792732
2229.637809	-2.983600	3.116400	-9.296500	28.247993	0.000232	20.789838
2230.640066	-2.979800	3.116700	-9.285700	28.259897	0.000230	20.806090
2231.638308	-3.009600	3.113700	-9.369600	28.318982	0.000229	20.781655
2232.640065	-3.007900	3.113200	-9.362900	28.340271	0.000228	20.786969
2233.638802	-3.016600	3.112200	-9.386700	28.370042	0.000228	20.781384
2234.640249	-2.977300	3.113300	-9.268300	28.391703	0.000230	20.801299
2235.643798	-3.007300	3.110600	-9.353800	28.406950	0.000227	20.784409
2236.641035	-3.002100	3.109500	-9.334500	28.419419	0.000226	20.803604
2237.643594	-2.996900	3.109100	-9.316200	28.448288	0.000228	20.799484
2238.644203	-2.991600	3.108700	-9.298300	28.459118	0.000229	20.792845
2239.643618	-2.997400	3.107700	-9.313000	28.436119	0.000226	20.791971
2240.643524	-2.996100	3.107500	-9.309500	28.361671	0.000226	20.805198
2241.642670	-2.994300	3.106800	-9.301500	28.346180	0.000225	20.782488
2242.642382	-2.978900	3.107100	-9.254800	28.367622	0.000224	20.792698
2243.646924	-2.988900	3.105900	-9.281800	28.378899	0.000223	20.777975
2244.642826	-2.993000	3.104700	-9.291200	28.429105	0.000224	20.766415
2245.643610	-2.994200	3.103500	-9.291600	28.423308	0.000226	20.776699
2246.643710	-2.992700	3.103400	-9.286000	28.368361	0.000225	20.792968
2247.646785	-3.031700	3.101800	-9.402300	28.293584	0.000225	20.792118
2248.648599	-2.986800	3.101900	-9.263400	28.274796	0.000223	20.780313
2249.656785	-3.001700	3.099700	-9.303400	28.306363	0.000221	20.774638
2250.647885	-3.002100	3.098900	-9.301500	28.291034	0.000224	20.777223
2251.648497	-3.017900	3.097800	-9.347700	28.203243	0.000222	20.803105
2252.648887	-2.986300	3.097300	-9.248300	28.145020	0.000220	20.793327
2253.649685	-2.997500	3.097000	-9.282600	28.128437	0.000221	20.768573
2254.649091	-2.997000	3.095500	-9.275600	28.058947	0.000222	20.778277
2255.651948	-3.004900	3.095500	-9.301300	28.058378	0.000219	20.790033
2256.650504	-3.020800	3.093100	-9.341900	28.016431	0.000219	20.777206
2257.650087	-3.008400	3.093100	-9.304400	28.012663	0.000219	20.797120
2258.652870	-3.031800	3.091500	-9.372400	27.994145	0.000219	20.776584
2259.653565	-3.023400	3.091100	-9.343900	28.006993	0.000220	20.782404
2260.651261	-2.993400	3.091800	-9.254100	28.023504	0.000219	20.756824
2261.654697	-2.993500	3.089000	-9.244500	28.099169	0.000217	20.769455
2262.656939	-3.001800	3.089000	-9.271800	28.182933	0.000216	20.791192
2263.653042	-2.965300	3.089500	-9.160900	28.183778	0.000217	20.776395
2264.650338	-2.961300	3.088000	-9.142800	28.201504	0.000215	20.765318
2265.654615	-2.956200	3.088200	-9.128300	28.163891	0.000215	20.754004
2266.654131	-3.000500	3.085500	-9.256900	28.213732	0.000215	20.780474
2267.654932	-3.023800	3.082900	-9.319800	28.272081	0.000214	20.791330
2268.655366	-3.000500	3.083700	-9.251700	28.285274	0.000212	20.780906
2269.654976	-3.006100	3.085000	-9.272200	28.293580	0.000212	20.740430
2270.653344	-3.017000	3.083200	-9.300800	28.340518	0.000213	20.779631
2271.656882	-3.020100	3.081100	-9.304400	28.375535	0.000213	20.781700
2272.656799	-2.977600	3.082600	-9.176900	28.315689	0.000213	20.765063
2273.653067	-3.011800	3.080600	-9.276100	28.303453	0.000212	20.764596
2274.659124	-3.012500	3.078300	-9.272100	28.294603	0.000212	20.777971
2275.656068	-2.996900	3.078400	-9.224600	28.308731	0.000212	20.770384
2276.659864	-3.006700	3.077800	-9.252600	28.345762	0.000212	20.784437
2277.657804	-2.980900	3.076200	-9.168400	28.385373	0.000210	20.770269
2278.656672	-2.998300	3.076500	-9.222100	28.395335	0.000210	20.757540
2279.657782	-2.984500	3.075300	-9.176500	28.389660	0.000210	20.748032
2280.656193	-2.986800	3.073900	-9.178600	28.384358	0.000209	20.763083
2281.659405	-3.011500	3.070200	-9.244100	28.363395	0.000211	20.760466
2282.658170	-3.033400	3.070300	-9.311600	28.346646	0.000210	20.766835
2283.665058	-2.998200	3.071200	-9.206700	28.349666	0.000211	20.762289
2284.659065	-2.995600	3.070600	-9.196900	28.369549	0.000209	20.754334
2285.656870	-2.963700	3.070100	-9.096900	28.393540	0.000209	20.745775
2286.657825	-3.018300	3.066400	-9.254400	28.429302	0.000211	20.773252
2287.663195	-2.984500	3.066600	-9.151100	28.437282	0.000210	20.761847
2288.656767	-2.978000	3.065600	-9.127800	28.411506	0.000211	20.766238
2289.659269	-2.990600	3.065300	-9.166100	28.427150	0.000209	20.746428
2290.662875	-2.982200	3.064300	-9.137800	28.421451	0.000208	20.757285
2291.656554	-2.998400	3.064000	-9.185600	28.412065	0.000206	20.760636
2292.659535	-3.008800	3.061200	-9.209100	28.386184	0.000208	20.760653
2293.657874	-2.987300	3.062200	-9.145300	28.407544	0.000208	20.761299
2294.660232	-3.017900	3.060700	-9.235100	28.445092	0.000208	20.757857
2295.658534	-3.015900	3.058000	-9.221700	28.458056	0.000207	20.761430
2296.657971	-2.993300	3.056800	-9.149100	28.491786	0.000207	20.747507
2297.658266	-3.013900	3.056500	-9.211300	28.530890	0.000206	20.760334
2298.659277	-2.967300	3.056500	-9.068400	28.538837	0.000208	20.753639
2299.659962	-2.996600	3.054900	-9.153100	28.564935	0.000206	20.773284
2300.665845	-2.970800	3.055500	-9.076400	28.559146	0.000207	20.756548
2301.664044	-3.002400	3.052700	-9.163600	28.559139	0.000209	20.750851
2302.659861	-2.947600	3.053900	-9.000700	28.554901	0.000204	20.738996
2303.662657	-3.001100	3.052100	-9.158500	28.543602	0.000207	20.740893
2304.660804	-2.973500	3.051700	-9.072500	28.542026	0.000205	20.739780
2305.661094	-3.013200	3.049100	-9.186100	28.488020	0.000205	20.732808
2306.662802	-3.014600	3.046900	-9.183400	28.479820	0.000204	20.738301
2307.662205	-3.008100	3.046700	-9.163700	28.478164	0.000206	20.750384
2308.664789	-2.997100	3.046000	-9.128500	28.491843	0.000203	20.745667
2309.665082	-3.004000	3.043600	-9.141800	28.498361	0.000206	20.747490
2310.662516	-2.995200	3.043600	-9.115700	28.477945	0.000203	20.743051
2311.663156	-2.986700	3.042500	-9.085900	28.479706	0.000203	20.752411
2312.662846	-3.016600	3.040700	-9.172000	28.480899	0.000204	20.756458
2313.662503	-2.999900	3.039400	-9.116800	28.475598	0.000204	20.747326
2314.664608	-3.009900	3.038300	-9.143800	28.457981	0.000201	20.755190
2315.667848	-3.019700	3.037800	-9.171600	28.482141	0.000203	20.745380
2316.664156	-3.012500	3.036300	-9.146100	28.498450	0.000201	20.744260
2317.665477	-2.994900	3.034700	-9.088200	28.555695	0.000205	20.723199
2318.673554	-2.990300	3.035400	-9.075900	28.548259	0.000202	20.733730
2319.666538	-3.010100	3.034400	-9.133000	28.581589	0.000202	20.756392
2320.666446	-3.001500	3.032800	-9.101500	28.534857	0.000200	20.737302
2321.669994	-3.017300	3.029700	-9.140000	28.484632	0.000200	20.729396
2322.665511	-3.038100	3.029800	-9.202400	28.472366	0.000200	20.752132
2323.670517	-3.009000	3.027400	-9.108700	28.463615	0.000199	20.725774
2324.668042	-3.002700	3.027700	-9.090400	28.458540	0.000200	20.733467
2325.667840	-3.004000	3.025700	-9.087600	28.441184	0.000201	20.737801
2326.668209	-2.990200	3.024400	-9.042900	28.477196	0.000200	20.720010
2327.670990	-3.002100	3.023900	-9.076400	28.499252	0.000200	20.740801
2328.673213	-2.984700	3.021800	-9.018600	28.459961	0.000198	20.737742
2329.669814	-2.999400	3.021700	-9.062500	28.449294	0.000201	20.721784
2330.670220	-3.002000	3.019600	-9.063600	28.463395	0.000201	20.740253
2331.672758	-2.987300	3.019500	-9.019600	28.485013	0.000201	20.740211
2332.669461	-2.964300	3.019900	-8.950900	28.508457	0.000199	20.722094
2333.669721	-3.007400	3.016500	-9.070900	28.539929	0.000200	20.735772
2334.677644	-3.018700	3.015300	-9.100700	28.555425	0.000199	20.732885
2335.674136	-3.000300	3.014200	-9.043300	28.531560	0.000199	20.724023
2336.674590	-2.992600	3.014100	-9.019000	28.487050	0.000200	20.725667
2337.672920	-3.014200	3.011400	-9.076000	28.516103	0.000200	20.711776
2338.670545	-3.010700	3.009200	-9.058000	28.529237	0.000200	20.728323
2339.670020	-3.021000	3.008900	-9.088800	28.574435	0.000199	20.715046
2340.674252	-2.979300	3.008600	-8.962500	28.601473	0.000198	20.726630
2341.673748	-3.013700	3.006000	-9.058400	28.632845	0.000198	20.734045
2342.671802	-2.992600	3.005900	-8.993900	28.665548	0.000199	20.723834
2343.679562	-3.003500	3.003600	-9.020700	28.648746	0.000197	20.727301
2344.674833	-3.020800	3.002300	-9.068100	28.611148	0.000197	20.731633
2345.671410	-3.002600	3.002500	-9.014300	28.639168	0.000197	20.722395
2346.674506	-3.019700	3.000000	-9.058000	28.633843	0.000197	20.748801
2347.674025	-3.037400	2.998200	-9.105800	28.632187	0.000196	20.728640
2348.671692	-3.023900	2.997900	-9.064600	28.597024	0.000197	20.708398
2349.677270	-3.005700	2.997800	-9.009200	28.594151	0.000197	20.718781
2350.676626	-2.991400	2.995400	-8.958900	28.632682	0.000198	20.731510
2351.674055	-2.991900	2.994500	-8.958300	28.600474	0.000196	20.715191
2352.673023	-2.981900	2.993600	-8.925200	28.599208	0.000199	20.718184
2353.673558	-3.023400	2.992300	-9.046300	28.607584	0.000196	20.719508
2354.673859	-2.997900	2.991400	-8.967100	28.620669	0.000198	20.708978
2355.677214	-2.992900	2.988600	-8.943800	28.639978	0.000195	20.697131
2356.677816	-3.017200	2.986900	-9.011000	28.622357	0.000197	20.722533
2357.678113	-3.010200	2.988300	-8.993900	28.589572	0.000197	20.732188
2358.678708	-3.002800	2.984500	-8.960900	28.545690	0.000198	20.718339
2359.682683	-2.979000	2.984800	-8.890200	28.519795	0.000196	20.716442
2360.682195	-3.031000	2.979400	-9.029300	28.525218	0.000195	20.704359
2361.678406	-2.974900	2.980700	-8.865800	28.478857	0.000195	20.683273
2362.683932	-3.012000	2.978700	-8.971000	28.493079	0.000198	20.703762
2363.680852	-3.009000	2.977700	-8.959300	28.503843	0.000198	20.706541
2364.680496	-3.015900	2.976000	-8.974500	28.549627	0.000196	20.710450
2365.681790	-3.005100	2.974000	-8.936400	28.563630	0.000199	20.706533
2366.687132	-3.007900	2.972800	-8.941300	28.570448	0.000194	20.712452
2367.683130	-2.994800	2.972500	-8.900000	28.594978	0.000196	20.702543
2368.680018	-2.990500	2.971800	-8.886100	28.619061	0.000197	20.730594
2369.679110	-2.999500	2.968600	-8.903400	28.700877	0.000194	20.700622
2370.678839	-2.978800	2.969000	-8.843100	28.710641	0.000196	20.708560
2371.680233	-2.994400	2.965700	-8.879400	28.760035	0.000194	20.709951
2372.680874	-3.009200	2.964300	-8.919400	28.763711	0.000194	20.706067
2373.681573	-3.031300	2.962500	-8.978400	28.698572	0.000194	20.725329
2374.684072	-3.005800	2.961300	-8.899400	28.650603	0.000195	20.712101
2375.682484	-3.003600	2.961500	-8.894200	28.676413	0.000196	20.694947
2376.682385	-3.016700	2.958300	-8.923400	28.721500	0.000194	20.704325
2377.683265	-3.011300	2.957900	-8.905400	28.702199	0.000194	20.692944
2378.685780	-3.002100	2.955000	-8.869400	28.692857	0.000193	20.713408
2379.683670	-2.967400	2.955000	-8.766800	28.697467	0.000194	20.719949
2380.684241	-2.953600	2.955000	-8.726600	28.707028	0.000195	20.718199
2381.681021	-3.008300	2.952300	-8.879500	28.755441	0.000195	20.707219
2382.684797	-2.992700	2.949200	-8.824400	28.753460	0.000192	20.708069
2383.696177	-3.029500	2.945900	-8.923900	28.769050	0.000194	20.713816
2384.682497	-2.973500	2.946600	-8.760000	28.739817	0.000195	20.722303
2385.689769	-2.975700	2.947000	-8.768200	28.762112	0.000193	20.701136
2386.688024	-2.993900	2.944400	-8.813600	28.761097	0.000193	20.711495
2387.684246	-2.999400	2.939800	-8.816900	28.747973	0.000192	20.707758
2388.684626	-3.024900	2.938900	-8.888500	28.699163	0.000194	20.731614
2389.683338	-2.991100	2.938700	-8.788700	28.672898	0.000192	20.709426
2390.685367	-3.018000	2.934800	-8.856100	28.666113	0.000193	20.709229
2391.686881	-3.040500	2.934600	-8.921200	28.595552	0.000192	20.711183
2392.684165	-3.009500	2.934800	-8.831300	28.565868	0.000191	20.706891
2393.685738	-2.982400	2.932500	-8.744900	28.544284	0.000193	20.711706
2394.684917	-2.981900	2.929900	-8.735900	28.530857	0.000196	20.720470
2395.686439	-2.990200	2.929200	-8.757700	28.590357	0.000194	20.707847
2396.687650	-3.010800	2.926900	-8.810500	28.645902	0.000193	20.710684
2397.687794	-2.985500	2.927600	-8.738900	28.713008	0.000193	20.691503
2398.687720	-3.002400	2.923900	-8.778500	28.705273	0.000196	20.697464
2399.687630	-2.996700	2.922500	-8.757000	28.709218	0.000194	20.695272
2400.687967	-2.955300	2.920900	-8.631500	28.734467	0.000194	20.700316
2401.689592	-2.987800	2.921000	-8.726400	28.787260	0.000192	20.709400
2402.690647	-3.034100	2.916500	-8.848100	28.781336	0.000192	20.705328
2403.688627	-3.002000	2.916100	-8.752800	28.813912	0.000193	20.704952
2404.690529	-2.989600	2.914400	-8.712400	28.813888	0.000190	20.721524
2405.691902	-3.025400	2.911600	-8.807900	28.842283	0.000193	20.716463
2406.691599	-3.018400	2.910300	-8.783300	28.813222	0.000191	20.721802
2407.691533	-3.005200	2.908600	-8.740800	28.825752	0.000193	20.731106
2408.690538	-2.988500	2.907700	-8.688500	28.846965	0.000192	20.702213
2409.691410	-3.011700	2.905000	-8.747800	28.799994	0.000193	20.726495
2410.693633	-3.013100	2.903100	-8.746200	28.786668	0.000192	20.721132
2411.691281	-3.001400	2.900900	-8.705300	28.748710	0.000192	20.733158
2412.692235	-3.009700	2.898700	-8.723100	28.784541	0.000191	20.730844
2413.691032	-2.991500	2.898300	-8.669600	28.787341	0.000192	20.720862
2414.692622	-3.007500	2.895000	-8.705900	28.779656	0.000192	20.695100
2415.688475	-3.003200	2.894600	-8.692600	28.717018	0.000192	20.717829
2416.691768	-3.035400	2.891000	-8.774500	28.710135	0.000193	20.710422
2417.693937	-2.977100	2.891700	-8.607500	28.681370	0.000192	20.713692
2418.689690	-2.993600	2.889000	-8.647100	28.706215	0.000194	20.727812
2419.689836	-2.985800	2.886700	-8.618200	28.777148	0.000192	20.723871
2420.691914	-3.018600	2.886400	-8.711600	28.823512	0.000195	20.710830
2421.690060	-2.999800	2.884600	-8.652200	28.862571	0.000193	20.725996
2422.692289	-2.988800	2.882500	-8.614400	28.844831	0.000191	20.725669
2423.704065	-3.001200	2.879100	-8.638800	28.769154	0.000192	20.740001
2424.692401	-3.007400	2.877200	-8.652000	28.717918	0.000193	20.715891
2425.693789	-2.991300	2.876300	-8.602700	28.677109	0.000191	20.712245
2426.692224	-2.997900	2.875600	-8.619200	28.605357	0.000194	20.741448
2427.693671	-3.018700	2.871300	-8.666700	28.574731	0.000191	20.749010
2428.695407	-3.000200	2.869600	-8.607800	28.542384	0.000192	20.738718
2429.692219	-3.030300	2.867900	-8.689300	28.547319	0.000192	20.711444
2430.693022	-2.971400	2.867900	-8.520400	28.584471	0.000192	20.730844
2431.693910	-3.001600	2.863100	-8.593400	28.635650	0.000191	20.745880
2432.695011	-3.009900	2.861700	-8.611200	28.679114	0.000190	20.726119
2433.693167	-3.006200	2.859400	-8.594700	28.724825	0.000191	20.736600
2434.696202	-3.005200	2.858600	-8.589700	28.766273	0.000192	20.734254
2435.693740	-3.007700	2.855600	-8.587600	28.775290	0.000191	20.728163
2436.693599	-2.998300	2.853700	-8.555200	28.837195	0.000191	20.739315
2437.696320	-3.005200	2.850800	-8.566400	28.815122	0.000191	20.729406
2438.696249	-3.015400	2.848200	-8.586900	28.773431	0.000192	20.725817
2439.693237	-2.990300	2.848000	-8.515000	28.755585	0.000191	20.719220
2440.701562	-3.029400	2.845200	-8.617900	28.771939	0.000191	20.720045
2441.695446	-3.018400	2.842200	-8.577900	28.830727	0.000192	20.749869
2442.697802	-3.008700	2.842200	-8.550400	28.883111	0.000192	20.726774
2443.694685	-3.005200	2.839000	-8.529900	28.909517	0.000190	20.734884
2444.698018	-3.010700	2.835900	-8.536800	28.962675	0.000192	20.712573
2445.696178	-2.995100	2.835700	-8.491600	28.982692	0.000191	20.752183
2446.696495	-3.013700	2.833400	-8.537700	28.951728	0.000190	20.748488
2447.699064	-2.992200	2.831800	-8.473000	28.881228	0.000191	20.751432
2448.698927	-2.983400	2.829500	-8.440700	28.828886	0.000191	20.724305
2449.699986	-3.026500	2.825800	-8.550600	28.862272	0.000190	20.740869
2450.701096	-2.985000	2.825400	-8.432100	28.907358	0.000189	20.705207
2451.701700	-3.012000	2.821600	-8.497500	28.920707	0.000192	20.740943
2452.703148	-3.007500	2.818800	-8.476500	28.978230	0.000191	20.774241
2453.704803	-2.987300	2.818200	-8.417900	29.028602	0.000191	20.748652
2454.703046	-2.961900	2.816200	-8.340000	29.012333	0.000191	20.727044
2455.701245	-3.017600	2.811700	-8.483600	29.059093	0.000191	20.733855
2456.704038	-2.980100	2.810100	-8.373800	29.049284	0.000190	20.744360
2457.705699	-2.992600	2.807600	-8.401200	29.067215	0.000191	20.751048
2458.701544	-3.001700	2.805200	-8.420000	29.032026	0.000190	20.747835
2459.708090	-2.999900	2.802500	-8.406000	29.014143	0.000191	20.747835
2460.701113	-2.980200	2.800900	-8.345700	28.991400	0.000190	20.745783
2461.704542	-3.013200	2.797400	-8.428100	28.986596	0.000191	20.738572
2462.706629	-2.994000	2.795200	-8.368200	28.983772	0.000190	20.721027
2463.706214	-2.991900	2.792100	-8.351900	29.064099	0.000191	20.750753
2464.710576	-3.010200	2.788700	-8.394100	29.031011	0.000190	20.731639
2465.701481	-3.013300	2.788400	-8.402200	29.010719	0.000192	20.749601
2466.702672	-3.028400	2.783100	-8.426900	29.025413	0.000190	20.751603
2467.704898	-2.988700	2.783600	-8.317800	29.054987	0.000193	20.747262
2468.703737	-2.992600	2.780500	-8.319700	29.080245	0.000192	20.750426
2469.702724	-2.992900	2.776500	-8.308000	29.127796	0.000191	20.750925
2470.705966	-3.010500	2.775300	-8.353800	29.135147	0.000192	20.740314
2471.718171	-3.007000	2.771000	-8.329900	29.132007	0.000193	20.751375
2472.708213	-2.969700	2.770100	-8.224900	29.077729	0.000193	20.762116
2473.704870	-3.018000	2.764400	-8.342200	29.060602	0.000191	20.737746
2474.703638	-3.008300	2.763400	-8.310800	29.013818	0.000191	20.758888
2475.706668	-2.995600	2.760300	-8.268000	29.002126	0.000192	20.760384
2476.706862	-2.968700	2.758000	-8.187000	28.960119	0.000192	20.755045
2477.704574	-3.010800	2.753900	-8.290400	28.886618	0.000191	20.752119
2478.707788	-2.999100	2.750500	-8.248000	28.909363	0.000192	20.761757
2479.705136	-3.007000	2.746700	-8.259000	28.949368	0.000189	20.759387
2480.705201	-3.018300	2.744400	-8.282500	28.980495	0.000191	20.769410
2481.706100	-2.986400	2.740500	-8.181800	29.010768	0.000190	20.734002
2482.709218	-3.003000	2.737200	-8.218600	29.072732	0.000190	20.760401
2483.712294	-3.036000	2.732700	-8.294900	29.116771	0.000191	20.756885
2484.707444	-2.998100	2.733400	-8.194000	29.121793	0.000189	20.770007
2485.711155	-2.984400	2.730100	-8.146700	29.137322	0.000191	20.748669
2486.708679	-2.973700	2.726500	-8.107600	29.144177	0.000190	20.771225
2487.705364	-2.996400	2.723000	-8.157800	29.091377	0.000191	20.742677
2488.710102	-3.019800	2.716400	-8.202400	29.084692	0.000190	20.758226
2489.710457	-2.998100	2.716400	-8.142800	29.089917	0.000190	20.743576
2490.708102	-2.971900	2.712200	-8.059800	29.111580	0.000189	20.775362
2491.712608	-2.965900	2.710100	-8.036800	29.145135	0.000189	20.767449
2492.707644	-2.987500	2.705000	-8.080300	29.158903	0.000190	20.771365
2493.711582	-2.990400	2.700900	-8.075600	29.203757	0.000191	20.753028
2494.707607	-2.996800	2.696600	-8.079700	29.195726	0.000190	20.753944
2495.709126	-2.999400	2.693000	-8.076100	29.258199	0.000189	20.778020
2496.711745	-3.011100	2.690100	-8.098800	29.259740	0.000191	20.778625
2497.712942	-3.026600	2.685900	-8.128500	29.302125	0.000192	20.788624
2498.713336	-3.023400	2.681700	-8.107100	29.320498	0.000190	20.766363
2499.715598	-2.992700	2.677900	-8.012600	29.341352	0.000190	20.780268
2500.711960	-2.980500	2.676100	-7.975200	29.366091	0.000190	20.762054
2501.714561	-3.010400	2.671200	-8.039400	29.360024	0.000189	20.772060
2502.717124	-2.992800	2.666300	-7.979400	29.363359	0.000191	20.773998
2503.713555	-2.993900	2.664700	-7.976300	29.410086	0.000191	20.784585
2504.715107	-3.021800	2.657900	-8.030700	29.416226	0.000190	20.769910
2505.726604	-3.015100	2.653700	-8.000000	29.453218	0.000191	20.768316
2506.716847	-3.007200	2.650500	-7.969400	29.451410	0.000189	20.781666
2507.713402	-2.963200	2.647500	-7.844000	29.394018	0.000190	20.783089
2508.715456	-2.979600	2.642900	-7.873700	29.363837	0.000192	20.782541
2509.713120	-3.018600	2.636600	-7.957600	29.356058	0.000190	20.770434
2510.713030	-3.009500	2.631400	-7.918700	29.384512	0.000190	20.789155
2511.717770	-3.015400	2.627900	-7.922900	29.426405	0.000190	20.770687
2512.712451	-2.990300	2.624000	-7.845300	29.462132	0.000189	20.797689
2513.715724	-3.033500	2.618700	-7.943100	29.474735	0.000189	20.773409
2514.718095	-2.995400	2.614600	-7.831100	29.502108	0.000191	20.778241
2515.715941	-3.001200	2.608600	-7.827500	29.544742	0.000192	20.785182
2516.714486	-3.014400	2.603700	-7.847200	29.581762	0.000191	20.791206
2517.717225	-2.984000	2.599400	-7.755300	29.568390	0.000189	20.777726
2518.718170	-3.003100	2.594800	-7.791400	29.523924	0.000191	20.777472
2519.715063	-2.979100	2.590100	-7.714800	29.485952	0.000192	20.773810
2520.718380	-3.014500	2.582900	-7.785100	29.441434	0.000191	20.770662
2521.717466	-3.053900	2.577100	-7.869600	29.399607	0.000191	20.793463
2522.716199	-3.001900	2.572400	-7.721200	29.411075	0.000189	20.796962
2523.716700	-3.025900	2.567500	-7.767800	29.408959	0.000190	20.791984
2524.718738	-3.009500	2.560700	-7.704800	29.429666	0.000191	20.796259
2525.717301	-2.992800	2.556500	-7.650500	29.484152	0.000192	20.785272
2526.720498	-3.006900	2.550100	-7.667200	29.525798	0.000191	20.792638
2527.718338	-2.999300	2.543200	-7.627000	29.572924	0.000190	20.792254
2528.716785	-3.022000	2.537100	-7.665500	29.588154	0.000191	20.811874
2529.720781	-3.001000	2.532600	-7.599100	29.592955	0.000192	20.808653
2530.720270	-2.975200	2.526900	-7.518000	29.625116	0.000191	20.792237
2531.718260	-2.992400	2.520400	-7.540900	29.671005	0.000192	20.792033
2532.718229	-3.020500	2.512500	-7.588000	29.669943	0.000191	20.796652
2533.728573	-3.023100	2.506300	-7.576000	29.663975	0.000192	20.785420
2534.719528	-2.980400	2.500800	-7.452200	29.681968	0.000192	20.799293
2535.721758	-2.993600	2.495000	-7.468400	29.687936	0.000193	20.810999
