LabVIEW Measurement	
Writer_Version	2
Reader_Version	2
Separator	Tab
Decimal_Separator	.
Multi_Headings	No
X_Columns	One
Time_Pref	Absolute
Operator	admin
Description	Clolumns are: time, Current, Voltage, Power, Battery Temp, and Chamber Temp
Date	2024/08/16
Time	13:06:06.104549407958984375
***End_of_Header***	
	
Channels	6						
Samples	1	1	1	1	1	1	
Date	2024/09/06	2024/09/06	2024/09/06	2024/09/06	2024/09/06	2024/09/06	
Time	07:19:32.3134303092956542969	07:19:32.3180551528930664062	07:19:32.3240561485290527344	07:19:32.2959575653076171875	07:19:32.2959575653076171875	07:19:32.2959575653076171875	
X_Dimension	Time	Time	Time	Time	Time	Time	
X0	0.0000000000000000E+0	0.0000000000000000E+0	0.0000000000000000E+0	0.0000000000000000E+0	0.0000000000000000E+0	0.0000000000000000E+0	
Delta_X	1.000000	1.000000	1.000000	1.000000	1.000000	1.000000	
***End_of_Header***							
X_Value	Untitled	Untitled 1	Untitled 2	Untitled 3	Untitled 4	Untitled 5	Comment
0.000000	0.007999	4.100600	0.032744	20.951985	0.000919	20.661806
0.998041	-2.992600	3.931500	-11.764000	20.964355	0.000919	20.668962
1.998842	-3.015800	3.922900	-11.829000	20.971386	0.000917	20.682160
2.999051	-2.986400	3.918600	-11.701000	20.966171	0.000916	20.698756
4.001007	-2.989300	3.914300	-11.699000	20.983712	0.000916	20.671253
5.000960	-3.015700	3.910600	-11.791000	20.972285	0.000914	20.684956
6.002901	-3.018900	3.907900	-11.796000	20.950944	0.000914	20.681156
7.000068	-2.975200	3.906200	-11.620000	20.954540	0.000912	20.693288
8.000869	-2.987300	3.904100	-11.662000	20.974372	0.000911	20.676136
9.000083	-3.006700	3.900400	-11.727000	20.971158	0.000910	20.697580
10.001108	-3.005500	3.898900	-11.718000	20.969262	0.000910	20.699477
11.000812	-2.992000	3.898400	-11.663000	21.007686	0.000909	20.702347
12.002100	-3.032800	3.893300	-11.806000	20.998901	0.000909	20.690239
13.002309	-3.004700	3.894100	-11.700000	20.974624	0.000907	20.682554
14.002858	-3.004000	3.893400	-11.695000	20.994308	0.000908	20.692758
15.005590	-3.017600	3.890700	-11.741000	20.973374	0.000909	20.705013
16.002159	-3.002100	3.890000	-11.677000	21.000951	0.000908	20.690868
17.002618	-2.998500	3.890300	-11.664000	21.010574	0.000906	20.688164
18.003038	-3.007300	3.887900	-11.691000	21.014637	0.000903	20.681322
19.003284	-2.991000	3.888500	-11.629000	21.021422	0.000905	20.706128
20.003037	-2.993800	3.886200	-11.633000	21.020030	0.000904	20.699046
21.002184	-2.984300	3.886000	-11.596000	21.027338	0.000904	20.699717
22.002925	-2.997400	3.885900	-11.647000	21.034098	0.000903	20.696995
23.003246	-2.991800	3.884900	-11.621000	21.039854	0.000903	20.704650
24.004785	-2.978900	3.884800	-11.571000	21.035569	0.000902	20.707951
25.003553	-2.996800	3.882400	-11.634000	21.053879	0.000901	20.717730
26.003942	-3.002400	3.882100	-11.655000	21.055547	0.000902	20.697586
27.003434	-3.009700	3.880500	-11.678000	21.069196	0.000900	20.688478
28.005591	-3.000500	3.878600	-11.636000	21.057911	0.000900	20.696631
29.005056	-2.991600	3.880300	-11.606000	21.072810	0.000901	20.692567
30.004757	-3.012100	3.878000	-11.680000	21.066395	0.000900	20.701324
31.004445	-2.992700	3.877400	-11.603000	21.083583	0.000898	20.709508
32.006008	-3.005900	3.877700	-11.655000	21.104964	0.000898	20.679683
33.004642	-2.986300	3.879400	-11.585000	21.109778	0.000899	20.696828
34.006634	-2.981200	3.877100	-11.557000	21.131491	0.000899	20.690571
35.011266	-3.002500	3.876900	-11.640000	21.113176	0.000898	20.703547
36.008246	-3.005500	3.874700	-11.644000	21.137745	0.000896	20.717693
37.008059	-2.996700	3.875000	-11.610000	21.158146	0.000897	20.710124
38.010363	-2.989900	3.874300	-11.582000	21.152637	0.000896	20.721683
39.005654	-2.997400	3.874400	-11.611000	21.130278	0.000896	20.700264
40.006809	-3.006300	3.873100	-11.643000	21.144295	0.000896	20.710019
41.008650	-3.020800	3.872200	-11.696000	21.167054	0.000895	20.713345
42.007646	-2.995200	3.873100	-11.598000	21.184789	0.000894	20.719232
43.006774	-3.012600	3.871700	-11.663000	21.175358	0.000895	20.696046
44.009024	-3.010000	3.872000	-11.653000	21.170667	0.000894	20.699415
45.011755	-3.001100	3.871900	-11.617000	21.175383	0.000893	20.697967
46.010122	-3.020400	3.870300	-11.689000	21.195561	0.000893	20.700135
47.009877	-3.022400	3.870800	-11.699000	21.199827	0.000893	20.721948
48.008700	-2.998600	3.870900	-11.606000	21.197432	0.000892	20.712439
49.008794	-2.994600	3.870700	-11.590000	21.208734	0.000893	20.699088
50.010670	-3.004600	3.870100	-11.628000	21.218983	0.000895	20.716455
51.006167	-3.002700	3.870000	-11.620000	21.222523	0.000892	20.700554
52.015705	-3.006700	3.870500	-11.636000	21.227312	0.000891	20.707716
53.010709	-2.994700	3.869700	-11.588000	21.230433	0.000894	20.701829
54.008782	-2.980100	3.867400	-11.523000	21.249939	0.000893	20.713757
55.010880	-2.991600	3.868800	-11.573000	21.229608	0.000891	20.704797
56.015963	-2.987700	3.866600	-11.550000	21.233449	0.000893	20.706269
57.009868	-3.002900	3.866200	-11.608000	21.271015	0.000890	20.687898
58.011020	-2.999400	3.866100	-11.595000	21.266756	0.000893	20.712563
59.012210	-2.992700	3.866500	-11.570000	21.267624	0.000893	20.722440
60.010535	-2.991400	3.867500	-11.569000	21.268572	0.000891	20.710586
61.009630	-2.997500	3.863600	-11.579000	21.295212	0.000890	20.722539
62.010991	-2.996400	3.866200	-11.583000	21.281916	0.000893	20.732472
63.014486	-3.013600	3.864900	-11.645000	21.308889	0.000892	20.721523
64.014039	-3.012400	3.864100	-11.640000	21.304820	0.000890	20.718401
65.017068	-2.999100	3.864100	-11.588000	21.327914	0.000891	20.729652
66.010323	-2.982100	3.865300	-11.525000	21.327865	0.000890	20.725809
67.015420	-3.006300	3.864600	-11.616000	21.335651	0.000891	20.725538
68.011323	-3.004800	3.862800	-11.606000	21.357322	0.000893	20.716873
69.010720	-3.004300	3.861800	-11.601000	21.375060	0.000890	20.730828
70.014374	-3.012700	3.862600	-11.636000	21.375559	0.000893	20.737965
71.012501	-3.008800	3.861200	-11.617000	21.352558	0.000891	20.713055
72.009200	-3.012900	3.861600	-11.634000	21.389899	0.000891	20.730501
73.011024	-3.000600	3.861600	-11.587000	21.405809	0.000892	20.722711
74.010797	-3.026400	3.860800	-11.683000	21.394786	0.000892	20.737288
75.009191	-2.998600	3.861600	-11.578000	21.402596	0.000892	20.701003
76.012085	-2.986500	3.861800	-11.531000	21.406732	0.000891	20.708461
77.013079	-3.002500	3.861300	-11.592000	21.401550	0.000890	20.734098
78.013546	-2.991500	3.860100	-11.546000	21.425491	0.000891	20.736241
79.011173	-3.006300	3.859000	-11.599000	21.450047	0.000893	20.726197
80.010864	-2.995200	3.859200	-11.558000	21.431098	0.000893	20.738532
81.012544	-2.995700	3.860500	-11.563000	21.438009	0.000893	20.727428
82.019858	-3.012000	3.858700	-11.620000	21.449703	0.000891	20.739129
83.017948	-3.000900	3.860000	-11.582000	21.465015	0.000892	20.717464
84.015213	-3.019500	3.857300	-11.646000	21.457156	0.000890	20.715290
85.014149	-2.989900	3.860400	-11.541000	21.477606	0.000890	20.737177
86.009910	-3.003900	3.858700	-11.589000	21.462165	0.000891	20.743064
87.011492	-2.995700	3.858600	-11.558000	21.502377	0.000891	20.715968
88.012119	-3.016900	3.858100	-11.639000	21.491724	0.000890	20.744665
89.014412	-3.001100	3.856600	-11.573000	21.529528	0.000892	20.733654
90.013774	-2.985500	3.858300	-11.518000	21.513060	0.000890	20.746574
91.014049	-3.004100	3.858500	-11.590000	21.523263	0.000890	20.750146
92.017014	-3.007400	3.857400	-11.599000	21.524660	0.000892	20.730680
93.014183	-2.998900	3.856600	-11.564000	21.532408	0.000891	20.759296
94.011442	-2.999700	3.857100	-11.569000	21.546531	0.000893	20.740711
95.011927	-3.002900	3.856100	-11.578000	21.562242	0.000891	20.752165
96.015265	-3.019000	3.856800	-11.643000	21.560143	0.000893	20.754333
97.013414	-3.007300	3.855700	-11.593000	21.601391	0.000893	20.731597
98.016934	-3.015000	3.854600	-11.620000	21.563134	0.000891	20.760645
99.011441	-2.997500	3.855100	-11.554000	21.588167	0.000892	20.757246
100.013840	-3.006200	3.855500	-11.588000	21.601890	0.000892	20.740631
101.011569	-3.014000	3.854100	-11.615000	21.618689	0.000893	20.746537
102.015794	-3.019300	3.853700	-11.633000	21.600136	0.000892	20.746463
103.012078	-3.013400	3.854600	-11.614000	21.621950	0.000892	20.737472
104.011544	-3.017600	3.854100	-11.628000	21.628559	0.000893	20.749302
105.015096	-3.013400	3.853900	-11.612000	21.651197	0.000892	20.771009
106.019021	-2.981000	3.854200	-11.489000	21.671497	0.000894	20.753865
107.013515	-2.979000	3.855900	-11.486000	21.652391	0.000892	20.753711
108.012935	-2.989400	3.853700	-11.519000	21.647173	0.000894	20.754179
109.017954	-2.993300	3.852200	-11.530000	21.661147	0.000893	20.745878
110.014159	-2.997500	3.853900	-11.549000	21.676671	0.000894	20.747663
111.021910	-2.994500	3.852900	-11.537000	21.687396	0.000894	20.750810
112.016212	-2.992700	3.853600	-11.531000	21.698656	0.000893	20.752596
113.015467	-2.980900	3.853500	-11.486000	21.691476	0.000894	20.751574
114.018732	-3.010100	3.850900	-11.590000	21.713614	0.000894	20.756186
115.018098	-3.004400	3.852700	-11.575000	21.721441	0.000892	20.752639
116.014546	-2.987100	3.852500	-11.507000	21.713362	0.000895	20.755934
117.016706	-2.980600	3.852000	-11.480000	21.711442	0.000893	20.767289
118.021157	-2.975700	3.852900	-11.463000	21.722185	0.000896	20.752910
119.015214	-2.994000	3.852800	-11.535000	21.719269	0.000895	20.767061
120.016537	-2.998500	3.850300	-11.544000	21.737216	0.000896	20.764635
121.016691	-3.012700	3.852100	-11.603000	21.738779	0.000895	20.763828
122.020765	-3.011300	3.850300	-11.593000	21.737912	0.000893	20.745890
123.020715	-2.986600	3.850500	-11.499000	21.753669	0.000897	20.757867
124.016181	-2.995800	3.849700	-11.531000	21.755484	0.000895	20.769167
125.021284	-3.005300	3.851800	-11.575000	21.780372	0.000895	20.771316
126.020964	-3.012900	3.848900	-11.595000	21.785177	0.000896	20.780867
127.021983	-2.983100	3.851500	-11.489000	21.797943	0.000898	20.759505
128.019439	-2.999200	3.848900	-11.542000	21.790062	0.000897	20.768213
129.021432	-2.996000	3.850100	-11.533000	21.781288	0.000897	20.787407
130.019080	-3.016200	3.849100	-11.608000	21.812278	0.000896	20.782388
131.021976	-3.005200	3.848700	-11.564000	21.821599	0.000899	20.754733
132.021754	-3.009900	3.847400	-11.579000	21.813823	0.000898	20.769709
133.019183	-2.984000	3.849100	-11.484000	21.803745	0.000899	20.756303
134.023332	-2.988300	3.848900	-11.501000	21.847137	0.000898	20.784562
135.022208	-3.021100	3.847700	-11.624000	21.839952	0.000899	20.772154
136.019283	-3.014400	3.848200	-11.598000	21.853468	0.000898	20.785683
137.023775	-2.994600	3.848800	-11.524000	21.834538	0.000898	20.784753
138.025969	-3.013100	3.846900	-11.589000	21.842499	0.000899	20.765220
139.019246	-3.002800	3.846700	-11.550000	21.841853	0.000899	20.770263
140.023099	-3.014900	3.846300	-11.595000	21.844867	0.000899	20.769487
141.026442	-3.006100	3.845900	-11.560000	21.853468	0.000901	20.785683
142.020165	-2.993100	3.846700	-11.512000	21.874687	0.000898	20.776575
143.023143	-2.994800	3.846700	-11.519000	21.880525	0.000902	20.785738
144.026426	-2.997100	3.847000	-11.529000	21.913586	0.000902	20.772363
145.019600	-3.001100	3.846800	-11.543000	21.905951	0.000900	20.789377
146.022452	-3.015900	3.845400	-11.596000	21.929242	0.000900	20.771439
147.025686	-3.019900	3.844200	-11.608000	21.933604	0.000902	20.785763
148.028059	-2.982700	3.846000	-11.470000	21.928449	0.000903	20.797198
149.025763	-3.017100	3.844000	-11.596000	21.912515	0.000899	20.792155
150.023631	-3.002600	3.845100	-11.543000	21.940137	0.000901	20.792777
151.022375	-2.986100	3.844100	-11.478000	21.941583	0.000901	20.794698
152.028005	-2.973100	3.845200	-11.432000	21.946695	0.000904	20.796496
153.023335	-2.980600	3.844300	-11.458000	21.939442	0.000903	20.791132
154.021698	-2.984000	3.844700	-11.472000	21.969308	0.000904	20.795424
155.028807	-3.016600	3.843400	-11.592000	21.979261	0.000906	20.784525
156.023088	-3.005000	3.842200	-11.544000	21.980676	0.000905	20.797795
157.027014	-2.999600	3.843900	-11.529000	21.975300	0.000904	20.798103
158.031043	-3.022700	3.842900	-11.614000	21.981051	0.000905	20.778256
159.031115	-3.000700	3.842400	-11.529000	22.001923	0.000906	20.784451
160.026424	-3.013800	3.841100	-11.574000	22.016158	0.000906	20.791114
161.033086	-2.999800	3.842500	-11.526000	22.016785	0.000906	20.777517
162.030406	-3.032300	3.839400	-11.641000	22.023490	0.000907	20.782333
163.025143	-3.006800	3.842100	-11.550000	22.049091	0.000909	20.789944
164.025221	-3.002500	3.842300	-11.535000	22.039569	0.000907	20.787998
165.026415	-3.005200	3.841400	-11.543000	22.043555	0.000907	20.814273
166.024896	-2.997500	3.841100	-11.513000	22.043438	0.000908	20.811786
167.027160	-3.000800	3.839900	-11.522000	22.045032	0.000907	20.790147
168.029699	-2.996500	3.840000	-11.506000	22.034814	0.000909	20.805049
169.029720	-2.964800	3.841000	-11.387000	22.078592	0.000910	20.786286
170.027567	-3.003600	3.840000	-11.533000	22.074827	0.000909	20.798639
171.026322	-2.985200	3.840000	-11.461000	22.105213	0.000910	20.810567
172.030003	-3.005800	3.840500	-11.542000	22.114741	0.000910	20.818683
173.028329	-2.989800	3.839600	-11.477000	22.114415	0.000910	20.814089
174.030910	-2.999200	3.838900	-11.512000	22.108811	0.000911	20.804212
175.031711	-2.999000	3.840300	-11.516000	22.133014	0.000909	20.815641
176.029618	-2.995500	3.838600	-11.498000	22.142265	0.000911	20.798350
177.028927	-3.006800	3.839200	-11.543000	22.123893	0.000914	20.812673
178.031662	-2.989200	3.838900	-11.474000	22.156971	0.000911	20.814969
179.028234	-3.001700	3.838300	-11.521000	22.164155	0.000912	20.802248
180.030174	-2.979500	3.838400	-11.435000	22.175497	0.000913	20.808387
181.030138	-3.008700	3.836800	-11.542000	22.158773	0.000913	20.809187
182.027553	-2.999500	3.837200	-11.509000	22.172729	0.000915	20.809409
183.028891	-2.985300	3.836800	-11.453000	22.170133	0.000914	20.809181
184.031879	-2.986600	3.837500	-11.460000	22.193370	0.000915	20.815850
185.028668	-2.988600	3.837400	-11.467000	22.198825	0.000916	20.804717
186.035921	-3.001100	3.837100	-11.514000	22.215578	0.000914	20.807266
187.032236	-2.978900	3.838000	-11.432000	22.224767	0.000916	20.819311
188.036014	-2.986600	3.836400	-11.457000	22.223198	0.000918	20.810628
189.030429	-2.984300	3.838000	-11.452000	22.234490	0.000917	20.826201
190.031490	-2.995500	3.835200	-11.487000	22.235486	0.000918	20.812500
191.030207	-2.999600	3.836900	-11.509000	22.252891	0.000918	20.812857
192.031782	-2.999500	3.835400	-11.503000	22.248051	0.000919	20.806115
193.029715	-2.995800	3.836900	-11.493000	22.249921	0.000917	20.807512
194.028789	-3.013700	3.835300	-11.557000	22.270751	0.000920	20.835955
195.034131	-3.009000	3.833900	-11.536000	22.267460	0.000919	20.816540
196.040709	-3.005200	3.834500	-11.521000	22.259859	0.000920	20.807980
197.034810	-3.011200	3.833000	-11.540000	22.293677	0.000920	20.814815
198.033136	-3.020000	3.833100	-11.575000	22.279367	0.000921	20.815185
199.033721	-3.002000	3.833000	-11.506000	22.294797	0.000922	20.828264
200.031728	-2.996800	3.833700	-11.488000	22.275480	0.000922	20.821250
201.035227	-3.011500	3.834100	-11.546000	22.312514	0.000920	20.827038
202.031220	-3.013200	3.833600	-11.550000	22.315577	0.000924	20.837691
203.029418	-2.986000	3.833900	-11.446000	22.339659	0.000921	20.823399
204.033412	-3.004500	3.832500	-11.513000	22.350894	0.000924	20.826589
205.028951	-3.001600	3.833700	-11.506000	22.344787	0.000924	20.822845
206.030083	-3.027800	3.833500	-11.605000	22.370129	0.000925	20.831152
207.037670	-3.000600	3.831400	-11.494000	22.341651	0.000924	20.837722
208.031878	-2.982800	3.832700	-11.431000	22.378929	0.000926	20.830955
209.036018	-2.979700	3.833600	-11.422000	22.379624	0.000925	20.833073
210.033761	-3.000500	3.831000	-11.494000	22.385410	0.000926	20.828910
211.030526	-3.002900	3.830900	-11.502000	22.389198	0.000925	20.843135
212.035287	-2.997400	3.831300	-11.483000	22.403870	0.000928	20.812309
213.032487	-3.017500	3.830500	-11.557000	22.397715	0.000927	20.812783
214.031550	-2.984700	3.831600	-11.435000	22.404344	0.000926	20.828430
215.031095	-2.989600	3.832600	-11.456000	22.398963	0.000928	20.835844
216.035464	-2.983200	3.831500	-11.429000	22.403372	0.000928	20.824612
217.035810	-2.964000	3.832100	-11.356000	22.398441	0.000930	20.811613
218.031151	-3.002800	3.830500	-11.501000	22.400163	0.000930	20.835622
219.031654	-2.996200	3.829300	-11.472000	22.388903	0.000930	20.813442
220.034013	-3.012300	3.829200	-11.534000	22.392384	0.000931	20.842057
221.033065	-3.005500	3.829000	-11.506000	22.382428	0.000931	20.832088
222.033445	-3.024900	3.828800	-11.581000	22.380104	0.000932	20.843036
223.034252	-2.993500	3.829100	-11.462000	22.397844	0.000932	20.820973
224.031712	-3.010200	3.828000	-11.522000	22.386111	0.000930	20.826293
225.032488	-2.994400	3.828800	-11.463000	22.410130	0.000932	20.816207
226.034831	-2.981500	3.829700	-11.417000	22.422287	0.000933	20.814157
227.036580	-2.969800	3.827800	-11.366000	22.427502	0.000932	20.807525
228.036934	-3.005400	3.827400	-11.502000	22.441977	0.000934	20.809218
229.039086	-2.999900	3.828200	-11.482000	22.464451	0.000934	20.793319
230.037528	-2.988500	3.827600	-11.438000	22.481643	0.000934	20.819545
231.031738	-2.974000	3.828700	-11.385000	22.480825	0.000934	20.823467
232.037985	-3.001200	3.826300	-11.483000	22.490786	0.000935	20.807839
233.039550	-2.995100	3.826400	-11.460000	22.485726	0.000938	20.814624
234.032235	-3.010000	3.826100	-11.516000	22.483365	0.000937	20.797561
235.036250	-2.995600	3.827400	-11.464000	22.513512	0.000938	20.812106
236.032316	-3.030400	3.826300	-11.594000	22.514514	0.000937	20.812636
237.035566	-3.002100	3.825800	-11.483000	22.512719	0.000939	20.811312
238.037428	-2.992900	3.826500	-11.451000	22.526743	0.000940	20.795486
239.035781	-2.996200	3.825000	-11.458000	22.524253	0.000939	20.793466
240.036010	-3.008300	3.824400	-11.504000	22.544236	0.000939	20.786927
241.041389	-2.986900	3.824900	-11.422000	22.570748	0.000939	20.789772
242.043220	-3.014500	3.825400	-11.530000	22.566979	0.000940	20.773194
243.037246	-2.989900	3.825700	-11.437000	22.523823	0.000941	20.800622
244.040668	-2.999500	3.823900	-11.469000	22.531699	0.000942	20.806613
245.041383	-2.976500	3.824100	-11.381000	22.526393	0.000943	20.816946
246.037448	-2.982800	3.825200	-11.408000	22.537878	0.000943	20.782456
247.043746	-2.988700	3.824500	-11.430000	22.548589	0.000942	20.803614
248.043005	-3.005800	3.823800	-11.492000	22.571166	0.000941	20.807734
249.038058	-3.013100	3.823600	-11.519000	22.548761	0.000943	20.806632
250.042447	-3.008800	3.822300	-11.499000	22.571811	0.000943	20.827820
251.042297	-3.006800	3.822600	-11.492000	22.570766	0.000946	20.789790
252.038997	-3.011900	3.820900	-11.507000	22.580007	0.000945	20.802838
253.043492	-3.011200	3.822200	-11.508000	22.561119	0.000947	20.788663
254.046448	-3.009600	3.821500	-11.501000	22.576392	0.000947	20.784045
255.040895	-3.019400	3.821100	-11.535000	22.575291	0.000947	20.792426
256.044768	-3.011500	3.820900	-11.505000	22.594111	0.000945	20.801317
257.047482	-2.990700	3.821700	-11.429000	22.598888	0.000946	20.805154
258.044147	-3.006600	3.821700	-11.489000	22.600308	0.000948	20.784765
259.046926	-2.981500	3.823100	-11.397000	22.603444	0.000950	20.791225
260.048388	-3.015600	3.819800	-11.518000	22.622011	0.000950	20.794174
261.043146	-3.005100	3.821700	-11.484000	22.632776	0.000951	20.793577
262.049606	-2.986900	3.820300	-11.410000	22.636133	0.000952	20.790301
263.051277	-3.002800	3.818700	-11.464000	22.617332	0.000952	20.796601
264.049296	-2.979100	3.820300	-11.380000	22.620745	0.000952	20.786742
265.048378	-3.021700	3.819500	-11.540000	22.617357	0.000953	20.780030
266.054728	-3.012900	3.819400	-11.506000	22.636785	0.000950	20.775307
267.045202	-2.993100	3.820400	-11.434000	22.657737	0.000953	20.787284
268.049197	-3.024500	3.818900	-11.550000	22.647648	0.000955	20.808947
269.053849	-2.991400	3.818500	-11.422000	22.668065	0.000954	20.769654
270.046952	-2.989000	3.819200	-11.414000	22.683207	0.000955	20.785295
271.049815	-2.994500	3.818000	-11.432000	22.688143	0.000956	20.775541
272.049778	-3.002000	3.818800	-11.463000	22.667358	0.000955	20.777954
273.051563	-2.999600	3.818400	-11.453000	22.670407	0.000956	20.774371
274.051378	-2.993600	3.816200	-11.423000	22.679696	0.000957	20.768976
275.051438	-3.012600	3.817300	-11.497000	22.696148	0.000956	20.773127
276.048191	-3.007200	3.817400	-11.478000	22.712986	0.000956	20.773872
277.053593	-2.985000	3.817500	-11.394000	22.738922	0.000959	20.775670
278.048697	-2.993000	3.816300	-11.421000	22.727039	0.000957	20.785104
279.051402	-2.997200	3.816200	-11.436000	22.739475	0.000959	20.767215
280.049579	-2.976300	3.817400	-11.361000	22.745561	0.000960	20.775208
281.054357	-2.994900	3.816800	-11.430000	22.764267	0.000959	20.756488
282.053896	-2.997200	3.815500	-11.433000	22.770747	0.000961	20.762504
283.049170	-3.000100	3.816000	-11.448000	22.787492	0.000961	20.775011
284.052137	-3.022300	3.815000	-11.529000	22.794843	0.000961	20.755349
285.049574	-2.991200	3.816300	-11.413000	22.777029	0.000960	20.775436
286.051777	-3.000200	3.816900	-11.450000	22.758028	0.000963	20.769204
287.049410	-2.968500	3.818700	-11.334000	22.754346	0.000963	20.770731
288.051966	-3.005900	3.815100	-11.467000	22.742488	0.000960	20.770233
289.049757	-3.006000	3.814900	-11.467000	22.772333	0.000961	20.765516
290.051536	-2.996700	3.813100	-11.425000	22.768601	0.000965	20.754191
291.057386	-2.990300	3.814500	-11.405000	22.774060	0.000964	20.766298
292.055441	-3.004300	3.814200	-11.457000	22.739303	0.000965	20.772259
293.056254	-3.007700	3.814000	-11.470000	22.743416	0.000965	20.751248
294.055534	-3.006900	3.811500	-11.459000	22.761231	0.000965	20.773835
295.055184	-2.995100	3.812800	-11.418000	22.748156	0.000965	20.750305
296.051935	-2.988000	3.813100	-11.392000	22.742051	0.000966	20.782598
297.056663	-2.996600	3.812200	-11.422000	22.773691	0.000967	20.763558
298.055850	-2.996700	3.811800	-11.421000	22.752945	0.000966	20.748938
299.057269	-3.006700	3.811700	-11.460000	22.774915	0.000966	20.776637
300.055289	-2.970300	3.812400	-11.323000	22.782611	0.000968	20.759690
301.057887	-3.010400	3.810800	-11.471000	22.815399	0.000967	20.766932
302.053730	-2.993700	3.810700	-11.407000	22.828732	0.000969	20.767012
303.054626	-2.964300	3.811600	-11.298000	22.842704	0.000969	20.751137
304.059494	-2.991700	3.810600	-11.399000	22.854512	0.000968	20.746845
305.058244	-2.984700	3.810100	-11.372000	22.872675	0.000968	20.738488
306.057433	-3.001900	3.810200	-11.437000	22.893654	0.000969	20.760928
307.059343	-2.988700	3.811100	-11.389000	22.877482	0.000971	20.758952
308.056495	-3.012900	3.809800	-11.478000	22.895590	0.000970	20.749117
309.062070	-3.006200	3.809300	-11.449000	22.893549	0.000971	20.770307
310.056983	-2.989200	3.810100	-11.389000	22.890537	0.000971	20.733623
311.062234	-3.002100	3.808400	-11.431000	22.862742	0.000971	20.754142
312.060357	-2.995800	3.808000	-11.407000	22.855913	0.000971	20.744455
313.059176	-2.992000	3.809800	-11.398000	22.862945	0.000972	20.763355
314.057102	-3.014400	3.807800	-11.476000	22.863689	0.000972	20.745133
315.062341	-3.005000	3.809000	-11.444000	22.871360	0.000974	20.752818
316.060232	-3.013900	3.807800	-11.474000	22.876818	0.000972	20.745958
317.057201	-2.993300	3.808000	-11.397000	22.883315	0.000973	20.747725
318.057824	-3.009500	3.806900	-11.456000	22.899610	0.000974	20.744609
319.060494	-3.005400	3.806300	-11.438000	22.892836	0.000977	20.726917
320.059107	-2.978700	3.806700	-11.337000	22.913931	0.000978	20.748052
321.062003	-3.012800	3.805800	-11.465000	22.940459	0.000977	20.755189
322.064135	-3.011800	3.806100	-11.460000	22.922302	0.000977	20.734627
323.059393	-3.011100	3.806100	-11.459000	22.942383	0.000976	20.755220
324.064172	-3.000000	3.804500	-11.413000	22.929881	0.000979	20.729892
325.064956	-3.020700	3.804400	-11.490000	22.958719	0.000976	20.743138
326.061587	-2.998900	3.805400	-11.411000	22.947115	0.000977	20.737675
327.063832	-3.005900	3.805000	-11.436000	22.948357	0.000977	20.740816
328.065762	-3.002800	3.805400	-11.427000	22.955038	0.000978	20.738501
329.061607	-3.003000	3.805100	-11.426000	22.951000	0.000979	20.736351
330.062668	-2.998200	3.804300	-11.405000	22.950754	0.000979	20.755546
331.066760	-3.022900	3.803700	-11.497000	22.945923	0.000977	20.739800
332.064503	-2.990400	3.805200	-11.379000	22.953673	0.000981	20.732392
333.066926	-2.985600	3.804600	-11.358000	22.965130	0.000980	20.749561
334.071549	-2.993100	3.802700	-11.381000	22.961288	0.000980	20.740022
335.064611	-2.985800	3.803000	-11.354000	22.961792	0.000980	20.716818
336.063763	-2.990000	3.802600	-11.368000	22.974152	0.000981	20.722089
337.063723	-3.009400	3.803300	-11.445000	22.987600	0.000982	20.742202
338.069365	-2.996200	3.802400	-11.391000	22.978940	0.000983	20.738741
339.066706	-2.996700	3.803700	-11.397000	22.975480	0.000983	20.740964
340.065206	-2.993500	3.802600	-11.383000	22.991349	0.000984	20.733156
341.064961	-2.973200	3.802900	-11.306000	23.011391	0.000985	20.735693
342.069102	-2.969300	3.802900	-11.291000	23.020413	0.000982	20.726714
343.065063	-2.992100	3.801500	-11.373000	23.020542	0.000985	20.714989
344.069083	-3.015200	3.800200	-11.457000	23.016658	0.000986	20.730064
345.068017	-3.005000	3.800600	-11.420000	23.056089	0.000987	20.729270
346.064427	-2.979500	3.801700	-11.327000	23.046084	0.000986	20.710235
347.065690	-3.003400	3.799200	-11.409000	23.012639	0.000987	20.739314
348.068244	-2.985300	3.799300	-11.341000	23.018090	0.000989	20.731025
349.069380	-2.979200	3.802000	-11.326000	23.008085	0.000988	20.731432
350.075211	-3.009500	3.798600	-11.432000	23.004723	0.000989	20.743237
351.070078	-3.005300	3.798700	-11.414000	23.022214	0.000988	20.735158
352.069452	-3.000200	3.798300	-11.395000	23.004447	0.000989	20.732528
353.075381	-2.986400	3.800200	-11.348000	22.988836	0.000989	20.708351
354.069946	-2.987700	3.798200	-11.347000	23.034574	0.000990	20.715298
355.068928	-3.023900	3.796900	-11.481000	23.029417	0.000991	20.740004
356.078152	-2.997700	3.796800	-11.381000	23.046054	0.000992	20.723956
357.070686	-2.973100	3.799100	-11.294000	23.065708	0.000990	20.721363
358.074309	-3.001300	3.798100	-11.398000	23.082295	0.000990	20.732294
359.079791	-3.023500	3.796100	-11.476000	23.067410	0.000992	20.714534
360.069926	-2.998500	3.795700	-11.380000	23.057749	0.000993	20.714811
361.073133	-2.968200	3.796600	-11.267000	23.077151	0.000992	20.732356
362.074111	-2.987800	3.795400	-11.339000	23.106262	0.000993	20.722645
363.074082	-2.983000	3.796400	-11.324000	23.085773	0.000992	20.714916
364.071758	-3.014500	3.794500	-11.436000	23.090929	0.000991	20.701590
365.079955	-3.015800	3.794900	-11.444000	23.097007	0.000994	20.723803
366.075256	-2.991800	3.795800	-11.356000	23.093050	0.000993	20.716517
367.074273	-2.996900	3.794100	-11.369000	23.102716	0.000994	20.725730
368.077200	-3.013600	3.794400	-11.433000	23.116464	0.000994	20.702520
369.080029	-2.999200	3.794300	-11.379000	23.133670	0.000994	20.710279
370.074840	-3.010900	3.793200	-11.419000	23.171186	0.000995	20.710889
371.081439	-3.000900	3.793800	-11.383000	23.133572	0.000995	20.700223
372.077878	-3.004200	3.792700	-11.393000	23.154779	0.000995	20.711043
373.078550	-3.002100	3.792800	-11.385000	23.137124	0.000997	20.708999
374.077870	-3.005200	3.792400	-11.396000	23.153384	0.000996	20.713913
375.080759	-3.002600	3.792800	-11.387000	23.159161	0.000998	20.716382
376.077951	-3.010400	3.790800	-11.411000	23.173436	0.000998	20.702237
377.077535	-2.991300	3.791900	-11.341000	23.190746	0.000998	20.696824
378.078608	-2.989100	3.790500	-11.330000	23.203325	0.000999	20.720810
379.076142	-2.996200	3.791200	-11.357000	23.204904	0.001000	20.703426
380.080142	-3.000100	3.790300	-11.370000	23.193419	0.000999	20.708038
381.079707	-3.005800	3.789500	-11.390000	23.185726	0.000998	20.709812
382.078103	-2.980300	3.790100	-11.294000	23.210564	0.001000	20.709098
383.079969	-3.005500	3.789300	-11.387000	23.175280	0.001000	20.682746
384.078703	-2.981500	3.790300	-11.299000	23.165866	0.001002	20.697021
385.077292	-3.009400	3.789100	-11.402000	23.181953	0.001000	20.718834
386.080011	-2.987100	3.790600	-11.319000	23.175661	0.001001	20.681231
387.078312	-2.992300	3.789800	-11.339000	23.187115	0.001002	20.683227
388.082422	-2.985100	3.789800	-11.311000	23.187115	0.001001	20.697453
389.078601	-2.989700	3.789400	-11.328000	23.191601	0.001003	20.691042
390.080467	-2.986600	3.789100	-11.316000	23.202361	0.001002	20.714154
391.080304	-3.012200	3.788400	-11.410000	23.206447	0.001004	20.697859
392.076919	-2.980800	3.788200	-11.291000	23.251770	0.001005	20.689225
393.079178	-2.991800	3.788500	-11.334000	23.244495	0.001005	20.709437
394.076951	-3.011900	3.786300	-11.402000	23.277172	0.001003	20.691449
395.079519	-2.995900	3.787600	-11.346000	23.276072	0.001004	20.687027
396.084070	-2.990200	3.787900	-11.325000	23.231979	0.001005	20.704006
397.083714	-2.985200	3.787400	-11.305000	23.229865	0.001004	20.699516
398.087683	-2.998500	3.785000	-11.348000	23.242664	0.001004	20.708550
399.080538	-2.984000	3.786700	-11.298000	23.252397	0.001005	20.699338
400.081470	-3.005300	3.785900	-11.377000	23.263236	0.001007	20.694078
401.080895	-2.978300	3.786100	-11.276000	23.283986	0.001006	20.693063
402.080523	-3.010000	3.785000	-11.390000	23.270315	0.001007	20.670824
403.081806	-3.006600	3.785800	-11.381000	23.307888	0.001008	20.705164
404.082754	-3.005500	3.784600	-11.373000	23.333018	0.001006	20.696210
405.083354	-3.010800	3.784600	-11.394000	23.305357	0.001007	20.681762
406.083581	-3.009200	3.783200	-11.383000	23.313227	0.001007	20.694393
407.081612	-3.017800	3.783800	-11.418000	23.330437	0.001008	20.686036
408.083830	-3.029100	3.783700	-11.459000	23.333718	0.001007	20.694067
409.082379	-2.992200	3.784200	-11.323000	23.363505	0.001008	20.699739
410.085825	-3.000600	3.783200	-11.351000	23.372143	0.001007	20.685162
411.083167	-2.991600	3.784600	-11.321000	23.380192	0.001009	20.686591
412.084385	-2.995400	3.783300	-11.332000	23.377722	0.001011	20.682218
413.087506	-2.994600	3.782200	-11.324000	23.359751	0.001012	20.679379
414.085642	-2.999900	3.781300	-11.343000	23.368407	0.001010	20.673356
415.089067	-2.997900	3.781900	-11.337000	23.389254	0.001011	20.668171
416.087696	-3.005300	3.780500	-11.361000	23.381334	0.001010	20.683942
417.085225	-2.993500	3.782300	-11.321000	23.397320	0.001011	20.666298
418.085189	-2.988000	3.780100	-11.294000	23.401904	0.001010	20.677532
419.088585	-3.007500	3.781100	-11.371000	23.392148	0.001013	20.683875
420.084801	-3.011100	3.780100	-11.381000	23.411470	0.001011	20.688069
421.085637	-3.004700	3.780500	-11.358000	23.425133	0.001012	20.690858
422.085116	-3.007400	3.779400	-11.365000	23.414001	0.001013	20.679699
423.092245	-3.017600	3.779800	-11.405000	23.415654	0.001013	20.682779
424.087201	-3.007200	3.778800	-11.363000	23.374865	0.001013	20.682674
425.087291	-3.000100	3.778400	-11.334000	23.376505	0.001013	20.678628
426.086576	-2.979400	3.779100	-11.258000	23.375166	0.001015	20.686769
427.088914	-3.000800	3.777500	-11.335000	23.391048	0.001015	20.682772
428.088475	-2.993800	3.778600	-11.311000	23.397923	0.001016	20.682077
429.087021	-3.009800	3.777200	-11.367000	23.377525	0.001015	20.692928
430.087232	-3.009100	3.776400	-11.362000	23.395324	0.001015	20.690852
431.085491	-2.999200	3.777400	-11.328000	23.415721	0.001014	20.687588
432.089340	-2.995500	3.777100	-11.312000	23.418135	0.001018	20.695225
433.087458	-2.997400	3.776200	-11.317000	23.382883	0.001014	20.682649
434.089476	-3.007700	3.775000	-11.353000	23.388154	0.001017	20.683191
435.088006	-3.000200	3.775400	-11.326000	23.401848	0.001017	20.694073
436.087517	-2.996600	3.774700	-11.309000	23.404859	0.001015	20.676226
437.091439	-3.016600	3.774800	-11.386000	23.395600	0.001015	20.686862
438.092236	-3.000400	3.776100	-11.328000	23.412305	0.001018	20.649547
439.090709	-3.000900	3.773800	-11.324000	23.442980	0.001017	20.696419
440.090378	-2.960300	3.774800	-11.174000	23.440313	0.001017	20.711292
441.096731	-3.011600	3.774400	-11.366000	23.448951	0.001017	20.693395
442.090339	-2.978900	3.774500	-11.242000	23.461299	0.001016	20.689651
443.091288	-3.012800	3.772800	-11.366000	23.483035	0.001017	20.691049
444.086240	-2.995600	3.773000	-11.302000	23.479723	0.001017	20.690575
445.095206	-2.992300	3.773800	-11.291000	23.459082	0.001019	20.684108
446.091995	-3.000000	3.771500	-11.313000	23.463787	0.001019	20.694990
447.089270	-3.006200	3.770800	-11.335000	23.503774	0.001018	20.677223
448.091520	-2.987400	3.770800	-11.263000	23.496703	0.001018	20.704277
449.093290	-3.005700	3.772200	-11.336000	23.518087	0.001021	20.688727
450.088548	-2.999900	3.770700	-11.311000	23.539072	0.001020	20.691745
451.092759	-3.013000	3.769900	-11.357000	23.537278	0.001021	20.700853
452.094281	-3.011400	3.769100	-11.349000	23.540964	0.001020	20.693642
453.091579	-2.999900	3.771200	-11.312000	23.545418	0.001020	20.688148
454.097530	-2.977800	3.769900	-11.225000	23.523690	0.001021	20.693870
455.094744	-2.999300	3.770300	-11.308000	23.533003	0.001021	20.706525
456.092814	-3.015000	3.770400	-11.366000	23.524065	0.001022	20.710842
457.094584	-3.001300	3.769000	-11.310000	23.528648	0.001021	20.698365
458.095782	-2.986900	3.768700	-11.256000	23.567207	0.001022	20.682963
459.092752	-2.985400	3.768800	-11.250000	23.562606	0.001021	20.706328
460.093297	-3.010600	3.768200	-11.343000	23.564000	0.001022	20.706303
461.095973	-3.014800	3.768700	-11.359000	23.573657	0.001022	20.699388
462.093096	-3.006400	3.768000	-11.326000	23.585383	0.001023	20.695496
463.094977	-3.009000	3.767400	-11.335000	23.589314	0.001021	20.689479
464.092719	-3.028600	3.765000	-11.401000	23.584640	0.001021	20.695225
465.099118	-2.998700	3.766000	-11.292000	23.579542	0.001022	20.696278
466.098454	-2.980800	3.767900	-11.231000	23.571796	0.001023	20.710799
467.096853	-3.006500	3.766200	-11.323000	23.531240	0.001022	20.705706
468.093903	-2.998200	3.766300	-11.291000	23.553097	0.001022	20.692053
469.097372	-3.024200	3.764800	-11.384000	23.551874	0.001024	20.685137
470.099730	-2.972600	3.764600	-11.189000	23.553269	0.001022	20.694122
471.107916	-2.978100	3.765600	-11.212000	23.559909	0.001024	20.686079
472.100361	-2.992300	3.764000	-11.260000	23.565038	0.001025	20.708767
473.101523	-2.989700	3.763500	-11.251000	23.585751	0.001024	20.710091
474.096927	-3.001500	3.763100	-11.293000	23.617644	0.001024	20.708871
475.103424	-3.014600	3.763400	-11.344000	23.619008	0.001025	20.690322
476.105687	-3.012000	3.761900	-11.330000	23.600506	0.001024	20.714925
477.099831	-2.999800	3.762000	-11.285000	23.591200	0.001023	20.677143
478.107200	-3.006500	3.762000	-11.310000	23.623233	0.001024	20.691714
479.107820	-3.003200	3.762100	-11.296000	23.624130	0.001024	20.701623
480.104518	-3.014600	3.761100	-11.337000	23.653994	0.001026	20.716390
481.102650	-2.997200	3.762200	-11.275000	23.677740	0.001022	20.709850
482.103221	-2.998700	3.761800	-11.280000	23.678441	0.001024	20.707233
483.100986	-3.002700	3.761900	-11.294000	23.656636	0.001024	20.722357
484.104625	-3.005000	3.761800	-11.303000	23.657796	0.001024	20.718305
485.103809	-2.989500	3.761800	-11.245000	23.691449	0.001024	20.710318
486.107412	-2.997300	3.761400	-11.274000	23.688391	0.001026	20.703932
487.106255	-3.002600	3.761200	-11.292000	23.693790	0.001025	20.688006
488.105226	-3.000000	3.759500	-11.277000	23.675873	0.001026	20.710823
489.102014	-2.984500	3.759900	-11.221000	23.675025	0.001026	20.704283
490.104987	-2.989900	3.758700	-11.237000	23.685455	0.001027	20.706678
491.106571	-2.993600	3.758400	-11.250000	23.713954	0.001027	20.723872
492.106135	-2.995300	3.759100	-11.258000	23.716546	0.001027	20.706081
493.107640	-3.019200	3.757600	-11.344000	23.719083	0.001026	20.701511
494.102049	-2.990800	3.759100	-11.242000	23.745738	0.001028	20.713539
495.102013	-3.013800	3.757200	-11.322000	23.738147	0.001028	20.701659
496.101226	-2.990700	3.757400	-11.235000	23.757064	0.001025	20.703556
497.105786	-3.007500	3.756700	-11.296000	23.786734	0.001027	20.728091
498.100270	-3.005900	3.757100	-11.293000	23.750744	0.001027	20.722825
499.105281	-2.983900	3.757800	-11.212000	23.744799	0.001027	20.745315
500.102560	-3.008100	3.756200	-11.298000	23.761523	0.001026	20.726046
501.101454	-3.021900	3.755000	-11.346000	23.767173	0.001028	20.727918
502.102990	-2.979000	3.755700	-11.187000	23.761345	0.001027	20.727764
503.108162	-2.995800	3.755600	-11.249000	23.766522	0.001028	20.719204
504.103071	-3.002700	3.755100	-11.274000	23.763814	0.001028	20.734033
505.101668	-2.996600	3.753200	-11.246000	23.759638	0.001028	20.720836
506.105145	-2.995700	3.755000	-11.248000	23.729708	0.001028	20.727339
507.103973	-3.008000	3.753100	-11.288000	23.730937	0.001026	20.730942
508.103174	-2.998600	3.753500	-11.253000	23.746039	0.001028	20.732334
509.103090	-3.026500	3.753800	-11.360000	23.755277	0.001028	20.735431
510.107506	-3.020600	3.751600	-11.331000	23.744326	0.001027	20.725874
511.108606	-3.020000	3.753100	-11.333000	23.750701	0.001029	20.708557
512.107799	-2.995300	3.752200	-11.238000	23.772775	0.001028	20.739699
513.107523	-2.992900	3.752600	-11.231000	23.729592	0.001027	20.731964
514.105131	-2.992500	3.752000	-11.227000	23.738958	0.001029	20.718121
515.109914	-2.982200	3.753100	-11.192000	23.742472	0.001028	20.746775
516.109234	-2.998000	3.750700	-11.243000	23.763003	0.001029	20.728953
517.110366	-3.006500	3.750500	-11.274000	23.751924	0.001028	20.724956
518.113722	-3.002200	3.750500	-11.258000	23.784155	0.001029	20.720763
519.110643	-2.992300	3.751900	-11.226000	23.793847	0.001027	20.741387
520.108144	-3.002200	3.751400	-11.262000	23.799718	0.001029	20.742532
521.110514	-3.011200	3.749900	-11.291000	23.820704	0.001030	20.736546
522.113998	-2.995000	3.749700	-11.229000	23.820605	0.001030	20.723171
523.110482	-3.011000	3.749700	-11.290000	23.828663	0.001028	20.731724
524.109808	-3.011700	3.748300	-11.289000	23.833797	0.001028	20.731183
525.115107	-2.994500	3.749500	-11.227000	23.829191	0.001029	20.741738
526.107598	-2.995500	3.749600	-11.231000	23.827128	0.001029	20.729237
527.109938	-3.006600	3.746800	-11.264000	23.835867	0.001028	20.734207
528.113690	-2.991400	3.747100	-11.208000	23.838403	0.001029	20.751923
529.107616	-2.995200	3.747800	-11.224000	23.839545	0.001029	20.739318
530.112597	-3.004400	3.747300	-11.258000	23.827821	0.001029	20.736097
531.113838	-2.987300	3.746200	-11.190000	23.872167	0.001030	20.720344
532.108979	-2.992200	3.746800	-11.210000	23.880734	0.001028	20.733203
533.114542	-2.989700	3.746200	-11.198000	23.882030	0.001027	20.716957
534.115757	-3.009900	3.744500	-11.269000	23.904850	0.001029	20.728461
535.115623	-2.994500	3.745200	-11.214000	23.906287	0.001030	20.743653
536.115455	-2.971100	3.746000	-11.128000	23.887502	0.001029	20.724815
537.119059	-3.017100	3.745700	-11.301000	23.891039	0.001029	20.735949
538.116854	-3.010100	3.743700	-11.268000	23.911617	0.001031	20.744256
539.116290	-2.987700	3.744800	-11.186000	23.903204	0.001029	20.750519
540.118093	-3.007400	3.744500	-11.261000	23.916045	0.001029	20.737316
541.112216	-2.999600	3.743700	-11.229000	23.905617	0.001029	20.740611
542.117941	-3.014600	3.743400	-11.283000	23.903628	0.001031	20.740986
543.116907	-3.010000	3.743100	-11.266000	23.903235	0.001029	20.758137
544.112863	-2.996200	3.743300	-11.214000	23.924065	0.001030	20.736824
545.116959	-3.010500	3.742300	-11.266000	23.913509	0.001030	20.748524
546.118126	-3.023400	3.742300	-11.313000	23.933718	0.001029	20.738443
547.114686	-2.992600	3.741700	-11.196000	23.917666	0.001032	20.757909
548.119574	-2.984500	3.740800	-11.164000	23.895172	0.001031	20.775656
549.118167	-2.985700	3.742800	-11.174000	23.906895	0.001030	20.767023
550.117353	-2.977700	3.740200	-11.136000	23.894472	0.001031	20.758833
551.119685	-2.994000	3.741100	-11.200000	23.912268	0.001030	20.734003
552.120646	-2.997200	3.741200	-11.212000	23.922916	0.001030	20.748949
553.117108	-3.004500	3.739400	-11.234000	23.957962	0.001029	20.751849
554.121538	-2.999300	3.739400	-11.215000	23.932404	0.001029	20.756092
555.120747	-3.000100	3.740400	-11.221000	23.927627	0.001030	20.756517
556.123982	-3.021900	3.739800	-11.299000	23.918986	0.001031	20.769190
557.119098	-3.000800	3.738900	-11.219000	23.910033	0.001029	20.756893
558.121405	-3.001200	3.739000	-11.220000	23.903266	0.001030	20.750581
559.116954	-3.000300	3.737800	-11.214000	23.929543	0.001030	20.758913
560.119797	-3.007900	3.738300	-11.244000	23.943384	0.001030	20.752878
561.120220	-3.001900	3.738100	-11.220000	23.967302	0.001030	20.747939
562.117814	-2.994900	3.737700	-11.193000	23.980443	0.001029	20.772498
563.122079	-2.996400	3.736400	-11.195000	23.988775	0.001030	20.755723
564.121510	-2.982400	3.737300	-11.145000	24.016125	0.001032	20.763710
565.117217	-2.981800	3.736100	-11.139000	24.000577	0.001030	20.751911
566.122063	-2.986100	3.736500	-11.156000	24.012944	0.001027	20.742502
567.123521	-3.017200	3.734400	-11.265000	24.006349	0.001031	20.755329
568.120780	-3.008500	3.734600	-11.234000	24.016806	0.001030	20.760601
569.124934	-3.007200	3.735100	-11.230000	24.029449	0.001029	20.753839
570.124096	-2.987200	3.733800	-11.152000	24.023653	0.001031	20.784063
571.128951	-2.995200	3.734100	-11.183000	24.027134	0.001031	20.767639
572.123040	-2.981200	3.733900	-11.131000	24.029197	0.001031	20.774924
573.125528	-3.009200	3.735100	-11.238000	23.996347	0.001029	20.768058
574.121167	-2.967300	3.733800	-11.078000	24.014019	0.001028	20.757805
575.124527	-2.999100	3.732800	-11.195000	24.023027	0.001031	20.744553
576.124825	-2.983700	3.733200	-11.137000	24.038709	0.001029	20.758384
577.120925	-2.986900	3.732800	-11.149000	24.044579	0.001029	20.760003
578.125833	-2.992400	3.732200	-11.167000	24.006527	0.001030	20.764043
579.129018	-3.018800	3.731500	-11.263000	24.006159	0.001029	20.770312
580.122346	-3.032000	3.729800	-11.307000	24.041994	0.001028	20.774481
581.126714	-3.008000	3.731700	-11.224000	24.032661	0.001029	20.781716
582.122746	-3.011200	3.730600	-11.233000	24.052039	0.001031	20.772701
583.122384	-3.002200	3.730900	-11.199000	24.040600	0.001028	20.773557
584.128724	-2.999900	3.729900	-11.187000	24.047188	0.001031	20.770207
585.127886	-3.010000	3.729300	-11.223000	24.056171	0.001029	20.792493
586.126643	-2.991700	3.729000	-11.155000	24.068611	0.001028	20.784105
587.131866	-3.000800	3.729700	-11.192000	24.047962	0.001030	20.785208
588.128322	-2.998300	3.730100	-11.183000	24.068415	0.001029	20.787228
589.127493	-2.999000	3.728800	-11.182000	24.047735	0.001028	20.766962
590.128864	-2.992600	3.730100	-11.161000	24.050946	0.001030	20.776347
591.129323	-2.997700	3.727300	-11.172000	24.011949	0.001030	20.771851
592.133573	-3.014500	3.728900	-11.240000	23.996850	0.001030	20.770934
593.131032	-2.999600	3.726900	-11.179000	24.003715	0.001030	20.761223
594.128769	-2.987300	3.728700	-11.138000	24.043007	0.001028	20.790196
595.130195	-2.990200	3.728500	-11.147000	24.047090	0.001030	20.762048
596.136150	-2.985300	3.728800	-11.131000	24.030714	0.001028	20.782609
597.136889	-2.997100	3.726000	-11.166000	24.030315	0.001029	20.770355
598.129637	-3.010600	3.727000	-11.219000	24.040692	0.001029	20.790719
599.134061	-2.993900	3.726600	-11.155000	24.041165	0.001026	20.783607
600.128967	-3.005200	3.725500	-11.195000	24.056619	0.001029	20.801951
601.129568	-2.993100	3.727300	-11.155000	24.079964	0.001028	20.800233
602.136300	-2.996400	3.725200	-11.161000	24.083543	0.001028	20.781538
603.129275	-2.986600	3.724300	-11.122000	24.089321	0.001029	20.772634
604.131349	-2.994500	3.725100	-11.154000	24.062913	0.001027	20.796883
605.136318	-2.991900	3.724800	-11.143000	24.056847	0.001027	20.795067
606.129616	-2.996100	3.723300	-11.154000	24.050326	0.001028	20.809864
607.137965	-2.970900	3.725800	-11.068000	24.075537	0.001028	20.793897
608.134533	-2.995000	3.723600	-11.151000	24.054563	0.001028	20.788035
609.131724	-2.990400	3.723400	-11.134000	24.085343	0.001028	20.800412
610.131399	-2.995400	3.723000	-11.151000	24.082058	0.001028	20.801859
611.138252	-3.006700	3.722900	-11.192000	24.120800	0.001027	20.806576
612.131995	-3.006300	3.722000	-11.189000	24.129138	0.001027	20.820628
613.136947	-2.990900	3.721900	-11.132000	24.118289	0.001027	20.804057
614.137794	-3.013100	3.722100	-11.214000	24.147821	0.001027	20.791951
615.134985	-3.008200	3.722800	-11.198000	24.155759	0.001027	20.790904
616.133762	-2.986400	3.721500	-11.112000	24.179771	0.001026	20.805504
617.140354	-3.019300	3.720800	-11.233000	24.202535	0.001027	20.807475
618.135629	-3.008400	3.719800	-11.189000	24.222967	0.001027	20.798571
619.138837	-3.015800	3.720300	-11.218000	24.227270	0.001026	20.777757
620.138095	-2.976000	3.720400	-11.070000	24.250648	0.001026	20.799784
621.137413	-2.978400	3.719800	-11.078000	24.243097	0.001028	20.805486
622.135782	-3.020000	3.717800	-11.227000	24.259390	0.001026	20.807604
623.140643	-3.015600	3.719000	-11.214000	24.254362	0.001026	20.801139
624.138350	-3.001100	3.719100	-11.161000	24.230506	0.001026	20.801865
625.153378	-2.987300	3.718500	-11.108000	24.239463	0.001025	20.795203
626.141159	-2.988700	3.719400	-11.115000	24.226472	0.001027	20.812044
627.137471	-2.998600	3.718300	-11.148000	24.213733	0.001025	20.804482
628.137578	-2.985500	3.718600	-11.101000	24.207164	0.001025	20.824446
629.140187	-2.998400	3.718300	-11.148000	24.172379	0.001027	20.798090
630.139014	-2.991300	3.716200	-11.115000	24.186984	0.001025	20.798515
631.144073	-2.980200	3.717100	-11.077000	24.200221	0.001026	20.836921
632.142031	-2.992900	3.715800	-11.120000	24.217638	0.001025	20.824994
633.138471	-3.010200	3.716000	-11.184000	24.234306	0.001023	20.828910
634.142406	-2.971800	3.718100	-11.047000	24.244183	0.001025	20.810843
635.143863	-3.006100	3.715200	-11.166000	24.263042	0.001026	20.812691
636.140016	-3.005700	3.715000	-11.165000	24.275081	0.001023	20.821921
637.144921	-3.015400	3.714400	-11.199000	24.296873	0.001024	20.854686
638.145107	-2.981700	3.714600	-11.074000	24.305959	0.001024	20.832506
639.142128	-3.006300	3.713700	-11.164000	24.292994	0.001025	20.837044
640.144179	-3.015600	3.713800	-11.199000	24.325019	0.001025	20.818910
641.146878	-3.020800	3.712900	-11.215000	24.334344	0.001026	20.829686
642.140971	-2.994700	3.713500	-11.120000	24.319421	0.001025	20.834156
643.144078	-2.982000	3.713500	-11.073000	24.310017	0.001025	20.817137
644.145705	-2.991000	3.713100	-11.105000	24.323773	0.001025	20.806280
645.143855	-3.014900	3.712200	-11.191000	24.349150	0.001024	20.829366
646.146170	-2.993500	3.712200	-11.111000	24.342318	0.001024	20.835314
647.144736	-3.027600	3.710500	-11.233000	24.329353	0.001023	20.840327
648.141559	-2.992800	3.712000	-11.109000	24.340397	0.001023	20.844292
649.144619	-3.000500	3.712100	-11.137000	24.338936	0.001025	20.844723
650.145888	-3.013900	3.710800	-11.181000	24.338267	0.001024	20.832199
651.142648	-2.980900	3.710200	-11.059000	24.314952	0.001022	20.822088
652.144973	-3.024900	3.709400	-11.220000	24.261987	0.001022	20.829649
653.145049	-2.989100	3.709100	-11.084000	24.289010	0.001023	20.844428
654.142869	-3.015500	3.709000	-11.183000	24.296045	0.001023	20.844846
655.147742	-3.003600	3.710000	-11.143000	24.287820	0.001020	20.842759
656.153591	-2.998600	3.710800	-11.126000	24.338568	0.001022	20.838190
657.145471	-3.010900	3.709800	-11.169000	24.354792	0.001022	20.817956
658.149690	-2.990400	3.708900	-11.090000	24.374723	0.001022	20.828942
659.149261	-3.002200	3.708300	-11.133000	24.346689	0.001022	20.815992
660.149170	-2.984300	3.709200	-11.069000	24.341662	0.001021	20.833708
661.150357	-2.991500	3.708300	-11.092000	24.347739	0.001020	20.829847
662.152278	-2.996200	3.707500	-11.107000	24.350453	0.001021	20.845371
663.146015	-3.016900	3.707500	-11.184000	24.320576	0.001021	20.834841
664.151222	-3.000300	3.708300	-11.125000	24.318115	0.001020	20.822889
665.153799	-3.021000	3.706200	-11.195000	24.320503	0.001021	20.835242
666.155770	-2.999500	3.706500	-11.117000	24.296568	0.001020	20.814078
667.149035	-2.983700	3.707000	-11.059000	24.303990	0.001020	20.798289
668.154159	-2.985000	3.706600	-11.063000	24.307852	0.001020	20.822077
669.149193	-2.995400	3.705400	-11.099000	24.300510	0.001019	20.826092
670.151062	-3.002300	3.705100	-11.123000	24.314168	0.001020	20.810396
671.152871	-3.018200	3.705000	-11.180000	24.348526	0.001018	20.825421
672.150630	-3.009800	3.704700	-11.149000	24.346334	0.001020	20.801411
673.151400	-2.978000	3.705800	-11.035000	24.344622	0.001019	20.823401
674.154995	-2.973700	3.705000	-11.016000	24.334555	0.001017	20.799078
675.154516	-2.988700	3.703700	-11.068000	24.358384	0.001018	20.817767
676.155455	-3.002000	3.704400	-11.118000	24.353136	0.001019	20.807761
677.158218	-3.006900	3.703600	-11.135000	24.347219	0.001018	20.802773
678.161769	-2.984800	3.702600	-11.051000	24.359434	0.001017	20.826881
679.157747	-3.004300	3.703900	-11.127000	24.325224	0.001019	20.802994
680.156802	-3.013900	3.701200	-11.153000	24.321547	0.001018	20.802151
681.154109	-3.016600	3.702200	-11.168000	24.345328	0.001016	20.809411
682.166697	-2.984400	3.703100	-11.051000	24.315826	0.001016	20.813481
683.158390	-3.004700	3.701200	-11.120000	24.305360	0.001018	20.798715
684.156099	-2.997000	3.700600	-11.089000	24.306355	0.001013	20.800661
685.158746	-3.005000	3.699600	-11.117000	24.342750	0.001015	20.790704
686.162108	-2.978400	3.701300	-11.022000	24.354972	0.001017	20.799646
687.171347	-2.989800	3.700800	-11.064000	24.373031	0.001017	20.778881
688.156038	-2.997100	3.701200	-11.092000	24.394405	0.001017	20.781357
689.161173	-2.998800	3.700000	-11.094000	24.421916	0.001015	20.789516
690.155102	-2.998700	3.700500	-11.096000	24.438132	0.001015	20.791560
691.159071	-3.016300	3.699000	-11.156000	24.397290	0.001016	20.776664
692.160141	-3.002200	3.698200	-11.102000	24.419970	0.001015	20.803685
693.157211	-2.989600	3.698100	-11.055000	24.434032	0.001015	20.804517
694.160773	-3.009400	3.696500	-11.123000	24.431933	0.001014	20.779176
695.161561	-2.997400	3.696700	-11.078000	24.438507	0.001012	20.778660
696.158662	-3.019600	3.697300	-11.163000	24.436193	0.001013	20.761165
697.159177	-3.015100	3.697200	-11.146000	24.438826	0.001013	20.798420
698.162758	-2.995800	3.696800	-11.074000	24.424297	0.001015	20.782896
699.167147	-3.006100	3.695800	-11.109000	24.409996	0.001012	20.788463
700.159027	-2.998000	3.696900	-11.081000	24.409541	0.001013	20.768566
701.162193	-3.007000	3.696500	-11.115000	24.433099	0.001013	20.786036
702.159687	-2.992500	3.695700	-11.058000	24.430662	0.001013	20.769367
703.161883	-3.011600	3.696300	-11.129000	24.436131	0.001014	20.768215
704.164744	-2.994000	3.696600	-11.066000	24.441495	0.001011	20.777864
705.169069	-3.014600	3.693800	-11.134000	24.451531	0.001012	20.778924
706.159455	-3.018800	3.693000	-11.146000	24.456306	0.001013	20.758110
707.164460	-2.998600	3.694300	-11.077000	24.439335	0.001012	20.783757
708.158591	-3.009400	3.693300	-11.113000	24.451997	0.001010	20.782237
709.162806	-3.001100	3.692700	-11.080000	24.495747	0.001013	20.776817
710.165606	-3.010900	3.692600	-11.117000	24.480630	0.001009	20.775876
711.162921	-3.008100	3.693400	-11.110000	24.496919	0.001010	20.784632
712.161756	-2.999200	3.693300	-11.075000	24.522065	0.001009	20.770031
713.164340	-3.011100	3.692400	-11.117000	24.544080	0.001011	20.773154
714.159260	-3.011900	3.692600	-11.121000	24.542687	0.001010	20.785032
715.160119	-3.010500	3.691800	-11.113000	24.594424	0.001009	20.784312
716.172413	-2.997200	3.692500	-11.065000	24.582750	0.001009	20.784453
717.165019	-3.019500	3.691000	-11.144000	24.580419	0.001009	20.767414
718.160618	-2.995500	3.692500	-11.060000	24.543239	0.001010	20.764724
719.163373	-3.005600	3.691400	-11.094000	24.555201	0.001009	20.762026
720.162612	-2.997300	3.692300	-11.066000	24.557214	0.001010	20.766417
721.162250	-3.001300	3.690500	-11.076000	24.525950	0.001008	20.772507
722.164280	-2.980100	3.690500	-10.996000	24.532395	0.001009	20.752894
723.164744	-2.988700	3.691300	-11.031000	24.535807	0.001008	20.784294
724.162315	-3.013600	3.689500	-11.118000	24.536770	0.001009	20.791424
725.167439	-2.996700	3.690100	-11.058000	24.552617	0.001007	20.775556
726.166573	-3.024200	3.687400	-11.149000	24.541184	0.001008	20.757919
727.162344	-2.996200	3.690600	-11.057000	24.565653	0.001008	20.778678
728.171307	-2.998700	3.688200	-11.058000	24.537379	0.001008	20.759791
729.170327	-3.010700	3.689200	-11.105000	24.530769	0.001006	20.758375
730.167258	-3.004400	3.687900	-11.079000	24.514008	0.001008	20.764792
731.168037	-3.000400	3.688200	-11.065000	24.482417	0.001008	20.751115
732.166873	-2.993900	3.688500	-11.042000	24.482725	0.001005	20.758062
733.168709	-3.036100	3.685100	-11.186000	24.460880	0.001006	20.767914
734.169443	-3.002000	3.685500	-11.062000	24.479343	0.001007	20.761781
735.170397	-2.995900	3.687000	-11.046000	24.484198	0.001006	20.746263
736.164757	-3.008500	3.687300	-11.092000	24.528124	0.001008	20.760938
737.169853	-3.006000	3.686400	-11.080000	24.522184	0.001005	20.754503
738.163339	-3.013500	3.686200	-11.107000	24.508147	0.001007	20.769818
739.164453	-3.008300	3.685800	-11.087000	24.519299	0.001003	20.760618
740.168610	-3.015600	3.686100	-11.115000	24.546439	0.001006	20.753709
741.164384	-2.997000	3.684300	-11.041000	24.545819	0.001004	20.739810
742.168350	-2.994900	3.683900	-11.032000	24.553429	0.001004	20.758352
743.167912	-3.011200	3.684500	-11.093000	24.590891	0.001004	20.774603
744.164213	-2.986900	3.685100	-11.006000	24.583085	0.001004	20.754916
745.167390	-2.990700	3.683800	-11.017000	24.624921	0.001002	20.732408
746.169477	-2.999700	3.682600	-11.046000	24.623724	0.001001	20.757761
747.163078	-2.965600	3.684800	-10.927000	24.617440	0.001002	20.753352
748.163706	-2.978900	3.683700	-10.973000	24.615642	0.001003	20.749177
749.169987	-3.004100	3.684700	-11.068000	24.602546	0.001002	20.763538
750.165454	-2.974600	3.683600	-10.957000	24.584183	0.001002	20.754122
751.172255	-3.008600	3.682200	-11.077000	24.562728	0.001004	20.752035
752.166530	-2.999200	3.681700	-11.041000	24.529200	0.001002	20.758224
753.168254	-3.015700	3.680900	-11.099000	24.491798	0.001002	20.744880
754.166404	-3.016200	3.681500	-11.102000	24.499685	0.001001	20.744732
755.170690	-2.994900	3.681700	-11.025000	24.535031	0.001001	20.729934
756.169498	-3.002600	3.680900	-11.051000	24.549957	0.001001	20.744911
757.170687	-2.992600	3.680200	-11.013000	24.557175	0.001002	20.740299
758.174135	-2.995700	3.679300	-11.021000	24.539991	0.001001	20.732539
759.171465	-3.010200	3.680600	-11.079000	24.535173	0.001001	20.735293
760.170379	-3.001300	3.679300	-11.041000	24.553671	0.001000	20.734886
761.170630	-2.978200	3.680800	-10.962000	24.527219	0.000999	20.740589
762.169069	-3.002900	3.678500	-11.045000	24.518860	0.000999	20.736943
763.172581	-2.987500	3.677900	-10.987000	24.527594	0.000998	20.759457
764.174593	-2.990600	3.678900	-11.001000	24.543245	0.000998	20.734856
765.172193	-2.993400	3.678200	-11.009000	24.563688	0.000998	20.735453
766.173345	-2.994300	3.679400	-11.016000	24.568893	0.000997	20.741624
767.171092	-3.015900	3.677400	-11.089000	24.564738	0.000998	20.738403
768.175758	-3.020900	3.676700	-11.107000	24.553280	0.000999	20.724536
769.173368	-2.969300	3.679000	-10.923000	24.572379	0.000998	20.732793
770.170641	-3.028800	3.676300	-11.134000	24.541227	0.000998	20.743737
771.175167	-2.994000	3.675800	-11.005000	24.551949	0.000997	20.732683
772.172108	-2.995500	3.675800	-11.010000	24.542221	0.000997	20.727664
773.172776	-2.978600	3.677000	-10.951000	24.573134	0.000997	20.714110
774.174297	-2.969100	3.676500	-10.915000	24.586544	0.000996	20.710495
775.177967	-2.991600	3.675400	-10.994000	24.603482	0.000996	20.731760
776.173973	-3.006200	3.675100	-11.047000	24.606373	0.000995	20.719013
777.177413	-2.994200	3.675800	-11.003000	24.613210	0.000995	20.731563
778.173770	-3.020100	3.673300	-11.092000	24.589208	0.000995	20.734506
779.174067	-3.009200	3.673500	-11.052000	24.624453	0.000996	20.722929
780.173459	-3.014700	3.673300	-11.073000	24.629055	0.000995	20.710951
781.178007	-2.997400	3.673900	-11.011000	24.599383	0.000994	20.724801
782.177083	-2.976100	3.676000	-10.939000	24.589312	0.000993	20.715644
783.177269	-3.021900	3.673000	-11.098000	24.563119	0.000994	20.723502
784.176959	-3.035900	3.671300	-11.144000	24.568520	0.000995	20.729395
785.178490	-3.009100	3.672700	-11.051000	24.581328	0.000994	20.751731
786.178061	-3.005900	3.672400	-11.037000	24.555589	0.000993	20.728275
787.181755	-3.018000	3.671400	-11.079000	24.551489	0.000993	20.727006
788.177590	-2.995600	3.672300	-10.999000	24.524920	0.000994	20.722634
789.182343	-3.008900	3.671400	-11.045000	24.538901	0.000993	20.721014
790.179605	-2.980300	3.672700	-10.944000	24.505519	0.000991	20.730670
791.179901	-2.981100	3.671700	-10.944000	24.506895	0.000992	20.713557
792.183679	-3.002600	3.669300	-11.017000	24.509958	0.000992	20.714733
793.195733	-2.992200	3.669300	-10.978000	24.533587	0.000990	20.730381
794.182096	-3.007100	3.670600	-11.037000	24.527517	0.000990	20.732826
795.184547	-2.959800	3.670300	-10.861000	24.564948	0.000991	20.731028
796.180996	-2.987400	3.670100	-10.961000	24.547543	0.000990	20.724470
797.183174	-3.006500	3.668200	-11.028000	24.596365	0.000993	20.717505
798.180429	-2.987600	3.668700	-10.959000	24.600268	0.000989	20.708144
799.181592	-3.001700	3.668300	-11.010000	24.588601	0.000990	20.716827
800.182908	-3.007300	3.668100	-11.030000	24.589074	0.000990	20.738165
801.189217	-2.999600	3.668100	-11.002000	24.575124	0.000988	20.727013
802.183371	-3.004100	3.667400	-11.016000	24.557915	0.000988	20.726342
803.185030	-2.989500	3.668300	-10.965000	24.602557	0.000989	20.705699
804.185752	-3.001700	3.668000	-11.009000	24.594149	0.000988	20.733300
805.183901	-3.010700	3.669000	-11.045000	24.601636	0.000986	20.730381
806.184426	-3.007600	3.667200	-11.027000	24.571172	0.000989	20.711193
807.187679	-3.013900	3.666500	-11.049000	24.550256	0.000987	20.722924
808.188299	-2.979700	3.668100	-10.929000	24.527867	0.000986	20.716581
809.190637	-2.982100	3.667600	-10.936000	24.554730	0.000988	20.710343
810.189667	-2.978500	3.667400	-10.922000	24.547046	0.000984	20.703107
811.188832	-3.001300	3.664600	-10.998000	24.570951	0.000986	20.715239
812.187370	-3.016000	3.665700	-11.054000	24.603306	0.000985	20.716409
813.188714	-2.999400	3.664400	-10.990000	24.607160	0.000985	20.714112
814.189061	-2.981100	3.665500	-10.925000	24.593161	0.000986	20.709074
815.189156	-2.981500	3.665000	-10.926000	24.558413	0.000984	20.707873
816.192117	-3.001600	3.663600	-10.996000	24.559732	0.000983	20.731484
817.190517	-2.995700	3.664500	-10.977000	24.560033	0.000983	20.683893
818.192242	-2.968900	3.664800	-10.880000	24.536030	0.000984	20.709124
819.191231	-2.980000	3.663900	-10.917000	24.619729	0.000983	20.695902
820.193093	-2.978700	3.663400	-10.912000	24.615875	0.000983	20.707209
821.194802	-2.998300	3.663300	-10.983000	24.637360	0.000983	20.713120
822.191528	-3.008300	3.662400	-11.017000	24.668725	0.000983	20.702867
823.194740	-3.006200	3.663000	-11.011000	24.668676	0.000984	20.706137
824.191193	-2.998800	3.662000	-10.981000	24.691357	0.000984	20.693808
825.197206	-2.998800	3.661800	-10.980000	24.679747	0.000982	20.693538
826.194118	-2.998400	3.662200	-10.979000	24.687583	0.000981	20.703299
827.190718	-2.978700	3.661100	-10.904000	24.679900	0.000981	20.684682
828.190829	-3.001600	3.660600	-10.986000	24.714117	0.000980	20.701950
829.193558	-3.005700	3.660200	-11.000000	24.716094	0.000981	20.699192
830.197783	-2.998400	3.659800	-10.972000	24.745511	0.000980	20.690779
831.194847	-3.009400	3.658600	-11.009000	24.742873	0.000980	20.695244
832.192739	-2.993100	3.659900	-10.953000	24.746309	0.000979	20.703909
833.196159	-2.991600	3.661200	-10.952000	24.757901	0.000979	20.696575
834.195601	-2.999100	3.660300	-10.976000	24.765362	0.000980	20.694579
835.195328	-2.970800	3.660100	-10.871000	24.775438	0.000980	20.714176
836.197674	-3.000600	3.659200	-10.979000	24.760301	0.000980	20.701354
837.195110	-3.002900	3.656600	-10.979000	24.748489	0.000979	20.687603
838.195207	-2.996800	3.658400	-10.962000	24.707560	0.000980	20.706275
839.194541	-3.004400	3.658000	-10.989000	24.682964	0.000978	20.689654
840.196074	-2.996800	3.659600	-10.966000	24.658866	0.000978	20.683489
841.199777	-2.998600	3.657700	-10.966000	24.682296	0.000979	20.665273
842.195973	-2.989300	3.656700	-10.930000	24.675005	0.000976	20.696366
843.200418	-2.992400	3.655500	-10.937000	24.671330	0.000976	20.685091
844.197260	-2.996900	3.656000	-10.956000	24.700423	0.000976	20.699113
845.196657	-3.019500	3.656100	-11.038000	24.714654	0.000977	20.681149
846.202163	-3.001900	3.657000	-10.976000	24.706149	0.000976	20.675459
847.201324	-2.988400	3.656600	-10.926000	24.705498	0.000976	20.672909
848.197364	-2.987900	3.656100	-10.923000	24.687273	0.000974	20.656990
849.202133	-2.997300	3.655000	-10.954000	24.735689	0.000976	20.691828
850.202506	-2.996400	3.655700	-10.952000	24.697693	0.000975	20.700166
851.197147	-3.000500	3.654000	-10.963000	24.692397	0.000974	20.705758
852.197636	-2.999600	3.655400	-10.963000	24.711150	0.000973	20.690911
853.201833	-2.993600	3.653900	-10.937000	24.737113	0.000974	20.696102
854.197674	-3.020400	3.654000	-11.034000	24.735346	0.000975	20.706183
855.200981	-2.993200	3.653800	-10.935000	24.762050	0.000974	20.683668
856.199577	-3.003500	3.653900	-10.973000	24.785380	0.000972	20.685744
857.196837	-2.998700	3.652500	-10.952000	24.802413	0.000974	20.677707
858.203527	-3.003800	3.654500	-10.976000	24.755883	0.000973	20.682221
859.198119	-2.995400	3.654000	-10.944000	24.747410	0.000975	20.690313
860.198238	-2.982500	3.654100	-10.898000	24.710972	0.000973	20.672238
861.198903	-3.000100	3.652400	-10.957000	24.718507	0.000971	20.675533
862.198009	-3.006100	3.651400	-10.976000	24.704903	0.000973	20.687012
863.200302	-3.011300	3.651100	-10.993000	24.714905	0.000972	20.665753
864.201536	-3.013400	3.650100	-10.997000	24.748852	0.000970	20.690812
865.200087	-3.018000	3.650800	-11.017000	24.769193	0.000969	20.679456
866.197172	-3.003500	3.650900	-10.964000	24.770292	0.000971	20.674868
867.200504	-3.013500	3.650100	-10.998000	24.764272	0.000969	20.665981
868.202037	-2.992400	3.650500	-10.923000	24.796523	0.000971	20.668476
869.200515	-3.023400	3.648500	-11.030000	24.816894	0.000970	20.652408
870.204527	-2.995900	3.651100	-10.936000	24.813464	0.000973	20.670779
871.203537	-2.981400	3.649000	-10.878000	24.819551	0.000968	20.670249
872.200375	-3.003100	3.648200	-10.954000	24.833031	0.000969	20.679512
873.204752	-3.001700	3.650300	-10.955000	24.851211	0.000972	20.667885
874.206973	-2.989400	3.648700	-10.906000	24.870606	0.000970	20.664116
875.202785	-2.993600	3.648300	-10.921000	24.865514	0.000968	20.648098
876.206140	-3.009500	3.647500	-10.975000	24.854893	0.000966	20.673477
877.208005	-3.004100	3.646600	-10.954000	24.845070	0.000969	20.658875
878.203846	-2.988800	3.647100	-10.900000	24.814336	0.000966	20.674025
879.209396	-3.007300	3.646100	-10.965000	24.808876	0.000966	20.659535
880.212016	-2.998500	3.646700	-10.932000	24.818245	0.000967	20.660403
881.205018	-2.972200	3.647700	-10.840000	24.770697	0.000966	20.677172
882.206594	-3.019800	3.646400	-11.011000	24.773735	0.000965	20.676427
883.208902	-3.012600	3.644900	-10.980000	24.780657	0.000965	20.672942
884.205648	-3.007300	3.646300	-10.965000	24.764684	0.000965	20.676828
885.206107	-2.994300	3.645200	-10.913000	24.750989	0.000965	20.662608
886.206280	-2.987300	3.646700	-10.893000	24.734924	0.000964	20.650279
887.208560	-3.009000	3.643000	-10.961000	24.755560	0.000963	20.673835
888.213703	-3.022000	3.644500	-11.012000	24.771207	0.000963	20.664881
889.209074	-3.016100	3.642900	-10.984000	24.812238	0.000964	20.669075
890.206032	-2.991900	3.643700	-10.900000	24.808557	0.000963	20.659689
891.209109	-3.009600	3.641900	-10.960000	24.805648	0.000962	20.651554
892.209483	-2.996200	3.642500	-10.913000	24.797022	0.000963	20.658069
893.212161	-3.040000	3.640100	-11.063000	24.823252	0.000962	20.660212
894.214592	-2.991200	3.642300	-10.894000	24.834094	0.000962	20.660662
895.208241	-2.992300	3.642300	-10.898000	24.818251	0.000959	20.651873
896.208397	-2.983900	3.642800	-10.868000	24.853195	0.000961	20.674143
897.214691	-2.991700	3.642300	-10.895000	24.859287	0.000961	20.671723
898.209218	-2.999900	3.640700	-10.920000	24.852323	0.000959	20.671372
899.207514	-2.986100	3.641800	-10.873000	24.912126	0.000960	20.649361
900.214011	-2.987400	3.641800	-10.879000	24.912892	0.000960	20.653450
901.213414	-3.031100	3.640300	-11.033000	24.938556	0.000959	20.656924
902.207212	-3.004800	3.641000	-10.939000	24.909340	0.000958	20.651307
903.213604	-3.018200	3.640000	-10.985000	24.898401	0.000958	20.671150
904.213866	-2.994600	3.640500	-10.900000	24.889474	0.000959	20.660293
905.209085	-2.995700	3.639600	-10.902000	24.906702	0.000958	20.654824
906.212344	-2.984500	3.639000	-10.860000	24.927586	0.000957	20.650180
907.211457	-2.994000	3.638800	-10.893000	24.955832	0.000957	20.653875
908.210023	-3.011800	3.639500	-10.961000	24.946961	0.000957	20.660145
909.214921	-2.999900	3.639400	-10.917000	24.902646	0.000959	20.680628
910.213684	-2.992600	3.639000	-10.889000	24.885044	0.000957	20.662011
911.209915	-3.031700	3.637800	-11.027000	24.878780	0.000956	20.656671
912.216515	-2.985000	3.637100	-10.856000	24.886762	0.000956	20.686023
913.214246	-2.990600	3.636700	-10.875000	24.854385	0.000955	20.658266
914.211111	-2.990500	3.636700	-10.873000	24.850360	0.000955	20.656123
915.213518	-3.006800	3.636700	-10.934000	24.821491	0.000955	20.643270
916.215247	-3.001700	3.636800	-10.914000	24.833978	0.000956	20.667659
917.211541	-3.012700	3.636000	-10.953000	24.857999	0.000952	20.658575
918.215691	-2.971300	3.638700	-10.810000	24.845667	0.000953	20.659474
919.215306	-3.007500	3.635800	-10.933000	24.838101	0.000954	20.673694
920.213576	-3.007200	3.635800	-10.933000	24.822247	0.000954	20.663945
921.216385	-3.020000	3.636200	-10.980000	24.837236	0.000952	20.659074
922.215613	-2.999700	3.633900	-10.900000	24.865313	0.000953	20.653587
923.212589	-3.004700	3.634700	-10.920000	24.868295	0.000952	20.640456
924.217352	-3.000900	3.633800	-10.904000	24.884732	0.000951	20.652687
925.214639	-2.978900	3.634600	-10.826000	24.880063	0.000952	20.652743
926.211653	-2.987300	3.634100	-10.855000	24.898653	0.000950	20.661445
927.213997	-2.981200	3.632800	-10.829000	24.908678	0.000952	20.653962
928.215328	-2.998000	3.635100	-10.898000	24.905746	0.000951	20.660029
929.211730	-2.981200	3.633500	-10.831000	24.903384	0.000950	20.678523
930.217405	-2.967600	3.634600	-10.785000	24.904623	0.000951	20.671705
931.215674	-2.989400	3.633100	-10.861000	24.903825	0.000950	20.684656
932.211831	-3.003400	3.631100	-10.904000	24.909997	0.000950	20.654812
933.216947	-3.001900	3.631300	-10.898000	24.883591	0.000948	20.662923
934.216371	-2.982000	3.633000	-10.832000	24.859546	0.000948	20.658230
935.212819	-3.009000	3.631000	-10.924000	24.853582	0.000947	20.658409
936.215159	-2.983300	3.631100	-10.832000	24.863430	0.000948	20.672087
937.214500	-3.008400	3.630400	-10.921000	24.839955	0.000945	20.682193
938.213295	-2.991600	3.631800	-10.864000	24.853428	0.000945	20.665842
939.215096	-2.977900	3.632000	-10.814000	24.888812	0.000944	20.672432
940.217827	-2.986100	3.631100	-10.842000	24.898359	0.000944	20.673005
941.219265	-3.007400	3.629700	-10.915000	24.910243	0.000946	20.658852
942.217379	-2.982100	3.629400	-10.823000	24.923379	0.000946	20.666822
943.218257	-2.976700	3.629600	-10.804000	24.916359	0.000945	20.680641
944.216136	-2.987500	3.629400	-10.841000	24.947612	0.000944	20.657953
945.221006	-2.987800	3.629400	-10.842000	24.942146	0.000942	20.684238
946.226367	-3.001700	3.628200	-10.889000	24.932502	0.000943	20.655589
947.222971	-2.990900	3.629100	-10.853000	24.923225	0.000943	20.669039
948.216475	-2.984400	3.628100	-10.826000	24.945152	0.000943	20.645525
949.223381	-3.024300	3.625600	-10.964000	24.945600	0.000943	20.672530
950.217288	-2.980800	3.627100	-10.810000	24.985956	0.000943	20.665621
951.222345	-3.008800	3.626100	-10.909000	25.011139	0.000942	20.671933
952.222964	-2.974800	3.626700	-10.787000	25.003427	0.000941	20.662769
953.217995	-3.005200	3.624000	-10.889000	24.977495	0.000939	20.675147
954.222960	-2.980100	3.626000	-10.805000	24.956458	0.000940	20.673946
955.222516	-2.976200	3.626300	-10.791000	24.928366	0.000940	20.689373
956.221391	-3.029100	3.624100	-10.976000	24.929010	0.000940	20.681484
957.227101	-3.015000	3.624100	-10.926000	24.951685	0.000939	20.676742
958.227633	-3.009200	3.624900	-10.907000	24.985341	0.000938	20.679704
959.219153	-3.034500	3.623300	-10.993000	24.995537	0.000938	20.676662
960.222656	-3.012000	3.625000	-10.917000	25.007837	0.000938	20.705132
961.222635	-2.996800	3.625400	-10.863000	24.989893	0.000938	20.674315
962.220982	-2.989700	3.624400	-10.835000	24.996721	0.000938	20.677850
963.227098	-3.013600	3.623500	-10.919000	24.977857	0.000936	20.705384
964.222262	-2.963300	3.625100	-10.742000	25.013880	0.000936	20.672788
965.223021	-2.991900	3.624300	-10.843000	25.030339	0.000935	20.710176
966.224801	-2.976700	3.623900	-10.785000	25.039731	0.000935	20.677400
967.221766	-2.998300	3.621800	-10.858000	25.050196	0.000935	20.687432
968.220182	-3.020100	3.623300	-10.942000	25.078734	0.000934	20.685732
969.230656	-2.995500	3.621300	-10.847000	25.075329	0.000937	20.684211
970.226963	-3.003600	3.622000	-10.878000	25.052356	0.000935	20.678693
971.222431	-2.990000	3.620400	-10.823000	25.046571	0.000934	20.699441
972.223882	-3.018500	3.621700	-10.930000	25.024843	0.000938	20.680474
973.225480	-3.004000	3.620500	-10.875000	24.995500	0.000932	20.693221
974.223157	-2.998200	3.619300	-10.851000	25.028891	0.000933	20.700186
975.224833	-2.994500	3.620100	-10.839000	25.044227	0.000932	20.691872
976.224935	-2.988300	3.618800	-10.812000	25.039056	0.000933	20.706597
977.224702	-2.992100	3.618700	-10.827000	25.074839	0.000934	20.713119
978.226293	-3.031200	3.617100	-10.962000	25.075998	0.000933	20.691521
979.229250	-2.991700	3.618500	-10.824000	25.097014	0.000931	20.682272
980.225105	-2.982700	3.618600	-10.793000	25.093848	0.000933	20.682887
981.229406	-2.987300	3.617600	-10.806000	25.121348	0.000930	20.702434
982.228320	-2.985400	3.617800	-10.799000	25.109565	0.000930	20.693449
983.228908	-3.009100	3.617600	-10.883000	25.075151	0.000929	20.695887
984.229376	-3.005200	3.615900	-10.865000	25.071109	0.000930	20.703684
985.228089	-3.004100	3.617800	-10.867000	25.066109	0.000930	20.696294
986.225212	-3.002200	3.617500	-10.860000	25.084660	0.000929	20.693105
987.230066	-3.012300	3.615700	-10.890000	25.089205	0.000929	20.699090
988.229026	-3.001500	3.617500	-10.856000	25.115649	0.000929	20.710938
989.225842	-2.993400	3.617300	-10.827000	25.143327	0.000925	20.688461
990.230896	-2.995200	3.615600	-10.827000	25.159882	0.000927	20.702712
991.230717	-2.999700	3.614600	-10.841000	25.169003	0.000928	20.703333
992.227020	-2.992400	3.615500	-10.818000	25.178327	0.000925	20.689459
993.233783	-2.988700	3.616400	-10.807000	25.194857	0.000926	20.699417
994.234031	-3.019900	3.614400	-10.914000	25.174009	0.000926	20.704566
995.230523	-2.992900	3.615000	-10.817000	25.172561	0.000926	20.715441
996.233080	-3.004700	3.613800	-10.857000	25.154533	0.000925	20.701609
997.234715	-3.022100	3.612900	-10.916000	25.137659	0.000926	20.693677
998.229546	-2.996800	3.612800	-10.825000	25.149001	0.000925	20.697003
999.233611	-2.997400	3.614000	-10.831000	25.130679	0.000923	20.705637
1000.234975	-2.998800	3.613300	-10.834000	25.148830	0.000923	20.697305
1001.230309	-3.007800	3.611900	-10.861000	25.147290	0.000923	20.703821
1002.233495	-3.005500	3.611400	-10.853000	25.114700	0.000923	20.704295
1003.233797	-2.981200	3.613300	-10.771000	25.085391	0.000922	20.698580
1004.233658	-2.992700	3.610600	-10.804000	25.059240	0.000922	20.699830
1005.232852	-2.999300	3.610500	-10.827000	25.059688	0.000923	20.715454
1006.235450	-3.000900	3.609800	-10.832000	25.045671	0.000921	20.709444
1007.233191	-2.997100	3.610500	-10.820000	25.078091	0.000921	20.699788
1008.232652	-2.994100	3.610200	-10.807000	25.086551	0.000921	20.707806
1009.233436	-2.999300	3.609500	-10.825000	25.114818	0.000919	20.703939
1010.231058	-3.000700	3.611000	-10.834000	25.140446	0.000919	20.713546
1011.236095	-3.008700	3.610100	-10.861000	25.139225	0.000919	20.713269
1012.240313	-2.977600	3.611400	-10.752000	25.144273	0.000918	20.715966
1013.237052	-3.012400	3.609300	-10.872000	25.176894	0.000918	20.708410
1014.236404	-3.013300	3.608400	-10.872000	25.178507	0.000916	20.724255
1015.237531	-3.007700	3.607900	-10.850000	25.205710	0.000919	20.718849
1016.237119	-3.027700	3.606300	-10.918000	25.164743	0.000917	20.727982
1017.237129	-3.023500	3.605700	-10.900000	25.176680	0.000916	20.705350
1018.237701	-2.982600	3.606900	-10.757000	25.185604	0.000915	20.717156
1019.233809	-3.005400	3.606800	-10.838000	25.186654	0.000916	20.727693
1020.238536	-3.006900	3.608100	-10.848000	25.162989	0.000915	20.712944
1021.234415	-2.985000	3.606500	-10.764000	25.180293	0.000915	20.698072
1022.234254	-2.991300	3.605900	-10.786000	25.169952	0.000915	20.722305
1023.235424	-2.997400	3.605000	-10.804000	25.156856	0.000914	20.714373
1024.237073	-2.978600	3.606800	-10.741000	25.185422	0.000913	20.720292
1025.233904	-3.043500	3.603900	-10.967000	25.150544	0.000914	20.709933
1026.241570	-2.998200	3.604200	-10.804000	25.167726	0.000912	20.714380
1027.233529	-3.023800	3.603000	-10.892000	25.155372	0.000911	20.725212
1028.238917	-2.987100	3.604600	-10.766000	25.134321	0.000912	20.714510
1029.238166	-3.005900	3.604400	-10.833000	25.165500	0.000911	20.724948
1030.239958	-2.982100	3.604700	-10.749000	25.132088	0.000909	20.734081
1031.240370	-2.994600	3.603200	-10.788000	25.083371	0.000911	20.724056
1032.239337	-3.006400	3.603100	-10.832000	25.059999	0.000911	20.740424
1033.237312	-3.012200	3.602200	-10.849000	25.057196	0.000909	20.729549
1034.240137	-3.008200	3.601300	-10.833000	25.099057	0.000910	20.730793
1035.236715	-2.987700	3.602600	-10.763000	25.118908	0.000909	20.727487
1036.235840	-2.991500	3.603000	-10.777000	25.172556	0.000907	20.722548
1037.240926	-2.993600	3.601400	-10.780000	25.213792	0.000908	20.721273
1038.244168	-3.007900	3.600700	-10.830000	25.239523	0.000908	20.734778
1039.239369	-3.010400	3.600500	-10.839000	25.264804	0.000907	20.746886
1040.242189	-3.018400	3.600100	-10.866000	25.257021	0.000907	20.733380
1041.243464	-2.984600	3.601200	-10.746000	25.264640	0.000906	20.746720
1042.238952	-3.001500	3.601000	-10.806000	25.272147	0.000906	20.732920
1043.238702	-3.002000	3.601000	-10.809000	25.263419	0.000906	20.738382
1044.241116	-2.998100	3.599700	-10.791000	25.264297	0.000905	20.730254
1045.242135	-2.998400	3.600700	-10.794000	25.271583	0.000902	20.727138
1046.244251	-3.005700	3.600000	-10.820000	25.272234	0.000904	20.738697
1047.243855	-3.003200	3.598700	-10.807000	25.301629	0.000903	20.728856
1048.242279	-2.993100	3.599900	-10.774000	25.291823	0.000904	20.746038
1049.255920	-2.995100	3.598300	-10.776000	25.293841	0.000902	20.747116
1050.246819	-2.999200	3.597700	-10.788000	25.317276	0.000901	20.733186
1051.246467	-2.988900	3.596600	-10.748000	25.285561	0.000900	20.731215
1052.247416	-3.016200	3.598300	-10.852000	25.273363	0.000901	20.722760
1053.247362	-3.012500	3.596200	-10.833000	25.250492	0.000902	20.730144
1054.243948	-3.012900	3.596100	-10.833000	25.244751	0.000901	20.736709
1055.246043	-3.009500	3.595700	-10.821000	25.213416	0.000901	20.746501
1056.248285	-3.015500	3.596300	-10.844000	25.204743	0.000898	20.745854
1057.251075	-2.998300	3.597100	-10.784000	25.217397	0.000901	20.755714
1058.246671	-3.025500	3.594800	-10.874000	25.208301	0.000900	20.748004
1059.248194	-3.007300	3.594800	-10.810000	25.214930	0.000899	20.743754
1060.244523	-2.988600	3.594500	-10.741000	25.210061	0.000898	20.745977
1061.243843	-3.013100	3.594000	-10.828000	25.217047	0.000897	20.749672
1062.245454	-2.999100	3.593200	-10.775000	25.235294	0.000899	20.744284
1063.250019	-2.996100	3.594300	-10.768000	25.212870	0.000897	20.754488
1064.248860	-2.977600	3.593200	-10.698000	25.224929	0.000895	20.734825
1065.250267	-3.008900	3.591200	-10.804000	25.197634	0.000896	20.741562
1066.245509	-2.993500	3.592600	-10.753000	25.172952	0.000896	20.734801
1067.248568	-2.996800	3.592900	-10.767000	25.186243	0.000893	20.743877
1068.249456	-3.004700	3.591400	-10.790000	25.204963	0.000894	20.753188
1069.246404	-2.994100	3.592200	-10.753000	25.234913	0.000895	20.757653
1070.246302	-2.978800	3.592700	-10.700000	25.215060	0.000893	20.750522
1071.250791	-2.984800	3.591700	-10.719000	25.254406	0.000894	20.757308
1072.249214	-3.030400	3.589900	-10.878000	25.258908	0.000894	20.749500
1073.250466	-3.009600	3.590000	-10.802000	25.311346	0.000893	20.749992
1074.248063	-3.006500	3.589200	-10.790000	25.301803	0.000891	20.742307
1075.251422	-3.016600	3.589400	-10.826000	25.338294	0.000892	20.773732
1076.248699	-2.995300	3.590300	-10.752000	25.364187	0.000889	20.755159
1077.249443	-3.020200	3.588600	-10.836000	25.355840	0.000890	20.742511
1078.254520	-2.999100	3.591100	-10.768000	25.334860	0.000889	20.752265
1079.248934	-2.998500	3.589500	-10.762000	25.344427	0.000890	20.748594
1080.251548	-2.993900	3.588800	-10.744000	25.353896	0.000887	20.773750
1081.254461	-3.019200	3.587600	-10.830000	25.327402	0.000888	20.757105
1082.250241	-3.019200	3.587600	-10.831000	25.370080	0.000886	20.760603
1083.250731	-2.998400	3.588600	-10.759000	25.371473	0.000885	20.740189
1084.253326	-3.009700	3.587600	-10.796000	25.385013	0.000886	20.761372
1085.251822	-2.989000	3.587400	-10.722000	25.387626	0.000886	20.757357
1086.251324	-2.994400	3.587100	-10.740000	25.350646	0.000885	20.752942
1087.253142	-3.018400	3.585000	-10.819000	25.359072	0.000887	20.761404
1088.250812	-3.007300	3.585800	-10.783000	25.337767	0.000884	20.749493
1089.250773	-3.010900	3.585900	-10.795000	25.371270	0.000884	20.754685
1090.255757	-2.998300	3.586500	-10.753000	25.352657	0.000885	20.758755
1091.256365	-3.025800	3.583600	-10.843000	25.379948	0.000884	20.778098
1092.254242	-2.983800	3.587000	-10.701000	25.389791	0.000884	20.766170
1093.260240	-3.004600	3.584700	-10.769000	25.395580	0.000883	20.776250
1094.255934	-3.015100	3.583300	-10.803000	25.367327	0.000884	20.787236
1095.254847	-2.994400	3.585300	-10.734000	25.365904	0.000882	20.770160
1096.257551	-2.983400	3.584200	-10.692000	25.356288	0.000882	20.787058
1097.262418	-2.993100	3.583700	-10.725000	25.388154	0.000881	20.771164
1098.260771	-3.003800	3.582800	-10.761000	25.383033	0.000882	20.768867
1099.261125	-2.986700	3.583800	-10.702000	25.400228	0.000879	20.768116
1100.255044	-2.997200	3.581200	-10.733000	25.381137	0.000879	20.795888
1101.257602	-2.992900	3.582500	-10.721000	25.369982	0.000880	20.775204
1102.262704	-2.989100	3.583000	-10.708000	25.367499	0.000878	20.772710
1103.262739	-2.970600	3.581900	-10.639000	25.362231	0.000880	20.780223
1104.255122	-2.981500	3.582000	-10.679000	25.332547	0.000876	20.787876
1105.264851	-2.993300	3.581900	-10.721000	25.285735	0.000876	20.776910
1106.259115	-2.981400	3.581300	-10.675000	25.228339	0.000876	20.780925
1107.255282	-2.981000	3.580700	-10.673000	25.259313	0.000876	20.787840
1108.260837	-3.012300	3.579100	-10.780000	25.272162	0.000876	20.793154
1109.258632	-3.008100	3.578600	-10.763000	25.322189	0.000876	20.774631
1110.259426	-2.984500	3.581100	-10.687000	25.352934	0.000875	20.801707
1111.261539	-2.993600	3.579300	-10.714000	25.384456	0.000874	20.794004
1112.261182	-2.985100	3.579400	-10.684000	25.364997	0.000874	20.775414
1113.255877	-3.032600	3.576300	-10.845000	25.345612	0.000873	20.798623
1114.261845	-3.006200	3.579000	-10.759000	25.363452	0.000873	20.789035
1115.260403	-3.004200	3.577100	-10.745000	25.308207	0.000871	20.776713
1116.255818	-3.023800	3.577300	-10.816000	25.304429	0.000872	20.781455
1117.259168	-2.987500	3.577200	-10.686000	25.292500	0.000873	20.779435
1118.261299	-3.008200	3.576300	-10.757000	25.282062	0.000869	20.804042
1119.258664	-3.000900	3.575900	-10.730000	25.277094	0.000872	20.790046
1120.258276	-2.993000	3.575900	-10.702000	25.284252	0.000870	20.798180
1121.256806	-2.995400	3.576100	-10.710000	25.342141	0.000869	20.811734
1122.259231	-2.994500	3.576200	-10.707000	25.358222	0.000871	20.794215
1123.260648	-3.024600	3.573600	-10.807000	25.353335	0.000869	20.797842
1124.259755	-3.021300	3.573700	-10.797000	25.365182	0.000867	20.777022
1125.261553	-3.012200	3.574400	-10.766000	25.390038	0.000867	20.797713
1126.257879	-3.002400	3.574000	-10.729000	25.367078	0.000866	20.792202
1127.261427	-3.024700	3.574300	-10.810000	25.357406	0.000866	20.791025
1128.260182	-3.003200	3.572900	-10.729000	25.412581	0.000866	20.787158
1129.257094	-2.981000	3.573000	-10.650000	25.383182	0.000864	20.804105
1130.262757	-3.003700	3.571900	-10.727000	25.412508	0.000865	20.794671
1131.258285	-3.029600	3.571500	-10.819000	25.464963	0.000867	20.808464
1132.259976	-3.011900	3.573500	-10.762000	25.455176	0.000864	20.803852
1133.257779	-3.008800	3.571100	-10.744000	25.446561	0.000863	20.807055
1134.262383	-3.012800	3.572700	-10.763000	25.440668	0.000863	20.794025
1135.259110	-3.025000	3.571800	-10.804000	25.442036	0.000864	20.797294
1136.267706	-2.997000	3.570000	-10.698000	25.417800	0.000863	20.809468
1137.261151	-3.009300	3.569900	-10.742000	25.444347	0.000861	20.804832
1138.260186	-3.016500	3.569300	-10.766000	25.451234	0.000860	20.805109
1139.261978	-3.008300	3.569700	-10.738000	25.444158	0.000860	20.790891
1140.262298	-2.989800	3.571000	-10.675000	25.468663	0.000861	20.806489
1141.261560	-3.000800	3.568500	-10.708000	25.479596	0.000861	20.787122
1142.272871	-3.010400	3.569400	-10.745000	25.493743	0.000858	20.822666
1143.265569	-3.004300	3.567000	-10.716000	25.492676	0.000861	20.819224
1144.261942	-3.006400	3.568700	-10.728000	25.512133	0.000859	20.812684
1145.261639	-3.008000	3.567700	-10.731000	25.532589	0.000859	20.809045
1146.265843	-2.995700	3.568600	-10.688000	25.560966	0.000858	20.816207
1147.262610	-2.999000	3.566600	-10.696000	25.538108	0.000857	20.823596
1148.262868	-3.001100	3.566000	-10.701000	25.573941	0.000856	20.799840
1149.266860	-2.983700	3.566900	-10.641000	25.571336	0.000857	20.830413
1150.263403	-2.967400	3.568300	-10.588000	25.572678	0.000856	20.807581
1151.267224	-2.992700	3.565500	-10.670000	25.566939	0.000854	20.805610
1152.277051	-2.980800	3.566900	-10.631000	25.582618	0.000854	20.832261
1153.264271	-3.009600	3.564600	-10.726000	25.525122	0.000854	20.805340
1154.266543	-2.978000	3.565500	-10.616000	25.479826	0.000853	20.822914
1155.267163	-2.985900	3.564500	-10.642000	25.424451	0.000852	20.815672
1156.263686	-2.958900	3.567900	-10.555000	25.411898	0.000853	20.806860
1157.267371	-2.990600	3.564600	-10.659000	25.430345	0.000851	20.807840
1158.264067	-2.980800	3.565700	-10.627000	25.420821	0.000849	20.811553
1159.267736	-3.012300	3.562700	-10.730000	25.384296	0.000851	20.832724
1160.272570	-3.000400	3.563000	-10.689000	25.393170	0.000852	20.807496
1161.267043	-2.993400	3.563900	-10.666000	25.407833	0.000849	20.816055
1162.263307	-2.986500	3.562700	-10.639000	25.407441	0.000849	20.809497
1163.270676	-3.001900	3.562300	-10.693000	25.448074	0.000850	20.813789
1164.266916	-3.007800	3.563700	-10.716000	25.464901	0.000849	20.812195
1165.264333	-2.984800	3.562700	-10.633000	25.455856	0.000846	20.801690
1166.268590	-3.016000	3.561900	-10.741000	25.466041	0.000846	20.801486
1167.267805	-3.004900	3.560100	-10.696000	25.437189	0.000848	20.812816
1168.273110	-3.015100	3.562200	-10.739000	25.433891	0.000845	20.789116
1169.269123	-2.995600	3.560700	-10.665000	25.435265	0.000847	20.820841
1170.268984	-3.012300	3.560000	-10.722000	25.452656	0.000844	20.806062
1171.264600	-3.026900	3.559000	-10.771000	25.477884	0.000845	20.803421
1172.270278	-3.002800	3.560400	-10.690000	25.517367	0.000845	20.801819
1173.268135	-3.011700	3.559400	-10.718000	25.530048	0.000843	20.797011
1174.271362	-3.003600	3.558900	-10.688000	25.583375	0.000843	20.801254
1175.271309	-2.997300	3.559800	-10.668000	25.589880	0.000844	20.804942
1176.277030	-2.999400	3.558300	-10.672000	25.580738	0.000843	20.802399
1177.274170	-3.006000	3.557600	-10.693000	25.609170	0.000842	20.792547
1178.271811	-3.024100	3.556200	-10.753000	25.594038	0.000842	20.784461
1179.273455	-2.972600	3.559200	-10.578000	25.590862	0.000840	20.799764
1180.270704	-2.994600	3.556200	-10.649000	25.592107	0.000840	20.791531
1181.275269	-2.999800	3.558200	-10.673000	25.602917	0.000838	20.791482
1182.276883	-3.005000	3.556300	-10.686000	25.565049	0.000840	20.796599
1183.273835	-3.013200	3.556300	-10.715000	25.544894	0.000841	20.798169
1184.283237	-2.995000	3.557200	-10.653000	25.546807	0.000834	20.797246
1185.278092	-3.019600	3.555000	-10.734000	25.549738	0.000838	20.792128
1186.271553	-3.015100	3.554400	-10.716000	25.532251	0.000837	20.791162
1187.276215	-3.005900	3.554800	-10.684000	25.500138	0.000836	20.781198
1188.276308	-3.022700	3.554300	-10.742000	25.480209	0.000836	20.792005
1189.270199	-3.056500	3.551600	-10.854000	25.492877	0.000836	20.809943
1190.277325	-3.000300	3.553600	-10.661000	25.508060	0.000836	20.778722
1191.275970	-3.018500	3.552900	-10.723000	25.515541	0.000834	20.782442
1192.276250	-2.990900	3.551900	-10.622000	25.508948	0.000834	20.784356
1193.274853	-3.002900	3.552800	-10.668000	25.503258	0.000835	20.781012
1194.275470	-2.982800	3.552800	-10.596000	25.471549	0.000833	20.788525
1195.277014	-2.996500	3.552300	-10.642000	25.476075	0.000832	20.781216
1196.278827	-3.005100	3.552700	-10.675000	25.480944	0.000834	20.775200
1197.280819	-2.994200	3.550800	-10.630000	25.497770	0.000833	20.783562
1198.278690	-3.022000	3.550900	-10.729000	25.510291	0.000832	20.784757
1199.278443	-3.016900	3.549600	-10.708000	25.502866	0.000830	20.766394
1200.277960	-3.015300	3.550600	-10.705000	25.510365	0.000829	20.775347
1201.280213	-2.992500	3.552200	-10.629000	25.509721	0.000830	20.798409
1202.283471	-3.011700	3.550800	-10.693000	25.510389	0.000830	20.773001
1203.282021	-3.001500	3.550200	-10.655000	25.512750	0.000830	20.767311
1204.280410	-2.986300	3.550700	-10.602000	25.512253	0.000828	20.772028
1205.281916	-2.994300	3.549500	-10.626000	25.504153	0.000827	20.781912
1206.283473	-3.010700	3.548700	-10.682000	25.480042	0.000827	20.772871
1207.283237	-3.013000	3.548400	-10.690000	25.478950	0.000829	20.787897
1208.282254	-2.997300	3.549800	-10.639000	25.473806	0.000826	20.760919
1209.282259	-3.006300	3.547100	-10.663000	25.518685	0.000827	20.775168
1210.288163	-3.004100	3.546700	-10.653000	25.496714	0.000824	20.778235
1211.282159	-2.983600	3.548900	-10.588000	25.503975	0.000825	20.765137
1212.284214	-3.010200	3.545200	-10.671000	25.506556	0.000824	20.772945
1213.279392	-3.002400	3.547600	-10.650000	25.491570	0.000824	20.775913
1214.282895	-3.010600	3.546100	-10.675000	25.466195	0.000822	20.767027
1215.282971	-2.969900	3.548000	-10.536000	25.445352	0.000821	20.746096
1216.281877	-3.005900	3.544800	-10.655000	25.439508	0.000822	20.757772
1217.282127	-2.973200	3.547400	-10.546000	25.454587	0.000822	20.771017
1218.284009	-3.009900	3.547100	-10.675000	25.501216	0.000822	20.777065
1219.279967	-3.002700	3.544300	-10.642000	25.506931	0.000820	20.762415
1220.282976	-2.995400	3.545400	-10.618000	25.522284	0.000820	20.766454
1221.282006	-3.016100	3.544600	-10.690000	25.534493	0.000820	20.762594
1222.281689	-3.005200	3.544700	-10.652000	25.535603	0.000818	20.749483
1223.280850	-2.996400	3.543500	-10.617000	25.504919	0.000818	20.768930
1224.285347	-2.984000	3.544900	-10.577000	25.507175	0.000817	20.764083
1225.282879	-3.019900	3.542500	-10.697000	25.555562	0.000817	20.760518
1226.288787	-2.988700	3.544300	-10.591000	25.505612	0.000817	20.772945
1227.282444	-3.000600	3.542500	-10.628000	25.523480	0.000816	20.765759
1228.285785	-2.985300	3.543600	-10.577000	25.560577	0.000816	20.761288
1229.281155	-2.994100	3.542300	-10.605000	25.573803	0.000814	20.750863
1230.287358	-2.988600	3.541800	-10.584000	25.614448	0.000815	20.754698
1231.281883	-3.013000	3.541100	-10.668000	25.592503	0.000813	20.739297
1232.281513	-3.001300	3.540600	-10.626000	25.563385	0.000814	20.741822
1233.285075	-2.986800	3.541600	-10.576000	25.537467	0.000813	20.751829
1234.280253	-3.019200	3.540000	-10.686000	25.515073	0.000813	20.738823
1235.283868	-3.004800	3.540100	-10.636000	25.509204	0.000812	20.745257
1236.286931	-3.007800	3.539100	-10.644000	25.507407	0.000810	20.777592
1237.286222	-3.000000	3.538800	-10.616000	25.465562	0.000811	20.750744
1238.283707	-3.020800	3.538100	-10.687000	25.469235	0.000811	20.753484
1239.289926	-2.989300	3.539200	-10.578000	25.457007	0.000812	20.753533
1240.291285	-2.989000	3.539200	-10.577000	25.424556	0.000810	20.760301
1241.284749	-2.995500	3.537900	-10.596000	25.438967	0.000810	20.755805
1242.287363	-3.003000	3.538500	-10.624000	25.470603	0.000808	20.764340
1243.288674	-3.007500	3.539200	-10.643000	25.492169	0.000808	20.748539
1244.284314	-3.011600	3.537800	-10.654000	25.540573	0.000806	20.763010
1245.286420	-2.999500	3.537100	-10.609000	25.569048	0.000808	20.751777
1246.289034	-3.011500	3.536400	-10.650000	25.589552	0.000805	20.751032
1247.286273	-3.012800	3.535800	-10.652000	25.637774	0.000806	20.738297
1248.288647	-3.007500	3.537200	-10.638000	25.632938	0.000805	20.754777
1249.289993	-2.995200	3.536000	-10.590000	25.628542	0.000803	20.746568
1250.285794	-2.967700	3.536700	-10.494000	25.620362	0.000802	20.744043
1251.285573	-2.984200	3.536000	-10.551000	25.599246	0.000805	20.723783
1252.293606	-2.999000	3.534800	-10.600000	25.582575	0.000802	20.738809
1253.285061	-3.001000	3.534900	-10.606000	25.545326	0.000802	20.752135
1254.288091	-2.995300	3.534800	-10.586000	25.514189	0.000803	20.732244
1255.285967	-3.000200	3.533900	-10.601000	25.538618	0.000802	20.754882
1256.287344	-2.999300	3.532100	-10.593000	25.538446	0.000801	20.732423
1257.290390	-2.992700	3.532800	-10.571000	25.510467	0.000800	20.737516
1258.289972	-3.002700	3.532500	-10.606000	25.518837	0.000800	20.744025
1259.286479	-3.013000	3.531200	-10.638000	25.556265	0.000800	20.758380
1260.287264	-3.016700	3.530700	-10.649000	25.552660	0.000796	20.739111
1261.287596	-2.989600	3.532700	-10.560000	25.550348	0.000800	20.752911
1262.286341	-3.029800	3.530100	-10.694000	25.529629	0.000798	20.723568
1263.287754	-3.013700	3.530200	-10.638000	25.541863	0.000798	20.742019
1264.294905	-3.022000	3.530800	-10.668000	25.558437	0.000798	20.733059
1265.290922	-3.002100	3.529600	-10.595000	25.551208	0.000798	20.755197
1266.295068	-3.014600	3.529800	-10.640000	25.534732	0.000796	20.732012
1267.295629	-2.979400	3.531300	-10.519000	25.551704	0.000796	20.744316
1268.290794	-3.016900	3.528200	-10.643000	25.545947	0.000794	20.720515
1269.294394	-3.009500	3.527800	-10.616000	25.552900	0.000794	20.711376
1270.295896	-2.995100	3.527800	-10.564000	25.573730	0.000793	20.743202
1271.292687	-3.007400	3.528200	-10.610000	25.590223	0.000793	20.736058
1272.295931	-3.008900	3.528100	-10.614000	25.607796	0.000793	20.732370
1273.296943	-3.002200	3.527200	-10.588000	25.624823	0.000792	20.719598
1274.295580	-2.989000	3.527500	-10.542000	25.658073	0.000793	20.726440
1275.294554	-2.997600	3.527200	-10.572000	25.660636	0.000792	20.747034
1276.297763	-2.995300	3.527400	-10.564000	25.650096	0.000791	20.757311
1277.298578	-2.990400	3.526000	-10.544000	25.653383	0.000789	20.725998
1278.299411	-2.983900	3.526300	-10.521000	25.630428	0.000790	20.718115
1279.295000	-2.990800	3.525500	-10.543000	25.623046	0.000788	20.734884
1280.295816	-2.989500	3.524900	-10.537000	25.617884	0.000788	20.727329
1281.300153	-3.010500	3.523700	-10.607000	25.641416	0.000790	20.731997
1282.298998	-3.024400	3.523600	-10.655000	25.656781	0.000787	20.709495
1283.297947	-3.006400	3.523500	-10.592000	25.586787	0.000785	20.734030
1284.300169	-3.000100	3.524400	-10.571000	25.581569	0.000784	20.734005
1285.305239	-2.982400	3.523800	-10.507000	25.590522	0.000785	20.721659
1286.299777	-3.003000	3.522100	-10.576000	25.603496	0.000786	20.716197
1287.298761	-3.019300	3.522900	-10.636000	25.589756	0.000785	20.717570
1288.301046	-3.031200	3.519900	-10.669000	25.651039	0.000785	20.721272
1289.302419	-3.018000	3.520900	-10.625000	25.658795	0.000785	20.718156
1290.303319	-3.001700	3.520000	-10.565000	25.646153	0.000783	20.737703
1291.301716	-3.002800	3.519800	-10.568000	25.656711	0.000783	20.731711
1292.301858	-3.004800	3.521800	-10.580000	25.593081	0.000781	20.735609
1293.307634	-2.984800	3.520600	-10.507000	25.589280	0.000782	20.726575
1294.304687	-3.003400	3.519600	-10.569000	25.579267	0.000781	20.716993
1295.306159	-2.998800	3.520200	-10.556000	25.579949	0.000781	20.711988
1296.303639	-2.991600	3.519900	-10.529000	25.534428	0.000783	20.715584
1297.307795	-3.006700	3.519700	-10.582000	25.508753	0.000780	20.744330
1298.306363	-3.014800	3.518500	-10.607000	25.446507	0.000780	20.718331
1299.304679	-3.005300	3.519000	-10.574000	25.426228	0.000780	20.706027
1300.307459	-2.997800	3.518400	-10.547000	25.430232	0.000778	20.706255
1301.304126	-2.988300	3.517800	-10.510000	25.404660	0.000779	20.733684
1302.303531	-3.001300	3.517400	-10.556000	25.396192	0.000778	20.703842
1303.304501	-2.983800	3.517900	-10.496000	25.415105	0.000778	20.703866
1304.303211	-3.016600	3.516400	-10.606000	25.411278	0.000776	20.703343
1305.308393	-3.015600	3.516100	-10.601000	25.408175	0.000774	20.713979
1306.307062	-2.993600	3.516300	-10.526000	25.429351	0.000776	20.727656
1307.304755	-3.002800	3.514900	-10.554000	25.445755	0.000774	20.692918
1308.307271	-2.989600	3.515500	-10.509000	25.462410	0.000775	20.713912
1309.307407	-3.003600	3.515200	-10.557000	25.494745	0.000774	20.691853
1310.304742	-2.998900	3.515400	-10.541000	25.496934	0.000774	20.722503
1311.312251	-2.989500	3.515500	-10.508000	25.516349	0.000773	20.697901
1312.307855	-2.981000	3.513800	-10.474000	25.520549	0.000773	20.695007
1313.306720	-2.990600	3.514500	-10.510000	25.526068	0.000773	20.721888
1314.310746	-3.031200	3.512100	-10.645000	25.531832	0.000771	20.705864
1315.308569	-3.003400	3.513000	-10.551000	25.517643	0.000771	20.709633
1316.304311	-2.997400	3.513000	-10.528000	25.541471	0.000770	20.692784
1317.307209	-2.979600	3.513400	-10.466000	25.523413	0.000771	20.699306
1318.307761	-3.011700	3.511700	-10.575000	25.578059	0.000770	20.697761
1319.304965	-3.029500	3.510800	-10.633000	25.608526	0.000768	20.706549
1320.309227	-2.986300	3.511400	-10.485000	25.606963	0.000768	20.709246
1321.306888	-3.000600	3.511200	-10.534000	25.619766	0.000766	20.686541
1322.305516	-2.995400	3.510600	-10.513000	25.655401	0.000766	20.704789
1323.309684	-3.003500	3.510600	-10.542000	25.677564	0.000767	20.683900
1324.308376	-3.001400	3.510100	-10.534000	25.713295	0.000765	20.710781
1325.306033	-2.976400	3.509700	-10.445000	25.711609	0.000765	20.696285
1326.309043	-3.005600	3.509200	-10.546000	25.714865	0.000766	20.707616
1327.305506	-2.991800	3.510600	-10.501000	25.713309	0.000764	20.675230
1328.309239	-2.980100	3.509100	-10.456000	25.700839	0.000763	20.683569
1329.308883	-2.993400	3.508900	-10.503000	25.683893	0.000762	20.707328
1330.305611	-3.022400	3.507800	-10.601000	25.702881	0.000764	20.715969
1331.309759	-3.011400	3.506800	-10.560000	25.720837	0.000763	20.703657
1332.309831	-2.990500	3.508200	-10.490000	25.730960	0.000764	20.688694
1333.306237	-3.022000	3.505600	-10.593000	25.747482	0.000762	20.663561
1334.305450	-2.995000	3.507100	-10.502000	25.767511	0.000762	20.678465
1335.313050	-3.002600	3.506300	-10.526000	25.770140	0.000763	20.677787
1336.314306	-2.981200	3.506900	-10.454000	25.723463	0.000762	20.693018
1337.309573	-2.996900	3.506200	-10.506000	25.711693	0.000761	20.676926
1338.310043	-2.986100	3.506000	-10.468000	25.685501	0.000759	20.700408
1339.305273	-3.008200	3.505400	-10.545000	25.675741	0.000759	20.672111
1340.305765	-3.001700	3.504400	-10.517000	25.675871	0.000761	20.669395
1341.311858	-3.007300	3.502600	-10.533000	25.634173	0.000758	20.691528
1342.307683	-2.996700	3.503800	-10.499000	25.645958	0.000759	20.678707
1343.311721	-2.984900	3.503600	-10.456000	25.654732	0.000757	20.657645
1344.312428	-3.015800	3.501100	-10.556000	25.692002	0.000755	20.676115
1345.311976	-2.995900	3.502900	-10.493000	25.716654	0.000756	20.674323
1346.311301	-3.005000	3.501700	-10.522000	25.743310	0.000757	20.678338
1347.313854	-3.016400	3.500700	-10.559000	25.762842	0.000757	20.669982
1348.310278	-3.001700	3.501200	-10.509000	25.752751	0.000754	20.663164
1349.312848	-2.998300	3.500600	-10.495000	25.771444	0.000754	20.681468
1350.315875	-2.994100	3.501100	-10.480000	25.759122	0.000754	20.679048
1351.311146	-2.998800	3.499600	-10.493000	25.757804	0.000754	20.688630
1352.312344	-3.001700	3.499200	-10.502000	25.709458	0.000752	20.678475
1353.312422	-2.993100	3.498900	-10.471000	25.675836	0.000753	20.664144
1354.313334	-2.981800	3.499200	-10.433000	25.685032	0.000752	20.685711
1355.319033	-2.997800	3.498300	-10.486000	25.652182	0.000752	20.681166
1356.314509	-3.015400	3.498000	-10.546000	25.686228	0.000751	20.666047
1357.314855	-3.002600	3.498400	-10.503000	25.679969	0.000748	20.688686
1358.310218	-2.993900	3.497300	-10.468000	25.666173	0.000751	20.649222
1359.319769	-3.004800	3.497300	-10.508000	25.658963	0.000749	20.663792
1360.314939	-2.992700	3.498200	-10.468000	25.659005	0.000749	20.676164
1361.316506	-2.991700	3.495300	-10.456000	25.662439	0.000751	20.674397
1362.315359	-3.001500	3.495700	-10.490000	25.653763	0.000750	20.659043
1363.316753	-3.002100	3.494700	-10.490000	25.695159	0.000746	20.686400
1364.310567	-2.984500	3.495500	-10.430000	25.691726	0.000748	20.666827
1365.316338	-3.005800	3.494500	-10.502000	25.705269	0.000748	20.672370
1366.313426	-3.007400	3.493700	-10.505000	25.725334	0.000747	20.680197
1367.311082	-3.000400	3.495100	-10.486000	25.725040	0.000746	20.672314
1368.318787	-3.001600	3.493700	-10.485000	25.694478	0.000746	20.678128
1369.316298	-3.021300	3.493600	-10.553000	25.687746	0.000743	20.673263
1370.318235	-3.006000	3.493800	-10.501000	25.676060	0.000744	20.672430
1371.320282	-2.986800	3.494500	-10.436000	25.687862	0.000747	20.677647
1372.313459	-2.994300	3.491200	-10.453000	25.696010	0.000744	20.667337
1373.314362	-3.001500	3.491300	-10.478000	25.717050	0.000744	20.671401
1374.319866	-2.992400	3.492100	-10.449000	25.737716	0.000743	20.667502
1375.312016	-2.975900	3.492200	-10.391000	25.708700	0.000743	20.677239
1376.315376	-2.982100	3.489700	-10.406000	25.720550	0.000740	20.690092
1377.318067	-3.023900	3.488900	-10.549000	25.690866	0.000742	20.662170
1378.311535	-2.986300	3.491700	-10.426000	25.701367	0.000741	20.668451
1379.315563	-2.995200	3.491100	-10.456000	25.705965	0.000738	20.667379
1380.317122	-2.992400	3.490100	-10.443000	25.715455	0.000740	20.662212
1381.312391	-2.992800	3.490600	-10.446000	25.676745	0.000739	20.667903
1382.309959	-3.000500	3.488200	-10.464000	25.729366	0.000740	20.671918
1383.320443	-3.002400	3.489200	-10.475000	25.756119	0.000740	20.663228
1384.313162	-2.999000	3.489200	-10.463000	25.777361	0.000736	20.676980
1385.313523	-3.023700	3.486600	-10.540000	25.774186	0.000739	20.673316
1386.317996	-3.007200	3.487900	-10.488000	25.786875	0.000737	20.687960
1387.316272	-2.997300	3.488000	-10.454000	25.814081	0.000737	20.692530
1388.316894	-2.990500	3.487200	-10.427000	25.802900	0.000737	20.675606
1389.314267	-3.009500	3.486300	-10.491000	25.807945	0.000734	20.668820
1390.317338	-3.000200	3.485100	-10.455000	25.798204	0.000736	20.665672
1391.312915	-3.016500	3.486000	-10.514000	25.784061	0.000735	20.684658
1392.315481	-2.992900	3.485200	-10.430000	25.781186	0.000734	20.667545
1393.316432	-3.010100	3.483900	-10.486000	25.796064	0.000734	20.694820
1394.318712	-2.996400	3.484100	-10.439000	25.779893	0.000734	20.679523
1395.317252	-3.004200	3.483300	-10.463000	25.777777	0.000733	20.663646
1396.321932	-2.981600	3.484100	-10.385000	25.772560	0.000734	20.677373
1397.322479	-2.977000	3.484000	-10.371000	25.769158	0.000733	20.676326
1398.324389	-3.000500	3.483700	-10.451000	25.805554	0.000734	20.680169
1399.320951	-2.992400	3.482700	-10.421000	25.808826	0.000732	20.656427
1400.322223	-2.984000	3.482700	-10.391000	25.803236	0.000731	20.672150
1401.322602	-2.972800	3.481200	-10.348000	25.781872	0.000731	20.660172
1402.321840	-3.010000	3.479800	-10.473000	25.726390	0.000731	20.663713
1403.324169	-3.006200	3.481200	-10.465000	25.697545	0.000730	20.668405
1404.318991	-3.010200	3.480000	-10.475000	25.677148	0.000728	20.665936
1405.322923	-3.014700	3.479200	-10.487000	25.688618	0.000727	20.684096
1406.319768	-2.999700	3.479500	-10.436000	25.687300	0.000727	20.672340
1407.324427	-2.991300	3.480000	-10.409000	25.668318	0.000726	20.674138
1408.319306	-3.000400	3.480600	-10.442000	25.667203	0.000727	20.687718
1409.323715	-3.014300	3.479400	-10.487000	25.714932	0.000727	20.677335
1410.325045	-3.005400	3.478400	-10.453000	25.738307	0.000726	20.698445
1411.324186	-3.007900	3.478000	-10.460000	25.770473	0.000726	20.679070
1412.324986	-2.992500	3.478800	-10.410000	25.782974	0.000725	20.678824
1413.320954	-2.995900	3.477900	-10.418000	25.769137	0.000723	20.675357
1414.319529	-2.973300	3.478100	-10.340000	25.754357	0.000723	20.676632
1415.327184	-2.984900	3.476900	-10.378000	25.732195	0.000726	20.673812
1416.322050	-3.007600	3.477200	-10.457000	25.696514	0.000722	20.684441
1417.326303	-3.002600	3.475400	-10.434000	25.656607	0.000721	20.675178
1418.324953	-2.984400	3.476700	-10.375000	25.654425	0.000723	20.687686
1419.331623	-2.987000	3.476000	-10.382000	25.650648	0.000721	20.690532
1420.325027	-3.018600	3.473100	-10.484000	25.639238	0.000720	20.687606
1421.323103	-3.001600	3.474100	-10.427000	25.625749	0.000721	20.689232
1422.322824	-2.998600	3.472400	-10.411000	25.663021	0.000720	20.694898
1423.322691	-3.012200	3.473000	-10.459000	25.648361	0.000718	20.711944
1424.325738	-2.985200	3.472800	-10.366000	25.594216	0.000718	20.690753
1425.324154	-3.014800	3.471500	-10.464000	25.570187	0.000717	20.672783
1426.328483	-3.001700	3.472000	-10.421000	25.550927	0.000718	20.698013
1427.328311	-2.985100	3.471200	-10.360000	25.564269	0.000718	20.699085
1428.324121	-2.988000	3.471500	-10.372000	25.558677	0.000718	20.680191
1429.328607	-2.992700	3.472500	-10.391000	25.613254	0.000717	20.694701
1430.325222	-2.992000	3.472100	-10.388000	25.629568	0.000719	20.703974
1431.324491	-2.992300	3.471800	-10.388000	25.636153	0.000717	20.713434
1432.328306	-3.025900	3.470100	-10.500000	25.658097	0.000716	20.694694
1433.327704	-3.001900	3.469700	-10.415000	25.681376	0.000715	20.692945
1434.324943	-3.004400	3.469400	-10.422000	25.715114	0.000714	20.695537
1435.331209	-3.035200	3.468000	-10.523000	25.702718	0.000714	20.689250
1436.330760	-3.003100	3.467900	-10.413000	25.760309	0.000711	20.689724
1437.326349	-3.009400	3.467900	-10.435000	25.760235	0.000713	20.689650
1438.330201	-2.989300	3.467700	-10.365000	25.766151	0.000710	20.699861
1439.329194	-3.001500	3.467600	-10.407000	25.769707	0.000713	20.686362
1440.324924	-3.016100	3.468000	-10.459000	25.732636	0.000711	20.674729
1441.334787	-3.008500	3.467200	-10.430000	25.738073	0.000710	20.691097
1442.328086	-3.038600	3.466100	-10.531000	25.739741	0.000711	20.680918
1443.325292	-3.017100	3.464500	-10.452000	25.761983	0.000709	20.691880
1444.330944	-2.990400	3.466400	-10.365000	25.730307	0.000709	20.682821
1445.329494	-2.994300	3.464300	-10.371000	25.697532	0.000709	20.699215
1446.326689	-2.994300	3.464400	-10.372000	25.683051	0.000707	20.689411
1447.329766	-2.975700	3.466500	-10.314000	25.645469	0.000708	20.680587
1448.331186	-2.983300	3.463800	-10.332000	25.668423	0.000705	20.707911
1449.326614	-2.993000	3.463600	-10.365000	25.659184	0.000705	20.707641
1450.330461	-2.993700	3.463700	-10.367000	25.661293	0.000708	20.694585
1451.333077	-2.988000	3.463200	-10.347000	25.716925	0.000706	20.672224
1452.329500	-3.011800	3.461900	-10.426000	25.710966	0.000705	20.690422
1453.332973	-2.984200	3.463100	-10.333000	25.712015	0.000704	20.684363
1454.332626	-3.002600	3.461700	-10.393000	25.693727	0.000706	20.715309
1455.330902	-2.999300	3.461500	-10.381000	25.711641	0.000703	20.687307
1456.330080	-3.025200	3.458900	-10.462000	25.701336	0.000706	20.713468
1457.329612	-3.014100	3.460800	-10.431000	25.716019	0.000704	20.698817
1458.330812	-3.000500	3.460100	-10.381000	25.737954	0.000703	20.679596
1459.333086	-3.028400	3.458100	-10.470000	25.707228	0.000701	20.715119
1460.333157	-3.042200	3.458600	-10.520000	25.703021	0.000699	20.702358
1461.331619	-2.987600	3.459600	-10.334000	25.681019	0.000701	20.685947
1462.339998	-2.981600	3.460200	-10.316000	25.724596	0.000700	20.706485
1463.332059	-2.999800	3.458300	-10.373000	25.730978	0.000702	20.715740
1464.331532	-2.997800	3.459400	-10.369000	25.781861	0.000699	20.715168
1465.336138	-2.983300	3.459200	-10.318000	25.776343	0.000700	20.694451
1466.336954	-2.986400	3.457100	-10.323000	25.789935	0.000700	20.704311
1467.337804	-2.991700	3.457900	-10.344000	25.824564	0.000699	20.705431
1468.335832	-2.991000	3.456400	-10.337000	25.839343	0.000698	20.725495
1469.337231	-3.001400	3.456000	-10.372000	25.862325	0.000698	20.712544
1470.339252	-3.010400	3.454300	-10.399000	25.875362	0.000699	20.717581
1471.339254	-2.979600	3.455000	-10.292000	25.901402	0.000697	20.704385
1472.336947	-3.006500	3.453900	-10.383000	25.899220	0.000697	20.698873
1473.341039	-3.031800	3.452500	-10.466000	25.857311	0.000697	20.684272
1474.347343	-3.009300	3.453900	-10.391000	25.838357	0.000696	20.710278
1475.339423	-2.997600	3.455200	-10.357000	25.842004	0.000695	20.707778
1476.340837	-2.975600	3.454200	-10.277000	25.836738	0.000695	20.726671
1477.338716	-3.005200	3.452700	-10.375000	25.859891	0.000693	20.696822
1478.337415	-2.989800	3.453400	-10.323000	25.829431	0.000694	20.697992
1479.342126	-2.995800	3.452200	-10.341000	25.838203	0.000694	20.720082
1480.339431	-3.024700	3.450500	-10.436000	25.858549	0.000695	20.695947
1481.338530	-3.003900	3.450400	-10.364000	25.866052	0.000692	20.712495
1482.337812	-3.018500	3.450400	-10.414000	25.836487	0.000692	20.700338
1483.341397	-2.990500	3.451500	-10.320000	25.779347	0.000691	20.702685
1484.339889	-2.992300	3.449300	-10.320000	25.792197	0.000692	20.708480
1485.342368	-3.006800	3.450400	-10.373000	25.837284	0.000691	20.714416
1486.343246	-3.009800	3.448000	-10.377000	25.870838	0.000690	20.707820
1487.338375	-3.010700	3.447400	-10.377000	25.873303	0.000691	20.713615
1488.338680	-2.985500	3.448700	-10.295000	25.894071	0.000689	20.718832
1489.341830	-2.994200	3.447800	-10.323000	25.899930	0.000689	20.732305
1490.343611	-3.025300	3.447400	-10.429000	25.889351	0.000689	20.727841
1491.345511	-3.009000	3.448800	-10.376000	25.913562	0.000688	20.718972
1492.344592	-3.015800	3.447300	-10.395000	25.915506	0.000688	20.719502
1493.346854	-3.007600	3.446600	-10.364000	25.902713	0.000688	20.730834
1494.341413	-2.993600	3.447300	-10.318000	25.914107	0.000689	20.731849
1495.344529	-2.991600	3.446000	-10.308000	25.900623	0.000688	20.731578
1496.343610	-3.028900	3.444000	-10.431000	25.916118	0.000685	20.728178
1497.343640	-3.020400	3.444500	-10.402000	25.917086	0.000684	20.745273
1498.343811	-2.995500	3.445600	-10.321000	25.897011	0.000685	20.741701
1499.345558	-2.996700	3.444800	-10.322000	25.891477	0.000684	20.725235
1500.345390	-2.999800	3.446300	-10.338000	25.864265	0.000684	20.707381
1501.345837	-3.009100	3.443500	-10.360000	25.884789	0.000684	20.736535
1502.345008	-2.996100	3.445500	-10.321000	25.851056	0.000681	20.731097
1503.348533	-2.989200	3.445300	-10.297000	25.850626	0.000683	20.733511
1504.344134	-2.991300	3.443500	-10.300000	25.881460	0.000681	20.721810
1505.349361	-2.983600	3.442400	-10.270000	25.908682	0.000683	20.730665
1506.347541	-2.996700	3.442300	-10.315000	25.906322	0.000681	20.734933
1507.349034	-2.986800	3.441900	-10.279000	25.940849	0.000680	20.729317
1508.351156	-3.028200	3.441600	-10.420000	25.965318	0.000680	20.744891
1509.349242	-3.011900	3.441200	-10.363000	25.958060	0.000679	20.731909
1510.350014	-3.006300	3.441300	-10.345000	25.982081	0.000680	20.728066
1511.351852	-3.006400	3.440400	-10.342000	25.938581	0.000679	20.734624
1512.350029	-3.015100	3.440400	-10.371000	25.947929	0.000679	20.729317
1513.349823	-3.002600	3.440000	-10.329000	25.931428	0.000680	20.732654
1514.354522	-2.977700	3.439500	-10.241000	25.926334	0.000678	20.728010
1515.353850	-2.989800	3.438600	-10.280000	25.860881	0.000676	20.726268
1516.351422	-3.011500	3.438000	-10.352000	25.842246	0.000678	20.735049
1517.354645	-3.003900	3.437000	-10.322000	25.846861	0.000679	20.735892
1518.351348	-2.989200	3.438100	-10.276000	25.860084	0.000676	20.758659
1519.351462	-3.017900	3.435800	-10.367000	25.876573	0.000677	20.742506
1520.351931	-2.990600	3.436800	-10.277000	25.852305	0.000675	20.731403
1521.355746	-2.991600	3.437300	-10.282000	25.811306	0.000674	20.733367
1522.352917	-3.002800	3.435600	-10.315000	25.800848	0.000675	20.748467
1523.351494	-2.998400	3.436800	-10.303000	25.819012	0.000674	20.740160
1524.355004	-2.993400	3.435000	-10.281000	25.835508	0.000674	20.745825
1525.353573	-3.000800	3.436500	-10.310000	25.842784	0.000673	20.733219
1526.352608	-3.015600	3.434600	-10.357000	25.856633	0.000673	20.764202
1527.357308	-3.020400	3.433200	-10.368000	25.870308	0.000672	20.733367
1528.357327	-2.999700	3.434100	-10.300000	25.896617	0.000670	20.743676
1529.357824	-2.985500	3.434100	-10.251000	25.890830	0.000671	20.758726
1530.359768	-2.977000	3.432500	-10.218000	25.895648	0.000670	20.748393
1531.357893	-2.995400	3.433000	-10.282000	25.922128	0.000670	20.762193
1532.357397	-3.000900	3.432300	-10.299000	25.927044	0.000671	20.720188
1533.358010	-3.018300	3.431300	-10.354000	25.913388	0.000670	20.759576
1534.357067	-2.999900	3.430700	-10.291000	25.948981	0.000670	20.739384
1535.358320	-2.995100	3.432100	-10.279000	25.944489	0.000669	20.741509
1536.358133	-2.996300	3.432100	-10.282000	25.950691	0.000667	20.752007
1537.357924	-2.998400	3.430400	-10.285000	25.933781	0.000669	20.751614
1538.358660	-2.978600	3.430900	-10.218000	25.901067	0.000668	20.755260
1539.357756	-2.994100	3.430800	-10.271000	25.844557	0.000666	20.733103
1540.362240	-3.015700	3.429000	-10.340000	25.833278	0.000666	20.757335
1541.358294	-3.006900	3.427200	-10.304000	25.814268	0.000665	20.764318
1542.357859	-2.983100	3.429800	-10.231000	25.806428	0.000665	20.774461
1543.362081	-2.995100	3.429000	-10.269000	25.821208	0.000664	20.749478
1544.359873	-2.990800	3.429200	-10.255000	25.834228	0.000665	20.779154
1545.360278	-3.012500	3.427000	-10.323000	25.864143	0.000663	20.763211
1546.360349	-2.981100	3.429100	-10.222000	25.883373	0.000663	20.753131
1547.359655	-2.991300	3.426500	-10.248000	25.859171	0.000666	20.770545
1548.360126	-3.019200	3.425500	-10.341000	25.866423	0.000663	20.761234
1549.360319	-2.980300	3.426300	-10.210000	25.851920	0.000662	20.769425
1550.362216	-2.995500	3.425800	-10.261000	25.872387	0.000662	20.765329
1551.364267	-3.004600	3.424700	-10.289000	25.850479	0.000661	20.763710
1552.361967	-3.003500	3.423700	-10.283000	25.862280	0.000662	20.765607
1553.363162	-2.998000	3.424100	-10.264000	25.889907	0.000662	20.778662
1554.363397	-3.004000	3.423100	-10.282000	25.903067	0.000661	20.762010
1555.362891	-2.994400	3.424600	-10.254000	25.948579	0.000660	20.755575
1556.364767	-2.975900	3.424500	-10.190000	25.957473	0.000659	20.775417
1557.364380	-2.975700	3.424600	-10.190000	25.953078	0.000659	20.765786
1558.367390	-2.993000	3.422800	-10.243000	25.956854	0.000659	20.782381
1559.364703	-2.984500	3.422500	-10.213000	25.981983	0.000658	20.759738
1560.370530	-3.003600	3.421300	-10.276000	26.018207	0.000657	20.770527
1561.365810	-2.997900	3.420900	-10.254000	26.037483	0.000656	20.777566
1562.367471	-2.997700	3.422100	-10.258000	26.072502	0.000658	20.775294
1563.366961	-3.017100	3.419700	-10.317000	26.078858	0.000657	20.771722
1564.366752	-2.984600	3.420900	-10.209000	26.084496	0.000657	20.746566
1565.368217	-3.000600	3.420100	-10.261000	26.117081	0.000655	20.763187
1566.366567	-3.003400	3.419100	-10.268000	26.116885	0.000655	20.776267
1567.367065	-2.982100	3.421300	-10.201000	26.100841	0.000655	20.773896
1568.368275	-2.992600	3.418900	-10.230000	26.066368	0.000655	20.763914
1569.371242	-2.998400	3.419500	-10.252000	26.018606	0.000653	20.765712
1570.368087	-2.995800	3.418200	-10.239000	26.006905	0.000654	20.771500
1571.368584	-3.008700	3.418500	-10.285000	26.004350	0.000652	20.784106
1572.370663	-3.004600	3.417100	-10.266000	25.993813	0.000653	20.780632
1573.367959	-3.032600	3.415800	-10.358000	25.977994	0.000653	20.778964
1574.370531	-2.996100	3.416500	-10.235000	26.004594	0.000650	20.768705
1575.373199	-3.005700	3.416400	-10.267000	25.990632	0.000650	20.794032
1576.369955	-3.016500	3.415300	-10.302000	26.003374	0.000652	20.798773
1577.374252	-2.977300	3.416900	-10.171000	25.990118	0.000649	20.780239
1578.380173	-2.983100	3.416200	-10.190000	26.001413	0.000649	20.793010
1579.374210	-2.990900	3.415400	-10.214000	26.027597	0.000650	20.800350
1580.372195	-2.988900	3.414300	-10.205000	26.057377	0.000648	20.783804
1581.375808	-3.003600	3.414100	-10.254000	26.051934	0.000649	20.784025
1582.372241	-2.977800	3.413900	-10.165000	26.013107	0.000648	20.794327
1583.373800	-2.994000	3.413600	-10.220000	25.975180	0.000649	20.796525
1584.374427	-2.987800	3.413600	-10.199000	25.957067	0.000647	20.798717
1585.375702	-2.964700	3.414400	-10.120000	25.999445	0.000648	20.777282
1586.373580	-2.997300	3.413700	-10.230000	25.994977	0.000646	20.792233
1587.373693	-3.013100	3.411100	-10.277000	26.015264	0.000644	20.778950
1588.376390	-2.984700	3.412700	-10.185000	26.028957	0.000643	20.789389
1589.374063	-3.001700	3.411100	-10.239000	26.049047	0.000645	20.822850
1590.373495	-2.981200	3.411000	-10.168000	26.083276	0.000642	20.786119
1591.375917	-3.008300	3.410100	-10.258000	26.080476	0.000643	20.799426
1592.372533	-3.026100	3.407800	-10.311000	26.098321	0.000642	20.814512
1593.373123	-3.003700	3.410900	-10.245000	26.092193	0.000643	20.814519
1594.373773	-3.018800	3.409200	-10.289000	26.096881	0.000643	20.807375
1595.372822	-2.999500	3.410100	-10.227000	26.095416	0.000641	20.781721
1596.376258	-2.980700	3.411200	-10.166000	26.113691	0.000642	20.809092
1597.373322	-2.996400	3.408900	-10.213000	26.093553	0.000642	20.789333
1598.384983	-2.994700	3.408500	-10.205000	26.107133	0.000641	20.785908
1599.372766	-3.017200	3.407600	-10.280000	26.123405	0.000641	20.804154
1600.372922	-3.025800	3.407400	-10.309000	26.122908	0.000642	20.805552
1601.376673	-3.030900	3.407100	-10.325000	26.130581	0.000639	20.798089
1602.373980	-3.018500	3.405900	-10.280000	26.079990	0.000639	20.791352
1603.374885	-3.011300	3.405200	-10.254000	26.039245	0.000638	20.808734
1604.376877	-3.004400	3.404800	-10.229000	26.055126	0.000639	20.814259
1605.376774	-3.002400	3.405900	-10.225000	26.055175	0.000639	20.830429
1606.375422	-3.007900	3.406400	-10.244000	26.068511	0.000637	20.804000
1607.376520	-3.018900	3.403500	-10.274000	26.058478	0.000637	20.800084
1608.379623	-3.015500	3.403600	-10.261000	26.056713	0.000635	20.806371
1609.378243	-3.018700	3.403700	-10.274000	26.020749	0.000634	20.799160
1610.376523	-3.023100	3.402600	-10.286000	26.057258	0.000635	20.812134
1611.378714	-2.994300	3.404000	-10.192000	26.046306	0.000634	20.835269
1612.376852	-3.025800	3.402500	-10.294000	26.027772	0.000636	20.807164
1613.378354	-3.013500	3.401400	-10.250000	25.993002	0.000633	20.814431
1614.376734	-2.998100	3.401500	-10.197000	25.967640	0.000633	20.826408
1615.376526	-3.029300	3.400000	-10.298000	25.975068	0.000633	20.822966
1616.376563	-3.017000	3.401400	-10.261000	25.983158	0.000632	20.804067
1617.377020	-3.014800	3.400300	-10.250000	25.996673	0.000633	20.822860
1618.378531	-2.981000	3.401500	-10.139000	25.986811	0.000631	20.803470
1619.377787	-2.983600	3.401000	-10.146000	25.959934	0.000631	20.826727
1620.379692	-2.982500	3.400300	-10.142000	25.942570	0.000630	20.833938
1621.380438	-2.984200	3.401400	-10.149000	25.927215	0.000629	20.830840
1622.380081	-2.976600	3.400900	-10.123000	25.917223	0.000628	20.819854
1623.379133	-3.005900	3.398300	-10.214000	25.950667	0.000630	20.814572
1624.383708	-3.002900	3.399400	-10.207000	25.934515	0.000630	20.848130
1625.381304	-3.024700	3.397000	-10.273000	25.944930	0.000627	20.835360
1626.377980	-2.983900	3.398800	-10.139000	25.939756	0.000628	20.821154
1627.386764	-3.009700	3.397300	-10.224000	25.974509	0.000624	20.823826
1628.378107	-3.008200	3.396200	-10.215000	25.984745	0.000627	20.850705
1629.378465	-3.004800	3.397000	-10.207000	25.970611	0.000626	20.834135
1630.379056	-2.997600	3.395700	-10.178000	25.949251	0.000624	20.838753
1631.380426	-3.022000	3.395100	-10.259000	25.948307	0.000625	20.832115
1632.383718	-3.016200	3.394200	-10.237000	25.903193	0.000625	20.826622
1633.381584	-2.994000	3.395900	-10.167000	25.874825	0.000625	20.824202
1634.382028	-2.996700	3.395200	-10.173000	25.907514	0.000623	20.825273
1635.382753	-2.987100	3.396500	-10.145000	25.895250	0.000624	20.814375
1636.383888	-2.988700	3.396700	-10.151000	25.938941	0.000624	20.815594
1637.387104	-3.006000	3.393600	-10.199000	25.952408	0.000624	20.856622
1638.389362	-3.001600	3.393600	-10.184000	25.972971	0.000622	20.827497
1639.385378	-2.979900	3.394000	-10.113000	25.999701	0.000620	20.834911
1640.386006	-2.989000	3.395000	-10.147000	26.041605	0.000623	20.837183
1641.385386	-3.003700	3.391500	-10.186000	26.043272	0.000621	20.831272
1642.385457	-2.989200	3.392200	-10.139000	26.060108	0.000619	20.807885
1643.386259	-3.033400	3.390800	-10.285000	26.049204	0.000619	20.818267
1644.387339	-2.994500	3.391600	-10.154000	26.049879	0.000618	20.830324
1645.385089	-2.992800	3.392000	-10.151000	26.010083	0.000620	20.827799
1646.387339	-3.021500	3.390200	-10.242000	26.010059	0.000618	20.801222
1647.387604	-3.012500	3.391300	-10.215000	25.988276	0.000619	20.816321
1648.386944	-3.022000	3.390700	-10.244000	25.984427	0.000617	20.820040
1649.385403	-3.016300	3.388800	-10.219000	25.956061	0.000618	20.815724
1650.388433	-3.001800	3.389700	-10.174000	25.980106	0.000618	20.807164
1651.388131	-3.006700	3.388100	-10.186000	25.985934	0.000617	20.829140
1652.387974	-3.001900	3.389400	-10.174000	26.020588	0.000615	20.822232
1653.390069	-2.988800	3.389200	-10.130000	26.019344	0.000614	20.822404
1654.390718	-2.994400	3.388200	-10.145000	26.058066	0.000615	20.804885
1655.386627	-2.996500	3.388700	-10.153000	26.058986	0.000615	20.800593
1656.388602	-2.994700	3.388100	-10.146000	26.016163	0.000615	20.808303
1657.387331	-2.983200	3.387700	-10.105000	25.999222	0.000613	20.805507
1658.389506	-2.988000	3.387600	-10.121000	25.997463	0.000613	20.792360
1659.388386	-3.010500	3.385500	-10.191000	26.040955	0.000611	20.815193
1660.391970	-2.997200	3.386000	-10.148000	26.079008	0.000613	20.795581
1661.389470	-3.004400	3.385300	-10.170000	26.064250	0.000610	20.799719
1662.389846	-3.000500	3.385200	-10.155000	26.066064	0.000611	20.812921
1663.396324	-3.001400	3.385600	-10.160000	26.105404	0.000609	20.803136
1664.393327	-3.006100	3.385000	-10.175000	26.115222	0.000612	20.806838
1665.392231	-2.999400	3.386500	-10.155000	26.112286	0.000609	20.801043
1666.397816	-3.021500	3.383100	-10.221000	26.118323	0.000609	20.795729
1667.390279	-3.001200	3.383400	-10.154000	26.137670	0.000607	20.804738
1668.391906	-2.996800	3.383000	-10.137000	26.124653	0.000608	20.809202
1669.392712	-2.987300	3.383700	-10.106000	26.075055	0.000606	20.801566
1670.392080	-3.011500	3.383100	-10.187000	26.055633	0.000606	20.801018
1671.392444	-2.998500	3.381300	-10.138000	26.022549	0.000607	20.791486
1672.393463	-2.999600	3.382000	-10.143000	26.018750	0.000606	20.799048
1673.391580	-2.990100	3.381300	-10.109000	26.016138	0.000605	20.810175
1674.395424	-2.993800	3.381300	-10.122000	26.045275	0.000605	20.809578
1675.392133	-3.030200	3.379500	-10.240000	26.096493	0.000603	20.808882
1676.393829	-3.007000	3.380400	-10.164000	26.069147	0.000604	20.807010
1677.397979	-2.972800	3.381000	-10.049000	26.078708	0.000604	20.789115
1678.392924	-3.007700	3.379700	-10.165000	26.072954	0.000603	20.783808
1679.394218	-2.992800	3.379300	-10.113000	26.086031	0.000603	20.801215
1680.395259	-2.990000	3.377200	-10.096000	26.096378	0.000601	20.778420
1681.393436	-2.975200	3.380600	-10.057000	26.134122	0.000599	20.782681
1682.399154	-2.976900	3.379000	-10.058000	26.153469	0.000599	20.798328
1683.394380	-2.995500	3.377600	-10.116000	26.165322	0.000600	20.790323
1684.393942	-2.990500	3.377200	-10.099000	26.215087	0.000600	20.785329
1685.397742	-2.999700	3.376900	-10.129000	26.206220	0.000598	20.792539
1686.394561	-3.014000	3.377400	-10.179000	26.202843	0.000598	20.793888
1687.393298	-3.003400	3.379000	-10.146000	26.197905	0.000597	20.801727
1688.396326	-2.984400	3.378000	-10.080000	26.175703	0.000597	20.798384
1689.393059	-3.004700	3.377600	-10.148000	26.169422	0.000596	20.774054
1690.393749	-2.990100	3.375200	-10.091000	26.150718	0.000596	20.807417
1691.396241	-3.004500	3.375400	-10.141000	26.171505	0.000596	20.780415
1692.397536	-3.030700	3.374700	-10.227000	26.154849	0.000596	20.789757
1693.396704	-2.999800	3.374700	-10.121000	26.140110	0.000594	20.792490
1694.394583	-2.995000	3.374900	-10.107000	26.155958	0.000594	20.786604
1695.399373	-3.023100	3.373700	-10.197000	26.200068	0.000595	20.792048
1696.397315	-3.009000	3.374800	-10.153000	26.192801	0.000595	20.776210
1697.397566	-2.988200	3.374500	-10.083000	26.144811	0.000594	20.790102
1698.400587	-3.014300	3.372600	-10.165000	26.104529	0.000594	20.794197
1699.396984	-3.003200	3.374300	-10.132000	26.140417	0.000593	20.770988
1700.398944	-2.998200	3.373000	-10.111000	26.151595	0.000590	20.782694
1701.395806	-2.992300	3.371600	-10.087000	26.203451	0.000592	20.778378
1702.397686	-3.006900	3.372300	-10.139000	26.205510	0.000590	20.791352
1703.398028	-3.004900	3.371200	-10.129000	26.228257	0.000589	20.767742
1704.398275	-3.011800	3.371400	-10.153000	26.214304	0.000590	20.793551
1705.398781	-3.012900	3.370600	-10.155000	26.213801	0.000589	20.786407
1706.401555	-3.002500	3.369500	-10.116000	26.166395	0.000589	20.771012
1707.401788	-3.009500	3.368200	-10.136000	26.149904	0.000588	20.762028
1708.400535	-3.008300	3.371500	-10.141000	26.161505	0.000588	20.786488
1709.401297	-2.991000	3.369800	-10.078000	26.155867	0.000587	20.767072
1710.401494	-3.019800	3.369500	-10.174000	26.204419	0.000585	20.774135
1711.402614	-3.000200	3.369800	-10.110000	26.218484	0.000586	20.784475
1712.401768	-2.984200	3.369500	-10.055000	26.206835	0.000585	20.768975
1713.405028	-2.980100	3.369000	-10.038000	26.192004	0.000588	20.775884
1714.403081	-3.014200	3.367700	-10.150000	26.166744	0.000585	20.774683
1715.402821	-2.998000	3.367900	-10.097000	26.135583	0.000585	20.766604
1716.402547	-2.999000	3.366600	-10.095000	26.125292	0.000583	20.753893
1717.405069	-3.011100	3.366800	-10.137000	26.072300	0.000584	20.768926
1718.404419	-2.991300	3.368100	-10.074000	26.044285	0.000585	20.781082
1719.404562	-2.999900	3.366600	-10.099000	26.052497	0.000583	20.763728
1720.406292	-2.989200	3.367400	-10.064000	26.063376	0.000584	20.776555
1721.404698	-3.005200	3.365300	-10.112000	26.093983	0.000583	20.768901
1722.403602	-3.015300	3.365400	-10.146000	26.131042	0.000582	20.772473
1723.410451	-2.997700	3.366100	-10.089000	26.144199	0.000582	20.765305
1724.407928	-3.002700	3.363900	-10.099000	26.139928	0.000581	20.775238
1725.408333	-3.008600	3.364200	-10.119000	26.102648	0.000581	20.757219
1726.409188	-2.978600	3.365200	-10.023000	26.076848	0.000580	20.744097
1727.406666	-2.983400	3.364600	-10.037000	26.045621	0.000579	20.764880
1728.406830	-2.981600	3.364800	-10.032000	26.037752	0.000578	20.749861
1729.407082	-2.998900	3.362300	-10.082000	26.020193	0.000579	20.745495
1730.406164	-3.002500	3.362600	-10.095000	26.010551	0.000577	20.739601
1731.406835	-3.005800	3.363700	-10.110000	26.017613	0.000578	20.768508
1732.408099	-2.978300	3.362700	-10.014000	26.030428	0.000578	20.764788
1733.409624	-3.008000	3.360700	-10.107000	26.037269	0.000576	20.748902
1734.408834	-2.986400	3.361600	-10.038000	26.024950	0.000576	20.745059
1735.408834	-3.009500	3.360800	-10.114000	26.024024	0.000577	20.736542
1736.407854	-2.989800	3.361200	-10.050000	26.028628	0.000575	20.755392
1737.408894	-3.005700	3.359100	-10.096000	26.027058	0.000574	20.762350
1738.407360	-2.986800	3.359900	-10.034000	26.085772	0.000574	20.746900
1739.409857	-2.999000	3.358200	-10.069000	26.090449	0.000572	20.739270
1740.410275	-3.012600	3.358400	-10.116000	26.130168	0.000574	20.741722
1741.411403	-3.001400	3.359500	-10.082000	26.154356	0.000573	20.759389
1742.416983	-2.977700	3.360800	-10.007000	26.148533	0.000572	20.765392
1743.413725	-2.996500	3.357400	-10.060000	26.179432	0.000571	20.748076
1744.428658	-3.004400	3.357100	-10.084000	26.198998	0.000574	20.753513
1745.415322	-2.981100	3.358600	-10.011000	26.204269	0.000572	20.727514
1746.416400	-3.009900	3.357800	-10.106000	26.217529	0.000569	20.744634
1747.413415	-3.003400	3.356400	-10.080000	26.249468	0.000570	20.752073
1748.417728	-2.988600	3.356500	-10.030000	26.255472	0.000570	20.760004
1749.417000	-2.975200	3.358000	-9.989500	26.296503	0.000570	20.756193
1750.414690	-3.018200	3.355400	-10.125000	26.310730	0.000567	20.736826
1751.416391	-3.023500	3.355000	-10.143000	26.318279	0.000566	20.733981
1752.414515	-3.016100	3.354000	-10.115000	26.330871	0.000567	20.737627
1753.416893	-3.008400	3.354000	-10.089000	26.353094	0.000568	20.753324
1754.416442	-3.000400	3.355100	-10.066000	26.330902	0.000566	20.755677
1755.415079	-2.989500	3.355900	-10.032000	26.374129	0.000565	20.731789
1756.415368	-2.988000	3.353900	-10.021000	26.315602	0.000565	20.730342
1757.419598	-2.998800	3.354500	-10.059000	26.331374	0.000565	20.740029
1758.424904	-2.991200	3.353500	-10.030000	26.303066	0.000565	20.744297
1759.417767	-2.976300	3.354800	-9.983200	26.309444	0.000564	20.742172
1760.417345	-3.004300	3.354700	-10.077000	26.305198	0.000562	20.738852
1761.420439	-3.002100	3.353500	-10.065000	26.300732	0.000564	20.727251
1762.417176	-2.996900	3.353000	-10.046000	26.263514	0.000560	20.720668
1763.419217	-2.994900	3.351900	-10.038000	26.264262	0.000561	20.749871
1764.421542	-3.014500	3.350700	-10.100000	26.289268	0.000561	20.727584
1765.421525	-2.980700	3.352700	-9.992200	26.332122	0.000561	20.741255
1766.420605	-3.019000	3.350300	-10.114000	26.346000	0.000560	20.734339
1767.425026	-3.002600	3.350300	-10.058000	26.385409	0.000559	20.754507
1768.420759	-2.985200	3.351200	-10.004000	26.330437	0.000558	20.738139
1769.424876	-3.011900	3.349600	-10.088000	26.307889	0.000558	20.736815
1770.422451	-2.988900	3.349100	-10.009000	26.321320	0.000559	20.748417
1771.426892	-3.011400	3.348000	-10.082000	26.293784	0.000557	20.726432
1772.423019	-2.998700	3.348700	-10.041000	26.250921	0.000557	20.721290
1773.428610	-3.004800	3.348800	-10.061000	26.257233	0.000557	20.721469
1774.426031	-3.010000	3.348100	-10.076000	26.274519	0.000557	20.726987
1775.425148	-2.964900	3.348800	-9.928100	26.332950	0.000555	20.736397
1776.424263	-2.994200	3.346700	-10.020000	26.364805	0.000557	20.724788
1777.426490	-3.014500	3.347100	-10.089000	26.376760	0.000554	20.723053
1778.425574	-2.988400	3.347000	-10.001000	26.349389	0.000554	20.737746
1779.427382	-2.996100	3.345000	-10.020000	26.350927	0.000553	20.740714
1780.429151	-3.003100	3.345600	-10.045000	26.339611	0.000551	20.733134
1781.430053	-2.999500	3.346700	-10.038000	26.315745	0.000553	20.716260
1782.426808	-3.004000	3.345400	-10.048000	26.311107	0.000552	20.729618
1783.435817	-3.016000	3.344100	-10.085000	26.353772	0.000550	20.725080
1784.434746	-3.012200	3.343100	-10.069000	26.361565	0.000551	20.722955
1785.430612	-3.009300	3.344300	-10.063000	26.364616	0.000552	20.718434
1786.434649	-3.009300	3.343500	-10.060000	26.360897	0.000550	20.723706
1787.430022	-3.013200	3.343500	-10.073000	26.395686	0.000549	20.726428
1788.429848	-3.003500	3.342400	-10.038000	26.386055	0.000549	20.708687
1789.430018	-2.974800	3.342800	-9.943000	26.394026	0.000549	20.721441
1790.438597	-2.987100	3.343000	-9.984800	26.408480	0.000549	20.732175
1791.432969	-3.003600	3.342000	-10.036000	26.406488	0.000548	20.736337
1792.431933	-3.013700	3.342100	-10.071000	26.400386	0.000548	20.712659
1793.434564	-2.995400	3.341600	-10.008000	26.420047	0.000548	20.702547
1794.432292	-2.998100	3.341300	-10.017000	26.411604	0.000546	20.712554
1795.432608	-3.003100	3.341000	-10.031000	26.417890	0.000545	20.721244
1796.433465	-3.010300	3.339400	-10.052000	26.421217	0.000546	20.717949
1797.432382	-2.979500	3.340200	-9.949800	26.442949	0.000545	20.712290
1798.433186	-2.983200	3.341100	-9.966600	26.449449	0.000545	20.709814
1799.433739	-3.002100	3.338900	-10.023000	26.466781	0.000543	20.711588
1800.437760	-3.011600	3.339500	-10.056000	26.464275	0.000541	20.707647
1801.441506	-3.000300	3.339300	-10.018000	26.460924	0.000543	20.715185
1802.433938	-3.002800	3.339500	-10.027000	26.451563	0.000543	20.699610
1803.438371	-3.020600	3.338300	-10.083000	26.429618	0.000542	20.716909
1804.437335	-2.999600	3.337600	-10.010000	26.435628	0.000541	20.717260
1805.435977	-3.011100	3.336300	-10.045000	26.473832	0.000543	20.699234
1806.437594	-3.003300	3.338100	-10.025000	26.455263	0.000541	20.704278
1807.437899	-3.001000	3.337400	-10.015000	26.487219	0.000539	20.704630
1808.436337	-2.979000	3.338300	-9.943900	26.460802	0.000539	20.692301
1809.437897	-3.012500	3.336300	-10.049000	26.456385	0.000537	20.700190
1810.438736	-2.993800	3.335400	-9.984000	26.443218	0.000540	20.707345
1811.438600	-3.016600	3.335300	-10.059000	26.404339	0.000536	20.705726
1812.440908	-2.998100	3.334400	-9.996900	26.446098	0.000536	20.706920
1813.439879	-2.989100	3.334300	-9.965000	26.452181	0.000537	20.687903
1814.439478	-3.013600	3.334200	-10.047000	26.430212	0.000536	20.698065
1815.439609	-2.985200	3.336100	-9.957400	26.427846	0.000536	20.702800
1816.440553	-2.981600	3.334700	-9.941500	26.438777	0.000535	20.717106
1817.440087	-2.992900	3.334100	-9.976500	26.466749	0.000536	20.691166
1818.438667	-3.016400	3.332600	-10.051000	26.455305	0.000534	20.714279
1819.439907	-3.014000	3.333000	-10.044000	26.454558	0.000534	20.687446
1820.441833	-3.004500	3.333200	-10.013000	26.430848	0.000532	20.699652
1821.440796	-3.009400	3.331900	-10.026000	26.390626	0.000532	20.689097
1822.447019	-3.002000	3.331700	-10.000000	26.384371	0.000533	20.701303
1823.444684	-2.985200	3.332700	-9.948000	26.363532	0.000531	20.688894
1824.441574	-3.019100	3.330600	-10.054000	26.317370	0.000533	20.699874
1825.445283	-3.019200	3.329900	-10.053000	26.282757	0.000532	20.689744
1826.443328	-2.990300	3.331200	-9.960300	26.313547	0.000531	20.706938
1827.443457	-3.013200	3.330500	-10.035000	26.336591	0.000530	20.691690
1828.449077	-2.979400	3.330700	-9.922100	26.334900	0.000529	20.693783
1829.448645	-2.992700	3.330300	-9.966000	26.322259	0.000532	20.686769
1830.444208	-2.995600	3.329000	-9.970700	26.285458	0.000527	20.684872
1831.445415	-3.001300	3.328100	-9.986300	26.311984	0.000528	20.693987
1832.447070	-2.991900	3.328700	-9.958700	26.262633	0.000527	20.687064
1833.445376	-2.992600	3.328000	-9.958200	26.234176	0.000528	20.693081
1834.445686	-2.995900	3.328500	-9.970000	26.196655	0.000526	20.693783
1835.448982	-3.011600	3.326300	-10.016000	26.215750	0.000526	20.686417
1836.446299	-2.991400	3.328300	-9.955400	26.229573	0.000527	20.675177
1837.446594	-3.019200	3.327300	-10.044000	26.245573	0.000524	20.686516
1838.448120	-3.008700	3.326600	-10.008000	26.263423	0.000524	20.683116
1839.451922	-3.018100	3.325500	-10.035000	26.281628	0.000525	20.688135
1840.452255	-2.990400	3.326400	-9.946500	26.268913	0.000524	20.691953
1841.447513	-3.020000	3.324500	-10.039000	26.308392	0.000524	20.676624
1842.450655	-2.996200	3.325400	-9.962200	26.311321	0.000525	20.684310
1843.448828	-2.993800	3.325200	-9.953800	26.283631	0.000523	20.693467
1844.447982	-2.990900	3.323600	-9.940200	26.256223	0.000522	20.694848
1845.448903	-2.981700	3.324300	-9.910900	26.266645	0.000522	20.669283
1846.446811	-2.980700	3.324900	-9.910300	26.266467	0.000522	20.684278
1847.447682	-2.997200	3.322100	-9.956200	26.281296	0.000519	20.694914
1848.447680	-3.000900	3.322800	-9.969200	26.287926	0.000519	20.679765
1849.451085	-3.009700	3.322300	-9.997100	26.328893	0.000517	20.667829
1850.448152	-3.009300	3.322700	-9.996900	26.346196	0.000519	20.680478
1851.447984	-2.993700	3.323200	-9.947900	26.336204	0.000517	20.655260
1852.449703	-2.988000	3.322000	-9.925600	26.373076	0.000518	20.679045
1853.448989	-2.998300	3.320800	-9.956300	26.403997	0.000516	20.665075
1854.451222	-3.017100	3.320600	-10.018000	26.385874	0.000517	20.675785
1855.455772	-3.002300	3.320100	-9.966600	26.393349	0.000517	20.669072
1856.450627	-3.006700	3.319000	-9.978100	26.384899	0.000515	20.668166
1857.451241	-2.995600	3.320000	-9.944300	26.397074	0.000516	20.669498
1858.452345	-2.982400	3.320600	-9.902000	26.388275	0.000513	20.669663
1859.449898	-3.014000	3.320200	-10.006000	26.358927	0.000512	20.668616
1860.449298	-3.009500	3.319200	-9.987700	26.361880	0.000512	20.666842
1861.451674	-3.009500	3.316900	-9.980500	26.344669	0.000514	20.676572
1862.454824	-3.000600	3.318200	-9.956100	26.285166	0.000511	20.674145
1863.453331	-3.033900	3.318400	-10.066000	26.267432	0.000513	20.668651
1864.451083	-2.989100	3.318500	-9.918500	26.292267	0.000512	20.681757
1865.452418	-3.003300	3.317500	-9.962200	26.280018	0.000511	20.654745
1866.453514	-3.015700	3.316300	-10.000000	26.322156	0.000511	20.664377
1867.453123	-2.968800	3.317200	-9.847000	26.351885	0.000510	20.668651
1868.454403	-3.013300	3.315400	-9.989500	26.431663	0.000509	20.650206
1869.452584	-3.019000	3.315400	-10.008000	26.428152	0.000509	20.662800
1870.455943	-2.974100	3.315600	-9.859700	26.460035	0.000508	20.677303
1871.452923	-3.009500	3.315400	-9.976900	26.461572	0.000507	20.660355
1872.457712	-2.988700	3.314700	-9.905600	26.462044	0.000508	20.665097
1873.452603	-3.012400	3.314700	-9.983600	26.489030	0.000507	20.676576
1874.454437	-2.995800	3.313200	-9.925000	26.510796	0.000507	20.650087
1875.457763	-3.015500	3.312800	-9.987600	26.453228	0.000504	20.670935
1876.457381	-2.995200	3.314300	-9.924600	26.429609	0.000504	20.660471
1877.454721	-3.004800	3.311400	-9.948600	26.406786	0.000502	20.684950
1878.460809	-3.032700	3.311400	-10.042000	26.385410	0.000503	20.669154
1879.456668	-2.976900	3.312000	-9.858600	26.390054	0.000504	20.653432
1880.454256	-2.949800	3.313100	-9.771800	26.370785	0.000501	20.656351
1881.456548	-2.997700	3.311600	-9.925700	26.365693	0.000501	20.658820
1882.454847	-2.983600	3.311100	-9.877800	26.380367	0.000503	20.675941
1883.455309	-2.993700	3.311500	-9.913400	26.374804	0.000501	20.684100
1884.456316	-2.986500	3.310900	-9.886800	26.387469	0.000501	20.657471
1885.454560	-3.020100	3.309000	-9.992100	26.418801	0.000500	20.677110
1886.455943	-2.966900	3.310700	-9.821700	26.412717	0.000499	20.663882
1887.456188	-3.002300	3.309300	-9.935000	26.427844	0.000499	20.669604
1888.457551	-2.998900	3.309700	-9.924300	26.446113	0.000497	20.667577
1889.455665	-2.995200	3.309700	-9.912300	26.466349	0.000496	20.641921
1890.457222	-3.001900	3.309100	-9.932500	26.459224	0.000496	20.666056
1891.457508	-2.992100	3.307800	-9.896200	26.481745	0.000498	20.657872
1892.455779	-2.984000	3.308500	-9.872100	26.473799	0.000496	20.675965
1893.456756	-2.975400	3.308300	-9.841800	26.502477	0.000494	20.662115
1894.460785	-2.993500	3.308300	-9.902900	26.486333	0.000496	20.645412
1895.461606	-3.008200	3.307100	-9.947000	26.487577	0.000494	20.649034
1896.456538	-3.004500	3.306000	-9.931800	26.482088	0.000493	20.660587
1897.457976	-3.007200	3.306900	-9.943500	26.492913	0.000493	20.660562
1898.458365	-3.008500	3.305400	-9.943500	26.504063	0.000493	20.649958
1899.457960	-3.012500	3.305100	-9.955300	26.525063	0.000491	20.677708
1900.458554	-3.004600	3.303600	-9.925700	26.546045	0.000492	20.664658
1901.461526	-2.999900	3.306100	-9.916200	26.560214	0.000492	20.661831
1902.457836	-3.000700	3.303400	-9.911100	26.572013	0.000491	20.676538
1903.458850	-3.007500	3.303600	-9.933900	26.562621	0.000490	20.660457
1904.462750	-3.047700	3.303200	-10.066000	26.558799	0.000489	20.661356
1905.463706	-3.027400	3.301200	-9.992000	26.500681	0.000490	20.670742
1906.461900	-3.003700	3.303400	-9.922100	26.472188	0.000489	20.668655
1907.463328	-3.008700	3.302000	-9.932700	26.425454	0.000486	20.673840
1908.461833	-3.007700	3.302300	-9.930900	26.385005	0.000486	20.655469
1909.461053	-2.999200	3.302000	-9.903000	26.379920	0.000486	20.657945
1910.463342	-2.992100	3.301100	-9.876100	26.384932	0.000487	20.646385
1911.462348	-2.996900	3.301100	-9.892200	26.430441	0.000485	20.641865
1912.462025	-2.992000	3.301000	-9.875700	26.431409	0.000486	20.656590
1913.462322	-3.008800	3.300400	-9.929300	26.412864	0.000485	20.671617
1914.464648	-2.971800	3.300200	-9.806400	26.450702	0.000484	20.668870
1915.462325	-2.991400	3.300600	-9.872500	26.497330	0.000483	20.673064
1916.463253	-3.011400	3.299700	-9.936100	26.513368	0.000486	20.675435
1917.465874	-3.007400	3.298600	-9.918900	26.485212	0.000483	20.664676
1918.462188	-3.020000	3.300200	-9.965200	26.517509	0.000482	20.678175
1919.464222	-3.022700	3.297900	-9.966800	26.485837	0.000481	20.671943
1920.466064	-3.016300	3.296800	-9.941400	26.484593	0.000479	20.659312
1921.465487	-2.989300	3.298200	-9.857800	26.502365	0.000480	20.679074
1922.465397	-2.993900	3.296800	-9.869700	26.531580	0.000481	20.653436
1923.469391	-3.001300	3.297700	-9.897100	26.534330	0.000479	20.664736
1924.468629	-3.031200	3.295300	-9.987600	26.589127	0.000478	20.661971
1925.465618	-3.007700	3.297000	-9.915500	26.580808	0.000479	20.676370
1926.465367	-3.009100	3.295800	-9.916600	26.520773	0.000478	20.673395
1927.467525	-2.985900	3.294700	-9.836400	26.522010	0.000476	20.664206
1928.466119	-2.998900	3.296200	-9.884600	26.521790	0.000477	20.680107
1929.467280	-3.023500	3.294200	-9.958100	26.491673	0.000475	20.668800
1930.467387	-3.002900	3.293900	-9.889300	26.442802	0.000477	20.676103
1931.466465	-3.013400	3.293600	-9.923800	26.441889	0.000474	20.664280
1932.467746	-3.010500	3.293300	-9.913700	26.526077	0.000473	20.682521
1933.468610	-3.000900	3.292700	-9.880600	26.545019	0.000473	20.662678
1934.466307	-2.996800	3.293300	-9.868500	26.573321	0.000474	20.689233
1935.465161	-2.972800	3.293100	-9.788200	26.604972	0.000472	20.662727
1936.471205	-3.009600	3.293100	-9.909700	26.554275	0.000472	20.671509
1937.468461	-3.016600	3.290100	-9.923900	26.546214	0.000471	20.677157
1938.470333	-2.991300	3.291500	-9.845000	26.562667	0.000470	20.675204
1939.469606	-2.989800	3.292900	-9.842600	26.573142	0.000471	20.685735
1940.468582	-2.984600	3.290900	-9.821100	26.618675	0.000469	20.681720
1941.469687	-3.002400	3.289900	-9.876100	26.631532	0.000470	20.675678
1942.469021	-3.003300	3.290100	-9.879200	26.627109	0.000468	20.666489
1943.468143	-3.009300	3.291100	-9.902100	26.593774	0.000469	20.668066
1944.468610	-3.004400	3.289000	-9.880100	26.564309	0.000468	20.685390
1945.469730	-2.999600	3.289400	-9.865700	26.568908	0.000467	20.660613
1946.469999	-3.000600	3.289100	-9.867800	26.557674	0.000468	20.677298
1947.470221	-2.999900	3.287900	-9.861900	26.581651	0.000466	20.674846
1948.469356	-3.015900	3.287400	-9.912800	26.572413	0.000466	20.679311
1949.475866	-3.031500	3.286700	-9.961400	26.549705	0.000466	20.694892
1950.471671	-3.004300	3.286900	-9.873900	26.514816	0.000464	20.684003
1951.472891	-2.992700	3.285500	-9.830900	26.514743	0.000463	20.687249
1952.471728	-2.990600	3.287700	-9.830900	26.517744	0.000462	20.699750
1953.472103	-2.992200	3.286800	-9.833900	26.534505	0.000461	20.674871
1954.471014	-2.992400	3.285600	-9.830600	26.570949	0.000462	20.679736
1955.472809	-2.993000	3.285100	-9.830800	26.600909	0.000462	20.681404
1956.473525	-2.997800	3.284900	-9.845900	26.596706	0.000461	20.675756
1957.472065	-2.994300	3.285200	-9.835500	26.578108	0.000460	20.679346
1958.473341	-3.013600	3.283600	-9.893600	26.574593	0.000459	20.673441
1959.473223	-3.002200	3.284600	-9.860100	26.575774	0.000459	20.672258
1960.473649	-3.025900	3.282900	-9.933200	26.588590	0.000457	20.687039
1961.475151	-2.986600	3.285300	-9.811100	26.614256	0.000458	20.700039
1962.472942	-3.016700	3.283500	-9.905000	26.608872	0.000458	20.695574
1963.472560	-3.020000	3.282500	-9.912000	26.586225	0.000456	20.715957
1964.474885	-3.009800	3.283000	-9.879900	26.600571	0.000457	20.702403
1965.473254	-3.006200	3.282800	-9.867700	26.579474	0.000456	20.680245
1966.473405	-3.016200	3.280800	-9.894200	26.560086	0.000454	20.692051
1967.476161	-2.980700	3.283400	-9.785800	26.530778	0.000453	20.682030
1968.474910	-2.966900	3.282000	-9.735800	26.514942	0.000454	20.710685
1969.473843	-2.999100	3.280000	-9.836200	26.481524	0.000454	20.704121
1970.476648	-2.989600	3.282000	-9.810700	26.504711	0.000452	20.695185
1971.474888	-3.004500	3.279800	-9.852700	26.547833	0.000452	20.685898
1972.473538	-3.004100	3.279300	-9.849800	26.589010	0.000450	20.694574
1973.475760	-3.004400	3.279100	-9.849900	26.581365	0.000449	20.703485
1974.476879	-3.000900	3.279500	-9.840200	26.608600	0.000448	20.688188
1975.476798	-2.991600	3.280400	-9.812500	26.656874	0.000448	20.701631
1976.475361	-3.000400	3.278100	-9.834500	26.682913	0.000447	20.693194
1977.476604	-3.006300	3.277800	-9.853300	26.759218	0.000447	20.691673
1978.476203	-3.000400	3.278000	-9.833600	26.757601	0.000446	20.717550
1979.476946	-3.013100	3.278000	-9.875800	26.769262	0.000445	20.693236
1980.477301	-3.003900	3.276600	-9.841500	26.717066	0.000445	20.705720
1981.478170	-3.014700	3.275100	-9.872100	26.671366	0.000446	20.724262
1982.476735	-3.008100	3.275700	-9.851300	26.652567	0.000446	20.719113
1983.480802	-2.996000	3.275100	-9.810200	26.630871	0.000446	20.692558
1984.476894	-2.999100	3.274100	-9.818100	26.630245	0.000445	20.700939
1985.477628	-3.016800	3.274800	-9.877900	26.653357	0.000445	20.710423
1986.481981	-3.013900	3.272600	-9.862400	26.668076	0.000443	20.701038
1987.478706	-3.016400	3.273800	-9.873100	26.650226	0.000443	20.704905
1988.477615	-2.992900	3.274900	-9.800100	26.622594	0.000440	20.705576
1989.479570	-3.001100	3.272600	-9.820200	26.586649	0.000441	20.705952
1990.479312	-3.018200	3.274100	-9.880700	26.587862	0.000438	20.700532
1991.477563	-2.985900	3.273300	-9.772500	26.644658	0.000439	20.722542
1992.477560	-3.023300	3.271100	-9.888700	26.656718	0.000439	20.702896
1993.478912	-3.030800	3.272200	-9.916500	26.662225	0.000440	20.709381
1994.478909	-3.017300	3.271800	-9.870600	26.646856	0.000439	20.712897
1995.479995	-3.001200	3.271400	-9.817600	26.640161	0.000437	20.714228
1996.483244	-2.970800	3.272300	-9.720400	26.603389	0.000436	20.711401
1997.480519	-2.989700	3.270300	-9.775900	26.559100	0.000436	20.714769
1998.481977	-2.981000	3.271000	-9.749900	26.537328	0.000435	20.708057
1999.482380	-3.002400	3.270600	-9.818900	26.556245	0.000434	20.698622
2000.483482	-3.014800	3.269600	-9.856200	26.579829	0.000432	20.710951
2001.482442	-2.990400	3.269300	-9.775700	26.589515	0.000433	20.721162
2002.483032	-2.983100	3.269700	-9.753300	26.609619	0.000433	20.720983
2003.481531	-2.999800	3.267700	-9.801400	26.577869	0.000432	20.717516
2004.482097	-3.010400	3.268600	-9.837600	26.546633	0.000433	20.715988
2005.489904	-3.002900	3.268300	-9.813500	26.538939	0.000432	20.718211
2006.484579	-3.003400	3.266600	-9.810200	26.515458	0.000431	20.698401
2007.485658	-2.992600	3.267400	-9.777100	26.550682	0.000432	20.713420
2008.485905	-2.996300	3.266600	-9.785700	26.583750	0.000429	20.716315
2009.484798	-2.992600	3.267800	-9.778500	26.596737	0.000427	20.730793
2010.484278	-2.993400	3.266800	-9.777700	26.646604	0.000428	20.726870
2011.487700	-2.997000	3.266200	-9.787700	26.684207	0.000426	20.719627
2012.486786	-2.998700	3.265100	-9.790400	26.726685	0.000425	20.734358
2013.485384	-2.990800	3.265500	-9.765000	26.710056	0.000427	20.704361
2014.488848	-3.025500	3.263500	-9.872700	26.724928	0.000425	20.736385
2015.484997	-2.997800	3.264400	-9.784300	26.727611	0.000425	20.722012
2016.485253	-3.003000	3.263200	-9.798700	26.759876	0.000423	20.723631
2017.485588	-2.992800	3.264600	-9.769300	26.745207	0.000422	20.720737
2018.487813	-2.992200	3.263800	-9.764300	26.786953	0.000423	20.754175
2019.486678	-2.982300	3.262700	-9.728400	26.837793	0.000421	20.733694
2020.488690	-3.002500	3.262100	-9.793300	26.846030	0.000422	20.713051
2021.488322	-2.991600	3.261800	-9.757200	26.831209	0.000420	20.716167
2022.487647	-2.997800	3.261700	-9.776700	26.765388	0.000420	20.725380
2023.485150	-2.996500	3.262000	-9.773000	26.736921	0.000420	20.705766
2024.486559	-2.996800	3.261300	-9.773200	26.721528	0.000420	20.735812
2025.486252	-3.006300	3.259900	-9.799100	26.668890	0.000419	20.727463
2026.485215	-3.003600	3.259600	-9.790100	26.655677	0.000417	20.717024
2027.486919	-3.009800	3.259200	-9.807900	26.630581	0.000417	20.747747
2028.488710	-3.003400	3.258000	-9.784700	26.618465	0.000417	20.720866
2029.485745	-3.017700	3.259500	-9.834700	26.649839	0.000414	20.736760
2030.487444	-2.977100	3.259900	-9.703400	26.678194	0.000416	20.717849
2031.489946	-2.994100	3.257900	-9.753800	26.726968	0.000414	20.733220
2032.487425	-2.982300	3.258200	-9.715800	26.778324	0.000413	20.731748
2033.488866	-2.997100	3.256500	-9.758600	26.803821	0.000413	20.722296
2034.490021	-3.009900	3.257400	-9.802900	26.832532	0.000412	20.733146
2035.489737	-2.996900	3.258100	-9.762800	26.887454	0.000411	20.739057
2036.489736	-3.009300	3.257300	-9.800900	26.927314	0.000412	20.721766
2037.492434	-3.005700	3.255600	-9.783700	26.937021	0.000411	20.738639
2038.491368	-3.007500	3.255200	-9.788600	26.974044	0.000410	20.727979
2039.490169	-3.007600	3.254500	-9.787100	26.999677	0.000409	20.733842
2040.492086	-2.998800	3.255600	-9.761800	27.039257	0.000410	20.770328
2041.490843	-3.012700	3.253200	-9.798500	27.037910	0.000407	20.725349
2042.490192	-3.018400	3.252400	-9.815900	27.022651	0.000407	20.729444
2043.491051	-3.023100	3.253200	-9.834400	26.996352	0.000406	20.746620
2044.492749	-3.018600	3.252100	-9.816500	26.973388	0.000407	20.753873
2045.491110	-3.013800	3.252700	-9.801700	26.948642	0.000404	20.747481
2046.489874	-2.987700	3.253500	-9.718600	26.912683	0.000406	20.748780
2047.492445	-2.978800	3.252700	-9.687700	26.921636	0.000405	20.726961
2048.492601	-3.004000	3.251100	-9.765900	26.963884	0.000402	20.753325
2049.491254	-2.992900	3.251700	-9.729400	26.981764	0.000402	20.722940
2050.500525	-3.007500	3.251200	-9.777000	27.006068	0.000403	20.720354
2051.490515	-3.004600	3.251000	-9.767000	27.004249	0.000402	20.757407
2052.489782	-3.012100	3.250800	-9.790000	27.012761	0.000401	20.739887
2053.491104	-3.008500	3.248900	-9.773200	27.060136	0.000398	20.748176
2054.491968	-3.004000	3.250500	-9.763700	27.084474	0.000399	20.747049
2055.492577	-2.976600	3.250200	-9.674100	27.117776	0.000400	20.748773
2056.492599	-2.997400	3.249900	-9.740500	27.164515	0.000400	20.725132
2057.492400	-3.001600	3.248000	-9.748500	27.166841	0.000399	20.733636
2058.493403	-3.012900	3.247200	-9.780700	27.124443	0.000397	20.765911
2059.493153	-3.008900	3.247700	-9.770800	27.090890	0.000396	20.753976
2060.495775	-3.008100	3.246000	-9.763100	27.092182	0.000396	20.746266
2061.493672	-2.991300	3.246900	-9.711500	27.114034	0.000395	20.741216
2062.492985	-3.002900	3.247400	-9.750700	27.136638	0.000395	20.758735
2063.499201	-3.030300	3.245500	-9.833300	27.141377	0.000392	20.737422
2064.496713	-3.010300	3.244700	-9.766000	27.109092	0.000393	20.768489
2065.495594	-2.996500	3.245000	-9.721500	27.121381	0.000391	20.759037
2066.497682	-2.979700	3.246400	-9.672500	27.115123	0.000391	20.754166
2067.500088	-2.991400	3.245900	-9.709000	27.092462	0.000390	20.761247
2068.498043	-2.998600	3.244200	-9.726500	27.107126	0.000390	20.765564
2069.500753	-3.019500	3.242500	-9.790300	27.140305	0.000389	20.753889
2070.497105	-2.982400	3.244300	-9.673800	27.170642	0.000391	20.764486
2071.497934	-3.016100	3.243100	-9.779300	27.159946	0.000387	20.780281
2072.497216	-3.004600	3.242000	-9.740600	27.144933	0.000387	20.760914
2073.497025	-3.004000	3.241400	-9.736800	27.080540	0.000386	20.781025
2074.496663	-3.027700	3.240300	-9.809700	27.015867	0.000386	20.766720
2075.496987	-2.971100	3.241500	-9.630100	26.978870	0.000385	20.782146
2076.497559	-2.978300	3.241300	-9.652400	26.929060	0.000382	20.769516
2077.498492	-2.987000	3.239700	-9.675100	26.899524	0.000382	20.765895
2078.498771	-3.017900	3.239100	-9.774400	26.893143	0.000380	20.779393
2079.500644	-2.979900	3.240400	-9.654700	26.897485	0.000380	20.757680
2080.499202	-3.019100	3.239600	-9.780100	26.870533	0.000378	20.766141
2081.498494	-3.005300	3.239100	-9.732300	26.876314	0.000383	20.776695
2082.502793	-2.993700	3.238900	-9.695300	26.888948	0.000381	20.769485
2083.500014	-2.989900	3.237300	-9.676800	26.918104	0.000381	20.761817
2084.501678	-2.994000	3.236900	-9.690200	26.954834	0.000377	20.776941
2085.501938	-2.977600	3.238700	-9.642100	27.006700	0.000378	20.768406
2086.501129	-3.007900	3.236300	-9.733500	27.023496	0.000377	20.763960
2087.501606	-2.998500	3.236600	-9.703500	27.053328	0.000375	20.764090
2088.500647	-3.003300	3.235900	-9.717600	27.073773	0.000375	20.782280
2089.501653	-2.981100	3.236800	-9.646900	27.060865	0.000373	20.772144
2090.501323	-3.015600	3.235600	-9.756900	27.094566	0.000375	20.788019
2091.504081	-3.002000	3.235200	-9.711000	27.124959	0.000374	20.785396
2092.501372	-3.015000	3.233000	-9.746000	27.144662	0.000373	20.775340
2093.502738	-3.006400	3.233900	-9.720600	27.137339	0.000374	20.779829
2094.502823	-3.011000	3.231600	-9.729200	27.171956	0.000372	20.777662
2095.503330	-2.998800	3.234000	-9.697100	27.199371	0.000371	20.776787
2096.501728	-3.015200	3.231700	-9.743600	27.233557	0.000370	20.809276
2097.502166	-2.958800	3.232700	-9.564000	27.189741	0.000370	20.777532
2098.505368	-2.989600	3.231100	-9.658100	27.187157	0.000369	20.785839
2099.503648	-2.999500	3.230600	-9.688300	27.209907	0.000369	20.790229
2100.505151	-3.000400	3.231100	-9.693500	27.231176	0.000368	20.799768
2101.507868	-2.990500	3.231800	-9.663400	27.231396	0.000367	20.785291
2102.505014	-3.015900	3.230300	-9.741200	27.241173	0.000366	20.789909
2103.503536	-3.013500	3.229800	-9.731700	27.215246	0.000367	20.794651
2104.508314	-2.997500	3.228200	-9.675800	27.197479	0.000364	20.793850
2105.505195	-3.022400	3.227700	-9.754700	27.173314	0.000363	20.791356
2106.506341	-3.016700	3.226900	-9.734400	27.123863	0.000362	20.812742
2107.507760	-2.982200	3.228200	-9.626400	27.141233	0.000362	20.794177
2108.505438	-3.031000	3.225900	-9.776400	27.176339	0.000361	20.812890
2109.505414	-3.004400	3.227100	-9.694100	27.194975	0.000360	20.808875
2110.509829	-2.988000	3.226400	-9.639700	27.221870	0.000360	20.833081
2111.510053	-2.990300	3.225500	-9.643800	27.243879	0.000361	20.776510
2112.505066	-3.010200	3.225100	-9.707500	27.274439	0.000357	20.797766
2113.508741	-3.007100	3.224400	-9.695200	27.294439	0.000358	20.795599
2114.507307	-2.982600	3.224900	-9.617700	27.315766	0.000357	20.803302
2115.505639	-3.002700	3.225700	-9.684600	27.296276	0.000357	20.790808
2116.505307	-3.006400	3.223100	-9.688800	27.270197	0.000357	20.817206
2117.508828	-2.991900	3.223100	-9.642300	27.232412	0.000357	20.800537
2118.509331	-2.990100	3.224800	-9.641000	27.205413	0.000355	20.811787
2119.505170	-2.996100	3.222400	-9.653400	27.191222	0.000354	20.814109
2120.513206	-2.988100	3.222800	-9.629000	27.210574	0.000354	20.812711
2121.505970	-2.993900	3.223100	-9.648200	27.196645	0.000353	20.814822
2122.506202	-2.991200	3.223200	-9.639900	27.176479	0.000352	20.786952
2123.505208	-2.978800	3.224500	-9.604400	27.168482	0.000352	20.802143
2124.506852	-3.002000	3.220100	-9.665800	27.192078	0.000351	20.797426
2125.505970	-3.016500	3.220100	-9.712600	27.212698	0.000350	20.807261
2126.505934	-2.999600	3.220100	-9.658100	27.193883	0.000350	20.804458
2127.507589	-3.005600	3.220500	-9.678200	27.214803	0.000348	20.814594
2128.507610	-3.018200	3.219900	-9.717200	27.224280	0.000348	20.807531
2129.508508	-2.994300	3.218700	-9.636500	27.236708	0.000347	20.818609
2130.509881	-3.000900	3.218200	-9.656900	27.246583	0.000347	20.810998
2131.507776	-3.014800	3.217900	-9.699000	27.281881	0.000347	20.800036
2132.511574	-3.006500	3.215800	-9.667300	27.264587	0.000345	20.824840
2133.510487	-2.989000	3.217800	-9.617400	27.284385	0.000345	20.807770
2134.509579	-3.004200	3.215300	-9.658900	27.259108	0.000345	20.814587
2135.511995	-3.020200	3.216800	-9.714100	27.249656	0.000342	20.811244
2136.508913	-2.990200	3.216000	-9.615100	27.296476	0.000341	20.833683
2137.509462	-3.013100	3.214600	-9.685100	27.345784	0.000342	20.831127
2138.509934	-3.020200	3.213700	-9.704200	27.387488	0.000340	20.798639
2139.512290	-3.005200	3.215000	-9.660700	27.414280	0.000342	20.820376
2140.511482	-2.985700	3.214100	-9.595900	27.428487	0.000342	20.840831
2141.515911	-2.984100	3.213700	-9.588300	27.447523	0.000340	20.832008
2142.509452	-2.980200	3.213900	-9.576000	27.459495	0.000340	20.830775
2143.514839	-3.021100	3.210700	-9.699800	27.455951	0.000340	20.841909
2144.515527	-2.963700	3.211600	-9.517000	27.413600	0.000338	20.852407
2145.511764	-2.994900	3.213200	-9.621600	27.346793	0.000338	20.833564
2146.515325	-3.012800	3.212200	-9.676700	27.383784	0.000337	20.827629
2147.513013	-3.004400	3.210600	-9.644300	27.400808	0.000338	20.817728
2148.513789	-2.979000	3.212400	-9.568100	27.391123	0.000334	20.835011
2149.519573	-2.991200	3.209800	-9.599300	27.403158	0.000336	20.841428
2150.513535	-2.981300	3.209500	-9.567200	27.454230	0.000334	20.818841
2151.513430	-3.001100	3.208000	-9.627100	27.472611	0.000331	20.850609
2152.516902	-3.006000	3.211500	-9.652600	27.507510	0.000334	20.835935
2153.518487	-3.004400	3.209600	-9.641700	27.536380	0.000332	20.825627
2154.518124	-2.993700	3.208900	-9.606000	27.565249	0.000333	20.844241
2155.516292	-3.004000	3.207400	-9.634000	27.568230	0.000330	20.824482
2156.514781	-3.014200	3.205700	-9.661400	27.552801	0.000329	20.831717
2157.515418	-2.997400	3.205800	-9.607800	27.548015	0.000329	20.825479
2158.515246	-3.019100	3.205000	-9.675200	27.553841	0.000328	20.805263
2159.517234	-2.985600	3.206700	-9.571600	27.557985	0.000326	20.801846
2160.517554	-3.002900	3.205100	-9.622700	27.556246	0.000326	20.820959
2161.517668	-3.018400	3.203500	-9.668300	27.564086	0.000324	20.813201
2162.524653	-3.017000	3.203500	-9.663600	27.560041	0.000324	20.809605
2163.521412	-3.002800	3.203500	-9.618700	27.559098	0.000324	20.810079
2164.521186	-2.980400	3.203700	-9.547600	27.514004	0.000323	20.822080
2165.525414	-3.007500	3.202200	-9.629200	27.500808	0.000322	20.823028
2166.524403	-3.002500	3.202600	-9.614800	27.478242	0.000323	20.815498
2167.523057	-3.007000	3.202500	-9.629200	27.517830	0.000322	20.809808
2168.528582	-3.012600	3.201800	-9.644500	27.525339	0.000322	20.810725
2169.521963	-3.008100	3.200600	-9.627200	27.547935	0.000320	20.802166
2170.522240	-3.025500	3.200300	-9.681600	27.552825	0.000319	20.804241
2171.525919	-2.994200	3.201200	-9.584100	27.545830	0.000318	20.800048
2172.524971	-3.015500	3.199300	-9.646200	27.553272	0.000319	20.803742
2173.522991	-2.988600	3.200100	-9.563100	27.544263	0.000318	20.800842
2174.528420	-3.016300	3.197200	-9.642800	27.538583	0.000317	20.800343
2175.523038	-3.000800	3.197600	-9.594300	27.524665	0.000318	20.815263
2176.523150	-2.986400	3.197900	-9.549800	27.540982	0.000316	20.808446
2177.523728	-2.982100	3.197500	-9.534400	27.552708	0.000315	20.806019
2178.522504	-2.988800	3.196300	-9.551900	27.524903	0.000312	20.778518
2179.523202	-2.978800	3.196900	-9.522200	27.556502	0.000313	20.784707
2180.520954	-2.971800	3.195500	-9.494800	27.552756	0.000315	20.782835
2181.524734	-2.997700	3.196100	-9.579800	27.519126	0.000315	20.788353
2182.523540	-2.987200	3.195300	-9.544200	27.521573	0.000312	20.804566
2183.524443	-3.000800	3.195200	-9.586800	27.538294	0.000309	20.804320
2184.526543	-3.000400	3.194500	-9.584200	27.556820	0.000309	20.801148
2185.524990	-2.999400	3.196400	-9.586000	27.578700	0.000310	20.775747
2186.525160	-3.006900	3.194000	-9.602200	27.582739	0.000308	20.773647
2187.526639	-3.021400	3.192000	-9.643200	27.563791	0.000309	20.766436
2188.527230	-3.009600	3.193600	-9.610300	27.562004	0.000304	20.804467
2189.524546	-3.017600	3.190900	-9.628200	27.546275	0.000308	20.789115
2190.527297	-2.978700	3.192000	-9.506500	27.560890	0.000306	20.801924
2191.526944	-2.978800	3.192300	-9.508300	27.573907	0.000306	20.785624
2192.526550	-3.023200	3.189200	-9.639100	27.530601	0.000303	20.799898
2193.528083	-3.020200	3.190400	-9.634500	27.496742	0.000303	20.779583
2194.528693	-2.989100	3.191000	-9.536700	27.484440	0.000304	20.775266
2195.529280	-3.001000	3.188500	-9.567400	27.469230	0.000301	20.770395
2196.529593	-2.994400	3.188500	-9.547100	27.469628	0.000300	20.777434
2197.530712	-2.990100	3.187900	-9.531300	27.512937	0.000301	20.782126
2198.531118	-3.019200	3.186600	-9.619400	27.540362	0.000299	20.786485
2199.530299	-3.003800	3.185500	-9.567100	27.548006	0.000299	20.782323
2200.533010	-2.990000	3.187600	-9.529500	27.602915	0.000297	20.775457
2201.538603	-2.999400	3.185400	-9.553300	27.596496	0.000298	20.769946
2202.531243	-3.018600	3.184800	-9.613600	27.620260	0.000299	20.773942
2203.533906	-3.001300	3.184800	-9.557300	27.667675	0.000296	20.781350
2204.535955	-3.017000	3.184400	-9.606800	27.677350	0.000297	20.791560
2205.532150	-3.002500	3.184800	-9.561600	27.732625	0.000295	20.777957
2206.536741	-3.014500	3.183400	-9.595100	27.746810	0.000295	20.761411
2207.536862	-2.989800	3.183200	-9.516500	27.711998	0.000294	20.782804
2208.534446	-3.003500	3.183700	-9.560900	27.685231	0.000296	20.764403
2209.535507	-2.983100	3.183100	-9.494600	27.698456	0.000294	20.769650
2210.539752	-2.997500	3.182000	-9.537200	27.729621	0.000292	20.774933
2211.534472	-2.994100	3.181000	-9.522900	27.765729	0.000291	20.776658
2212.536677	-2.989500	3.181300	-9.509700	27.761165	0.000293	20.777279
2213.539670	-3.009600	3.179800	-9.568800	27.729921	0.000292	20.771442
2214.533296	-3.002100	3.178700	-9.540800	27.742073	0.000291	20.766128
2215.537289	-3.001200	3.181100	-9.546500	27.745518	0.000292	20.780500
2216.534236	-3.002800	3.177900	-9.542100	27.737766	0.000288	20.769380
2217.534809	-2.998300	3.177900	-9.527300	27.765161	0.000289	20.751903
2218.534102	-3.008700	3.177700	-9.559200	27.770570	0.000288	20.791012
2219.537204	-2.978500	3.176900	-9.461300	27.743267	0.000285	20.774441
2220.535130	-2.991500	3.177400	-9.503900	27.710487	0.000287	20.765161
2221.535692	-2.987300	3.176300	-9.487900	27.681273	0.000286	20.774645
2222.539090	-3.001200	3.175600	-9.529300	27.683537	0.000285	20.757483
2223.538241	-3.018700	3.174600	-9.581900	27.602611	0.000284	20.755709
2224.536144	-3.000300	3.175200	-9.525600	27.581601	0.000286	20.745000
2225.541519	-2.997100	3.174400	-9.513700	27.581478	0.000284	20.766689
2226.537611	-3.006300	3.173600	-9.539300	27.580658	0.000280	20.748794
2227.536251	-3.009700	3.172300	-9.545100	27.581300	0.000283	20.761768
2228.536210	-3.012400	3.171900	-9.553800	27.535638	0.000283	20.762292
2229.537850	-2.983000	3.171800	-9.460500	27.450416	0.000279	20.753837
2230.537301	-2.995800	3.171700	-9.500900	27.469396	0.000281	20.753019
2231.537443	-2.984200	3.172100	-9.464600	27.446774	0.000280	20.750173
2232.540054	-2.997700	3.169700	-9.500000	27.472378	0.000278	20.734206
2233.538669	-2.993100	3.171300	-9.491200	27.521611	0.000278	20.756239
2234.539031	-2.987500	3.168600	-9.464300	27.535302	0.000279	20.768592
2235.545089	-2.999300	3.168800	-9.503600	27.510796	0.000279	20.750574
2236.539514	-3.007300	3.170200	-9.532700	27.469892	0.000277	20.773432
2237.541920	-3.009900	3.168100	-9.535000	27.453575	0.000276	20.756067
2238.542077	-3.013600	3.167200	-9.542800	27.463258	0.000276	20.752533
2239.543685	-3.007000	3.164800	-9.515100	27.488879	0.000275	20.747964
2240.541048	-3.014100	3.165700	-9.540800	27.494437	0.000275	20.750710
2241.543664	-3.034300	3.165800	-9.605100	27.527077	0.000275	20.744195
2242.545698	-2.991800	3.165200	-9.469200	27.525597	0.000273	20.756456
2243.542476	-2.988200	3.164600	-9.455700	27.478940	0.000272	20.737015
2244.543678	-3.002000	3.163100	-9.494800	27.430885	0.000273	20.760267
2245.544357	-3.034800	3.162400	-9.596300	27.456465	0.000272	20.739059
2246.546694	-2.985100	3.162200	-9.437000	27.488146	0.000270	20.743432
2247.545620	-2.992100	3.162100	-9.460800	27.508240	0.000271	20.756537
2248.546967	-2.981100	3.162800	-9.427400	27.549264	0.000272	20.748500
2249.546051	-2.995000	3.161300	-9.466900	27.559785	0.000269	20.745335
2250.547153	-2.990900	3.160100	-9.450000	27.547239	0.000268	20.733186
2251.550642	-3.001000	3.161000	-9.484400	27.515064	0.000269	20.734953
2252.552763	-3.011600	3.160000	-9.514600	27.489493	0.000266	20.721079
2253.548166	-3.008300	3.156800	-9.495900	27.447841	0.000266	20.759782
2254.555295	-3.019500	3.156900	-9.531100	27.393849	0.000266	20.753354
2255.554178	-3.004600	3.158000	-9.488300	27.355486	0.000263	20.735150
2256.547404	-2.997100	3.157600	-9.462200	27.399229	0.000267	20.732687
2257.552363	-3.014900	3.156400	-9.513800	27.430378	0.000264	20.759283
2258.547778	-2.997600	3.156500	-9.459900	27.482693	0.000264	20.744584
2259.548566	-3.005500	3.153700	-9.478300	27.500357	0.000263	20.729164
2260.550879	-3.004100	3.153700	-9.471700	27.490558	0.000262	20.734479
2261.555836	-3.015700	3.152900	-9.507600	27.520971	0.000261	20.748482
2262.552444	-3.004800	3.152900	-9.472900	27.515633	0.000259	20.752122
2263.551733	-3.003100	3.151200	-9.462300	27.556437	0.000262	20.727267
2264.555602	-3.000200	3.151300	-9.453900	27.567221	0.000262	20.740014
2265.551619	-3.010600	3.151200	-9.485300	27.567374	0.000260	20.738272
2266.550983	-2.984400	3.151100	-9.403800	27.540935	0.000260	20.741542
2267.554163	-3.020100	3.150300	-9.511700	27.508711	0.000257	20.709119
2268.552963	-3.006900	3.148800	-9.466500	27.498447	0.000258	20.726769
2269.553119	-2.975700	3.149500	-9.370300	27.526748	0.000257	20.729638
2270.554551	-2.985800	3.148600	-9.399200	27.574149	0.000257	20.737028
2271.554474	-2.989200	3.148800	-9.411300	27.618641	0.000255	20.721577
2272.555614	-3.017900	3.147500	-9.497900	27.647801	0.000256	20.735273
2273.555821	-3.015100	3.146900	-9.487800	27.640164	0.000255	20.723320
2274.556154	-3.037300	3.146200	-9.554600	27.632680	0.000255	20.715314
2275.555130	-2.989800	3.145200	-9.402600	27.645274	0.000254	20.742687
2276.555952	-3.004800	3.143600	-9.445200	27.663896	0.000255	20.744830
2277.555687	-3.019800	3.142500	-9.488200	27.664814	0.000254	20.725364
2278.555247	-3.013500	3.142600	-9.469000	27.684971	0.000253	20.712930
2279.555562	-2.998600	3.142000	-9.420700	27.706352	0.000252	20.733973
2280.557927	-2.984100	3.142900	-9.376500	27.732145	0.000251	20.703028
2281.556969	-2.996200	3.140800	-9.410000	27.727420	0.000249	20.725776
2282.556031	-3.022600	3.141400	-9.494500	27.711773	0.000251	20.729945
2283.562644	-3.011400	3.139500	-9.452800	27.712073	0.000250	20.727876
2284.558506	-3.012400	3.139300	-9.456000	27.665027	0.000251	20.729372
2285.555095	-2.997400	3.140100	-9.411300	27.641907	0.000249	20.718435
2286.559159	-3.021800	3.137900	-9.480600	27.670853	0.000247	20.711526
2287.553988	-3.016900	3.136000	-9.460300	27.674891	0.000247	20.761585
2288.558973	-3.014500	3.134600	-9.448500	27.697680	0.000249	20.726668
2289.559626	-2.993900	3.135300	-9.385900	27.732394	0.000248	20.713711
2290.556983	-2.992100	3.135200	-9.379900	27.755286	0.000246	20.724894
2291.555977	-3.019500	3.133700	-9.461100	27.796417	0.000246	20.720768
2292.557673	-2.983800	3.135400	-9.354800	27.814076	0.000244	20.719099
2293.561341	-2.999200	3.134400	-9.399500	27.834457	0.000243	20.731077
2294.562491	-3.012700	3.132800	-9.437200	27.840306	0.000245	20.731748
2295.558177	-3.006800	3.131200	-9.414400	27.797586	0.000245	20.712935
2296.560723	-2.995100	3.131900	-9.378800	27.808195	0.000244	20.722664
2297.558979	-2.999500	3.131400	-9.391900	27.824036	0.000243	20.729124
2298.563235	-2.990200	3.130800	-9.359300	27.795523	0.000244	20.725559
2299.562050	-3.002700	3.128800	-9.393400	27.814711	0.000243	20.724481
2300.559643	-3.003600	3.127700	-9.393600	27.812007	0.000242	20.722233
2301.560536	-3.006200	3.128300	-9.403500	27.793803	0.000241	20.718137
2302.564765	-3.008200	3.127300	-9.407000	27.817343	0.000240	20.714800
2303.561583	-2.983400	3.126300	-9.324900	27.862589	0.000240	20.712447
2304.561807	-2.996000	3.125600	-9.363300	27.884431	0.000240	20.716413
2305.562189	-2.983000	3.123400	-9.316100	27.895658	0.000237	20.730558
2306.564679	-3.001400	3.123100	-9.372400	27.895266	0.000240	20.706929
2307.562735	-2.990200	3.123500	-9.337600	27.901691	0.000239	20.726199
2308.561963	-2.997500	3.123200	-9.360600	27.901164	0.000239	20.712391
2309.564242	-3.013500	3.121100	-9.404400	27.942400	0.000238	20.708851
2310.565866	-2.963500	3.122800	-9.252600	27.902131	0.000237	20.711942
2311.561749	-3.003400	3.119600	-9.368400	27.904609	0.000236	20.722497
2312.566912	-2.998900	3.119800	-9.354900	27.904951	0.000237	20.715254
2313.563756	-3.002000	3.118600	-9.360800	27.892800	0.000236	20.718198
2314.564172	-2.999700	3.117200	-9.349800	27.858158	0.000236	20.701823
2315.565056	-2.973200	3.118700	-9.271000	27.843375	0.000237	20.695479
2316.563263	-2.976800	3.118900	-9.283500	27.823343	0.000235	20.715149
2317.563122	-2.986200	3.115600	-9.303400	27.837893	0.000234	20.712248
2318.563622	-2.998900	3.114400	-9.338700	27.801560	0.000234	20.697018
2319.564612	-3.027000	3.114000	-9.425000	27.759480	0.000232	20.685490
2320.565240	-2.995600	3.113400	-9.325700	27.739642	0.000233	20.706305
2321.565693	-3.030800	3.111700	-9.429600	27.790430	0.000235	20.697671
2322.567609	-3.010400	3.111300	-9.365600	27.831835	0.000233	20.704728
2323.566197	-3.013200	3.111400	-9.374700	27.824143	0.000235	20.702203
2324.566824	-2.971400	3.111100	-9.243700	27.846702	0.000235	20.716847
2325.568435	-2.981700	3.110500	-9.272900	27.835328	0.000232	20.711564
2326.570294	-2.976500	3.110000	-9.255500	27.836044	0.000233	20.702800
2327.567779	-2.997700	3.107700	-9.315800	27.852876	0.000230	20.684651
2328.573551	-3.025100	3.107500	-9.399600	27.847247	0.000231	20.697479
2329.569951	-3.008800	3.107000	-9.346900	27.818190	0.000230	20.707592
2330.570240	-3.018200	3.104800	-9.370100	27.792343	0.000230	20.708607
2331.569842	-2.995700	3.105000	-9.300000	27.751482	0.000229	20.714427
2332.569134	-2.999400	3.105400	-9.313200	27.710880	0.000228	20.712450
2333.567663	-3.008200	3.103200	-9.334100	27.710434	0.000230	20.682600
2334.569839	-3.011000	3.102400	-9.339100	27.734268	0.000229	20.695207
2335.569427	-3.011600	3.102300	-9.340700	27.753115	0.000230	20.692836
2336.568824	-2.994200	3.101600	-9.285900	27.743838	0.000229	20.684922
2337.569294	-3.009700	3.099200	-9.326800	27.768339	0.000229	20.701045
2338.571043	-2.991100	3.099900	-9.270700	27.801791	0.000229	20.692509
2339.571141	-3.000900	3.098700	-9.296500	27.812847	0.000226	20.723079
2340.569737	-3.021800	3.096700	-9.356400	27.849247	0.000228	20.706131
2341.571628	-2.989800	3.096400	-9.256600	27.868863	0.000229	20.703114
2342.570716	-3.022200	3.096100	-9.355300	27.858449	0.000227	20.691684
2343.570654	-2.998300	3.094400	-9.277000	27.852593	0.000226	20.703809
2344.572973	-2.996000	3.094100	-9.268800	27.859367	0.000226	20.692133
2345.572608	-2.978800	3.092400	-9.210000	27.877165	0.000228	20.687286
2346.571300	-3.002500	3.092500	-9.284300	27.894020	0.000227	20.699036
2347.574334	-2.999100	3.091600	-9.271100	27.898634	0.000226	20.697989
2348.572677	-2.981100	3.091500	-9.215300	27.836171	0.000225	20.704825
2349.571874	-2.988300	3.089800	-9.232300	27.807860	0.000226	20.678227
2350.573042	-3.014100	3.088900	-9.308500	27.779763	0.000222	20.687409
2351.572650	-2.987500	3.088000	-9.224800	27.727903	0.000224	20.694017
2352.572966	-3.026500	3.086100	-9.338200	27.759025	0.000224	20.713483
2353.572360	-3.013200	3.086200	-9.297400	27.803833	0.000222	20.696936
2354.576095	-3.011100	3.084800	-9.287700	27.858038	0.000223	20.689848
2355.571572	-2.999700	3.085400	-9.253300	27.834457	0.000223	20.704997
2356.574466	-2.989500	3.082800	-9.214700	27.838251	0.000224	20.689373
2357.576299	-2.991700	3.082200	-9.220200	27.886403	0.000222	20.687575
2358.574328	-3.006600	3.081000	-9.262400	27.897734	0.000223	20.677167
2359.573597	-3.022800	3.081000	-9.312300	27.946874	0.000221	20.696757
2360.573977	-3.001500	3.081000	-9.247100	27.968966	0.000221	20.696234
2361.576322	-2.991000	3.078100	-9.205900	28.024520	0.000221	20.688615
2362.575366	-3.011400	3.077300	-9.265800	28.079631	0.000219	20.690986
2363.574083	-3.018800	3.076800	-9.286700	28.120535	0.000220	20.689964
2364.577305	-3.011600	3.077500	-9.267100	28.167757	0.000219	20.694829
2365.574839	-2.997600	3.075700	-9.217900	28.182999	0.000221	20.697372
2366.575573	-3.016800	3.073700	-9.271300	28.230780	0.000219	20.695216
2367.580010	-3.029200	3.070900	-9.300800	28.228481	0.000219	20.684366
2368.578232	-3.006700	3.072900	-9.238100	28.221790	0.000219	20.690906
2369.576919	-2.989500	3.071800	-9.181200	28.210958	0.000217	20.700864
2370.576351	-3.008000	3.069700	-9.232800	28.229050	0.000220	20.666444
2371.577583	-2.970000	3.070000	-9.116600	28.251906	0.000217	20.683768
2372.578158	-2.988600	3.069000	-9.171600	28.236407	0.000217	20.710366
2373.576077	-3.009300	3.068300	-9.231800	28.178276	0.000219	20.676969
2374.577872	-2.982500	3.067800	-9.148900	28.109511	0.000219	20.685978
2375.579343	-3.013300	3.064900	-9.233900	28.101375	0.000219	20.702446
2376.577373	-2.998100	3.064000	-9.185700	28.045372	0.000216	20.686846
2377.578920	-3.010500	3.064100	-9.223100	28.004049	0.000218	20.688873
2378.578635	-3.023200	3.063500	-9.260800	27.926138	0.000217	20.701965
2379.579309	-2.980500	3.062500	-9.126500	27.888994	0.000216	20.694926
2380.578485	-2.993500	3.062000	-9.164600	27.894794	0.000218	20.697919
2381.578480	-2.998900	3.059900	-9.175600	27.917383	0.000217	20.702162
2382.581897	-2.979300	3.059700	-9.115200	27.954030	0.000215	20.698270
2383.579645	-2.998200	3.058700	-9.169600	27.961836	0.000216	20.694273
2384.582386	-3.001500	3.056300	-9.172400	27.966369	0.000216	20.702629
2385.582561	-3.022700	3.054700	-9.232500	27.948297	0.000215	20.695344
2386.580997	-2.968400	3.056400	-9.071900	27.932102	0.000214	20.717926
2387.584125	-2.997000	3.053500	-9.150000	27.886081	0.000213	20.703374
2388.583130	-2.974300	3.054700	-9.084200	27.893839	0.000213	20.689370
2389.580790	-3.013100	3.050000	-9.189100	27.923812	0.000215	20.714797
2390.583548	-3.033800	3.049800	-9.251500	27.957259	0.000215	20.707210
2391.585223	-3.018400	3.049800	-9.204400	27.949079	0.000216	20.716996
2392.582204	-2.985100	3.049300	-9.101800	27.977955	0.000215	20.683944
2393.585699	-2.971600	3.048100	-9.057000	28.015022	0.000213	20.683796
2394.582691	-2.980400	3.047100	-9.080500	27.984274	0.000216	20.715911
2395.583594	-3.001900	3.046500	-9.144500	27.940935	0.000214	20.705005
2396.586763	-2.997900	3.043900	-9.123700	27.957870	0.000215	20.688384
2397.583704	-2.975800	3.044000	-9.057400	27.988220	0.000214	20.703761
2398.583959	-3.024400	3.041600	-9.197100	28.069380	0.000214	20.688728
2399.584422	-2.993100	3.041000	-9.101400	28.108792	0.000214	20.722716
2400.585749	-2.999700	3.038400	-9.113700	28.135071	0.000211	20.707443
2401.585680	-3.007700	3.037500	-9.135200	28.144344	0.000213	20.703502
2402.583029	-3.010200	3.038100	-9.145200	28.177606	0.000212	20.707591
2403.588702	-2.984300	3.037600	-9.062700	28.185613	0.000214	20.711385
2404.588077	-3.019300	3.034400	-9.161100	28.144980	0.000213	20.721687
2405.589757	-3.029200	3.033300	-9.187600	28.096962	0.000214	20.692786
2406.589711	-2.994400	3.033100	-9.082000	28.148448	0.000214	20.707159
2407.596639	-2.995600	3.031800	-9.081100	28.161207	0.000211	20.716686
2408.591555	-3.011200	3.029100	-9.119200	28.162675	0.000211	20.716742
2409.590229	-3.002400	3.028900	-9.093000	28.153469	0.000214	20.708895
2410.595098	-2.990500	3.029300	-9.058400	28.175238	0.000213	20.716587
2411.593802	-2.991500	3.027700	-9.055200	28.150563	0.000211	20.716876
2412.594632	-2.992000	3.025800	-9.052400	28.117967	0.000212	20.719149
2413.604187	-3.002400	3.024200	-9.078300	28.105274	0.000213	20.735296
2414.592443	-2.993600	3.023900	-9.051400	28.039428	0.000213	20.739187
2415.592409	-2.987300	3.023200	-9.028700	28.028954	0.000210	20.717738
2416.594816	-3.014300	3.020300	-9.102700	27.974636	0.000210	20.718064
2417.592628	-3.005900	3.021100	-9.078000	28.028110	0.000211	20.720681
2418.591719	-2.995000	3.017700	-9.036900	28.047649	0.000213	20.716167
2419.598590	-3.003500	3.016900	-9.059700	28.065249	0.000210	20.701166
2420.595534	-3.002600	3.018100	-9.060000	28.042681	0.000213	20.729660
2421.592482	-3.015800	3.014000	-9.088100	28.004471	0.000212	20.722491
2422.597686	-2.980400	3.014900	-8.984700	27.983549	0.000212	20.709017
2423.595502	-3.005300	3.011400	-9.049300	27.964780	0.000210	20.700555
2424.592548	-3.009500	3.009500	-9.056400	27.978563	0.000211	20.717749
2425.593189	-3.004000	3.010900	-9.043700	28.045397	0.000213	20.704416
2426.591861	-2.999100	3.007700	-9.019500	28.083795	0.000211	20.718888
2427.595533	-2.956400	3.009100	-8.894800	28.134144	0.000211	20.736383
2428.593148	-2.994400	3.006900	-9.003200	28.172758	0.000211	20.713142
2429.594531	-3.000100	3.004500	-9.012800	28.201861	0.000209	20.715889
2430.593872	-2.990800	3.004400	-8.982300	28.174831	0.000208	20.712858
2431.596217	-3.022300	3.002100	-9.071700	28.180263	0.000209	20.702205
2432.595033	-2.998000	3.002300	-8.998800	28.171161	0.000210	20.734769
2433.595473	-2.991400	2.999300	-8.970500	28.193615	0.000207	20.754056
2434.594614	-3.025000	2.997200	-9.064600	28.228766	0.000210	20.746771
2435.595427	-3.015800	2.996500	-9.036200	28.263610	0.000208	20.723530
2436.595149	-2.962500	2.997900	-8.879500	28.310636	0.000207	20.725834
2437.596929	-3.003900	2.995400	-8.996300	28.377644	0.000208	20.737355
2438.596016	-2.983700	2.994100	-8.932300	28.375094	0.000209	20.740952
2439.595500	-2.990000	2.992100	-8.945300	28.376898	0.000208	20.736604
2440.599117	-3.005600	2.989100	-8.982200	28.324255	0.000207	20.751401
2441.596708	-2.964200	2.990100	-8.862100	28.288067	0.000207	20.746734
2442.598780	-2.999900	2.987600	-8.961400	28.300312	0.000208	20.726818
2443.603505	-3.017800	2.986800	-9.011800	28.252496	0.000207	20.728462
2444.597967	-3.009700	2.986600	-8.987200	28.227034	0.000207	20.735070
2445.601368	-2.995700	2.983600	-8.937500	28.183883	0.000207	20.751845
2446.599082	-3.002500	2.982300	-8.952700	28.115589	0.000208	20.745206
2447.600255	-2.988000	2.982700	-8.911300	28.061862	0.000206	20.754658
2448.599308	-3.000000	2.978600	-8.933700	28.029256	0.000206	20.741277
2449.600548	-2.988400	2.977200	-8.895600	27.986464	0.000207	20.765059
2450.599475	-2.968600	2.976900	-8.836300	27.980120	0.000208	20.755828
2451.599590	-2.989000	2.974900	-8.889800	27.950442	0.000208	20.741129
2452.603982	-2.974900	2.976100	-8.851700	27.949029	0.000207	20.761992
2453.601256	-3.007100	2.971700	-8.935300	27.965712	0.000208	20.725204
2454.599935	-2.983100	2.970600	-8.860600	27.997390	0.000209	20.749029
2455.608220	-2.983900	2.969700	-8.860400	27.996325	0.000207	20.752700
2456.601534	-2.993000	2.968000	-8.881300	28.021940	0.000208	20.751930
2457.604053	-3.003800	2.966900	-8.911000	27.988317	0.000209	20.747009
2458.604512	-3.001600	2.966000	-8.901700	28.013681	0.000206	20.734133
2459.602371	-3.008100	2.964600	-8.917200	28.009490	0.000206	20.755520
2460.602665	-3.019600	2.962600	-8.945000	27.969719	0.000206	20.753420
2461.603646	-3.033800	2.959100	-8.976900	27.978871	0.000206	20.759787
2462.606181	-3.006600	2.959200	-8.895900	27.998998	0.000206	20.748278
2463.608373	-3.003400	2.958400	-8.883600	27.995016	0.000205	20.735734
2464.607009	-2.988100	2.956900	-8.833600	28.041319	0.000206	20.726866
2465.611850	-3.006500	2.955100	-8.883400	28.004284	0.000206	20.760711
2466.606699	-3.008500	2.953700	-8.884600	28.047645	0.000205	20.760736
2467.608554	-2.993300	2.952500	-8.837000	28.079351	0.000205	20.751874
2468.610815	-3.007200	2.952100	-8.876700	28.135450	0.000206	20.748130
2469.608967	-3.028800	2.948800	-8.928800	28.144576	0.000205	20.768224
2470.608338	-2.988500	2.948200	-8.809500	28.124617	0.000206	20.767097
2471.609683	-2.984700	2.947700	-8.797700	28.061372	0.000204	20.763648
2472.608175	-2.983600	2.944100	-8.782600	28.020269	0.000207	20.766370
2473.608532	-3.010800	2.942900	-8.859500	28.018838	0.000205	20.764929
2474.608646	-2.985700	2.943200	-8.786900	28.063880	0.000207	20.750526
2475.609489	-3.000200	2.940300	-8.820200	28.117869	0.000206	20.752243
2476.608009	-3.027600	2.937100	-8.891000	28.163043	0.000206	20.766426
2477.610080	-3.029400	2.936800	-8.896000	28.228061	0.000206	20.765502
2478.612382	-3.011500	2.935500	-8.839400	28.279223	0.000204	20.759166
2479.614601	-2.983200	2.934900	-8.754500	28.343439	0.000205	20.770718
2480.609365	-2.993200	2.932800	-8.776900	28.335813	0.000204	20.748340
2481.612294	-3.023700	2.930800	-8.860700	28.347628	0.000204	20.762608
2482.608944	-2.993100	2.929400	-8.767600	28.394497	0.000204	20.764757
2483.609082	-3.009400	2.926400	-8.806000	28.459972	0.000203	20.771420
2484.609726	-2.989000	2.926900	-8.747400	28.502324	0.000204	20.764757
2485.609418	-3.006600	2.923300	-8.788100	28.513257	0.000205	20.760120
2486.611083	-3.009600	2.923300	-8.797500	28.555826	0.000205	20.749886
2487.611397	-3.005200	2.920500	-8.775200	28.594359	0.000206	20.773046
2488.611431	-3.003400	2.920500	-8.770300	28.543536	0.000205	20.782080
2489.612260	-2.979700	2.920300	-8.701000	28.496771	0.000206	20.751105
2490.611297	-3.000200	2.916500	-8.747500	28.486841	0.000206	20.769080
2491.613078	-3.008800	2.914300	-8.767500	28.517819	0.000204	20.766137
2492.612387	-2.997200	2.913600	-8.731800	28.513435	0.000207	20.764567
2493.612727	-3.026800	2.909400	-8.805100	28.552635	0.000205	20.777966
2494.615847	-3.017200	2.910900	-8.781300	28.581465	0.000205	20.771914
2495.613511	-3.010700	2.908300	-8.754700	28.597123	0.000204	20.779149
2496.614053	-3.020600	2.906900	-8.780000	28.632780	0.000204	20.784242
2497.616274	-3.001500	2.903900	-8.715300	28.683721	0.000204	20.762055
2498.617563	-3.006000	2.903400	-8.726400	28.707711	0.000204	20.771994
2499.615182	-3.003400	2.902200	-8.714500	28.700772	0.000206	20.779230
2500.619965	-3.023600	2.899100	-8.765200	28.647974	0.000205	20.766827
2501.618387	-2.997400	2.897300	-8.683300	28.577778	0.000203	20.766304
2502.616364	-3.012800	2.894800	-8.720400	28.506911	0.000203	20.780757
2503.619655	-3.024200	2.893700	-8.749500	28.489337	0.000204	20.781077
2504.617640	-3.008700	2.891100	-8.697700	28.524314	0.000205	20.767937
2505.616187	-3.027000	2.888700	-8.741700	28.548032	0.000206	20.773805
2506.614991	-2.992800	2.887300	-8.640200	28.601355	0.000205	20.769661
2507.618031	-2.998800	2.885600	-8.652100	28.625811	0.000204	20.783861
2508.618952	-3.007800	2.883700	-8.672600	28.678739	0.000206	20.774581
2509.618269	-3.009000	2.882800	-8.673400	28.705603	0.000204	20.784096
2510.621602	-3.015500	2.881400	-8.687800	28.756344	0.000205	20.776885
2511.621808	-3.002400	2.878900	-8.642100	28.726664	0.000205	20.790137
2512.621290	-3.010100	2.876100	-8.656100	28.704362	0.000205	20.759137
2513.623276	-3.008000	2.876400	-8.651200	28.725625	0.000205	20.779133
2514.620159	-3.016700	2.872700	-8.665400	28.715018	0.000205	20.785992
2515.621885	-3.051000	2.870200	-8.755500	28.667479	0.000205	20.785999
2516.626538	-3.014700	2.868200	-8.644500	28.644546	0.000204	20.778548
2517.625320	-2.986400	2.866700	-8.560100	28.625635	0.000206	20.751915
2518.624920	-2.979400	2.867300	-8.540700	28.609702	0.000204	20.782335
2519.632350	-2.999800	2.863300	-8.588800	28.615425	0.000202	20.781935
2520.623766	-3.008600	2.860400	-8.605300	28.624896	0.000204	20.788155
2521.624949	-3.025100	2.859000	-8.647200	28.620683	0.000206	20.797188
2522.625284	-3.012200	2.857600	-8.606600	28.591617	0.000205	20.786406
2523.624971	-3.022900	2.855700	-8.632100	28.605991	0.000204	20.790926
2524.623879	-3.008000	2.854100	-8.583900	28.605105	0.000205	20.782921
2525.625764	-2.996000	2.852400	-8.545100	28.596875	0.000206	20.782693
2526.625072	-2.986300	2.850400	-8.511600	28.573806	0.000205	20.806400
2527.623766	-3.009000	2.847100	-8.566100	28.580080	0.000203	20.780950
2528.623750	-3.014100	2.844100	-8.570600	28.582880	0.000205	20.805108
2529.624831	-2.986000	2.844500	-8.493000	28.527300	0.000203	20.779953
2530.623955	-2.972500	2.842200	-8.447500	28.521601	0.000206	20.781326
2531.623282	-3.014900	2.838100	-8.555300	28.553690	0.000204	20.785193
2532.626822	-2.995700	2.836900	-8.497200	28.591483	0.000204	20.795754
2533.624739	-2.989200	2.835800	-8.474600	28.646516	0.000203	20.791912
2534.624258	-3.055600	2.830900	-8.649300	28.676058	0.000203	20.793218
2535.627537	-2.981000	2.832500	-8.442600	28.707030	0.000201	20.801180
2536.626444	-3.004900	2.828800	-8.499300	28.741533	0.000205	20.768604
2537.625785	-3.009800	2.826300	-8.506200	28.763657	0.000203	20.796105
2538.626890	-3.021500	2.824100	-8.532500	28.796094	0.000204	20.787528
2539.627787	-2.994800	2.822100	-8.450200	28.806156	0.000206	20.807147
2540.623502	-2.990300	2.819300	-8.429200	28.837344	0.000205	20.796364
2541.625573	-2.988400	2.816700	-8.416700	28.852186	0.000203	20.784763
2542.627750	-3.001500	2.814400	-8.446600	28.824691	0.000204	20.796894
2543.629567	-2.996000	2.812200	-8.424100	28.825974	0.000203	20.784437
2544.625562	-2.988000	2.809700	-8.393500	28.864650	0.000205	20.816285
2545.625354	-2.959600	2.808800	-8.311600	28.855463	0.000204	20.816988
2546.626526	-2.991300	2.805500	-8.390900	28.788380	0.000206	20.805362
2547.627945	-3.012500	2.802400	-8.441000	28.772871	0.000204	20.796852
2548.627780	-2.972000	2.801100	-8.324100	28.813669	0.000202	20.821827
2549.629440	-2.992500	2.797700	-8.371500	28.838745	0.000204	20.801569
2550.627514	-3.000800	2.795700	-8.388800	28.803076	0.000204	20.793139
2551.629116	-3.027100	2.791500	-8.448400	28.793192	0.000203	20.798355
2552.632618	-2.979600	2.790800	-8.314200	28.797232	0.000205	20.804322
2553.627321	-3.003600	2.786400	-8.368300	28.815889	0.000205	20.791347
2554.628997	-2.993700	2.784500	-8.334700	28.796573	0.000204	20.802709
2555.631560	-3.022100	2.781200	-8.404200	28.808909	0.000204	20.830782
2556.628745	-3.006500	2.778900	-8.353700	28.816415	0.000206	20.802783
2557.631585	-2.967000	2.778400	-8.242200	28.840427	0.000203	20.809902
2558.634291	-3.031300	2.774500	-8.408900	28.861608	0.000205	20.812746
2559.629661	-3.025300	2.770700	-8.381200	28.849774	0.000205	20.807938
2560.630882	-2.983900	2.768600	-8.260300	28.845684	0.000204	20.814723
2561.632302	-2.998100	2.766300	-8.292600	28.865777	0.000205	20.818369
2562.631309	-2.996600	2.762900	-8.278000	28.871498	0.000204	20.827926
2563.631558	-2.995500	2.760700	-8.268700	28.877324	0.000204	20.810561
2564.636066	-3.009400	2.756200	-8.293900	28.907122	0.000201	20.814028
2565.631909	-3.012100	2.753800	-8.293700	28.899194	0.000203	20.845869
2566.631703	-2.979500	2.751600	-8.197000	28.896554	0.000202	20.812865
2567.636902	-3.000600	2.746900	-8.241700	28.898803	0.000203	20.805647
2568.632264	-3.012100	2.744500	-8.265900	28.935887	0.000203	20.815032
2569.633266	-2.984700	2.741500	-8.181700	28.915760	0.000204	20.831264
2570.633454	-2.968200	2.739100	-8.129700	28.915014	0.000202	20.825297
2571.633701	-3.003300	2.736400	-8.217200	28.928656	0.000201	20.845205
2572.632634	-3.013100	2.732700	-8.233000	28.915558	0.000203	20.825845
2573.632985	-3.011700	2.730400	-8.222200	28.936835	0.000204	20.816935
2574.639081	-3.013300	2.724900	-8.210300	28.921457	0.000204	20.819460
2575.636823	-2.994800	2.723100	-8.154200	28.990835	0.000203	20.833881
2576.635210	-3.009700	2.720200	-8.184700	29.009422	0.000203	20.817047
2577.636334	-2.987500	2.716900	-8.115800	28.961785	0.000204	20.837330
2578.637506	-3.028900	2.711400	-8.212200	28.957030	0.000203	20.821634
2579.636743	-2.979600	2.710200	-8.074100	28.905241	0.000203	20.825409
2580.637069	-2.978500	2.706800	-8.061000	28.909832	0.000203	20.837620
2581.639108	-3.014900	2.702200	-8.145900	28.921268	0.000202	20.824485
2582.636872	-2.994300	2.700400	-8.083800	28.942569	0.000204	20.814177
2583.638662	-2.994900	2.695200	-8.071100	29.001996	0.000203	20.840385
2584.635224	-2.993600	2.692200	-8.057900	29.032188	0.000204	20.823389
2585.638192	-2.984100	2.688000	-8.019700	29.067702	0.000204	20.804645
2586.636742	-2.984400	2.685700	-8.013800	29.076747	0.000204	20.829880
2587.638067	-2.988800	2.679100	-8.006300	29.049160	0.000205	20.841912
2588.636366	-2.989100	2.675400	-7.996400	29.013437	0.000203	20.828679
2589.638834	-3.003900	2.670800	-8.022200	28.947031	0.000205	20.810612
2590.638229	-3.031500	2.666800	-8.083500	28.898310	0.000204	20.833125
2591.638047	-3.038300	2.663300	-8.091400	28.914459	0.000203	20.838488
2592.636725	-2.981400	2.660500	-7.931100	28.923206	0.000203	20.813162
2593.640743	-2.995900	2.655600	-7.954500	28.911795	0.000202	20.811623
2594.636890	-3.003200	2.653800	-7.967800	28.921727	0.000203	20.822577
2595.636940	-3.021800	2.646700	-7.996200	28.968344	0.000202	20.845835
2596.638987	-2.996500	2.644300	-7.922700	28.966193	0.000203	20.819961
2597.637249	-2.954200	2.640500	-7.799000	28.961114	0.000205	20.808205
2598.637425	-2.967000	2.635900	-7.820000	28.983686	0.000202	20.811981
2599.638287	-2.981100	2.630500	-7.840700	29.052792	0.000205	20.805269
2600.642385	-3.021400	2.624000	-7.927000	29.114639	0.000204	20.818274
2601.637688	-3.001100	2.620400	-7.863300	29.177344	0.000203	20.814130
2602.639196	-2.998000	2.615600	-7.840500	29.215909	0.000203	20.814586
2603.643211	-2.991200	2.610600	-7.808400	29.259691	0.000204	20.804179
2604.644089	-3.000100	2.606000	-7.816800	29.270672	0.000203	20.823780
2605.638837	-2.982200	2.602000	-7.757900	29.255989	0.000204	20.816570
2606.640957	-2.997100	2.595800	-7.778700	29.204727	0.000204	20.811853
2607.639090	-2.981900	2.592000	-7.727500	29.164140	0.000202	20.818842
2608.639183	-3.020000	2.585500	-7.806900	29.179845	0.000204	20.795313
2609.641222	-2.989000	2.580500	-7.712000	29.237200	0.000205	20.814704
2610.644796	-3.005500	2.575500	-7.738700	29.266646	0.000204	20.823516
2611.640771	-3.003200	2.569300	-7.714800	29.291979	0.000203	20.814908
2612.640635	-3.031000	2.562300	-7.765100	29.333136	0.000202	20.817981
2613.644585	-2.978500	2.559200	-7.621300	29.338806	0.000203	20.823695
2614.639446	-3.004400	2.551600	-7.665700	29.345131	0.000203	20.809207
2615.642999	-2.980800	2.547400	-7.592400	29.302294	0.000203	20.794958
2616.647070	-2.998400	2.540600	-7.616900	29.249850	0.000203	20.799004
2617.642928	-3.013200	2.534800	-7.637500	29.223477	0.000203	20.798031
2618.643096	-3.035000	2.526800	-7.668000	29.163403	0.000201	20.808142
2619.643587	-3.008400	2.522600	-7.588400	29.156711	0.000205	20.791442
2620.642964	-2.995300	2.514900	-7.532300	29.163525	0.000203	20.810636
2621.643553	-3.039500	2.509500	-7.627000	29.228488	0.000202	20.810193
2622.642270	-3.028100	2.503400	-7.579700	29.252491	0.000204	20.783173
2623.644667	-3.022700	2.497400	-7.547500	29.275820	0.000206	20.806684
