LabVIEW Measurement	
Writer_Version	2
Reader_Version	2
Separator	Tab
Decimal_Separator	.
Multi_Headings	No
X_Columns	One
Time_Pref	Absolute
Operator	admin
Description	Clolumns are: time, Current, Voltage, Power, Battery Temp, and Chamber Temp
Date	2024/08/16
Time	13:06:06.104549407958984375
***End_of_Header***	
	
Channels	6						
Samples	1	1	1	1	1	1	
Date	2024/08/26	2024/08/26	2024/08/26	2024/08/26	2024/08/26	2024/08/26	
Time	12:15:38.7846326828002929688	12:15:38.7916231155395507813	12:15:38.7985110282897949219	12:15:38.7692813873291015625	12:15:38.7692813873291015625	12:15:38.7692813873291015625	
X_Dimension	Time	Time	Time	Time	Time	Time	
X0	0.0000000000000000E+0	0.0000000000000000E+0	0.0000000000000000E+0	0.0000000000000000E+0	0.0000000000000000E+0	0.0000000000000000E+0	
Delta_X	1.000000	1.000000	1.000000	1.000000	1.000000	1.000000	
***End_of_Header***							
X_Value	Untitled	Untitled 1	Untitled 2	Untitled 3	Untitled 4	Untitled 5	Comment
0.000000	-0.000109	4.109500	-0.000488	20.961898	0.000959	20.723408
1.001727	-2.995800	3.952300	-11.839000	20.946789	0.000960	20.732005
1.999577	-2.993300	3.945000	-11.807000	20.969465	0.000960	20.724338
3.000209	-2.979400	3.941100	-11.740000	20.961307	0.000958	20.730404
4.002395	-3.013100	3.935900	-11.858000	20.971035	0.000958	20.743453
5.006354	-2.996900	3.931000	-11.779000	20.962649	0.000957	20.748342
6.000992	-2.996100	3.927600	-11.767000	20.965728	0.000956	20.750473
7.002816	-2.992100	3.925400	-11.745000	20.970789	0.000954	20.738939
7.999445	-3.008000	3.922900	-11.799000	20.972081	0.000956	20.723636
9.001762	-2.999600	3.921600	-11.762000	20.961233	0.000954	20.733649
10.003366	-2.994700	3.919500	-11.737000	20.969840	0.000953	20.712859
11.000210	-2.981700	3.919000	-11.683000	20.993347	0.000951	20.734000
12.000835	-2.982300	3.917100	-11.681000	20.977851	0.000950	20.718974
13.003542	-3.012200	3.913800	-11.788000	20.995121	0.000951	20.726290
14.002106	-3.019200	3.914700	-11.818000	20.992972	0.000949	20.734099
15.003775	-3.031800	3.912600	-11.861000	20.997368	0.000947	20.721425
16.004888	-3.001000	3.911300	-11.737000	20.995841	0.000948	20.717527
17.004470	-2.986900	3.910300	-11.679000	20.991956	0.000945	20.740196
18.003789	-2.995500	3.909200	-11.710000	20.993378	0.000947	20.741144
19.004646	-3.006900	3.907700	-11.749000	21.008616	0.000944	20.729357
20.008693	-3.008400	3.906800	-11.752000	20.991661	0.000947	20.707656
21.004027	-3.002400	3.906200	-11.727000	21.000292	0.000946	20.737153
22.004540	-3.005000	3.904200	-11.731000	21.014391	0.000946	20.710476
23.008359	-3.005800	3.904700	-11.735000	21.006332	0.000945	20.731340
24.004367	-2.974300	3.904100	-11.611000	21.021213	0.000944	20.701177
25.003498	-3.014800	3.902600	-11.764000	21.020905	0.000945	20.689488
26.009374	-2.999400	3.900800	-11.699000	21.032732	0.000942	20.734512
27.007298	-2.999800	3.900300	-11.699000	21.032240	0.000941	20.710310
28.005995	-2.976400	3.901900	-11.613000	21.027573	0.000941	20.707539
29.009394	-3.012900	3.898300	-11.744000	21.050777	0.000941	20.715575
30.011438	-2.992700	3.898900	-11.667000	21.034241	0.000940	20.718002
31.007052	-2.991400	3.899300	-11.663000	21.062259	0.000940	20.708567
32.013302	-3.013000	3.897800	-11.742000	21.061729	0.000939	20.720366
33.010855	-3.010000	3.897200	-11.730000	21.069517	0.000939	20.697809
34.008199	-2.997900	3.897100	-11.682000	21.063330	0.000938	20.712010
35.014159	-2.997300	3.897100	-11.680000	21.065602	0.000937	20.701953
36.011425	-2.986000	3.895900	-11.631000	21.062511	0.000939	20.712139
37.009799	-2.991000	3.895900	-11.650000	21.081097	0.000936	20.714134
38.013363	-2.977200	3.895800	-11.597000	21.102053	0.000936	20.714233
39.010857	-3.012700	3.893100	-11.727000	21.094223	0.000936	20.711142
40.010891	-2.991400	3.894300	-11.648000	21.106541	0.000936	20.697858
41.013427	-2.996600	3.892500	-11.663000	21.105575	0.000935	20.704952
42.012862	-3.012700	3.891900	-11.723000	21.120737	0.000936	20.703524
43.010822	-2.992400	3.891100	-11.643000	21.148981	0.000935	20.712810
44.016798	-2.997900	3.891300	-11.664000	21.123834	0.000935	20.693818
45.013238	-3.014800	3.890300	-11.727000	21.135734	0.000934	20.706671
46.012180	-3.014800	3.889300	-11.724000	21.134533	0.000933	20.707841
47.016829	-3.000100	3.891400	-11.673000	21.138750	0.000933	20.683607
48.017755	-2.960800	3.891700	-11.521000	21.149775	0.000935	20.706966
49.015988	-3.014400	3.888100	-11.719000	21.148175	0.000935	20.684026
50.019878	-2.974300	3.889900	-11.569000	21.148409	0.000933	20.698012
51.019464	-2.980000	3.890400	-11.593000	21.160727	0.000931	20.695161
52.015429	-2.975000	3.889300	-11.569000	21.180758	0.000933	20.684377
53.017767	-3.006500	3.887900	-11.688000	21.171155	0.000932	20.677615
54.016310	-2.976800	3.888700	-11.575000	21.186698	0.000933	20.697433
55.026110	-2.992400	3.887300	-11.631000	21.188767	0.000930	20.711357
56.020293	-2.999500	3.886400	-11.655000	21.185196	0.000932	20.687869
57.017619	-2.990300	3.887300	-11.624000	21.196252	0.000932	20.701775
58.016736	-3.006700	3.886900	-11.686000	21.198942	0.000931	20.682653
59.020873	-2.995400	3.887200	-11.642000	21.204279	0.000930	20.697950
60.018371	-2.988000	3.885600	-11.608000	21.192897	0.000931	20.688934
61.017666	-2.996900	3.885600	-11.644000	21.208471	0.000929	20.684599
62.023182	-3.012600	3.884800	-11.702000	21.212909	0.000930	20.681926
63.021644	-3.024200	3.883700	-11.744000	21.242068	0.000929	20.692605
64.019803	-2.996100	3.885000	-11.637000	21.225208	0.000929	20.682375
65.025017	-2.982900	3.884100	-11.584000	21.239501	0.000930	20.679130
66.022713	-2.976500	3.885000	-11.562000	21.241723	0.000929	20.701744
67.022763	-3.031400	3.882900	-11.769000	21.238701	0.000929	20.690658
68.024997	-2.983200	3.883600	-11.585000	21.245761	0.000930	20.694877
69.024787	-3.002000	3.883000	-11.654000	21.269761	0.000928	20.678108
70.021745	-2.989300	3.883600	-11.608000	21.277541	0.000929	20.679253
71.025823	-3.010000	3.882300	-11.685000	21.263347	0.000931	20.662206
72.024243	-2.995100	3.881500	-11.625000	21.263901	0.000927	20.683152
73.022318	-2.993900	3.881800	-11.621000	21.283623	0.000929	20.688657
74.027943	-3.015600	3.880900	-11.702000	21.286276	0.000927	20.674240
75.025789	-2.976200	3.883000	-11.556000	21.292954	0.000930	20.685664
76.026302	-3.003700	3.879900	-11.652000	21.317150	0.000928	20.645381
77.028095	-2.998000	3.880400	-11.632000	21.312540	0.000931	20.700044
78.025146	-2.992400	3.881100	-11.613000	21.317950	0.000929	20.681273
79.023547	-3.009200	3.880000	-11.675000	21.351304	0.000928	20.668174
80.028069	-2.982100	3.881600	-11.574000	21.349981	0.000929	20.682024
81.027605	-3.000400	3.880100	-11.641000	21.346060	0.000928	20.684266
82.026889	-2.989700	3.879500	-11.597000	21.349205	0.000928	20.650425
83.030470	-3.016700	3.878300	-11.699000	21.343647	0.000926	20.674265
84.028157	-2.991600	3.878700	-11.602000	21.369535	0.000927	20.702538
85.028463	-2.979200	3.881200	-11.562000	21.375031	0.000928	20.681008
86.028461	-2.983800	3.878800	-11.572000	21.377844	0.000929	20.674813
87.028318	-3.010600	3.876900	-11.671000	21.382687	0.000928	20.671124
88.026481	-3.010300	3.877500	-11.671000	21.382737	0.000928	20.683503
89.028286	-3.002200	3.878300	-11.643000	21.399582	0.000927	20.678545
90.031881	-2.987600	3.878600	-11.586000	21.397305	0.000928	20.658247
91.028549	-2.990300	3.877400	-11.594000	21.387402	0.000927	20.662090
92.030463	-3.000900	3.876200	-11.631000	21.404118	0.000926	20.692568
93.032635	-2.978900	3.877600	-11.549000	21.388202	0.000929	20.675694
94.028944	-2.994600	3.875700	-11.606000	21.422053	0.000926	20.687278
95.032823	-2.987000	3.877400	-11.581000	21.426945	0.000927	20.664670
96.030475	-2.989700	3.877400	-11.592000	21.444627	0.000926	20.671457
97.027487	-3.021000	3.875600	-11.707000	21.444750	0.000927	20.686754
98.032126	-3.007400	3.874700	-11.652000	21.461459	0.000927	20.666487
99.034262	-2.992100	3.876100	-11.596000	21.462740	0.000926	20.674881
100.032732	-3.012900	3.874900	-11.674000	21.459915	0.000926	20.670157
101.033380	-2.988700	3.876200	-11.584000	21.457625	0.000927	20.669763
102.037470	-2.987600	3.875600	-11.578000	21.474808	0.000928	20.653289
103.030326	-2.997200	3.874900	-11.613000	21.480396	0.000926	20.662201
104.037039	-2.975700	3.873700	-11.525000	21.508028	0.000925	20.670884
105.033217	-3.002000	3.873700	-11.627000	21.486483	0.000928	20.675405
106.030901	-3.028300	3.873400	-11.728000	21.484082	0.000928	20.667312
107.033732	-3.019800	3.873600	-11.696000	21.508557	0.000927	20.682795
108.033898	-3.011400	3.874200	-11.665000	21.496735	0.000928	20.693252
109.033618	-3.001000	3.875000	-11.628000	21.504317	0.000928	20.688036
110.034857	-3.008400	3.873700	-11.651000	21.538183	0.000928	20.676876
111.033766	-2.995500	3.873000	-11.601000	21.503671	0.000925	20.657988
112.031540	-3.004000	3.872800	-11.633000	21.515862	0.000927	20.667343
113.034379	-3.014300	3.872600	-11.672000	21.505634	0.000926	20.684611
114.032467	-2.976400	3.871800	-11.523000	21.550958	0.000929	20.681600
115.030447	-2.997300	3.872300	-11.606000	21.578367	0.000928	20.664455
116.035232	-2.986200	3.871700	-11.561000	21.567395	0.000928	20.669597
117.032446	-2.990000	3.873300	-11.581000	21.585444	0.000928	20.678176
118.036311	-3.006500	3.873600	-11.645000	21.579592	0.000930	20.681803
119.037030	-3.004200	3.871300	-11.628000	21.590964	0.000929	20.699823
120.036058	-3.007300	3.871500	-11.642000	21.602483	0.000928	20.668199
121.036608	-3.010600	3.870500	-11.652000	21.612033	0.000930	20.679654
122.040561	-3.009200	3.871000	-11.647000	21.625626	0.000931	20.672393
123.037236	-2.989800	3.871700	-11.574000	21.609843	0.000929	20.684575
124.037571	-2.999800	3.870400	-11.609000	21.606378	0.000930	20.702921
125.039987	-2.991300	3.869900	-11.575000	21.619701	0.000929	20.664566
126.039162	-2.991900	3.870700	-11.580000	21.624064	0.000929	20.674149
127.039152	-3.022600	3.869400	-11.694000	21.637681	0.000929	20.680664
128.040197	-2.994000	3.870300	-11.587000	21.642567	0.000930	20.661370
129.041024	-2.999200	3.870500	-11.607000	21.646536	0.000929	20.666291
130.036719	-2.987200	3.870800	-11.561000	21.647508	0.000929	20.679119
131.039617	-3.007800	3.869300	-11.638000	21.656861	0.000930	20.684686
132.040537	-2.985300	3.870100	-11.552000	21.660405	0.000931	20.662626
133.039419	-3.009300	3.869800	-11.644000	21.677659	0.000931	20.680369
134.045146	-2.995900	3.867500	-11.585000	21.676785	0.000932	20.670010
135.044243	-2.983600	3.869800	-11.545000	21.686759	0.000931	20.697064
136.042632	-3.033600	3.866000	-11.725000	21.706012	0.000930	20.666543
137.044326	-3.001400	3.868900	-11.611000	21.702050	0.000931	20.685339
138.041593	-2.998800	3.868000	-11.598000	21.714547	0.000931	20.681724
139.041839	-2.995700	3.866700	-11.582000	21.731424	0.000932	20.690081
140.045237	-2.992400	3.868800	-11.575000	21.734150	0.000933	20.687119
141.043738	-2.981500	3.869800	-11.537000	21.736783	0.000932	20.674580
142.043153	-2.986600	3.866900	-11.548000	21.737386	0.000932	20.679926
143.045352	-2.972500	3.868100	-11.496000	21.744043	0.000932	20.693228
144.046259	-2.991100	3.866800	-11.565000	21.740432	0.000931	20.681552
145.044921	-2.979900	3.866700	-11.521000	21.760084	0.000934	20.687470
146.048572	-2.993500	3.865100	-11.568000	21.757863	0.000932	20.681927
147.045457	-3.015300	3.864300	-11.649000	21.762176	0.000933	20.694306
148.045407	-3.015200	3.865200	-11.654000	21.755672	0.000933	20.700600
149.046842	-3.021400	3.865100	-11.677000	21.769829	0.000934	20.686792
150.049855	-3.008000	3.865000	-11.625000	21.783771	0.000932	20.676563
151.045394	-2.999700	3.866700	-11.597000	21.781353	0.000933	20.677462
152.048418	-3.010400	3.864400	-11.632000	21.802475	0.000933	20.705717
153.050300	-3.017200	3.864800	-11.660000	21.792127	0.000935	20.695359
154.047604	-2.992200	3.865000	-11.562000	21.823295	0.000933	20.691941
155.050978	-3.006200	3.864100	-11.615000	21.829109	0.000934	20.678319
156.052493	-3.022100	3.863600	-11.675000	21.830303	0.000935	20.677142
157.048491	-3.005100	3.861800	-11.603000	21.825818	0.000934	20.699682
158.054500	-2.995000	3.864100	-11.572000	21.840072	0.000933	20.705890
159.051884	-3.006000	3.863600	-11.612000	21.830955	0.000936	20.690599
160.049266	-2.999400	3.863500	-11.588000	21.831724	0.000937	20.698955
161.050887	-2.978100	3.864300	-11.507000	21.841869	0.000937	20.689194
162.054517	-2.999400	3.862800	-11.585000	21.843493	0.000937	20.698407
163.051126	-3.002700	3.862000	-11.594000	21.852088	0.000937	20.707959
164.053471	-2.987500	3.862700	-11.536000	21.819000	0.000936	20.690487
165.055306	-2.991300	3.861300	-11.550000	21.854684	0.000935	20.698703
166.050347	-3.018500	3.861000	-11.653000	21.852487	0.000938	20.705988
167.053484	-3.004500	3.861400	-11.600000	21.864952	0.000939	20.674839
168.054103	-3.007500	3.860100	-11.608000	21.870156	0.000938	20.684791
169.051645	-3.009500	3.860800	-11.617000	21.878960	0.000938	20.707829
170.057034	-2.997000	3.860800	-11.570000	21.883420	0.000939	20.695697
171.055012	-3.009400	3.861100	-11.619000	21.884189	0.000939	20.693148
172.052844	-3.006000	3.860900	-11.604000	21.890796	0.000939	20.698813
173.058540	-3.010200	3.860300	-11.619000	21.901236	0.000939	20.699306
174.057855	-2.990500	3.860200	-11.543000	21.917015	0.000940	20.718895
175.054963	-3.014200	3.860500	-11.635000	21.918406	0.000942	20.698000
176.055818	-3.014400	3.858100	-11.629000	21.923567	0.000939	20.673767
177.057481	-2.994500	3.860000	-11.557000	21.938750	0.000941	20.708882
178.054671	-2.964400	3.859700	-11.440000	21.952357	0.000941	20.713494
179.059012	-3.003300	3.859200	-11.589000	21.960010	0.000941	20.726845
180.056410	-2.983000	3.859500	-11.511000	21.957291	0.000943	20.697095
181.054362	-3.003600	3.858400	-11.587000	21.977726	0.000940	20.703327
182.060364	-2.993200	3.859700	-11.551000	21.981743	0.000942	20.722522
183.058746	-3.019500	3.858700	-11.650000	21.991850	0.000944	20.722208
184.056554	-3.036400	3.857500	-11.711000	21.991025	0.000944	20.722805
185.059433	-3.004700	3.859400	-11.596000	22.004614	0.000942	20.708906
186.058844	-3.010100	3.858100	-11.612000	21.997601	0.000944	20.713740
187.056264	-3.001400	3.858000	-11.579000	22.004780	0.000943	20.704804
188.058015	-2.993300	3.858000	-11.547000	22.010562	0.000945	20.733828
189.059106	-2.966600	3.858800	-11.446000	22.014320	0.000945	20.719572
190.062847	-2.998200	3.856500	-11.561000	22.023338	0.000945	20.714848
191.055207	-2.982800	3.857600	-11.506000	22.037922	0.000947	20.714275
192.060176	-2.995200	3.857500	-11.553000	22.050157	0.000945	20.701866
193.057083	-2.998800	3.856900	-11.564000	22.054918	0.000947	20.721807
194.061589	-2.998200	3.856100	-11.560000	22.062041	0.000947	20.722773
195.058864	-2.989800	3.856600	-11.529000	22.070339	0.000945	20.722546
196.057683	-3.007400	3.855400	-11.593000	22.077246	0.000945	20.727565
197.061441	-3.017200	3.855400	-11.632000	22.093761	0.000949	20.740780
198.057807	-3.024200	3.853700	-11.654000	22.100718	0.000947	20.732097
199.061336	-2.976100	3.856400	-11.476000	22.071304	0.000947	20.728728
200.059051	-3.036600	3.852900	-11.698000	22.061056	0.000947	20.737436
201.058462	-2.997300	3.854400	-11.552000	22.072171	0.000947	20.723906
202.059087	-3.018100	3.854400	-11.632000	22.095422	0.000949	20.716362
203.063031	-2.990300	3.854400	-11.524000	22.099611	0.000948	20.718185
204.059518	-3.002200	3.854400	-11.570000	22.107705	0.000948	20.750946
205.061886	-3.020600	3.854000	-11.640000	22.111943	0.000950	20.729110
206.061035	-3.017300	3.855300	-11.631000	22.099678	0.000950	20.729159
207.059125	-2.996000	3.854400	-11.547000	22.124250	0.000950	20.723413
208.063609	-3.016000	3.852700	-11.618000	22.120529	0.000952	20.744819
209.060458	-2.978800	3.854200	-11.480000	22.119810	0.000950	20.739357
210.061449	-2.989900	3.854100	-11.522000	22.136306	0.000955	20.755873
211.060747	-2.993600	3.853600	-11.535000	22.129823	0.000952	20.736579
212.061703	-3.000000	3.852600	-11.557000	22.141158	0.000954	20.734178
213.062655	-2.998000	3.853500	-11.552000	22.150175	0.000954	20.742731
214.060126	-3.018900	3.851600	-11.625000	22.155009	0.000956	20.714853
215.061491	-3.026800	3.851800	-11.658000	22.166597	0.000956	20.749216
216.060196	-2.987000	3.853900	-11.511000	22.148275	0.000956	20.734664
217.059819	-2.988800	3.852800	-11.514000	22.158091	0.000954	20.735009
218.060586	-2.993600	3.853800	-11.534000	22.167107	0.000956	20.728389
219.063965	-3.019200	3.852300	-11.630000	22.167747	0.000958	20.743254
220.060997	-2.993000	3.851200	-11.526000	22.170164	0.000956	20.728130
221.064334	-2.998700	3.851400	-11.548000	22.180651	0.000959	20.768976
222.061225	-2.985800	3.852700	-11.503000	22.205529	0.000959	20.754056
223.063234	-3.005800	3.852000	-11.578000	22.200338	0.000960	20.727046
224.065284	-2.991300	3.851100	-11.518000	22.199428	0.000960	20.740360
225.064435	-2.974700	3.853000	-11.461000	22.227516	0.000960	20.749991
226.067602	-3.005200	3.850500	-11.571000	22.248980	0.000960	20.756309
227.063581	-2.986100	3.851100	-11.497000	22.237405	0.000959	20.749936
228.066831	-3.000400	3.850400	-11.552000	22.241138	0.000961	20.742293
229.068513	-2.994500	3.852100	-11.533000	22.281808	0.000961	20.749825
230.071732	-2.998600	3.851600	-11.549000	22.289606	0.000962	20.738192
231.067182	-3.013800	3.848200	-11.597000	22.289778	0.000963	20.739787
232.065874	-2.984900	3.850100	-11.491000	22.293234	0.000964	20.744670
233.067858	-3.006400	3.848900	-11.569000	22.311370	0.000961	20.759985
234.067406	-3.000600	3.848100	-11.545000	22.324001	0.000963	20.738968
235.074702	-2.989400	3.848100	-11.501000	22.306973	0.000962	20.764592
236.067251	-3.004100	3.848100	-11.559000	22.302785	0.000963	20.763243
237.067380	-2.985800	3.849700	-11.492000	22.301014	0.000965	20.746770
238.068223	-2.995400	3.847400	-11.522000	22.330071	0.000966	20.767332
239.068126	-2.999400	3.847900	-11.540000	22.326178	0.000965	20.755847
240.070148	-2.995400	3.848500	-11.525000	22.330243	0.000965	20.762763
241.068600	-3.015200	3.847900	-11.601000	22.330139	0.000966	20.774986
242.070740	-3.006600	3.846700	-11.565000	22.354583	0.000968	20.780023
243.069695	-3.011300	3.845500	-11.579000	22.344683	0.000965	20.762522
244.070502	-2.990500	3.847300	-11.504000	22.361028	0.000969	20.770355
245.072661	-2.993800	3.848100	-11.519000	22.370898	0.000967	20.770756
246.070343	-2.971800	3.847200	-11.432000	22.384795	0.000969	20.759068
247.073777	-2.988500	3.847200	-11.497000	22.356035	0.000968	20.768674
248.072558	-2.995400	3.846700	-11.522000	22.386763	0.000968	20.755348
249.072692	-2.977100	3.846800	-11.451000	22.347733	0.000969	20.769370
250.074450	-3.011200	3.845800	-11.579000	22.346534	0.000969	20.771489
251.075671	-2.990300	3.844400	-11.494000	22.362110	0.000971	20.778078
252.075127	-3.007700	3.844400	-11.561000	22.377484	0.000970	20.781144
253.073674	-2.982200	3.845700	-11.467000	22.383289	0.000972	20.782216
254.071351	-2.999900	3.845700	-11.536000	22.394056	0.000971	20.782093
255.072478	-2.984900	3.845900	-11.478000	22.411600	0.000974	20.763625
256.074166	-3.000900	3.845500	-11.539000	22.422613	0.000972	20.760429
257.074362	-2.974300	3.845200	-11.435000	22.410604	0.000972	20.775430
258.074479	-3.006500	3.843700	-11.554000	22.408654	0.000973	20.759727
259.071469	-2.984000	3.845100	-11.473000	22.416236	0.000974	20.773958
260.072604	-3.020500	3.841900	-11.603000	22.391590	0.000975	20.770614
261.073534	-2.991900	3.844600	-11.501000	22.391941	0.000976	20.782819
262.072337	-3.002100	3.842600	-11.535000	22.387126	0.000975	20.793645
263.077713	-3.017300	3.842600	-11.593000	22.378677	0.000974	20.782813
264.074545	-3.002100	3.842700	-11.536000	22.381499	0.000976	20.786114
265.073881	-3.018300	3.841500	-11.594000	22.386007	0.000976	20.769764
266.078695	-2.996400	3.842700	-11.513000	22.381696	0.000976	20.794371
267.073669	-3.007700	3.842400	-11.555000	22.408734	0.000976	20.792998
268.075266	-2.994800	3.842600	-11.507000	22.405494	0.000976	20.771735
269.075068	-2.986700	3.843300	-11.478000	22.408863	0.000978	20.788386
270.075574	-3.015600	3.841500	-11.583000	22.425060	0.000979	20.788484
271.076138	-3.007200	3.840300	-11.547000	22.440132	0.000978	20.811164
272.079402	-2.988400	3.842300	-11.481000	22.467802	0.000981	20.802838
273.076790	-2.980700	3.841300	-11.449000	22.490122	0.000979	20.794846
274.078701	-2.983900	3.841900	-11.463000	22.486912	0.000979	20.782622
275.075902	-3.012600	3.840800	-11.569000	22.511212	0.000982	20.792259
276.079521	-2.991400	3.841800	-11.491000	22.494014	0.000980	20.789734
277.083350	-3.013200	3.839400	-11.567000	22.507142	0.000981	20.810942
278.077560	-2.990600	3.840900	-11.485000	22.532535	0.000981	20.770466
279.079245	-3.000100	3.839800	-11.517000	22.522292	0.000982	20.775855
280.078275	-3.010500	3.839400	-11.558000	22.536741	0.000984	20.812137
281.080330	-3.006500	3.840300	-11.544000	22.560339	0.000982	20.810166
282.081018	-2.988500	3.840300	-11.475000	22.549972	0.000984	20.788879
283.076015	-2.994600	3.838500	-11.494000	22.534275	0.000987	20.792598
284.076818	-2.981600	3.838600	-11.443000	22.550224	0.000984	20.791502
285.077736	-3.012600	3.838000	-11.561000	22.552807	0.000986	20.797407
286.076459	-3.022700	3.836600	-11.596000	22.554559	0.000987	20.796317
287.078949	-2.997600	3.837300	-11.502000	22.561734	0.000987	20.791650
288.084149	-3.021300	3.836300	-11.589000	22.570877	0.000989	20.800806
289.079436	-3.006400	3.836500	-11.533000	22.570428	0.000988	20.801779
290.080169	-2.998100	3.837300	-11.503000	22.595716	0.000988	20.780639
291.082613	-3.010600	3.837300	-11.551000	22.609321	0.000989	20.794267
292.080279	-3.016500	3.836000	-11.570000	22.597259	0.000990	20.795461
293.083125	-3.013900	3.836800	-11.561000	22.625392	0.000989	20.803251
294.079233	-3.000700	3.837500	-11.514000	22.634067	0.000991	20.813836
295.081032	-2.990200	3.836600	-11.471000	22.645877	0.000989	20.810493
296.079059	-3.006300	3.835400	-11.528000	22.664610	0.000991	20.806496
297.078968	-2.990900	3.836500	-11.474000	22.663786	0.000992	20.812783
298.078059	-2.989900	3.834900	-11.465000	22.649388	0.000992	20.808793
299.085678	-3.011700	3.834600	-11.547000	22.681080	0.000992	20.809242
300.082036	-2.998300	3.835500	-11.497000	22.677348	0.000993	20.814039
301.083014	-3.011700	3.836000	-11.551000	22.700666	0.000994	20.804680
302.081436	-2.999900	3.834500	-11.502000	22.709881	0.000994	20.820548
303.081349	-2.988100	3.834700	-11.457000	22.711652	0.000994	20.813313
304.082997	-3.001300	3.835300	-11.510000	22.710662	0.000994	20.801416
305.086888	-3.005300	3.833100	-11.519000	22.739758	0.000995	20.841466
306.085181	-2.995700	3.833500	-11.483000	22.723861	0.000997	20.828387
307.083168	-2.973100	3.833500	-11.395000	22.755077	0.000998	20.824095
308.086139	-2.997500	3.833300	-11.489000	22.744491	0.000998	20.804482
309.081491	-3.003400	3.833700	-11.513000	22.752563	0.000998	20.812568
310.086398	-2.982500	3.833800	-11.433000	22.731145	0.000998	20.820985
311.081087	-3.022100	3.833400	-11.583000	22.763530	0.000998	20.804113
312.084105	-3.002500	3.832000	-11.505000	22.745211	0.000998	20.814212
313.083261	-2.989500	3.833300	-11.458000	22.793792	0.001001	20.804556
314.083214	-2.990700	3.831900	-11.459000	22.757143	0.000999	20.838017
315.086631	-3.000700	3.831700	-11.496000	22.774281	0.001001	20.838116
316.082757	-3.015200	3.832300	-11.554000	22.757087	0.001003	20.812358
317.085716	-3.016100	3.831600	-11.555000	22.751985	0.001001	20.823842
318.086547	-3.013100	3.830800	-11.541000	22.759306	0.001004	20.833547
319.089231	-3.001000	3.831000	-11.495000	22.760733	0.001004	20.832605
320.083167	-3.001200	3.830900	-11.495000	22.765558	0.001003	20.816576
321.086427	-2.993200	3.830300	-11.464000	22.775597	0.001004	20.819046
322.086518	-3.009100	3.829900	-11.524000	22.782776	0.001005	20.833350
323.089555	-3.009400	3.829700	-11.524000	22.795378	0.001005	20.822266
324.087690	-3.015200	3.829400	-11.545000	22.802976	0.001007	20.837463
325.088170	-2.992400	3.830000	-11.459000	22.801408	0.001006	20.814082
326.087017	-3.002900	3.830200	-11.499000	22.817722	0.001007	20.839434
327.085936	-2.999900	3.829800	-11.487000	22.839691	0.001007	20.853381
328.088781	-2.997200	3.829800	-11.477000	22.834565	0.001006	20.834969
329.090989	-2.997200	3.828100	-11.472000	22.818196	0.001008	20.807666
330.086131	-3.003700	3.828400	-11.498000	22.816524	0.001007	20.818319
331.087707	-2.996500	3.828800	-11.472000	22.834989	0.001006	20.815954
332.087312	-3.000500	3.828900	-11.486000	22.843908	0.001008	20.826786
333.087039	-3.011000	3.827700	-11.523000	22.812368	0.001008	20.839760
334.088686	-2.984800	3.828400	-11.426000	22.839175	0.001011	20.824889
335.089627	-3.000800	3.827700	-11.484000	22.864832	0.001011	20.835419
336.088091	-2.991300	3.827400	-11.448000	22.860351	0.001010	20.836145
337.090230	-2.988800	3.826300	-11.434000	22.881096	0.001012	20.848393
338.088680	-3.003300	3.825800	-11.489000	22.890518	0.001012	20.840764
339.087987	-2.997000	3.826100	-11.466000	22.900402	0.001012	20.836441
340.092367	-3.019700	3.825600	-11.550000	22.895423	0.001013	20.841410
341.089120	-3.003100	3.824600	-11.486000	22.898386	0.001013	20.831102
342.091659	-2.983000	3.825900	-11.412000	22.901773	0.001013	20.820271
343.088742	-2.987700	3.825500	-11.429000	22.893985	0.001014	20.819581
344.088412	-2.988500	3.825200	-11.430000	22.900408	0.001015	20.804680
345.094889	-2.979500	3.826500	-11.399000	22.907784	0.001014	20.840517
346.089040	-2.989200	3.825300	-11.433000	22.916573	0.001017	20.829883
347.097870	-3.012000	3.824800	-11.518000	22.930747	0.001015	20.808996
348.088212	-3.003600	3.824300	-11.485000	22.939714	0.001016	20.806601
349.089530	-2.994200	3.823200	-11.446000	22.937299	0.001017	20.825991
350.093322	-2.978000	3.824100	-11.387000	22.944668	0.001017	20.816780
351.091869	-2.987300	3.823700	-11.421000	22.934361	0.001016	20.819729
352.094319	-2.995200	3.824500	-11.454000	22.917016	0.001016	20.829378
353.094163	-3.008500	3.822300	-11.498000	22.936617	0.001018	20.820092
354.093195	-2.991700	3.823800	-11.438000	22.947526	0.001019	20.819169
355.096735	-2.988800	3.823700	-11.428000	22.951042	0.001021	20.798035
356.098383	-2.985100	3.824500	-11.416000	22.969314	0.001020	20.833886
357.092543	-2.997300	3.821100	-11.452000	22.968270	0.001020	20.810554
358.094623	-2.998600	3.821800	-11.460000	22.968565	0.001021	20.822703
359.093263	-2.981800	3.821600	-11.394000	22.981385	0.001021	20.803307
360.092960	-2.980600	3.821700	-11.391000	23.001366	0.001021	20.806730
361.094500	-2.976300	3.822800	-11.377000	22.991342	0.001021	20.793368
362.092604	-2.976700	3.821700	-11.376000	22.983524	0.001021	20.806398
363.094117	-2.982500	3.821200	-11.395000	22.990623	0.001024	20.819200
364.094007	-2.999300	3.820600	-11.458000	22.997045	0.001023	20.810462
365.095543	-2.988800	3.819500	-11.415000	22.994649	0.001023	20.785301
366.095012	-3.008600	3.819300	-11.490000	22.966973	0.001023	20.804039
367.096225	-2.980000	3.819500	-11.380000	22.954318	0.001023	20.800369
368.096294	-3.003500	3.819000	-11.469000	22.941159	0.001025	20.803781
369.096343	-2.990900	3.819700	-11.424000	22.947809	0.001024	20.788633
370.099747	-3.000600	3.819200	-11.457000	22.972443	0.001025	20.789131
371.100428	-3.023200	3.818900	-11.545000	22.974232	0.001025	20.791872
372.100741	-2.969900	3.820900	-11.345000	22.981699	0.001025	20.797931
373.102041	-2.997400	3.819600	-11.447000	22.953851	0.001025	20.798479
374.099236	-2.994200	3.818200	-11.432000	22.979382	0.001028	20.799877
375.101922	-2.988500	3.817300	-11.407000	22.980919	0.001028	20.802839
376.099422	-3.002300	3.818400	-11.463000	22.993973	0.001028	20.780831
377.105935	-3.001800	3.817800	-11.459000	22.988294	0.001029	20.772770
378.099907	-3.012500	3.817000	-11.497000	22.999320	0.001027	20.782869
379.099590	-3.004300	3.816700	-11.464000	23.013136	0.001029	20.794815
380.099833	-2.989500	3.817500	-11.411000	23.004544	0.001029	20.797586
381.099180	-3.005800	3.815700	-11.468000	23.015656	0.001029	20.812513
382.104637	-3.002700	3.815700	-11.457000	23.040184	0.001031	20.780191
383.103119	-3.001000	3.816000	-11.451000	23.034222	0.001030	20.795555
384.103251	-2.993600	3.816300	-11.423000	23.051707	0.001030	20.800271
385.102155	-2.976000	3.816500	-11.357000	23.051086	0.001031	20.779261
386.101991	-3.029000	3.814700	-11.553000	23.048597	0.001033	20.798578
387.105458	-3.003100	3.815000	-11.454000	23.059254	0.001032	20.779858
388.105588	-3.013100	3.814800	-11.493000	23.059494	0.001034	20.801910
389.102746	-3.002900	3.815300	-11.456000	23.087142	0.001032	20.799742
390.103277	-3.016500	3.813400	-11.502000	23.070027	0.001034	20.787334
391.106270	-3.006100	3.814300	-11.465000	23.077703	0.001033	20.783645
392.104825	-2.989600	3.815000	-11.404000	23.050232	0.001034	20.760861
393.107290	-2.982300	3.814300	-11.374000	23.065695	0.001035	20.782518
394.106067	-2.994000	3.813600	-11.417000	23.089478	0.001035	20.803504
395.105074	-3.014600	3.812300	-11.491000	23.073364	0.001035	20.782143
396.107938	-3.012300	3.812400	-11.484000	23.071041	0.001036	20.770806
397.104838	-3.012200	3.812200	-11.482000	23.071121	0.001034	20.796491
398.109879	-2.984500	3.812300	-11.378000	23.078416	0.001036	20.783411
399.117748	-3.001500	3.812000	-11.441000	23.101775	0.001037	20.786903
400.110838	-2.984500	3.812700	-11.378000	23.109377	0.001036	20.781244
401.109660	-2.990300	3.812200	-11.397000	23.117833	0.001036	20.761268
402.108875	-2.994900	3.811600	-11.414000	23.140527	0.001036	20.766939
403.113443	-2.992300	3.810600	-11.401000	23.132428	0.001036	20.770203
404.113598	-2.994800	3.810400	-11.411000	23.128372	0.001037	20.759500
405.107735	-2.983600	3.811100	-11.369000	23.132145	0.001037	20.786041
406.107691	-3.003000	3.810100	-11.441000	23.111706	0.001038	20.788794
407.107159	-2.988600	3.809700	-11.385000	23.123155	0.001039	20.779877
408.108585	-3.000200	3.808100	-11.423000	23.135162	0.001040	20.778633
409.109155	-3.008100	3.808500	-11.455000	23.151914	0.001039	20.765548
410.109571	-2.993000	3.809200	-11.400000	23.138149	0.001039	20.776884
411.111714	-3.001200	3.807700	-11.427000	23.137369	0.001038	20.771835
412.110711	-2.995000	3.808400	-11.405000	23.136926	0.001042	20.762856
413.109201	-3.002500	3.808300	-11.433000	23.141173	0.001043	20.781337
414.108329	-3.000500	3.808900	-11.428000	23.160948	0.001042	20.771755
415.113915	-2.991300	3.807700	-11.389000	23.146132	0.001042	20.754537
416.110283	-2.997900	3.806900	-11.412000	23.153869	0.001040	20.763239
417.110566	-3.004900	3.807500	-11.441000	23.124759	0.001042	20.790494
418.111650	-2.997200	3.807400	-11.410000	23.116487	0.001043	20.780309
419.117540	-2.995000	3.806700	-11.400000	23.113224	0.001043	20.768978
420.110798	-2.984300	3.807700	-11.363000	23.104781	0.001043	20.766207
421.112104	-3.009300	3.806300	-11.452000	23.099791	0.001045	20.760733
422.115157	-3.015300	3.804500	-11.470000	23.127365	0.001043	20.756594
423.115272	-3.007100	3.806200	-11.444000	23.109206	0.001043	20.772063
424.121436	-2.987300	3.805700	-11.368000	23.151116	0.001045	20.762851
425.116242	-3.002800	3.805200	-11.424000	23.145315	0.001044	20.775056
426.113445	-2.988600	3.806600	-11.375000	23.160008	0.001045	20.784564
427.117474	-2.998100	3.804500	-11.404000	23.187519	0.001047	20.781313
428.115334	-3.020100	3.804000	-11.487000	23.172679	0.001046	20.756958
429.115266	-2.983900	3.804500	-11.351000	23.183832	0.001047	20.758651
430.115064	-2.995900	3.804200	-11.396000	23.186419	0.001046	20.774995
431.115283	-3.006600	3.802500	-11.430000	23.147571	0.001048	20.760246
432.115419	-3.005400	3.804200	-11.432000	23.123610	0.001047	20.783653
433.116864	-3.013300	3.802400	-11.456000	23.145051	0.001047	20.768628
434.114130	-2.997500	3.802600	-11.398000	23.151079	0.001047	20.773720
435.120817	-3.000900	3.802700	-11.409000	23.148615	0.001048	20.742801
436.117736	-2.982100	3.801200	-11.333000	23.169060	0.001048	20.750486
437.116431	-3.002300	3.801500	-11.413000	23.203078	0.001048	20.755178
438.118733	-2.993900	3.800700	-11.377000	23.206636	0.001049	20.763011
439.116802	-3.015200	3.800300	-11.458000	23.200012	0.001049	20.762537
440.119648	-3.011300	3.801500	-11.445000	23.214680	0.001050	20.754002
441.120010	-2.998900	3.801300	-11.399000	23.215878	0.001050	20.750935
442.120753	-3.009600	3.799600	-11.434000	23.219583	0.001051	20.752278
443.121842	-3.003300	3.800100	-11.412000	23.214213	0.001051	20.767285
444.121064	-3.013000	3.799000	-11.445000	23.199963	0.001051	20.759643
445.124601	-3.013000	3.800300	-11.449000	23.172464	0.001053	20.752001
446.122937	-3.022100	3.798800	-11.479000	23.174216	0.001052	20.749962
447.123810	-2.966000	3.801200	-11.274000	23.171622	0.001053	20.754476
448.121641	-2.988900	3.798800	-11.353000	23.168187	0.001052	20.746292
449.124535	-2.991400	3.798800	-11.362000	23.163781	0.001049	20.763689
450.127775	-2.994700	3.798600	-11.375000	23.165004	0.001052	20.751637
451.123087	-3.009100	3.798700	-11.429000	23.195053	0.001053	20.738601
452.126308	-3.008300	3.798500	-11.425000	23.201505	0.001052	20.753602
453.126054	-3.001100	3.798600	-11.399000	23.213690	0.001054	20.761546
454.124319	-2.992900	3.797100	-11.364000	23.215927	0.001053	20.748140
455.126208	-2.982000	3.798700	-11.326000	23.219989	0.001054	20.733717
456.136647	-3.001300	3.796500	-11.394000	23.230717	0.001053	20.754901
457.132970	-3.004300	3.796800	-11.405000	23.257919	0.001054	20.745652
458.128370	-3.005800	3.795500	-11.407000	23.262724	0.001054	20.747148
459.126754	-3.012700	3.795800	-11.434000	23.264070	0.001055	20.738065
460.127303	-2.967300	3.796600	-11.263000	23.241587	0.001057	20.726438
461.133863	-3.002100	3.795700	-11.394000	23.272789	0.001056	20.752967
462.130339	-2.994100	3.793600	-11.358000	23.308850	0.001057	20.726992
463.131536	-3.011700	3.795900	-11.430000	23.288506	0.001059	20.747382
464.128151	-2.996900	3.794100	-11.369000	23.320327	0.001057	20.740392
465.130045	-2.986800	3.794300	-11.331000	23.331387	0.001056	20.751477
466.128652	-3.016200	3.792300	-11.437000	23.311516	0.001056	20.768547
467.135424	-3.015000	3.793000	-11.434000	23.332886	0.001058	20.748712
468.130663	-2.992000	3.792700	-11.347000	23.365007	0.001057	20.756249
469.128139	-2.996900	3.793900	-11.369000	23.337967	0.001056	20.741950
470.127290	-3.010400	3.793700	-11.420000	23.369240	0.001058	20.723032
471.128217	-3.013500	3.791000	-11.423000	23.384004	0.001058	20.726924
472.128889	-3.005200	3.790700	-11.391000	23.400887	0.001058	20.760443
473.128741	-2.999800	3.790900	-11.371000	23.430272	0.001056	20.739635
474.127983	-3.007200	3.791700	-11.401000	23.440906	0.001059	20.749346
475.128938	-2.988200	3.790700	-11.326000	23.427310	0.001059	20.731925
476.129034	-3.004800	3.790000	-11.388000	23.421185	0.001058	20.720569
477.128199	-2.997500	3.791200	-11.363000	23.405851	0.001057	20.728907
478.131052	-3.008900	3.789300	-11.401000	23.420466	0.001060	20.736445
479.129522	-2.989800	3.790100	-11.331000	23.410753	0.001059	20.752314
480.130471	-3.001100	3.790900	-11.376000	23.424976	0.001060	20.749974
481.131054	-3.005800	3.789400	-11.390000	23.452069	0.001058	20.731610
482.130413	-2.989700	3.790200	-11.330000	23.426198	0.001059	20.735552
483.133814	-3.009000	3.789700	-11.402000	23.444672	0.001060	20.733205
484.134693	-2.990300	3.788900	-11.328000	23.407005	0.001059	20.719158
485.136480	-3.015200	3.787200	-11.418000	23.426401	0.001060	20.749980
486.135479	-2.986900	3.789400	-11.318000	23.420927	0.001060	20.734535
487.135539	-2.995600	3.787500	-11.345000	23.457327	0.001060	20.732614
488.137431	-3.002600	3.787500	-11.371000	23.470517	0.001060	20.721652
489.138113	-3.028100	3.786800	-11.464000	23.459643	0.001061	20.733987
490.135458	-3.018400	3.786700	-11.428000	23.492234	0.001060	20.739154
491.136185	-3.007900	3.787100	-11.389000	23.483946	0.001060	20.727053
492.139231	-3.014300	3.786600	-11.412000	23.498985	0.001060	20.733119
493.137887	-2.997000	3.786900	-11.347000	23.488904	0.001062	20.709736
494.141535	-2.997200	3.785900	-11.346000	23.507401	0.001061	20.715001
495.137084	-2.978000	3.787200	-11.276000	23.516867	0.001062	20.714059
496.142746	-2.986500	3.786700	-11.308000	23.485249	0.001062	20.740213
497.137703	-2.999400	3.784600	-11.351000	23.515252	0.001061	20.719078
498.138117	-2.996700	3.785600	-11.343000	23.477686	0.001061	20.723149
499.144464	-2.996400	3.785500	-11.341000	23.483012	0.001063	20.711417
500.138680	-3.023200	3.783700	-11.437000	23.472980	0.001064	20.703257
501.139544	-3.016900	3.783900	-11.415000	23.462776	0.001063	20.724799
502.139899	-2.977000	3.784000	-11.263000	23.467402	0.001061	20.718530
503.141690	-3.008600	3.782600	-11.380000	23.431235	0.001063	20.692708
504.143323	-3.001500	3.783000	-11.353000	23.452148	0.001063	20.724103
505.145301	-2.983900	3.784200	-11.291000	23.437391	0.001064	20.717372
506.142160	-2.983600	3.783700	-11.289000	23.429970	0.001065	20.721787
507.142326	-3.014900	3.781800	-11.401000	23.454347	0.001064	20.711608
508.141897	-2.999300	3.782800	-11.345000	23.434055	0.001066	20.694586
509.142235	-3.007100	3.781800	-11.372000	23.462512	0.001063	20.692763
510.147915	-3.005300	3.781400	-11.364000	23.453702	0.001063	20.730403
511.144207	-3.008800	3.781200	-11.376000	23.453155	0.001064	20.703300
512.146231	-2.993900	3.780500	-11.317000	23.457437	0.001063	20.709015
513.143647	-2.982900	3.780000	-11.274000	23.468268	0.001064	20.709440
514.145926	-2.998200	3.781100	-11.335000	23.477987	0.001064	20.706853
515.146730	-3.032300	3.779400	-11.459000	23.499464	0.001065	20.711786
516.153013	-3.009300	3.780100	-11.374000	23.518888	0.001065	20.720352
517.147222	-3.012600	3.779700	-11.386000	23.547994	0.001066	20.699266
518.146070	-3.021200	3.778500	-11.415000	23.556606	0.001065	20.708849
519.150035	-2.989200	3.779600	-11.297000	23.541199	0.001068	20.713794
520.150246	-2.970500	3.779400	-11.225000	23.567589	0.001067	20.691408
521.151113	-2.976500	3.779200	-11.247000	23.561397	0.001066	20.696581
522.149339	-2.982800	3.778400	-11.268000	23.545585	0.001066	20.707284
523.153403	-2.998200	3.777100	-11.323000	23.557859	0.001066	20.674540
524.153291	-3.000200	3.776700	-11.330000	23.564512	0.001066	20.685477
525.153191	-3.008300	3.776000	-11.359000	23.539393	0.001068	20.687799
526.154707	-2.974600	3.777600	-11.237000	23.543896	0.001068	20.683304
527.150451	-3.013200	3.775700	-11.376000	23.586153	0.001066	20.710967
528.153465	-3.008000	3.776100	-11.358000	23.589064	0.001067	20.690176
529.154410	-2.984500	3.776800	-11.270000	23.606988	0.001068	20.689179
530.154802	-3.003800	3.775300	-11.339000	23.588886	0.001066	20.681462
531.156134	-3.016200	3.773700	-11.381000	23.588573	0.001068	20.718135
532.155931	-3.004900	3.773500	-11.338000	23.596435	0.001067	20.704205
533.157759	-3.018300	3.773800	-11.390000	23.587074	0.001068	20.697665
534.155023	-3.024100	3.773600	-11.411000	23.563050	0.001066	20.707247
535.156329	-3.001300	3.774300	-11.326000	23.575028	0.001068	20.691279
536.193936	-2.996000	3.774600	-11.308000	23.570476	0.001069	20.698570
537.205661	-3.003700	3.773700	-11.334000	23.572288	0.001069	20.693274
538.159315	-3.026000	3.772300	-11.414000	23.587283	0.001067	20.703564
539.162167	-3.003500	3.772900	-11.331000	23.592332	0.001068	20.702462
540.158276	-3.014700	3.772600	-11.371000	23.598364	0.001071	20.702345
541.161758	-2.987200	3.774200	-11.273000	23.627781	0.001068	20.690108
542.160978	-3.009900	3.770700	-11.349000	23.616829	0.001067	20.681025
543.157730	-2.997200	3.772500	-11.306000	23.605576	0.001067	20.697246
544.159125	-3.011600	3.770800	-11.355000	23.579862	0.001068	20.705609
545.159154	-3.017600	3.769400	-11.373000	23.611951	0.001069	20.680877
546.175870	-3.008300	3.770000	-11.340000	23.576029	0.001069	20.681376
547.160250	-3.007400	3.769400	-11.335000	23.584543	0.001068	20.673314
548.192263	-3.009800	3.769000	-11.344000	23.608168	0.001069	20.683248
549.202727	-2.985800	3.769600	-11.254000	23.602713	0.001070	20.673037
550.190307	-3.000300	3.768600	-11.306000	23.578173	0.001070	20.691586
551.194185	-3.007600	3.768600	-11.333000	23.606921	0.001070	20.686740
552.209032	-2.982200	3.769600	-11.240000	23.586736	0.001069	20.691162
553.203372	-3.024100	3.768200	-11.393000	23.592234	0.001070	20.677705
554.203619	-2.988500	3.769300	-11.263000	23.612873	0.001071	20.684172
555.200943	-3.011100	3.767100	-11.342000	23.616878	0.001070	20.674435
556.199427	-2.993100	3.767900	-11.276000	23.623377	0.001071	20.689012
557.193896	-3.021600	3.766100	-11.378000	23.623770	0.001072	20.698416
558.204040	-2.981900	3.766900	-11.231000	23.619353	0.001070	20.673598
559.199283	-3.008000	3.766300	-11.328000	23.632240	0.001068	20.704537
560.201305	-3.014500	3.765500	-11.349000	23.627633	0.001072	20.710825
561.200015	-3.006200	3.766100	-11.321000	23.627633	0.001070	20.680951
562.198512	-2.985100	3.764900	-11.238000	23.625772	0.001071	20.680507
563.204479	-2.998700	3.765900	-11.292000	23.659525	0.001071	20.690164
564.174216	-3.024500	3.764900	-11.386000	23.656859	0.001070	20.701717
565.200523	-2.989600	3.765600	-11.256000	23.666416	0.001069	20.698022
566.207283	-3.017900	3.762900	-11.355000	23.662461	0.001070	20.689314
567.192475	-2.992900	3.763900	-11.264000	23.665397	0.001071	20.678980
568.182400	-2.999200	3.763300	-11.285000	23.674389	0.001069	20.714551
569.183938	-3.015500	3.762500	-11.345000	23.674039	0.001069	20.701871
570.187442	-2.972500	3.763500	-11.186000	23.655127	0.001070	20.692393
571.177957	-3.024100	3.762800	-11.379000	23.685592	0.001071	20.670303
572.180688	-3.011400	3.762900	-11.330000	23.711727	0.001071	20.690817
573.193532	-3.033900	3.761600	-11.411000	23.714343	0.001070	20.683956
574.184713	-3.011500	3.761700	-11.328000	23.721707	0.001069	20.709834
575.184977	-2.997000	3.762300	-11.274000	23.704712	0.001072	20.691371
576.201598	-2.983000	3.762500	-11.222000	23.728335	0.001070	20.700830
577.216762	-2.993200	3.762100	-11.260000	23.725829	0.001072	20.692627
578.194473	-3.003500	3.761100	-11.295000	23.701678	0.001070	20.676474
579.197375	-2.982100	3.760700	-11.214000	23.681993	0.001070	20.697991
580.206193	-3.005100	3.759800	-11.297000	23.701162	0.001071	20.684018
581.202094	-3.004800	3.759900	-11.297000	23.704651	0.001068	20.695577
582.204610	-3.006300	3.758800	-11.299000	23.722494	0.001072	20.668418
583.202977	-2.983000	3.759600	-11.213000	23.717844	0.001071	20.690311
584.198546	-2.997200	3.759900	-11.268000	23.722770	0.001070	20.699992
585.204918	-3.002800	3.758400	-11.284000	23.730042	0.001070	20.694481
586.196771	-2.992700	3.759400	-11.250000	23.697416	0.001069	20.685951
587.206411	-2.980500	3.759700	-11.204000	23.676483	0.001070	20.689622
588.216115	-2.976600	3.758500	-11.186000	23.664512	0.001071	20.687103
589.209235	-3.010300	3.756900	-11.308000	23.648683	0.001071	20.700159
590.207582	-3.014000	3.756900	-11.323000	23.623671	0.001069	20.701637
591.208951	-3.000400	3.757700	-11.274000	23.658400	0.001071	20.696624
592.206893	-3.002500	3.758200	-11.282000	23.692103	0.001070	20.701489
593.179228	-2.994700	3.757100	-11.250000	23.723795	0.001072	20.680630
594.182638	-2.974100	3.756100	-11.170000	23.729342	0.001072	20.689037
595.185329	-2.998200	3.756300	-11.261000	23.759866	0.001070	20.707315
596.172243	-3.015400	3.755800	-11.325000	23.756181	0.001070	20.692239
597.176977	-2.981600	3.755300	-11.196000	23.777340	0.001070	20.691167
598.171336	-2.983400	3.755900	-11.205000	23.798153	0.001072	20.702554
599.165851	-3.005000	3.755000	-11.282000	23.806315	0.001071	20.710264
600.166240	-3.000900	3.753700	-11.264000	23.817874	0.001070	20.691980
601.184855	-2.992300	3.754900	-11.235000	23.843882	0.001071	20.697196
602.161803	-2.979400	3.755100	-11.187000	23.848666	0.001072	20.672593
603.165722	-2.985300	3.755200	-11.210000	23.865241	0.001070	20.688741
604.167130	-3.022000	3.752800	-11.340000	23.807458	0.001070	20.691020
605.166293	-2.987600	3.752700	-11.211000	23.829487	0.001070	20.689400
606.165184	-3.002500	3.751900	-11.264000	23.846787	0.001072	20.708645
607.189208	-2.982700	3.751400	-11.187000	23.806696	0.001071	20.689308
608.190326	-3.031000	3.751100	-11.369000	23.815681	0.001072	20.701637
609.191683	-2.986000	3.751100	-11.200000	23.823868	0.001069	20.694671
610.190515	-3.006100	3.750800	-11.274000	23.844380	0.001071	20.710973
611.168639	-2.984800	3.752300	-11.198000	23.832957	0.001070	20.706631
612.175089	-3.017100	3.750400	-11.314000	23.871241	0.001071	20.708983
613.169514	-3.019900	3.749800	-11.322000	23.864271	0.001068	20.696303
614.167517	-3.035000	3.748500	-11.376000	23.884009	0.001068	20.731744
615.172342	-3.005100	3.750400	-11.269000	23.885605	0.001069	20.708688
616.171163	-2.985300	3.749500	-11.192000	23.893147	0.001072	20.693015
617.175683	-3.001700	3.749700	-11.254000	23.920652	0.001070	20.701630
618.171168	-2.988200	3.749000	-11.201000	23.900442	0.001069	20.701754
619.172479	-2.978000	3.749200	-11.164000	23.909580	0.001068	20.714237
620.174740	-2.994500	3.749300	-11.226000	23.885040	0.001069	20.697215
621.169801	-2.992700	3.749100	-11.219000	23.886809	0.001070	20.697092
622.174081	-3.005900	3.747500	-11.264000	23.860654	0.001068	20.711170
623.173843	-2.992300	3.748400	-11.215000	23.877886	0.001069	20.699050
624.170377	-3.011000	3.747800	-11.284000	23.896825	0.001069	20.702868
625.171201	-3.022800	3.747000	-11.325000	23.912030	0.001067	20.712426
626.170849	-3.004900	3.746300	-11.256000	23.922777	0.001069	20.698545
627.172166	-2.997900	3.746000	-11.229000	23.882437	0.001069	20.723529
628.182479	-3.005000	3.746700	-11.256000	23.895486	0.001070	20.713381
629.173920	-2.998000	3.745400	-11.228000	23.872857	0.001068	20.712026
630.179531	-2.979600	3.747700	-11.165000	23.860439	0.001066	20.698625
631.174157	-3.017900	3.743900	-11.297000	23.842777	0.001068	20.712685
632.171746	-3.004400	3.745300	-11.252000	23.846106	0.001069	20.707487
633.175535	-3.012900	3.743600	-11.277000	23.837852	0.001069	20.712962
634.194343	-3.007500	3.744000	-11.259000	23.872372	0.001069	20.703952
635.216026	-2.991000	3.744600	-11.199000	23.880957	0.001067	20.722045
636.193895	-3.016000	3.742600	-11.286000	23.861023	0.001068	20.736671
637.213319	-3.014500	3.742900	-11.281000	23.868269	0.001068	20.717858
638.232584	-2.998800	3.742600	-11.222000	23.883020	0.001068	20.707992
639.214167	-3.009600	3.741900	-11.260000	23.919362	0.001068	20.705554
640.223686	-2.983000	3.743100	-11.165000	23.939271	0.001066	20.731209
641.228961	-2.983400	3.742000	-11.162000	23.939971	0.001066	20.709150
642.228031	-2.987100	3.742600	-11.178000	23.941617	0.001066	20.740674
643.219522	-3.011200	3.741000	-11.265000	23.947463	0.001068	20.720457
644.211313	-3.010200	3.741200	-11.261000	23.940898	0.001068	20.725728
645.224505	-2.991900	3.740400	-11.190000	23.973401	0.001069	20.716595
646.212015	-2.984700	3.741500	-11.166000	23.978853	0.001068	20.749566
647.216010	-3.005400	3.740500	-11.241000	24.007818	0.001066	20.713652
648.230962	-3.002400	3.740300	-11.229000	23.983066	0.001065	20.730556
649.220484	-3.013400	3.739900	-11.268000	24.006258	0.001066	20.729632
650.227449	-2.977000	3.741100	-11.137000	24.002003	0.001066	20.720623
651.224196	-2.999800	3.739900	-11.218000	23.966192	0.001066	20.699408
652.225279	-3.011100	3.738300	-11.255000	23.936311	0.001065	20.716386
653.234985	-3.005300	3.739400	-11.237000	23.922673	0.001065	20.716460
654.237667	-3.011600	3.737300	-11.254000	23.918945	0.001065	20.735483
655.235175	-3.003800	3.736900	-11.224000	23.887718	0.001065	20.735939
656.231729	-2.998200	3.737200	-11.203000	23.908223	0.001066	20.753656
657.227303	-3.000900	3.737600	-11.215000	23.874779	0.001067	20.737189
658.231387	-2.986200	3.737100	-11.158000	23.859525	0.001065	20.720943
659.227198	-3.012900	3.735900	-11.256000	23.865058	0.001066	20.713215
660.221781	-2.995500	3.737300	-11.194000	23.883494	0.001065	20.737392
661.229719	-2.998800	3.736100	-11.203000	23.899577	0.001065	20.729337
662.225100	-2.994900	3.735500	-11.186000	23.921684	0.001065	20.742972
663.228203	-3.009600	3.736000	-11.243000	23.934199	0.001066	20.726597
664.226196	-3.028400	3.734200	-11.307000	23.931067	0.001065	20.730569
665.218596	-2.997500	3.736700	-11.199000	23.931467	0.001064	20.720063
666.229071	-2.987200	3.736200	-11.160000	23.958166	0.001066	20.745890
667.232839	-3.001400	3.735100	-11.209000	23.982035	0.001063	20.730945
668.244743	-2.967200	3.736900	-11.087000	23.984651	0.001064	20.748742
669.232882	-3.010800	3.733000	-11.239000	24.021579	0.001065	20.734092
670.231468	-2.985700	3.734100	-11.148000	24.047650	0.001064	20.739375
671.231164	-3.017600	3.732800	-11.262000	24.070000	0.001065	20.733340
672.237844	-3.005000	3.732400	-11.214000	24.044427	0.001064	20.731400
673.228357	-3.021500	3.732400	-11.276000	24.033153	0.001063	20.735268
674.225403	-3.005400	3.732500	-11.217000	24.019338	0.001063	20.735637
675.244988	-2.993200	3.732000	-11.169000	24.039920	0.001067	20.759598
676.228064	-3.007900	3.732000	-11.224000	24.035444	0.001064	20.746574
677.226296	-3.013900	3.731400	-11.246000	24.021628	0.001063	20.748366
678.231875	-2.988300	3.732600	-11.152000	23.999210	0.001064	20.736789
679.240324	-2.997300	3.731200	-11.183000	24.015390	0.001062	20.760128
680.238590	-2.981300	3.731400	-11.124000	24.017361	0.001064	20.743138
681.236536	-2.983800	3.731100	-11.131000	24.016612	0.001063	20.707297
682.257586	-2.998600	3.730500	-11.185000	24.045501	0.001062	20.754764
683.241323	-3.004800	3.730500	-11.208000	24.075686	0.001063	20.765122
684.233676	-2.998300	3.729600	-11.182000	24.102333	0.001062	20.751070
685.243415	-3.010800	3.729300	-11.227000	24.114355	0.001062	20.737522
686.249836	-2.993000	3.728300	-11.158000	24.131472	0.001062	20.752320
687.226737	-2.991400	3.729100	-11.155000	24.122416	0.001062	20.730434
688.236277	-2.996300	3.728600	-11.171000	24.122195	0.001062	20.749653
689.228579	-2.989000	3.729200	-11.145000	24.091140	0.001064	20.758810
690.226964	-3.015700	3.727000	-11.238000	24.093332	0.001062	20.754845
691.238056	-2.999600	3.728000	-11.181000	24.106791	0.001063	20.759334
692.235703	-3.023500	3.726600	-11.266000	24.093529	0.001062	20.743661
693.229427	-3.007600	3.726200	-11.205000	24.108191	0.001062	20.758841
694.236714	-2.993500	3.727600	-11.156000	24.098183	0.001061	20.752123
695.230975	-3.010800	3.726600	-11.218000	24.121293	0.001062	20.769137
696.236528	-2.992900	3.726000	-11.150000	24.126223	0.001061	20.765547
697.235293	-2.977900	3.727700	-11.100000	24.143273	0.001060	20.769371
698.239182	-2.983400	3.726200	-11.116000	24.171036	0.001060	20.774932
699.236518	-2.992400	3.726200	-11.149000	24.140927	0.001061	20.776028
700.248723	-2.992500	3.725900	-11.149000	24.121103	0.001061	20.752351
701.246949	-3.021000	3.724800	-11.252000	24.128145	0.001059	20.775536
702.244692	-3.006600	3.724600	-11.197000	24.112267	0.001060	20.776207
703.247239	-2.975100	3.725400	-11.083000	24.144194	0.001060	20.775985
704.250249	-2.993200	3.723900	-11.144000	24.116823	0.001060	20.764180
705.235456	-3.007700	3.723800	-11.199000	24.118573	0.001059	20.764987
706.234947	-3.003600	3.723900	-11.185000	24.122926	0.001059	20.751809
707.243989	-2.998100	3.722900	-11.160000	24.141136	0.001058	20.768651
708.249705	-3.005400	3.722400	-11.187000	24.121582	0.001058	20.784126
709.243207	-2.978300	3.723000	-11.087000	24.102278	0.001059	20.755282
710.249622	-3.007800	3.722500	-11.196000	24.122355	0.001058	20.792963
711.251418	-3.004700	3.720700	-11.178000	24.142242	0.001058	20.754586
712.240374	-2.979500	3.723100	-11.092000	24.155835	0.001057	20.745460
713.243301	-2.999800	3.722400	-11.165000	24.189964	0.001059	20.774951
714.253718	-2.993300	3.722300	-11.141000	24.178103	0.001057	20.777279
715.241743	-2.985500	3.721100	-11.108000	24.227063	0.001057	20.765221
716.246782	-2.978400	3.722100	-11.086000	24.210254	0.001056	20.795777
717.239646	-2.991900	3.721700	-11.134000	24.231631	0.001058	20.761268
718.253626	-2.982400	3.720100	-11.094000	24.238673	0.001056	20.778289
719.244068	-3.010500	3.719800	-11.198000	24.216332	0.001057	20.777692
720.242583	-3.006000	3.720200	-11.181000	24.237114	0.001058	20.780518
721.242703	-3.004300	3.719900	-11.173000	24.238612	0.001056	20.769218
722.245447	-2.991400	3.719700	-11.126000	24.252216	0.001057	20.790925
723.250124	-2.984300	3.719800	-11.100000	24.248385	0.001054	20.766219
724.246953	-2.983900	3.719500	-11.098000	24.237298	0.001055	20.798721
725.260162	-3.007300	3.718000	-11.181000	24.218070	0.001053	20.784176
726.253085	-3.044400	3.716100	-11.312000	24.198664	0.001054	20.774668
727.250196	-3.017000	3.716900	-11.212000	24.221036	0.001053	20.779090
728.254292	-2.991600	3.718100	-11.122000	24.215891	0.001054	20.800483
729.262026	-2.991100	3.718400	-11.122000	24.241768	0.001053	20.798937
730.255909	-3.014200	3.716200	-11.200000	24.225941	0.001054	20.788752
731.250285	-3.010000	3.715800	-11.183000	24.181536	0.001054	20.780248
732.261202	-2.994200	3.717500	-11.130000	24.213491	0.001054	20.796653
733.254317	-2.989600	3.717100	-11.110000	24.216996	0.001053	20.790212
734.257589	-2.996400	3.715700	-11.132000	24.217181	0.001051	20.800354
735.253408	-3.001200	3.715400	-11.150000	24.229244	0.001053	20.799652
736.255077	-3.003100	3.714900	-11.155000	24.226310	0.001053	20.785329
737.243189	-3.010100	3.714700	-11.181000	24.240326	0.001051	20.793223
738.257290	-2.996900	3.716300	-11.135000	24.224155	0.001053	20.789331
739.249607	-3.017800	3.714400	-11.208000	24.206069	0.001052	20.798217
740.256832	-2.990600	3.715600	-11.111000	24.199875	0.001051	20.790582
741.295394	-2.983200	3.713700	-11.078000	24.174599	0.001052	20.768549
742.248705	-2.972800	3.714300	-11.041000	24.156396	0.001053	20.789646
743.259940	-2.984700	3.713900	-11.083000	24.163984	0.001051	20.782084
744.250671	-2.985700	3.712900	-11.084000	24.183759	0.001052	20.792435
745.267896	-2.979900	3.713700	-11.065000	24.188794	0.001051	20.776148
746.250316	-2.997300	3.711800	-11.125000	24.226366	0.001051	20.804351
747.257384	-2.993700	3.713200	-11.115000	24.253685	0.001050	20.793821
748.257784	-3.000700	3.713100	-11.141000	24.248712	0.001051	20.808274
749.251425	-3.004500	3.710600	-11.147000	24.271948	0.001051	20.794123
750.253503	-2.991900	3.711500	-11.103000	24.260782	0.001050	20.812319
751.248489	-2.998900	3.711100	-11.128000	24.214253	0.001050	20.799788
752.254387	-2.993400	3.710400	-11.106000	24.218882	0.001050	20.791629
753.253026	-3.017600	3.710900	-11.196000	24.182366	0.001050	20.809530
754.251480	-3.004300	3.710700	-11.147000	24.153284	0.001050	20.800749
755.252439	-3.023900	3.709400	-11.214000	24.142361	0.001050	20.814924
756.261395	-3.002500	3.710000	-11.138000	24.153462	0.001051	20.805669
757.257004	-2.991200	3.710300	-11.098000	24.180684	0.001050	20.809266
758.259457	-2.989300	3.709600	-11.089000	24.173698	0.001050	20.794198
759.265702	-3.004700	3.707600	-11.139000	24.172433	0.001049	20.816163
760.257446	-3.007700	3.708400	-11.153000	24.187064	0.001048	20.818509
761.263562	-3.000100	3.708000	-11.123000	24.196647	0.001048	20.791612
762.261994	-2.989600	3.708100	-11.085000	24.207845	0.001049	20.829870
763.255102	-3.001800	3.708900	-11.132000	24.221554	0.001049	20.820387
764.247638	-2.977500	3.709100	-11.043000	24.212033	0.001044	20.799931
765.263789	-2.982800	3.707100	-11.057000	24.228283	0.001048	20.818602
766.270520	-2.994300	3.708000	-11.102000	24.201835	0.001047	20.809618
767.248188	-2.998200	3.707500	-11.115000	24.209780	0.001048	20.818060
768.266470	-2.992600	3.706500	-11.091000	24.206047	0.001046	20.803885
769.257906	-3.014300	3.707000	-11.173000	24.226012	0.001047	20.802574
770.258951	-3.006900	3.706800	-11.145000	24.223673	0.001045	20.834366
771.252587	-2.991200	3.706000	-11.085000	24.219272	0.001047	20.820468
772.259837	-3.001900	3.704200	-11.118000	24.220070	0.001045	20.805148
773.259089	-3.012100	3.704500	-11.156000	24.233392	0.001047	20.810924
774.264442	-3.007400	3.705300	-11.142000	24.254566	0.001047	20.832162
775.261186	-3.003500	3.705100	-11.127000	24.309146	0.001044	20.817211
776.259768	-2.973600	3.705700	-11.018000	24.319901	0.001045	20.825629
777.270217	-3.007600	3.703700	-11.137000	24.346223	0.001045	20.838283
778.261407	-2.998400	3.703500	-11.102000	24.352497	0.001046	20.825611
779.261302	-2.985200	3.704600	-11.058000	24.364768	0.001045	20.804256
780.261200	-3.002500	3.704300	-11.120000	24.371490	0.001045	20.819060
781.268012	-2.998700	3.704100	-11.106000	24.378027	0.001044	20.811867
782.265447	-2.991300	3.703500	-11.078000	24.415949	0.001043	20.827151
783.261069	-3.002600	3.702000	-11.115000	24.396252	0.001044	20.818297
784.261833	-3.027600	3.700700	-11.203000	24.403519	0.001044	20.825588
785.263898	-3.004300	3.701600	-11.120000	24.425537	0.001042	20.843882
786.263737	-2.986400	3.702900	-11.057000	24.397633	0.001043	20.844338
787.262026	-2.988200	3.701600	-11.060000	24.370423	0.001043	20.821309
788.255735	-2.984400	3.702100	-11.047000	24.344126	0.001042	20.842817
789.270349	-2.997900	3.700600	-11.094000	24.348981	0.001041	20.799800
790.265735	-3.001300	3.700200	-11.105000	24.378986	0.001044	20.835114
791.260590	-2.996300	3.701200	-11.089000	24.374837	0.001045	20.824314
792.256756	-2.994300	3.700100	-11.078000	24.371055	0.001042	20.841383
793.272580	-3.007900	3.699200	-11.126000	24.373971	0.001040	20.815386
794.273543	-3.014800	3.698500	-11.149000	24.372763	0.001040	20.829346
795.271413	-2.977800	3.700300	-11.018000	24.374653	0.001040	20.815121
796.261118	-2.980200	3.698400	-11.019000	24.395548	0.001039	20.802418
797.293985	-3.021900	3.698200	-11.173000	24.396573	0.001038	20.823361
798.270899	-3.031300	3.697300	-11.206000	24.383591	0.001039	20.834044
799.271800	-3.005700	3.698600	-11.115000	24.387544	0.001040	20.838484
800.269410	-2.988100	3.697900	-11.047000	24.350088	0.001039	20.827462
801.288690	-3.018700	3.697100	-11.159000	24.356589	0.001037	20.822604
802.269331	-3.006500	3.698100	-11.118000	24.359376	0.001038	20.820658
803.271336	-2.977700	3.697100	-11.008000	24.352464	0.001037	20.824630
804.268350	-2.980500	3.698500	-11.022000	24.324675	0.001039	20.817142
805.266358	-2.994000	3.697200	-11.069000	24.350433	0.001037	20.808842
806.272201	-2.997200	3.696600	-11.078000	24.364035	0.001035	20.815375
807.268891	-2.993200	3.695700	-11.061000	24.370726	0.001038	20.805018
808.280375	-2.988000	3.696600	-11.045000	24.400117	0.001035	20.814588
809.266942	-3.031200	3.694500	-11.198000	24.402382	0.001034	20.817334
810.274110	-2.990000	3.696100	-11.050000	24.388804	0.001037	20.829791
811.266391	-2.982400	3.696000	-11.023000	24.385177	0.001035	20.803868
812.267132	-3.010600	3.694700	-11.123000	24.396324	0.001035	20.806516
813.277859	-2.992300	3.695200	-11.056000	24.409662	0.001035	20.817526
814.275583	-3.019100	3.693100	-11.149000	24.392476	0.001035	20.813086
815.286086	-3.015000	3.693100	-11.134000	24.431109	0.001034	20.802058
816.265866	-3.004700	3.694400	-11.100000	24.427377	0.001034	20.814909
817.267246	-3.020500	3.693200	-11.154000	24.421019	0.001034	20.818013
818.269492	-3.002400	3.693100	-11.087000	24.435995	0.001032	20.826874
819.279916	-2.975900	3.694300	-10.993000	24.453010	0.001035	20.823555
820.274017	-2.978300	3.694200	-11.001000	24.417717	0.001032	20.816123
821.278474	-2.988300	3.693200	-11.035000	24.445780	0.001033	20.803500
822.279993	-2.991000	3.694300	-11.048000	24.448769	0.001033	20.813137
823.273977	-2.994000	3.693100	-11.055000	24.465962	0.001033	20.800514
824.270348	-2.999600	3.693000	-11.077000	24.462782	0.001031	20.790212
825.275879	-2.975400	3.693100	-10.987000	24.488089	0.001029	20.790945
826.265656	-3.011000	3.691700	-11.113000	24.469325	0.001031	20.799621
827.273407	-2.986700	3.691700	-11.025000	24.460033	0.001030	20.797885
828.275029	-3.011100	3.690300	-11.111000	24.464882	0.001029	20.811759
829.267519	-2.994800	3.691800	-11.055000	24.449796	0.001030	20.795675
830.271739	-2.979100	3.690900	-10.993000	24.419051	0.001029	20.806082
831.280305	-2.990800	3.689100	-11.032000	24.449680	0.001028	20.791292
832.276714	-2.981200	3.690400	-11.001000	24.475778	0.001028	20.784284
833.273076	-3.005300	3.687700	-11.081000	24.444113	0.001029	20.794716
834.275674	-3.000100	3.689600	-11.067000	24.460311	0.001029	20.805751
835.273058	-2.998100	3.689500	-11.061000	24.472182	0.001029	20.792530
836.268642	-3.010600	3.687900	-11.102000	24.476939	0.001028	20.787820
837.266500	-3.005800	3.687400	-11.082000	24.492216	0.001028	20.781810
838.272930	-2.991200	3.689100	-11.033000	24.482421	0.001027	20.805647
839.268674	-2.994800	3.686600	-11.040000	24.470557	0.001026	20.793744
840.287450	-2.978900	3.689000	-10.988000	24.501681	0.001027	20.787039
841.271910	-2.990000	3.687200	-11.023000	24.515012	0.001028	20.773387
842.277942	-2.963200	3.687800	-10.927000	24.508353	0.001028	20.782827
843.281555	-2.996900	3.687200	-11.049000	24.527564	0.001026	20.784084
844.272623	-2.980700	3.687100	-10.989000	24.559700	0.001026	20.784084
845.274374	-3.021500	3.686600	-11.139000	24.578259	0.001028	20.779946
846.268187	-2.996000	3.685500	-11.041000	24.601722	0.001026	20.774565
847.278949	-3.008800	3.686100	-11.089000	24.575927	0.001028	20.761959
848.275370	-3.014300	3.685900	-11.110000	24.557252	0.001026	20.795853
849.282801	-3.000100	3.685700	-11.057000	24.521171	0.001026	20.771031
850.281614	-2.989200	3.687600	-11.022000	24.545843	0.001025	20.775397
851.277894	-3.003900	3.685100	-11.069000	24.516035	0.001025	20.773938
852.284732	-3.011500	3.684400	-11.094000	24.514721	0.001027	20.784949
853.285354	-3.003200	3.684800	-11.065000	24.504454	0.001025	20.780337
854.274661	-2.985400	3.685100	-11.001000	24.524278	0.001026	20.770829
855.283938	-2.997000	3.684400	-11.041000	24.516643	0.001024	20.786403
856.279157	-3.012100	3.683400	-11.094000	24.529637	0.001024	20.787586
857.283293	-2.995900	3.682000	-11.030000	24.524543	0.001026	20.771095
858.278358	-3.008800	3.683300	-11.081000	24.532510	0.001024	20.775770
859.285222	-2.974300	3.683100	-10.952000	24.508187	0.001022	20.769384
860.280675	-2.993100	3.682400	-11.020000	24.521801	0.001022	20.762180
861.302486	-3.002800	3.681800	-11.055000	24.531676	0.001024	20.767821
862.277812	-3.002100	3.681700	-11.052000	24.529940	0.001021	20.775562
863.275079	-2.987700	3.681600	-10.999000	24.549991	0.001022	20.768179
864.273460	-3.013800	3.681600	-11.094000	24.520851	0.001020	20.754589
865.281569	-2.986500	3.680500	-10.991000	24.468301	0.001023	20.769196
866.289858	-3.011900	3.678800	-11.079000	24.456308	0.001020	20.779449
867.283414	-3.023300	3.678300	-11.119000	24.442713	0.001022	20.764387
868.274712	-2.989100	3.680800	-11.001000	24.427786	0.001019	20.765058
869.290691	-2.996500	3.681400	-11.031000	24.429683	0.001021	20.783557
870.278012	-3.009600	3.679200	-11.072000	24.418150	0.001019	20.770565
871.287254	-3.010900	3.678500	-11.074000	24.380959	0.001019	20.775454
872.279278	-2.994200	3.680000	-11.017000	24.360893	0.001019	20.759118
873.291186	-3.008000	3.680100	-11.068000	24.331736	0.001017	20.763533
874.278248	-3.008300	3.678500	-11.065000	24.321018	0.001018	20.743772
875.281969	-2.999700	3.678100	-11.032000	24.350575	0.001020	20.788122
876.294508	-3.017900	3.677300	-11.096000	24.359986	0.001019	20.783812
877.278442	-3.009100	3.678000	-11.066000	24.404384	0.001018	20.769082
878.297182	-3.020300	3.677400	-11.105000	24.449493	0.001018	20.764076
879.286135	-3.020500	3.676900	-11.105000	24.450487	0.001014	20.767445
880.281128	-3.012600	3.677200	-11.077000	24.441962	0.001017	20.761737
881.284565	-3.012200	3.676500	-11.074000	24.458983	0.001016	20.781184
882.286117	-2.987300	3.676400	-10.981000	24.468926	0.001018	20.753226
883.281961	-3.031900	3.676100	-11.144000	24.489212	0.001016	20.774054
884.288075	-2.987000	3.676100	-10.979000	24.480355	0.001017	20.774177
885.288242	-3.007600	3.675200	-11.052000	24.535176	0.001016	20.757581
886.284120	-2.988600	3.676300	-10.986000	24.537601	0.001016	20.769024
887.294848	-2.977700	3.676500	-10.947000	24.541830	0.001015	20.750981
888.281257	-3.002900	3.675400	-11.035000	24.557971	0.001014	20.741571
889.281882	-3.012600	3.675600	-11.072000	24.583668	0.001016	20.756449
890.283182	-3.004400	3.674700	-11.040000	24.569442	0.001013	20.752607
891.285939	-3.012500	3.672900	-11.064000	24.593279	0.001013	20.731479
892.286047	-2.979400	3.673500	-10.943000	24.607781	0.001013	20.745083
893.280172	-2.989400	3.673700	-10.982000	24.616214	0.001011	20.761605
894.287814	-3.003300	3.673200	-11.030000	24.619178	0.001011	20.765054
895.286859	-2.995800	3.672800	-11.002000	24.580527	0.001013	20.762781
896.283450	-2.988600	3.673300	-10.978000	24.577594	0.001012	20.743242
897.290751	-3.004500	3.673700	-11.036000	24.553370	0.001010	20.742171
898.283511	-2.974600	3.673000	-10.925000	24.579270	0.001011	20.745398
899.294299	-3.011700	3.671800	-11.057000	24.580190	0.001009	20.752960
900.294190	-2.982100	3.673600	-10.953000	24.587138	0.001010	20.742862
901.296763	-2.976900	3.673700	-10.935000	24.560552	0.001010	20.758861
902.287077	-3.005700	3.670900	-11.033000	24.524699	0.001009	20.741853
903.302027	-2.997300	3.671700	-11.004000	24.527234	0.001008	20.750561
904.290007	-3.010800	3.671100	-11.052000	24.544547	0.001008	20.756079
905.291472	-3.011000	3.670500	-11.050000	24.547463	0.001008	20.749995
906.313323	-2.998700	3.669800	-11.003000	24.571043	0.001007	20.744256
907.298090	-3.006500	3.670100	-11.033000	24.541351	0.001007	20.739594
908.284000	-3.024400	3.669600	-11.097000	24.561696	0.001009	20.759534
909.306232	-2.987100	3.669200	-10.959000	24.517900	0.001008	20.742618
910.294828	-3.011300	3.668200	-11.044000	24.501464	0.001006	20.735611
911.307158	-3.001300	3.669000	-11.011000	24.531692	0.001005	20.742706
912.290156	-2.990100	3.668200	-10.967000	24.551688	0.001006	20.741905
913.287705	-3.019300	3.669000	-11.076000	24.570100	0.001006	20.756112
914.298848	-2.997500	3.667700	-10.993000	24.590525	0.001006	20.716387
915.288248	-3.023500	3.666600	-11.085000	24.605297	0.001005	20.752073
916.304785	-3.000800	3.668000	-11.006000	24.621339	0.001004	20.740668
917.290948	-2.979300	3.667700	-10.925000	24.646145	0.001004	20.746119
918.299356	-2.994300	3.666600	-10.978000	24.656639	0.001005	20.738631
919.296383	-3.007400	3.666700	-11.026000	24.669852	0.001004	20.727707
920.304261	-2.987900	3.667200	-10.956000	24.642802	0.001005	20.747506
921.303394	-3.005800	3.667100	-11.020000	24.644090	0.001004	20.719874
922.292894	-3.008500	3.665700	-11.027000	24.651339	0.001004	20.729993
923.301437	-2.983600	3.666500	-10.938000	24.648951	0.001002	20.739452
924.292902	-2.989100	3.665000	-10.954000	24.628534	0.001004	20.730818
925.298277	-2.999500	3.665400	-10.993000	24.612100	0.001002	20.742778
926.293544	-3.007500	3.665100	-11.021000	24.598550	0.001002	20.738665
927.288491	-3.001800	3.664300	-10.998000	24.579287	0.001002	20.722655
928.293135	-3.010000	3.665200	-11.032000	24.576175	0.001003	20.721903
929.314650	-2.990700	3.665200	-10.960000	24.561728	0.001003	20.715468
930.291630	-3.009700	3.665200	-11.030000	24.571554	0.001000	20.729121
931.302524	-2.996100	3.665800	-10.982000	24.559771	0.001000	20.715401
932.302353	-2.994000	3.664500	-10.970000	24.608746	0.000999	20.723764
933.298016	-3.010500	3.663400	-11.027000	24.612306	0.000999	20.727337
934.313962	-2.965800	3.664000	-10.866000	24.575411	0.000998	20.736310
935.306934	-3.013800	3.661900	-11.034000	24.606176	0.000998	20.730195
936.307816	-3.009100	3.661600	-11.018000	24.614063	0.000998	20.742376
937.312356	-3.019200	3.662100	-11.054000	24.608994	0.001000	20.709788
938.306783	-3.022500	3.661300	-11.066000	24.612137	0.000998	20.724796
939.297286	-2.976500	3.661800	-10.899000	24.622687	0.000997	20.709777
940.304189	-3.005300	3.661100	-11.002000	24.602588	0.000997	20.743665
941.315448	-3.003300	3.661000	-10.994000	24.612690	0.000996	20.728196
942.311484	-2.984500	3.661900	-10.927000	24.584557	0.000996	20.710873
943.309618	-3.029200	3.660500	-11.086000	24.585803	0.000996	20.706907
944.310854	-3.010500	3.660500	-11.019000	24.616925	0.000996	20.706840
945.315314	-3.000500	3.660100	-10.981000	24.605412	0.000995	20.720419
946.312958	-2.988200	3.659400	-10.934000	24.612655	0.000997	20.730057
947.309451	-2.978000	3.660100	-10.898000	24.588169	0.000994	20.708332
948.310647	-3.002100	3.659600	-10.985000	24.581522	0.000995	20.715888
949.308289	-3.007400	3.658600	-11.001000	24.577699	0.000993	20.697352
950.306071	-3.007800	3.658700	-11.003000	24.571801	0.000995	20.712772
951.309523	-3.002100	3.658100	-10.980000	24.595331	0.000992	20.710777
952.328011	-2.979000	3.658300	-10.897000	24.588152	0.000996	20.706892
953.307895	-3.021800	3.656500	-11.047000	24.609066	0.000993	20.720767
954.319683	-2.995600	3.658400	-10.957000	24.602206	0.000993	20.719098
955.314732	-3.022100	3.656800	-11.051000	24.598376	0.000993	20.704349
956.316591	-2.981100	3.658200	-10.905000	24.587857	0.000993	20.709916
957.310510	-2.975200	3.658200	-10.882000	24.632105	0.000991	20.705002
958.313095	-2.989600	3.658200	-10.935000	24.639893	0.000994	20.712818
959.315963	-2.985900	3.657700	-10.921000	24.662795	0.000991	20.704029
960.335434	-3.008900	3.656100	-11.000000	24.699179	0.000993	20.718255
961.318013	-2.989900	3.655500	-10.928000	24.713036	0.000991	20.696597
962.314404	-3.012100	3.655300	-11.010000	24.740066	0.000992	20.714714
963.314266	-2.995400	3.657000	-10.953000	24.771306	0.000991	20.707183
964.322975	-3.005800	3.653100	-10.979000	24.786100	0.000989	20.712547
965.318454	-3.000100	3.654300	-10.962000	24.766004	0.000990	20.714191
966.320973	-3.009300	3.653700	-10.994000	24.756806	0.000991	20.702589
967.330718	-3.010500	3.654400	-11.001000	24.721222	0.000991	20.701493
968.311639	-3.019800	3.654700	-11.035000	24.696008	0.000991	20.705115
969.316042	-3.007900	3.652900	-10.986000	24.703341	0.000987	20.694454
970.319656	-3.017000	3.653000	-11.020000	24.694093	0.000988	20.707461
971.321573	-2.981400	3.653900	-10.892000	24.707772	0.000987	20.712178
972.326462	-2.981100	3.653500	-10.890000	24.701132	0.000987	20.720215
973.318322	-2.995000	3.652200	-10.937000	24.730133	0.000986	20.693839
974.318791	-3.012400	3.652500	-11.002000	24.767589	0.000985	20.708669
975.323388	-2.992700	3.652000	-10.928000	24.769724	0.000985	20.712708
976.333450	-2.997300	3.652100	-10.946000	24.786218	0.000986	20.705553
977.315136	-2.994800	3.651200	-10.932000	24.796459	0.000985	20.698286
978.315531	-2.997100	3.651500	-10.943000	24.757877	0.000983	20.692283
979.314856	-2.977400	3.651200	-10.870000	24.756134	0.000984	20.696224
980.317397	-2.993700	3.650800	-10.929000	24.766283	0.000985	20.713049
981.339293	-2.971600	3.653500	-10.855000	24.775635	0.000984	20.712951
982.315290	-3.000400	3.650300	-10.951000	24.789539	0.000985	20.699877
983.326060	-2.994700	3.650300	-10.931000	24.808634	0.000984	20.687270
984.328310	-2.977500	3.651200	-10.871000	24.828036	0.000982	20.693466
985.326092	-2.986300	3.650100	-10.899000	24.831294	0.000982	20.682985
986.324189	-2.967100	3.650700	-10.830000	24.831994	0.000980	20.680368
987.325286	-2.984100	3.648400	-10.886000	24.820502	0.000982	20.696336
988.326819	-3.009200	3.648600	-10.978000	24.802677	0.000983	20.690302
989.322416	-3.000100	3.648000	-10.943000	24.770980	0.000981	20.711124
990.333564	-3.005800	3.648300	-10.964000	24.759388	0.000981	20.669142
991.327160	-2.993900	3.649300	-10.925000	24.774245	0.000982	20.701124
992.321722	-3.008000	3.648100	-10.972000	24.780853	0.000980	20.703962
993.322702	-3.000600	3.647900	-10.943000	24.793070	0.000981	20.701050
994.325144	-2.988900	3.647700	-10.901000	24.792223	0.000977	20.682654
995.320755	-2.979500	3.647400	-10.867000	24.799391	0.000978	20.694590
996.337827	-2.999300	3.645900	-10.935000	24.829002	0.000979	20.683529
997.319249	-2.978100	3.648300	-10.863000	24.839606	0.000979	20.696069
998.331103	-3.006800	3.645300	-10.959000	24.838017	0.000980	20.691155
999.326598	-3.000500	3.645100	-10.936000	24.816112	0.000977	20.676757
1000.326593	-2.989000	3.646500	-10.898000	24.785500	0.000978	20.678278
1001.333838	-2.997100	3.646000	-10.926000	24.766381	0.000979	20.687540
1002.326883	-3.005500	3.644500	-10.953000	24.775764	0.000977	20.692690
1003.326954	-3.014600	3.643800	-10.983000	24.793840	0.000976	20.692338
1004.334322	-2.989800	3.646600	-10.901000	24.805627	0.000976	20.682356
1005.327308	-2.997500	3.645200	-10.924000	24.811745	0.000976	20.685176
1006.333052	-3.005600	3.644300	-10.952000	24.809218	0.000974	20.677898
1007.327609	-3.007700	3.644000	-10.958000	24.818765	0.000975	20.669935
1008.322558	-2.998800	3.643100	-10.923000	24.859501	0.000974	20.671463
1009.334625	-3.011200	3.641700	-10.964000	24.832897	0.000975	20.676532
1010.331446	-3.023300	3.642500	-11.011000	24.846997	0.000973	20.680251
1011.333028	-2.980800	3.643400	-10.859000	24.853985	0.000975	20.665453
1012.333030	-2.978700	3.643100	-10.850000	24.819951	0.000973	20.667332
1013.330482	-3.026100	3.640900	-11.017000	24.842905	0.000973	20.665713
1014.334039	-3.009000	3.641700	-10.956000	24.844421	0.000972	20.680985
1015.326615	-3.003200	3.642100	-10.936000	24.861908	0.000972	20.671508
1016.341249	-2.990000	3.641000	-10.885000	24.866006	0.000972	20.676096
1017.330127	-2.988500	3.641600	-10.882000	24.874216	0.000971	20.663946
1018.335014	-3.022700	3.639500	-11.000000	24.898145	0.000970	20.675161
1019.328908	-3.014800	3.639600	-10.971000	24.903188	0.000971	20.681172
1020.331420	-2.988700	3.640400	-10.879000	24.920699	0.000969	20.672668
1021.339164	-3.005500	3.640300	-10.939000	24.885439	0.000968	20.665727
1022.332087	-2.975700	3.640400	-10.832000	24.924251	0.000969	20.670068
1023.331203	-2.998700	3.638800	-10.910000	24.911754	0.000968	20.672225
1024.335391	-3.018000	3.638000	-10.977000	24.900164	0.000970	20.660591
1025.331914	-2.999600	3.638500	-10.913000	24.876323	0.000968	20.666534
1026.332546	-3.003200	3.639600	-10.929000	24.877145	0.000967	20.689647
1027.340302	-3.003400	3.638900	-10.928000	24.883839	0.000967	20.670760
1028.327046	-3.000500	3.640100	-10.921000	24.875938	0.000967	20.661406
1029.341280	-2.998600	3.637900	-10.907000	24.839381	0.000967	20.665020
1030.329998	-3.009400	3.637300	-10.945000	24.835105	0.000966	20.659780
1031.344326	-2.990700	3.637600	-10.878000	24.866555	0.000964	20.671431
1032.348334	-3.018900	3.636700	-10.978000	24.869071	0.000966	20.660205
1033.338306	-2.990900	3.636900	-10.876000	24.866961	0.000963	20.663777
1034.334935	-2.986500	3.636900	-10.859000	24.913805	0.000964	20.650573
1035.335367	-3.017200	3.634500	-10.965000	24.891668	0.000963	20.655382
1036.343215	-3.008600	3.636400	-10.939000	24.890901	0.000963	20.682591
1037.335486	-3.001600	3.635800	-10.912000	24.871084	0.000963	20.664121
1038.345387	-2.989100	3.635500	-10.866000	24.859966	0.000963	20.666714
1039.335051	-3.000600	3.634600	-10.904000	24.851192	0.000964	20.678298
1040.333711	-3.058500	3.632400	-11.108000	24.852953	0.000962	20.673900
1041.330298	-3.015200	3.634400	-10.956000	24.848480	0.000960	20.677473
1042.339719	-3.003900	3.634500	-10.916000	24.878349	0.000960	20.662878
1043.340159	-3.028500	3.633900	-11.004000	24.888466	0.000960	20.661178
1044.346302	-3.008200	3.634900	-10.934000	24.896595	0.000961	20.657008
1045.346554	-2.975900	3.634300	-10.814000	24.909301	0.000960	20.683040
1046.336059	-2.992500	3.634500	-10.875000	24.898835	0.000959	20.673482
1047.340698	-3.000300	3.634400	-10.903000	24.898607	0.000961	20.652389
1048.346262	-2.973000	3.634000	-10.803000	24.919271	0.000959	20.664121
1049.349675	-2.995500	3.631500	-10.878000	24.893883	0.000958	20.667564
1050.343412	-2.982400	3.632400	-10.832000	24.908185	0.000957	20.671487
1051.331422	-2.988100	3.632100	-10.852000	24.913179	0.000957	20.676025
1052.343670	-3.008300	3.631800	-10.925000	24.920566	0.000956	20.672060
1053.356883	-2.997900	3.630900	-10.884000	24.898632	0.000957	20.653362
1054.345463	-2.991700	3.631000	-10.862000	24.886985	0.000958	20.664908
1055.361581	-2.998700	3.630500	-10.885000	24.871581	0.000955	20.633322
1056.348858	-2.997600	3.629100	-10.878000	24.917357	0.000956	20.679745
1057.339110	-2.977900	3.630600	-10.810000	24.901823	0.000956	20.661308
1058.338864	-3.008100	3.629700	-10.916000	24.931008	0.000954	20.673532
1059.331571	-3.020200	3.628400	-10.957000	24.923057	0.000954	20.673612
1060.348938	-3.007100	3.628800	-10.911000	24.952444	0.000955	20.674659
1061.338756	-3.029100	3.628000	-10.987000	24.976659	0.000953	20.670988
1062.347767	-2.993500	3.629600	-10.864000	24.985487	0.000951	20.666099
1063.341513	-3.008300	3.627800	-10.912000	24.997419	0.000955	20.670015
1064.333404	-3.002800	3.626800	-10.891000	24.957560	0.000953	20.660826
1065.341043	-3.015700	3.627900	-10.940000	24.921591	0.000951	20.679728
1066.342105	-3.001700	3.626400	-10.885000	24.923579	0.000952	20.657538
1067.345604	-3.002000	3.626900	-10.886000	24.918928	0.000951	20.663777
1068.357086	-3.009400	3.627100	-10.913000	24.941807	0.000949	20.683897
1069.337980	-3.022900	3.626500	-10.961000	24.948340	0.000952	20.679549
1070.342906	-3.026400	3.625900	-10.973000	24.946548	0.000951	20.677276
1071.337318	-3.005000	3.625500	-10.893000	24.961665	0.000951	20.666369
1072.352304	-2.980300	3.628000	-10.811000	24.962340	0.000950	20.665150
1073.346846	-2.993900	3.626600	-10.856000	24.973482	0.000949	20.664954
1074.344718	-2.985000	3.626300	-10.822000	24.968954	0.000950	20.687912
1075.341242	-3.020800	3.623800	-10.946000	24.982555	0.000950	20.677381
1076.341046	-3.003000	3.624900	-10.884000	24.959856	0.000949	20.675934
1077.355262	-3.001600	3.624300	-10.877000	24.910505	0.000950	20.670497
1078.343894	-2.988900	3.625500	-10.836000	24.877159	0.000947	20.692981
1079.351583	-3.022900	3.623400	-10.952000	24.858653	0.000947	20.679148
1080.347438	-2.981000	3.623300	-10.801000	24.833971	0.000946	20.672393
1081.358582	-2.984700	3.623100	-10.813000	24.843843	0.000947	20.663334
1082.355066	-3.008000	3.623300	-10.897000	24.844291	0.000945	20.668052
1083.363384	-2.989200	3.624000	-10.832000	24.862489	0.000944	20.693905
1084.337926	-2.994000	3.622600	-10.845000	24.861170	0.000945	20.683571
1085.340377	-3.011900	3.622100	-10.908000	24.906148	0.000944	20.664701
1086.344740	-2.981000	3.623800	-10.801000	24.912426	0.000945	20.681435
1087.348946	-3.010300	3.621100	-10.900000	24.932383	0.000944	20.694354
1088.349858	-3.001900	3.620700	-10.867000	24.917339	0.000944	20.684470
1089.307110	-3.010900	3.620400	-10.900000	24.928278	0.000943	20.676008
1090.306600	-3.016600	3.620000	-10.920000	24.920653	0.000943	20.678786
1091.311745	-3.009600	3.620000	-10.894000	24.943329	0.000943	20.680683
1092.307947	-3.010800	3.619200	-10.895000	24.949169	0.000942	20.689391
1093.347452	-3.002900	3.618600	-10.865000	24.913763	0.000941	20.667128
1094.347325	-3.016700	3.618500	-10.915000	24.915131	0.000942	20.682253
1095.347681	-3.001000	3.619000	-10.859000	24.930826	0.000940	20.672875
1096.353947	-2.996700	3.619100	-10.846000	24.921703	0.000941	20.682211
1097.349840	-3.024700	3.617500	-10.941000	24.940463	0.000940	20.699145
1098.353896	-3.009200	3.617900	-10.886000	24.955261	0.000939	20.679383
1099.335183	-3.000800	3.617600	-10.855000	24.983507	0.000941	20.686872
1100.332058	-3.002500	3.617000	-10.859000	24.976991	0.000939	20.671796
1101.334029	-3.006500	3.618300	-10.877000	24.988336	0.000939	20.686504
1102.333317	-2.988000	3.617400	-10.807000	24.956360	0.000936	20.681909
1103.336452	-3.015300	3.617100	-10.906000	24.956612	0.000936	20.678368
1104.344569	-3.011500	3.617100	-10.892000	24.990617	0.000938	20.696381
1105.337772	-2.986600	3.616200	-10.799000	24.997587	0.000936	20.690575
1106.331820	-3.002000	3.616800	-10.855000	25.016825	0.000937	20.688074
1107.333498	-2.990500	3.615100	-10.810000	25.036444	0.000936	20.680265
1108.334364	-3.017900	3.616000	-10.911000	25.037658	0.000935	20.687649
1109.337653	-2.997600	3.615800	-10.837000	25.048879	0.000934	20.678997
1110.345418	-3.015800	3.613500	-10.897000	25.054670	0.000933	20.703778
1111.328338	-2.990300	3.614000	-10.806000	25.049996	0.000932	20.695292
1112.333903	-3.000700	3.614300	-10.843000	25.026035	0.000933	20.692103
1113.343940	-3.010900	3.614500	-10.882000	25.038390	0.000932	20.705454
1114.332014	-2.993400	3.613600	-10.815000	25.036101	0.000931	20.701260
1115.313808	-2.983900	3.613000	-10.781000	25.050573	0.000930	20.703933
1116.337330	-3.006500	3.612300	-10.858000	25.060965	0.000933	20.694923
1117.328624	-2.978400	3.614800	-10.765000	25.045401	0.000929	20.693525
1118.349486	-2.969700	3.615100	-10.735000	25.041150	0.000930	20.705380
1119.361769	-2.989700	3.612200	-10.799000	25.034618	0.000929	20.704987
1120.360780	-2.991700	3.611900	-10.804000	25.013337	0.000930	20.706859
1121.369536	-3.006600	3.612200	-10.859000	25.028151	0.000929	20.724576
1122.360274	-2.966300	3.612900	-10.715000	25.051045	0.000928	20.720529
1123.345927	-2.990300	3.610600	-10.795000	25.058015	0.000928	20.703817
1124.360150	-2.986800	3.610900	-10.785000	25.090527	0.000929	20.718910
1125.371027	-2.993400	3.611200	-10.809000	25.073204	0.000926	20.706736
1126.352443	-2.994900	3.611400	-10.815000	25.033078	0.000928	20.714347
1127.361736	-2.992100	3.610700	-10.802000	25.003669	0.000927	20.719440
1128.349347	-3.000900	3.609900	-10.832000	24.991957	0.000925	20.719065
1129.350167	-3.009800	3.609700	-10.863000	24.989172	0.000926	20.716269
1130.353786	-2.989600	3.609500	-10.789000	24.925717	0.000925	20.698569
1131.359534	-3.010100	3.607500	-10.856000	24.947104	0.000925	20.709605
1132.370174	-3.013100	3.607400	-10.867000	24.967222	0.000925	20.716047
1133.363270	-3.008300	3.607800	-10.852000	24.965356	0.000924	20.692837
1134.358913	-2.998400	3.608200	-10.818000	24.961749	0.000924	20.697277
1135.356055	-2.998000	3.606400	-10.811000	24.969566	0.000924	20.728833
1136.359500	-2.994100	3.607400	-10.800000	24.963449	0.000923	20.723641
1137.365334	-2.987700	3.608200	-10.779000	24.927718	0.000922	20.704846
1138.363592	-2.987600	3.606500	-10.773000	24.929688	0.000923	20.707772
1139.369435	-2.997400	3.607200	-10.811000	24.953463	0.000923	20.715039
1140.358243	-2.980100	3.607900	-10.750000	24.968947	0.000920	20.716831
1141.357334	-2.995600	3.604700	-10.797000	24.955142	0.000921	20.726209
1142.355892	-3.003700	3.606100	-10.831000	24.951321	0.000920	20.699612
1143.357725	-2.966200	3.606400	-10.696000	24.965346	0.000920	20.712742
1144.359289	-2.992900	3.605100	-10.789000	24.978720	0.000920	20.719528
1145.355466	-3.000500	3.604100	-10.812000	24.977824	0.000919	20.728587
1146.359980	-2.997100	3.603700	-10.799000	25.003781	0.000919	20.708647
1147.369727	-2.981300	3.606000	-10.750000	24.984836	0.000918	20.727091
1148.361003	-3.002200	3.603700	-10.818000	24.975861	0.000917	20.733255
1149.362601	-2.991200	3.604900	-10.782000	24.945407	0.000918	20.722128
1150.357890	-2.996800	3.602700	-10.795000	24.989886	0.000918	20.707501
1151.360225	-3.001400	3.603600	-10.814000	24.988119	0.000916	20.716160
1152.355560	-2.997400	3.603200	-10.799000	24.990211	0.000919	20.719209
1153.365870	-3.009300	3.601900	-10.839000	25.025877	0.000917	20.723241
1154.357454	-2.988500	3.601600	-10.762000	25.044453	0.000916	20.717231
1155.358640	-3.005500	3.602800	-10.826000	25.083658	0.000915	20.748053
1156.360118	-2.993600	3.602500	-10.784000	25.098644	0.000915	20.727059
1157.360349	-2.997000	3.602800	-10.796000	25.123579	0.000914	20.717951
1158.364146	-2.995400	3.600800	-10.784000	25.107471	0.000914	20.717902
1159.359126	-3.004200	3.599900	-10.815000	25.102755	0.000914	20.702735
1160.367837	-3.002100	3.600500	-10.808000	25.094841	0.000913	20.727034
1161.362164	-3.016100	3.599500	-10.855000	25.125493	0.000915	20.726985
1162.358002	-3.001700	3.600400	-10.807000	25.123506	0.000913	20.729258
1163.359998	-2.990200	3.601400	-10.766000	25.157684	0.000911	20.712359
1164.360019	-3.003000	3.600200	-10.811000	25.142374	0.000911	20.747252
1165.363207	-3.000600	3.598400	-10.797000	25.140828	0.000910	20.730526
1166.361506	-3.019700	3.598600	-10.866000	25.103685	0.000911	20.743975
1167.366678	-3.015300	3.597100	-10.845000	25.092902	0.000910	20.744530
1168.367852	-3.007900	3.597300	-10.819000	25.069456	0.000909	20.744702
1169.363153	-2.984900	3.597700	-10.737000	25.070345	0.000908	20.746068
1170.363256	-2.988800	3.599200	-10.756000	25.085142	0.000908	20.749542
1171.371761	-2.997400	3.597600	-10.782000	25.048022	0.000907	20.733143
1172.355729	-2.986000	3.597300	-10.739000	25.035937	0.000907	20.731917
1173.360141	-2.982600	3.596500	-10.725000	25.032459	0.000905	20.750237
1174.367955	-3.008100	3.595700	-10.815000	25.066591	0.000906	20.723332
1175.382272	-2.978100	3.597200	-10.712000	25.065979	0.000904	20.726985
1176.364346	-3.010800	3.595700	-10.825000	25.130087	0.000904	20.751987
1177.368570	-2.988200	3.596000	-10.744000	25.137766	0.000906	20.743574
1178.375366	-2.992700	3.594900	-10.758000	25.147629	0.000903	20.743518
1179.372514	-3.008100	3.593700	-10.810000	25.166203	0.000904	20.751260
1180.362955	-3.005500	3.593800	-10.800000	25.172889	0.000903	20.754178
1181.357383	-3.011000	3.593300	-10.819000	25.210494	0.000903	20.751154
1182.357682	-2.992500	3.595000	-10.757000	25.223882	0.000903	20.741362
1183.359501	-3.020700	3.592900	-10.852000	25.222000	0.000903	20.739472
1184.362401	-2.961200	3.594800	-10.644000	25.231299	0.000901	20.759714
1185.368632	-2.974400	3.594300	-10.688000	25.224809	0.000901	20.739922
1186.371638	-3.016700	3.592800	-10.837000	25.208500	0.000901	20.755316
1187.369123	-2.997000	3.591200	-10.761000	25.224778	0.000902	20.747003
1188.366499	-2.999500	3.591100	-10.770000	25.219933	0.000901	20.735025
1189.372854	-3.000000	3.590800	-10.771000	25.239884	0.000901	20.750789
1190.370914	-3.009300	3.590600	-10.802000	25.209112	0.000900	20.759724
1191.372876	-2.976500	3.591400	-10.688000	25.229641	0.000897	20.747143
1192.376710	-3.004500	3.591200	-10.789000	25.194992	0.000898	20.758351
1193.378852	-2.999000	3.589800	-10.764000	25.166158	0.000899	20.732247
1194.374193	-2.983600	3.589600	-10.707000	25.183307	0.000897	20.769380
1195.366012	-2.990100	3.589800	-10.732000	25.173242	0.000896	20.775396
1196.378758	-3.002400	3.590300	-10.779000	25.141255	0.000896	20.777423
1197.377954	-3.011300	3.588700	-10.806000	25.159913	0.000894	20.760118
1198.369681	-2.997000	3.588600	-10.753000	25.150442	0.000896	20.766732
1199.368329	-3.018400	3.588200	-10.830000	25.156502	0.000894	20.760012
1200.377676	-2.994000	3.588100	-10.741000	25.177633	0.000897	20.766528
1201.376985	-3.016400	3.587700	-10.820000	25.159986	0.000896	20.768252
1202.377678	-3.021000	3.587100	-10.835000	25.185092	0.000893	20.769749
1203.375296	-3.028700	3.587100	-10.862000	25.201297	0.000894	20.755671
1204.367309	-3.003900	3.586900	-10.773000	25.192568	0.000893	20.778203
1205.375197	-3.003600	3.587800	-10.775000	25.210067	0.000890	20.779650
1206.374366	-3.004600	3.585500	-10.771000	25.211288	0.000891	20.758116
1207.380764	-2.991200	3.585700	-10.724000	25.216420	0.000889	20.767062
1208.386366	-2.995800	3.585900	-10.741000	25.265267	0.000889	20.778645
1209.380421	-2.993900	3.585400	-10.733000	25.219954	0.000890	20.780567
1210.371254	-3.013300	3.584900	-10.801000	25.243771	0.000891	20.759907
1211.377192	-3.001500	3.583900	-10.756000	25.214206	0.000889	20.768158
1212.368492	-2.979900	3.584900	-10.682000	25.258747	0.000888	20.752184
1213.373507	-3.003800	3.583700	-10.763000	25.256907	0.000887	20.772148
1214.374934	-2.986100	3.585600	-10.706000	25.271498	0.000890	20.776840
1215.371235	-3.012400	3.583000	-10.792000	25.241591	0.000888	20.791385
1216.372633	-2.995000	3.582600	-10.727000	25.234213	0.000886	20.756001
1217.377526	-3.003300	3.582500	-10.758000	25.228245	0.000885	20.772295
1218.381390	-2.963200	3.584200	-10.620000	25.199233	0.000885	20.775411
1219.369433	-2.988300	3.581600	-10.702000	25.219712	0.000885	20.772738
1220.377143	-2.995000	3.582600	-10.729000	25.233360	0.000884	20.777904
1221.392116	-3.006900	3.580300	-10.765000	25.221178	0.000885	20.791279
1222.367283	-3.020300	3.580300	-10.812000	25.232929	0.000883	20.779369
1223.386615	-2.992500	3.580800	-10.715000	25.199887	0.000883	20.772274
1224.379780	-2.966400	3.582400	-10.625000	25.177867	0.000883	20.779092
1225.381334	-2.997800	3.581500	-10.735000	25.199145	0.000881	20.810410
1226.373798	-3.006900	3.581200	-10.767000	25.201556	0.000882	20.783433
1227.397808	-2.990900	3.580200	-10.708000	25.243361	0.000882	20.786524
1228.376258	-3.017800	3.578900	-10.799000	25.232597	0.000880	20.792312
1229.376849	-2.985100	3.580700	-10.687000	25.268066	0.000879	20.778611
1230.380893	-2.979400	3.581100	-10.668000	25.253076	0.000879	20.808131
1231.373986	-3.023700	3.578500	-10.818000	25.249844	0.000880	20.781178
1232.377490	-3.012400	3.578100	-10.776000	25.280191	0.000879	20.793629
1233.389037	-3.002000	3.580200	-10.746000	25.254437	0.000878	20.795273
1234.385880	-3.000400	3.577100	-10.732000	25.245212	0.000878	20.792649
1235.382541	-2.989700	3.577800	-10.696000	25.253591	0.000877	20.808173
1236.378557	-3.000200	3.576400	-10.728000	25.236232	0.000877	20.787427
1237.389400	-3.013400	3.577500	-10.780000	25.231688	0.000876	20.788554
1238.378523	-3.009300	3.576500	-10.762000	25.252062	0.000878	20.810432
1239.370333	-2.986400	3.575500	-10.676000	25.251590	0.000876	20.806164
1240.385403	-2.973300	3.576600	-10.632000	25.258723	0.000876	20.796731
1241.382978	-3.017000	3.574700	-10.784000	25.259895	0.000875	20.798855
1242.389829	-2.948500	3.577100	-10.545000	25.245377	0.000874	20.778590
1243.391409	-2.986600	3.575300	-10.676000	25.223970	0.000873	20.819212
1244.396633	-3.012800	3.574200	-10.767000	25.202277	0.000872	20.796959
1245.388749	-2.997500	3.574500	-10.713000	25.209802	0.000873	20.812574
1246.386070	-3.009500	3.574000	-10.755000	25.199957	0.000871	20.813122
1247.392636	-2.998700	3.575200	-10.719000	25.201423	0.000872	20.824551
1248.392335	-2.996200	3.572300	-10.702000	25.213979	0.000871	20.813449
1249.382736	-3.020300	3.574000	-10.793000	25.197872	0.000872	20.802494
1250.391243	-3.002900	3.573800	-10.731000	25.187898	0.000871	20.808602
1251.386254	-3.001900	3.573600	-10.725000	25.197596	0.000871	20.829717
1252.387052	-3.001500	3.571500	-10.719000	25.204705	0.000870	20.803190
1253.379293	-2.979200	3.573500	-10.644000	25.237268	0.000870	20.826872
1254.393167	-3.009800	3.572200	-10.751000	25.255606	0.000867	20.798343
1255.381916	-3.021400	3.571800	-10.791000	25.270075	0.000870	20.809076
1256.386776	-3.004600	3.570800	-10.728000	25.288737	0.000867	20.809322
1257.384781	-3.021500	3.571800	-10.791000	25.305689	0.000866	20.841989
1258.389182	-2.994800	3.571700	-10.695000	25.331012	0.000866	20.812413
1259.381549	-2.990800	3.570300	-10.677000	25.328130	0.000866	20.805726
1260.384974	-2.999100	3.569900	-10.705000	25.338708	0.000866	20.822510
1261.381671	-2.994500	3.569000	-10.687000	25.315998	0.000865	20.835744
1262.389841	-2.997700	3.570000	-10.701000	25.334709	0.000865	20.827979
1263.386447	-2.987500	3.569300	-10.662000	25.339351	0.000862	20.826950
1264.385383	-2.982800	3.569500	-10.646000	25.310594	0.000863	20.812775
1265.387642	-3.003400	3.569300	-10.718000	25.303258	0.000862	20.816789
1266.385731	-3.017600	3.567000	-10.763000	25.319315	0.000861	20.833384
1267.390055	-2.983500	3.569300	-10.647000	25.302737	0.000862	20.822904
1268.384732	-3.009100	3.567800	-10.734000	25.277530	0.000861	20.847380
1269.379976	-2.997800	3.568100	-10.696000	25.330788	0.000861	20.831154
1270.395049	-3.019800	3.565400	-10.766000	25.282466	0.000861	20.817724
1271.392849	-2.979500	3.566400	-10.625000	25.271156	0.000859	20.837662
1272.386690	-3.006600	3.565900	-10.720000	25.267745	0.000860	20.842298
1273.385985	-3.011800	3.565500	-10.737000	25.275676	0.000859	20.837458
1274.404112	-2.995200	3.565300	-10.678000	25.296332	0.000860	20.855827
1275.393383	-2.985900	3.565500	-10.644000	25.301170	0.000859	20.825124
1276.393394	-2.987700	3.565300	-10.651000	25.335847	0.000858	20.830069
1277.399275	-3.014300	3.564300	-10.743000	25.359427	0.000856	20.830037
1278.396354	-2.999700	3.563700	-10.688000	25.369018	0.000857	20.841564
1279.392274	-3.003400	3.563200	-10.700000	25.383006	0.000857	20.829532
1280.396514	-3.002700	3.563100	-10.698000	25.378553	0.000857	20.833595
1281.391678	-3.018400	3.561900	-10.750000	25.408156	0.000857	20.841982
1282.404176	-3.016400	3.562400	-10.745000	25.391604	0.000855	20.846225
1283.403283	-2.995900	3.562600	-10.672000	25.370949	0.000854	20.858201
1284.405210	-3.007900	3.561500	-10.711000	25.375370	0.000854	20.841779
1285.406490	-3.013700	3.561600	-10.732000	25.383643	0.000853	20.833016
1286.395160	-2.997800	3.561800	-10.676000	25.384238	0.000852	20.853053
1287.398704	-2.989700	3.560400	-10.643000	25.379939	0.000852	20.844469
1288.406362	-3.009300	3.560700	-10.714000	25.368329	0.000854	20.841347
1289.408339	-2.989900	3.561700	-10.648000	25.370267	0.000852	20.841396
1290.403889	-3.006400	3.560700	-10.704000	25.350336	0.000852	20.849358
1291.401495	-3.018000	3.559600	-10.741000	25.381397	0.000851	20.835503
1292.409801	-3.016800	3.558200	-10.731000	25.382863	0.000851	20.869689
1293.403164	-3.011800	3.559700	-10.720000	25.399912	0.000849	20.847929
1294.403668	-3.003900	3.558200	-10.687000	25.414312	0.000849	20.865232
1295.405128	-2.996800	3.558800	-10.663000	25.394441	0.000846	20.861401
1296.408825	-3.014800	3.558600	-10.727000	25.396876	0.000848	20.851044
1297.409053	-2.989800	3.558500	-10.637000	25.409275	0.000849	20.855908
1298.404561	-3.002200	3.557800	-10.680000	25.373387	0.000848	20.825564
1299.405145	-3.008300	3.555900	-10.695000	25.391031	0.000847	20.863192
1300.406053	-3.005500	3.558500	-10.694000	25.370236	0.000846	20.851321
1301.407740	-3.006000	3.556700	-10.690000	25.316598	0.000846	20.834923
1302.412498	-2.996900	3.557100	-10.660000	25.297977	0.000845	20.829030
1303.400120	-3.000500	3.555400	-10.667000	25.310053	0.000846	20.854904
1304.408532	-3.000700	3.556900	-10.672000	25.315352	0.000844	20.839837
1305.412882	-3.005400	3.555100	-10.684000	25.334578	0.000843	20.834959
1306.411118	-2.991100	3.557100	-10.639000	25.367616	0.000843	20.847743
1307.404690	-2.981500	3.555500	-10.600000	25.397757	0.000842	20.842921
1308.404156	-2.994700	3.554500	-10.644000	25.390527	0.000842	20.839928
1309.425625	-2.996300	3.555500	-10.652000	25.395893	0.000842	20.821609
1310.410502	-3.005100	3.553600	-10.677000	25.417362	0.000842	20.822305
1311.410370	-3.003600	3.554200	-10.674000	25.436453	0.000841	20.833888
1312.398475	-2.995900	3.553600	-10.645000	25.441077	0.000842	20.848962
1313.413395	-2.998700	3.552500	-10.652000	25.445449	0.000838	20.821584
1314.410944	-2.969600	3.554400	-10.554000	25.416198	0.000839	20.820187
1315.408243	-3.033200	3.550900	-10.769000	25.399964	0.000838	20.816689
1316.412301	-3.013500	3.553000	-10.706000	25.374399	0.000838	20.823734
1317.411259	-2.980200	3.553200	-10.588000	25.375287	0.000836	20.824152
1318.410698	-3.003900	3.551900	-10.669000	25.355723	0.000837	20.839121
1319.411779	-3.026000	3.550700	-10.743000	25.394501	0.000836	20.824953
1320.406567	-2.993200	3.550500	-10.627000	25.398432	0.000836	20.823685
1321.373224	-3.027500	3.550400	-10.747000	25.402609	0.000836	20.825507
1322.389047	-2.991100	3.551200	-10.620000	25.403595	0.000833	20.835981
1323.371841	-3.009500	3.550000	-10.683000	25.404540	0.000835	20.816067
1324.372732	-3.032200	3.548900	-10.760000	25.378893	0.000833	20.812126
1325.372364	-3.013900	3.548300	-10.693000	25.386945	0.000834	20.830168
1326.372971	-3.004300	3.550800	-10.667000	25.383192	0.000833	20.817391
1327.378242	-2.975200	3.549500	-10.559000	25.421937	0.000833	20.829269
1328.377528	-2.994100	3.547800	-10.622000	25.426610	0.000832	20.812625
1329.379700	-3.004500	3.548600	-10.660000	25.385861	0.000832	20.793992
1330.415711	-2.991200	3.549100	-10.615000	25.354719	0.000832	20.828630
1331.438148	-2.998400	3.547400	-10.634000	25.328372	0.000831	20.813555
1332.408134	-3.009900	3.547500	-10.676000	25.338534	0.000829	20.821388
1333.408724	-3.004400	3.547400	-10.658000	25.329519	0.000830	20.804276
1334.419970	-3.001400	3.546900	-10.644000	25.352781	0.000829	20.807718
1335.422608	-2.987100	3.546400	-10.592000	25.371149	0.000830	20.797238
1336.415155	-2.976800	3.546900	-10.557000	25.402731	0.000827	20.808087
1337.401633	-2.989400	3.546900	-10.602000	25.425103	0.000828	20.799731
1338.402929	-2.990700	3.546500	-10.605000	25.423889	0.000825	20.812263
1339.397452	-2.997600	3.546300	-10.629000	25.430045	0.000826	20.816548
1340.409974	-3.003000	3.544400	-10.643000	25.424158	0.000827	20.806844
1341.399410	-2.989200	3.545200	-10.597000	25.421797	0.000825	20.807792
1342.396433	-2.980900	3.545200	-10.566000	25.405987	0.000826	20.790020
1343.397276	-2.999500	3.543300	-10.627000	25.381090	0.000824	20.785883
1344.406450	-2.985800	3.544500	-10.582000	25.370418	0.000823	20.787495
1345.400685	-3.001400	3.543200	-10.634000	25.372037	0.000823	20.795285
1346.410859	-3.007400	3.542700	-10.653000	25.421594	0.000823	20.808062
1347.400510	-2.988200	3.544100	-10.590000	25.436607	0.000823	20.800852
1348.409101	-2.998200	3.541700	-10.617000	25.463325	0.000824	20.810138
1349.399959	-2.981200	3.541800	-10.558000	25.478833	0.000823	20.781615
1350.395161	-3.009800	3.540700	-10.656000	25.475196	0.000820	20.795032
1351.399291	-3.014900	3.541800	-10.677000	25.475178	0.000821	20.799282
1352.397803	-3.024400	3.539600	-10.705000	25.438177	0.000820	20.791997
1353.417584	-2.984200	3.542200	-10.570000	25.413665	0.000820	20.806738
1354.413424	-3.003000	3.540800	-10.632000	25.354296	0.000822	20.799756
1355.408198	-2.997800	3.539500	-10.610000	25.326238	0.000819	20.777274
1356.405899	-2.981800	3.541300	-10.558000	25.342889	0.000819	20.785932
1357.403782	-2.998500	3.539300	-10.611000	25.333199	0.000820	20.791850
1358.400804	-2.984900	3.541400	-10.570000	25.361883	0.000819	20.790779
1359.418885	-2.998700	3.538900	-10.611000	25.398820	0.000816	20.792306
1360.403275	-2.980000	3.538500	-10.542000	25.415868	0.000816	20.811322
1361.418881	-3.020400	3.539200	-10.689000	25.418751	0.000816	20.786715
1362.411550	-3.008800	3.536800	-10.640000	25.444997	0.000816	20.792208
1363.424613	-2.994000	3.538200	-10.593000	25.424172	0.000815	20.788840
1364.429574	-2.995500	3.537800	-10.596000	25.378847	0.000816	20.774148
1365.426382	-3.016100	3.537100	-10.667000	25.399642	0.000813	20.795502
1366.421325	-3.005800	3.537100	-10.630000	25.393860	0.000811	20.763143
1367.427630	-2.987200	3.536400	-10.562000	25.403304	0.000812	20.768359
1368.418025	-2.982900	3.537200	-10.550000	25.424976	0.000812	20.773052
1369.414846	-3.011700	3.535600	-10.647000	25.400355	0.000812	20.774407
1370.409074	-3.011900	3.535400	-10.648000	25.352092	0.000810	20.771464
1371.400653	-2.999400	3.536400	-10.606000	25.339691	0.000811	20.777979
1372.424222	-3.009900	3.535300	-10.640000	25.316576	0.000810	20.774685
1373.426309	-3.017000	3.533800	-10.660000	25.326874	0.000809	20.773171
1374.405842	-2.989500	3.534900	-10.567000	25.323667	0.000809	20.773743
1375.421482	-3.028400	3.532600	-10.697000	25.335847	0.000810	20.762265
1376.421768	-3.003400	3.533400	-10.611000	25.345316	0.000811	20.767031
1377.444403	-2.981600	3.533900	-10.535000	25.338509	0.000808	20.772999
1378.440375	-3.014000	3.531700	-10.643000	25.330701	0.000809	20.769901
1379.446724	-3.007800	3.531900	-10.622000	25.376538	0.000806	20.785106
1380.423207	-2.994100	3.533900	-10.580000	25.345795	0.000807	20.766090
1381.403405	-2.991000	3.533100	-10.567000	25.357601	0.000807	20.756607
1382.436344	-2.998000	3.531600	-10.587000	25.347292	0.000805	20.784663
1383.420620	-3.009600	3.532000	-10.629000	25.337074	0.000806	20.772507
1384.431775	-2.994700	3.531500	-10.574000	25.348782	0.000806	20.780469
1385.437781	-2.998600	3.531700	-10.589000	25.381544	0.000804	20.771165
1386.404810	-2.995500	3.532600	-10.580000	25.378857	0.000802	20.774632
1387.409830	-3.003400	3.530600	-10.602000	25.398844	0.000804	20.773364
1388.419299	-3.005000	3.529400	-10.604000	25.378238	0.000803	20.771165
1389.407866	-2.996300	3.529300	-10.574000	25.372505	0.000802	20.779159
1390.409904	-2.980700	3.530400	-10.521000	25.388511	0.000801	20.753031
1391.410842	-2.995500	3.529900	-10.573000	25.424839	0.000801	20.764379
1392.422779	-2.997400	3.529500	-10.578000	25.428617	0.000799	20.769121
1393.434394	-2.986800	3.529900	-10.542000	25.476755	0.000799	20.764829
1394.421185	-2.995100	3.529300	-10.569000	25.465209	0.000799	20.756554
1395.440764	-3.003200	3.526500	-10.589000	25.506459	0.000797	20.768106
1396.427377	-2.997500	3.527900	-10.573000	25.507893	0.000798	20.749157
1397.437569	-2.998700	3.527400	-10.577000	25.530214	0.000798	20.747390
1398.433899	-2.988300	3.526800	-10.537000	25.511579	0.000797	20.754755
1399.430043	-2.976700	3.527000	-10.498000	25.517938	0.000797	20.767779
1400.448367	-2.996000	3.525800	-10.561000	25.500199	0.000796	20.749964
1401.436574	-2.984100	3.526200	-10.522000	25.490455	0.000795	20.758672
1402.433629	-2.999800	3.523900	-10.570000	25.481074	0.000796	20.742613
1403.431803	-2.985600	3.526300	-10.527000	25.471907	0.000794	20.736726
1404.429251	-2.985600	3.524700	-10.522000	25.454461	0.000795	20.743863
1405.439332	-2.997500	3.523900	-10.562000	25.462414	0.000793	20.764179
1406.430475	-2.986900	3.524800	-10.528000	25.429760	0.000793	20.757941
1407.431430	-3.011800	3.522800	-10.609000	25.404629	0.000793	20.763525
1408.451232	-2.990500	3.523100	-10.534000	25.367307	0.000794	20.745489
1409.435375	-2.968300	3.522300	-10.454000	25.389004	0.000791	20.744042
1410.424574	-3.007900	3.521500	-10.591000	25.419592	0.000792	20.761007
1411.448242	-2.999400	3.523000	-10.565000	25.438260	0.000790	20.763157
1412.427459	-2.981400	3.522700	-10.502000	25.434318	0.000789	20.748292
1413.416867	-2.985600	3.522500	-10.516000	25.451568	0.000792	20.739061
1414.427996	-3.013300	3.520000	-10.606000	25.441247	0.000792	20.758095
1415.435358	-3.003500	3.522000	-10.577000	25.430026	0.000788	20.747302
1416.439676	-2.991700	3.518800	-10.526000	25.432583	0.000789	20.754137
1417.436078	-2.991300	3.520000	-10.528000	25.432754	0.000788	20.757154
1418.429847	-2.998700	3.521700	-10.559000	25.401596	0.000786	20.749574
1419.431353	-2.995900	3.519500	-10.543000	25.393772	0.000788	20.767796
1420.441280	-3.003400	3.518200	-10.566000	25.380298	0.000787	20.751896
1421.430430	-2.983300	3.518700	-10.496000	25.382886	0.000787	20.756392
1422.445483	-3.001500	3.518000	-10.559000	25.397476	0.000786	20.749704
1423.431921	-3.001700	3.519400	-10.563000	25.387517	0.000785	20.717892
1424.443559	-3.008300	3.516900	-10.578000	25.361570	0.000784	20.738306
1425.424909	-3.000000	3.518400	-10.555000	25.386328	0.000785	20.752261
1426.418639	-2.973200	3.518200	-10.459000	25.414636	0.000784	20.738485
1427.426474	-3.001600	3.517900	-10.557000	25.427703	0.000784	20.724105
1428.430043	-3.001100	3.516600	-10.553000	25.456360	0.000784	20.741502
1429.414535	-3.023400	3.516800	-10.631000	25.468790	0.000783	20.738338
1430.420075	-3.009900	3.515300	-10.579000	25.462138	0.000783	20.713164
1431.438624	-3.012100	3.515800	-10.588000	25.491927	0.000782	20.728854
1432.437089	-3.022600	3.515500	-10.624000	25.462830	0.000779	20.748475
1433.433470	-2.991200	3.516900	-10.519000	25.509012	0.000780	20.755970
1434.436357	-2.983900	3.515000	-10.487000	25.515671	0.000778	20.726620
1435.431258	-2.991500	3.515400	-10.515000	25.494221	0.000779	20.737323
1436.432779	-2.990000	3.514500	-10.507000	25.477174	0.000778	20.739644
1437.436817	-2.988800	3.513200	-10.499000	25.445244	0.000779	20.728917
1438.443344	-3.003000	3.512700	-10.548000	25.454565	0.000777	20.734484
1439.445847	-2.993200	3.513000	-10.514000	25.467234	0.000777	20.734404
1440.445299	-2.994400	3.512500	-10.517000	25.465670	0.000776	20.726669
1441.451334	-2.983700	3.513800	-10.483000	25.519829	0.000775	20.735064
1442.436519	-3.016700	3.512000	-10.594000	25.500422	0.000774	20.730747
1443.453232	-2.988300	3.512400	-10.494000	25.512691	0.000773	20.713195
1444.441138	-2.995800	3.512000	-10.521000	25.516094	0.000774	20.714716
1445.446518	-3.029100	3.509600	-10.630000	25.517990	0.000772	20.735587
1446.449805	-3.013500	3.510800	-10.578000	25.537348	0.000775	20.729897
1447.449781	-2.982100	3.511700	-10.471000	25.496970	0.000773	20.726332
1448.441413	-2.991100	3.510700	-10.500000	25.456566	0.000772	20.729855
1449.440718	-2.985900	3.509000	-10.476000	25.448098	0.000773	20.727516
1450.458626	-2.988100	3.510500	-10.488000	25.408550	0.000770	20.724787
1451.418260	-3.008700	3.508600	-10.555000	25.402418	0.000771	20.711991
1452.424883	-2.990200	3.509600	-10.494000	25.354577	0.000770	20.734604
1453.435574	-2.999900	3.510000	-10.529000	25.361237	0.000770	20.722798
1454.425828	-3.003000	3.507600	-10.533000	25.389847	0.000770	20.726395
1455.423171	-3.010300	3.506900	-10.556000	25.398095	0.000769	20.738945
1456.423472	-3.009700	3.507100	-10.555000	25.391847	0.000769	20.738362
1457.423359	-2.992100	3.506700	-10.492000	25.424471	0.000769	20.711850
1458.425894	-3.005300	3.508100	-10.541000	25.450067	0.000769	20.740399
1459.457528	-2.995600	3.507700	-10.507000	25.460137	0.000767	20.718267
1460.448811	-3.011000	3.506500	-10.557000	25.459738	0.000767	20.709806
1461.450560	-2.983600	3.505300	-10.457000	25.452883	0.000768	20.712405
1462.450502	-3.019300	3.504700	-10.580000	25.464834	0.000765	20.722985
1463.451493	-3.005700	3.504500	-10.532000	25.476915	0.000766	20.718520
1464.432585	-2.999100	3.505600	-10.512000	25.464540	0.000765	20.723638
1465.425797	-2.968000	3.504600	-10.400000	25.469115	0.000763	20.717800
1466.430134	-2.995100	3.503700	-10.493000	25.521249	0.000763	20.704720
1467.441942	-2.999700	3.502800	-10.506000	25.501621	0.000765	20.740961
1468.432407	-3.003300	3.503000	-10.520000	25.510487	0.000764	20.717621
1469.451251	-2.997400	3.501800	-10.494000	25.500278	0.000764	20.696462
1470.444651	-2.971200	3.503200	-10.407000	25.525247	0.000763	20.718218
1471.453241	-3.002000	3.502100	-10.512000	25.478908	0.000763	20.706297
1472.445149	-2.991800	3.502000	-10.476000	25.463351	0.000761	20.711063
1473.459034	-3.004000	3.500000	-10.513000	25.451473	0.000760	20.714309
1474.443556	-2.986200	3.502200	-10.457000	25.412827	0.000762	20.701105
1475.454373	-2.990700	3.501500	-10.471000	25.384551	0.000760	20.719181
1476.448915	-3.014200	3.499900	-10.549000	25.407640	0.000758	20.716286
1477.439595	-2.998300	3.499800	-10.492000	25.407853	0.000760	20.709388
1478.432273	-2.995500	3.500400	-10.484000	25.387825	0.000759	20.702552
1479.436914	-3.009800	3.498700	-10.529000	25.401470	0.000757	20.697761
1480.437277	-2.985900	3.498300	-10.444000	25.373022	0.000758	20.687687
1481.432564	-3.001500	3.498500	-10.500000	25.385422	0.000758	20.716262
1482.432751	-2.992600	3.499000	-10.470000	25.413030	0.000757	20.698464
1483.434944	-2.995700	3.498400	-10.479000	25.443453	0.000759	20.695822
1484.434993	-2.981000	3.499000	-10.429000	25.451082	0.000757	20.707277
1485.428787	-3.006300	3.497200	-10.511000	25.477824	0.000756	20.701888
1486.437363	-3.002300	3.496700	-10.497000	25.483686	0.000757	20.696395
1487.439117	-2.992500	3.496500	-10.463000	25.488709	0.000754	20.700965
1488.453273	-3.005900	3.497500	-10.512000	25.471000	0.000753	20.695984
1489.440023	-2.997700	3.495800	-10.478000	25.476114	0.000752	20.693532
1490.437055	-3.000900	3.495000	-10.486000	25.480307	0.000754	20.701537
1491.434929	-3.009200	3.495000	-10.516000	25.465327	0.000752	20.690287
1492.437215	-3.008100	3.494100	-10.508000	25.447115	0.000753	20.695706
1493.432182	-3.006500	3.491600	-10.496000	25.417637	0.000753	20.705935
1494.437916	-2.992400	3.494200	-10.455000	25.428308	0.000753	20.700055
1495.431718	-2.992200	3.494100	-10.454000	25.440798	0.000750	20.694105
1496.441094	-3.000300	3.492900	-10.478000	25.441897	0.000752	20.707062
1497.436631	-2.988700	3.493000	-10.439000	25.450225	0.000750	20.693613
1498.432652	-3.004100	3.492700	-10.492000	25.404356	0.000749	20.696391
1499.438665	-2.989000	3.491800	-10.436000	25.416251	0.000750	20.711657
1500.442038	-3.019700	3.491600	-10.543000	25.417220	0.000749	20.678962
1501.441486	-2.998000	3.491900	-10.467000	25.449042	0.000748	20.700961
1502.445862	-2.996900	3.491200	-10.463000	25.462662	0.000749	20.671961
1503.440557	-3.002400	3.489300	-10.475000	25.481224	0.000747	20.681119
1504.448730	-3.027800	3.487900	-10.558000	25.516342	0.000747	20.678453
1505.458488	-3.012800	3.489900	-10.513000	25.513208	0.000747	20.707076
1506.453375	-2.999000	3.489900	-10.465000	25.508658	0.000746	20.676900
1507.444663	-2.991200	3.490200	-10.439000	25.516636	0.000744	20.678273
1508.445298	-3.002400	3.489300	-10.475000	25.537092	0.000745	20.697870
1509.444263	-2.993300	3.488100	-10.440000	25.511026	0.000745	20.705833
1510.472556	-2.992600	3.488400	-10.438000	25.528926	0.000743	20.711007
1511.470666	-3.007500	3.488600	-10.491000	25.532476	0.000743	20.694182
1512.482891	-3.013800	3.486600	-10.506000	25.517440	0.000743	20.689040
1513.481370	-3.010700	3.486800	-10.496000	25.520574	0.000743	20.676538
1514.449234	-2.982700	3.487000	-10.400000	25.510610	0.000743	20.700673
1515.464428	-2.988300	3.486700	-10.419000	25.552362	0.000742	20.696609
1516.475453	-2.992000	3.487300	-10.434000	25.564385	0.000742	20.693985
1517.456473	-2.981400	3.487300	-10.396000	25.568040	0.000740	20.700501
1518.448293	-2.998100	3.485100	-10.448000	25.570285	0.000743	20.696592
1519.468318	-3.002800	3.484500	-10.461000	25.573111	0.000743	20.686152
1520.466248	-3.000200	3.483800	-10.451000	25.547193	0.000739	20.689047
1521.448861	-2.999000	3.484800	-10.450000	25.507759	0.000741	20.688327
1522.450829	-2.980000	3.485300	-10.384000	25.474627	0.000739	20.697255
1523.461566	-3.001700	3.484800	-10.459000	25.481441	0.000737	20.701727
1524.455756	-2.999000	3.483000	-10.444000	25.466135	0.000738	20.707221
1525.445923	-2.974600	3.484600	-10.363000	25.465509	0.000737	20.679563
1526.446738	-2.999000	3.483200	-10.443000	25.488352	0.000738	20.702977
1527.461610	-2.988900	3.483600	-10.411000	25.516552	0.000738	20.684828
1528.449475	-2.994100	3.482900	-10.427000	25.542268	0.000738	20.706862
1529.458338	-2.998600	3.482100	-10.441000	25.546493	0.000737	20.698302
1530.442337	-3.009200	3.481100	-10.473000	25.529643	0.000735	20.703192
1531.461675	-3.009600	3.479100	-10.469000	25.522456	0.000736	20.675109
1532.444032	-2.968600	3.481800	-10.334000	25.525442	0.000736	20.686644
1533.451677	-3.030100	3.480800	-10.547000	25.507028	0.000736	20.681428
1534.456657	-2.999900	3.480400	-10.440000	25.514901	0.000734	20.689809
1535.450735	-3.002700	3.480400	-10.449000	25.513233	0.000732	20.689556
1536.449720	-3.002400	3.480100	-10.448000	25.516937	0.000733	20.657236
1537.449087	-2.982400	3.478400	-10.373000	25.477177	0.000735	20.681797
1538.456915	-3.007600	3.477700	-10.459000	25.497498	0.000733	20.696040
1539.477206	-3.006600	3.477600	-10.455000	25.511281	0.000733	20.700399
1540.469423	-3.022700	3.476700	-10.508000	25.494259	0.000730	20.688994
1541.448121	-3.001600	3.477800	-10.438000	25.482235	0.000730	20.712956
1542.477041	-2.986500	3.477300	-10.383000	25.453873	0.000731	20.700122
1543.453484	-3.003700	3.475500	-10.438000	25.475323	0.000729	20.703171
1544.456419	-3.004800	3.476900	-10.447000	25.470423	0.000730	20.691611
1545.463166	-3.011200	3.475100	-10.462000	25.463463	0.000728	20.713547
1546.469844	-3.018500	3.475300	-10.489000	25.498575	0.000730	20.681473
1547.487930	-3.010900	3.476000	-10.464000	25.477002	0.000729	20.680198
1548.483159	-2.993800	3.474400	-10.400000	25.504167	0.000728	20.716016
1549.458804	-2.997800	3.475200	-10.416000	25.538071	0.000728	20.690792
1550.473505	-3.040900	3.472500	-10.558000	25.552578	0.000726	20.688291
1551.471513	-2.985600	3.472500	-10.367000	25.537064	0.000726	20.706852
1552.485297	-2.967800	3.474400	-10.310000	25.560223	0.000727	20.684115
1553.483562	-3.038200	3.472000	-10.547000	25.572230	0.000727	20.706606
1554.470514	-3.000800	3.472600	-10.419000	25.549217	0.000724	20.702461
1555.485119	-2.986300	3.472000	-10.368000	25.500187	0.000726	20.688309
1556.492070	-3.028500	3.472000	-10.513000	25.498519	0.000725	20.691375
1557.479631	-2.977000	3.472200	-10.334000	25.488303	0.000726	20.680167
1558.485626	-3.015700	3.470300	-10.465000	25.501156	0.000724	20.674582
1559.467014	-3.011300	3.470700	-10.450000	25.523788	0.000724	20.665066
1560.465492	-3.019200	3.470100	-10.476000	25.515639	0.000723	20.700508
1561.475192	-2.993100	3.470900	-10.387000	25.524862	0.000722	20.713090
1562.479626	-2.998000	3.470000	-10.401000	25.573485	0.000722	20.698857
1563.479639	-3.006400	3.469700	-10.430000	25.588145	0.000721	20.716427
1564.468783	-3.012100	3.468100	-10.445000	25.582424	0.000722	20.716845
1565.441348	-2.985500	3.468300	-10.353000	25.578427	0.000721	20.714727
1566.438959	-3.011000	3.468600	-10.443000	25.567211	0.000721	20.711998
1567.439555	-2.993200	3.470100	-10.386000	25.575342	0.000719	20.692187
1568.439063	-3.024200	3.467800	-10.486000	25.561552	0.000720	20.700150
1569.445110	-3.001400	3.468000	-10.408000	25.570775	0.000720	20.718422
1570.441740	-2.986600	3.467000	-10.353000	25.548007	0.000717	20.702668
1571.442836	-3.025200	3.466300	-10.485000	25.553103	0.000719	20.705889
1572.440749	-3.006800	3.466600	-10.423000	25.564557	0.000716	20.720712
1573.441559	-3.001700	3.466200	-10.404000	25.584005	0.000717	20.705629
1574.441145	-3.014200	3.465500	-10.444000	25.568407	0.000716	20.709405
1575.456387	-3.018400	3.464800	-10.456000	25.554568	0.000717	20.702145
1576.438628	-3.035000	3.464100	-10.513000	25.564508	0.000716	20.707860
1577.439438	-3.005000	3.463400	-10.406000	25.579885	0.000716	20.734210
1578.448732	-3.001700	3.464300	-10.398000	25.593626	0.000714	20.710076
1579.445545	-2.992300	3.463500	-10.363000	25.581609	0.000713	20.725510
1580.452443	-2.981500	3.463900	-10.326000	25.595643	0.000714	20.731070
1581.442121	-3.000900	3.462400	-10.390000	25.621333	0.000712	20.723206
1582.448271	-2.987600	3.462500	-10.343000	25.578997	0.000713	20.705341
1583.466679	-2.973800	3.462100	-10.294000	25.574097	0.000712	20.720336
1584.482951	-3.005800	3.461700	-10.403000	25.585680	0.000712	20.696880
1585.466386	-3.001300	3.462200	-10.390000	25.584662	0.000713	20.710083
1586.459224	-3.030000	3.459400	-10.480000	25.601683	0.000711	20.740455
1587.466714	-2.994500	3.462300	-10.367000	25.589034	0.000710	20.717793
1588.474724	-2.992800	3.461100	-10.357000	25.611923	0.000710	20.723237
1589.469479	-3.001200	3.458900	-10.380000	25.625117	0.000713	20.714678
1590.484650	-2.980800	3.459900	-10.312000	25.638158	0.000711	20.730621
1591.478068	-2.983500	3.459500	-10.321000	25.668151	0.000710	20.711432
1592.470370	-2.992200	3.459100	-10.349000	25.646558	0.000710	20.718668
1593.474172	-2.990300	3.458500	-10.341000	25.676943	0.000709	20.711253
1594.466527	-3.022000	3.457000	-10.446000	25.681915	0.000706	20.742328
1595.469469	-2.998900	3.458300	-10.370000	25.686888	0.000705	20.720294
1596.469575	-3.005900	3.456100	-10.388000	25.697990	0.000705	20.719592
1597.464159	-2.990600	3.457500	-10.340000	25.705666	0.000705	20.739630
1598.491374	-3.003100	3.455900	-10.378000	25.714863	0.000709	20.738910
1599.450940	-2.995000	3.455900	-10.349000	25.670267	0.000707	20.703125
1600.451405	-2.989100	3.455300	-10.327000	25.650716	0.000705	20.747976
1601.451596	-2.980700	3.455900	-10.300000	25.602285	0.000704	20.747224
1602.456254	-2.996100	3.455300	-10.351000	25.617962	0.000705	20.727407
1603.451567	-3.009700	3.453600	-10.393000	25.569733	0.000705	20.730652
1604.451846	-3.016800	3.453000	-10.416000	25.567592	0.000705	20.756005
1605.451656	-2.998800	3.454100	-10.357000	25.556936	0.000703	20.725387
1606.451445	-2.985200	3.454200	-10.310000	25.605915	0.000703	20.730480
1607.455452	-2.999000	3.453900	-10.358000	25.629992	0.000702	20.738541
1608.472016	-3.024200	3.451300	-10.435000	25.632118	0.000701	20.720287
1609.470247	-3.019800	3.453000	-10.426000	25.638840	0.000701	20.742686
1610.471490	-3.004900	3.453200	-10.375000	25.687360	0.000703	20.731674
1611.466250	-2.980600	3.453600	-10.291000	25.688948	0.000701	20.751288
1612.476897	-2.999200	3.451100	-10.350000	25.699788	0.000701	20.737045
1613.481394	-2.982900	3.452700	-10.299000	25.713128	0.000704	20.731004
1614.476645	-3.006900	3.451000	-10.375000	25.715163	0.000700	20.737790
1615.469953	-3.013200	3.450800	-10.397000	25.677201	0.000699	20.750870
1616.470643	-3.013200	3.449900	-10.394000	25.669764	0.000698	20.718742
1617.470905	-2.980800	3.451700	-10.287000	25.636717	0.000698	20.742925
1618.475082	-2.999200	3.448500	-10.342000	25.588177	0.000699	20.737797
1619.470016	-2.981900	3.449600	-10.285000	25.556132	0.000698	20.740227
1620.482402	-3.010600	3.448700	-10.382000	25.518140	0.000697	20.731945
1621.479843	-3.005100	3.448300	-10.362000	25.494116	0.000696	20.742907
1622.475815	-3.016100	3.446600	-10.394000	25.508029	0.000696	20.762095
1623.477146	-2.965700	3.447900	-10.224000	25.530342	0.000697	20.750364
1624.473620	-2.996200	3.447400	-10.328000	25.550018	0.000694	20.755425
1625.479537	-3.018500	3.446300	-10.401000	25.563539	0.000696	20.740554
1626.491366	-2.989400	3.447600	-10.305000	25.548798	0.000694	20.757519
1627.474662	-2.988000	3.445800	-10.295000	25.569131	0.000693	20.747119
1628.473035	-3.001500	3.445900	-10.342000	25.556083	0.000694	20.760567
1629.476111	-3.006500	3.446600	-10.360000	25.574276	0.000695	20.748018
1630.480020	-3.008300	3.444600	-10.362000	25.563434	0.000693	20.735707
1631.475249	-2.998500	3.445500	-10.329000	25.567162	0.000691	20.756047
1632.484311	-2.978100	3.446100	-10.262000	25.572485	0.000692	20.748116
1633.480131	-2.992100	3.443100	-10.301000	25.522610	0.000692	20.768203
1634.486535	-3.000500	3.443400	-10.331000	25.559013	0.000691	20.754027
1635.475559	-3.000900	3.443500	-10.333000	25.582344	0.000691	20.755647
1636.485788	-3.006600	3.443700	-10.353000	25.594171	0.000692	20.769896
1637.457260	-2.993300	3.441100	-10.299000	25.619609	0.000689	20.722423
1638.478979	-3.015200	3.441700	-10.376000	25.642442	0.000691	20.756735
1639.480759	-3.028100	3.441900	-10.422000	25.691165	0.000688	20.744031
1640.479743	-3.020500	3.441300	-10.394000	25.669155	0.000689	20.753220
1641.484776	-3.020600	3.439700	-10.389000	25.637665	0.000690	20.755731
1642.480550	-3.014500	3.440400	-10.370000	25.619847	0.000689	20.767708
1643.489483	-2.990600	3.441100	-10.290000	25.621564	0.000687	20.766588
1644.465876	-3.014400	3.439800	-10.368000	25.645820	0.000688	20.747800
1645.485317	-3.041000	3.439400	-10.459000	25.646145	0.000686	20.763300
1646.481911	-3.000000	3.439400	-10.317000	25.662612	0.000687	20.757080
1647.482782	-3.002700	3.438600	-10.324000	25.687626	0.000684	20.747589
1648.480906	-2.988400	3.439700	-10.278000	25.651803	0.000685	20.756655
1649.485338	-3.030100	3.436000	-10.409000	25.630723	0.000685	20.788115
1650.485825	-3.006200	3.437500	-10.332000	25.630723	0.000684	20.759191
1651.492396	-3.007700	3.437600	-10.338000	25.621484	0.000683	20.748014
1652.489511	-2.977300	3.438000	-10.234000	25.644641	0.000683	20.765109
1653.488334	-2.988200	3.438000	-10.272000	25.642298	0.000683	20.781722
1654.504428	-3.008700	3.436100	-10.338000	25.667473	0.000685	20.765281
1655.490709	-2.986000	3.436900	-10.262000	25.692014	0.000683	20.764326
1656.491499	-2.988300	3.435600	-10.265000	25.711051	0.000684	20.747884
1657.483140	-3.012400	3.435100	-10.347000	25.693861	0.000681	20.789414
1658.484471	-3.024900	3.434500	-10.387000	25.689018	0.000683	20.776015
1659.484707	-3.024200	3.433100	-10.382000	25.704988	0.000682	20.769296
1660.516158	-2.999400	3.435600	-10.304000	25.713558	0.000678	20.775534
1661.512835	-2.985500	3.435500	-10.256000	25.695571	0.000680	20.768846
1662.504007	-3.012700	3.432300	-10.339000	25.677796	0.000681	20.776598
1663.499212	-2.986900	3.434400	-10.257000	25.679083	0.000680	20.775520
1664.518903	-2.985700	3.433500	-10.250000	25.644155	0.000678	20.753241
1665.502559	-3.015600	3.432700	-10.350000	25.623505	0.000677	20.776598
1666.508978	-2.997200	3.432900	-10.288000	25.632248	0.000677	20.761196
1667.522062	-3.014900	3.429900	-10.339000	25.618459	0.000678	20.772952
1668.517694	-2.991000	3.432400	-10.266000	25.617858	0.000676	20.774719
1669.517083	-3.010900	3.430800	-10.328000	25.611273	0.000675	20.797977
1670.515693	-2.966100	3.432200	-10.178000	25.634706	0.000675	20.775994
1671.517766	-2.995300	3.429900	-10.272000	25.654577	0.000675	20.775562
1672.507274	-2.985300	3.431800	-10.244000	25.627128	0.000675	20.781659
1673.509634	-2.988800	3.430200	-10.251000	25.626202	0.000675	20.783099
1674.515467	-3.015700	3.429300	-10.341000	25.661161	0.000674	20.790710
1675.491545	-3.010000	3.429000	-10.321000	25.705813	0.000674	20.789091
1676.496568	-2.994000	3.428300	-10.263000	25.712870	0.000673	20.788118
1677.492736	-2.985600	3.428900	-10.236000	25.711251	0.000673	20.776061
1678.480342	-2.991200	3.429200	-10.256000	25.736686	0.000673	20.794497
1679.474204	-2.991000	3.428300	-10.253000	25.714482	0.000672	20.792582
1680.480646	-2.989400	3.428700	-10.248000	25.678720	0.000670	20.778948
1681.476529	-2.983800	3.428500	-10.228000	25.681055	0.000671	20.788406
1682.498518	-3.007000	3.426300	-10.302000	25.665526	0.000669	20.793197
1683.516364	-2.998800	3.427300	-10.277000	25.663490	0.000669	20.788308
1684.510670	-2.986900	3.427300	-10.235000	25.682723	0.000671	20.771589
1685.513931	-2.983900	3.426800	-10.224000	25.676880	0.000670	20.777100
1686.519609	-2.991700	3.425400	-10.246000	25.668530	0.000669	20.792895
1687.528678	-2.990000	3.426100	-10.243000	25.700134	0.000670	20.795241
1688.499472	-2.997900	3.426300	-10.271000	25.702114	0.000668	20.792488
1689.486519	-3.013800	3.423900	-10.318000	25.714762	0.000668	20.803769
1690.487808	-2.995200	3.424700	-10.255000	25.678241	0.000669	20.804545
1691.478905	-3.019000	3.423900	-10.335000	25.671429	0.000667	20.796755
1692.477228	-2.998000	3.424800	-10.267000	25.697222	0.000668	20.794212
1693.484589	-3.018200	3.423800	-10.333000	25.695879	0.000667	20.823209
1694.481588	-3.001800	3.423600	-10.275000	25.726766	0.000667	20.792593
1695.483126	-3.015500	3.422300	-10.318000	25.723731	0.000665	20.791441
1696.481653	-2.991800	3.423300	-10.241000	25.749467	0.000667	20.799273
1697.480068	-3.011100	3.421300	-10.301000	25.759264	0.000665	20.819072
1698.480315	-3.000200	3.420800	-10.261000	25.771450	0.000663	20.811398
1699.485048	-3.017400	3.420000	-10.319000	25.751005	0.000665	20.799871
1700.482174	-3.015800	3.420100	-10.313000	25.769723	0.000665	20.817723
1701.482879	-3.014100	3.419400	-10.305000	25.736819	0.000664	20.815967
1702.483543	-3.009400	3.420100	-10.291000	25.726385	0.000662	20.814970
1703.488889	-2.992600	3.420000	-10.234000	25.746487	0.000662	20.800548
1704.487884	-3.004700	3.420800	-10.278000	25.724245	0.000662	20.804285
1705.485070	-2.995200	3.419800	-10.242000	25.699281	0.000660	20.805764
1706.483335	-3.002600	3.419600	-10.266000	25.695001	0.000660	20.804784
1707.506687	-2.998000	3.418700	-10.247000	25.678209	0.000661	20.823480
1708.504331	-2.999600	3.419100	-10.255000	25.668890	0.000660	20.824077
1709.510534	-3.008400	3.417500	-10.280000	25.662980	0.000659	20.817193
1710.506262	-3.009600	3.416600	-10.281000	25.663078	0.000659	20.809705
1711.518488	-3.021500	3.415200	-10.317000	25.655248	0.000658	20.809427
1712.513694	-3.014200	3.415600	-10.295000	25.622974	0.000658	20.819686
1713.508429	-2.993600	3.416800	-10.227000	25.617211	0.000659	20.811053
1714.508496	-3.011600	3.415900	-10.286000	25.608909	0.000657	20.811250
1715.509668	-3.022900	3.414600	-10.321000	25.620313	0.000656	20.798996
1716.507933	-3.005800	3.415800	-10.265000	25.647565	0.000656	20.822574
1717.501467	-2.982600	3.414400	-10.182000	25.673408	0.000656	20.811545
1718.510345	-2.991300	3.414500	-10.213000	25.702180	0.000655	20.812943
1719.505153	-2.984800	3.415500	-10.193000	25.682573	0.000654	20.793250
1720.502689	-3.033300	3.412800	-10.351000	25.677608	0.000655	20.834255
1721.488690	-3.004400	3.413900	-10.256000	25.671243	0.000654	20.825492
1722.491005	-2.999600	3.414300	-10.240000	25.652059	0.000652	20.825190
1723.487924	-2.977700	3.413500	-10.163000	25.647639	0.000651	20.827863
1724.490061	-2.982400	3.413600	-10.179000	25.659336	0.000653	20.813533
1725.491614	-2.996600	3.411900	-10.223000	25.659385	0.000652	20.843927
1726.492289	-3.003400	3.412200	-10.248000	25.651881	0.000651	20.828804
1727.542651	-3.009400	3.412300	-10.268000	25.669072	0.000651	20.837061
1728.541280	-2.989100	3.411300	-10.195000	25.658833	0.000648	20.826778
1729.527972	-3.018500	3.410500	-10.293000	25.688801	0.000649	20.834118
1730.520925	-3.000000	3.409700	-10.228000	25.697512	0.000651	20.842393
1731.532771	-2.984600	3.411400	-10.181000	25.692693	0.000648	20.844191
1732.528225	-3.005900	3.409500	-10.248000	25.703348	0.000649	20.836875
1733.531918	-2.980200	3.410200	-10.161000	25.715126	0.000649	20.834006
1734.511942	-3.016900	3.407200	-10.278000	25.753135	0.000649	20.841838
1735.513309	-3.007300	3.410300	-10.254000	25.749911	0.000647	20.829117
1736.515945	-3.017300	3.407500	-10.280000	25.767443	0.000647	20.836296
1737.505984	-2.991800	3.408500	-10.197000	25.803287	0.000645	20.856652
1738.515542	-3.012300	3.408700	-10.266000	25.825902	0.000648	20.854239
1739.508382	-2.985000	3.407500	-10.170000	25.827563	0.000646	20.847373
1740.512338	-3.000100	3.407400	-10.222000	25.836604	0.000647	20.832274
1741.511646	-2.999900	3.407300	-10.221000	25.847681	0.000645	20.829651
1742.539837	-2.966500	3.407000	-10.106000	25.890210	0.000644	20.840605
1743.522087	-3.001700	3.404900	-10.218000	25.879109	0.000645	20.847946
1744.517490	-2.996800	3.406100	-10.207000	25.893514	0.000646	20.845347
1745.513070	-3.031900	3.405100	-10.321000	25.898779	0.000643	20.854903
1746.496140	-2.977400	3.406400	-10.141000	25.893905	0.000641	20.851904
1747.499324	-2.994600	3.404800	-10.195000	25.854258	0.000643	20.854749
1748.493469	-2.978100	3.404800	-10.138000	25.842936	0.000642	20.842902
1749.505475	-2.988400	3.403400	-10.169000	25.844573	0.000641	20.843124
1750.495639	-2.995800	3.404500	-10.198000	25.832007	0.000641	20.841406
1751.496715	-3.005200	3.402800	-10.225000	25.848373	0.000639	20.841726
1752.497115	-3.007700	3.401300	-10.229000	25.833220	0.000642	20.846892
1753.498871	-3.017000	3.402600	-10.264000	25.817570	0.000639	20.840180
1754.496835	-3.018100	3.401700	-10.265000	25.834286	0.000639	20.842748
1755.497151	-3.020300	3.401500	-10.271000	25.806462	0.000639	20.834238
1756.499133	-2.996200	3.401000	-10.189000	25.812175	0.000638	20.840451
1757.507007	-3.010500	3.400400	-10.236000	25.785538	0.000637	20.835980
1758.500749	-2.990800	3.402600	-10.176000	25.775755	0.000639	20.837058
1759.497038	-2.994300	3.401000	-10.183000	25.743680	0.000637	20.824281
1760.501531	-2.990700	3.400300	-10.167000	25.738708	0.000637	20.826399
1761.500267	-2.982200	3.400900	-10.141000	25.738002	0.000635	20.840388
1762.506402	-3.005300	3.399000	-10.213000	25.727330	0.000636	20.853375
1763.523341	-3.001300	3.399900	-10.203000	25.769489	0.000633	20.819385
1764.531697	-3.013100	3.399400	-10.241000	25.816171	0.000635	20.816491
1765.537447	-2.989800	3.399100	-10.162000	25.841034	0.000636	20.838621
1766.521527	-2.986900	3.397900	-10.147000	25.859118	0.000634	20.827389
1767.520387	-3.017100	3.396700	-10.247000	25.896835	0.000634	20.839675
1768.518897	-2.986800	3.398900	-10.150000	25.911613	0.000634	20.836977
1769.524695	-3.002900	3.397800	-10.203000	25.900611	0.000633	20.817864
1770.529232	-2.996800	3.396700	-10.178000	25.895510	0.000632	20.833602
1771.526799	-3.003000	3.396100	-10.197000	25.888137	0.000631	20.826669
1772.521400	-3.011500	3.396000	-10.226000	25.884085	0.000631	20.826866
1773.528823	-2.973200	3.396900	-10.098000	25.847912	0.000631	20.813762
1774.529483	-3.005300	3.394400	-10.200000	25.835535	0.000631	20.833571
1775.525908	-2.996900	3.395600	-10.175000	25.814521	0.000632	20.821946
1776.509890	-2.996500	3.396600	-10.176000	25.825028	0.000630	20.831551
1777.505243	-2.980500	3.396000	-10.121000	25.871977	0.000630	20.815652
1778.503233	-2.996000	3.395200	-10.170000	25.861967	0.000631	20.824088
1779.505473	-2.985700	3.394100	-10.132000	25.845765	0.000629	20.818244
1780.510054	-2.999800	3.393700	-10.179000	25.843706	0.000629	20.829451
1781.506151	-2.980300	3.394100	-10.114000	25.836951	0.000628	20.807019
1782.509178	-3.019900	3.393700	-10.247000	25.862733	0.000626	20.814426
1783.508780	-3.015300	3.392200	-10.228000	25.859300	0.000628	20.825676
1784.507771	-3.012800	3.391400	-10.215000	25.906474	0.000627	20.815694
1785.511580	-2.993800	3.392400	-10.155000	25.921081	0.000626	20.818040
1786.511119	-2.992100	3.392100	-10.149000	25.918543	0.000625	20.807904
1787.513851	-2.995700	3.392400	-10.162000	25.904090	0.000626	20.803342
1788.511830	-3.004000	3.391300	-10.186000	25.896930	0.000625	20.812744
1789.555783	-2.990900	3.391400	-10.142000	25.875684	0.000624	20.815582
1790.540812	-3.008900	3.390700	-10.201000	25.873998	0.000624	20.804406
1791.547947	-3.011900	3.390500	-10.211000	25.847689	0.000623	20.811641
1792.550421	-3.024500	3.390300	-10.254000	25.844808	0.000622	20.810644
1793.565771	-3.030800	3.388000	-10.267000	25.806728	0.000620	20.803686
1794.551155	-2.975700	3.389800	-10.086000	25.779871	0.000621	20.799468
1795.545432	-3.009700	3.388800	-10.198000	25.786675	0.000622	20.813415
1796.561092	-2.991300	3.389200	-10.137000	25.796466	0.000620	20.797171
1797.559513	-3.000100	3.389000	-10.166000	25.795668	0.000621	20.801586
1798.556801	-3.016100	3.387500	-10.215000	25.838451	0.000620	20.796198
1799.553532	-3.023700	3.387800	-10.243000	25.835748	0.000621	20.781155
1800.551876	-2.980800	3.388100	-10.098000	25.834350	0.000620	20.804406
1801.552239	-3.016200	3.387000	-10.215000	25.826455	0.000618	20.808329
1802.565093	-2.997000	3.387500	-10.152000	25.783819	0.000618	20.794898
1803.565796	-2.977200	3.387800	-10.085000	25.794032	0.000617	20.788088
1804.556487	-2.992300	3.386600	-10.132000	25.767916	0.000616	20.796943
1805.560791	-2.987200	3.384800	-10.111000	25.750359	0.000618	20.795429
1806.542375	-2.995400	3.386100	-10.142000	25.720539	0.000617	20.815736
1807.536316	-2.989700	3.385500	-10.120000	25.735628	0.000617	20.800072
1808.543774	-2.992000	3.384300	-10.125000	25.745321	0.000615	20.796057
1809.530502	-3.032900	3.383700	-10.261000	25.763479	0.000613	20.797701
1810.532895	-3.009400	3.383800	-10.182000	25.792574	0.000615	20.781408
1811.542518	-3.021100	3.383600	-10.221000	25.783630	0.000615	20.800873
1812.543170	-2.986400	3.383400	-10.102000	25.805423	0.000615	20.793367
1813.545950	-3.000200	3.383600	-10.150000	25.802315	0.000613	20.799727
1814.536455	-2.966100	3.384600	-10.038000	25.807801	0.000612	20.781056
1815.565667	-3.014300	3.383100	-10.196000	25.809046	0.000613	20.796057
1816.551689	-3.019700	3.381400	-10.210000	25.848230	0.000611	20.778046
1817.537991	-2.984700	3.383000	-10.096000	25.870407	0.000610	20.785152
1818.536590	-2.982900	3.382600	-10.089000	25.881221	0.000610	20.775626
1819.536198	-3.006600	3.380300	-10.163000	25.907848	0.000610	20.790996
1820.559396	-2.967800	3.381800	-10.035000	25.892622	0.000608	20.809365
1821.537787	-2.996600	3.381600	-10.132000	25.923228	0.000608	20.781316
1822.543253	-3.009000	3.380300	-10.171000	25.905293	0.000609	20.796015
1823.540427	-3.015100	3.379500	-10.189000	25.911404	0.000607	20.797413
1824.544056	-3.012200	3.380300	-10.180000	25.935628	0.000607	20.790455
1825.543606	-2.999600	3.381100	-10.141000	25.933691	0.000607	20.778078
1826.544578	-2.999400	3.379900	-10.136000	25.946550	0.000605	20.783884
1827.541605	-3.002800	3.377200	-10.140000	25.969033	0.000605	20.779918
1828.521652	-3.018600	3.378800	-10.199000	25.984541	0.000605	20.774636
1829.568181	-3.001700	3.377100	-10.136000	25.968089	0.000607	20.785134
1830.555473	-3.001200	3.377900	-10.136000	25.985062	0.000604	20.772314
1831.574244	-3.001600	3.377300	-10.137000	25.973703	0.000603	20.770386
1832.575467	-3.007700	3.377100	-10.157000	25.972693	0.000603	20.761784
1833.550544	-3.007000	3.377500	-10.154000	25.996615	0.000603	20.795302
1834.547907	-3.016200	3.375900	-10.181000	26.013899	0.000602	20.787062
1835.571370	-3.004800	3.376900	-10.146000	26.009847	0.000602	20.768292
1836.574935	-2.990800	3.376400	-10.098000	26.010473	0.000600	20.794051
1837.541624	-3.015100	3.375600	-10.176000	26.040799	0.000602	20.770941
1838.548291	-2.988200	3.376400	-10.089000	26.014353	0.000601	20.779932
1839.525144	-2.999300	3.376100	-10.125000	25.994696	0.000600	20.779149
1840.526803	-2.990500	3.374500	-10.091000	26.008984	0.000600	20.785443
1841.532695	-2.983900	3.374600	-10.068000	25.985614	0.000599	20.766705
1842.528421	-2.988400	3.373900	-10.081000	25.965166	0.000599	20.768447
1843.529305	-2.984500	3.373500	-10.068000	25.939215	0.000598	20.748539
1844.526329	-2.990100	3.373900	-10.087000	25.948085	0.000601	20.769304
1845.528879	-2.970300	3.374800	-10.023000	25.958118	0.000597	20.788867
1846.528758	-3.002100	3.373400	-10.126000	25.976727	0.000599	20.773424
1847.530065	-2.990100	3.372300	-10.082000	25.965498	0.000597	20.745072
1848.530788	-2.981000	3.371600	-10.050000	25.946651	0.000598	20.783511
1849.537657	-2.990900	3.371200	-10.082000	25.935673	0.000595	20.766318
1850.531130	-3.003300	3.372100	-10.125000	25.961834	0.000595	20.767944
1851.530207	-2.995000	3.371100	-10.096000	25.956244	0.000594	20.783191
1852.537228	-2.998800	3.370800	-10.107000	25.988582	0.000596	20.766367
1853.529279	-2.995100	3.371400	-10.095000	25.976807	0.000595	20.767814
1854.538043	-3.008200	3.369700	-10.136000	25.982992	0.000595	20.774028
1855.532270	-3.004100	3.370100	-10.122000	26.012934	0.000594	20.766177
1856.538249	-3.009000	3.369800	-10.139000	26.002495	0.000595	20.774656
1857.534098	-3.000900	3.368900	-10.109000	26.020485	0.000592	20.760487
1858.536435	-3.003700	3.367900	-10.115000	26.040085	0.000592	20.740825
1859.542044	-2.995300	3.369200	-10.090000	26.046196	0.000590	20.759767
1860.532873	-2.984500	3.369900	-10.057000	26.037628	0.000591	20.782454
1861.535272	-3.009800	3.368500	-10.138000	26.032615	0.000590	20.781684
1862.535831	-2.988700	3.367900	-10.065000	26.047814	0.000590	20.751910
1863.535980	-3.011500	3.367300	-10.139000	26.013566	0.000589	20.773926
1864.540054	-3.020300	3.366900	-10.168000	26.018072	0.000589	20.758064
1865.545358	-3.000000	3.367300	-10.100000	25.954076	0.000588	20.769159
1866.537934	-3.012700	3.365300	-10.138000	25.934082	0.000586	20.759978
1867.539074	-3.012500	3.365700	-10.138000	25.942253	0.000588	20.762971
1868.538334	-2.995400	3.365800	-10.081000	25.937662	0.000588	20.744608
1869.538615	-2.984400	3.365600	-10.043000	25.950902	0.000586	20.754116
1870.544754	-2.975000	3.366100	-10.012000	25.967469	0.000587	20.775028
1871.536015	-3.005100	3.366500	-10.116000	25.989805	0.000586	20.767122
1872.540258	-3.008400	3.364600	-10.121000	26.015534	0.000586	20.762626
1873.539586	-2.990500	3.364400	-10.061000	26.043280	0.000582	20.759683
1874.539915	-3.011800	3.363900	-10.130000	26.029937	0.000584	20.769511
1875.541927	-3.024500	3.363700	-10.173000	26.065411	0.000584	20.782394
1876.541619	-2.998500	3.362900	-10.082000	26.088332	0.000583	20.723393
1877.538549	-2.995000	3.364300	-10.075000	26.035355	0.000583	20.768316
1878.536708	-3.007400	3.363000	-10.113000	26.051156	0.000583	20.749578
1879.536366	-3.007300	3.363700	-10.114000	26.054484	0.000583	20.759086
1880.536115	-2.993300	3.363200	-10.066000	26.047975	0.000582	20.763452
1881.538183	-2.996700	3.362300	-10.075000	26.075940	0.000581	20.745082
1882.536702	-3.018100	3.360300	-10.140000	26.074874	0.000580	20.761555
1883.544144	-3.008100	3.361900	-10.112000	26.084361	0.000579	20.742637
1884.541680	-3.015600	3.359700	-10.129000	26.056242	0.000580	20.729557
1885.541144	-2.995300	3.361800	-10.069000	26.044672	0.000580	20.749701
1886.549652	-3.012700	3.360300	-10.122000	26.003386	0.000579	20.755637
1887.542532	-2.994600	3.361400	-10.064000	25.990203	0.000577	20.746659
1888.549479	-3.014400	3.360000	-10.128000	25.941861	0.000576	20.773483
1889.539276	-3.006400	3.359300	-10.099000	25.911183	0.000578	20.746929
1890.540173	-3.005500	3.357200	-10.088000	25.922706	0.000579	20.767516
1891.540124	-2.984400	3.359600	-10.025000	25.926531	0.000575	20.751443
1892.542506	-3.000900	3.360100	-10.083000	25.932820	0.000577	20.733105
1893.564967	-2.986000	3.358100	-10.026000	25.924797	0.000575	20.762978
1894.571600	-2.992700	3.356900	-10.045000	25.920745	0.000576	20.731879
1895.562652	-3.007100	3.358000	-10.097000	25.949982	0.000575	20.753666
1896.581108	-3.001200	3.357500	-10.075000	25.947549	0.000574	20.742212
1897.588481	-2.994000	3.356000	-10.046000	25.894094	0.000574	20.732132
1898.571548	-3.020000	3.356100	-10.134000	25.883654	0.000573	20.730179
1899.586942	-2.979900	3.356500	-10.001000	25.868428	0.000572	20.742859
1900.586352	-3.009900	3.356700	-10.102000	25.871284	0.000574	20.723442
1901.582130	-2.990700	3.356600	-10.038000	25.911232	0.000570	20.742237
1902.584859	-2.997900	3.355700	-10.059000	25.884322	0.000570	20.741282
1903.583594	-3.027500	3.353600	-10.152000	25.899352	0.000571	20.736940
1904.578891	-3.008500	3.355000	-10.093000	25.912323	0.000570	20.732901
1905.589878	-3.010700	3.355400	-10.101000	25.938428	0.000571	20.724039
1906.592146	-2.975200	3.357200	-9.987200	25.935701	0.000570	20.712290
1907.586295	-2.994400	3.354300	-10.043000	25.953807	0.000569	20.739490
1908.592753	-3.003500	3.354200	-10.074000	25.947672	0.000567	20.747551
1909.588226	-2.995500	3.353100	-10.043000	25.919273	0.000567	20.742255
1910.593911	-2.997600	3.353100	-10.049000	25.944857	0.000569	20.739034
1911.582939	-3.017700	3.351700	-10.113000	25.948308	0.000567	20.756251
1912.597635	-2.998500	3.353400	-10.053000	25.947934	0.000566	20.739754
1913.548863	-2.976000	3.352600	-9.976300	25.945207	0.000565	20.740333
1914.549335	-2.981800	3.351700	-9.993800	25.934670	0.000566	20.738282
1915.551882	-2.995100	3.351700	-10.038000	25.935362	0.000565	20.712423
1916.550216	-3.005500	3.351200	-10.071000	25.954492	0.000566	20.742075
1917.551267	-2.976100	3.350100	-9.968000	25.955779	0.000565	20.711124
1918.560308	-3.012100	3.349500	-10.088000	25.983852	0.000564	20.726526
1919.553034	-2.983400	3.351500	-9.997400	26.015870	0.000565	20.722659
1920.553171	-3.012400	3.350400	-10.092000	26.050712	0.000562	20.745339
1921.553150	-3.009500	3.350300	-10.081000	26.051779	0.000562	20.729340
1922.553169	-3.002500	3.350000	-10.057000	26.071176	0.000563	20.746933
1923.558407	-3.000400	3.350500	-10.052000	26.088116	0.000562	20.708950
1924.553119	-2.999800	3.349100	-10.045000	26.064513	0.000561	20.733126
1925.553042	-2.990300	3.349000	-10.013000	26.060535	0.000563	20.734819
1926.551964	-2.978500	3.349200	-9.974700	26.050723	0.000561	20.722589
1927.554018	-3.011300	3.348800	-10.083000	25.978989	0.000561	20.739659
1928.553184	-3.007100	3.347500	-10.065000	25.935943	0.000560	20.723913
1929.556232	-2.985400	3.348700	-9.996700	25.969445	0.000561	20.708732
1930.553936	-3.008800	3.347200	-10.070000	25.974067	0.000558	20.713376
1931.555229	-2.989200	3.347500	-10.004000	26.015371	0.000559	20.698922
1932.557179	-3.027800	3.346600	-10.132000	26.050569	0.000558	20.722908
1933.550790	-3.014300	3.346800	-10.087000	26.081929	0.000555	20.734503
1934.579247	-2.982200	3.346400	-9.977700	26.078503	0.000555	20.717784
1935.572407	-3.009100	3.346600	-10.069000	26.071229	0.000555	20.713794
1936.590085	-2.969000	3.346500	-9.935200	26.051709	0.000553	20.725002
1937.571048	-2.992600	3.344400	-10.008000	26.064297	0.000554	20.708725
1938.582828	-3.003600	3.344800	-10.045000	26.059204	0.000552	20.726843
1939.587497	-3.014900	3.344500	-10.082000	26.081279	0.000553	20.708244
1940.600198	-2.976700	3.345000	-9.955600	26.087389	0.000553	20.698261
1941.596126	-3.007400	3.342500	-10.051000	26.053167	0.000554	20.715560
1942.593723	-2.987300	3.343100	-9.985600	26.023673	0.000554	20.732396
1943.602371	-3.006500	3.343000	-10.050000	26.025261	0.000552	20.721188
1944.591446	-2.982000	3.344800	-9.972900	26.014756	0.000553	20.739084
1945.591859	-2.986700	3.343300	-9.984200	26.010361	0.000551	20.709537
1946.591085	-2.988700	3.341400	-9.985000	26.038695	0.000550	20.714296
1947.562559	-2.998200	3.341800	-10.018000	26.077270	0.000550	20.716544
1948.558163	-3.016000	3.340700	-10.075000	26.063406	0.000549	20.721107
1949.560600	-2.989200	3.341100	-9.985600	26.079849	0.000550	20.699695
1950.560822	-3.002900	3.341700	-10.034000	26.058883	0.000549	20.714665
1951.561297	-2.999200	3.340800	-10.019000	26.059257	0.000548	20.717412
1952.564504	-2.976000	3.341100	-9.941500	26.080199	0.000547	20.711901
1953.559870	-2.998800	3.340800	-10.017000	26.087001	0.000545	20.710201
1954.559340	-3.005000	3.339100	-10.032000	26.088116	0.000549	20.720331
1955.576909	-3.018300	3.338200	-10.074000	26.093332	0.000544	20.717036
1956.560684	-3.002700	3.338200	-10.022000	26.106024	0.000547	20.726945
1957.570202	-3.004000	3.337700	-10.025000	26.104762	0.000545	20.692483
1958.582259	-3.000600	3.339500	-10.019000	26.114218	0.000544	20.718107
1959.592128	-2.992200	3.337300	-9.984700	26.162699	0.000545	20.717036
1960.582804	-2.990200	3.337300	-9.977600	26.146250	0.000544	20.719948
1961.577179	-2.993700	3.337500	-9.989000	26.149413	0.000543	20.740197
1962.582366	-3.002900	3.336700	-10.019000	26.160480	0.000543	20.703900
1963.594872	-3.012400	3.336800	-10.050000	26.184698	0.000542	20.725392
1964.576013	-3.004300	3.336200	-10.021000	26.199620	0.000542	20.710039
1965.584583	-2.976100	3.335700	-9.926700	26.149920	0.000539	20.712730
1966.594571	-3.000900	3.336500	-10.012000	26.109841	0.000538	20.708968
1967.610668	-3.013000	3.335200	-10.047000	26.089697	0.000537	20.709116
1968.603430	-2.994200	3.334800	-9.984200	26.130003	0.000538	20.701251
1969.611282	-2.990400	3.333600	-9.966400	26.107751	0.000538	20.702600
1970.616371	-2.978800	3.334700	-9.932800	26.133551	0.000537	20.702445
1971.613722	-3.001700	3.333400	-10.005000	26.121153	0.000540	20.708480
1972.602058	-3.010100	3.334200	-10.035000	26.122544	0.000538	20.713672
1973.607015	-3.022600	3.333000	-10.074000	26.139483	0.000536	20.690861
1974.579921	-2.991400	3.334100	-9.972800	26.139134	0.000535	20.716116
1975.565709	-3.001300	3.332800	-10.000000	26.118070	0.000536	20.714866
1976.569415	-2.991400	3.332800	-9.968000	26.108632	0.000535	20.727669
1977.566783	-3.018900	3.332200	-10.059000	26.093899	0.000535	20.714761
1978.590921	-3.001500	3.333900	-10.006000	26.048994	0.000534	20.713738
1979.584774	-3.019800	3.331400	-10.058000	26.018759	0.000535	20.712759
1980.584654	-2.987800	3.331300	-9.952300	26.010890	0.000534	20.716707
1981.585489	-2.997300	3.331500	-9.985200	26.002640	0.000533	20.718375
1982.590279	-3.006000	3.330300	-10.009000	26.002535	0.000534	20.709734
1983.590444	-3.011200	3.330900	-10.029000	26.026873	0.000534	20.706686
1984.583206	-2.990000	3.330700	-9.957800	26.034130	0.000533	20.721564
1985.587782	-2.982600	3.329300	-9.929500	26.051763	0.000531	20.703243
1986.582626	-2.990500	3.328900	-9.954400	26.036882	0.000532	20.700145
1987.607911	-2.989900	3.328900	-9.951700	26.052105	0.000530	20.709752
1988.566846	-2.977600	3.328200	-9.909300	26.069664	0.000530	20.711273
1989.587049	-2.998000	3.329000	-9.979500	26.103543	0.000530	20.701691
1990.585700	-3.010100	3.327700	-10.016000	26.137512	0.000528	20.713539
1991.585927	-3.003300	3.327600	-9.992800	26.150407	0.000528	20.716064
1992.610674	-2.992200	3.327800	-9.956200	26.153532	0.000527	20.699763
1993.605451	-3.001800	3.327200	-9.986300	26.125537	0.000529	20.726637
1994.604562	-2.985100	3.326300	-9.927900	26.081228	0.000529	20.715780
1995.607476	-2.989500	3.327900	-9.947700	26.051326	0.000525	20.698063
1996.603968	-3.009900	3.325500	-10.009000	26.047041	0.000527	20.730269
1997.612200	-2.984100	3.327000	-9.927100	26.048757	0.000526	20.699749
1998.618787	-3.008400	3.325400	-10.003000	26.055689	0.000524	20.715250
1999.608865	-3.017700	3.324300	-10.031000	26.053899	0.000526	20.720090
2000.610548	-2.999400	3.324100	-9.968800	26.095329	0.000525	20.714301
2001.608078	-2.978800	3.324900	-9.903400	26.089457	0.000524	20.715513
2002.611732	-3.002100	3.323100	-9.974000	26.097804	0.000524	20.722953
2003.591651	-3.013700	3.324300	-10.017000	26.105250	0.000522	20.733279
2004.591142	-2.973500	3.325200	-9.886500	26.111500	0.000523	20.742405
2005.592827	-3.008600	3.324000	-9.998400	26.105390	0.000523	20.726308
2006.606056	-3.003000	3.322100	-9.975100	26.112989	0.000521	20.708338
2007.570956	-3.018100	3.321100	-10.022000	26.127072	0.000522	20.709212
2008.588395	-2.975700	3.321400	-9.882000	26.093285	0.000519	20.727895
2009.588294	-3.010100	3.321000	-9.996200	26.105904	0.000518	20.726350
2010.602816	-2.988600	3.323200	-9.930500	26.108980	0.000520	20.714741
2011.586459	-3.002400	3.320600	-9.968800	26.095792	0.000518	20.731362
2012.596004	-3.023600	3.319300	-10.035000	26.091967	0.000520	20.740797
2013.595115	-2.973200	3.321600	-9.875200	26.108753	0.000518	20.727790
2014.596561	-3.016500	3.319400	-10.012000	26.150695	0.000519	20.699283
2015.607162	-3.032500	3.318900	-10.063000	26.183352	0.000516	20.738739
2016.572153	-3.006500	3.319100	-9.978200	26.199217	0.000515	20.721963
2017.576929	-3.006300	3.319100	-9.977400	26.203684	0.000514	20.729772
2018.568764	-3.009100	3.317600	-9.982200	26.232767	0.000516	20.717745
2019.585097	-2.990900	3.319600	-9.927500	26.221111	0.000513	20.736853
2020.591635	-2.996500	3.317600	-9.940000	26.249519	0.000516	20.726994
2021.589303	-3.019700	3.316800	-10.014000	26.256247	0.000513	20.731384
2022.591406	-2.994100	3.318500	-9.935300	26.276291	0.000513	20.720232
2023.590184	-3.007300	3.317400	-9.975800	26.314623	0.000511	20.726513
2024.585980	-3.004900	3.317300	-9.966900	26.325052	0.000513	20.716604
2025.596306	-2.994200	3.316400	-9.928800	26.318464	0.000511	20.719467
2026.616806	-3.020800	3.315800	-10.015000	26.286430	0.000511	20.728525
2027.593939	-3.007100	3.315200	-9.968700	26.260382	0.000512	20.730324
2028.596814	-2.970500	3.316000	-9.848500	26.235393	0.000509	20.732712
2029.594656	-2.997200	3.315800	-9.937400	26.251882	0.000510	20.740275
2030.571836	-3.007100	3.314200	-9.965300	26.250810	0.000511	20.742042
2031.576948	-2.968000	3.314700	-9.836600	26.236151	0.000507	20.724466
2032.575277	-2.992900	3.314200	-9.917000	26.188446	0.000508	20.732477
2033.574078	-2.992000	3.314100	-9.914400	26.168156	0.000506	20.727261
2034.580154	-2.984400	3.313800	-9.888200	26.166807	0.000508	20.750563
2035.575663	-2.988200	3.314000	-9.901500	26.160575	0.000507	20.731972
2036.580258	-2.989000	3.314400	-9.905400	26.166880	0.000507	20.734041
2037.575135	-3.006300	3.312300	-9.956900	26.165881	0.000505	20.742046
2038.579139	-3.013500	3.313500	-9.984400	26.170030	0.000508	20.744318
2039.576232	-3.010700	3.312800	-9.971800	26.202134	0.000505	20.750500
2040.579910	-3.000000	3.312200	-9.936000	26.202906	0.000505	20.737525
2041.571659	-2.992400	3.312600	-9.910700	26.241891	0.000505	20.743037
2042.579388	-3.001200	3.311600	-9.938000	26.241039	0.000503	20.754034
2043.574877	-3.014800	3.309900	-9.977400	26.225566	0.000503	20.745598
2044.578161	-3.001000	3.309800	-9.932400	26.231969	0.000503	20.740178
2045.576710	-3.019100	3.309500	-9.989700	26.231148	0.000502	20.761639
2046.592053	-3.003200	3.309600	-9.938100	26.245670	0.000501	20.758214
2047.581721	-2.995200	3.309800	-9.911900	26.238187	0.000501	20.766816
2048.576941	-3.006200	3.309000	-9.945800	26.251773	0.000501	20.740164
2049.582530	-2.983100	3.309700	-9.871700	26.264879	0.000500	20.742904
2050.576611	-2.996100	3.309500	-9.914800	26.228897	0.000501	20.745626
2051.577763	-3.010200	3.308200	-9.955900	26.246674	0.000500	20.742627
2052.579062	-2.985500	3.308500	-9.876200	26.254265	0.000497	20.750730
2053.578506	-2.989000	3.307900	-9.886800	26.278874	0.000499	20.752227
2054.637424	-3.013300	3.307100	-9.964400	26.289676	0.000498	20.741746
2055.617673	-2.993700	3.306800	-9.898600	26.298358	0.000495	20.776550
2056.631402	-2.985900	3.306100	-9.870300	26.303702	0.000498	20.751099
2057.618684	-3.000800	3.305600	-9.917900	26.278787	0.000496	20.749294
2058.581726	-3.014600	3.304600	-9.961200	26.269074	0.000497	20.761820
2059.578415	-2.979600	3.305600	-9.847800	26.262731	0.000494	20.751178
2060.582162	-2.987500	3.305300	-9.874000	26.270109	0.000494	20.747212
2061.580022	-3.018200	3.303200	-9.967800	26.295532	0.000496	20.765649
2062.581811	-2.986000	3.304800	-9.867200	26.316928	0.000493	20.767237
2063.586257	-2.991600	3.304700	-9.885600	26.345327	0.000492	20.761164
2064.583505	-3.001600	3.305400	-9.919400	26.354811	0.000492	20.750782
2065.584406	-3.013300	3.303300	-9.953100	26.325805	0.000492	20.760985
2066.584238	-3.023100	3.302900	-9.983800	26.329223	0.000492	20.777223
2067.583957	-3.026000	3.300900	-9.987300	26.310204	0.000492	20.767118
2068.586099	-2.992000	3.303000	-9.882000	26.295725	0.000491	20.762524
2069.584897	-3.004800	3.302000	-9.919900	26.320522	0.000489	20.767530
2070.584137	-3.000000	3.302100	-9.905300	26.313064	0.000490	20.779001
2071.584699	-3.012500	3.301600	-9.944800	26.310999	0.000487	20.770762
2072.584866	-3.000100	3.300700	-9.902300	26.286189	0.000489	20.759579
2073.625268	-3.020400	3.301400	-9.971100	26.291078	0.000488	20.791520
2074.621176	-2.990600	3.300600	-9.869600	26.324570	0.000487	20.758322
2075.642579	-2.977600	3.300600	-9.826900	26.295416	0.000486	20.778809
2076.629390	-2.995000	3.299300	-9.880700	26.287934	0.000486	20.765125
2077.606468	-3.003800	3.299100	-9.909400	26.249465	0.000487	20.773882
2078.609240	-2.970500	3.300300	-9.802300	26.253037	0.000484	20.767988
2079.610895	-3.008200	3.298500	-9.921200	26.272749	0.000484	20.775470
2080.610486	-2.992300	3.298800	-9.870400	26.300439	0.000484	20.781012
2081.610412	-3.011900	3.298600	-9.933500	26.309526	0.000483	20.777816
2082.613123	-2.997300	3.298300	-9.883800	26.343164	0.000483	20.776060
2083.627370	-3.007700	3.298000	-9.918700	26.401811	0.000481	20.776208
2084.613231	-3.012900	3.296500	-9.930400	26.438559	0.000482	20.789435
2085.638275	-2.987900	3.298200	-9.852800	26.428946	0.000481	20.777877
2086.636267	-2.971100	3.296100	-9.791500	26.438552	0.000479	20.792274
2087.637381	-3.040100	3.294900	-10.015000	26.406578	0.000478	20.774835
2088.626523	-3.022300	3.295600	-9.959100	26.451405	0.000479	20.790967
2089.642408	-2.999100	3.296800	-9.885700	26.441946	0.000477	20.784779
2090.629810	-3.007400	3.294600	-9.908100	26.456864	0.000478	20.766108
2091.624607	-3.015800	3.294300	-9.933400	26.488121	0.000476	20.777611
2092.630410	-3.013500	3.293100	-9.922700	26.494994	0.000476	20.791632
2093.637199	-3.026600	3.293800	-9.967500	26.533901	0.000474	20.780954
2094.629443	-2.992700	3.294100	-9.857300	26.529852	0.000476	20.790160
2095.632361	-2.997300	3.294700	-9.872900	26.501818	0.000475	20.775258
2096.632147	-2.993500	3.292600	-9.855400	26.491067	0.000474	20.792426
2097.636002	-2.989900	3.292500	-9.843300	26.471247	0.000474	20.799057
2098.593474	-2.993200	3.292800	-9.854000	26.461917	0.000472	20.793947
2099.642477	-2.976600	3.293600	-9.802600	26.463651	0.000472	20.776723
2100.621268	-2.991600	3.291600	-9.846300	26.445155	0.000471	20.779469
2101.633042	-2.977400	3.292400	-9.801900	26.460122	0.000471	20.798780
2102.653449	-3.013600	3.291000	-9.916300	26.445816	0.000469	20.783453
2103.630433	-2.983400	3.291700	-9.818700	26.506540	0.000471	20.781901
2104.652592	-2.988700	3.291700	-9.836800	26.504084	0.000467	20.788440
2105.634601	-3.008900	3.289500	-9.896500	26.497682	0.000469	20.795282
2106.645935	-2.972600	3.291300	-9.781400	26.488388	0.000466	20.774086
2107.615063	-2.992900	3.288600	-9.840600	26.453431	0.000466	20.800115
2108.619687	-2.993500	3.289400	-9.845800	26.414569	0.000466	20.802782
2109.616735	-2.999500	3.289000	-9.864800	26.428973	0.000468	20.801138
2110.637933	-2.998500	3.288900	-9.859500	26.480142	0.000466	20.802782
2111.633504	-3.006500	3.287500	-9.882500	26.492725	0.000465	20.804998
2112.633970	-2.987600	3.287700	-9.821700	26.519931	0.000465	20.786826
2113.642001	-3.011900	3.286700	-9.896500	26.589497	0.000464	20.808865
2114.653356	-3.003700	3.288000	-9.874900	26.605804	0.000464	20.796334
2115.642223	-2.992300	3.286800	-9.834400	26.627200	0.000464	20.801247
2116.645691	-2.995700	3.286000	-9.841700	26.630330	0.000463	20.791118
2117.640973	-2.994100	3.287000	-9.840900	26.620143	0.000462	20.805533
2118.638262	-2.999000	3.285500	-9.852200	26.574917	0.000460	20.807485
2119.650084	-2.987500	3.285600	-9.814700	26.559596	0.000461	20.822904
2120.642679	-3.022500	3.283900	-9.924600	26.565226	0.000460	20.806752
2121.636695	-2.981600	3.285600	-9.795000	26.591916	0.000460	20.807503
2122.640607	-3.007900	3.284800	-9.880000	26.568503	0.000459	20.800089
2123.623110	-3.012000	3.284300	-9.890700	26.525732	0.000458	20.799769
2124.631610	-2.999200	3.283700	-9.847800	26.484864	0.000457	20.804209
2125.604099	-3.019800	3.282400	-9.911200	26.442548	0.000459	20.806246
2126.606583	-3.020300	3.282600	-9.913900	26.458569	0.000455	20.803383
2127.607633	-2.979800	3.283600	-9.783700	26.482320	0.000456	20.820618
2128.607894	-3.011100	3.281900	-9.880900	26.492055	0.000455	20.815231
2129.608079	-3.003000	3.282300	-9.855600	26.489152	0.000453	20.795242
2130.605494	-2.983700	3.283000	-9.794400	26.512217	0.000452	20.810840
2131.607995	-2.979400	3.282400	-9.778200	26.520254	0.000454	20.829824
2132.607579	-3.019900	3.279900	-9.903900	26.534503	0.000453	20.807163
2133.609441	-2.994800	3.280500	-9.823800	26.536397	0.000453	20.796265
2134.611200	-2.996500	3.279600	-9.825100	26.512878	0.000451	20.818143
2135.611903	-2.998000	3.279200	-9.830200	26.546492	0.000451	20.819688
2136.610495	-2.985900	3.278900	-9.789300	26.538693	0.000449	20.814694
2137.611118	-3.014400	3.278500	-9.881800	26.499167	0.000451	20.813844
2138.616693	-3.009800	3.277200	-9.862900	26.529203	0.000451	20.826018
2139.612658	-2.963800	3.280100	-9.720300	26.509919	0.000449	20.838875
2140.613829	-2.964200	3.279400	-9.720200	26.497794	0.000446	20.829059
2141.612628	-3.008700	3.277300	-9.858500	26.474110	0.000448	20.824220
2142.631534	-2.999200	3.276500	-9.826100	26.482178	0.000446	20.809570
2143.616896	-3.005600	3.275500	-9.842900	26.508001	0.000448	20.798068
2144.623825	-2.987400	3.277300	-9.789300	26.524008	0.000449	20.823640
2145.615574	-3.003500	3.276000	-9.838700	26.537363	0.000448	20.819047
2146.612849	-3.031000	3.274700	-9.922800	26.569138	0.000449	20.823486
2147.615669	-2.991900	3.275500	-9.799200	26.604091	0.000444	20.829699
2148.612529	-3.010800	3.274700	-9.857700	26.596618	0.000441	20.836411
2149.615959	-2.992600	3.275000	-9.799700	26.592764	0.000443	20.826848
2150.617782	-2.997400	3.274700	-9.814600	26.576305	0.000444	20.828319
2151.618638	-2.991500	3.275200	-9.796400	26.551972	0.000442	20.819508
2152.620361	-2.997400	3.274200	-9.813100	26.520239	0.000442	20.851145
2153.618127	-3.022500	3.273300	-9.892900	26.533171	0.000440	20.832377
2154.618906	-2.996000	3.273500	-9.806300	26.569559	0.000440	20.840978
2155.616832	-2.994000	3.273800	-9.800700	26.575262	0.000442	20.846711
2156.620906	-3.009900	3.272100	-9.847500	26.606368	0.000440	20.850005
2157.617053	-2.962800	3.273300	-9.695800	26.608052	0.000440	20.840793
2158.617318	-3.006700	3.271200	-9.834100	26.632493	0.000438	20.832646
2159.620438	-2.997800	3.271100	-9.804600	26.690922	0.000438	20.844443
2160.620705	-2.996900	3.269800	-9.798300	26.714601	0.000438	20.845490
2161.621215	-2.998900	3.270100	-9.805700	26.730734	0.000436	20.832787
2162.623149	-3.006700	3.269900	-9.830900	26.742567	0.000437	20.844209
2163.619304	-3.008900	3.267900	-9.831700	26.732884	0.000436	20.849646
2164.620726	-3.021900	3.269000	-9.878200	26.745960	0.000434	20.851887
2165.624687	-3.000900	3.268200	-9.807000	26.749010	0.000435	20.849738
2166.622887	-2.996500	3.268500	-9.792100	26.762698	0.000433	20.831732
2167.623065	-3.011500	3.267900	-9.840100	26.784521	0.000433	20.844663
2168.622231	-3.001700	3.268900	-9.810100	26.814794	0.000431	20.836221
2169.622410	-3.002700	3.267600	-9.810200	26.820152	0.000431	20.865789
2170.625454	-3.013200	3.267400	-9.844200	26.828267	0.000431	20.847871
2171.627941	-3.001700	3.267200	-9.806400	26.811835	0.000428	20.856005
2172.641643	-3.002000	3.265500	-9.801700	26.799972	0.000427	20.833173
2173.643654	-2.990500	3.267700	-9.771000	26.764026	0.000428	20.849188
2174.641819	-2.996400	3.266100	-9.785400	26.730413	0.000427	20.846214
2175.624726	-3.009200	3.266300	-9.828200	26.726371	0.000427	20.869650
2176.625298	-2.995700	3.264500	-9.778400	26.723136	0.000427	20.852174
2177.626894	-2.998600	3.264600	-9.787400	26.699035	0.000425	20.870142
2178.626453	-2.987400	3.264900	-9.752600	26.734357	0.000425	20.854446
2179.626836	-2.970600	3.264600	-9.697100	26.771957	0.000422	20.867592
2180.625782	-2.993000	3.265300	-9.771800	26.775570	0.000423	20.865061
2181.627429	-3.003500	3.262600	-9.798200	26.817046	0.000421	20.859347
2182.627176	-3.009000	3.263200	-9.817500	26.811509	0.000423	20.844772
2183.635221	-3.006000	3.263800	-9.809800	26.838365	0.000422	20.866557
2184.628175	-3.015100	3.262000	-9.833800	26.856854	0.000421	20.872345
2185.657076	-2.983200	3.262300	-9.731200	26.870976	0.000420	20.866157
2186.674128	-2.991800	3.261900	-9.758000	26.883855	0.000418	20.867727
2187.665874	-3.030500	3.259500	-9.876400	26.901173	0.000420	20.872813
2188.663890	-2.992900	3.262000	-9.762200	26.925148	0.000419	20.877480
2189.668739	-3.012200	3.260100	-9.817600	26.944321	0.000419	20.877794
2190.669517	-3.005900	3.259400	-9.796500	26.936256	0.000420	20.882960
2191.669546	-3.013400	3.258100	-9.816600	26.927046	0.000418	20.894560
2192.670111	-2.991200	3.259600	-9.749300	26.959581	0.000418	20.883181
2193.670086	-2.997800	3.259000	-9.768900	26.951688	0.000415	20.862443
2194.662789	-2.996800	3.257900	-9.762300	26.972428	0.000413	20.864807
2195.670682	-3.001700	3.259000	-9.782000	26.966170	0.000412	20.870841
2196.674209	-3.026500	3.256700	-9.855600	26.998606	0.000415	20.880225
2197.667459	-3.004700	3.257700	-9.787100	26.993566	0.000414	20.874209
2198.682437	-2.994400	3.258100	-9.755300	26.954424	0.000412	20.887478
2199.668437	-2.964200	3.257600	-9.655300	26.958264	0.000411	20.864788
2200.674674	-3.000000	3.257400	-9.770300	26.970799	0.000410	20.881659
2201.667422	-3.006200	3.254700	-9.782700	26.983725	0.000409	20.870477
2202.656634	-3.009000	3.255900	-9.796500	26.973566	0.000408	20.860262
2203.679142	-2.986400	3.256300	-9.723400	26.939763	0.000409	20.856616
2204.690329	-2.972900	3.255000	-9.676000	26.904067	0.000409	20.887575
2205.688396	-3.008200	3.254500	-9.789300	26.875756	0.000407	20.858636
2206.690683	-3.016100	3.253900	-9.812600	26.852245	0.000406	20.854910
2207.675447	-2.988600	3.254800	-9.726200	26.842318	0.000406	20.869584
2208.673981	-2.977200	3.254200	-9.687600	26.873857	0.000407	20.849140
2209.676806	-2.978000	3.252800	-9.686500	26.855460	0.000404	20.856246
2210.688430	-3.002300	3.252800	-9.765600	26.897875	0.000405	20.860014
2211.649020	-2.974000	3.252100	-9.671200	26.914324	0.000403	20.878449
2212.672493	-3.002900	3.251900	-9.764200	26.909731	0.000402	20.883788
2213.671823	-3.013100	3.250100	-9.792300	26.883692	0.000404	20.855710
2214.670942	-2.986700	3.251300	-9.709800	26.824697	0.000401	20.870832
2215.686723	-3.007500	3.251100	-9.776300	26.809820	0.000401	20.855876
2216.682683	-3.009500	3.249500	-9.778700	26.828139	0.000399	20.852009
2217.671744	-2.998600	3.248600	-9.739000	26.855312	0.000400	20.872217
2218.674447	-3.023600	3.248500	-9.821100	26.865631	0.000399	20.838499
2219.679377	-3.012500	3.248000	-9.783600	26.900446	0.000397	20.844108
2220.679899	-3.026100	3.246300	-9.822800	26.906894	0.000398	20.852962
2221.682887	-3.018300	3.246700	-9.797100	26.930649	0.000397	20.838443
2222.667003	-3.005500	3.247000	-9.758000	26.942675	0.000398	20.848165
2223.662814	-3.022300	3.246300	-9.810100	26.947164	0.000397	20.849834
2224.672045	-2.990500	3.245000	-9.702600	26.978945	0.000396	20.850973
2225.659314	-2.980400	3.248100	-9.679600	26.982019	0.000394	20.851693
2226.660187	-3.000100	3.245400	-9.736000	26.976955	0.000393	20.852290
2227.655890	-2.993500	3.244800	-9.712800	26.986305	0.000394	20.841305
2228.638007	-2.998000	3.245300	-9.727400	27.020131	0.000392	20.841182
2229.680654	-2.983600	3.246000	-9.683400	27.002128	0.000392	20.860060
2230.673859	-2.995200	3.244800	-9.717200	26.995576	0.000391	20.843515
2231.653193	-2.981600	3.244700	-9.672600	26.974505	0.000390	20.852671
2232.659898	-2.993500	3.243200	-9.707300	26.976507	0.000392	20.848047
2233.657447	-3.011500	3.243600	-9.766500	26.941265	0.000390	20.849592
2234.662727	-3.007400	3.243100	-9.751100	26.966329	0.000390	20.837339
2235.666568	-3.016000	3.240800	-9.772600	26.941363	0.000388	20.831674
2236.655505	-3.009100	3.243200	-9.758000	26.905349	0.000388	20.828650
2237.671538	-3.015100	3.242000	-9.774400	26.875415	0.000388	20.833638
2238.679814	-3.000600	3.240600	-9.722800	26.878863	0.000385	20.844216
2239.683825	-3.003600	3.240000	-9.730900	26.913855	0.000386	20.865651
2240.678377	-2.973400	3.243600	-9.643700	26.926684	0.000386	20.827344
2241.696789	-2.998500	3.240400	-9.715000	26.973739	0.000386	20.838151
2242.684891	-3.005700	3.240200	-9.736800	27.009273	0.000384	20.848280
2243.679074	-3.004800	3.240100	-9.733900	27.029767	0.000384	20.825743
2244.685472	-3.017000	3.238900	-9.770600	27.046912	0.000384	20.840140
2245.678398	-3.013900	3.237200	-9.756200	27.049043	0.000382	20.832800
2246.658649	-3.016700	3.236100	-9.761400	27.069047	0.000381	20.825891
2247.669786	-3.004400	3.237400	-9.724800	27.072237	0.000382	20.830995
2248.662175	-3.005700	3.238300	-9.732600	27.039484	0.000380	20.842627
2249.663913	-3.001400	3.238100	-9.717900	27.018561	0.000381	20.832492
2250.674819	-2.965200	3.237100	-9.597800	26.997693	0.000379	20.842325
2251.657167	-3.000000	3.236600	-9.708800	27.002622	0.000380	20.834006
2252.663935	-2.967700	3.235800	-9.602300	26.965796	0.000378	20.836328
2253.663472	-2.986300	3.235100	-9.659700	26.976169	0.000378	20.803612
2254.665211	-2.996200	3.235500	-9.692800	27.002647	0.000376	20.832608
2255.665630	-3.006200	3.235300	-9.724900	27.011746	0.000377	20.821844
2256.660233	-3.004200	3.232600	-9.710700	27.027078	0.000375	20.816401
2257.677039	-3.014300	3.232600	-9.742800	27.052740	0.000375	20.824191
2258.663341	-2.994900	3.232600	-9.680400	27.064539	0.000375	20.823254
2259.664040	-2.987100	3.231900	-9.653000	27.022155	0.000375	20.829467
2260.662603	-3.020200	3.231700	-9.758900	27.015872	0.000375	20.818882
2261.677487	-3.005700	3.230500	-9.708700	26.981348	0.000373	20.817355
2262.683262	-3.017500	3.230200	-9.746500	26.975953	0.000373	20.834689
2263.664827	-3.020400	3.231100	-9.758000	26.982530	0.000371	20.812379
2264.697873	-2.986000	3.230000	-9.643200	27.020268	0.000370	20.814294
2265.683234	-2.980600	3.230400	-9.627500	27.022026	0.000371	20.826018
2266.683695	-2.999900	3.228500	-9.684400	27.001353	0.000368	20.812342
2267.680261	-3.000200	3.229000	-9.687300	26.994458	0.000367	20.819633
2268.687826	-3.034100	3.227200	-9.789900	27.021401	0.000369	20.823019
2269.684443	-3.000200	3.227700	-9.682400	26.985463	0.000366	20.824811
2270.678459	-2.995600	3.226400	-9.663700	27.002363	0.000368	20.799133
2271.681587	-2.996100	3.230000	-9.676500	27.017102	0.000367	20.821541
2272.684915	-2.982400	3.228200	-9.626400	26.980362	0.000366	20.806880
2273.681177	-2.970000	3.227800	-9.585100	27.008107	0.000365	20.809176
2274.673923	-3.001800	3.225000	-9.680500	27.014830	0.000365	20.816412
2275.658264	-3.005800	3.225100	-9.692900	27.091375	0.000365	20.811836
2276.695332	-3.013500	3.224700	-9.715900	27.118247	0.000361	20.827483
2277.673381	-3.002600	3.225000	-9.682400	27.118572	0.000362	20.817853
2278.668375	-3.002800	3.224100	-9.680900	27.124762	0.000361	20.816017
2279.674796	-2.992500	3.223800	-9.646200	27.114819	0.000362	20.812655
2280.666534	-3.028400	3.221500	-9.754200	27.102977	0.000360	20.787944
2281.677231	-2.975100	3.223800	-9.590100	27.101012	0.000360	20.807304
2282.663644	-3.025600	3.221600	-9.746000	27.120904	0.000359	20.812138
2283.660708	-2.984700	3.220000	-9.609000	27.108298	0.000357	20.811787
2284.662886	-3.019600	3.219000	-9.719100	27.076012	0.000358	20.810611
2285.685362	-2.997200	3.222600	-9.658100	27.022061	0.000357	20.817994
2286.678337	-3.007500	3.220900	-9.686500	27.018932	0.000358	20.796355
2287.687887	-2.992900	3.220900	-9.638600	27.054189	0.000356	20.813320
2288.661116	-2.987100	3.219500	-9.616400	27.084706	0.000355	20.813190
2289.661646	-3.009900	3.220500	-9.691300	27.066068	0.000355	20.817205
2290.667840	-3.012500	3.217700	-9.691100	27.070538	0.000353	20.825968
2291.659890	-2.980600	3.219100	-9.593800	27.044300	0.000354	20.812858
2292.673842	-3.010300	3.219600	-9.690500	27.052383	0.000355	20.799175
2293.659076	-2.986400	3.217800	-9.607900	27.032409	0.000355	20.795684
2294.665741	-2.990500	3.217600	-9.619600	27.000494	0.000353	20.812901
2295.666071	-2.982300	3.217700	-9.595100	26.984512	0.000351	20.808683
2296.682083	-3.001800	3.215700	-9.651800	26.995504	0.000351	20.809779
2297.695800	-2.967100	3.219400	-9.551100	27.012171	0.000352	20.806152
2298.696874	-2.977300	3.217500	-9.578500	27.027008	0.000351	20.798787
2299.668180	-3.011200	3.215300	-9.680000	26.993605	0.000349	20.821146
2300.677293	-2.991700	3.215600	-9.619300	26.999453	0.000350	20.787672
2301.663664	-3.019500	3.212800	-9.699700	26.993348	0.000349	20.795757
2302.650926	-3.006800	3.214600	-9.664800	27.011963	0.000348	20.804994
2303.646605	-2.977900	3.212800	-9.567300	27.064194	0.000347	20.791613
2304.648381	-2.987700	3.212300	-9.597300	27.093394	0.000348	20.799643
2305.652204	-3.013800	3.211300	-9.676200	27.088306	0.000347	20.808276
2306.650267	-3.009400	3.211600	-9.664400	27.035886	0.000346	20.818147
2307.661832	-2.969400	3.213000	-9.539600	27.013212	0.000346	20.793922
2308.690525	-3.003600	3.210500	-9.641900	26.981787	0.000346	20.795037
2309.691127	-2.994600	3.212400	-9.618500	26.969105	0.000346	20.792241
2310.688798	-2.994100	3.210300	-9.611100	26.989453	0.000346	20.799427
2311.669475	-3.003600	3.209000	-9.637700	27.029377	0.000344	20.795480
2312.697604	-3.018600	3.208000	-9.682500	27.050294	0.000341	20.791859
2313.690224	-3.000500	3.207000	-9.621700	27.068498	0.000342	20.773656
2314.650020	-2.980300	3.207700	-9.558200	27.086065	0.000340	20.792746
2315.671711	-2.990200	3.209200	-9.595100	27.108915	0.000342	20.789648
2316.680222	-2.996600	3.205200	-9.603100	27.098965	0.000339	20.791021
2317.673631	-2.998700	3.205900	-9.612000	27.116452	0.000340	20.817143
2318.668925	-3.006900	3.205400	-9.637600	27.131538	0.000340	20.792487
2319.679414	-2.966100	3.206500	-9.508600	27.121662	0.000339	20.788244
2320.664855	-3.003500	3.205000	-9.625000	27.118332	0.000335	20.795326
2321.704173	-2.986500	3.204900	-9.570500	27.127210	0.000338	20.824643
2322.691196	-3.008300	3.203100	-9.635200	27.117934	0.000336	20.792081
2323.690042	-3.000300	3.205000	-9.614100	27.150273	0.000336	20.814649
2324.718090	-3.007400	3.204000	-9.634900	27.140875	0.000336	20.800455
2325.697887	-3.020300	3.200400	-9.664400	27.141518	0.000335	20.811533
2326.692617	-3.012200	3.202300	-9.645100	27.098341	0.000334	20.788497
2327.684645	-2.979000	3.202500	-9.539400	27.052651	0.000335	20.806558
2328.695553	-3.005800	3.200600	-9.619200	27.029126	0.000335	20.797124
2329.693951	-2.978200	3.202800	-9.537600	26.975443	0.000333	20.783915
2330.690163	-2.991800	3.201800	-9.577100	26.944849	0.000332	20.799618
2331.699420	-2.985300	3.200400	-9.553500	26.915106	0.000331	20.785830
2332.693350	-3.018200	3.198900	-9.653300	26.890708	0.000331	20.775996
2333.698754	-3.015200	3.198600	-9.643500	26.879415	0.000328	20.774124
2334.704495	-3.016500	3.196400	-9.641200	26.874675	0.000332	20.791169
2335.693274	-3.009300	3.197600	-9.620400	26.906294	0.000331	20.792616
2336.696864	-3.036200	3.195100	-9.700000	26.951481	0.000328	20.785424
2337.677223	-3.011000	3.197400	-9.626700	27.019525	0.000330	20.804064
2338.691758	-3.027300	3.194900	-9.670000	27.061493	0.000328	20.779414
2339.701761	-3.005100	3.195900	-9.603100	27.108535	0.000328	20.782154
2340.680132	-3.002800	3.197000	-9.598800	27.191557	0.000328	20.776039
2341.684592	-2.985200	3.194300	-9.534000	27.186218	0.000326	20.788213
2342.684287	-3.003900	3.194300	-9.594200	27.226092	0.000327	20.773792
2343.692681	-2.997200	3.193300	-9.570400	27.234522	0.000326	20.780849
2344.689910	-3.022200	3.192300	-9.646700	27.204322	0.000324	20.780818
2345.684730	-3.008300	3.192200	-9.601300	27.188422	0.000324	20.786163
2346.687717	-2.996000	3.194100	-9.568100	27.159665	0.000323	20.774783
2347.659244	-2.993500	3.192700	-9.556100	27.155496	0.000323	20.789082
2348.668715	-2.997600	3.191000	-9.564500	27.172559	0.000323	20.779217
2349.663676	-2.994700	3.191700	-9.557100	27.218782	0.000322	20.782561
2350.662292	-2.971000	3.189700	-9.475700	27.258079	0.000321	20.775146
2351.665957	-3.010300	3.192100	-9.607500	27.265848	0.000322	20.773952
2352.662044	-2.985000	3.190700	-9.523600	27.283412	0.000322	20.762221
2353.662267	-3.008000	3.187000	-9.585800	27.285940	0.000323	20.779937
2354.662999	-2.994400	3.187700	-9.544200	27.257804	0.000321	20.779611
2355.659528	-2.984000	3.188100	-9.512100	27.274027	0.000318	20.775066
2356.690230	-2.982200	3.188000	-9.506200	27.280730	0.000319	20.779439
2357.695392	-3.012300	3.188200	-9.602900	27.283497	0.000319	20.750453
2358.700616	-3.008100	3.187200	-9.586600	27.224898	0.000317	20.758840
2359.701587	-2.982200	3.186200	-9.500500	27.243307	0.000316	20.775935
2360.693265	-2.996500	3.186500	-9.547700	27.233781	0.000316	20.753550
2361.705352	-3.005200	3.183800	-9.566400	27.206807	0.000315	20.772412
2362.700879	-3.015000	3.184000	-9.598400	27.236083	0.000318	20.782419
2363.706706	-3.008300	3.185200	-9.581400	27.253647	0.000316	20.784913
2364.705270	-2.997900	3.182900	-9.541100	27.293145	0.000314	20.758735
2365.711302	-2.995100	3.182900	-9.532200	27.291229	0.000314	20.763446
2366.696925	-2.995000	3.181500	-9.528000	27.257039	0.000311	20.762246
2367.700720	-2.998800	3.183100	-9.544800	27.273390	0.000313	20.764469
2368.685487	-3.004000	3.180300	-9.552200	27.292147	0.000312	20.755361
2369.692390	-3.003600	3.179900	-9.550400	27.273139	0.000311	20.764690
2370.687063	-2.998800	3.181200	-9.539400	27.246540	0.000309	20.761642
2371.688172	-3.000900	3.180200	-9.542900	27.244232	0.000310	20.756001
2372.682671	-3.006100	3.179300	-9.555900	27.244250	0.000310	20.745588
2373.699182	-2.972500	3.178800	-9.448000	27.254070	0.000310	20.764001
2374.692521	-2.993000	3.177600	-9.509800	27.268885	0.000309	20.759462
2375.684346	-2.979400	3.178100	-9.468300	27.287318	0.000309	20.754296
2376.670094	-2.975200	3.178800	-9.457700	27.285083	0.000308	20.752048
2377.668748	-2.994600	3.176500	-9.511000	27.316610	0.000307	20.771434
2378.671046	-2.999400	3.176200	-9.525800	27.336235	0.000306	20.752769
2379.672075	-3.007400	3.176100	-9.550100	27.346103	0.000306	20.761747
2380.671532	-2.995600	3.175600	-9.511600	27.380933	0.000307	20.761698
2381.676376	-2.989000	3.174600	-9.487800	27.408588	0.000307	20.757276
2382.671642	-3.028100	3.172500	-9.603900	27.421859	0.000305	20.753083
2383.680078	-2.991700	3.176500	-9.502900	27.425354	0.000303	20.750435
2384.672879	-2.986700	3.172500	-9.474400	27.409525	0.000304	20.762960
2385.672561	-2.989900	3.172500	-9.484500	27.413149	0.000303	20.752381
2386.670891	-3.005600	3.170900	-9.528200	27.423879	0.000303	20.763176
2387.674534	-2.996000	3.170400	-9.497600	27.450229	0.000303	20.751753
2388.673296	-3.005800	3.170200	-9.528700	27.438440	0.000303	20.768343
2389.677466	-3.010100	3.169300	-9.539000	27.408974	0.000302	20.746759
2390.678767	-2.968100	3.169900	-9.407600	27.438991	0.000301	20.738550
2391.672789	-3.014600	3.167200	-9.546800	27.452659	0.000301	20.749456
2392.693532	-3.002800	3.168200	-9.511600	27.427925	0.000301	20.752547
2393.693292	-2.966900	3.169400	-9.401400	27.418052	0.000301	20.737872
2394.677339	-3.016100	3.166500	-9.549600	27.405228	0.000301	20.739671
2395.670976	-2.998700	3.165500	-9.490100	27.424473	0.000300	20.758083
2396.679127	-3.008800	3.165600	-9.523100	27.464558	0.000299	20.756685
2397.701894	-2.991100	3.165700	-9.467300	27.456521	0.000298	20.741487
2398.698043	-2.988600	3.166400	-9.461900	27.466315	0.000296	20.720045
2399.701615	-3.022300	3.161800	-9.555400	27.442186	0.000297	20.764999
2400.673160	-2.998700	3.162600	-9.483000	27.433079	0.000298	20.748249
2401.673781	-2.976900	3.163900	-9.417200	27.407921	0.000299	20.767037
2402.675008	-3.000000	3.161100	-9.482900	27.400631	0.000298	20.753065
2403.675920	-2.987800	3.162800	-9.448400	27.401225	0.000297	20.751291
2404.698626	-2.992600	3.160600	-9.457100	27.386363	0.000295	20.750090
2405.724475	-2.996900	3.160800	-9.472200	27.357410	0.000294	20.755103
2406.709629	-2.976200	3.160300	-9.405300	27.335213	0.000294	20.740360
2407.713086	-2.996200	3.158900	-9.463300	27.314541	0.000293	20.760343
2408.723143	-2.993700	3.159300	-9.456400	27.323644	0.000291	20.749111
2409.721035	-2.989600	3.158000	-9.440700	27.340460	0.000292	20.722878
2410.722303	-2.983700	3.158000	-9.421500	27.373233	0.000293	20.731665
2411.721887	-2.969800	3.158100	-9.376800	27.435497	0.000294	20.756846
2412.722432	-2.982800	3.157500	-9.417200	27.452984	0.000291	20.734609
2413.722962	-2.996700	3.156600	-9.457100	27.507255	0.000290	20.753650
2414.717763	-3.002400	3.154400	-9.469600	27.521785	0.000291	20.749302
2415.724320	-3.011100	3.154100	-9.496400	27.532227	0.000290	20.747005
2416.715286	-2.999000	3.153400	-9.455500	27.462728	0.000288	20.753422
2417.719982	-2.972700	3.154300	-9.375500	27.436158	0.000291	20.747553
2418.713743	-3.011400	3.151300	-9.489000	27.415959	0.000291	20.746199
2419.696324	-2.983400	3.153200	-9.406600	27.412519	0.000289	20.732780
2420.694165	-2.997900	3.150800	-9.444400	27.391854	0.000287	20.739967
2421.706713	-2.997200	3.150200	-9.441000	27.415445	0.000287	20.737146
2422.696025	-3.003900	3.151000	-9.464500	27.437963	0.000287	20.757431
2423.703422	-2.993000	3.149700	-9.426800	27.465850	0.000289	20.727638
2424.701617	-2.979400	3.148500	-9.379900	27.492095	0.000287	20.746931
2425.695303	-3.031400	3.149000	-9.545400	27.507396	0.000287	20.745256
2426.717041	-3.008500	3.146400	-9.464600	27.520665	0.000287	20.733476
2427.719070	-3.019200	3.145100	-9.494700	27.507690	0.000285	20.725162
2428.717050	-3.013800	3.145100	-9.477000	27.547576	0.000285	20.730206
2429.698046	-3.001000	3.145200	-9.437900	27.525433	0.000284	20.734480
2430.711309	-2.994900	3.144100	-9.415300	27.480288	0.000286	20.727940
2431.699734	-3.006100	3.142600	-9.445600	27.501098	0.000287	20.728962
2432.699510	-3.000300	3.142900	-9.429200	27.479174	0.000285	20.759537
2433.703471	-3.005300	3.141400	-9.439800	27.505150	0.000282	20.730668
2434.705048	-2.998500	3.140800	-9.417000	27.529424	0.000282	20.749401
2435.712532	-3.003700	3.140100	-9.430700	27.539443	0.000284	20.762327
2436.698839	-2.992800	3.139700	-9.394600	27.516454	0.000282	20.725920
2437.712152	-2.997500	3.138800	-9.406900	27.479199	0.000280	20.745336
2438.700151	-2.990000	3.138100	-9.381900	27.467563	0.000281	20.750700
2439.683650	-2.997300	3.137100	-9.401800	27.396622	0.000282	20.739548
2440.685470	-2.998500	3.138600	-9.410200	27.402327	0.000280	20.744339
2441.686179	-2.986500	3.136500	-9.366000	27.386951	0.000281	20.727447
2442.685215	-2.992500	3.136900	-9.385700	27.395361	0.000281	20.716467
2443.686913	-3.001500	3.134100	-9.406300	27.432797	0.000280	20.749388
2444.684163	-2.977700	3.133300	-9.328100	27.470520	0.000280	20.743243
2445.687428	-2.988600	3.134600	-9.366400	27.507580	0.000279	20.744967
2446.692762	-3.020800	3.131800	-9.459400	27.520133	0.000280	20.745743
2447.687336	-2.987200	3.132700	-9.356600	27.550067	0.000280	20.739825
2448.688651	-3.026700	3.129100	-9.470500	27.567032	0.000280	20.762111
2449.688938	-3.008100	3.129100	-9.411800	27.544394	0.000278	20.728426
2450.688278	-2.998300	3.129500	-9.382200	27.546450	0.000281	20.729547
2451.692360	-2.983300	3.130400	-9.337800	27.555129	0.000279	20.739227
2452.688259	-2.991700	3.129100	-9.359800	27.568629	0.000278	20.766089
2453.692263	-2.987500	3.127600	-9.342900	27.535391	0.000278	20.748766
2454.689951	-2.992900	3.126100	-9.354900	27.469393	0.000279	20.746377
2455.694023	-2.990000	3.126000	-9.345400	27.418113	0.000278	20.744098
2456.693009	-3.025800	3.124400	-9.451900	27.348264	0.000279	20.743058
2457.697996	-3.012800	3.123500	-9.409300	27.341861	0.000278	20.744203
2458.692675	-3.008700	3.123700	-9.396900	27.339327	0.000278	20.745921
2459.698176	-2.983000	3.122400	-9.312600	27.358664	0.000278	20.742614
2460.691077	-2.986700	3.122600	-9.326000	27.366102	0.000277	20.737294
2461.692636	-2.997900	3.121300	-9.356200	27.375559	0.000276	20.736850
2462.692499	-2.994600	3.122400	-9.349300	27.437131	0.000275	20.727668
2463.694945	-3.001600	3.120400	-9.365300	27.435447	0.000277	20.743045
2464.696539	-2.982800	3.120100	-9.305200	27.433617	0.000273	20.732194
2465.693781	-2.999000	3.118300	-9.350100	27.492174	0.000275	20.756020
2466.694549	-2.998700	3.117700	-9.348200	27.510829	0.000275	20.738753
2467.697353	-3.004100	3.115000	-9.357400	27.490197	0.000275	20.725106
2468.694143	-3.007400	3.114100	-9.364000	27.504170	0.000274	20.748649
2469.696942	-2.987400	3.113500	-9.299900	27.518725	0.000274	20.760922
2470.694014	-3.011500	3.114100	-9.376800	27.471033	0.000275	20.717205
2471.691054	-2.989000	3.113100	-9.303800	27.432068	0.000274	20.750077
2472.698434	-2.980800	3.113700	-9.280000	27.380492	0.000273	20.739442
2473.736940	-2.994300	3.111400	-9.314200	27.373226	0.000272	20.757738
2474.741129	-3.028600	3.109100	-9.414900	27.420316	0.000271	20.767178
2475.736586	-2.979800	3.110700	-9.267800	27.436598	0.000273	20.752263
2476.707297	-2.980900	3.109100	-9.266800	27.469460	0.000272	20.734115
2477.730907	-3.013000	3.106500	-9.359000	27.486702	0.000271	20.748618
2478.733534	-2.971500	3.107100	-9.231800	27.461332	0.000271	20.764345
2479.731824	-2.999600	3.106200	-9.316400	27.441488	0.000271	20.747700
2480.708982	-3.002500	3.105900	-9.323300	27.432460	0.000270	20.761377
2481.731691	-3.016800	3.105300	-9.367300	27.406446	0.000269	20.760337
2482.748341	-2.983500	3.103400	-9.258000	27.437179	0.000270	20.748581
2483.732237	-2.984800	3.104200	-9.262800	27.473120	0.000270	20.761032
2484.731062	-3.013100	3.101300	-9.343700	27.490441	0.000269	20.741474
2485.730735	-2.975900	3.102400	-9.232000	27.559724	0.000269	20.749541
2486.728660	-3.016500	3.100000	-9.350600	27.637062	0.000269	20.742958
2487.745345	-3.001600	3.098300	-9.299100	27.644179	0.000271	20.743482
2488.734835	-2.997900	3.098100	-9.286400	27.604988	0.000270	20.774223
2489.734580	-2.967200	3.098800	-9.193600	27.577270	0.000267	20.759136
2490.728033	-2.988800	3.096200	-9.253500	27.586450	0.000268	20.745138
2491.735024	-3.008700	3.096000	-9.313200	27.595483	0.000268	20.786471
2492.717566	-2.992500	3.095400	-9.261400	27.639558	0.000268	20.783878
2493.722873	-3.005100	3.094800	-9.299300	27.624259	0.000267	20.771328
2494.719543	-3.006700	3.092300	-9.297100	27.690204	0.000267	20.745224
2495.714344	-3.023100	3.090800	-9.342500	27.709455	0.000268	20.737096
2496.721252	-2.996400	3.091700	-9.262500	27.738595	0.000268	20.752195
2497.727014	-2.979500	3.090000	-9.205400	27.779048	0.000267	20.747860
2498.711737	-3.006200	3.089400	-9.286600	27.805255	0.000268	20.775183
2499.717433	-2.991900	3.088800	-9.240600	27.813350	0.000267	20.761993
2500.726358	-2.970600	3.088200	-9.173100	27.827704	0.000264	20.749412
2501.720525	-2.991700	3.087000	-9.234500	27.868417	0.000266	20.778533
2502.729721	-2.984000	3.086700	-9.208500	27.876383	0.000265	20.754782
2503.722240	-2.984200	3.084100	-9.203500	27.859698	0.000266	20.759801
2504.717889	-2.985700	3.084800	-9.209200	27.822136	0.000269	20.764197
2505.725668	-3.012300	3.081600	-9.282000	27.795973	0.000266	20.776747
2506.702168	-2.966100	3.081700	-9.138700	27.768205	0.000266	20.759708
2507.699574	-2.998700	3.080600	-9.236600	27.785216	0.000265	20.762128
2508.703880	-2.989100	3.079000	-9.201500	27.778497	0.000265	20.759634
2509.699556	-2.998000	3.078200	-9.227300	27.747976	0.000268	20.771119
2510.705514	-3.003500	3.077900	-9.242000	27.777212	0.000263	20.764505
2511.721669	-2.993000	3.076500	-9.206800	27.789756	0.000265	20.774284
2512.741105	-2.967200	3.077200	-9.128600	27.789285	0.000263	20.761956
2513.738410	-3.002100	3.074300	-9.228600	27.798983	0.000265	20.761759
2514.744670	-3.001700	3.073900	-9.225900	27.800427	0.000265	20.754677
2515.744956	-2.994500	3.071600	-9.197000	27.766480	0.000267	20.769826
2516.734723	-3.016400	3.071800	-9.265000	27.761542	0.000265	20.746364
2517.744195	-2.988700	3.070600	-9.176100	27.772953	0.000265	20.776341
2518.739161	-2.992800	3.070600	-9.188400	27.773229	0.000264	20.760971
2519.750566	-2.981100	3.067900	-9.144900	27.828897	0.000264	20.757725
2520.737173	-2.987600	3.067800	-9.163900	27.843453	0.000263	20.777591
2521.743858	-3.008400	3.067100	-9.226300	27.825306	0.000262	20.772603
2522.720901	-2.984700	3.064900	-9.146000	27.848911	0.000264	20.777394
2523.724487	-2.985600	3.065200	-9.150400	27.853500	0.000265	20.791021
2524.727254	-2.964700	3.063700	-9.081700	27.898923	0.000266	20.761346
2525.726631	-3.002000	3.061500	-9.188800	27.941621	0.000263	20.788675
2526.733872	-3.005200	3.061200	-9.198500	27.947151	0.000263	20.772905
2527.703570	-3.017000	3.061400	-9.234700	27.917228	0.000263	20.767917
2528.706112	-3.011500	3.059000	-9.210700	27.935845	0.000264	20.780017
2529.706764	-3.000700	3.058800	-9.177000	27.934310	0.000263	20.762824
2530.705695	-3.039300	3.055700	-9.285500	27.879044	0.000262	20.765996
2531.723745	-3.005500	3.056100	-9.184100	27.805775	0.000263	20.778078
2532.711816	-3.006400	3.054600	-9.183000	27.741251	0.000266	20.770990
2533.708168	-3.008400	3.053300	-9.183900	27.695301	0.000264	20.790658
2534.706051	-3.006700	3.050900	-9.172000	27.681435	0.000261	20.787610
2535.750252	-3.009400	3.052300	-9.185300	27.725573	0.000264	20.776076
2536.757569	-2.998000	3.050600	-9.144000	27.761737	0.000263	20.784020
2537.739036	-2.994400	3.049600	-9.131300	27.782291	0.000263	20.780996
2538.738241	-3.012600	3.049100	-9.184400	27.796603	0.000263	20.795400
2539.755161	-2.995500	3.046900	-9.126000	27.819836	0.000261	20.780375
2540.748508	-2.998600	3.046700	-9.134100	27.812548	0.000263	20.777782
2541.747847	-2.989700	3.045800	-9.104600	27.805359	0.000263	20.754425
2542.759988	-2.998500	3.042700	-9.122400	27.781600	0.000262	20.782671
2543.738076	-2.985300	3.042500	-9.081100	27.770151	0.000262	20.776840
2544.731601	-2.982200	3.040500	-9.066600	27.794504	0.000261	20.780011
2545.753336	-3.023900	3.040600	-9.193200	27.811141	0.000261	20.797703
2546.763431	-2.995000	3.038800	-9.099500	27.835616	0.000263	20.779186
2547.750870	-3.025500	3.037200	-9.188700	27.789817	0.000263	20.796157
2548.751972	-3.005600	3.038400	-9.130900	27.766957	0.000261	20.784057
2549.752802	-2.993000	3.036000	-9.085900	27.757216	0.000261	20.776624
2550.740489	-2.998500	3.035100	-9.099300	27.696311	0.000263	20.794519
2551.762933	-3.005600	3.033200	-9.115700	27.697076	0.000261	20.783435
2552.756804	-3.012200	3.033100	-9.135600	27.728945	0.000263	20.800332
2553.754997	-3.003700	3.033100	-9.109100	27.791910	0.000260	20.777400
2554.746651	-2.981200	3.030600	-9.034200	27.826156	0.000260	20.809021
2555.745777	-2.993300	3.030100	-9.068900	27.883015	0.000260	20.815511
2556.748226	-3.008700	3.028700	-9.110100	27.937760	0.000260	20.799489
2557.756699	-2.987100	3.026000	-9.037300	27.958311	0.000261	20.788879
2558.753522	-3.008000	3.026000	-9.100700	27.942539	0.000261	20.808565
2559.748315	-2.997400	3.024500	-9.065300	27.950009	0.000260	20.800911
2560.758262	-3.023800	3.022800	-9.139400	27.913637	0.000261	20.785166
2561.730570	-3.016900	3.022500	-9.117100	27.872106	0.000260	20.801213
2562.718310	-3.006400	3.020200	-9.079300	27.883633	0.000259	20.814237
2563.714142	-2.971200	3.019400	-8.970300	27.852222	0.000259	20.803011
2564.712794	-2.988400	3.018600	-9.019100	27.817138	0.000258	20.814643
2565.721274	-3.002700	3.016500	-9.056600	27.810064	0.000260	20.791403
2566.737322	-3.009700	3.015200	-9.073700	27.795367	0.000260	20.805062
2567.764430	-2.989400	3.014300	-9.010000	27.821978	0.000260	20.818566
2568.751154	-3.017300	3.013900	-9.092000	27.879399	0.000260	20.802863
2569.753308	-3.020200	3.010500	-9.091100	27.899657	0.000261	20.820407
2570.756484	-2.971100	3.011100	-8.945700	27.905439	0.000260	20.816269
2571.756616	-3.003700	3.009600	-9.039100	27.956194	0.000259	20.801447
2572.754652	-2.996900	3.008500	-9.014900	27.970901	0.000261	20.804397
2573.771000	-3.003300	3.006100	-9.026900	27.992497	0.000258	20.797685
2574.749669	-3.001200	3.005300	-9.018100	28.033723	0.000261	20.798405
2575.751889	-2.995300	3.004400	-8.998500	28.026761	0.000261	20.806096
2576.752515	-3.000600	3.004100	-9.011500	28.024651	0.000259	20.808239
2577.756727	-3.003200	3.003100	-9.018400	27.987933	0.000261	20.813479
2578.770398	-3.004900	2.999300	-9.010400	27.926669	0.000261	20.805394
2579.752304	-3.011100	2.999800	-9.031400	27.914078	0.000261	20.813110
2580.761453	-3.014200	2.998300	-9.036800	27.902869	0.000260	20.813683
2581.767102	-3.021700	2.995500	-9.050200	27.887323	0.000260	20.810838
2582.765437	-3.026600	2.996500	-9.068500	27.864936	0.000260	20.820074
2583.783289	-3.006400	2.994000	-9.001000	27.910682	0.000258	20.826287
2584.760377	-2.973000	2.994200	-8.900900	27.939223	0.000259	20.803806
2585.758430	-3.004300	2.991900	-8.986700	27.963266	0.000260	20.823264
2586.713820	-3.002700	2.991500	-8.980400	27.972969	0.000260	20.835401
2587.737320	-2.992200	2.989800	-8.944500	27.977674	0.000258	20.824489
2588.730909	-2.982500	2.988000	-8.910700	28.043003	0.000258	20.821497
2589.730558	-2.975000	2.988000	-8.888400	28.020020	0.000260	20.831078
2590.741996	-2.976900	2.985900	-8.888300	28.038415	0.000259	20.818301
2591.734453	-3.026000	2.982500	-9.023600	28.010795	0.000257	20.833172
2592.740843	-3.038500	2.981200	-9.056700	27.999911	0.000260	20.830278
2593.735910	-2.998600	2.981200	-8.939000	27.970387	0.000259	20.819052
2594.737380	-3.006600	2.980000	-8.958900	27.975000	0.000259	20.814686
2595.717910	-3.020500	2.978600	-8.995800	27.992601	0.000260	20.821023
2596.755934	-3.013000	2.976600	-8.967700	27.986899	0.000256	20.817180
2597.731087	-2.988500	2.975600	-8.889200	27.996718	0.000257	20.817106
2598.739895	-2.989300	2.974800	-8.891500	27.993372	0.000259	20.836497
2599.735233	-2.994100	2.972900	-8.900300	28.045358	0.000258	20.833350
2600.763730	-2.986400	2.973000	-8.877400	28.061520	0.000258	20.809791
2601.736805	-2.991900	2.970500	-8.886200	28.053146	0.000259	20.832180
2602.758955	-3.010900	2.969100	-8.938200	28.087035	0.000257	20.818406
2603.762315	-3.004600	2.967300	-8.914900	28.129683	0.000260	20.832414
2604.758474	-3.000800	2.966600	-8.900800	28.133047	0.000257	20.822051
2605.763491	-2.990400	2.963800	-8.862400	28.168751	0.000258	20.812002
2606.762491	-3.003100	2.962000	-8.894400	28.126062	0.000257	20.843467
2607.756939	-3.024300	2.960400	-8.952500	28.094309	0.000259	20.839477
2608.755255	-2.999700	2.959000	-8.875600	28.082233	0.000258	20.844391
2609.740574	-3.004400	2.958400	-8.887000	28.099991	0.000256	20.822913
2610.738735	-3.035000	2.955800	-8.970200	28.104396	0.000259	20.850105
2611.736037	-3.012600	2.954400	-8.899500	28.075443	0.000258	20.838979
2612.744692	-3.003300	2.951600	-8.862900	28.038091	0.000258	20.826509
2613.751363	-2.997000	2.954000	-8.851800	28.003698	0.000258	20.843098
2614.752992	-3.008200	2.951800	-8.878100	28.037816	0.000259	20.834293
2615.720113	-2.993100	2.949400	-8.827100	28.071834	0.000258	20.851466
2616.749366	-2.999700	2.947900	-8.841800	28.127114	0.000259	20.832673
2617.751684	-2.991600	2.947500	-8.816700	28.115761	0.000257	20.839262
2618.745041	-2.987100	2.945400	-8.795800	28.127194	0.000257	20.847926
2619.748250	-3.034400	2.942800	-8.927600	28.130833	0.000259	20.854908
2620.753420	-3.002400	2.942000	-8.832500	28.141299	0.000257	20.861651
2621.754217	-3.000900	2.940900	-8.824500	28.177290	0.000257	20.850469
2622.746867	-2.990700	2.939800	-8.790400	28.186018	0.000258	20.854514
2623.749261	-3.034300	2.936200	-8.908300	28.166439	0.000259	20.841442
2624.738066	-3.011400	2.935900	-8.839800	28.173577	0.000257	20.845309
2625.755612	-3.029100	2.932400	-8.881000	28.211059	0.000258	20.862180
2626.761872	-3.017100	2.933400	-8.849400	28.247690	0.000257	20.864920
2627.766407	-2.953500	2.934100	-8.665700	28.200429	0.000257	20.868073
2628.764894	-3.040200	2.927900	-8.900600	28.160518	0.000254	20.839274
2629.784790	-3.000600	2.928700	-8.786900	28.106971	0.000257	20.840370
2630.760666	-2.979900	2.927800	-8.723700	28.116691	0.000258	20.846836
2631.770211	-2.992200	2.924600	-8.750100	28.168378	0.000257	20.849558
2632.782847	-3.008600	2.923200	-8.793500	28.184293	0.000256	20.859890
2633.779603	-2.998800	2.922100	-8.761800	28.160494	0.000256	20.867698
2634.765052	-3.012000	2.919800	-8.793100	28.129757	0.000256	20.829644
2635.759953	-3.018000	2.918000	-8.805600	28.151845	0.000256	20.857569
2636.763890	-3.006000	2.916400	-8.765300	28.144878	0.000256	20.876158
2637.765830	-3.018100	2.914800	-8.795800	28.214839	0.000256	20.882106
2638.771872	-2.994800	2.913000	-8.723300	28.219494	0.000254	20.886792
2639.779217	-2.988000	2.913900	-8.705700	28.218313	0.000257	20.878966
2640.767319	-2.995400	2.911200	-8.718400	28.207157	0.000256	20.865838
2641.774222	-3.018400	2.908400	-8.777400	28.225592	0.000257	20.864958
2642.773957	-3.004900	2.907200	-8.734700	28.241188	0.000256	20.852686
2643.774494	-2.975300	2.906700	-8.647400	28.248277	0.000256	20.865986
2644.779319	-2.996500	2.904100	-8.700900	28.271011	0.000255	20.863271
2645.766585	-3.015800	2.900100	-8.744400	28.268723	0.000257	20.865709
2646.763943	-2.967300	2.901000	-8.606100	28.315816	0.000256	20.853382
2647.770183	-3.000500	2.898300	-8.694500	28.343893	0.000256	20.856522
2648.775463	-3.005600	2.897200	-8.706900	28.373615	0.000254	20.858474
2649.774607	-3.012300	2.895000	-8.719400	28.396755	0.000255	20.864231
2650.746646	-2.997900	2.894800	-8.677800	28.382604	0.000257	20.861836
2651.744467	-2.992900	2.891000	-8.651500	28.341270	0.000253	20.855303
2652.748940	-2.989500	2.890900	-8.641700	28.376899	0.000257	20.864151
2653.752690	-2.995500	2.887400	-8.648100	28.342774	0.000256	20.866774
2654.750369	-3.007700	2.886000	-8.679200	28.263041	0.000256	20.849558
2655.746047	-2.996200	2.884500	-8.641400	28.239439	0.000256	20.856140
2656.744300	-2.997900	2.881700	-8.638800	28.202881	0.000256	20.837827
2657.748058	-2.983600	2.881700	-8.596100	28.219512	0.000257	20.836553
2658.745586	-3.015800	2.876800	-8.674300	28.259965	0.000256	20.836503
2659.746932	-2.994200	2.877600	-8.614800	28.268240	0.000256	20.853369
2660.760934	-3.028000	2.873000	-8.698600	28.209304	0.000258	20.857569
2661.753268	-2.995600	2.872800	-8.604500	28.212796	0.000255	20.848757
2662.764819	-3.044200	2.869300	-8.733300	28.205359	0.000254	20.835580
2663.743979	-2.989800	2.869300	-8.577700	28.168029	0.000256	20.843043
2664.735215	-3.015300	2.867100	-8.643300	28.133769	0.000255	20.838899
2665.735719	-2.987700	2.865700	-8.559600	28.110868	0.000255	20.852353
2666.738985	-2.997100	2.861700	-8.576500	28.120581	0.000254	20.860235
2667.755269	-3.014000	2.859700	-8.618100	28.172390	0.000258	20.834157
2668.737044	-2.978800	2.860300	-8.517900	28.225738	0.000256	20.831916
2669.736245	-3.020700	2.854900	-8.622300	28.292313	0.000256	20.852950
2670.737605	-2.994300	2.855100	-8.548400	28.314721	0.000255	20.849909
2671.740695	-2.988900	2.851900	-8.523500	28.335343	0.000255	20.823733
2672.749542	-2.985000	2.851500	-8.510400	28.371854	0.000257	20.843425
2673.777297	-3.005300	2.848700	-8.560200	28.388066	0.000254	20.830826
2674.777609	-2.987300	2.847400	-8.504000	28.353489	0.000254	20.842476
2675.781265	-2.997300	2.844600	-8.524900	28.283102	0.000254	20.825186
2676.773468	-2.995500	2.842300	-8.513500	28.293799	0.000255	20.825524
2677.783322	-3.012800	2.839300	-8.552900	28.294251	0.000253	20.829773
2678.772240	-3.006200	2.839400	-8.534200	28.301389	0.000254	20.837907
2679.780528	-2.992600	2.837200	-8.488700	28.259506	0.000253	20.857378
2680.784262	-2.976100	2.835000	-8.436600	28.249733	0.000254	20.818141
2681.785461	-2.992000	2.831900	-8.471900	28.258558	0.000255	20.816596
2682.759823	-2.990800	2.830200	-8.463200	28.279757	0.000256	20.814705
2683.768379	-2.999700	2.827400	-8.480300	28.334506	0.000256	20.842803
2684.766912	-3.031900	2.823400	-8.559400	28.381076	0.000256	20.823788
2685.757588	-2.958200	2.823300	-8.351100	28.437410	0.000257	20.830254
2686.765460	-3.003800	2.819200	-8.467200	28.446252	0.000254	20.831571
2687.769307	-2.991500	2.819200	-8.432800	28.499415	0.000256	20.813037
2688.770538	-2.990500	2.817600	-8.425200	28.503701	0.000255	20.803129
2689.764340	-3.005500	2.814300	-8.457700	28.494511	0.000255	20.811891
2690.767071	-3.027100	2.811500	-8.509300	28.532789	0.000257	20.821990
2691.756658	-3.031300	2.807500	-8.509600	28.516836	0.000256	20.802605
2692.780423	-3.027300	2.805500	-8.491100	28.480832	0.000255	20.796220
2693.767013	-3.020900	2.803800	-8.468700	28.473317	0.000256	20.829903
2694.767012	-3.026100	2.801300	-8.476300	28.483755	0.000256	20.796318
2695.783075	-2.977800	2.799700	-8.335100	28.484721	0.000255	20.829533
2696.769180	-2.988300	2.797100	-8.357800	28.513546	0.000255	20.819681
2697.792936	-2.996600	2.793600	-8.369600	28.539637	0.000258	20.792852
2698.789420	-2.985300	2.791500	-8.332100	28.574024	0.000256	20.808517
2699.785782	-2.968200	2.789600	-8.279000	28.555834	0.000256	20.790671
2700.775399	-2.991600	2.787500	-8.338500	28.583391	0.000257	20.789502
2701.795977	-3.009000	2.783400	-8.374700	28.588002	0.000257	20.831602
2702.779517	-2.985000	2.780200	-8.298000	28.599991	0.000256	20.819022
2703.796080	-3.006400	2.778100	-8.350600	28.616493	0.000257	20.813831
2704.793412	-3.019400	2.774200	-8.375800	28.650347	0.000256	20.799089
2705.793279	-3.035000	2.771000	-8.408700	28.693876	0.000255	20.787457
2706.790245	-2.976100	2.771600	-8.247200	28.715231	0.000255	20.817027
2707.795102	-2.995800	2.766500	-8.286800	28.731493	0.000257	20.813493
2708.766801	-3.004000	2.764700	-8.304400	28.752468	0.000255	20.787679
2709.769610	-3.004200	2.761000	-8.294000	28.742436	0.000257	20.821196
2710.766471	-3.004500	2.757200	-8.283400	28.773754	0.000256	20.820974
2711.768836	-3.007400	2.754000	-8.281100	28.790076	0.000257	20.804225
2712.766200	-2.980500	2.752900	-8.203600	28.813562	0.000257	20.798960
2713.776920	-3.033400	2.747300	-8.332400	28.819290	0.000255	20.816110
2714.790269	-2.988900	2.745100	-8.203900	28.842946	0.000254	20.789206
2715.805533	-3.014900	2.741900	-8.265300	28.810787	0.000256	20.793794
2716.755650	-3.008900	2.739000	-8.240700	28.779280	0.000255	20.799514
2717.753910	-2.993300	2.735400	-8.186200	28.791989	0.000254	20.818480
2718.750644	-2.997300	2.733100	-8.191000	28.785075	0.000256	20.789705
2719.751052	-3.009800	2.729200	-8.213400	28.795651	0.000256	20.799884
2720.754652	-3.007400	2.726100	-8.195900	28.804796	0.000256	20.788707
2721.788458	-2.985700	2.724200	-8.131800	28.830538	0.000256	20.801836
2722.796999	-2.991500	2.719400	-8.133500	28.824321	0.000256	20.779452
2723.794644	-3.000000	2.715800	-8.146100	28.782331	0.000256	20.801165
2724.792630	-3.009100	2.710900	-8.156100	28.731566	0.000254	20.798868
2725.779377	-3.028100	2.708000	-8.197300	28.715042	0.000256	20.783171
2726.755285	-3.014200	2.705700	-8.154500	28.750762	0.000255	20.777426
2727.757871	-3.028100	2.700200	-8.175100	28.735326	0.000256	20.785111
2728.752173	-3.021400	2.696800	-8.147600	28.715188	0.000254	20.795173
2729.758997	-3.007000	2.695300	-8.104000	28.708402	0.000254	20.783596
2730.756151	-3.049200	2.688900	-8.197900	28.678672	0.000255	20.784471
2731.754998	-2.999300	2.686200	-8.055900	28.644752	0.000253	20.770221
2732.754529	-3.014500	2.681900	-8.083200	28.614922	0.000257	20.772420
2733.789099	-2.986900	2.679400	-8.002400	28.610685	0.000257	20.769575
2734.800273	-3.001300	2.675400	-8.029100	28.562615	0.000253	20.797975
2735.792597	-3.003000	2.671800	-8.022200	28.519624	0.000253	20.772697
2736.774195	-2.969200	2.667900	-7.919900	28.527579	0.000256	20.776915
2737.780413	-2.991600	2.663000	-7.965900	28.520664	0.000256	20.784175
2738.760581	-2.975400	2.658200	-7.908400	28.499476	0.000256	20.794607
2739.756782	-2.999200	2.653600	-7.957800	28.465997	0.000254	20.774169
2740.757163	-3.012200	2.650800	-7.983700	28.473293	0.000256	20.786257
2741.760347	-2.986800	2.645700	-7.901500	28.524143	0.000254	20.772980
2742.758890	-3.008900	2.642600	-7.950400	28.587305	0.000255	20.764519
2743.758258	-3.015100	2.637000	-7.949900	28.643530	0.000256	20.786060
2744.758260	-2.997200	2.632600	-7.889000	28.718533	0.000255	20.771989
2745.756824	-3.016000	2.627200	-7.922800	28.787179	0.000254	20.778547
2746.763234	-3.010700	2.624100	-7.899100	28.805023	0.000254	20.764753
2747.764518	-2.983000	2.619100	-7.811700	28.844408	0.000255	20.776928
2748.763734	-3.010700	2.614000	-7.868900	28.885729	0.000255	20.771613
2749.763970	-3.005700	2.609300	-7.841400	28.900100	0.000254	20.758589
2750.762155	-3.005500	2.602500	-7.820600	28.941321	0.000254	20.796799
2751.765546	-3.024500	2.596900	-7.854200	28.972407	0.000255	20.765055
2752.770531	-2.954000	2.594200	-7.661500	28.990957	0.000255	20.762881
2753.770141	-2.975800	2.588100	-7.699200	29.013009	0.000255	20.774194
2754.765951	-3.007300	2.584100	-7.769500	29.030048	0.000254	20.773818
2755.758046	-2.963300	2.579900	-7.644000	28.999880	0.000257	20.790364
2756.763563	-3.001600	2.573200	-7.720700	29.039631	0.000255	20.758343
2757.768762	-3.035300	2.565800	-7.787000	29.065318	0.000255	20.770948
2758.761396	-3.001300	2.561400	-7.685800	29.104034	0.000255	20.750214
2759.763200	-3.018900	2.554700	-7.711300	29.153540	0.000255	20.765961
2760.761565	-2.980700	2.552100	-7.605500	29.171420	0.000255	20.765012
2761.763560	-2.993100	2.543800	-7.611900	29.142919	0.000253	20.753835
2762.768002	-3.006200	2.537600	-7.627700	29.097574	0.000255	20.756034
2763.797939	-3.005800	2.530800	-7.606200	29.081452	0.000254	20.772032
2764.803595	-2.962000	2.527900	-7.486100	29.084154	0.000255	20.749623
2765.804235	-2.977700	2.520600	-7.504100	29.118181	0.000255	20.774428
2766.805612	-3.040600	2.512600	-7.638900	29.102775	0.000257	20.763645
2767.797048	-2.997700	2.507200	-7.515200	29.090791	0.000258	20.747302
2768.810699	-3.007400	2.500600	-7.519200	29.092398	0.000255	20.762198
2769.804701	-2.985400	2.497100	-7.453800	29.137798	0.000256	20.754365
