LabVIEW Measurement	
Writer_Version	2
Reader_Version	2
Separator	Tab
Decimal_Separator	.
Multi_Headings	No
X_Columns	One
Time_Pref	Absolute
Operator	admin
Description	Clolumns are: time, Current, Voltage, Power, Battery Temp, and Chamber Temp
Date	2024/08/16
Time	13:06:06.104549407958984375
***End_of_Header***	
	
Channels	6						
Samples	1	1	1	1	1	1	
Date	2024/09/03	2024/09/03	2024/09/03	2024/09/03	2024/09/03	2024/09/03	
Time	02:33:18.3704152107238769531	02:33:18.3760561943054199219	02:33:18.3820981979370117187	02:33:18.3548560142517089844	02:33:18.3548560142517089844	02:33:18.3548560142517089844	
X_Dimension	Time	Time	Time	Time	Time	Time	
X0	0.0000000000000000E+0	0.0000000000000000E+0	0.0000000000000000E+0	0.0000000000000000E+0	0.0000000000000000E+0	0.0000000000000000E+0	
Delta_X	1.000000	1.000000	1.000000	1.000000	1.000000	1.000000	
***End_of_Header***							
X_Value	Untitled	Untitled 1	Untitled 2	Untitled 3	Untitled 4	Untitled 5	Comment
0.000000	0.023416	4.104200	0.096114	21.114297	0.000945	20.866356
1.003232	-3.009100	3.936200	-11.843000	21.113579	0.000945	20.875594
2.003263	-3.010600	3.928800	-11.827000	21.119074	0.000944	20.859281
3.001772	-3.019200	3.923500	-11.846000	21.109696	0.000943	20.875978
4.001328	-2.998300	3.918800	-11.748000	21.099832	0.000943	20.863741
5.002209	-2.999900	3.915100	-11.744000	21.097090	0.000945	20.885179
6.005282	-3.003300	3.914200	-11.755000	21.123982	0.000941	20.851862
7.004490	-2.990700	3.910600	-11.695000	21.111825	0.000940	20.879529
8.000209	-3.013400	3.908000	-11.775000	21.113130	0.000940	20.877516
9.000230	-3.012700	3.905400	-11.764000	21.141572	0.000941	20.869456
10.001225	-3.007800	3.903500	-11.740000	21.125725	0.000939	20.844123
11.006006	-3.009600	3.902200	-11.743000	21.126290	0.000937	20.867446
12.004854	-2.992500	3.900800	-11.672000	21.129287	0.000936	20.857169
13.001806	-3.003800	3.899400	-11.713000	21.141739	0.000937	20.864408
14.007308	-3.001100	3.898300	-11.698000	21.126173	0.000935	20.866856
15.005941	-3.006400	3.897200	-11.716000	21.128711	0.000935	20.860385
16.003879	-3.004100	3.895700	-11.702000	21.139369	0.000935	20.868201
17.005374	-3.003100	3.894600	-11.695000	21.146031	0.000932	20.881502
18.003305	-2.989200	3.893200	-11.636000	21.138421	0.000934	20.852555
19.001927	-3.019700	3.892600	-11.754000	21.139139	0.000931	20.864653
20.002624	-3.001700	3.892000	-11.681000	21.171116	0.000932	20.857285
21.003165	-3.008400	3.889900	-11.700000	21.186423	0.000934	20.852209
22.008921	-3.004700	3.889400	-11.685000	21.162737	0.000931	20.858387
23.007036	-2.991400	3.890500	-11.637000	21.189358	0.000932	20.858938
24.005790	-2.994900	3.888000	-11.644000	21.193445	0.000931	20.862078
25.005876	-2.990900	3.887200	-11.626000	21.178008	0.000929	20.852799
26.005797	-2.996100	3.887700	-11.647000	21.182044	0.000928	20.851147
27.006681	-3.006400	3.886700	-11.684000	21.201656	0.000926	20.848481
28.010501	-2.999800	3.885100	-11.654000	21.189755	0.000928	20.845111
29.008227	-2.994200	3.884400	-11.630000	21.190164	0.000927	20.858321
30.017556	-3.002600	3.883700	-11.660000	21.214709	0.000927	20.850159
31.009069	-3.006300	3.884400	-11.676000	21.227802	0.000926	20.856144
32.006961	-3.003500	3.884000	-11.665000	21.235309	0.000927	20.852748
33.012505	-2.991700	3.882700	-11.614000	21.219091	0.000924	20.841267
34.006761	-2.985500	3.882600	-11.591000	21.235681	0.000924	20.874456
35.009341	-2.998700	3.881000	-11.637000	21.224995	0.000925	20.841957
36.008973	-3.016300	3.879500	-11.698000	21.239972	0.000923	20.852198
37.008126	-3.004800	3.879700	-11.657000	21.238368	0.000924	20.848697
38.011872	-3.016300	3.879100	-11.699000	21.259467	0.000924	20.842303
39.010626	-2.996000	3.878400	-11.619000	21.252128	0.000923	20.849185
40.008643	-2.975000	3.880000	-11.542000	21.258340	0.000923	20.858719
41.009849	-3.019300	3.877500	-11.704000	21.284612	0.000922	20.847544
42.010894	-2.981900	3.879300	-11.566000	21.281422	0.000920	20.850517
43.011238	-3.005900	3.875300	-11.648000	21.287649	0.000922	20.846315
44.010385	-3.010800	3.877600	-11.674000	21.288634	0.000920	20.835447
45.011551	-3.012300	3.874600	-11.670000	21.298524	0.000920	20.860513
46.015832	-2.991000	3.876500	-11.594000	21.311616	0.000920	20.838524
47.011738	-2.977900	3.875500	-11.540000	21.309976	0.000922	20.841625
48.013719	-3.006700	3.875200	-11.651000	21.309527	0.000918	20.833590
49.017136	-3.001900	3.875500	-11.633000	21.327358	0.000921	20.860437
50.012683	-2.991800	3.875000	-11.593000	21.335761	0.000918	20.850352
51.018795	-3.000400	3.873200	-11.619000	21.341934	0.000919	20.836613
52.012783	-3.001000	3.873600	-11.622000	21.352130	0.000919	20.848237
53.012654	-2.975700	3.873400	-11.525000	21.361904	0.000917	20.842368
54.012099	-2.976300	3.873300	-11.527000	21.353720	0.000919	20.824698
55.016713	-3.027000	3.872400	-11.720000	21.377416	0.000918	20.838448
56.015319	-3.027500	3.871200	-11.718000	21.388702	0.000918	20.845472
57.014097	-3.028600	3.871700	-11.724000	21.373190	0.000921	20.835643
58.015202	-2.996900	3.872300	-11.604000	21.396179	0.000917	20.836832
59.013917	-3.010300	3.870700	-11.651000	21.393273	0.000917	20.835347
60.019202	-3.003300	3.870200	-11.622000	21.404264	0.000918	20.847766
61.019117	-2.990000	3.870800	-11.572000	21.399769	0.000919	20.817665
62.019365	-2.986200	3.873000	-11.564000	21.423476	0.000917	20.844702
63.017135	-3.002400	3.869500	-11.616000	21.422145	0.000917	20.835785
64.017179	-2.996000	3.871000	-11.596000	21.437528	0.000916	20.846908
65.018155	-2.997200	3.868600	-11.594000	21.435556	0.000916	20.862478
66.023265	-3.007100	3.869300	-11.634000	21.427934	0.000914	20.844895
67.018619	-3.006600	3.869000	-11.632000	21.449222	0.000916	20.817833
68.019303	-2.993400	3.868600	-11.579000	21.441767	0.000918	20.814167
69.019458	-2.984200	3.868600	-11.543000	21.453564	0.000915	20.822651
70.019685	-3.003600	3.868200	-11.617000	21.459713	0.000915	20.832596
71.020958	-3.000500	3.867700	-11.603000	21.477399	0.000916	20.837017
72.020062	-2.983400	3.868800	-11.541000	21.459982	0.000917	20.822435
73.018337	-3.007300	3.865900	-11.625000	21.478489	0.000914	20.835737
74.021002	-3.025700	3.865600	-11.694000	21.496456	0.000915	20.838067
75.019861	-3.004900	3.867100	-11.619000	21.486815	0.000916	20.824627
76.023457	-3.007500	3.864000	-11.621000	21.488787	0.000913	20.827074
77.019574	-2.999700	3.866300	-11.597000	21.508766	0.000917	20.834263
78.022318	-3.004700	3.867400	-11.620000	21.512327	0.000916	20.819809
79.020854	-3.015600	3.864100	-11.652000	21.504348	0.000915	20.823205
80.020603	-2.977900	3.865600	-11.510000	21.522508	0.000917	20.811030
81.022773	-2.968500	3.866600	-11.477000	21.506615	0.000915	20.815990
82.023392	-3.014000	3.862800	-11.641000	21.532473	0.000914	20.822898
83.023152	-2.978400	3.864100	-11.508000	21.560852	0.000917	20.824269
84.025828	-3.014200	3.864000	-11.646000	21.560328	0.000915	20.832279
85.021870	-3.013700	3.862900	-11.641000	21.576631	0.000917	20.809713
86.022389	-2.996000	3.863800	-11.575000	21.591076	0.000914	20.814684
87.025326	-3.001200	3.861900	-11.590000	21.579667	0.000916	20.818915
88.022348	-3.019500	3.861000	-11.657000	21.581511	0.000915	20.821708
89.028113	-2.982300	3.862600	-11.518000	21.585776	0.000914	20.819338
90.024240	-2.998200	3.862400	-11.580000	21.565631	0.000915	20.798231
91.022888	-2.987300	3.862100	-11.535000	21.575337	0.000915	20.813160
92.029336	-2.996100	3.861300	-11.568000	21.603038	0.000914	20.826654
93.023510	-3.008000	3.862900	-11.619000	21.603424	0.000915	20.803333
94.024289	-2.995400	3.862400	-11.568000	21.611311	0.000916	20.826399
95.024354	-3.011100	3.860100	-11.621000	21.631019	0.000915	20.808188
96.024634	-3.005000	3.860400	-11.600000	21.622388	0.000915	20.810457
97.024708	-3.007500	3.861200	-11.611000	21.648961	0.000917	20.821402
98.028238	-3.003000	3.860900	-11.593000	21.631813	0.000916	20.808983
99.023899	-3.011700	3.860300	-11.624000	21.627061	0.000917	20.817029
100.025670	-3.019400	3.860100	-11.654000	21.636974	0.000918	20.804191
101.025528	-2.993500	3.860900	-11.555000	21.639317	0.000915	20.809381
102.024113	-2.994300	3.859300	-11.554000	21.637550	0.000917	20.791491
103.030517	-3.002700	3.859700	-11.588000	21.672367	0.000915	20.818273
104.025338	-2.987900	3.860400	-11.533000	21.685043	0.000918	20.808199
105.026110	-3.011400	3.856800	-11.612000	21.684161	0.000917	20.813480
106.027028	-3.003300	3.860600	-11.593000	21.691730	0.000916	20.803512
107.026882	-2.999900	3.858400	-11.573000	21.705725	0.000917	20.810880
108.029558	-3.008300	3.857600	-11.604000	21.711615	0.000917	20.803498
109.026312	-3.007500	3.858600	-11.603000	21.719516	0.000916	20.796706
110.029730	-3.000200	3.857900	-11.572000	21.744279	0.000916	20.801576
111.027938	-3.014200	3.856500	-11.624000	21.735701	0.000916	20.801050
112.027617	-3.003700	3.858000	-11.586000	21.748864	0.000917	20.813276
113.029497	-2.995700	3.856400	-11.551000	21.755522	0.000918	20.806664
114.032058	-3.009400	3.856800	-11.605000	21.743153	0.000917	20.799974
115.029126	-2.992200	3.855900	-11.535000	21.752628	0.000917	20.793810
116.028060	-2.992900	3.857000	-11.542000	21.753948	0.000916	20.783277
117.031840	-3.014600	3.855100	-11.620000	21.751670	0.000916	20.823196
118.027942	-3.002000	3.856100	-11.575000	21.770453	0.000915	20.813072
119.035227	-2.996600	3.855700	-11.553000	21.783488	0.000917	20.791505
120.035290	-2.977400	3.856500	-11.481000	21.793808	0.000920	20.800412
121.035345	-3.043600	3.854700	-11.732000	21.778251	0.000919	20.789109
122.030237	-3.014100	3.855500	-11.620000	21.792438	0.000917	20.806153
123.029397	-3.009200	3.854800	-11.599000	21.780543	0.000918	20.806576
124.033577	-3.036300	3.854500	-11.702000	21.802707	0.000919	20.789404
125.031540	-2.997000	3.855100	-11.553000	21.799788	0.000919	20.788379
126.031437	-2.998100	3.854900	-11.555000	21.801978	0.000918	20.794838
127.031353	-2.984800	3.854700	-11.505000	21.785718	0.000919	20.770029
128.031579	-2.988000	3.854500	-11.517000	21.790991	0.000920	20.766772
129.031704	-2.989300	3.854400	-11.522000	21.791530	0.000919	20.787226
130.037785	-2.995700	3.855300	-11.548000	21.806114	0.000920	20.787124
131.036519	-2.985500	3.854300	-11.506000	21.775474	0.000922	20.802924
132.034660	-2.991400	3.855000	-11.531000	21.808982	0.000919	20.789520
133.032111	-2.990800	3.853000	-11.523000	21.790517	0.000920	20.788109
134.035118	-2.965300	3.853900	-11.427000	21.803016	0.000920	20.802516
135.036545	-3.004200	3.852500	-11.573000	21.825359	0.000920	20.780307
136.035604	-3.032800	3.852100	-11.681000	21.836958	0.000920	20.798081
137.039681	-2.995400	3.853000	-11.539000	21.856971	0.000921	20.792033
138.040386	-2.995300	3.852500	-11.539000	21.866084	0.000920	20.773180
139.033762	-3.007100	3.852200	-11.583000	21.859671	0.000921	20.770080
140.036563	-3.020000	3.850700	-11.627000	21.893497	0.000923	20.767428
141.035014	-3.025000	3.850000	-11.645000	21.880103	0.000922	20.789583
142.035491	-2.986100	3.852500	-11.502000	21.891934	0.000920	20.779614
143.036049	-3.018200	3.851600	-11.624000	21.880551	0.000923	20.759685
144.034513	-3.011900	3.850800	-11.597000	21.922353	0.000922	20.791096
145.035786	-2.997600	3.850800	-11.542000	21.902163	0.000922	20.792697
146.039901	-2.993100	3.850200	-11.523000	21.923862	0.000923	20.776959
147.038346	-2.979300	3.851900	-11.475000	21.968759	0.000923	20.781125
148.040534	-3.005600	3.848700	-11.567000	21.962205	0.000925	20.783098
149.039425	-2.996100	3.850600	-11.536000	21.928613	0.000922	20.768439
150.041681	-3.014600	3.849400	-11.604000	21.974764	0.000923	20.777178
151.043005	-3.021700	3.848100	-11.626000	21.969346	0.000925	20.776022
152.041163	-3.002200	3.850100	-11.558000	21.975249	0.000923	20.766758
153.041642	-2.996400	3.850100	-11.535000	21.973624	0.000927	20.783149
154.040327	-2.992100	3.849800	-11.518000	21.981151	0.000926	20.757967
155.053165	-3.014500	3.849000	-11.602000	21.965378	0.000926	20.772998
156.040796	-2.975700	3.848700	-11.451000	21.981432	0.000925	20.782431
157.043307	-2.992100	3.848500	-11.513000	21.996462	0.000926	20.766181
158.041581	-2.988900	3.848900	-11.502000	22.017558	0.000927	20.768333
159.040787	-3.001800	3.848000	-11.550000	21.984926	0.000928	20.765065
160.043211	-2.994000	3.849500	-11.524000	22.019926	0.000926	20.783507
161.042293	-3.002300	3.846300	-11.547000	22.015022	0.000928	20.776227
162.045025	-2.996100	3.847400	-11.525000	22.013000	0.000928	20.764245
163.041466	-3.020200	3.846200	-11.616000	22.024007	0.000928	20.788540
164.046838	-2.998300	3.845800	-11.529000	22.032445	0.000930	20.769960
165.043545	-3.010400	3.846500	-11.579000	22.028015	0.000929	20.766474
166.043283	-3.003500	3.846400	-11.552000	22.039637	0.000929	20.771471
167.044496	-3.016500	3.844000	-11.594000	22.025005	0.000929	20.777686
168.044586	-3.009900	3.844200	-11.568000	22.035309	0.000929	20.763819
169.044430	-3.021700	3.846200	-11.620000	22.030306	0.000930	20.777303
170.046361	-3.008200	3.845100	-11.566000	22.071076	0.000930	20.756950
171.044111	-3.011400	3.844800	-11.577000	22.042570	0.000932	20.761130
172.044148	-2.986500	3.845200	-11.483000	22.077747	0.000933	20.765525
173.048851	-2.995500	3.844100	-11.514000	22.088331	0.000932	20.776596
174.046279	-2.977500	3.844000	-11.443000	22.096677	0.000933	20.766933
175.057309	-3.022500	3.843000	-11.614000	22.093260	0.000932	20.768254
176.048101	-2.981200	3.843500	-11.458000	22.090185	0.000934	20.762331
177.047245	-2.984500	3.844300	-11.472000	22.121331	0.000933	20.772175
178.050047	-2.985700	3.843800	-11.475000	22.094987	0.000932	20.761448
179.048234	-2.997400	3.843900	-11.521000	22.098557	0.000932	20.751272
180.049668	-3.000800	3.843800	-11.534000	22.097726	0.000933	20.784580
181.049171	-2.970800	3.843600	-11.418000	22.114584	0.000934	20.756885
182.049519	-2.999000	3.842400	-11.522000	22.126872	0.000935	20.766817
183.054029	-2.992000	3.842800	-11.496000	22.128344	0.000935	20.774929
184.051705	-3.002300	3.841500	-11.532000	22.133247	0.000938	20.774622
185.053471	-2.998100	3.841000	-11.514000	22.167667	0.000936	20.762615
186.062359	-2.995800	3.842000	-11.507000	22.161328	0.000935	20.750579
187.051290	-2.999400	3.840600	-11.518000	22.171543	0.000936	20.766022
188.051140	-2.996600	3.841000	-11.508000	22.162137	0.000937	20.767984
189.052545	-2.981300	3.841000	-11.451000	22.200086	0.000936	20.786539
190.052888	-3.015500	3.840600	-11.580000	22.201379	0.000937	20.767444
191.051782	-2.985000	3.841300	-11.464000	22.202326	0.000938	20.766022
192.051482	-3.007700	3.840400	-11.549000	22.221498	0.000941	20.761036
193.057163	-2.979600	3.841400	-11.445000	22.233272	0.000939	20.776618
194.051221	-2.986400	3.839400	-11.464000	22.238558	0.000938	20.761522
195.052477	-2.995400	3.840400	-11.503000	22.224544	0.000940	20.791113
196.053227	-3.020200	3.838500	-11.592000	22.238649	0.000940	20.757819
197.055463	-3.018900	3.838800	-11.587000	22.221331	0.000939	20.766084
198.053904	-3.019700	3.838600	-11.590000	22.248670	0.000940	20.773543
199.057777	-3.000000	3.839400	-11.518000	22.246980	0.000941	20.776118
200.054020	-2.998600	3.837600	-11.506000	22.237699	0.000943	20.781998
201.054898	-3.000100	3.838900	-11.515000	22.270490	0.000941	20.764097
202.054114	-2.980400	3.839300	-11.441000	22.236190	0.000941	20.790445
203.053383	-3.003000	3.839300	-11.528000	22.253865	0.000943	20.774003
204.057919	-3.000000	3.838300	-11.513000	22.239644	0.000942	20.774937
205.054786	-2.994500	3.837500	-11.490000	22.254040	0.000945	20.764222
206.060420	-2.989000	3.837900	-11.470000	22.267249	0.000942	20.783611
207.054340	-2.991700	3.838000	-11.480000	22.279484	0.000945	20.772629
208.055060	-2.990500	3.837000	-11.474000	22.292678	0.000946	20.782047
209.058441	-2.986400	3.836900	-11.458000	22.289134	0.000945	20.783239
210.057836	-2.992600	3.836400	-11.480000	22.291731	0.000948	20.784892
211.057306	-2.991400	3.837400	-11.477000	22.310825	0.000948	20.776984
212.056844	-2.994600	3.836500	-11.487000	22.302429	0.000947	20.788018
213.057209	-2.997800	3.837300	-11.502000	22.300893	0.000948	20.804971
214.056965	-2.980500	3.836800	-11.435000	22.290500	0.000948	20.778443
215.055507	-2.996800	3.836400	-11.496000	22.320883	0.000949	20.782313
216.057498	-3.003700	3.835700	-11.520000	22.315470	0.000950	20.791592
217.057663	-2.999300	3.835500	-11.503000	22.333296	0.000950	20.763449
218.057029	-3.002800	3.834800	-11.513000	22.348460	0.000950	20.777685
219.058130	-2.992100	3.835600	-11.476000	22.345889	0.000949	20.788861
220.063077	-2.997300	3.834700	-11.493000	22.342880	0.000951	20.801495
221.058505	-2.980600	3.835700	-11.431000	22.372609	0.000951	20.801393
222.059610	-3.014500	3.833200	-11.554000	22.370752	0.000952	20.795740
223.060694	-3.004100	3.834800	-11.519000	22.362524	0.000952	20.800303
224.061031	-2.997700	3.833400	-11.489000	22.372799	0.000951	20.799213
225.062785	-2.973900	3.834700	-11.403000	22.371929	0.000953	20.786013
226.064445	-2.978200	3.834300	-11.418000	22.371852	0.000952	20.801583
227.061608	-2.992800	3.834100	-11.473000	22.391867	0.000954	20.806453
228.061996	-3.009300	3.833500	-11.534000	22.400415	0.000955	20.780400
229.061450	-2.992200	3.832600	-11.467000	22.414747	0.000953	20.791907
230.062729	-2.982400	3.831900	-11.428000	22.419213	0.000955	20.798276
231.066321	-2.979300	3.832300	-11.416000	22.423460	0.000955	20.797787
232.062439	-3.002500	3.832000	-11.504000	22.438101	0.000955	20.802018
233.068811	-2.984200	3.833400	-11.438000	22.472202	0.000956	20.795391
234.062494	-2.997800	3.832700	-11.489000	22.466495	0.000958	20.796788
235.062645	-2.997400	3.831600	-11.484000	22.456181	0.000956	20.788355
236.070133	-2.979000	3.831500	-11.412000	22.472035	0.000958	20.802336
237.062252	-3.011200	3.829900	-11.531000	22.459673	0.000958	20.803707
238.063470	-2.999100	3.829600	-11.485000	22.468043	0.000958	20.809718
239.063257	-2.979400	3.831100	-11.413000	22.489552	0.000959	20.782895
240.064447	-2.978000	3.832200	-11.412000	22.486303	0.000958	20.810936
241.065158	-3.014000	3.830400	-11.544000	22.475196	0.000959	20.805501
242.067326	-3.013500	3.830200	-11.541000	22.473815	0.000961	20.819291
243.063771	-3.000200	3.829400	-11.488000	22.469143	0.000960	20.798017
244.063814	-3.003400	3.829000	-11.498000	22.445036	0.000963	20.826032
245.064945	-2.991300	3.830800	-11.458000	22.471896	0.000962	20.796981
246.064704	-3.001500	3.828900	-11.491000	22.482246	0.000963	20.802131
247.067729	-3.003800	3.830100	-11.504000	22.476106	0.000962	20.814473
248.065263	-3.007400	3.828100	-11.512000	22.500878	0.000962	20.783333
249.068198	-2.992400	3.829400	-11.458000	22.502784	0.000964	20.817483
250.064946	-3.009800	3.828700	-11.522000	22.492586	0.000965	20.810115
251.066382	-3.037100	3.827500	-11.623000	22.510526	0.000965	20.809590
252.066926	-3.018900	3.828400	-11.557000	22.521044	0.000964	20.819649
253.069566	-3.028100	3.827100	-11.587000	22.546340	0.000965	20.812741
254.065413	-3.004700	3.828200	-11.501000	22.552673	0.000966	20.802015
255.067374	-3.003100	3.828200	-11.494000	22.555054	0.000965	20.820995
256.065165	-3.013700	3.827800	-11.534000	22.545036	0.000965	20.813332
257.066380	-2.983800	3.828200	-11.422000	22.556639	0.000968	20.838703
258.068794	-3.009100	3.824700	-11.508000	22.585954	0.000968	20.807847
259.064697	-3.004800	3.827300	-11.499000	22.608267	0.000967	20.834935
260.071620	-3.002900	3.825600	-11.487000	22.595062	0.000966	20.819814
261.065581	-3.004100	3.824800	-11.489000	22.620102	0.000970	20.826401
262.065637	-2.992000	3.826800	-11.449000	22.624119	0.000968	20.838010
263.069747	-2.981600	3.826700	-11.409000	22.626063	0.000969	20.812932
264.066075	-2.996600	3.824800	-11.460000	22.595933	0.000969	20.825427
265.064745	-3.004600	3.824300	-11.488000	22.608048	0.000972	20.821915
266.067183	-3.019800	3.825000	-11.548000	22.607396	0.000972	20.833589
267.068985	-3.014600	3.824600	-11.528000	22.613704	0.000971	20.813829
268.066433	-3.005000	3.825000	-11.493000	22.601665	0.000973	20.828797
269.069176	-2.995300	3.825100	-11.457000	22.605234	0.000973	20.837113
270.065135	-2.993200	3.825100	-11.447000	22.601151	0.000972	20.826861
271.067063	-3.012500	3.824600	-11.520000	22.608686	0.000975	20.841519
272.068238	-3.024800	3.823200	-11.563000	22.597415	0.000974	20.824541
273.069269	-3.002400	3.823100	-11.477000	22.603453	0.000975	20.841494
274.067485	-3.002900	3.823400	-11.480000	22.613191	0.000976	20.817108
275.068546	-2.992600	3.823700	-11.439000	22.640673	0.000975	20.812866
276.068618	-3.026200	3.821900	-11.565000	22.635965	0.000977	20.828539
277.069870	-3.006700	3.822600	-11.493000	22.662001	0.000975	20.826642
278.074527	-2.994200	3.821300	-11.439000	22.662129	0.000976	20.831985
279.074816	-2.979400	3.822200	-11.387000	22.695636	0.000978	20.838995
280.071458	-2.994200	3.820100	-11.437000	22.691722	0.000978	20.828436
281.070993	-2.985700	3.821400	-11.409000	22.715656	0.000978	20.839608
282.072056	-2.990500	3.822100	-11.430000	22.728170	0.000978	20.846454
283.073474	-2.989900	3.821500	-11.425000	22.729321	0.000982	20.837649
284.075896	-2.992800	3.821500	-11.435000	22.722450	0.000981	20.835983
285.072508	-2.970600	3.820600	-11.348000	22.720838	0.000981	20.834367
286.076231	-2.979300	3.821100	-11.384000	22.748485	0.000979	20.856371
287.073091	-2.991800	3.820300	-11.428000	22.746617	0.000981	20.845491
288.073147	-3.002600	3.819600	-11.468000	22.783755	0.000981	20.840494
289.076298	-3.009100	3.820200	-11.494000	22.788846	0.000982	20.838955
290.073907	-3.023200	3.817400	-11.539000	22.790674	0.000985	20.826088
291.073117	-2.997700	3.820300	-11.451000	22.794962	0.000983	20.845556
292.075414	-3.034700	3.817100	-11.583000	22.806282	0.000983	20.844568
293.074133	-2.996500	3.818300	-11.440000	22.822746	0.000984	20.847311
294.073286	-3.005900	3.818000	-11.476000	22.829373	0.000983	20.843992
295.079123	-2.999200	3.817000	-11.446000	22.820649	0.000987	20.835727
296.075249	-3.009700	3.818900	-11.492000	22.818104	0.000986	20.852143
297.074280	-3.025300	3.817400	-11.548000	22.807229	0.000987	20.844568
298.074198	-3.023200	3.816800	-11.538000	22.841296	0.000985	20.845505
299.074365	-3.015100	3.816800	-11.507000	22.836614	0.000986	20.838919
300.079200	-2.994000	3.817900	-11.430000	22.836858	0.000986	20.866188
301.075015	-3.012600	3.817200	-11.498000	22.869552	0.000989	20.837303
302.078610	-3.009800	3.817000	-11.487000	22.865536	0.000987	20.853194
303.078003	-3.017900	3.816000	-11.516000	22.889609	0.000991	20.831318
304.077507	-2.990900	3.816300	-11.413000	22.880911	0.000989	20.866699
305.079385	-2.993300	3.816400	-11.422000	22.895546	0.000990	20.860973
306.078507	-3.005300	3.815200	-11.465000	22.880656	0.000990	20.868340
307.077148	-3.005500	3.815100	-11.465000	22.877638	0.000991	20.849670
308.080903	-3.028500	3.813100	-11.548000	22.875297	0.000991	20.859653
309.080615	-2.997800	3.814900	-11.436000	22.890519	0.000993	20.882487
310.081344	-3.005800	3.815100	-11.467000	22.899063	0.000994	20.848850
311.081755	-2.988100	3.815500	-11.399000	22.905114	0.000992	20.855860
312.081503	-2.988400	3.815300	-11.399000	22.926859	0.000994	20.851567
313.083052	-3.022400	3.815300	-11.530000	22.922548	0.000995	20.850093
314.085295	-3.004000	3.814100	-11.457000	22.943026	0.000994	20.867290
315.083892	-2.995300	3.813200	-11.421000	22.949525	0.000997	20.858628
316.086967	-2.990700	3.815300	-11.409000	22.956008	0.000994	20.848055
317.082552	-3.005000	3.815000	-11.463000	22.976758	0.000995	20.856990
318.086878	-2.988400	3.814000	-11.396000	22.969736	0.000995	20.849480
319.085437	-3.016800	3.813300	-11.503000	22.969517	0.000996	20.868227
320.083713	-2.994400	3.813900	-11.419000	22.969441	0.000998	20.870046
321.085875	-3.005400	3.812500	-11.456000	22.975721	0.000998	20.873493
322.087297	-3.008400	3.811200	-11.464000	22.975888	0.000997	20.865126
323.084797	-2.980600	3.812300	-11.362000	22.973471	0.000998	20.866498
324.086327	-3.012200	3.811800	-11.480000	22.997530	0.001000	20.885386
325.097100	-2.995200	3.812600	-11.418000	22.970810	0.000999	20.869995
326.088983	-3.003100	3.811000	-11.444000	22.966256	0.001001	20.855950
327.089456	-3.015300	3.810200	-11.488000	22.979660	0.000999	20.895456
328.089556	-2.994400	3.811500	-11.411000	23.000752	0.001001	20.874390
329.091558	-3.006200	3.809800	-11.452000	23.014974	0.001000	20.890536
330.088497	-2.999200	3.810100	-11.426000	23.000202	0.001001	20.870046
331.094545	-2.999900	3.811300	-11.433000	23.020398	0.001002	20.895021
332.091430	-2.997000	3.809400	-11.416000	23.056145	0.001002	20.879157
333.091238	-2.977000	3.811700	-11.347000	23.072067	0.001003	20.906014
334.094162	-3.011200	3.809300	-11.470000	23.061415	0.001002	20.873533
335.093258	-3.002400	3.808700	-11.433000	23.040030	0.001005	20.880080
336.089809	-3.012600	3.807600	-11.470000	23.048956	0.001006	20.881911
337.090164	-3.008000	3.808500	-11.456000	23.035592	0.001004	20.899814
338.094437	-3.029700	3.806400	-11.531000	23.047805	0.001005	20.875069
339.090581	-3.010300	3.808200	-11.463000	23.068550	0.001005	20.902965
340.090666	-2.996500	3.807300	-11.408000	23.077847	0.001007	20.886678
341.091168	-2.987400	3.808000	-11.375000	23.085316	0.001006	20.895584
342.090915	-3.002900	3.807200	-11.432000	23.089754	0.001007	20.898133
343.092554	-2.986300	3.808000	-11.370000	23.061885	0.001005	20.894865
344.094920	-2.995700	3.808100	-11.407000	23.072500	0.001008	20.893647
345.097897	-3.005800	3.807000	-11.441000	23.082605	0.001009	20.890970
346.094394	-2.994800	3.806200	-11.398000	23.069213	0.001007	20.918801
347.095407	-3.016700	3.806200	-11.481000	23.109129	0.001009	20.884832
348.096523	-3.010000	3.807000	-11.458000	23.097503	0.001010	20.885511
349.096128	-3.012100	3.805700	-11.461000	23.116816	0.001010	20.878785
350.095846	-2.993500	3.806000	-11.393000	23.136854	0.001010	20.900759
351.096338	-3.004300	3.805100	-11.431000	23.129742	0.001011	20.906434
352.096366	-2.989500	3.804900	-11.374000	23.161587	0.001012	20.919377
353.094853	-2.983900	3.804600	-11.351000	23.139923	0.001013	20.919005
354.098144	-2.999600	3.804400	-11.411000	23.144757	0.001012	20.908677
355.097849	-2.999600	3.803500	-11.407000	23.158810	0.001012	20.890045
356.098313	-2.974500	3.804700	-11.316000	23.144717	0.001012	20.902474
357.097004	-3.004200	3.803900	-11.427000	23.148772	0.001014	20.898951
358.096982	-3.001000	3.804200	-11.415000	23.146737	0.001015	20.923462
359.100364	-3.019200	3.803800	-11.483000	23.160063	0.001014	20.930650
360.096686	-3.017600	3.803400	-11.476000	23.150458	0.001014	20.908700
361.101804	-3.005700	3.801300	-11.425000	23.152364	0.001014	20.916300
362.098182	-2.999400	3.802000	-11.401000	23.163463	0.001015	20.944487
363.099813	-3.020200	3.800800	-11.478000	23.160867	0.001015	20.911544
364.103130	-2.990500	3.801200	-11.366000	23.165817	0.001016	20.914608
365.105498	-2.986800	3.802000	-11.355000	23.170342	0.001018	20.922934
366.101521	-3.010000	3.801600	-11.441000	23.177108	0.001017	20.921654
367.101191	-2.999900	3.800300	-11.399000	23.177643	0.001016	20.896589
368.101626	-2.998100	3.801500	-11.395000	23.170124	0.001019	20.941679
369.105163	-2.998700	3.799800	-11.394000	23.189753	0.001017	20.920101
370.108799	-3.008700	3.799900	-11.431000	23.212413	0.001019	20.904878
371.103035	-2.983800	3.800300	-11.338000	23.202848	0.001019	20.926111
372.107871	-3.008000	3.801100	-11.433000	23.223718	0.001019	20.924266
373.103963	-3.032400	3.798500	-11.517000	23.237937	0.001020	20.934721
374.104923	-3.019300	3.799400	-11.469000	23.239547	0.001020	20.948660
375.106693	-3.009700	3.797900	-11.429000	23.260365	0.001019	20.940601
376.107479	-2.992500	3.799800	-11.369000	23.255582	0.001021	20.924904
377.106784	-3.007900	3.797700	-11.421000	23.258472	0.001023	20.927800
378.108212	-3.000600	3.799400	-11.399000	23.255160	0.001020	20.914525
379.108028	-2.996700	3.797500	-11.379000	23.247743	0.001021	20.933643
380.107148	-2.999900	3.797600	-11.391000	23.255018	0.001023	20.930977
381.108374	-3.017600	3.796800	-11.457000	23.273663	0.001021	20.920266
382.108530	-3.014200	3.795900	-11.441000	23.278508	0.001022	20.918483
383.108193	-3.003200	3.796200	-11.399000	23.297625	0.001022	20.953285
384.109184	-3.011800	3.795500	-11.429000	23.299503	0.001024	20.940470
385.109270	-2.990000	3.796100	-11.349000	23.331572	0.001024	20.926619
386.114670	-2.997000	3.795200	-11.374000	23.324334	0.001025	20.948760
387.107090	-2.996900	3.796300	-11.375000	23.329691	0.001022	20.942750
388.110992	-2.999100	3.796200	-11.384000	23.326583	0.001026	20.940584
389.109910	-2.991800	3.794900	-11.351000	23.325178	0.001025	20.942494
390.109611	-3.014100	3.795900	-11.440000	23.331533	0.001024	20.955499
391.113754	-3.001800	3.795200	-11.391000	23.341326	0.001027	20.973847
392.111879	-3.008000	3.794700	-11.413000	23.344802	0.001029	20.945566
393.110553	-2.997100	3.794700	-11.372000	23.315062	0.001026	20.926193
394.110507	-3.015600	3.793100	-11.438000	23.314563	0.001026	20.948924
395.112439	-3.002600	3.794300	-11.392000	23.327785	0.001027	20.946528
396.112899	-3.000500	3.794300	-11.384000	23.326198	0.001029	20.945413
397.112138	-3.010200	3.793000	-11.417000	23.345250	0.001027	20.953126
398.111054	-2.998500	3.793100	-11.373000	23.324561	0.001028	20.941876
399.117817	-3.021200	3.793600	-11.460000	23.344482	0.001028	20.951409
400.112906	-2.990500	3.791900	-11.339000	23.340813	0.001029	20.954844
401.112954	-2.984600	3.792700	-11.319000	23.335428	0.001031	20.946128
402.119207	-2.976100	3.792200	-11.285000	23.337935	0.001029	20.957174
403.113138	-2.988500	3.791400	-11.330000	23.353700	0.001028	20.954483
404.112401	-3.001300	3.791300	-11.378000	23.361808	0.001030	20.938903
405.112399	-2.970600	3.791700	-11.261000	23.362638	0.001030	20.953484
406.112764	-2.984800	3.791200	-11.315000	23.371742	0.001031	20.940326
407.112127	-2.983600	3.792400	-11.314000	23.383938	0.001031	20.943065
408.112287	-3.000200	3.790700	-11.370000	23.371204	0.001033	20.953535
409.111866	-3.012800	3.790000	-11.417000	23.379680	0.001032	20.942117
410.111933	-2.969600	3.790100	-11.254000	23.369938	0.001032	20.919079
411.111693	-2.990600	3.791100	-11.337000	23.379309	0.001035	20.938900
412.112867	-3.003100	3.790300	-11.380000	23.394014	0.001032	20.947474
413.118592	-2.998200	3.789400	-11.360000	23.391623	0.001033	20.943181
414.112767	-2.988700	3.789300	-11.324000	23.402311	0.001035	20.921180
415.118572	-2.994000	3.788800	-11.343000	23.404855	0.001035	20.916144
416.113124	-3.010300	3.787700	-11.401000	23.392569	0.001034	20.911891
417.112907	-3.010500	3.788200	-11.404000	23.385473	0.001035	20.900038
418.115059	-2.988600	3.788600	-11.322000	23.371779	0.001035	20.935622
419.117940	-3.004700	3.789000	-11.384000	23.395073	0.001033	20.915823
420.113434	-3.008100	3.787100	-11.391000	23.402158	0.001035	20.916286
421.114126	-3.001500	3.787100	-11.364000	23.442444	0.001037	20.914940
422.115846	-2.999700	3.785600	-11.355000	23.447928	0.001036	20.923755
423.114232	-2.999200	3.787200	-11.358000	23.463284	0.001039	20.925396
424.116332	-2.995400	3.787100	-11.344000	23.475059	0.001039	20.907803
425.114689	-2.993400	3.786300	-11.333000	23.491513	0.001036	20.930458
426.116988	-2.990700	3.784600	-11.318000	23.503288	0.001039	20.894374
427.114152	-3.018800	3.784700	-11.424000	23.498455	0.001041	20.921770
428.114839	-3.004800	3.784000	-11.370000	23.503990	0.001039	20.911672
429.113913	-3.008600	3.783600	-11.382000	23.534827	0.001039	20.903229
430.114036	-3.025300	3.783400	-11.444000	23.558962	0.001039	20.907033
431.115678	-3.007600	3.783500	-11.378000	23.549836	0.001040	20.908791
432.115220	-2.996600	3.784400	-11.339000	23.569764	0.001039	20.891311
433.117300	-2.993600	3.784300	-11.328000	23.560279	0.001041	20.880381
434.115881	-2.998200	3.783900	-11.344000	23.552991	0.001041	20.918591
435.118701	-3.026100	3.781400	-11.442000	23.541256	0.001041	20.893080
436.118021	-3.009400	3.781600	-11.379000	23.526273	0.001040	20.894655
437.117438	-3.005300	3.783400	-11.370000	23.539274	0.001043	20.897730
438.116566	-3.001100	3.781100	-11.346000	23.498135	0.001040	20.893951
439.117551	-3.007500	3.781800	-11.372000	23.477832	0.001041	20.889247
440.119599	-3.022000	3.780300	-11.423000	23.468218	0.001041	20.900947
441.117302	-3.005700	3.781800	-11.366000	23.482103	0.001041	20.923871
442.118471	-3.006500	3.779300	-11.360000	23.473767	0.001041	20.898448
443.117398	-3.015000	3.779300	-11.393000	23.497801	0.001041	20.897883
444.117583	-2.984300	3.781200	-11.283000	23.528074	0.001043	20.890772
445.119848	-2.984800	3.780500	-11.283000	23.523319	0.001042	20.895013
446.119789	-2.967900	3.780000	-11.218000	23.551317	0.001043	20.884199
447.117602	-2.986500	3.778400	-11.282000	23.552954	0.001043	20.907175
448.116790	-2.985800	3.780600	-11.287000	23.514819	0.001043	20.893131
449.116297	-2.999900	3.777600	-11.332000	23.497699	0.001043	20.886402
450.119273	-3.011400	3.777600	-11.375000	23.484508	0.001042	20.881241
451.120788	-2.998200	3.779400	-11.330000	23.494864	0.001044	20.871707
452.119302	-2.987800	3.779100	-11.289000	23.520022	0.001045	20.889338
453.120687	-3.006400	3.778900	-11.359000	23.522849	0.001044	20.895016
454.118959	-3.004300	3.777200	-11.347000	23.534572	0.001043	20.898707
455.119034	-2.998600	3.778600	-11.329000	23.519908	0.001044	20.877371
456.121278	-3.022800	3.776300	-11.414000	23.559066	0.001046	20.879166
457.120741	-2.999200	3.777200	-11.326000	23.561318	0.001045	20.857716
458.120825	-2.979700	3.777800	-11.255000	23.561918	0.001043	20.882973
459.122438	-3.008400	3.775500	-11.357000	23.570342	0.001046	20.874348
460.121235	-2.999200	3.775600	-11.322000	23.598967	0.001047	20.891189
461.122949	-2.997000	3.775200	-11.313000	23.619637	0.001045	20.877297
462.126689	-3.007500	3.775600	-11.355000	23.621183	0.001046	20.883589
463.121170	-2.997100	3.774400	-11.311000	23.619549	0.001047	20.869149
464.123198	-2.983600	3.775500	-11.264000	23.641459	0.001048	20.885423
465.124018	-3.010100	3.774000	-11.359000	23.626757	0.001046	20.890598
466.125001	-3.000400	3.773700	-11.322000	23.612876	0.001046	20.885692
467.126026	-2.993300	3.773400	-11.294000	23.634480	0.001046	20.880324
468.126793	-2.998400	3.771800	-11.308000	23.646905	0.001047	20.866702
469.126587	-3.014400	3.773100	-11.371000	23.603558	0.001047	20.879671
470.124954	-3.002500	3.771600	-11.323000	23.626964	0.001047	20.896969
471.127499	-2.998300	3.772500	-11.310000	23.644157	0.001048	20.871060
472.124463	-2.990900	3.771900	-11.281000	23.630838	0.001046	20.857234
473.128010	-3.012700	3.772000	-11.363000	23.620574	0.001046	20.875392
474.124497	-3.021500	3.770800	-11.392000	23.623157	0.001049	20.862336
475.125056	-3.004900	3.772000	-11.333000	23.607127	0.001047	20.880403
476.125535	-2.987500	3.772100	-11.269000	23.610208	0.001047	20.880647
477.125619	-2.998000	3.771100	-11.304000	23.638830	0.001047	20.850073
478.124840	-3.015200	3.769600	-11.364000	23.627133	0.001049	20.862054
479.127106	-3.025200	3.768500	-11.400000	23.635712	0.001048	20.859749
480.123928	-3.010400	3.769500	-11.347000	23.600825	0.001049	20.870293
481.125636	-3.026500	3.767500	-11.401000	23.598169	0.001049	20.863837
482.129430	-2.981800	3.770000	-11.240000	23.612409	0.001048	20.860095
483.125621	-2.985700	3.768800	-11.252000	23.603091	0.001049	20.868772
484.131214	-2.996800	3.768100	-11.291000	23.623032	0.001049	20.856995
485.129273	-2.985400	3.768700	-11.250000	23.630778	0.001049	20.875191
486.129219	-3.012500	3.767900	-11.350000	23.672643	0.001049	20.855996
487.130628	-3.007900	3.768000	-11.333000	23.706363	0.001049	20.863724
488.130558	-2.988800	3.768200	-11.261000	23.713854	0.001049	20.867914
489.129405	-3.012300	3.766200	-11.344000	23.703296	0.001051	20.872028
490.128782	-3.024800	3.765900	-11.390000	23.719234	0.001050	20.838697
491.127672	-3.026900	3.766000	-11.398000	23.739482	0.001050	20.853307
492.127910	-3.000600	3.766800	-11.301000	23.723403	0.001049	20.868479
493.131785	-2.985800	3.765900	-11.244000	23.665398	0.001051	20.872440
494.129691	-2.997000	3.764700	-11.282000	23.702223	0.001048	20.869056
495.133650	-2.976700	3.766000	-11.210000	23.712667	0.001051	20.866725
496.130608	-2.979400	3.766300	-11.220000	23.716873	0.001049	20.872363
497.130941	-3.009600	3.764100	-11.326000	23.737809	0.001051	20.838354
498.135650	-3.010300	3.764300	-11.331000	23.703950	0.001051	20.865572
499.132086	-3.016900	3.764100	-11.354000	23.720081	0.001051	20.853770
500.131835	-3.006400	3.762900	-11.312000	23.731100	0.001050	20.849171
501.131244	-3.021300	3.762900	-11.368000	23.751832	0.001050	20.867585
502.132238	-2.980300	3.764300	-11.217000	23.739573	0.001052	20.858613
503.133549	-2.998500	3.762700	-11.282000	23.731573	0.001053	20.884256
504.136260	-2.991200	3.763600	-11.256000	23.742552	0.001052	20.860652
505.133212	-3.003300	3.761400	-11.294000	23.737186	0.001051	20.848160
506.135729	-3.026800	3.761400	-11.383000	23.731089	0.001051	20.853901
507.135242	-3.001000	3.763100	-11.292000	23.721616	0.001050	20.833024
508.134996	-3.036800	3.758200	-11.410000	23.726665	0.001054	20.844725
509.139895	-3.009000	3.761100	-11.317000	23.717974	0.001053	20.855925
510.136069	-3.013200	3.759800	-11.328000	23.718447	0.001053	20.845020
511.135722	-3.025100	3.760800	-11.375000	23.701767	0.001053	20.852478
512.135536	-2.997500	3.760600	-11.272000	23.702240	0.001051	20.841573
513.137894	-2.977400	3.760300	-11.195000	23.707915	0.001052	20.850582
514.139279	-2.992400	3.760700	-11.253000	23.703928	0.001052	20.854644
515.138438	-2.996500	3.760200	-11.267000	23.707122	0.001052	20.836985
516.141252	-2.984500	3.759400	-11.218000	23.714893	0.001054	20.844776
517.138951	-3.009300	3.758200	-11.309000	23.725261	0.001050	20.844265
518.138358	-2.999300	3.758700	-11.273000	23.758377	0.001053	20.846173
519.140007	-3.004700	3.758200	-11.291000	23.751170	0.001052	20.861231
520.142097	-3.002100	3.758400	-11.282000	23.787799	0.001051	20.858602
521.139794	-2.992700	3.759300	-11.250000	23.784681	0.001053	20.841252
522.142950	-2.992800	3.758500	-11.247000	23.807457	0.001052	20.842277
523.140472	-3.001600	3.757100	-11.277000	23.808097	0.001054	20.836755
524.140518	-3.000500	3.757100	-11.273000	23.806231	0.001054	20.841996
525.145883	-3.021600	3.755200	-11.345000	23.809784	0.001053	20.845085
526.143192	-3.000900	3.755300	-11.268000	23.846938	0.001050	20.840139
527.144168	-3.011400	3.756700	-11.312000	23.835615	0.001055	20.843958
528.141456	-3.001000	3.756400	-11.271000	23.843053	0.001054	20.846201
529.141280	-3.005000	3.755500	-11.284000	23.857458	0.001053	20.850213
530.147136	-3.009100	3.754800	-11.297000	23.856166	0.001055	20.837065
531.143332	-3.015500	3.754700	-11.322000	23.830747	0.001054	20.838603
532.145210	-2.985900	3.754700	-11.209000	23.830875	0.001052	20.817395
533.144341	-2.990500	3.754900	-11.228000	23.828689	0.001052	20.825634
534.145727	-3.003600	3.752800	-11.270000	23.810413	0.001053	20.839078
535.143152	-2.990400	3.753300	-11.224000	23.820944	0.001053	20.842998
536.143507	-3.013900	3.751900	-11.305000	23.837393	0.001053	20.829620
537.142879	-2.985200	3.753700	-11.205000	23.850084	0.001053	20.848035
538.143902	-2.996200	3.753900	-11.247000	23.840754	0.001053	20.841525
539.143083	-3.022600	3.750600	-11.335000	23.842173	0.001053	20.836784
540.142934	-3.017800	3.750400	-11.316000	23.894341	0.001054	20.834566
541.145866	-3.003400	3.751000	-11.265000	23.886815	0.001054	20.831287
542.146139	-2.985700	3.751800	-11.200000	23.877179	0.001054	20.823048
543.145709	-2.987200	3.752700	-11.209000	23.884873	0.001055	20.832184
544.145610	-2.984200	3.751500	-11.193000	23.868439	0.001055	20.841309
545.149954	-2.993700	3.750600	-11.227000	23.856617	0.001054	20.817128
546.147684	-3.007200	3.750200	-11.276000	23.857282	0.001052	20.853830
547.149246	-2.987400	3.750900	-11.204000	23.824308	0.001055	20.832147
548.151046	-2.998500	3.750200	-11.241000	23.837702	0.001055	20.846999
549.147153	-2.981100	3.751500	-11.182000	23.851608	0.001053	20.838657
550.149815	-2.988500	3.749300	-11.204000	23.855045	0.001055	20.825035
551.150885	-2.994200	3.749100	-11.224000	23.887393	0.001054	20.824280
552.147561	-3.010000	3.747700	-11.280000	23.906856	0.001054	20.838581
553.147258	-3.005100	3.748100	-11.263000	23.912698	0.001054	20.835904
554.149477	-3.029200	3.746700	-11.347000	23.928007	0.001056	20.830867
555.148337	-3.001700	3.747400	-11.247000	23.932481	0.001055	20.832034
556.151431	-2.996000	3.747100	-11.225000	23.967634	0.001054	20.832673
557.151294	-2.995400	3.746700	-11.222000	23.941784	0.001055	20.822398
558.154297	-3.035200	3.743200	-11.360000	23.927240	0.001054	20.831994
559.149361	-3.008600	3.744700	-11.265000	23.926359	0.001056	20.831111
560.149554	-3.000200	3.747100	-11.241000	23.937733	0.001054	20.821180
561.157120	-3.015000	3.745100	-11.290000	23.917706	0.001056	20.819115
562.149655	-3.035600	3.743900	-11.364000	23.881911	0.001055	20.813094
563.151062	-2.982600	3.745900	-11.171000	23.873643	0.001055	20.828036
564.149982	-3.027700	3.744200	-11.335000	23.862192	0.001055	20.816080
565.150815	-3.002600	3.745200	-11.245000	23.860621	0.001056	20.827781
566.149558	-2.999700	3.744700	-11.232000	23.845271	0.001055	20.821398
567.156537	-2.973300	3.744700	-11.132000	23.832361	0.001055	20.824101
568.153639	-2.987500	3.743100	-11.181000	23.833270	0.001057	20.821219
569.153121	-2.988300	3.744100	-11.187000	23.866026	0.001055	20.819451
570.154988	-2.997000	3.743200	-11.216000	23.888825	0.001057	20.821923
571.157650	-2.999500	3.742100	-11.223000	23.907700	0.001055	20.826151
572.156345	-2.991800	3.741400	-11.193000	23.929185	0.001055	20.821617
573.154460	-2.987100	3.742500	-11.179000	23.915382	0.001055	20.815836
574.156760	-3.011900	3.740800	-11.265000	23.955355	0.001054	20.821307
575.156703	-2.995200	3.740700	-11.203000	23.952914	0.001056	20.818386
576.154886	-2.988300	3.741900	-11.181000	23.967023	0.001055	20.815464
577.157106	-2.993400	3.741400	-11.198000	23.988045	0.001055	20.799088
578.156477	-2.989000	3.741800	-11.183000	23.997909	0.001056	20.803290
579.154832	-2.987400	3.741400	-11.175000	24.016578	0.001056	20.816796
580.154524	-2.971100	3.741200	-11.114000	24.002139	0.001057	20.808480
581.155291	-2.994200	3.740000	-11.198000	24.001703	0.001056	20.816103
582.160800	-2.982500	3.739200	-11.151000	24.009217	0.001055	20.814155
583.155207	-2.998900	3.739400	-11.213000	24.010969	0.001057	20.806904
584.156599	-2.993600	3.739000	-11.191000	24.006292	0.001055	20.800791
585.157604	-2.999400	3.739000	-11.214000	23.993079	0.001057	20.814093
586.156640	-3.002900	3.737500	-11.223000	24.002982	0.001055	20.813593
587.158550	-2.966000	3.739500	-11.091000	24.018469	0.001058	20.808261
588.160689	-2.996600	3.737000	-11.197000	24.032460	0.001057	20.818499
589.159436	-2.983800	3.738400	-11.153000	24.031707	0.001057	20.792614
590.158348	-2.989900	3.737700	-11.174000	24.062603	0.001055	20.825969
591.157970	-3.014000	3.736100	-11.259000	24.047692	0.001056	20.794420
592.157222	-3.000600	3.737000	-11.213000	24.033250	0.001057	20.807912
593.161031	-2.997900	3.736000	-11.199000	24.063265	0.001055	20.809564
594.160211	-2.999700	3.736500	-11.208000	24.053297	0.001057	20.816637
595.160051	-3.007500	3.735400	-11.234000	24.037735	0.001055	20.813358
596.161304	-3.011100	3.735300	-11.246000	24.007206	0.001055	20.793173
597.158951	-2.994800	3.735500	-11.186000	23.992994	0.001055	20.810214
598.161782	-2.980600	3.735700	-11.134000	23.990157	0.001055	20.797412
599.161082	-3.002100	3.735800	-11.214000	23.996046	0.001055	20.799525
600.163807	-2.988300	3.734500	-11.159000	24.021374	0.001057	20.804062
601.161668	-2.990700	3.734200	-11.167000	24.043785	0.001057	20.807571
602.161739	-3.014300	3.733200	-11.251000	24.086451	0.001053	20.799153
603.162862	-3.015500	3.733100	-11.257000	24.094805	0.001056	20.808480
604.163464	-3.016400	3.732900	-11.259000	24.089412	0.001055	20.804019
605.163293	-2.999600	3.732700	-11.196000	24.087598	0.001055	20.810734
606.161127	-3.023800	3.730700	-11.280000	24.078844	0.001054	20.790575
607.163594	-2.973100	3.731800	-11.094000	24.071829	0.001054	20.788756
608.163352	-2.989700	3.732100	-11.157000	24.044444	0.001054	20.799698
609.166698	-2.984600	3.733000	-11.140000	24.048176	0.001054	20.815294
610.163687	-2.993800	3.732400	-11.172000	24.043179	0.001053	20.798903
611.164946	-2.997100	3.730600	-11.181000	24.065117	0.001054	20.799093
612.166397	-2.983000	3.730900	-11.129000	24.058283	0.001052	20.824007
613.166586	-2.985400	3.730600	-11.135000	24.057450	0.001052	20.806577
614.173690	-3.013800	3.730400	-11.240000	24.056952	0.001054	20.794698
615.166541	-2.999900	3.730100	-11.188000	24.036840	0.001054	20.802977
616.168454	-3.024900	3.729200	-11.278000	24.035625	0.001054	20.790854
617.165532	-3.005300	3.728200	-11.203000	24.003257	0.001055	20.788264
618.166657	-3.006000	3.730300	-11.212000	24.054243	0.001052	20.786765
619.170269	-3.021400	3.728400	-11.264000	24.062829	0.001053	20.816239
620.169549	-2.999400	3.727400	-11.179000	24.121504	0.001053	20.801118
621.167408	-3.009400	3.726400	-11.213000	24.120904	0.001053	20.796723
622.167455	-2.982600	3.727700	-11.117000	24.120507	0.001053	20.784945
623.167050	-3.008800	3.727100	-11.214000	24.107168	0.001054	20.783895
624.171461	-3.006600	3.726000	-11.201000	24.108637	0.001052	20.790584
625.173827	-2.994700	3.726200	-11.157000	24.092832	0.001054	20.796069
626.169322	-3.002200	3.725900	-11.185000	24.087068	0.001053	20.786970
627.172620	-3.014500	3.725400	-11.229000	24.100881	0.001054	20.794184
628.172371	-2.977100	3.725600	-11.091000	24.082406	0.001052	20.760008
629.172047	-3.006600	3.726300	-11.202000	24.080962	0.001052	20.795070
630.174489	-3.000800	3.725900	-11.179000	24.081984	0.001052	20.795621
631.172603	-2.991200	3.724500	-11.140000	24.047304	0.001053	20.802566
632.173951	-2.993800	3.725900	-11.154000	24.034309	0.001052	20.770567
633.170171	-3.007200	3.722900	-11.194000	24.064350	0.001050	20.795005
634.173514	-3.009400	3.723400	-11.204000	24.063979	0.001051	20.804116
635.176294	-2.979500	3.724800	-11.096000	24.074635	0.001051	20.784457
636.174182	-2.999700	3.724000	-11.170000	24.125362	0.001052	20.779857
637.176492	-2.975700	3.723600	-11.078000	24.146917	0.001051	20.774448
638.175286	-2.990400	3.723400	-11.133000	24.165699	0.001051	20.759147
639.174541	-3.003600	3.721800	-11.178000	24.161048	0.001053	20.783406
640.177967	-3.000800	3.722700	-11.170000	24.169801	0.001050	20.794556
641.179086	-3.005200	3.722100	-11.185000	24.169124	0.001051	20.779179
642.176351	-2.998400	3.722100	-11.159000	24.175179	0.001049	20.766285
643.179440	-3.007800	3.722100	-11.194000	24.150149	0.001048	20.773423
644.177112	-2.999200	3.722000	-11.162000	24.139596	0.001052	20.784650
645.176788	-3.016500	3.720700	-11.222000	24.117798	0.001049	20.783651
646.181461	-3.012900	3.720700	-11.209000	24.109733	0.001051	20.776036
647.178519	-2.991600	3.720500	-11.129000	24.092626	0.001050	20.786379
648.182277	-2.998500	3.718600	-11.149000	24.089265	0.001050	20.783483
649.178519	-2.970200	3.720400	-11.049000	24.108023	0.001049	20.770527
650.179148	-2.998200	3.720100	-11.152000	24.153062	0.001049	20.777293
651.179238	-2.991500	3.720000	-11.127000	24.145895	0.001050	20.767259
652.178782	-2.982600	3.718700	-11.091000	24.163692	0.001049	20.786532
653.179289	-2.996700	3.718200	-11.142000	24.146240	0.001049	20.784676
654.179925	-2.987200	3.720000	-11.111000	24.126206	0.001050	20.784023
655.181429	-2.974100	3.717200	-11.054000	24.113249	0.001050	20.768656
656.182203	-2.990100	3.717000	-11.114000	24.155262	0.001047	20.788983
657.181326	-3.005100	3.716300	-11.167000	24.154469	0.001049	20.778705
658.182209	-2.992300	3.717600	-11.122000	24.166070	0.001049	20.789866
659.182756	-2.981600	3.716400	-11.080000	24.142382	0.001048	20.774642
660.184607	-3.000500	3.714800	-11.145000	24.122424	0.001051	20.802040
661.187675	-2.982200	3.714800	-11.077000	24.113492	0.001048	20.783599
662.187781	-2.992600	3.715300	-11.117000	24.138382	0.001049	20.778216
663.182642	-2.970800	3.715900	-11.038000	24.167233	0.001048	20.770644
664.187996	-2.992800	3.714800	-11.117000	24.185350	0.001046	20.764159
665.184661	-3.002300	3.714500	-11.151000	24.192953	0.001047	20.770363
666.186312	-3.019800	3.714100	-11.214000	24.208706	0.001048	20.790905
667.189318	-3.021100	3.713700	-11.218000	24.215732	0.001047	20.773770
668.185649	-3.011500	3.713700	-11.183000	24.265547	0.001047	20.758778
669.187181	-3.004600	3.713500	-11.156000	24.256679	0.001046	20.785445
670.186479	-3.015100	3.712700	-11.194000	24.255592	0.001047	20.770604
671.189445	-3.003400	3.714300	-11.154000	24.261075	0.001047	20.773733
672.188983	-2.983400	3.713900	-11.079000	24.265904	0.001047	20.772887
673.189804	-2.983500	3.713500	-11.078000	24.277503	0.001048	20.776462
674.189990	-3.002000	3.712200	-11.143000	24.287314	0.001047	20.782035
675.190825	-2.996900	3.711800	-11.123000	24.296665	0.001049	20.768182
676.191025	-3.000500	3.711700	-11.136000	24.296614	0.001046	20.783778
677.191083	-2.999000	3.711600	-11.130000	24.264689	0.001045	20.767401
678.194523	-3.012700	3.709900	-11.176000	24.222746	0.001045	20.786496
679.191824	-3.001800	3.710900	-11.138000	24.197143	0.001046	20.777410
680.192770	-2.999600	3.710300	-11.128000	24.210353	0.001045	20.775488
681.194386	-2.984600	3.710600	-11.074000	24.181517	0.001044	20.774065
682.192947	-3.013300	3.709000	-11.175000	24.176331	0.001047	20.770760
683.199412	-2.985000	3.710800	-11.074000	24.142701	0.001046	20.778281
684.193799	-2.989000	3.709000	-11.085000	24.135944	0.001045	20.782884
685.195481	-2.990300	3.707500	-11.085000	24.163542	0.001044	20.790175
686.196991	-3.006500	3.709100	-11.150000	24.165280	0.001045	20.763469
687.196035	-3.012300	3.708700	-11.171000	24.183091	0.001044	20.789394
688.198213	-2.983000	3.708700	-11.061000	24.217229	0.001044	20.772427
689.196471	-2.998200	3.707300	-11.115000	24.231258	0.001045	20.772273
690.197038	-2.995100	3.708000	-11.105000	24.236305	0.001046	20.778284
691.197968	-3.008400	3.707300	-11.152000	24.251610	0.001046	20.791265
692.200455	-2.990800	3.706500	-11.083000	24.255940	0.001043	20.777117
693.197259	-3.001900	3.706900	-11.127000	24.254420	0.001045	20.779860
694.196937	-3.000500	3.705800	-11.119000	24.281556	0.001043	20.781001
695.197439	-3.008000	3.705800	-11.145000	24.311514	0.001045	20.768378
696.200333	-2.984000	3.706200	-11.059000	24.338405	0.001045	20.787293
697.199567	-2.995600	3.704500	-11.097000	24.349392	0.001044	20.800686
698.198026	-2.994500	3.705000	-11.093000	24.380854	0.001045	20.803324
699.199893	-2.981900	3.705600	-11.048000	24.362573	0.001042	20.787356
700.197687	-3.001000	3.704900	-11.118000	24.352203	0.001044	20.803505
701.198186	-2.993100	3.705100	-11.089000	24.322116	0.001044	20.802248
702.198472	-3.011200	3.703800	-11.152000	24.292530	0.001042	20.788216
703.199564	-2.996600	3.703600	-11.097000	24.310478	0.001041	20.810961
704.199888	-2.982600	3.704100	-11.047000	24.274401	0.001043	20.791842
705.202144	-3.005400	3.702900	-11.128000	24.253588	0.001042	20.779025
706.198461	-2.995700	3.703000	-11.093000	24.237465	0.001042	20.811217
707.200036	-2.985900	3.703800	-11.058000	24.252897	0.001041	20.772168
708.200993	-2.993000	3.701900	-11.078000	24.258635	0.001042	20.780295
709.202033	-2.997800	3.702600	-11.099000	24.268689	0.001040	20.819303
710.205237	-3.025600	3.701300	-11.198000	24.256566	0.001039	20.790073
711.202201	-2.997100	3.700200	-11.089000	24.299785	0.001039	20.795493
712.200728	-2.987100	3.701700	-11.056000	24.328156	0.001040	20.793134
713.203384	-2.995500	3.701900	-11.088000	24.318895	0.001040	20.793327
714.203361	-3.006500	3.699700	-11.122000	24.336384	0.001039	20.797594
715.205647	-2.983400	3.701800	-11.042000	24.334992	0.001039	20.774386
716.203444	-2.967700	3.700500	-10.981000	24.346220	0.001039	20.783279
717.205974	-2.995200	3.700600	-11.083000	24.351611	0.001040	20.810973
718.206417	-2.999300	3.699600	-11.095000	24.387788	0.001038	20.804116
719.206989	-3.018600	3.699000	-11.165000	24.391529	0.001037	20.785110
720.209264	-3.010300	3.697600	-11.130000	24.374910	0.001039	20.797361
721.207407	-3.009800	3.698900	-11.132000	24.369966	0.001039	20.804255
722.207959	-3.002500	3.698600	-11.103000	24.352274	0.001038	20.811163
723.206295	-3.006600	3.697800	-11.117000	24.352044	0.001040	20.788648
724.208518	-2.973700	3.698900	-10.999000	24.335640	0.001037	20.802537
725.206443	-3.002000	3.698400	-11.102000	24.346690	0.001039	20.791337
726.210926	-2.985600	3.697300	-11.038000	24.326034	0.001037	20.823721
727.209268	-2.990100	3.697600	-11.055000	24.324562	0.001038	20.817977
728.207650	-3.000600	3.696700	-11.091000	24.354009	0.001037	20.800101
729.209885	-3.008800	3.695900	-11.119000	24.360371	0.001038	20.806010
730.207810	-2.984900	3.696700	-11.033000	24.375725	0.001037	20.813826
731.210353	-3.004300	3.697100	-11.106000	24.413995	0.001036	20.800062
732.207977	-2.999900	3.694700	-11.083000	24.445675	0.001037	20.812878
733.207650	-2.987100	3.695100	-11.037000	24.439506	0.001036	20.814749
734.207581	-2.983000	3.694600	-11.020000	24.435776	0.001038	20.809110
735.209134	-2.991200	3.693900	-11.049000	24.459341	0.001033	20.800036
736.210274	-2.997000	3.693800	-11.069000	24.457898	0.001036	20.818028
737.209868	-3.003500	3.693800	-11.094000	24.458741	0.001035	20.815081
738.208915	-3.006200	3.692000	-11.097000	24.434536	0.001035	20.803599
739.210052	-3.011000	3.693300	-11.119000	24.441713	0.001033	20.811274
740.213286	-3.008700	3.692400	-11.108000	24.455586	0.001033	20.811441
741.209160	-3.011400	3.692900	-11.120000	24.472458	0.001033	20.835006
742.210709	-3.007300	3.693600	-11.107000	24.487276	0.001035	20.812889
743.209325	-3.012000	3.692000	-11.119000	24.481118	0.001033	20.823306
744.211080	-3.014600	3.691700	-11.127000	24.482830	0.001032	20.823127
745.209477	-3.018100	3.690800	-11.137000	24.452864	0.001034	20.823883
746.210721	-2.977400	3.692300	-10.992000	24.415181	0.001031	20.827329
747.214397	-2.977500	3.692200	-10.991000	24.384140	0.001032	20.837440
748.209697	-2.986100	3.691900	-11.023000	24.373040	0.001030	20.813503
749.213356	-3.010500	3.690500	-11.109000	24.376730	0.001033	20.823369
750.210498	-2.982000	3.691900	-11.007000	24.385391	0.001031	20.814513
751.210644	-2.993400	3.689500	-11.043000	24.380319	0.001031	20.814641
752.214562	-3.014400	3.689700	-11.121000	24.390386	0.001032	20.825214
753.216004	-2.981800	3.690700	-11.003000	24.408921	0.001031	20.836222
754.212712	-2.992600	3.688800	-11.038000	24.420558	0.001032	20.815181
755.212629	-2.995000	3.689200	-11.047000	24.386412	0.001031	20.842090
756.213949	-2.998500	3.687900	-11.056000	24.408779	0.001031	20.831338
757.212424	-3.004200	3.688300	-11.079000	24.391011	0.001028	20.831057
758.219009	-2.999700	3.689000	-11.063000	24.420966	0.001030	20.828391
759.214422	-2.993100	3.689500	-11.041000	24.412600	0.001028	20.847499
760.220569	-3.003000	3.686700	-11.070000	24.446437	0.001029	20.821702
761.215348	-3.020300	3.686600	-11.134000	24.457128	0.001030	20.842385
762.214345	-3.006800	3.686200	-11.082000	24.493570	0.001030	20.830583
763.216493	-3.022600	3.685000	-11.136000	24.484630	0.001029	20.836787
764.216553	-3.003200	3.686500	-11.070000	24.482049	0.001029	20.849844
765.219204	-2.977300	3.685600	-10.972000	24.486954	0.001027	20.840066
766.215891	-2.986000	3.686800	-11.008000	24.482522	0.001027	20.824240
767.217433	-2.991100	3.685700	-11.023000	24.484463	0.001026	20.838990
768.221425	-2.967400	3.687500	-10.942000	24.481896	0.001028	20.837837
769.219603	-2.989100	3.685600	-11.015000	24.448686	0.001026	20.845770
770.221817	-3.028200	3.685100	-11.157000	24.464283	0.001025	20.841977
771.220098	-3.005900	3.684700	-11.074000	24.420354	0.001026	20.860493
772.223677	-2.992200	3.684900	-11.025000	24.447435	0.001026	20.838351
773.224752	-3.000800	3.681900	-11.048000	24.452224	0.001026	20.844103
774.225811	-3.015000	3.683100	-11.103000	24.443527	0.001025	20.849602
775.223458	-2.979600	3.684300	-10.976000	24.459520	0.001026	20.843836
776.224093	-2.985200	3.683600	-10.995000	24.445047	0.001024	20.836429
777.222514	-2.994400	3.683100	-11.028000	24.436947	0.001024	20.841579
778.224863	-3.002100	3.681600	-11.051000	24.454961	0.001025	20.841633
779.226686	-3.002700	3.681500	-11.054000	24.447002	0.001026	20.853089
780.224062	-2.994500	3.682200	-11.024000	24.449122	0.001025	20.857586
781.227847	-2.991600	3.683300	-11.017000	24.470237	0.001025	20.852217
782.223763	-2.999300	3.681800	-11.041000	24.485706	0.001022	20.867736
783.225938	-3.019600	3.679900	-11.111000	24.493012	0.001023	20.849937
784.231825	-2.992400	3.682400	-11.018000	24.524843	0.001024	20.855320
785.227299	-2.995300	3.680500	-11.023000	24.559596	0.001024	20.859843
786.228350	-3.008700	3.680400	-11.072000	24.546007	0.001023	20.868019
787.227442	-3.008500	3.678500	-11.065000	24.538534	0.001023	20.873323
788.230543	-2.990400	3.680500	-11.006000	24.508048	0.001024	20.831358
789.227350	-3.003500	3.679700	-11.052000	24.490165	0.001023	20.870313
790.233250	-3.003600	3.679300	-11.050000	24.502351	0.001024	20.855987
791.229851	-3.011100	3.678700	-11.076000	24.516107	0.001022	20.859357
792.229050	-2.986800	3.678000	-10.984000	24.530488	0.001021	20.863829
793.231328	-3.015700	3.676900	-11.087000	24.520182	0.001020	20.859653
794.232279	-2.986500	3.677600	-10.982000	24.519262	0.001019	20.867264
795.234899	-3.000700	3.678100	-11.036000	24.533375	0.001022	20.847286
796.231759	-3.019600	3.677200	-11.103000	24.506706	0.001020	20.858460
797.231938	-3.015700	3.677200	-11.087000	24.498814	0.001020	20.859076
798.230919	-3.026000	3.676200	-11.123000	24.510156	0.001019	20.863343
799.233598	-3.010100	3.676400	-11.065000	24.514217	0.001021	20.864099
800.233166	-2.992000	3.676200	-10.998000	24.550209	0.001019	20.872235
801.232904	-3.013800	3.673900	-11.071000	24.562765	0.001020	20.871083
802.234027	-3.011200	3.675700	-11.067000	24.569061	0.001021	20.864124
803.232650	-3.012900	3.675500	-11.072000	24.586023	0.001018	20.863125
804.232487	-3.009700	3.674500	-11.058000	24.565281	0.001017	20.874081
805.234788	-2.978000	3.675900	-10.945000	24.530565	0.001018	20.887612
806.234599	-3.001900	3.673800	-11.026000	24.534346	0.001018	20.855845
807.232359	-2.994100	3.675100	-11.002000	24.514678	0.001018	20.870251
808.237458	-3.002800	3.674700	-11.033000	24.494993	0.001015	20.888906
809.238538	-3.007200	3.674500	-11.048000	24.482884	0.001017	20.874387
810.234820	-2.999200	3.673700	-11.016000	24.454477	0.001018	20.883819
811.240400	-3.013200	3.673300	-11.068000	24.458359	0.001016	20.887240
812.233780	-2.997200	3.674900	-11.012000	24.452662	0.001014	20.884844
813.237777	-3.010100	3.672300	-11.053000	24.472283	0.001017	20.865649
814.234174	-3.002700	3.672200	-11.025000	24.479525	0.001017	20.872914
815.235260	-3.009200	3.672400	-11.050000	24.501047	0.001013	20.883126
816.233139	-3.005900	3.672300	-11.037000	24.500868	0.001014	20.909023
817.240184	-2.990200	3.672400	-10.981000	24.546236	0.001015	20.870146
818.237136	-2.992200	3.672800	-10.989000	24.544513	0.001016	20.885485
819.237876	-2.983200	3.672200	-10.954000	24.587732	0.001015	20.898028
820.238220	-2.996700	3.671600	-11.002000	24.596481	0.001014	20.880730
821.240037	-2.999400	3.671000	-11.010000	24.619254	0.001013	20.878924
822.243256	-3.018200	3.669600	-11.073000	24.618730	0.001015	20.906372
823.241449	-2.981700	3.671200	-10.945000	24.634706	0.001015	20.889213
824.241573	-2.987400	3.669700	-10.962000	24.669968	0.001013	20.886663
825.240469	-2.971700	3.672900	-10.914000	24.672534	0.001012	20.893031
826.239925	-3.025400	3.670100	-11.102000	24.683773	0.001013	20.905256
827.243672	-3.001000	3.669300	-11.011000	24.717295	0.001013	20.897645
828.240716	-3.017200	3.668500	-11.067000	24.723528	0.001013	20.902477
829.242435	-2.995500	3.668400	-10.986000	24.726044	0.001012	20.895518
830.243530	-3.012100	3.667700	-11.046000	24.741291	0.001013	20.886164
831.244230	-3.003200	3.667900	-11.015000	24.748531	0.001010	20.890110
832.243780	-2.984000	3.669600	-10.949000	24.760419	0.001010	20.920056
833.246193	-2.998900	3.667300	-10.996000	24.767289	0.001011	20.913674
834.243449	-2.984100	3.668600	-10.946000	24.735465	0.001011	20.906869
835.245082	-2.979400	3.668400	-10.929000	24.727407	0.001010	20.889301
836.244181	-2.995200	3.666600	-10.981000	24.718059	0.001009	20.900782
837.248318	-2.985800	3.667400	-10.948000	24.693489	0.001009	20.908842
838.246822	-2.983900	3.666600	-10.940000	24.680807	0.001009	20.891850
839.247330	-3.013500	3.666200	-11.048000	24.676631	0.001009	20.876755
840.252358	-3.001300	3.664700	-10.998000	24.707752	0.001010	20.910826
841.248189	-2.978400	3.666000	-10.917000	24.720625	0.001010	20.912365
842.246951	-3.013400	3.665300	-11.043000	24.725885	0.001009	20.905316
843.251137	-3.026300	3.663400	-11.085000	24.717802	0.001011	20.921858
844.249357	-2.998300	3.665300	-10.989000	24.742793	0.001007	20.903317
845.246766	-2.995400	3.664700	-10.977000	24.766545	0.001009	20.938055
846.247278	-2.988700	3.664800	-10.952000	24.793258	0.001009	20.926932
847.247447	-2.993800	3.664700	-10.971000	24.778280	0.001011	20.916169
848.247962	-2.973700	3.663600	-10.893000	24.737352	0.001006	20.921563
849.251357	-3.001600	3.662100	-10.991000	24.725987	0.001007	20.925805
850.256765	-3.034500	3.660700	-11.107000	24.730443	0.001007	20.925535
851.247375	-2.993100	3.663100	-10.963000	24.764884	0.001008	20.902727
852.247416	-3.026300	3.662700	-11.084000	24.767360	0.001006	20.928442
853.253222	-2.994200	3.663900	-10.969000	24.760734	0.001007	20.901881
854.250403	-2.999300	3.661100	-10.979000	24.806346	0.001005	20.932479
855.249739	-2.987100	3.662900	-10.940000	24.822919	0.001004	20.929197
856.253490	-2.990100	3.661400	-10.946000	24.806077	0.001005	20.924624
857.251024	-3.002700	3.660500	-10.991000	24.848714	0.001004	20.919525
858.250545	-2.991400	3.661300	-10.951000	24.871261	0.001004	20.926032
859.254494	-2.996700	3.660300	-10.968000	24.852683	0.001004	20.934886
860.251073	-2.989200	3.661200	-10.943000	24.846043	0.001003	20.921112
861.252382	-3.007100	3.661200	-11.009000	24.811783	0.001007	20.930350
862.252143	-2.988500	3.661800	-10.942000	24.775072	0.001003	20.916269
863.254268	-3.005800	3.661100	-11.003000	24.760553	0.001003	20.937257
864.255070	-3.003000	3.658700	-10.986000	24.789181	0.001002	20.935168
865.253603	-3.015700	3.659600	-11.035000	24.764166	0.001001	20.943253
866.255923	-2.993200	3.658600	-10.951000	24.801797	0.001002	20.919380
867.254330	-2.991200	3.659800	-10.946000	24.795400	0.001002	20.927659
868.255221	-2.984900	3.658700	-10.920000	24.802894	0.001000	20.952720
869.257046	-3.010600	3.659000	-11.015000	24.783127	0.001001	20.951375
870.256682	-3.007200	3.656800	-10.995000	24.792231	0.001000	20.954821
871.255941	-3.002200	3.656400	-10.975000	24.812100	0.001000	20.938254
872.255442	-3.008600	3.657200	-11.002000	24.813365	0.000999	20.948530
873.255802	-3.023200	3.655900	-11.051000	24.826005	0.001000	20.950784
874.263007	-3.003000	3.656800	-10.980000	24.861860	0.000998	20.939355
875.256230	-3.022000	3.654900	-11.044000	24.865908	0.000998	20.958114
876.261234	-3.008100	3.654600	-10.993000	24.830897	0.000999	20.954745
877.260390	-3.013800	3.655300	-11.016000	24.858183	0.001000	20.944198
878.259387	-2.998600	3.653800	-10.955000	24.843217	0.000999	20.950041
879.256386	-2.994000	3.656200	-10.945000	24.891853	0.000997	20.968504
880.261212	-2.980500	3.655800	-10.895000	24.868511	0.000996	20.960252
881.259523	-2.973400	3.656800	-10.871000	24.873530	0.000998	20.948695
882.263138	-3.016000	3.653500	-11.019000	24.865436	0.000997	20.952425
883.259651	-3.032100	3.652900	-11.075000	24.843319	0.000997	20.951565
884.259374	-3.005200	3.654700	-10.982000	24.817411	0.000997	20.952116
885.263135	-3.012900	3.652900	-11.005000	24.793304	0.000997	20.961112
886.260847	-3.020900	3.653400	-11.036000	24.773791	0.000997	20.955755
887.259821	-3.023600	3.652600	-11.043000	24.755927	0.000996	20.955372
888.262453	-2.993000	3.652700	-10.931000	24.778733	0.000995	20.951233
889.262485	-2.995500	3.652600	-10.940000	24.809265	0.000996	20.961010
890.261663	-2.954500	3.653700	-10.793000	24.839950	0.000996	20.952451
891.262918	-2.999900	3.653600	-10.957000	24.861656	0.000994	20.975181
892.261696	-2.987800	3.653100	-10.913000	24.890922	0.000995	20.957615
893.264517	-2.993000	3.651200	-10.927000	24.895762	0.000993	20.953938
894.263694	-2.995800	3.651800	-10.938000	24.870455	0.000994	20.959832
895.263645	-3.008600	3.649900	-10.980000	24.850663	0.000993	20.946134
896.264521	-3.002300	3.650900	-10.959000	24.849769	0.000993	20.974156
897.265550	-3.018700	3.649800	-11.016000	24.850126	0.000993	20.956973
898.267535	-3.014900	3.650400	-11.005000	24.852923	0.000992	20.948402
899.264217	-3.003900	3.649700	-10.961000	24.852219	0.000991	20.955281
900.266017	-3.012200	3.650600	-10.996000	24.807376	0.000991	20.942046
901.263987	-3.007600	3.649100	-10.973000	24.817461	0.000991	20.952167
902.265367	-2.994800	3.650200	-10.931000	24.783458	0.000991	20.958818
903.266060	-2.981200	3.650700	-10.882000	24.769717	0.000991	20.958779
904.266489	-2.992500	3.647700	-10.915000	24.766653	0.000991	20.933422
905.269001	-3.004100	3.648100	-10.959000	24.771301	0.000990	20.932397
906.267211	-2.999500	3.647700	-10.940000	24.814219	0.000988	20.938484
907.268369	-3.027400	3.645600	-11.035000	24.838889	0.000989	20.935267
908.266527	-3.006500	3.647300	-10.965000	24.839783	0.000987	20.934268
909.267962	-2.985800	3.646700	-10.887000	24.822545	0.000988	20.928349
910.268227	-2.997700	3.647100	-10.932000	24.792268	0.000989	20.933998
911.267825	-2.992500	3.646800	-10.911000	24.790135	0.000986	20.912419
912.267236	-2.992000	3.646600	-10.910000	24.830501	0.000988	20.931591
913.270410	-3.000100	3.645500	-10.937000	24.828891	0.000988	20.916226
914.273639	-3.010400	3.644700	-10.971000	24.826005	0.000985	20.929924
915.268059	-3.000400	3.646300	-10.940000	24.802498	0.000987	20.919136
916.272563	-2.982100	3.646400	-10.874000	24.794899	0.000986	20.931423
917.269411	-3.008400	3.644700	-10.963000	24.812994	0.000986	20.942943
918.268453	-3.006300	3.644200	-10.954000	24.813543	0.000987	20.925004
919.270302	-3.025300	3.643200	-11.021000	24.854276	0.000983	20.915624
920.271513	-3.032600	3.643200	-11.047000	24.911389	0.000985	20.913677
921.270206	-3.010100	3.641900	-10.961000	24.904749	0.000985	20.926452
922.274655	-2.994900	3.642700	-10.908000	24.934919	0.000985	20.921646
923.269624	-2.998700	3.643700	-10.924000	24.960519	0.000985	20.914151
924.269170	-2.977000	3.643500	-10.846000	24.957506	0.000985	20.918713
925.271723	-3.003200	3.641800	-10.936000	24.952884	0.000982	20.907911
926.270101	-2.964300	3.643100	-10.798000	24.962524	0.000983	20.905733
927.271141	-3.005700	3.641300	-10.943000	24.955246	0.000983	20.917867
928.273945	-2.998500	3.643400	-10.924000	24.948327	0.000980	20.902389
929.273383	-2.984000	3.643100	-10.869000	24.953345	0.000981	20.896995
930.270948	-2.988100	3.642900	-10.884000	24.909807	0.000979	20.900711
931.273622	-3.004000	3.641800	-10.939000	24.875600	0.000980	20.887243
932.272923	-3.000400	3.640500	-10.921000	24.870443	0.000982	20.916203
933.269998	-3.000200	3.640200	-10.920000	24.855976	0.000982	20.895047
934.273990	-3.014200	3.640200	-10.970000	24.882254	0.000980	20.914781
935.274158	-3.016600	3.641500	-10.984000	24.871951	0.000980	20.909657
936.271441	-3.019300	3.639700	-10.988000	24.877863	0.000980	20.911323
937.273639	-3.010800	3.639800	-10.958000	24.912554	0.000979	20.923380
938.270163	-2.999000	3.639700	-10.914000	24.914930	0.000980	20.894948
939.273077	-3.010600	3.639400	-10.956000	24.963472	0.000979	20.916641
940.276225	-2.986900	3.638600	-10.867000	24.990539	0.000979	20.890232
941.273697	-2.979000	3.638700	-10.838000	24.988305	0.000978	20.897472
942.273224	-2.982500	3.638400	-10.851000	24.978857	0.000980	20.892731
943.279111	-3.006400	3.638300	-10.937000	24.990604	0.000978	20.906892
944.274946	-3.001500	3.638600	-10.919000	25.017799	0.000978	20.883930
945.272321	-3.020800	3.637300	-10.987000	25.015346	0.000977	20.894744
946.274378	-2.970300	3.638100	-10.804000	25.008097	0.000978	20.894105
947.273742	-2.994200	3.638100	-10.892000	24.993184	0.000975	20.890042
948.274887	-2.994500	3.637000	-10.890000	24.935029	0.000978	20.904214
949.278905	-3.011200	3.635600	-10.947000	24.931467	0.000978	20.882624
950.277405	-3.009900	3.636500	-10.945000	24.912378	0.000975	20.879586
951.277629	-3.017000	3.634900	-10.966000	24.863936	0.000975	20.892606
952.278689	-2.996500	3.635700	-10.892000	24.825988	0.000975	20.898142
953.275714	-3.000600	3.635400	-10.907000	24.831988	0.000974	20.898474
954.275263	-2.988500	3.636600	-10.867000	24.855381	0.000974	20.880228
955.284620	-2.985700	3.635700	-10.855000	24.859557	0.000975	20.882047
956.276834	-2.993000	3.635400	-10.880000	24.877484	0.000974	20.876806
957.275954	-3.005500	3.634600	-10.923000	24.882539	0.000973	20.884250
958.279374	-3.000000	3.633300	-10.899000	24.890022	0.000972	20.890811
959.284194	-3.010200	3.634300	-10.939000	24.925250	0.000973	20.903408
960.278138	-2.987600	3.632800	-10.852000	24.918890	0.000973	20.876165
961.281597	-2.988200	3.635800	-10.862000	24.918941	0.000969	20.891862
962.280049	-2.997300	3.633700	-10.890000	24.920079	0.000972	20.908649
963.280077	-2.997600	3.633000	-10.889000	24.945065	0.000969	20.890581
964.281089	-3.007500	3.632800	-10.925000	24.961305	0.000971	20.884597
965.281113	-2.997700	3.632700	-10.888000	24.962824	0.000970	20.888492
966.277401	-2.995000	3.631300	-10.874000	24.975757	0.000970	20.883456
967.280406	-2.985800	3.632200	-10.844000	24.978631	0.000969	20.914313
968.290097	-2.996500	3.631100	-10.880000	24.978834	0.000970	20.871373
969.279837	-3.018500	3.629900	-10.956000	24.953619	0.000970	20.878305
970.281699	-3.012700	3.630700	-10.937000	24.908305	0.000968	20.872653
971.279303	-2.989800	3.629600	-10.851000	24.900760	0.000968	20.883098
972.278302	-3.014600	3.629400	-10.939000	24.888452	0.000968	20.893977
973.279537	-3.004900	3.628700	-10.902000	24.878121	0.000968	20.879816
974.281301	-3.035300	3.628800	-11.013000	24.881467	0.000965	20.886493
975.278443	-2.987500	3.630400	-10.844000	24.895230	0.000966	20.877073
976.280416	-3.004000	3.627700	-10.897000	24.897988	0.000965	20.865144
977.278404	-2.988800	3.628000	-10.843000	24.867178	0.000965	20.884480
978.279175	-3.000300	3.627300	-10.882000	24.857319	0.000967	20.887862
979.283916	-3.006200	3.629100	-10.909000	24.824605	0.000966	20.890590
980.280606	-3.009600	3.628300	-10.919000	24.785059	0.000966	20.864181
981.281937	-3.026400	3.627600	-10.977000	24.798964	0.000964	20.877661
982.285038	-3.009200	3.625800	-10.909000	24.794407	0.000964	20.873087
983.281662	-3.021800	3.625800	-10.955000	24.813916	0.000964	20.877968
984.285353	-2.995000	3.625600	-10.858000	24.815003	0.000963	20.870050
985.289910	-3.011400	3.627000	-10.922000	24.814109	0.000963	20.899496
986.283006	-2.999900	3.626300	-10.877000	24.817557	0.000962	20.882570
987.282933	-3.004200	3.626000	-10.891000	24.836634	0.000963	20.877533
988.294103	-3.015900	3.626200	-10.934000	24.852173	0.000961	20.877956
989.282516	-3.016500	3.624800	-10.934000	24.869360	0.000962	20.886195
990.283589	-3.020500	3.624600	-10.947000	24.881592	0.000962	20.881877
991.286540	-3.022100	3.624400	-10.953000	24.915236	0.000960	20.879135
992.284036	-3.018200	3.623900	-10.936000	24.912158	0.000960	20.864667
993.283191	-3.009500	3.624800	-10.907000	24.886800	0.000961	20.877621
994.286501	-3.016300	3.622400	-10.925000	24.917111	0.000961	20.860156
995.286769	-3.004500	3.623400	-10.884000	24.917380	0.000959	20.879390
996.285297	-2.995200	3.623500	-10.852000	24.907573	0.000960	20.877133
997.284726	-3.013100	3.621200	-10.910000	24.939977	0.000960	20.885948
998.284225	-2.980000	3.624000	-10.798000	24.937015	0.000956	20.873968
999.282138	-2.990500	3.623100	-10.834000	24.919881	0.000958	20.868625
1000.287284	-3.016200	3.621300	-10.921000	24.924158	0.000957	20.863435
1001.289505	-3.015400	3.620100	-10.915000	24.922305	0.000956	20.867739
1002.286826	-2.986300	3.621500	-10.813000	24.916956	0.000957	20.875172
1003.289354	-3.011700	3.621200	-10.905000	24.906959	0.000956	20.859449
1004.287595	-3.001800	3.620900	-10.869000	24.950242	0.000955	20.865908
1005.288159	-2.989600	3.621800	-10.827000	24.969840	0.000954	20.882732
1006.287198	-2.994900	3.619600	-10.838000	24.969905	0.000954	20.871892
1007.287563	-2.999900	3.620100	-10.859000	24.968524	0.000955	20.880463
1008.286510	-2.990200	3.620400	-10.824000	24.975381	0.000955	20.858424
1009.288119	-2.994200	3.617600	-10.831000	24.941049	0.000955	20.860000
1010.287794	-2.984900	3.620900	-10.808000	24.942876	0.000953	20.888384
1011.287234	-3.006600	3.619500	-10.882000	24.961056	0.000954	20.846891
1012.291959	-3.010600	3.616700	-10.888000	24.989476	0.000954	20.863563
1013.289227	-2.996100	3.618400	-10.841000	25.009341	0.000954	20.855054
1014.289250	-3.013400	3.617300	-10.899000	25.057955	0.000954	20.860704
1015.290530	-3.002700	3.618200	-10.863000	25.082161	0.000952	20.853234
1016.296782	-3.018600	3.616000	-10.915000	25.095234	0.000952	20.859718
1017.290491	-3.011200	3.616400	-10.888000	25.111918	0.000950	20.862717
1018.293994	-3.001700	3.617600	-10.857000	25.107311	0.000951	20.859514
1019.291704	-3.022900	3.616700	-10.932000	25.130811	0.000949	20.867458
1020.293778	-2.988700	3.617700	-10.811000	25.169439	0.000951	20.865459
1021.298207	-2.973100	3.617700	-10.755000	25.167052	0.000949	20.856425
1022.292820	-2.997000	3.614900	-10.833000	25.163975	0.000949	20.859974
1023.293197	-2.993100	3.615300	-10.819000	25.137398	0.000948	20.857950
1024.292748	-2.997200	3.614500	-10.832000	25.155295	0.000948	20.848890
1025.295087	-2.990400	3.615000	-10.809000	25.182152	0.000946	20.863997
1026.295183	-3.013800	3.614200	-10.891000	25.161653	0.000945	20.872341
1027.295103	-2.993200	3.614800	-10.819000	25.164218	0.000946	20.877761
1028.294998	-2.980000	3.615300	-10.773000	25.168200	0.000945	20.858052
1029.298462	-2.975200	3.615100	-10.754000	25.168712	0.000944	20.887013
1030.296375	-2.995800	3.614300	-10.827000	25.199844	0.000945	20.851414
1031.294829	-3.011600	3.612300	-10.878000	25.211346	0.000945	20.855375
1032.295013	-2.974900	3.613900	-10.750000	25.190961	0.000943	20.840126
1033.298637	-3.004600	3.613300	-10.856000	25.195786	0.000943	20.862038
1034.300333	-3.006100	3.612400	-10.858000	25.158118	0.000945	20.848879
1035.296600	-2.990300	3.613700	-10.805000	25.146604	0.000943	20.859131
1036.297706	-2.993700	3.612800	-10.815000	25.156279	0.000942	20.838973
1037.298552	-3.009800	3.612300	-10.872000	25.151952	0.000942	20.853594
1038.297471	-3.004800	3.611100	-10.849000	25.157940	0.000942	20.842062
1039.301166	-3.010600	3.611500	-10.872000	25.154379	0.000940	20.847496
1040.300600	-2.986800	3.611800	-10.787000	25.124507	0.000940	20.869664
1041.297399	-3.011800	3.610900	-10.875000	25.116135	0.000941	20.838502
1042.300181	-2.984900	3.610700	-10.776000	25.135806	0.000940	20.859670
1043.299406	-2.992700	3.611600	-10.808000	25.118126	0.000939	20.853302
1044.297493	-3.011400	3.608400	-10.865000	25.105718	0.000939	20.846536
1045.297689	-2.992500	3.609200	-10.800000	25.089416	0.000938	20.851033
1046.301140	-3.006700	3.608200	-10.847000	25.089851	0.000940	20.835350
1047.298295	-2.988000	3.609300	-10.784000	25.101991	0.000937	20.839001
1048.295993	-3.003700	3.607800	-10.835000	25.089353	0.000935	20.851445
1049.305793	-2.993800	3.607200	-10.798000	25.058077	0.000938	20.841386
1050.300134	-2.997500	3.607400	-10.812000	25.063669	0.000935	20.853163
1051.299089	-3.004200	3.607700	-10.837000	25.036246	0.000935	20.859301
1052.301979	-3.000300	3.607300	-10.822000	25.038481	0.000936	20.837363
1053.297015	-2.986900	3.607900	-10.775000	25.036962	0.000934	20.827304
1054.299759	-3.006700	3.606000	-10.841000	25.065993	0.000934	20.837953
1055.303464	-2.993500	3.606500	-10.795000	25.063275	0.000933	20.843759
1056.303399	-2.996800	3.604800	-10.802000	25.073947	0.000933	20.844041
1057.301379	-2.997400	3.606300	-10.809000	25.085948	0.000932	20.849449
1058.304190	-3.007200	3.604300	-10.838000	25.065982	0.000930	20.841735
1059.303753	-2.996400	3.605200	-10.801000	25.088578	0.000932	20.847822
1060.303652	-2.996800	3.603900	-10.798000	25.085388	0.000933	20.849835
1061.304178	-3.005300	3.604200	-10.830000	25.070491	0.000931	20.847683
1062.303181	-3.010400	3.604900	-10.852000	25.048265	0.000931	20.816364
1063.301856	-3.001500	3.603900	-10.816000	25.069113	0.000929	20.848671
1064.303138	-3.008300	3.603700	-10.840000	25.062806	0.000928	20.824323
1065.302938	-3.001200	3.603200	-10.812000	25.062540	0.000932	20.824530
1066.302891	-2.981700	3.603800	-10.744000	25.030725	0.000929	20.830052
1067.309124	-3.014500	3.601700	-10.856000	25.037966	0.000930	20.832579
1068.303393	-3.002200	3.601900	-10.812000	25.057307	0.000928	20.838243
1069.303951	-3.008500	3.601900	-10.835000	25.056068	0.000928	20.836051
1070.309957	-3.010300	3.604000	-10.848000	25.054985	0.000928	20.840653
1071.304119	-3.011400	3.601800	-10.845000	25.028137	0.000927	20.820816
1072.307438	-2.989400	3.601300	-10.764000	25.028751	0.000929	20.832812
1073.307171	-2.986500	3.601300	-10.753000	25.048590	0.000928	20.837079
1074.308460	-2.998600	3.600600	-10.795000	25.055446	0.000925	20.835426
1075.305553	-2.997100	3.600200	-10.790000	25.053825	0.000927	20.854187
1076.308034	-2.992000	3.600000	-10.770000	25.088932	0.000926	20.858134
1077.310222	-3.000500	3.599500	-10.799000	25.097550	0.000926	20.833121
1078.306720	-3.000100	3.600300	-10.801000	25.140749	0.000925	20.831917
1079.306401	-2.993000	3.599800	-10.773000	25.117031	0.000924	20.826599
1080.305641	-2.998800	3.598000	-10.788000	25.182442	0.000922	20.824936
1081.306118	-3.016900	3.598900	-10.856000	25.196368	0.000925	20.824691
1082.305650	-2.982800	3.599100	-10.735000	25.179493	0.000924	20.812966
1083.305916	-2.989100	3.599200	-10.757000	25.130768	0.000923	20.812889
1084.305734	-3.007200	3.596900	-10.815000	25.166090	0.000922	20.816580
1085.305798	-2.993100	3.597300	-10.767000	25.182595	0.000922	20.802330
1086.310067	-3.007000	3.596100	-10.812000	25.172600	0.000920	20.818848
1087.307312	-2.984700	3.597600	-10.737000	25.180720	0.000920	20.815620
1088.305336	-2.986400	3.596000	-10.738000	25.181076	0.000920	20.818823
1089.307350	-3.001800	3.595300	-10.791000	25.154718	0.000920	20.824129
1090.306439	-2.994500	3.595900	-10.767000	25.159466	0.000919	20.813724
1091.307775	-2.998500	3.595800	-10.781000	25.175180	0.000918	20.810532
1092.307913	-2.993800	3.596000	-10.764000	25.189796	0.000919	20.821886
1093.308044	-3.023100	3.593600	-10.864000	25.190460	0.000918	20.825873
1094.309242	-2.957700	3.595600	-10.633000	25.197494	0.000917	20.827244
1095.308839	-2.977300	3.595000	-10.702000	25.163168	0.000918	20.797526
1096.313338	-2.976200	3.595900	-10.700000	25.134179	0.000917	20.806356
1097.310303	-3.010900	3.592700	-10.816000	25.120253	0.000916	20.823195
1098.309249	-3.012100	3.593000	-10.821000	25.088505	0.000914	20.809343
1099.313224	-3.003600	3.593700	-10.792000	25.071322	0.000914	20.794465
1100.314523	-3.006000	3.592300	-10.798000	25.104488	0.000915	20.784610
1101.309958	-3.003300	3.590700	-10.783000	25.117241	0.000914	20.805473
1102.309515	-3.004900	3.590700	-10.789000	25.172156	0.000913	20.808446
1103.311779	-3.012400	3.591400	-10.818000	25.181017	0.000912	20.807384
1104.310997	-3.000700	3.591900	-10.776000	25.215494	0.000913	20.796478
1105.311264	-2.993500	3.591400	-10.749000	25.236478	0.000912	20.804743
1106.311679	-3.016400	3.589600	-10.826000	25.221710	0.000910	20.803667
1107.314405	-2.997800	3.591300	-10.764000	25.217423	0.000912	20.807424
1108.314717	-2.984900	3.590800	-10.717000	25.180890	0.000910	20.808204
1109.314559	-2.991800	3.589100	-10.737000	25.153612	0.000910	20.812588
1110.313002	-2.969100	3.590400	-10.659000	25.163989	0.000909	20.809729
1111.313481	-2.993100	3.588900	-10.740000	25.181119	0.000909	20.812227
1112.313684	-3.023500	3.587200	-10.843000	25.178426	0.000909	20.788662
1113.314494	-2.991200	3.590300	-10.738000	25.196911	0.000907	20.808642
1114.313680	-3.007700	3.587300	-10.789000	25.196246	0.000907	20.805129
1115.312757	-3.019000	3.586200	-10.826000	25.183164	0.000907	20.807168
1116.316825	-2.992900	3.588100	-10.737000	25.197231	0.000907	20.793315
1117.318098	-2.998800	3.587400	-10.756000	25.209819	0.000909	20.794099
1118.313798	-3.021200	3.585500	-10.831000	25.213226	0.000905	20.794675
1119.314007	-2.995200	3.588200	-10.746000	25.222098	0.000904	20.786038
1120.314250	-2.996200	3.585600	-10.742000	25.227075	0.000905	20.775862
1121.312237	-2.985100	3.586200	-10.704000	25.230446	0.000904	20.813860
1122.316390	-3.015000	3.585000	-10.807000	25.239343	0.000905	20.800507
1123.313745	-3.009600	3.586600	-10.793000	25.285243	0.000903	20.793486
1124.315434	-3.022200	3.586000	-10.837000	25.299781	0.000902	20.789590
1125.317424	-2.991000	3.587200	-10.727000	25.331817	0.000901	20.772444
1126.317513	-2.997500	3.583800	-10.742000	25.337165	0.000901	20.779236
1127.318425	-2.999600	3.584600	-10.749000	25.355596	0.000902	20.789681
1128.318839	-3.017900	3.584000	-10.815000	25.384030	0.000902	20.784094
1129.319162	-2.991900	3.584100	-10.722000	25.360114	0.000900	20.783313
1130.319934	-3.013700	3.583400	-10.797000	25.318227	0.000900	20.777765
1131.319632	-3.019700	3.581400	-10.813000	25.313785	0.000900	20.789900
1132.320500	-3.001400	3.583700	-10.754000	25.299145	0.000898	20.781839
1133.319703	-3.018600	3.582200	-10.813000	25.267671	0.000901	20.762092
1134.320377	-3.005200	3.582400	-10.764000	25.284276	0.000898	20.774023
1135.319607	-3.005300	3.580500	-10.760000	25.238365	0.000898	20.786249
1136.320766	-2.982900	3.583400	-10.687000	25.244569	0.000899	20.795323
1137.320212	-3.010300	3.580400	-10.778000	25.231996	0.000897	20.773691
1138.318970	-3.008100	3.580400	-10.770000	25.217587	0.000896	20.794786
1139.321804	-3.006300	3.581300	-10.766000	25.200215	0.000895	20.780664
1140.319879	-2.994300	3.581400	-10.722000	25.186097	0.000896	20.774077
1141.320988	-3.004900	3.579700	-10.755000	25.160095	0.000895	20.765516
1142.322146	-2.996000	3.579700	-10.724000	25.141547	0.000895	20.760173
1143.319777	-3.006000	3.579000	-10.757000	25.164563	0.000892	20.763838
1144.320533	-3.010200	3.579000	-10.773000	25.155233	0.000893	20.776283
1145.321581	-2.985900	3.578300	-10.683000	25.158833	0.000892	20.795545
1146.322422	-2.999400	3.579000	-10.734000	25.171164	0.000893	20.780423
1147.320956	-2.987200	3.579200	-10.691000	25.185526	0.000892	20.762598
1148.327662	-2.981200	3.578300	-10.667000	25.198354	0.000893	20.760303
1149.320851	-2.998600	3.578900	-10.730000	25.202706	0.000893	20.780321
1150.326190	-2.995800	3.577200	-10.716000	25.227534	0.000894	20.776797
1151.322598	-2.984600	3.577900	-10.678000	25.203767	0.000889	20.771428
1152.325648	-3.009600	3.574900	-10.757000	25.279585	0.000891	20.776899
1153.324118	-3.004100	3.577000	-10.744000	25.300556	0.000891	20.770928
1154.322672	-3.003300	3.575300	-10.736000	25.302369	0.000890	20.780335
1155.324734	-3.005100	3.576500	-10.746000	25.313064	0.000890	20.770210
1156.323891	-2.996700	3.575400	-10.714000	25.315719	0.000887	20.774773
1157.324245	-3.006700	3.576100	-10.751000	25.314520	0.000888	20.737532
1158.329412	-2.991400	3.575200	-10.694000	25.323326	0.000887	20.777194
1159.326902	-2.996800	3.575900	-10.715000	25.329988	0.000887	20.762072
1160.327235	-3.004300	3.576100	-10.743000	25.303223	0.000887	20.794469
1161.329240	-3.016200	3.572500	-10.774000	25.279831	0.000887	20.772405
1162.329393	-3.011600	3.573100	-10.760000	25.243017	0.000884	20.769582
1163.328026	-3.021700	3.572800	-10.795000	25.234836	0.000885	20.757575
1164.335780	-2.983800	3.571900	-10.657000	25.236060	0.000884	20.759753
1165.329899	-2.993100	3.572100	-10.690000	25.244932	0.000883	20.762970
1166.329137	-2.985000	3.572500	-10.664000	25.249157	0.000883	20.780488
1167.332132	-3.004500	3.572300	-10.732000	25.248390	0.000884	20.773080
1168.329750	-2.982600	3.571300	-10.650000	25.210696	0.000882	20.764633
1169.330314	-3.016100	3.570100	-10.767000	25.195150	0.000880	20.771311
1170.331702	-2.975700	3.571300	-10.626000	25.193464	0.000883	20.760610
1171.329832	-2.989600	3.571300	-10.675000	25.186801	0.000881	20.759611
1172.331682	-3.006700	3.570200	-10.734000	25.202514	0.000880	20.741246
1173.335396	-2.991000	3.570200	-10.678000	25.192978	0.000882	20.759647
1174.331274	-2.962600	3.571000	-10.578000	25.212570	0.000880	20.767938
1175.331387	-2.991800	3.570200	-10.680000	25.229344	0.000878	20.779088
1176.335641	-2.999800	3.570200	-10.709000	25.239556	0.000878	20.779858
1177.334836	-2.993700	3.568500	-10.683000	25.237714	0.000878	20.771371
1178.333207	-3.003300	3.568700	-10.717000	25.244711	0.000877	20.762748
1179.334898	-2.997000	3.568400	-10.693000	25.236923	0.000876	20.754454
1180.333695	-3.009300	3.568400	-10.737000	25.259439	0.000877	20.771845
1181.333308	-3.005300	3.567400	-10.720000	25.276542	0.000877	20.779060
1182.336966	-2.993100	3.566900	-10.676000	25.311972	0.000877	20.775752
1183.334419	-3.002200	3.568700	-10.713000	25.321021	0.000874	20.776303
1184.334579	-3.009400	3.567100	-10.734000	25.317051	0.000876	20.772316
1185.337280	-3.043700	3.564800	-10.850000	25.308449	0.000876	20.768421
1186.339360	-2.994500	3.565000	-10.673000	25.341912	0.000874	20.793960
1187.337311	-2.985700	3.566000	-10.645000	25.356933	0.000873	20.774429
1188.339447	-2.996700	3.565300	-10.681000	25.363275	0.000873	20.764676
1189.339236	-2.993100	3.564500	-10.668000	25.356141	0.000872	20.770789
1190.337190	-2.975100	3.565600	-10.608000	25.390076	0.000871	20.770249
1191.339814	-2.987000	3.566300	-10.652000	25.391645	0.000871	20.755229
1192.338735	-3.006800	3.564600	-10.718000	25.409230	0.000871	20.783318
1193.345248	-2.982000	3.565300	-10.630000	25.433464	0.000869	20.765453
1194.341788	-3.012800	3.564700	-10.738000	25.418801	0.000868	20.777282
1195.339983	-3.031600	3.562100	-10.797000	25.424849	0.000869	20.786200
1196.339334	-3.020900	3.562900	-10.762000	25.430094	0.000870	20.762543
1197.347929	-3.003800	3.561900	-10.699000	25.436639	0.000868	20.762952
1198.340247	-3.009500	3.563200	-10.723000	25.451902	0.000867	20.781598
1199.339715	-2.994500	3.561900	-10.666000	25.436600	0.000867	20.766231
1200.342667	-3.011800	3.561700	-10.726000	25.428903	0.000867	20.769409
1201.343622	-3.005800	3.561300	-10.704000	25.409809	0.000866	20.760666
1202.340854	-2.995100	3.561300	-10.665000	25.399780	0.000866	20.780468
1203.345674	-3.008600	3.560200	-10.709000	25.371676	0.000865	20.778801
1204.344914	-2.995800	3.561500	-10.667000	25.355494	0.000863	20.763500
1205.341896	-3.010800	3.559300	-10.716000	25.312212	0.000863	20.788321
1206.346801	-2.991800	3.559300	-10.646000	25.293348	0.000863	20.779812
1207.343999	-3.000600	3.558300	-10.677000	25.273833	0.000863	20.783926
1208.341128	-3.007500	3.559800	-10.704000	25.245624	0.000862	20.795433
1209.344075	-3.011500	3.559200	-10.717000	25.215820	0.000861	20.779261
1210.345053	-3.023600	3.558300	-10.758000	25.227997	0.000862	20.788168
1211.346487	-2.990300	3.558400	-10.639000	25.235565	0.000862	20.769213
1212.348100	-2.983200	3.559300	-10.617000	25.267207	0.000862	20.770635
1213.346594	-2.987700	3.558500	-10.631000	25.271599	0.000859	20.791166
1214.344035	-3.025100	3.556900	-10.759000	25.265496	0.000859	20.783142
1215.349730	-2.988500	3.557900	-10.632000	25.287155	0.000862	20.788293
1216.347031	-3.018000	3.556400	-10.732000	25.296588	0.000859	20.792549
1217.347223	-2.992900	3.556200	-10.642000	25.312034	0.000859	20.772495
1218.349158	-2.986900	3.556200	-10.620000	25.327756	0.000856	20.765996
1219.350248	-2.992300	3.557100	-10.643000	25.342497	0.000855	20.763727
1220.348772	-3.001300	3.554900	-10.669000	25.338426	0.000857	20.781924
1221.354665	-2.961200	3.557300	-10.533000	25.357852	0.000857	20.803327
1222.352178	-3.010200	3.553700	-10.697000	25.331597	0.000855	20.767007
1223.348182	-3.005000	3.555600	-10.683000	25.315311	0.000856	20.787640
1224.350669	-3.001200	3.554800	-10.668000	25.297457	0.000855	20.803852
1225.350612	-3.002100	3.552500	-10.665000	25.292618	0.000854	20.784295
1226.348943	-3.000500	3.554200	-10.664000	25.260850	0.000856	20.789857
1227.350348	-2.979100	3.554100	-10.588000	25.241054	0.000854	20.815975
1228.349786	-2.991600	3.553000	-10.628000	25.294125	0.000853	20.807619
1229.347537	-2.985800	3.552900	-10.607000	25.291623	0.000852	20.786615
1230.352118	-2.974500	3.553100	-10.567000	25.312645	0.000852	20.786859
1231.350266	-3.011000	3.551800	-10.694000	25.356919	0.000850	20.790536
1232.350853	-3.005600	3.551600	-10.673000	25.370384	0.000850	20.791728
1233.352983	-3.030000	3.549700	-10.754000	25.399585	0.000851	20.813463
1234.352613	-2.993300	3.551700	-10.630000	25.418051	0.000850	20.795970
1235.350879	-2.989500	3.551900	-10.617000	25.462539	0.000849	20.796546
1236.369627	-3.039300	3.549900	-10.787000	25.453121	0.000848	20.794675
1237.355416	-2.983500	3.551900	-10.595000	25.466788	0.000851	20.790382
1238.352389	-3.006000	3.550800	-10.672000	25.442962	0.000848	20.804863
1239.355663	-3.018400	3.550800	-10.717000	25.423845	0.000847	20.786615
1240.354821	-3.012500	3.548800	-10.689000	25.455928	0.000848	20.806978
1241.354627	-3.003200	3.549100	-10.657000	25.442809	0.000847	20.801390
1242.357185	-2.985300	3.550500	-10.598000	25.441138	0.000844	20.799712
1243.354275	-2.982300	3.549500	-10.585000	25.395909	0.000845	20.822573
1244.357153	-2.989500	3.547900	-10.605000	25.319333	0.000846	20.801634
1245.359866	-2.999500	3.548400	-10.643000	25.289018	0.000845	20.785896
1246.357375	-3.010700	3.548200	-10.680000	25.247103	0.000844	20.796444
1247.356478	-2.981100	3.549200	-10.579000	25.262942	0.000843	20.797648
1248.361192	-2.994900	3.547100	-10.623000	25.300239	0.000841	20.804275
1249.357449	-2.992000	3.546300	-10.609000	25.267218	0.000841	20.808579
1250.357090	-3.011900	3.545400	-10.677000	25.294943	0.000842	20.819345
1251.358421	-3.016000	3.547400	-10.699000	25.290297	0.000840	20.792395
1252.357099	-3.012000	3.545400	-10.677000	25.288371	0.000841	20.806583
1253.358070	-2.999300	3.546300	-10.633000	25.316296	0.000841	20.798585
1254.364401	-2.983000	3.545500	-10.575000	25.303225	0.000840	20.832403
1255.359747	-2.994000	3.544600	-10.612000	25.317726	0.000838	20.793383
1256.358781	-2.987900	3.543200	-10.586000	25.327898	0.000838	20.814976
1257.362297	-3.004700	3.543400	-10.646000	25.350528	0.000838	20.809249
1258.361913	-3.012200	3.544100	-10.674000	25.359424	0.000839	20.794474
1259.361090	-2.982800	3.544100	-10.571000	25.355338	0.000836	20.810760
1260.365780	-3.007400	3.543300	-10.654000	25.367234	0.000837	20.826023
1261.363388	-2.980100	3.544100	-10.559000	25.361709	0.000836	20.811467
1262.362248	-2.990900	3.542200	-10.594000	25.359653	0.000836	20.802764
1263.365814	-2.981400	3.543400	-10.562000	25.348868	0.000834	20.817065
1264.365850	-3.009700	3.542100	-10.659000	25.351193	0.000836	20.805649
1265.361703	-3.042200	3.540900	-10.770000	25.350325	0.000834	20.818053
1266.363029	-3.009600	3.541300	-10.657000	25.351345	0.000833	20.820501
1267.366318	-3.022500	3.540500	-10.701000	25.378593	0.000832	20.800919
1268.362244	-2.984700	3.541500	-10.569000	25.417328	0.000832	20.828908
1269.364963	-3.019000	3.540300	-10.687000	25.473619	0.000831	20.801984
1270.369461	-2.991000	3.540200	-10.587000	25.455267	0.000832	20.827176
1271.362707	-3.024300	3.537200	-10.696000	25.423735	0.000831	20.814005
1272.367947	-2.978000	3.540400	-10.542000	25.390347	0.000830	20.801342
1273.365838	-2.971300	3.539000	-10.514000	25.383253	0.000830	20.841159
1274.362527	-2.980300	3.538900	-10.546000	25.360943	0.000828	20.831559
1275.365798	-2.968300	3.539600	-10.506000	25.383292	0.000829	20.823181
1276.364147	-2.982100	3.538100	-10.550000	25.387630	0.000828	20.826114
1277.361134	-2.976400	3.536700	-10.526000	25.403902	0.000828	20.826807
1278.367117	-3.000000	3.537400	-10.611000	25.416013	0.000827	20.814311
1279.368410	-3.007100	3.537300	-10.634000	25.451351	0.000827	20.822769
1280.365626	-2.989900	3.536900	-10.574000	25.462033	0.000826	20.833496
1281.364460	-2.994200	3.538100	-10.593000	25.510372	0.000825	20.806648
1282.362004	-2.988400	3.537400	-10.571000	25.538523	0.000827	20.824487
1283.363349	-3.004400	3.535500	-10.621000	25.525430	0.000827	20.828408
1284.363838	-2.997500	3.535700	-10.597000	25.523567	0.000825	20.801881
1285.364667	-3.007200	3.535800	-10.632000	25.553261	0.000823	20.842132
1286.366177	-2.979100	3.535200	-10.530000	25.564530	0.000823	20.825949
1287.365456	-2.994000	3.533300	-10.577000	25.550352	0.000823	20.827357
1288.363506	-2.989000	3.534700	-10.563000	25.525546	0.000822	20.830895
1289.365010	-2.988800	3.533700	-10.560000	25.508036	0.000820	20.836545
1290.366190	-2.976600	3.534800	-10.520000	25.480487	0.000822	20.839699
1291.365291	-3.014400	3.532500	-10.646000	25.481330	0.000819	20.838649
1292.366238	-3.003200	3.533200	-10.610000	25.421770	0.000820	20.820092
1293.364484	-2.990400	3.532700	-10.564000	25.413143	0.000819	20.834663
1294.365765	-2.990700	3.532000	-10.562000	25.394167	0.000818	20.839790
1295.366022	-3.005200	3.531400	-10.612000	25.432681	0.000821	20.833419
1296.366705	-3.008300	3.530700	-10.620000	25.459595	0.000819	20.853807
1297.366551	-2.998300	3.532500	-10.590000	25.443185	0.000819	20.837329
1298.366946	-3.009700	3.529400	-10.622000	25.452106	0.000818	20.851976
1299.364650	-3.004200	3.530100	-10.604000	25.435107	0.000818	20.839174
1300.365260	-3.002500	3.529800	-10.597000	25.424846	0.000816	20.841672
1301.366051	-3.004400	3.530100	-10.605000	25.426288	0.000814	20.845965
1302.368114	-2.983300	3.530000	-10.528000	25.424196	0.000817	20.841494
1303.368959	-3.020300	3.528000	-10.654000	25.458563	0.000815	20.853245
1304.363851	-3.001800	3.527700	-10.588000	25.458244	0.000815	20.843441
1305.364510	-3.017700	3.527300	-10.644000	25.470113	0.000813	20.834024
1306.367566	-2.991100	3.530000	-10.558000	25.459112	0.000812	20.859485
1307.366990	-2.985700	3.526900	-10.528000	25.456675	0.000812	20.850400
1308.367800	-2.991800	3.527900	-10.554000	25.447511	0.000815	20.842147
1309.370095	-2.974800	3.527600	-10.492000	25.465225	0.000815	20.857563
1310.369422	-2.996400	3.525700	-10.563000	25.494474	0.000811	20.859434
1311.366795	-3.011000	3.525100	-10.613000	25.517624	0.000812	20.842379
1312.369170	-3.022300	3.526400	-10.657000	25.512111	0.000811	20.856757
1313.369538	-3.026200	3.525200	-10.666000	25.503063	0.000809	20.847672
1314.367809	-3.026500	3.525200	-10.668000	25.476862	0.000810	20.845542
1315.369070	-2.992000	3.525100	-10.546000	25.475191	0.000808	20.856666
1316.369484	-2.991000	3.525200	-10.543000	25.423814	0.000810	20.860076
1317.368914	-2.985600	3.524200	-10.520000	25.434228	0.000807	20.842558
1318.370759	-3.002700	3.525400	-10.585000	25.413731	0.000807	20.864649
1319.368220	-2.975700	3.525400	-10.490000	25.388167	0.000806	20.865532
1320.370781	-2.992200	3.524000	-10.543000	25.393401	0.000806	20.863676
1321.369613	-3.011300	3.522500	-10.606000	25.406405	0.000807	20.866302
1322.371189	-3.016300	3.522200	-10.623000	25.421145	0.000807	20.868300
1323.370094	-2.997200	3.523400	-10.559000	25.404912	0.000803	20.877604
1324.372120	-2.995800	3.521700	-10.549000	25.406187	0.000804	20.866557
1325.371077	-3.011300	3.522000	-10.605000	25.421592	0.000804	20.876335
1326.372752	-3.010300	3.520000	-10.595000	25.399769	0.000803	20.869595
1327.372901	-2.994500	3.522400	-10.546000	25.413321	0.000803	20.852384
1328.372941	-2.998800	3.520600	-10.556000	25.434468	0.000801	20.847541
1329.374075	-3.006700	3.520200	-10.583000	25.450101	0.000802	20.854230
1330.372793	-2.995900	3.520400	-10.545000	25.495698	0.000801	20.884369
1331.372227	-3.003200	3.519700	-10.569000	25.508243	0.000802	20.878476
1332.373745	-3.023000	3.518800	-10.637000	25.554590	0.000800	20.866225
1333.373571	-2.997600	3.518400	-10.545000	25.570667	0.000801	20.889482
1334.373378	-3.001500	3.518800	-10.560000	25.575414	0.000801	20.883345
1335.376183	-2.993100	3.517900	-10.528000	25.602209	0.000801	20.888918
1336.373033	-2.991300	3.518900	-10.525000	25.610046	0.000799	20.894891
1337.373900	-3.007300	3.518200	-10.579000	25.621388	0.000799	20.881153
1338.375536	-3.024200	3.516100	-10.633000	25.631353	0.000799	20.854653
1339.375485	-3.010700	3.516500	-10.586000	25.586516	0.000798	20.885959
1340.375818	-2.992600	3.517000	-10.525000	25.599863	0.000799	20.876605
1341.376123	-3.003300	3.516300	-10.560000	25.619270	0.000796	20.895620
1342.379012	-3.009900	3.516200	-10.583000	25.631709	0.000795	20.877295
1343.379014	-2.982000	3.516400	-10.484000	25.636317	0.000795	20.864854
1344.378089	-2.990100	3.516200	-10.513000	25.653618	0.000795	20.885548
1345.383044	-3.015900	3.514400	-10.599000	25.621871	0.000795	20.891121
1346.377592	-3.005500	3.515000	-10.563000	25.634120	0.000794	20.883509
1347.378507	-3.018400	3.515000	-10.609000	25.673980	0.000794	20.877076
1348.383109	-2.999600	3.513000	-10.536000	25.671939	0.000793	20.875500
1349.380754	-2.990300	3.512600	-10.503000	25.654254	0.000795	20.901358
1350.379646	-3.004800	3.513400	-10.556000	25.682641	0.000791	20.889568
1351.383057	-2.984900	3.513900	-10.488000	25.667574	0.000791	20.903357
1352.380063	-3.014200	3.514000	-10.590000	25.641558	0.000791	20.878652
1353.381877	-2.990800	3.513500	-10.508000	25.626168	0.000791	20.904444
1354.386191	-2.985700	3.513400	-10.489000	25.665915	0.000790	20.906905
1355.382845	-2.979200	3.513400	-10.465000	25.678621	0.000791	20.894539
1356.380944	-2.991600	3.511700	-10.505000	25.704190	0.000788	20.898882
1357.382723	-3.013200	3.511400	-10.579000	25.693589	0.000787	20.908149
1358.381886	-3.016700	3.511200	-10.591000	25.694073	0.000787	20.907212
1359.380464	-2.991300	3.511600	-10.503000	25.679464	0.000787	20.906289
1360.382009	-2.996000	3.511400	-10.519000	25.638915	0.000786	20.903496
1361.381034	-3.010400	3.509600	-10.564000	25.621345	0.000785	20.877791
1362.381447	-3.008000	3.508600	-10.553000	25.608700	0.000788	20.892591
1363.381596	-2.995800	3.509300	-10.512000	25.607527	0.000783	20.899473
1364.382646	-2.991300	3.509300	-10.496000	25.577809	0.000786	20.899973
1365.381951	-2.992500	3.507200	-10.494000	25.561985	0.000783	20.886927
1366.382243	-2.998400	3.508700	-10.519000	25.532113	0.000783	20.904816
1367.382946	-2.982600	3.507600	-10.459000	25.521955	0.000784	20.910261
1368.385226	-3.006600	3.506600	-10.542000	25.493702	0.000782	20.925983
1369.383366	-3.011600	3.506300	-10.559000	25.476206	0.000782	20.919320
1370.382568	-2.993400	3.507200	-10.496000	25.476871	0.000784	20.910505
1371.386381	-3.008300	3.506300	-10.547000	25.482537	0.000781	20.905764
1372.384121	-2.986000	3.505800	-10.467000	25.515560	0.000778	20.915218
1373.386041	-2.995000	3.505300	-10.497000	25.521853	0.000780	20.899728
1374.387621	-2.991400	3.505300	-10.486000	25.566554	0.000780	20.906213
1375.385054	-2.975400	3.504600	-10.426000	25.597188	0.000780	20.928916
1376.386209	-2.986000	3.506100	-10.467000	25.559178	0.000780	20.922511
1377.386386	-3.009600	3.504100	-10.545000	25.574247	0.000779	20.938591
1378.388734	-3.004400	3.504300	-10.527000	25.582796	0.000779	20.930108
1379.387467	-3.009200	3.503100	-10.541000	25.590887	0.000778	20.926855
1380.387986	-3.002200	3.502700	-10.514000	25.613727	0.000776	20.915655
1381.388413	-2.981000	3.503000	-10.442000	25.668835	0.000776	20.925958
1382.390315	-2.997100	3.502800	-10.497000	25.709075	0.000777	20.914693
1383.388104	-3.005200	3.502700	-10.525000	25.699226	0.000774	20.925662
1384.389860	-3.019800	3.501700	-10.573000	25.734490	0.000776	20.933106
1385.390826	-2.992600	3.501800	-10.478000	25.742170	0.000776	20.916640
1386.390399	-3.010700	3.501500	-10.541000	25.776898	0.000775	20.935400
1387.390375	-2.997900	3.500700	-10.493000	25.774727	0.000773	20.944598
1388.391207	-2.997600	3.500200	-10.491000	25.734399	0.000773	20.929222
1389.391291	-2.998000	3.498400	-10.487000	25.730968	0.000773	20.925776
1390.390713	-2.999500	3.498200	-10.492000	25.756829	0.000774	20.937526
1391.390697	-2.976000	3.499700	-10.414000	25.747668	0.000773	20.920266
1392.391758	-2.974200	3.499100	-10.405000	25.755209	0.000770	20.927366
1393.390637	-3.008300	3.498100	-10.522000	25.733659	0.000771	20.927056
1394.391172	-3.010700	3.496100	-10.525000	25.705578	0.000772	20.933938
1395.391641	-2.988800	3.498100	-10.453000	25.700919	0.000770	20.924992
1396.394520	-2.996300	3.497100	-10.477000	25.696238	0.000770	20.934988
1397.392277	-3.000100	3.497700	-10.491000	25.729933	0.000768	20.942279
1398.392042	-2.993500	3.496400	-10.466000	25.727790	0.000768	20.949134
1399.392013	-2.987300	3.497100	-10.446000	25.725877	0.000767	20.933464
1400.393718	-2.981500	3.497100	-10.425000	25.678376	0.000767	20.947391
1401.395525	-3.004100	3.495100	-10.499000	25.697731	0.000771	20.936961
1402.394142	-2.988800	3.497700	-10.451000	25.676015	0.000767	20.930798
1403.395049	-3.007800	3.494400	-10.508000	25.684513	0.000767	20.922264
1404.399783	-2.994900	3.495900	-10.468000	25.670223	0.000767	20.926877
1405.396726	-2.988800	3.495600	-10.447000	25.674025	0.000768	20.927851
1406.397479	-2.997200	3.495300	-10.476000	25.646681	0.000766	20.915561
1407.397519	-2.995400	3.494700	-10.467000	25.671040	0.000764	20.936232
1408.399281	-2.986000	3.493400	-10.430000	25.647537	0.000766	20.938230
1409.398372	-2.995300	3.491700	-10.458000	25.643825	0.000763	20.928814
1410.399142	-2.999100	3.493800	-10.477000	25.658203	0.000764	20.944200
1411.397945	-3.014400	3.491700	-10.524000	25.671204	0.000764	20.929759
1412.396785	-2.991000	3.490500	-10.439000	25.677047	0.000763	20.942264
1413.398994	-2.971400	3.491600	-10.373000	25.675913	0.000762	20.929748
1414.398757	-2.978300	3.490700	-10.394000	25.696707	0.000762	20.932615
1415.398224	-3.016100	3.491000	-10.528000	25.720172	0.000761	20.921572
1416.398907	-3.012900	3.489800	-10.513000	25.724548	0.000762	20.940663
1417.400063	-2.995100	3.490500	-10.453000	25.732765	0.000759	20.934693
1418.399799	-2.991500	3.490200	-10.439000	25.739552	0.000757	20.920649
1419.398481	-3.021600	3.488200	-10.539000	25.768845	0.000759	20.907874
1420.398886	-3.026500	3.487500	-10.554000	25.757171	0.000761	20.900416
1421.401338	-2.994900	3.489000	-10.448000	25.766957	0.000757	20.944379
1422.400376	-2.999700	3.488000	-10.462000	25.756738	0.000758	20.925583
1423.400242	-3.006400	3.486600	-10.481000	25.765617	0.000758	20.900364
1424.401226	-2.986700	3.489800	-10.422000	25.779306	0.000758	20.913165
1425.400938	-3.007700	3.487600	-10.489000	25.702451	0.000760	20.920842
1426.399247	-2.990900	3.486100	-10.425000	25.689655	0.000757	20.913679
1427.401628	-2.999800	3.486300	-10.457000	25.669061	0.000756	20.910539
1428.400583	-3.000200	3.486900	-10.460000	25.690661	0.000757	20.907104
1429.399566	-3.012700	3.483700	-10.495000	25.706969	0.000754	20.929171
1430.399894	-2.982700	3.486400	-10.398000	25.740307	0.000755	20.926148
1431.407928	-2.990100	3.484700	-10.418000	25.766295	0.000755	20.909106
1432.400771	-3.002200	3.484400	-10.460000	25.783990	0.000751	20.894164
1433.405851	-3.000300	3.484100	-10.452000	25.786516	0.000752	20.908081
1434.406985	-3.017600	3.483100	-10.509000	25.769331	0.000752	20.904095
1435.401592	-3.011500	3.482800	-10.486000	25.741876	0.000752	20.894536
1436.404183	-3.011300	3.483600	-10.489000	25.698664	0.000751	20.893332
1437.406380	-2.967500	3.485000	-10.340000	25.692897	0.000752	20.898919
1438.401815	-2.999400	3.481800	-10.442000	25.672202	0.000749	20.884773
1439.408043	-2.995000	3.480700	-10.423000	25.673363	0.000751	20.898266
1440.407460	-2.988900	3.482100	-10.407000	25.666104	0.000751	20.878649
1441.404066	-2.987800	3.481000	-10.399000	25.647042	0.000750	20.874203
1442.405785	-3.011100	3.480500	-10.479000	25.645869	0.000748	20.881085
1443.405273	-2.990700	3.479300	-10.404000	25.624726	0.000749	20.876446
1444.401690	-2.992600	3.479800	-10.413000	25.630239	0.000749	20.875818
1445.410538	-3.001700	3.479800	-10.445000	25.600521	0.000747	20.889593
1446.405135	-2.994200	3.480100	-10.419000	25.606379	0.000748	20.872718
1447.403461	-2.997900	3.477400	-10.424000	25.607617	0.000746	20.879651
1448.405594	-3.003800	3.478600	-10.448000	25.642451	0.000746	20.869118
1449.404177	-2.981000	3.479900	-10.371000	25.654853	0.000746	20.875884
1450.403387	-3.010700	3.477400	-10.468000	25.630623	0.000745	20.877627
1451.404067	-3.021200	3.476400	-10.501000	25.620008	0.000743	20.878819
1452.404471	-2.994700	3.478100	-10.414000	25.625394	0.000745	20.851039
1453.402550	-2.992200	3.477500	-10.403000	25.648883	0.000743	20.878422
1454.411035	-3.006100	3.475400	-10.445000	25.640374	0.000743	20.873669
1455.405072	-3.011100	3.476200	-10.466000	25.665968	0.000742	20.876616
1456.405811	-3.019500	3.476200	-10.496000	25.673510	0.000742	20.869019
1457.405353	-2.979100	3.475600	-10.353000	25.722926	0.000743	20.878822
1458.406847	-3.019900	3.473800	-10.489000	25.719977	0.000742	20.880128
1459.403674	-2.980900	3.475700	-10.359000	25.743990	0.000740	20.872954
1460.407170	-2.984100	3.474700	-10.368000	25.764237	0.000741	20.883333
1461.406406	-3.026400	3.473000	-10.510000	25.763842	0.000740	20.866816
1462.407083	-2.983000	3.474000	-10.362000	25.771471	0.000739	20.877323
1463.407103	-2.983400	3.474200	-10.363000	25.756328	0.000738	20.904785
1464.406783	-3.008700	3.473200	-10.448000	25.747552	0.000739	20.866100
1465.405219	-3.008400	3.471700	-10.443000	25.724675	0.000737	20.868726
1466.406516	-3.015000	3.471100	-10.464000	25.716574	0.000737	20.851581
1467.405393	-3.002500	3.471400	-10.422000	25.714776	0.000737	20.862103
1468.408613	-2.997200	3.470500	-10.401000	25.674817	0.000735	20.875072
1469.406539	-2.998400	3.470900	-10.406000	25.682613	0.000735	20.881953
1470.415585	-2.993200	3.469500	-10.384000	25.689912	0.000735	20.870793
1471.406321	-3.008400	3.470600	-10.439000	25.718414	0.000735	20.869550
1472.406795	-2.994900	3.471900	-10.396000	25.739976	0.000736	20.862284
1473.406822	-2.997200	3.469200	-10.397000	25.742758	0.000736	20.851328
1474.405839	-3.021300	3.468800	-10.479000	25.765670	0.000735	20.854429
1475.407477	-2.999200	3.469400	-10.404000	25.762674	0.000733	20.872755
1476.405322	-3.001700	3.468000	-10.407000	25.752660	0.000732	20.860800
1477.413176	-3.004400	3.467400	-10.416000	25.731137	0.000733	20.852933
1478.409465	-2.989600	3.468000	-10.367000	25.728599	0.000731	20.855598
1479.410959	-3.019000	3.464800	-10.459000	25.714284	0.000731	20.834109
1480.410095	-2.999800	3.466200	-10.397000	25.712829	0.000731	20.853983
1481.412206	-3.006300	3.464900	-10.416000	25.713289	0.000731	20.849705
1482.411554	-2.987000	3.465400	-10.349000	25.733410	0.000730	20.866594
1483.413945	-3.000400	3.464900	-10.395000	25.753556	0.000730	20.854114
1484.414885	-3.009900	3.465000	-10.428000	25.770422	0.000730	20.872951
1485.414879	-3.011100	3.465100	-10.433000	25.765396	0.000728	20.850835
1486.414727	-3.009500	3.464200	-10.425000	25.817142	0.000727	20.868673
1487.415434	-2.989700	3.464700	-10.357000	25.800225	0.000727	20.862111
1488.417407	-3.015100	3.463700	-10.440000	25.776612	0.000727	20.868738
1489.414869	-2.983600	3.463000	-10.332000	25.745356	0.000727	20.861524
1490.417874	-3.006800	3.461100	-10.406000	25.805777	0.000727	20.853464
1491.414605	-2.999100	3.460800	-10.378000	25.781525	0.000726	20.829578
1492.415165	-2.996300	3.463200	-10.376000	25.787981	0.000726	20.840804
1493.415707	-2.985100	3.463600	-10.338000	25.795076	0.000727	20.834655
1494.416401	-3.007500	3.463100	-10.414000	25.785533	0.000726	20.852569
1495.416453	-3.013600	3.460500	-10.427000	25.788122	0.000726	20.849955
1496.416696	-3.016100	3.460500	-10.436000	25.787614	0.000725	20.848021
1497.416177	-2.999700	3.460800	-10.380000	25.771194	0.000724	20.847175
1498.415340	-2.997800	3.460800	-10.372000	25.743764	0.000723	20.840486
1499.414992	-3.001700	3.460900	-10.388000	25.729040	0.000724	20.850826
1500.416232	-3.001700	3.460100	-10.385000	25.741546	0.000721	20.832094
1501.417651	-2.982200	3.460800	-10.319000	25.747886	0.000723	20.845574
1502.416838	-3.027400	3.458700	-10.470000	25.756103	0.000723	20.854301
1503.415785	-3.008300	3.457700	-10.400000	25.767254	0.000721	20.843218
1504.415687	-3.004800	3.457400	-10.388000	25.764970	0.000720	20.849932
1505.420062	-2.985500	3.458400	-10.324000	25.729145	0.000720	20.825802
1506.415246	-2.971000	3.458800	-10.275000	25.711348	0.000719	20.854866
1507.416537	-2.988300	3.456300	-10.327000	25.713312	0.000721	20.825073
1508.415609	-2.998900	3.456700	-10.366000	25.692454	0.000718	20.835890
1509.428559	-2.988500	3.456400	-10.327000	25.676683	0.000718	20.842809
1510.416362	-3.008500	3.456400	-10.398000	25.677678	0.000719	20.835274
1511.419283	-3.003000	3.455500	-10.376000	25.667572	0.000716	20.850253
1512.421754	-2.982500	3.455700	-10.306000	25.684606	0.000716	20.832750
1513.416783	-3.029900	3.454500	-10.465000	25.645627	0.000714	20.825368
1514.421760	-2.986500	3.453400	-10.313000	25.633327	0.000717	20.823446
1515.419276	-3.007600	3.452800	-10.384000	25.634336	0.000716	20.833942
1516.417982	-2.994600	3.453700	-10.342000	25.642300	0.000715	20.839569
1517.421499	-3.019900	3.451600	-10.422000	25.619537	0.000713	20.825243
1518.419220	-2.983300	3.453000	-10.300000	25.641036	0.000713	20.838300
1519.418961	-3.000200	3.450200	-10.349000	25.684315	0.000714	20.849526
1520.418408	-3.013400	3.451700	-10.400000	25.671634	0.000712	20.826833
1521.417404	-2.990200	3.451300	-10.319000	25.675487	0.000711	20.848246
1522.420154	-2.992200	3.451000	-10.325000	25.654512	0.000710	20.839507
1523.418797	-2.994600	3.450100	-10.330000	25.648937	0.000713	20.817313
1524.421269	-3.012200	3.450100	-10.390000	25.638449	0.000711	20.840444
1525.424121	-2.985200	3.451200	-10.301000	25.647151	0.000709	20.843019
1526.422066	-2.984200	3.450700	-10.297000	25.684511	0.000710	20.822697
1527.425593	-2.978700	3.452400	-10.282000	25.699312	0.000709	20.835666
1528.422006	-2.997100	3.449300	-10.338000	25.734219	0.000709	20.849864
1529.423879	-3.013700	3.449200	-10.393000	25.734027	0.000709	20.849671
1530.424713	-2.998900	3.449500	-10.344000	25.741710	0.000707	20.824199
1531.420840	-3.013400	3.449000	-10.393000	25.718834	0.000706	20.830618
1532.421994	-2.989700	3.447700	-10.306000	25.713808	0.000706	20.825570
1533.427718	-3.018100	3.446700	-10.402000	25.689924	0.000705	20.822918
1534.423810	-2.978600	3.447500	-10.267000	25.667010	0.000707	20.859171
1535.422218	-3.019600	3.446300	-10.404000	25.648395	0.000706	20.828148
1536.431660	-3.003600	3.446300	-10.350000	25.624637	0.000704	20.818512
1537.425397	-3.000200	3.445200	-10.335000	25.653944	0.000705	20.828506
1538.425359	-3.014900	3.444600	-10.384000	25.668455	0.000704	20.800881
1539.430429	-3.008400	3.444300	-10.361000	25.676110	0.000704	20.831802
1540.427518	-3.002600	3.443300	-10.338000	25.699343	0.000702	20.827163
1541.431696	-3.002200	3.445000	-10.342000	25.747087	0.000701	20.822961
1542.430284	-3.000700	3.443700	-10.332000	25.717808	0.000701	20.822002
1543.426891	-2.995200	3.442500	-10.309000	25.697713	0.000702	20.818887
1544.427484	-3.005100	3.441100	-10.340000	25.670052	0.000702	20.822399
1545.430542	-2.971600	3.442500	-10.229000	25.653006	0.000701	20.838469
1546.430582	-2.994500	3.442400	-10.308000	25.668701	0.000701	20.849016
1547.429760	-2.996600	3.442500	-10.314000	25.690391	0.000700	20.812008
1548.437325	-3.004900	3.440500	-10.337000	25.712248	0.000698	20.803141
1549.430319	-3.025600	3.439600	-10.406000	25.697690	0.000700	20.824080
1550.430730	-2.979200	3.441100	-10.250000	25.676359	0.000700	20.836794
1551.434987	-2.994000	3.441400	-10.302000	25.661086	0.000698	20.801540
1552.432103	-3.011400	3.438700	-10.354000	25.660320	0.000699	20.811202
1553.434051	-2.983700	3.440600	-10.265000	25.662796	0.000697	20.814163
1554.438168	-2.981600	3.440900	-10.258000	25.638055	0.000696	20.791211
1555.435287	-3.001500	3.439400	-10.323000	25.632811	0.000697	20.813919
1556.433583	-2.986400	3.439600	-10.270000	25.627403	0.000697	20.823186
1557.436185	-3.014700	3.439000	-10.367000	25.620474	0.000695	20.825236
1558.436054	-3.006700	3.438200	-10.336000	25.615394	0.000697	20.809228
1559.434593	-3.005400	3.437700	-10.331000	25.611798	0.000697	20.821264
1560.438684	-3.028200	3.436400	-10.406000	25.618357	0.000694	20.816472
1561.435699	-2.994000	3.436300	-10.287000	25.629738	0.000696	20.816523
1562.437141	-3.004400	3.436200	-10.322000	25.625871	0.000695	20.801733
1563.437830	-3.013700	3.433700	-10.348000	25.639053	0.000693	20.808334
1564.440254	-2.999800	3.436300	-10.307000	25.633936	0.000695	20.809359
1565.441145	-2.989200	3.436300	-10.271000	25.625758	0.000693	20.797826
1566.442027	-3.012800	3.433500	-10.343000	25.644885	0.000694	20.803761
1567.448798	-2.997700	3.434500	-10.294000	25.658550	0.000692	20.823175
1568.439912	-2.988700	3.433500	-10.261000	25.682754	0.000691	20.806233
1569.439898	-3.001200	3.433200	-10.302000	25.684235	0.000691	20.807247
1570.439776	-2.994500	3.434200	-10.281000	25.731671	0.000691	20.800365
1571.439373	-2.997500	3.434200	-10.293000	25.700170	0.000691	20.794803
1572.442894	-2.999000	3.431700	-10.291000	25.701894	0.000688	20.800802
1573.442391	-2.997500	3.432200	-10.287000	25.666143	0.000690	20.806620
1574.453554	-3.004900	3.431900	-10.311000	25.670443	0.000688	20.804774
1575.440166	-2.981500	3.432000	-10.232000	25.714103	0.000689	20.795047
1576.441237	-2.984300	3.431300	-10.239000	25.737209	0.000688	20.827263
1577.440330	-2.983900	3.432000	-10.240000	25.786406	0.000689	20.797498
1578.441051	-2.991800	3.430700	-10.262000	25.791203	0.000690	20.802790
1579.440353	-2.984400	3.429100	-10.233000	25.780600	0.000688	20.804942
1580.440846	-3.000300	3.428900	-10.286000	25.764257	0.000686	20.801327
1581.442896	-2.982100	3.429600	-10.226000	25.762267	0.000686	20.787949
1582.441154	-3.003900	3.429500	-10.300000	25.778342	0.000686	20.782759
1583.440300	-2.976200	3.429400	-10.205000	25.789377	0.000685	20.786257
1584.444570	-3.015400	3.426600	-10.332000	25.774860	0.000685	20.784951
1585.442437	-3.006600	3.428200	-10.306000	25.773647	0.000685	20.799380
1586.443830	-3.008300	3.427000	-10.308000	25.804801	0.000686	20.780888
1587.443334	-3.001900	3.426500	-10.285000	25.797503	0.000684	20.791575
1588.441103	-3.032300	3.425100	-10.385000	25.763019	0.000684	20.803877
1589.442438	-2.993100	3.427600	-10.258000	25.713275	0.000682	20.795638
1590.443676	-2.977000	3.427600	-10.202000	25.677027	0.000683	20.795266
1591.445992	-3.004200	3.427300	-10.295000	25.668784	0.000682	20.786986
1592.443363	-2.990400	3.425900	-10.244000	25.664637	0.000683	20.805581
1593.444798	-3.006500	3.425500	-10.298000	25.671627	0.000682	20.803593
1594.442534	-2.996000	3.424500	-10.259000	25.709575	0.000681	20.800930
1595.444811	-3.016900	3.424000	-10.329000	25.738088	0.000679	20.787370
1596.444189	-3.002700	3.424200	-10.281000	25.726515	0.000680	20.792815
1597.444035	-2.998900	3.424400	-10.268000	25.727052	0.000678	20.795725
1598.445548	-3.010700	3.423700	-10.306000	25.761421	0.000680	20.788522
1599.446689	-2.998700	3.423300	-10.264000	25.770594	0.000678	20.793942
1600.445743	-3.004400	3.421600	-10.279000	25.807260	0.000679	20.792841
1601.445737	-2.992600	3.422200	-10.240000	25.783379	0.000677	20.790189
1602.444575	-2.997200	3.422600	-10.257000	25.796200	0.000676	20.786946
1603.444505	-2.994000	3.421500	-10.243000	25.758767	0.000675	20.770209
1604.445140	-3.007600	3.420200	-10.286000	25.760438	0.000674	20.777577
1605.444529	-2.968000	3.421400	-10.153000	25.728886	0.000677	20.793775
1606.447053	-2.986600	3.421300	-10.216000	25.734743	0.000674	20.784485
1607.447265	-3.005500	3.419400	-10.276000	25.712288	0.000674	20.797017
1608.447334	-3.011900	3.418900	-10.297000	25.693775	0.000673	20.795967
1609.448060	-2.976900	3.420900	-10.182000	25.707044	0.000672	20.766620
1610.450978	-3.020600	3.417800	-10.324000	25.683989	0.000673	20.786611
1611.450755	-3.017400	3.417400	-10.310000	25.659760	0.000673	20.778397
1612.447429	-2.998400	3.417500	-10.247000	25.640110	0.000671	20.795172
1613.448874	-3.010100	3.416700	-10.284000	25.599088	0.000671	20.805654
1614.447439	-2.991500	3.419900	-10.230000	25.610585	0.000671	20.785433
1615.451458	-2.992600	3.417600	-10.227000	25.639805	0.000671	20.775425
1616.448792	-3.019500	3.416500	-10.314000	25.676512	0.000670	20.778627
1617.448642	-3.033200	3.416400	-10.362000	25.709916	0.000668	20.765711
1618.455796	-2.957600	3.416900	-10.103000	25.703460	0.000670	20.784357
1619.450106	-3.017800	3.414200	-10.303000	25.738393	0.000670	20.778667
1620.454767	-2.989700	3.415900	-10.211000	25.767584	0.000669	20.754408
1621.453449	-2.982900	3.414900	-10.185000	25.776973	0.000666	20.764789
1622.450112	-2.996900	3.415400	-10.235000	25.801341	0.000667	20.760342
1623.454833	-3.001600	3.414000	-10.247000	25.808959	0.000666	20.776529
1624.453229	-3.022500	3.413200	-10.316000	25.797757	0.000666	20.778079
1625.450958	-3.029600	3.412600	-10.338000	25.798345	0.000666	20.777248
1626.451435	-2.995500	3.414200	-10.227000	25.802772	0.000665	20.769366
1627.454023	-2.980900	3.413200	-10.172000	25.797082	0.000664	20.770763
1628.451624	-2.996400	3.412000	-10.222000	25.820109	0.000665	20.758806
1629.453185	-2.995700	3.411600	-10.219000	25.811537	0.000665	20.782438
1630.457423	-2.987400	3.411900	-10.191000	25.820542	0.000662	20.774414
1631.454158	-3.004200	3.410900	-10.246000	25.826514	0.000661	20.769034
1632.453611	-2.991600	3.411300	-10.204000	25.873639	0.000662	20.762319
1633.457067	-2.996400	3.411200	-10.220000	25.859566	0.000662	20.781373
1634.455421	-2.993700	3.410200	-10.207000	25.843953	0.000664	20.760473
1635.455994	-2.986400	3.409500	-10.181000	25.830047	0.000658	20.761203
1636.454834	-2.986800	3.411000	-10.187000	25.806421	0.000659	20.763074
1637.457785	-2.980100	3.409600	-10.159000	25.799747	0.000660	20.775811
1638.456131	-2.968100	3.409800	-10.119000	25.828068	0.000660	20.766328
1639.456278	-2.996800	3.408100	-10.212000	25.859439	0.000659	20.767495
1640.456277	-2.988500	3.407500	-10.182000	25.877208	0.000658	20.779181
1641.458189	-2.981200	3.409100	-10.162000	25.878893	0.000658	20.755268
1642.459015	-3.007200	3.407000	-10.244000	25.847995	0.000657	20.756946
1643.457384	-2.977800	3.408200	-10.148000	25.820120	0.000657	20.766878
1644.456019	-2.992800	3.406900	-10.195000	25.766665	0.000655	20.759649
1645.456653	-3.000200	3.406100	-10.217000	25.753920	0.000657	20.774823
1646.458351	-2.996100	3.406000	-10.203000	25.721144	0.000655	20.779360
1647.455910	-2.991500	3.405600	-10.187000	25.752108	0.000657	20.768735
1648.456904	-2.991200	3.405800	-10.186000	25.746225	0.000656	20.792699
1649.460141	-2.992800	3.403900	-10.186000	25.745931	0.000655	20.785291
1650.459623	-3.012000	3.404600	-10.254000	25.786055	0.000656	20.754470
1651.461142	-3.013100	3.403500	-10.254000	25.842850	0.000653	20.769797
1652.458612	-3.017000	3.403500	-10.267000	25.861157	0.000653	20.772066
1653.459201	-3.001800	3.402400	-10.212000	25.884884	0.000654	20.759865
1654.458878	-2.987300	3.404800	-10.170000	25.918253	0.000651	20.761620
1655.460972	-3.007500	3.403500	-10.235000	25.944277	0.000652	20.772117
1656.459783	-3.002900	3.401300	-10.213000	25.963896	0.000652	20.775231
1657.462385	-3.004300	3.402000	-10.220000	25.959914	0.000652	20.759376
1658.460995	-2.982200	3.402300	-10.145000	25.941699	0.000650	20.762415
1659.462629	-2.999100	3.400600	-10.197000	25.909823	0.000649	20.763582
1660.464604	-2.989000	3.401100	-10.165000	25.891910	0.000650	20.787786
1661.463235	-3.006000	3.399100	-10.217000	25.863833	0.000649	20.772383
1662.461483	-2.999300	3.400800	-10.199000	25.830626	0.000650	20.790708
1663.465430	-3.008000	3.400200	-10.227000	25.811720	0.000647	20.771242
1664.463346	-2.998900	3.397400	-10.187000	25.838701	0.000650	20.789811
1665.460334	-2.981700	3.400100	-10.138000	25.879751	0.000649	20.764666
1666.464559	-2.995700	3.399200	-10.181000	25.893911	0.000648	20.765614
1667.464995	-3.014100	3.398700	-10.242000	25.904167	0.000647	20.782082
1668.463638	-3.015400	3.397700	-10.245000	25.876243	0.000646	20.771100
1669.462137	-2.985700	3.398200	-10.145000	25.850959	0.000649	20.758502
1670.465972	-3.034300	3.396600	-10.305000	25.836516	0.000646	20.789986
1671.468721	-3.030700	3.397300	-10.296000	25.828415	0.000643	20.778056
1672.462711	-3.049800	3.395500	-10.354000	25.825416	0.000645	20.779311
1673.463245	-2.974600	3.397200	-10.104000	25.829752	0.000644	20.770389
1674.465480	-3.014800	3.395900	-10.236000	25.795385	0.000643	20.796085
1675.465406	-3.006200	3.396000	-10.208000	25.760287	0.000644	20.790702
1676.464196	-3.018900	3.395900	-10.251000	25.758718	0.000642	20.790074
1677.464849	-3.000000	3.395800	-10.187000	25.747411	0.000641	20.776346
1678.464065	-3.025100	3.393700	-10.266000	25.714712	0.000641	20.770528
1679.466683	-3.007400	3.393900	-10.206000	25.714585	0.000641	20.777039
1680.463806	-2.992300	3.395300	-10.158000	25.716484	0.000641	20.790801
1681.464893	-3.024000	3.393100	-10.260000	25.728936	0.000641	20.772487
1682.463873	-3.023900	3.392100	-10.256000	25.736794	0.000640	20.791760
1683.467570	-2.997500	3.391800	-10.166000	25.749336	0.000639	20.801513
1684.464616	-3.004500	3.394400	-10.197000	25.747474	0.000639	20.807229
1685.463708	-2.988300	3.392600	-10.138000	25.744220	0.000639	20.797797
1686.464306	-3.017800	3.391700	-10.235000	25.688400	0.000637	20.786775
1687.466293	-2.990000	3.393000	-10.144000	25.659374	0.000637	20.789390
1688.465309	-3.016600	3.390000	-10.226000	25.679761	0.000638	20.817452
1689.467080	-2.997700	3.391100	-10.165000	25.681319	0.000637	20.806215
1690.467575	-2.999900	3.390900	-10.171000	25.695914	0.000638	20.765397
1691.468399	-2.990600	3.390000	-10.137000	25.723167	0.000636	20.797987
1692.467865	-2.984800	3.391600	-10.122000	25.795608	0.000634	20.812430
1693.467525	-2.981900	3.391500	-10.112000	25.786893	0.000635	20.774753
1694.470269	-2.985100	3.390400	-10.119000	25.804500	0.000634	20.782482
1695.468750	-2.989700	3.389500	-10.132000	25.815164	0.000633	20.791298
1696.467542	-2.991700	3.388900	-10.137000	25.839517	0.000634	20.793949
1697.469396	-3.001200	3.387800	-10.166000	25.863041	0.000634	20.798614
1698.468841	-3.006000	3.386700	-10.179000	25.903901	0.000633	20.808841
1699.469114	-2.982500	3.388800	-10.106000	25.928161	0.000633	20.783427
1700.470381	-2.995800	3.388900	-10.151000	25.924541	0.000631	20.784057
1701.470402	-3.014300	3.386500	-10.207000	25.903505	0.000632	20.799909
1702.470737	-2.985700	3.386800	-10.111000	25.898952	0.000633	20.805766
1703.470470	-3.003100	3.386600	-10.169000	25.889294	0.000630	20.798910
1704.472988	-3.015400	3.386500	-10.211000	25.862009	0.000631	20.787147
1705.475079	-3.011300	3.385900	-10.195000	25.832400	0.000631	20.791068
1706.470539	-2.998100	3.385700	-10.150000	25.854661	0.000629	20.809636
1707.473578	-3.027100	3.384100	-10.243000	25.822473	0.000630	20.810494
1708.473532	-2.986500	3.384900	-10.108000	25.828649	0.000627	20.803421
1709.471141	-3.021400	3.383700	-10.223000	25.849890	0.000627	20.806740
1710.475785	-2.994700	3.384400	-10.134000	25.838740	0.000626	20.789849
1711.472314	-3.017500	3.382700	-10.206000	25.864496	0.000625	20.826155
1712.472440	-3.009100	3.383500	-10.181000	25.899322	0.000626	20.798078
1713.476668	-3.001600	3.383600	-10.154000	25.916364	0.000627	20.815198
1714.471872	-2.985400	3.383700	-10.100000	25.962287	0.000627	20.830513
1715.473625	-3.004300	3.383100	-10.163000	25.969762	0.000624	20.792504
1716.475039	-3.002800	3.381700	-10.154000	25.949275	0.000626	20.802743
1717.476509	-3.014400	3.381400	-10.192000	25.929990	0.000624	20.824145
1718.474381	-3.004600	3.382200	-10.161000	25.923828	0.000624	20.817007
1719.475616	-3.000500	3.380500	-10.142000	25.953907	0.000623	20.805025
1720.475266	-3.025700	3.380100	-10.227000	25.970782	0.000623	20.819133
1721.474802	-3.006400	3.380400	-10.160000	25.967238	0.000622	20.819366
1722.474645	-3.021100	3.378500	-10.206000	26.004827	0.000622	20.802604
1723.477199	-3.014500	3.379400	-10.187000	25.998169	0.000621	20.817251
1724.475283	-3.015300	3.378400	-10.185000	25.950770	0.000620	20.817521
1725.473540	-2.988500	3.379900	-10.100000	25.978042	0.000620	20.812203
1726.478304	-2.986200	3.378700	-10.088000	25.976703	0.000621	20.800900
1727.475044	-3.008900	3.378600	-10.165000	25.996960	0.000618	20.809398
1728.474848	-2.997100	3.377300	-10.121000	26.031270	0.000621	20.808782
1729.479387	-3.012100	3.376600	-10.170000	26.018005	0.000618	20.813472
1730.484392	-2.972700	3.378600	-10.042000	25.990225	0.000619	20.822546
1731.475967	-2.993600	3.377600	-10.109000	25.998093	0.000619	20.842304
1732.480665	-2.991900	3.377700	-10.105000	25.983197	0.000617	20.815011
1733.477562	-3.021500	3.374800	-10.195000	25.967111	0.000616	20.821135
1734.477812	-3.012900	3.376900	-10.173000	25.974343	0.000616	20.811331
1735.483364	-2.997000	3.375800	-10.115000	26.003222	0.000615	20.823750
1736.481431	-2.981300	3.376400	-10.065000	25.959037	0.000616	20.845265
1737.478183	-3.001500	3.376000	-10.132000	25.940568	0.000612	20.839039
1738.485512	-2.997900	3.375900	-10.120000	25.914341	0.000615	20.820752
1739.481003	-3.013900	3.374100	-10.168000	25.879835	0.000614	20.828287
1740.478191	-2.991300	3.373600	-10.091000	25.884363	0.000612	20.846111
1741.482486	-2.992800	3.372100	-10.091000	25.945811	0.000615	20.849995
1742.481002	-2.996100	3.373400	-10.106000	25.966577	0.000612	20.835771
1743.485189	-3.005400	3.372900	-10.136000	26.015173	0.000614	20.826748
1744.481898	-2.995300	3.371800	-10.099000	26.035785	0.000614	20.825647
1745.482998	-2.981500	3.373600	-10.057000	26.076294	0.000612	20.826044
1746.481673	-2.994300	3.371300	-10.094000	26.122221	0.000611	20.829042
1747.483147	-3.018600	3.371000	-10.175000	26.108434	0.000609	20.833682
1748.482342	-3.018000	3.371600	-10.175000	26.127067	0.000609	20.838653
1749.482466	-2.999900	3.372200	-10.116000	26.122170	0.000611	20.823302
1750.484349	-3.010000	3.369200	-10.140000	26.083384	0.000609	20.842176
1751.483498	-3.017300	3.368600	-10.163000	26.067709	0.000609	20.853927
1752.484525	-3.008600	3.369700	-10.137000	26.063691	0.000606	20.841356
1753.483993	-2.985600	3.369400	-10.059000	26.006972	0.000610	20.828466
1754.486293	-2.985700	3.370100	-10.061000	25.958271	0.000607	20.821263
1755.485426	-2.972600	3.369800	-10.016000	25.966345	0.000606	20.865883
1756.487969	-2.984100	3.367600	-10.048000	25.936713	0.000607	20.829951
1757.484511	-2.983000	3.369200	-10.050000	25.926471	0.000606	20.851903
1758.485305	-2.996500	3.368700	-10.093000	25.911238	0.000607	20.850824
1759.485187	-3.016100	3.368900	-10.160000	25.969482	0.000605	20.840586
1760.489466	-2.984300	3.368800	-10.053000	25.981179	0.000604	20.838587
1761.488989	-3.019700	3.366300	-10.164000	26.015580	0.000603	20.854183
1762.492475	-2.976900	3.367100	-10.022000	26.075910	0.000606	20.855528
1763.486523	-3.005300	3.366500	-10.116000	26.070719	0.000601	20.841305
1764.491012	-2.987800	3.366300	-10.057000	26.075856	0.000602	20.842199
1765.491242	-2.998500	3.366500	-10.093000	26.110867	0.000603	20.847031
1766.486191	-2.974200	3.365600	-10.009000	26.081148	0.000600	20.860318
1767.488073	-2.995400	3.364900	-10.078000	26.083649	0.000603	20.843391
1768.485359	-2.992100	3.366300	-10.071000	26.090575	0.000601	20.853669
1769.487308	-3.004300	3.364700	-10.107000	26.029187	0.000601	20.856948
1770.486269	-2.994700	3.363900	-10.073000	26.017541	0.000600	20.861842
1771.490783	-2.984200	3.365600	-10.041000	26.009184	0.000599	20.864826
1772.487541	-3.020200	3.362100	-10.153000	25.987006	0.000598	20.852976
1773.489696	-3.003900	3.363000	-10.100000	25.997883	0.000598	20.859162
1774.489325	-3.000800	3.364400	-10.095000	26.018702	0.000598	20.862535
1775.486989	-3.000900	3.362900	-10.090000	26.022337	0.000596	20.845799
1776.488053	-2.976000	3.363500	-10.009000	26.055179	0.000596	20.865519
1777.486850	-3.002300	3.362000	-10.093000	26.065536	0.000598	20.875924
1778.487007	-3.011600	3.362100	-10.125000	26.101655	0.000596	20.874283
1779.487327	-2.986200	3.362000	-10.039000	26.118886	0.000595	20.850821
1780.489976	-3.000000	3.360200	-10.080000	26.116182	0.000594	20.856638
1781.489276	-2.970200	3.361100	-9.981300	26.098544	0.000596	20.858830
1782.489861	-2.994300	3.359600	-10.058000	26.053012	0.000593	20.852436
1783.489153	-3.019000	3.360700	-10.145000	26.053840	0.000595	20.866070
1784.492619	-3.020500	3.358600	-10.143000	26.032999	0.000592	20.861252
1785.489150	-2.989200	3.360300	-10.043000	26.054936	0.000593	20.870964
1786.488957	-3.015900	3.358400	-10.127000	26.040739	0.000591	20.878036
1787.489767	-3.000200	3.359300	-10.078000	26.000551	0.000593	20.862791
1788.491756	-2.989400	3.358900	-10.040000	26.013599	0.000592	20.866416
1789.489846	-2.983200	3.358200	-10.017000	25.974594	0.000593	20.869428
1790.489337	-2.994900	3.357100	-10.053000	25.970881	0.000592	20.876128
1791.499088	-2.999600	3.358700	-10.075000	25.938584	0.000589	20.884932
1792.492852	-3.009200	3.355500	-10.096000	25.977284	0.000589	20.897733
1793.491080	-3.000400	3.356200	-10.068000	25.938126	0.000587	20.874042
1794.495039	-2.995400	3.355400	-10.050000	25.928393	0.000589	20.866161
1795.492375	-3.016100	3.356700	-10.123000	25.899511	0.000588	20.869389
1796.492366	-2.998500	3.354700	-10.058000	25.852936	0.000588	20.882343
1797.494502	-2.997600	3.355000	-10.056000	25.870872	0.000588	20.887558
1798.493123	-2.973900	3.356500	-9.980400	25.864686	0.000587	20.863327
1799.492632	-3.007700	3.355300	-10.091000	25.877342	0.000586	20.874144
1800.492101	-2.996800	3.353900	-10.050000	25.902826	0.000585	20.886468
1801.492437	-2.995100	3.354100	-10.045000	25.938635	0.000584	20.888776
1802.491918	-2.999900	3.354400	-10.061000	25.948876	0.000583	20.881048
1803.491954	-3.008300	3.354400	-10.090000	25.949004	0.000584	20.868375
1804.499751	-3.018300	3.353500	-10.121000	25.976849	0.000584	20.893029
1805.497193	-3.025200	3.352200	-10.140000	25.980353	0.000584	20.902239
1806.492863	-3.021700	3.352400	-10.129000	25.973851	0.000582	20.899499
1807.493979	-2.989000	3.354000	-10.023000	25.999016	0.000584	20.904394
1808.494788	-2.985300	3.353600	-10.010000	25.997437	0.000580	20.878627
1809.495379	-2.994400	3.352000	-10.036000	25.952613	0.000581	20.890965
1810.498579	-2.993600	3.352600	-10.035000	25.936515	0.000578	20.900870
1811.491897	-2.990000	3.351400	-10.020000	25.962625	0.000582	20.885852
1812.492817	-2.977900	3.352900	-9.982900	25.961693	0.000579	20.908147
1813.497293	-2.991000	3.350700	-10.021000	25.962331	0.000580	20.899306
1814.493414	-3.007200	3.350300	-10.073000	25.961006	0.000579	20.907931
1815.494760	-2.999500	3.351100	-10.051000	25.984564	0.000577	20.894616
1816.494094	-3.006700	3.349700	-10.070000	26.039755	0.000578	20.908814
1817.494341	-3.013200	3.348000	-10.088000	26.042994	0.000579	20.910171
1818.494550	-3.004000	3.349100	-10.060000	26.054359	0.000578	20.914003
1819.496800	-2.999700	3.348000	-10.042000	26.066564	0.000577	20.901137
1820.495726	-3.006700	3.347100	-10.063000	26.058491	0.000575	20.911042
1821.498558	-2.973300	3.348200	-9.954300	26.063580	0.000574	20.897191
1822.498094	-3.001600	3.347600	-10.047000	26.082954	0.000574	20.928982
1823.498526	-3.013500	3.346200	-10.083000	26.103873	0.000574	20.910174
1824.499563	-2.986400	3.346900	-9.993900	26.138089	0.000576	20.905674
1825.499406	-3.006000	3.346100	-10.058000	26.180368	0.000574	20.914492
1826.499967	-2.988500	3.347800	-10.005000	26.192673	0.000572	20.892720
1827.500485	-2.989500	3.344500	-9.997900	26.214991	0.000572	20.912300
1828.500398	-2.994800	3.346100	-10.019000	26.226748	0.000573	20.908942
1829.501217	-2.982300	3.346900	-9.980600	26.224697	0.000572	20.924422
1830.502275	-2.999500	3.345000	-10.033000	26.231978	0.000570	20.928894
1831.504482	-3.005600	3.344200	-10.050000	26.218475	0.000572	20.915327
1832.506036	-3.002300	3.344200	-10.039000	26.229480	0.000570	20.909316
1833.502152	-3.006700	3.345700	-10.058000	26.238126	0.000570	20.917530
1834.503161	-3.019300	3.342300	-10.090000	26.260059	0.000568	20.925345
1835.502695	-2.996300	3.342600	-10.014000	26.264254	0.000570	20.926716
1836.502676	-2.992900	3.341900	-10.001000	26.269281	0.000568	20.919440
1837.504219	-3.003400	3.342400	-10.038000	26.221216	0.000565	20.916658
1838.505205	-2.982600	3.344000	-9.973300	26.201576	0.000567	20.923948
1839.505690	-2.996800	3.341400	-10.012000	26.149507	0.000568	20.915724
1840.504100	-3.001100	3.342000	-10.029000	26.139228	0.000566	20.924834
1841.506554	-2.994200	3.341200	-10.004000	26.089106	0.000565	20.938007
1842.504896	-3.003200	3.339900	-10.029000	26.054874	0.000565	20.944863
1843.506526	-2.985600	3.340400	-9.970400	26.076121	0.000565	20.940133
1844.507678	-3.012000	3.339900	-10.058000	26.059477	0.000563	20.932894
1845.505921	-3.014000	3.338400	-10.061000	26.067028	0.000565	20.930997
1846.506942	-3.026500	3.338400	-10.103000	26.040524	0.000562	20.922861
1847.505894	-2.977700	3.339900	-9.944900	26.013791	0.000564	20.932985
1848.506645	-2.999200	3.339200	-10.014000	26.020576	0.000562	20.942171
1849.509062	-3.008400	3.339000	-10.043000	26.063430	0.000563	20.939710
1850.510611	-3.030800	3.336800	-10.112000	26.104257	0.000563	20.921464
1851.508714	-3.020900	3.337000	-10.079000	26.131271	0.000560	20.933907
1852.507361	-3.007400	3.337800	-10.037000	26.152186	0.000562	20.950654
1853.507650	-2.999000	3.336500	-10.005000	26.158473	0.000563	20.924732
1854.511355	-2.996400	3.337100	-9.997800	26.091835	0.000562	20.934112
1855.511398	-3.003600	3.336900	-10.022000	26.088597	0.000560	20.928014
1856.511980	-2.994000	3.338000	-9.993400	26.094336	0.000561	20.941365
1857.511244	-2.983100	3.337400	-9.955200	26.121909	0.000559	20.943466
1858.510390	-3.010200	3.335900	-10.041000	26.169939	0.000559	20.929141
1859.515090	-2.989900	3.336000	-9.973500	26.145529	0.000561	20.933061
1860.512496	-2.996400	3.334200	-9.989700	26.121209	0.000555	20.954614
1861.512135	-2.970300	3.336400	-9.908900	26.121717	0.000558	20.949436
1862.515062	-2.982900	3.335300	-9.946400	26.152811	0.000556	20.951755
1863.514571	-3.013600	3.333000	-10.043000	26.181837	0.000557	20.968119
1864.513730	-2.988600	3.334100	-9.963600	26.233102	0.000554	20.951358
1865.512257	-3.012600	3.333600	-10.042000	26.233930	0.000555	20.980161
1866.516220	-3.013700	3.332500	-10.043000	26.206385	0.000552	20.958648
1867.514401	-3.008000	3.333100	-10.026000	26.203031	0.000553	20.942004
1868.515853	-2.981200	3.332600	-9.934300	26.217147	0.000553	20.956187
1869.516643	-2.995700	3.332600	-9.982400	26.226177	0.000551	20.950089
1870.515666	-2.982500	3.332000	-9.936000	26.208171	0.000552	20.964709
1871.514532	-2.973200	3.331600	-9.904200	26.176288	0.000550	20.936942
1872.515903	-2.998100	3.329800	-9.981600	26.182753	0.000551	20.952445
1873.514356	-2.988100	3.330600	-9.951300	26.227248	0.000551	20.954958
1874.518242	-3.010500	3.329100	-10.021000	26.249334	0.000549	20.938273
1875.516410	-3.001000	3.329800	-9.991700	26.247421	0.000550	20.939196
1876.521020	-2.994700	3.329100	-9.968900	26.292422	0.000549	20.939849
1877.518487	-2.999800	3.329700	-9.987500	26.318462	0.000549	20.942310
1878.518221	-2.973300	3.330400	-9.901000	26.305633	0.000548	20.949331
1879.521794	-2.979800	3.328800	-9.918000	26.281698	0.000546	20.926228
1880.518631	-3.017300	3.327700	-10.040000	26.252764	0.000547	20.941246
1881.522364	-3.009000	3.328600	-10.015000	26.223716	0.000545	20.950935
1882.522680	-2.985000	3.328600	-9.934900	26.238801	0.000545	20.943809
1883.520574	-3.013700	3.327100	-10.026000	26.230537	0.000544	20.925549
1884.520039	-3.018600	3.327200	-10.043000	26.249958	0.000543	20.928945
1885.525188	-2.957400	3.328700	-9.843600	26.215833	0.000545	20.917413
1886.522140	-2.976800	3.326700	-9.901600	26.201754	0.000543	20.928394
1887.528834	-2.988100	3.326800	-9.940700	26.210581	0.000543	20.938685
1888.525124	-2.987600	3.325500	-9.934400	26.207710	0.000541	20.935801
1889.526388	-3.012800	3.325200	-10.017000	26.205696	0.000541	20.915287
1890.526025	-3.014200	3.323500	-10.017000	26.213692	0.000541	20.939440
1891.522128	-3.014600	3.323200	-10.017000	26.192611	0.000541	20.933904
1892.524861	-3.029600	3.323300	-10.066000	26.242347	0.000541	20.910392
1893.526922	-3.000700	3.323500	-9.971400	26.248851	0.000539	20.910290
1894.524592	-2.989500	3.323600	-9.933600	26.272021	0.000540	20.910341
1895.527394	-2.995300	3.322200	-9.948800	26.288357	0.000540	20.894517
1896.526737	-2.994100	3.324700	-9.952600	26.334681	0.000540	20.925896
1897.528821	-3.019300	3.322000	-10.029000	26.363754	0.000539	20.904382
1898.527649	-3.010700	3.322500	-10.002000	26.375142	0.000537	20.917249
1899.525746	-3.001000	3.324400	-9.975000	26.393693	0.000537	20.924987
1900.528403	-3.008800	3.322600	-9.994400	26.376481	0.000538	20.936136
1901.528342	-2.997400	3.320900	-9.953100	26.375857	0.000537	20.923656
1902.525122	-2.989700	3.322400	-9.932500	26.383786	0.000537	20.900808
1903.525314	-3.028700	3.321000	-10.057000	26.329136	0.000536	20.904678
1904.528405	-2.994000	3.321600	-9.943600	26.281828	0.000535	20.924462
1905.527688	-2.989500	3.320700	-9.926500	26.274177	0.000532	20.913930
1906.526384	-2.978500	3.320300	-9.888400	26.264944	0.000534	20.916979
1907.531369	-2.998700	3.320600	-9.956900	26.276751	0.000532	20.919361
1908.530690	-2.984300	3.320900	-9.908600	26.282017	0.000532	20.906636
1909.526132	-2.986300	3.320800	-9.915700	26.248582	0.000535	20.901012
1910.531933	-3.014400	3.318200	-10.001000	26.255010	0.000532	20.914109
1911.533119	-3.008600	3.318500	-9.982800	26.224736	0.000533	20.880370
1912.528909	-2.986100	3.319000	-9.908600	26.270541	0.000533	20.900794
1913.526175	-3.007500	3.317200	-9.974500	26.292767	0.000530	20.906534
1914.533933	-3.003000	3.317200	-9.960900	26.290586	0.000530	20.894860
1915.528702	-3.001000	3.317600	-9.954800	26.347227	0.000529	20.904368
1916.531889	-2.985800	3.317000	-9.903400	26.359697	0.000530	20.900779
1917.533708	-3.006700	3.315400	-9.966600	26.376732	0.000529	20.904623
1918.530478	-3.021500	3.315400	-10.016000	26.421793	0.000529	20.894911
1919.530539	-2.982900	3.316300	-9.891700	26.392659	0.000527	20.903562
1920.540823	-2.990300	3.316500	-9.915600	26.415253	0.000527	20.903037
1921.534367	-2.992300	3.315700	-9.920800	26.368966	0.000528	20.897293
1922.531101	-2.984100	3.314200	-9.889000	26.341693	0.000526	20.889324
1923.533421	-2.998900	3.313800	-9.937000	26.284093	0.000526	20.911093
1924.533493	-3.007300	3.313600	-9.964400	26.259432	0.000526	20.882519
1925.531580	-2.973900	3.314200	-9.855200	26.241669	0.000526	20.887428
1926.530676	-3.003700	3.312800	-9.948500	26.268422	0.000526	20.881122
1927.532789	-3.004000	3.313500	-9.952900	26.271318	0.000523	20.880239
1928.531993	-3.004300	3.312000	-9.949100	26.274925	0.000521	20.899985
1929.531232	-3.001500	3.310900	-9.936600	26.246768	0.000523	20.894923
1930.532493	-3.019800	3.312000	-10.000000	26.212963	0.000523	20.892720
1931.530750	-2.987400	3.310900	-9.890200	26.227423	0.000521	20.886863
1932.530619	-2.988500	3.312500	-9.897300	26.237665	0.000519	20.884827
1933.531683	-3.010100	3.311900	-9.968000	26.217822	0.000520	20.860147
1934.534098	-2.989800	3.310300	-9.895700	26.232435	0.000522	20.890477
1935.531698	-2.995100	3.311300	-9.916500	26.196716	0.000520	20.887774
1936.531476	-3.002700	3.310200	-9.939000	26.253617	0.000519	20.885684
1937.531453	-2.991200	3.311000	-9.901800	26.289374	0.000516	20.891746
1938.531392	-2.993000	3.310500	-9.907000	26.326864	0.000519	20.879637
1939.535032	-3.013600	3.307100	-9.964400	26.313882	0.000515	20.888876
1940.532064	-3.005900	3.308500	-9.943600	26.321816	0.000517	20.860340
1941.533353	-2.998800	3.307600	-9.917700	26.307063	0.000516	20.894823
1942.532980	-3.010900	3.306200	-9.953800	26.284096	0.000517	20.878857
1943.534257	-2.982200	3.307600	-9.862700	26.315504	0.000514	20.879126
1944.532607	-2.997700	3.306900	-9.911800	26.342524	0.000514	20.881151
1945.532249	-3.003400	3.306000	-9.927700	26.352827	0.000514	20.888186
1946.533523	-2.989100	3.305200	-9.878300	26.363003	0.000513	20.880396
1947.533516	-2.970100	3.306900	-9.821000	26.301898	0.000513	20.875410
1948.533265	-2.995800	3.305300	-9.901300	26.243276	0.000513	20.886198
1949.533269	-2.986000	3.305100	-9.867300	26.269165	0.000511	20.876654
1950.533570	-3.003100	3.305200	-9.924400	26.310990	0.000510	20.883124
1951.534972	-3.021700	3.303600	-9.981800	26.272493	0.000510	20.885687
1952.538410	-2.988700	3.306000	-9.880000	26.262316	0.000513	20.879254
1953.535455	-3.003500	3.304700	-9.924200	26.257689	0.000511	20.870811
1954.534853	-2.999800	3.302800	-9.906800	26.273640	0.000509	20.872142
1955.535581	-3.014400	3.303800	-9.958300	26.283243	0.000509	20.879422
1956.535275	-3.010700	3.301800	-9.938100	26.302562	0.000507	20.870862
1957.537583	-3.002200	3.302200	-9.913100	26.322556	0.000508	20.874360
1958.536802	-2.971500	3.303300	-9.814800	26.349906	0.000505	20.876716
1959.536715	-3.014700	3.302200	-9.954200	26.378111	0.000506	20.876140
1960.535591	-2.975400	3.302300	-9.824800	26.375614	0.000506	20.869837
1961.535799	-2.997600	3.300100	-9.890900	26.393335	0.000505	20.883354
1962.538456	-2.993200	3.301700	-9.881300	26.375944	0.000507	20.864480
1963.538169	-3.002000	3.300800	-9.908100	26.377588	0.000505	20.875615
1964.538542	-3.013000	3.300600	-9.943800	26.401304	0.000503	20.875742
1965.539098	-3.008000	3.299000	-9.922400	26.419626	0.000504	20.868080
1966.539726	-3.034100	3.298500	-10.007000	26.427835	0.000503	20.870166
1967.538354	-3.000100	3.300800	-9.900800	26.430909	0.000502	20.874203
1968.540788	-3.011000	3.298700	-9.931500	26.446948	0.000503	20.901228
1969.540007	-2.998800	3.299100	-9.892000	26.454024	0.000503	20.879419
1970.537398	-3.005400	3.298800	-9.912900	26.428906	0.000502	20.861286
1971.540610	-2.971800	3.299300	-9.803200	26.407230	0.000501	20.859889
1972.539887	-3.004700	3.298100	-9.909500	26.407550	0.000503	20.883442
1973.536963	-3.006000	3.298000	-9.913200	26.376068	0.000501	20.859863
1974.536186	-3.008700	3.297700	-9.921100	26.389162	0.000501	20.868281
1975.539620	-2.996100	3.297300	-9.877700	26.409996	0.000498	20.869306
1976.538815	-2.998700	3.296400	-9.884300	26.485718	0.000499	20.882351
1977.540377	-2.990000	3.297400	-9.858400	26.516507	0.000498	20.866833
1978.540739	-3.032400	3.295100	-9.990800	26.543202	0.000498	20.862847
1979.543960	-3.037100	3.296300	-10.009000	26.595164	0.000496	20.852967
1980.539515	-3.006600	3.295800	-9.907300	26.630475	0.000497	20.865703
1981.539197	-3.005700	3.294600	-9.902000	26.620047	0.000497	20.864704
1982.538767	-2.999300	3.295000	-9.880000	26.575238	0.000494	20.857118
1983.539464	-3.019300	3.293300	-9.942400	26.557720	0.000495	20.852311
1984.540179	-2.994600	3.295000	-9.866100	26.511533	0.000493	20.878902
1985.539441	-2.984100	3.293000	-9.826300	26.449530	0.000493	20.857833
1986.538403	-2.993100	3.293900	-9.857800	26.465939	0.000494	20.867687
1987.539120	-2.977300	3.294500	-9.807500	26.471052	0.000492	20.867137
1988.545286	-2.973000	3.292900	-9.788000	26.500604	0.000492	20.860331
1989.543740	-3.018100	3.290500	-9.929700	26.493491	0.000493	20.885423
1990.539648	-3.000900	3.292100	-9.879200	26.511581	0.000492	20.863778
1991.543394	-3.034600	3.289600	-9.980500	26.500448	0.000489	20.857805
1992.546113	-3.037600	3.289000	-9.988900	26.500143	0.000486	20.850860
1993.540406	-3.009500	3.291300	-9.903600	26.497338	0.000487	20.857998
1994.542413	-3.001300	3.290900	-9.876400	26.502488	0.000487	20.851794
1995.547335	-2.971900	3.291700	-9.782100	26.495271	0.000485	20.859238
1996.539836	-3.000800	3.290200	-9.872300	26.532855	0.000485	20.879472
1997.542563	-2.981800	3.290200	-9.808900	26.518425	0.000486	20.849795
1998.542407	-2.998900	3.288100	-9.859800	26.505674	0.000482	20.868272
1999.541365	-2.988600	3.288900	-9.827300	26.503965	0.000486	20.867503
2000.547845	-2.991600	3.287800	-9.834600	26.484523	0.000483	20.853651
2001.545636	-2.985300	3.289300	-9.818800	26.434736	0.000483	20.854818
2002.541577	-2.980100	3.288700	-9.800600	26.447459	0.000483	20.842002
2003.542441	-2.973800	3.288000	-9.776500	26.472487	0.000482	20.846295
2004.546761	-2.996700	3.286200	-9.846600	26.515210	0.000482	20.857944
2005.544444	-3.000900	3.286300	-9.861300	26.518741	0.000480	20.863863
2006.542539	-2.984100	3.286400	-9.806200	26.458603	0.000480	20.852728
2007.547080	-3.007700	3.285900	-9.882200	26.473902	0.000480	20.851984
2008.548479	-2.988400	3.285900	-9.819000	26.471746	0.000479	20.850292
2009.543877	-2.983400	3.283300	-9.794300	26.496276	0.000477	20.870206
2010.545053	-2.972600	3.286300	-9.767600	26.503798	0.000478	20.884404
2011.545781	-2.973900	3.285800	-9.771200	26.555189	0.000477	20.852612
2012.545590	-2.980800	3.285000	-9.790100	26.567696	0.000476	20.858071
2013.547216	-3.012500	3.282700	-9.887500	26.580838	0.000477	20.860377
2014.545732	-2.999200	3.282700	-9.844600	26.588004	0.000476	20.861890
2015.549546	-3.004500	3.283600	-9.864000	26.589851	0.000474	20.855686
2016.546457	-3.008400	3.282700	-9.874300	26.660268	0.000475	20.854403
2017.547169	-3.011400	3.282100	-9.883000	26.693322	0.000474	20.859184
2018.545194	-3.007600	3.284000	-9.876500	26.713501	0.000474	20.862401
2019.547837	-2.993300	3.280900	-9.819400	26.749957	0.000475	20.854957
2020.548985	-3.003500	3.281000	-9.853700	26.758610	0.000472	20.843268
2021.546265	-3.019900	3.280100	-9.905000	26.808562	0.000471	20.868834
2022.546378	-3.014700	3.280600	-9.888600	26.821701	0.000470	20.855968
2023.550246	-3.029400	3.280500	-9.937100	26.790780	0.000470	20.854275
2024.549401	-2.999000	3.281000	-9.837500	26.785019	0.000470	20.833311
2025.547070	-2.995200	3.279000	-9.820200	26.786256	0.000469	20.855417
2026.549546	-3.025100	3.278200	-9.916500	26.753716	0.000469	20.857313
2027.547823	-3.008200	3.279000	-9.863000	26.709166	0.000468	20.858517
2028.548500	-3.009700	3.277600	-9.864000	26.651205	0.000468	20.847663
2029.551708	-3.001200	3.277300	-9.835600	26.664411	0.000467	20.841499
2030.550338	-2.990300	3.278100	-9.801900	26.707432	0.000466	20.833067
2031.548161	-2.999200	3.276100	-9.824700	26.717144	0.000464	20.845202
2032.562751	-3.007900	3.277300	-9.855500	26.719160	0.000465	20.833953
2033.551430	-3.001000	3.277500	-9.834500	26.732058	0.000463	20.853557
2034.549073	-2.991000	3.275900	-9.797300	26.759691	0.000465	20.852890
2035.550085	-2.987900	3.276600	-9.788100	26.724131	0.000465	20.851277
2036.549492	-2.973600	3.275400	-9.738000	26.703978	0.000463	20.831017
2037.550898	-3.004300	3.274300	-9.836000	26.720779	0.000461	20.833209
2038.552302	-2.989200	3.274200	-9.786700	26.742549	0.000463	20.861260
2039.550213	-3.004300	3.273900	-9.833600	26.722959	0.000461	20.847728
2040.552866	-2.995300	3.273900	-9.805400	26.737986	0.000462	20.840551
2041.551092	-3.001600	3.272800	-9.822300	26.732442	0.000460	20.843512
2042.551444	-2.976400	3.274000	-9.744100	26.754111	0.000459	20.855340
2043.552108	-3.018400	3.271300	-9.872200	26.793344	0.000460	20.863965
2044.551539	-2.999200	3.271400	-9.809900	26.831847	0.000459	20.849100
2045.551115	-2.992200	3.272700	-9.791700	26.860881	0.000459	20.833249
2046.551072	-2.981100	3.273200	-9.756300	26.874517	0.000457	20.836054
2047.551489	-3.009100	3.271100	-9.842600	26.903488	0.000456	20.828675
2048.550717	-3.020900	3.270300	-9.878500	26.934939	0.000455	20.826162
2049.550245	-3.013400	3.270500	-9.854600	26.941874	0.000454	20.826497
2050.549958	-3.014200	3.269900	-9.854500	26.972828	0.000451	20.829175
2051.549791	-2.996000	3.269900	-9.796100	26.978754	0.000455	20.831815
2052.549887	-2.997800	3.270200	-9.803500	26.993854	0.000454	20.819973
2053.553206	-2.984700	3.271300	-9.761800	26.986501	0.000452	20.830123
2054.556182	-3.008400	3.269600	-9.834500	26.960213	0.000451	20.828817
2055.554045	-3.015400	3.268500	-9.854200	26.946691	0.000451	20.841772
2056.552207	-3.000600	3.269000	-9.808200	26.853760	0.000451	20.835097
2057.561351	-3.016900	3.268400	-9.859300	26.834832	0.000449	20.839299
2058.553946	-3.001800	3.267500	-9.808200	26.825324	0.000450	20.817412
2059.550827	-3.010600	3.266300	-9.830900	26.813572	0.000449	20.850164
2060.551468	-2.986700	3.268600	-9.761400	26.808768	0.000447	20.838223
2061.550625	-2.976300	3.267400	-9.723700	26.797094	0.000445	20.818900
2062.551881	-2.987600	3.266700	-9.758500	26.767957	0.000446	20.810941
2063.551525	-3.002700	3.265800	-9.805000	26.774559	0.000446	20.831804
2064.552841	-2.975400	3.266600	-9.718800	26.774367	0.000445	20.824499
2065.552689	-2.979700	3.266100	-9.731200	26.756181	0.000445	20.836559
2066.551748	-2.991700	3.265100	-9.767000	26.777849	0.000442	20.831793
2067.558063	-2.996000	3.266000	-9.783800	26.765015	0.000442	20.800871
2068.551291	-2.987100	3.264800	-9.751200	26.729963	0.000442	20.829166
2069.553234	-2.987300	3.263300	-9.747500	26.749375	0.000442	20.833510
2070.553273	-2.994300	3.262900	-9.769500	26.707223	0.000441	20.830012
2071.555037	-2.988100	3.263100	-9.749800	26.649824	0.000440	20.801706
2072.554428	-3.021000	3.261800	-9.852900	26.666510	0.000440	20.825592
2073.565257	-3.030600	3.260200	-9.879300	26.707746	0.000439	20.811098
2074.556827	-2.998400	3.262300	-9.780300	26.725399	0.000439	20.817940
2075.555588	-2.999100	3.260900	-9.778900	26.736580	0.000437	20.797887
2076.555739	-2.977000	3.260600	-9.705900	26.792904	0.000436	20.800462
2077.556602	-2.984300	3.260500	-9.728600	26.831320	0.000435	20.836716
2078.557893	-2.994100	3.261600	-9.764600	26.815083	0.000435	20.821339
2079.555038	-2.983900	3.259900	-9.726300	26.768014	0.000435	20.813843
2080.556899	-2.981000	3.260100	-9.716900	26.726498	0.000436	20.820467
2081.557374	-3.002500	3.259400	-9.785600	26.721604	0.000431	20.816969
2082.556613	-3.009600	3.259000	-9.807700	26.761996	0.000431	20.809215
2083.556095	-2.992100	3.259600	-9.752000	26.769135	0.000432	20.820660
2084.562002	-3.001400	3.257100	-9.775100	26.797329	0.000431	20.815342
2085.562275	-3.015000	3.256600	-9.817500	26.837885	0.000431	20.815342
2086.558078	-2.971700	3.258500	-9.682000	26.875802	0.000430	20.808423
2087.560917	-2.981700	3.258200	-9.712800	26.864996	0.000430	20.808463
2088.558333	-2.995400	3.256200	-9.752000	26.866919	0.000429	20.805655
2089.564239	-3.003100	3.255700	-9.776500	26.819341	0.000430	20.825620
2090.561589	-2.967400	3.258600	-9.668400	26.825765	0.000427	20.800786
2091.559055	-3.010200	3.254800	-9.796300	26.798032	0.000425	20.793764
2092.558730	-3.007200	3.255400	-9.788600	26.800898	0.000426	20.824621
2093.560008	-2.962500	3.255300	-9.642000	26.790334	0.000426	20.816845
2094.558510	-3.003900	3.255100	-9.776300	26.773266	0.000426	20.806322
2095.560894	-3.009900	3.255000	-9.796000	26.814462	0.000426	20.787998
2096.559794	-2.991900	3.252100	-9.730100	26.842604	0.000424	20.795905
2097.566057	-2.997300	3.253000	-9.749000	26.821981	0.000425	20.803145
2098.566231	-2.992000	3.253700	-9.733500	26.848070	0.000420	20.787652
2099.564351	-3.006600	3.251700	-9.776100	26.901867	0.000424	20.794330
2100.565745	-2.994700	3.253200	-9.741000	26.929369	0.000423	20.811552
2101.565554	-2.962000	3.251900	-9.630500	26.927218	0.000420	20.800380
2102.564459	-2.999300	3.251700	-9.750200	26.959677	0.000420	20.799829
2103.564832	-3.008100	3.251200	-9.777600	26.964327	0.000419	20.798816
2104.568767	-2.986200	3.251500	-9.708500	26.992592	0.000418	20.805902
2105.565245	-2.999600	3.251400	-9.752000	27.004202	0.000415	20.794818
2106.566254	-3.026500	3.250100	-9.835300	26.970406	0.000417	20.788333
2107.569493	-2.999400	3.250500	-9.748100	26.955306	0.000416	20.801124
2108.568950	-2.998900	3.248700	-9.741300	26.949354	0.000416	20.784707
2109.566202	-3.023800	3.247000	-9.817400	26.970025	0.000414	20.815925
2110.568220	-3.003100	3.247600	-9.750800	26.971885	0.000415	20.791243
2111.570366	-3.011300	3.246300	-9.774400	26.966444	0.000414	20.771547
2112.565975	-2.994800	3.248200	-9.726700	26.977072	0.000413	20.799778
2113.572324	-3.013200	3.247600	-9.784900	26.985519	0.000412	20.803532
2114.566803	-3.002800	3.246000	-9.745800	27.027319	0.000414	20.792936
2115.566232	-3.023300	3.245100	-9.808100	27.000585	0.000411	20.785965
2116.570172	-2.994800	3.245500	-9.718900	26.953242	0.000411	20.789565
2117.567476	-3.020000	3.244200	-9.796200	26.943340	0.000409	20.781979
2118.566705	-3.004600	3.244700	-9.747500	26.895805	0.000410	20.777328
2119.571186	-2.998400	3.245000	-9.729400	26.862184	0.000408	20.793308
2120.568542	-3.008200	3.244300	-9.757500	26.830755	0.000408	20.772612
2121.567962	-3.028000	3.243200	-9.818900	26.816111	0.000408	20.769742
2122.570103	-2.976800	3.243100	-9.652600	26.799123	0.000406	20.791068
2123.569818	-2.986600	3.242700	-9.683900	26.758986	0.000407	20.769205
2124.571236	-2.980300	3.242900	-9.664100	26.732028	0.000405	20.789517
2125.572652	-2.995100	3.243300	-9.712300	26.722480	0.000405	20.785608
2126.572657	-3.006000	3.240900	-9.741100	26.770000	0.000405	20.769373
2127.572358	-2.973300	3.243000	-9.641400	26.785243	0.000404	20.747240
2128.573679	-2.994800	3.240700	-9.704600	26.830566	0.000403	20.761990
2129.574545	-3.020800	3.240000	-9.786100	26.828223	0.000401	20.766272
2130.574144	-3.014500	3.240200	-9.765900	26.800080	0.000401	20.768796
2131.575449	-3.003500	3.239000	-9.727800	26.836279	0.000401	20.790968
2132.578709	-3.001100	3.239100	-9.720400	26.764264	0.000400	20.782573
2133.573595	-2.997500	3.239400	-9.708000	26.784263	0.000399	20.797939
2134.574842	-2.999100	3.238900	-9.713000	26.758325	0.000401	20.767118
2135.579079	-3.029400	3.236500	-9.803500	26.819186	0.000398	20.781369
2136.577913	-2.984000	3.238900	-9.663500	26.820996	0.000397	20.766119
2137.574970	-3.000000	3.236900	-9.709800	26.833577	0.000397	20.770707
2138.575854	-2.980700	3.239300	-9.653500	26.774284	0.000396	20.770835
2139.583078	-2.991000	3.237800	-9.683300	26.746919	0.000397	20.766082
2140.577620	-2.999900	3.236800	-9.709500	26.732604	0.000393	20.770656
2141.580811	-2.984000	3.236000	-9.654500	26.734298	0.000393	20.776627
2142.585417	-2.983800	3.236500	-9.654100	26.726767	0.000394	20.777116
2143.580597	-2.989200	3.234700	-9.668400	26.773801	0.000395	20.769875
2144.579405	-3.001000	3.233800	-9.702500	26.776794	0.000393	20.782842
2145.583992	-3.014500	3.234000	-9.748300	26.798335	0.000391	20.771309
2146.583350	-3.004300	3.235800	-9.720700	26.773722	0.000391	20.774063
2147.580478	-3.006000	3.233200	-9.718000	26.802655	0.000391	20.762377
2148.582929	-2.988600	3.234600	-9.665500	26.854006	0.000388	20.768490
2149.591492	-2.996200	3.233600	-9.687300	26.893770	0.000390	20.762953
2150.587940	-3.004800	3.232200	-9.711100	26.869401	0.000388	20.759313
2151.584099	-3.006700	3.231600	-9.714400	26.840266	0.000385	20.767950
2152.584085	-2.976300	3.232500	-9.619700	26.829866	0.000387	20.770770
2153.583294	-2.993800	3.232200	-9.675600	26.822676	0.000386	20.788197
2154.586851	-2.981300	3.231300	-9.632900	26.832656	0.000384	20.776420
2155.587171	-2.985400	3.232500	-9.649600	26.888391	0.000383	20.765605
2156.583756	-2.989400	3.230500	-9.656300	26.937710	0.000386	20.763989
2157.583653	-2.994200	3.228500	-9.665700	26.975635	0.000383	20.768935
2158.586189	-2.982700	3.229600	-9.632500	27.029679	0.000380	20.767334
2159.586640	-3.004300	3.227700	-9.696500	27.067753	0.000380	20.767692
2160.586361	-2.980400	3.227500	-9.618100	27.074456	0.000381	20.767794
2161.592879	-3.024000	3.228200	-9.761100	27.101992	0.000379	20.782212
2162.589914	-3.008300	3.225800	-9.703100	27.088103	0.000377	20.772510
2163.589289	-3.020900	3.225300	-9.742500	27.032534	0.000378	20.764515
2164.590514	-3.023000	3.225200	-9.748700	26.991234	0.000379	20.788890
2165.589359	-3.043000	3.225000	-9.811100	27.004908	0.000377	20.733886
2166.587722	-2.993000	3.226500	-9.655700	27.001122	0.000376	20.772280
2167.588119	-3.005500	3.224700	-9.690600	26.980401	0.000377	20.759977
2168.593946	-2.996600	3.224400	-9.660000	26.988594	0.000375	20.752569
2169.591175	-2.989900	3.223900	-9.637000	26.944235	0.000375	20.760119
2170.590869	-2.984300	3.224900	-9.623100	26.928878	0.000374	20.789722
2171.591757	-3.035000	3.221600	-9.776900	26.922977	0.000374	20.779994
2172.593489	-2.995800	3.223300	-9.655600	26.878550	0.000373	20.756184
2173.595442	-3.001300	3.221600	-9.667900	26.903734	0.000371	20.771076
2174.593760	-2.961100	3.223800	-9.543800	26.855229	0.000370	20.775409
2175.591728	-2.999600	3.222900	-9.666100	26.850347	0.000371	20.777612
2176.595078	-2.995700	3.221000	-9.647800	26.883966	0.000369	20.773484
2177.594945	-3.015900	3.220000	-9.710800	26.904677	0.000368	20.756377
2178.601226	-2.980000	3.220600	-9.595600	26.958533	0.000368	20.774023
2179.594684	-3.012100	3.218500	-9.693400	26.997070	0.000368	20.762042
2180.594746	-2.987600	3.220200	-9.620300	27.021664	0.000369	20.793887
2181.594997	-2.987000	3.218700	-9.612600	27.032534	0.000366	20.773524
2182.595957	-3.009600	3.217700	-9.683300	27.064290	0.000367	20.777959
2183.594786	-2.963800	3.219000	-9.539800	27.095533	0.000367	20.790415
2184.595809	-3.003100	3.217600	-9.661100	27.110798	0.000363	20.761670
2185.594956	-3.003800	3.216800	-9.662100	27.078789	0.000363	20.779265
2186.594747	-2.997000	3.219200	-9.646100	27.066683	0.000362	20.770883
2187.597106	-3.008000	3.217100	-9.676000	27.074125	0.000364	20.791170
2188.598931	-2.971300	3.218200	-9.561100	27.085593	0.000361	20.757658
2189.596661	-3.000300	3.214700	-9.643800	27.051418	0.000361	20.763118
2190.600660	-3.008500	3.214700	-9.670900	27.063053	0.000362	20.778612
2191.597229	-2.985600	3.215800	-9.599900	27.093086	0.000359	20.768038
2192.596504	-3.028600	3.213600	-9.730600	27.078481	0.000360	20.794602
2193.600327	-3.003300	3.212700	-9.647900	27.089466	0.000359	20.771511
2194.604303	-3.006500	3.213900	-9.661900	27.071130	0.000359	20.778674
2195.598307	-2.997400	3.213900	-9.632200	27.028200	0.000359	20.769165
2196.605295	-3.019700	3.211700	-9.697800	27.017138	0.000357	20.791706
2197.599901	-3.011100	3.210400	-9.665800	27.007937	0.000358	20.789565
2198.599404	-3.000300	3.210800	-9.631200	26.998137	0.000356	20.792987
2199.602287	-3.021800	3.210300	-9.698300	26.959640	0.000356	20.794577
2200.603890	-2.979200	3.212700	-9.569800	26.982820	0.000355	20.786593
2201.600033	-3.008400	3.211000	-9.659200	27.026898	0.000352	20.776865
2202.600722	-3.002800	3.209200	-9.634700	26.999004	0.000353	20.779634
2203.602439	-2.994900	3.209000	-9.609600	26.991943	0.000354	20.771584
2204.601310	-2.988600	3.208400	-9.587700	26.962607	0.000352	20.787129
2205.601327	-3.004300	3.209100	-9.640500	26.954911	0.000350	20.766113
2206.602952	-2.998600	3.207400	-9.616400	26.984221	0.000349	20.758603
2207.607941	-3.008300	3.206700	-9.646400	27.007005	0.000350	20.785309
2208.606302	-3.014500	3.209400	-9.674300	27.015695	0.000350	20.775556
2209.603550	-2.995900	3.206300	-9.605100	27.043397	0.000347	20.796777
2210.608230	-2.986600	3.206200	-9.574800	27.062550	0.000348	20.782373
2211.607371	-2.994000	3.206300	-9.599000	27.057900	0.000346	20.793344
2212.606076	-3.002600	3.206000	-9.624900	27.104423	0.000346	20.814528
2213.607234	-3.005100	3.204900	-9.630300	27.139245	0.000345	20.788858
2214.605607	-3.012400	3.205200	-9.653600	27.158015	0.000346	20.793038
2215.605865	-2.990200	3.205300	-9.583300	27.170232	0.000346	20.800110
2216.605676	-2.985500	3.204900	-9.567100	27.207946	0.000345	20.777351
2217.607028	-3.029500	3.204900	-9.708600	27.219042	0.000343	20.785667
2218.604013	-2.999300	3.204200	-9.608800	27.205219	0.000343	20.790729
2219.607682	-3.014700	3.202900	-9.655400	27.206060	0.000343	20.801533
2220.607118	-3.011800	3.201500	-9.640600	27.221425	0.000341	20.785693
2221.607064	-2.988400	3.201900	-9.567300	27.196008	0.000341	20.784784
2222.605107	-2.993300	3.200700	-9.580300	27.172742	0.000342	20.794574
2223.609670	-3.005700	3.201300	-9.621200	27.140888	0.000339	20.786717
2224.608337	-3.020800	3.199300	-9.662600	27.175712	0.000338	20.797087
2225.607288	-2.977100	3.199100	-9.522700	27.200886	0.000339	20.802018
2226.606402	-2.993100	3.199400	-9.575300	27.243352	0.000337	20.813438
2227.607367	-3.009400	3.198400	-9.624400	27.299243	0.000338	20.784784
2228.606812	-2.991900	3.199900	-9.571500	27.310824	0.000340	20.789795
2229.606453	-2.998400	3.197400	-9.586300	27.333282	0.000336	20.808120
2230.608865	-2.997000	3.196800	-9.578900	27.337347	0.000336	20.787552
2231.606925	-3.014800	3.195200	-9.631100	27.345614	0.000335	20.798239
2232.606281	-3.011100	3.195300	-9.619800	27.290975	0.000334	20.796382
2233.608312	-3.018000	3.195300	-9.642600	27.280004	0.000333	20.806683
2234.609516	-3.002000	3.194600	-9.589600	27.258117	0.000332	20.783245
2235.605990	-2.997500	3.194400	-9.574300	27.270272	0.000333	20.803057
2236.608678	-2.988100	3.194700	-9.545500	27.268476	0.000331	20.803622
2237.607414	-2.971900	3.195100	-9.493500	27.252743	0.000332	20.782581
2238.607747	-2.993400	3.193500	-9.558300	27.263150	0.000332	20.804903
2239.608716	-2.984400	3.192800	-9.527500	27.290185	0.000329	20.815028
2240.609606	-2.992600	3.193600	-9.555700	27.325269	0.000331	20.828034
2241.615092	-3.022100	3.190700	-9.640600	27.385960	0.000329	20.795204
2242.607498	-2.997100	3.191300	-9.563700	27.404505	0.000328	20.798214
2243.611703	-3.026700	3.189500	-9.652700	27.460043	0.000329	20.806672
2244.611801	-3.016000	3.189500	-9.618700	27.478692	0.000326	20.807890
2245.609611	-3.010900	3.189500	-9.601800	27.499809	0.000326	20.790255
2246.613290	-3.024900	3.188300	-9.643100	27.493302	0.000324	20.820218
2247.613932	-3.014900	3.189100	-9.613800	27.457890	0.000324	20.805928
2248.609822	-3.013900	3.188100	-9.607400	27.418989	0.000324	20.814681
2249.614806	-2.991500	3.187900	-9.535500	27.401130	0.000324	20.803827
2250.612634	-2.989800	3.187000	-9.526200	27.397856	0.000322	20.825189
2251.612237	-2.999200	3.188200	-9.560900	27.437076	0.000323	20.815808
2252.614946	-3.006700	3.186000	-9.578500	27.437968	0.000322	20.805326
2253.613588	-2.963800	3.188200	-9.447600	27.472692	0.000324	20.817975
2254.617218	-3.002900	3.185300	-9.564200	27.461878	0.000320	20.821793
2255.610970	-2.997600	3.185500	-9.548000	27.443534	0.000320	20.810925
2256.615545	-2.974000	3.185400	-9.471800	27.418249	0.000319	20.821524
2257.613206	-3.011200	3.184000	-9.586900	27.452974	0.000318	20.821844
2258.612723	-3.003800	3.182800	-9.559800	27.477608	0.000318	20.823395
2259.614495	-3.013000	3.184000	-9.591900	27.472819	0.000318	20.818102
2260.613161	-3.001400	3.182100	-9.549300	27.431892	0.000318	20.831929
2261.613968	-2.983900	3.183300	-9.497600	27.455124	0.000318	20.811206
2262.617325	-2.998700	3.181600	-9.539300	27.449852	0.000316	20.812540
2263.614542	-3.004900	3.179800	-9.554200	27.391435	0.000316	20.832954
2264.614242	-2.999300	3.181300	-9.540600	27.351600	0.000313	20.834606
2265.612991	-3.004200	3.180100	-9.552100	27.311408	0.000315	20.830211
2266.615317	-2.994700	3.180700	-9.524600	27.266602	0.000316	20.823548
2267.615723	-2.999300	3.180800	-9.539300	27.241274	0.000312	20.834581
2268.617537	-3.005200	3.177900	-9.548700	27.198326	0.000313	20.835004
2269.620771	-3.004700	3.177900	-9.547300	27.204810	0.000311	20.837258
2270.618295	-3.024300	3.176900	-9.607200	27.204262	0.000311	20.828173
2271.618771	-3.014600	3.176200	-9.572900	27.209473	0.000309	20.837207
2272.620882	-3.014400	3.176100	-9.572700	27.222458	0.000310	20.837466
2273.617360	-3.026200	3.175300	-9.607700	27.208200	0.000310	20.826918
2274.618286	-3.009000	3.174700	-9.551200	27.133026	0.000309	20.837605
2275.621125	-3.018100	3.177900	-9.590800	27.114092	0.000309	20.839899
2276.620551	-2.986100	3.175100	-9.480600	27.096227	0.000307	20.826200
2277.621616	-2.979400	3.176400	-9.463100	27.135778	0.000309	20.834209
2278.627351	-2.994000	3.173700	-9.500600	27.169580	0.000308	20.827429
2279.619574	-3.004100	3.173500	-9.531700	27.200146	0.000306	20.849637
2280.622682	-2.987600	3.174800	-9.483600	27.231234	0.000305	20.854353
2281.623876	-3.024500	3.172700	-9.594900	27.261149	0.000304	20.830390
2282.621840	-2.993300	3.171700	-9.493100	27.276792	0.000303	20.830004
2283.623121	-3.003800	3.169900	-9.521000	27.281621	0.000304	20.839129
2284.621776	-2.992900	3.170300	-9.486400	27.315955	0.000304	20.842371
2285.622515	-2.980200	3.171200	-9.449300	27.364145	0.000302	20.821149
2286.623179	-2.996500	3.171900	-9.503600	27.405267	0.000304	20.853506
2287.629527	-2.999400	3.169900	-9.506700	27.442805	0.000300	20.840537
2288.623650	-2.989700	3.168700	-9.472200	27.456868	0.000301	20.850892
2289.623869	-2.976100	3.168700	-9.429300	27.445836	0.000301	20.869189
2290.625116	-2.994400	3.166600	-9.481200	27.437099	0.000299	20.861348
2291.624447	-2.993300	3.167200	-9.479100	27.470000	0.000297	20.843714
2292.628356	-3.004000	3.165300	-9.507500	27.512248	0.000299	20.861564
2293.625387	-3.018600	3.163500	-9.546400	27.570456	0.000297	20.863704
2294.626543	-3.003800	3.164000	-9.503200	27.574886	0.000298	20.847300
2295.627587	-3.011200	3.164000	-9.526400	27.607760	0.000297	20.845764
2296.625347	-2.981200	3.164400	-9.432600	27.645484	0.000297	20.865229
2297.626619	-3.009800	3.162900	-9.518800	27.667464	0.000295	20.859846
2298.629606	-3.010400	3.162800	-9.520800	27.702332	0.000293	20.843726
2299.624976	-2.988900	3.161900	-9.449700	27.715678	0.000294	20.871852
2300.625833	-3.000200	3.161800	-9.484800	27.752977	0.000293	20.846800
2301.625385	-2.985000	3.162100	-9.438200	27.746341	0.000293	20.855295
2302.627025	-2.988600	3.161500	-9.446500	27.697962	0.000292	20.850707
2303.639570	-2.976000	3.160700	-9.405600	27.656228	0.000294	20.870825
2304.629460	-3.012100	3.157900	-9.510100	27.632961	0.000292	20.856422
2305.626073	-3.035500	3.157500	-9.583600	27.614061	0.000290	20.858267
2306.627217	-3.002100	3.156300	-9.473400	27.577928	0.000289	20.873593
2307.629770	-2.994000	3.157400	-9.451400	27.567318	0.000292	20.857228
2308.626354	-3.009700	3.156600	-9.499000	27.566898	0.000289	20.880986
2309.626544	-2.999000	3.156200	-9.464200	27.604800	0.000289	20.863647
2310.625894	-3.032500	3.154900	-9.565900	27.619245	0.000289	20.886241
2311.627402	-2.995300	3.155000	-9.449800	27.652662	0.000287	20.871029
2312.625573	-3.025400	3.154900	-9.543500	27.676374	0.000288	20.850321
2313.636770	-3.014400	3.154700	-9.507900	27.728614	0.000287	20.856896
2314.629153	-3.006900	3.151900	-9.476200	27.699909	0.000284	20.854088
2315.626818	-2.989000	3.151700	-9.419000	27.663742	0.000287	20.878385
2316.632218	-3.001800	3.152200	-9.461400	27.645275	0.000286	20.881139
2317.627063	-3.007900	3.151700	-9.478300	27.622529	0.000283	20.879115
2318.627331	-2.982200	3.151300	-9.396400	27.584461	0.000283	20.864993
2319.627036	-3.007400	3.150400	-9.473400	27.557001	0.000282	20.897580
2320.628787	-3.010300	3.149300	-9.479100	27.499521	0.000284	20.880052
2321.635198	-3.005200	3.149600	-9.463300	27.502882	0.000284	20.879640
2322.626699	-3.029500	3.147400	-9.534500	27.463167	0.000284	20.882831
2323.628523	-3.017100	3.146500	-9.491800	27.476719	0.000282	20.878447
2324.630698	-3.004500	3.147800	-9.457300	27.467434	0.000282	20.888546
2325.634939	-3.003300	3.145800	-9.446200	27.483317	0.000281	20.871336
2326.630276	-2.987800	3.145700	-9.397800	27.484807	0.000279	20.889429
2327.630157	-3.001800	3.144500	-9.438400	27.494475	0.000281	20.869760
2328.629169	-3.007900	3.144300	-9.456700	27.503875	0.000280	20.884906
2329.633466	-3.037500	3.142500	-9.543800	27.502715	0.000280	20.883265
2330.631500	-2.999000	3.143300	-9.425200	27.494066	0.000278	20.882624
2331.632103	-3.011500	3.143000	-9.464800	27.463305	0.000280	20.901460
2332.640665	-3.004400	3.142700	-9.441000	27.446084	0.000277	20.895041
2333.633361	-3.000600	3.141300	-9.424200	27.449090	0.000278	20.883842
2334.636382	-2.998000	3.139400	-9.411000	27.471901	0.000276	20.909160
2335.641755	-3.014400	3.137600	-9.456700	27.418988	0.000277	20.897653
2336.635399	-3.020500	3.139100	-9.480300	27.430859	0.000275	20.907223
2337.633755	-2.999100	3.138300	-9.409800	27.428096	0.000275	20.900177
2338.637251	-3.015000	3.136300	-9.455700	27.432871	0.000273	20.895973
2339.631238	-3.003200	3.136800	-9.419800	27.416350	0.000273	20.887413
2340.633901	-2.991900	3.137100	-9.384100	27.409548	0.000273	20.891001
2341.637695	-2.995600	3.134800	-9.389500	27.449914	0.000272	20.903161
2342.633462	-2.964500	3.136000	-9.296300	27.506074	0.000272	20.901815
2343.633822	-2.979700	3.136700	-9.345500	27.535126	0.000271	20.905441
2344.634839	-2.982600	3.134100	-9.346300	27.570890	0.000274	20.910605
2345.642015	-2.996200	3.133200	-9.386800	27.551072	0.000271	20.887822
2346.632456	-3.010600	3.132600	-9.430000	27.530515	0.000271	20.905543
2347.632647	-3.009700	3.131900	-9.425000	27.534553	0.000272	20.909131
2348.637166	-3.005100	3.131300	-9.408800	27.569234	0.000269	20.902301
2349.633761	-2.973900	3.132900	-9.316100	27.552613	0.000270	20.898380
2350.636416	-2.993500	3.131100	-9.372300	27.603914	0.000270	20.902582
2351.642062	-3.019100	3.128600	-9.444600	27.616561	0.000269	20.922892
2352.633533	-3.014000	3.128000	-9.426500	27.653316	0.000268	20.919099
2353.642409	-3.002000	3.127800	-9.389000	27.708458	0.000269	20.905835
2354.638723	-2.995000	3.127800	-9.367100	27.744637	0.000268	20.902414
2355.635985	-3.004300	3.127000	-9.394200	27.791155	0.000268	20.925043
2356.642325	-2.996200	3.124500	-9.360100	27.802589	0.000268	20.916163
2357.636364	-3.015200	3.124400	-9.419600	27.813770	0.000266	20.927888
2358.639908	-3.003300	3.123800	-9.381000	27.800806	0.000265	20.903465
2359.638370	-3.014800	3.122300	-9.411000	27.801328	0.000266	20.935281
2360.641673	-3.026600	3.120500	-9.443500	27.803850	0.000267	20.926914
2361.637508	-2.978400	3.123700	-9.303100	27.803977	0.000267	20.919456
2362.639587	-2.979700	3.121300	-9.298900	27.845666	0.000266	20.921583
2363.635149	-2.979100	3.120300	-9.293900	27.842661	0.000265	20.907655
2364.640864	-3.000500	3.119000	-9.357700	27.834562	0.000264	20.916098
2365.642375	-3.020500	3.118500	-9.418200	27.795624	0.000265	20.921481
2366.635866	-3.020800	3.118400	-9.418500	27.784403	0.000264	20.922991
2367.642424	-2.990800	3.116900	-9.321100	27.803760	0.000263	20.923505
2368.643773	-2.981700	3.117300	-9.292900	27.751386	0.000263	20.927695
2369.638809	-2.989200	3.114700	-9.309000	27.743031	0.000263	20.919289
2370.639631	-2.990900	3.114500	-9.314500	27.769634	0.000262	20.926145
2371.638195	-3.011900	3.113500	-9.377000	27.785769	0.000263	20.931002
2372.642743	-2.991400	3.115000	-9.317100	27.834779	0.000263	20.917265
2373.639121	-2.983800	3.114300	-9.291500	27.891110	0.000262	20.935550
2374.647108	-3.001000	3.112500	-9.339600	27.921822	0.000262	20.945123
2375.642109	-2.983300	3.111400	-9.281000	27.942854	0.000262	20.935000
2376.645177	-2.977600	3.110900	-9.262300	27.945119	0.000263	20.930168
2377.642612	-2.994300	3.109700	-9.310200	27.923272	0.000262	20.920507
2378.642889	-3.013700	3.108900	-9.368600	27.899996	0.000261	20.939752
2379.638087	-2.988100	3.108500	-9.287600	27.887214	0.000259	20.933526
2380.644198	-2.988500	3.107000	-9.283700	27.846176	0.000259	20.948172
2381.654538	-3.025700	3.104500	-9.391800	27.898521	0.000260	20.946801
2382.642323	-2.967700	3.106000	-9.216200	27.920485	0.000257	20.939985
2383.641760	-2.986000	3.103300	-9.266500	27.974239	0.000258	20.944777
2384.643507	-2.976400	3.105100	-9.240000	27.992635	0.000257	20.921571
2385.643454	-2.993000	3.103200	-9.287000	27.973282	0.000259	20.941444
2386.643387	-2.988200	3.103400	-9.272200	27.948761	0.000255	20.947107
2387.643853	-3.001300	3.099700	-9.302400	27.921579	0.000256	20.932552
2388.643402	-3.005500	3.100500	-9.317100	27.917988	0.000257	20.940317
2389.644593	-2.970500	3.100300	-9.208400	27.927232	0.000258	20.939664
2390.647156	-2.979700	3.100200	-9.237200	27.917263	0.000256	20.945750
2391.643428	-2.996100	3.097800	-9.280500	27.926990	0.000256	20.932308
2392.644629	-2.971000	3.096600	-9.199500	27.905268	0.000256	20.943635
2393.648313	-2.992600	3.094700	-9.260100	27.918549	0.000255	20.937563
2394.644353	-3.000800	3.094900	-9.284800	27.916995	0.000255	20.919405
2395.645385	-3.007400	3.093400	-9.302200	27.855102	0.000255	20.950991
2396.645579	-3.003900	3.095000	-9.296100	27.796210	0.000255	20.932975
2397.645479	-3.008000	3.093200	-9.303600	27.798527	0.000256	20.958063
2398.647156	-2.990100	3.092600	-9.244700	27.824465	0.000255	20.944340
2399.647760	-3.009400	3.090700	-9.300400	27.885801	0.000256	20.940638
2400.647553	-2.993500	3.089900	-9.248700	27.917683	0.000255	20.941907
2401.646113	-2.980100	3.090300	-9.208400	27.940180	0.000254	20.948428
2402.649031	-3.015600	3.086900	-9.307100	27.911915	0.000255	20.935627
2403.649914	-3.019100	3.086400	-9.317400	27.886678	0.000253	20.914971
2404.651921	-3.027600	3.085600	-9.341100	27.864268	0.000253	20.915175
2405.648822	-3.020000	3.083900	-9.312100	27.891592	0.000254	20.920865
2406.650974	-3.011900	3.084000	-9.288000	27.898735	0.000252	20.931371
2407.648079	-3.029700	3.082500	-9.337800	27.864525	0.000251	20.922071
2408.648997	-3.018900	3.084200	-9.310100	27.865910	0.000252	20.911138
2409.648198	-3.014200	3.079600	-9.281500	27.881750	0.000252	20.913804
2410.653074	-3.000300	3.080300	-9.240700	27.893223	0.000252	20.931513
2411.649149	-2.993600	3.080400	-9.219800	27.860332	0.000251	20.905526
2412.650224	-2.999200	3.078200	-9.231600	27.796856	0.000249	20.902809
2413.654383	-3.005900	3.077900	-9.251200	27.747168	0.000252	20.907805
2414.652181	-2.971900	3.079100	-9.148700	27.729977	0.000251	20.906627
2415.650373	-3.000600	3.077000	-9.231300	27.764358	0.000249	20.899027
2416.651335	-3.017400	3.076300	-9.281700	27.793519	0.000251	20.891864
2417.651783	-3.007700	3.075200	-9.249000	27.840111	0.000249	20.901770
2418.652635	-2.991500	3.075100	-9.198200	27.853799	0.000251	20.898476
2419.651177	-3.024000	3.072200	-9.289100	27.863512	0.000249	20.905406
2420.651847	-3.002700	3.070500	-9.218600	27.916493	0.000248	20.901832
2421.651391	-2.991400	3.069800	-9.180900	27.866683	0.000249	20.903382
2422.651506	-2.980800	3.070500	-9.151600	27.847979	0.000250	20.897361
2423.651782	-2.982700	3.070200	-9.156800	27.794994	0.000249	20.894772
2424.651443	-2.985800	3.068400	-9.161000	27.777740	0.000250	20.916759
2425.652195	-2.994600	3.067200	-9.183200	27.817621	0.000248	20.901420
2426.652602	-2.996200	3.066400	-9.185800	27.804186	0.000245	20.901650
2427.652825	-2.964000	3.066800	-9.089000	27.788181	0.000248	20.902613
2428.653394	-3.000800	3.063200	-9.190600	27.758983	0.000248	20.887930
2429.653136	-3.018900	3.062900	-9.245500	27.724280	0.000247	20.904688
2430.657618	-2.989000	3.063500	-9.155000	27.715506	0.000246	20.898229
2431.659506	-3.001100	3.060300	-9.183000	27.703994	0.000247	20.916989
2432.653408	-2.979900	3.062000	-9.123200	27.748412	0.000246	20.889145
2433.655833	-2.988800	3.059100	-9.141700	27.734722	0.000247	20.887697
2434.654374	-3.008300	3.056900	-9.195100	27.754562	0.000247	20.895334
2435.654830	-3.041800	3.055000	-9.290400	27.763718	0.000246	20.892219
2436.656958	-3.004500	3.057100	-9.184200	27.750361	0.000246	20.891106
2437.654625	-2.988000	3.055000	-9.127400	27.757059	0.000247	20.887416
2438.655073	-3.006400	3.053600	-9.179200	27.773474	0.000246	20.877383
2439.656882	-2.987500	3.054100	-9.123100	27.777790	0.000245	20.885519
2440.654628	-3.002600	3.051600	-9.162200	27.845711	0.000245	20.886544
2441.661542	-2.988700	3.051600	-9.119300	27.867230	0.000245	20.880701
2442.656025	-3.008400	3.049400	-9.171500	27.914685	0.000244	20.866350
2443.657752	-3.017200	3.048900	-9.198300	27.946171	0.000247	20.880023
2444.655787	-3.044000	3.046400	-9.271200	27.973686	0.000244	20.868363
2445.654082	-3.025400	3.046600	-9.216000	27.970402	0.000245	20.902988
2446.659626	-2.998500	3.046100	-9.132200	27.941015	0.000243	20.898065
2447.657421	-3.000200	3.042600	-9.127000	27.882193	0.000244	20.863045
2448.655626	-2.987200	3.043500	-9.090900	27.852092	0.000244	20.873053
2449.661118	-2.998200	3.042600	-9.120100	27.822896	0.000243	20.896299
2450.657712	-3.000400	3.040500	-9.121000	27.791290	0.000244	20.898156
2451.657853	-3.040300	3.039000	-9.237600	27.785676	0.000244	20.865007
2452.657403	-3.020900	3.038700	-9.177800	27.796270	0.000244	20.863815
2453.665746	-3.003000	3.037200	-9.119400	27.793558	0.000244	20.876258
2454.657184	-2.997100	3.035800	-9.098200	27.797302	0.000242	20.872440
2455.658863	-2.998100	3.035900	-9.100700	27.793265	0.000243	20.851308
2456.661870	-3.028600	3.033000	-9.184400	27.830714	0.000243	20.867185
2457.658319	-2.998300	3.032100	-9.088800	27.829238	0.000243	20.863329
2458.657517	-2.990400	3.032300	-9.067300	27.836943	0.000242	20.880091
2459.664028	-2.995200	3.030700	-9.076600	27.857379	0.000243	20.873158
2460.657617	-3.006200	3.028900	-9.104700	27.925982	0.000243	20.849747
2461.660625	-2.990400	3.029700	-9.059200	27.922837	0.000242	20.868865
2462.665796	-2.958500	3.027200	-8.954700	27.957672	0.000241	20.862676
2463.660456	-2.999700	3.025600	-9.074800	27.929458	0.000243	20.894967
2464.659367	-2.988200	3.025100	-9.038600	27.928860	0.000244	20.868763
2465.663542	-2.998700	3.025100	-9.070400	27.913875	0.000243	20.881181
2466.661485	-2.987300	3.022300	-9.027200	27.912716	0.000241	20.871006
2467.661038	-3.015800	3.021100	-9.109800	27.881674	0.000242	20.874376
2468.661458	-2.981700	3.020700	-9.005700	27.878441	0.000243	20.866381
2469.661255	-2.985800	3.018800	-9.011700	27.912194	0.000240	20.858154
2470.661670	-3.003900	3.017300	-9.061800	27.974594	0.000243	20.863588
2471.661858	-2.988000	3.017000	-9.014000	28.006104	0.000240	20.883924
2472.663023	-2.999400	3.015200	-9.041700	28.008485	0.000243	20.869252
2473.664934	-2.998400	3.015600	-9.040000	27.985555	0.000241	20.883154
2474.662440	-2.995700	3.013900	-9.028000	27.947399	0.000239	20.846647
2475.663606	-3.013800	3.011700	-9.075700	27.971869	0.000239	20.848043
2476.663478	-3.018900	3.010800	-9.088600	27.955102	0.000240	20.877158
2477.663104	-2.990400	3.010100	-9.000000	27.917785	0.000240	20.890806
2478.663142	-2.994700	3.008900	-9.009400	27.886500	0.000241	20.851260
2479.665411	-2.998900	3.005800	-9.012700	27.886018	0.000240	20.867843
2480.662321	-2.980700	3.006500	-8.960200	27.889149	0.000240	20.844443
2481.663848	-3.002200	3.004700	-9.020100	27.889341	0.000241	20.850800
2482.665889	-3.022200	3.002600	-9.073600	27.892281	0.000240	20.845224
2483.663164	-3.025100	3.002700	-9.081700	27.924688	0.000241	20.865512
2484.664458	-3.017100	3.000700	-9.052000	27.938335	0.000240	20.853171
2485.664494	-3.003500	2.998500	-9.005200	27.967745	0.000240	20.857168
2486.663550	-2.988100	2.999900	-8.962400	28.000694	0.000240	20.866151
2487.664799	-2.995700	2.995800	-8.972900	28.065024	0.000239	20.850775
2488.666962	-2.988100	2.995100	-8.948500	28.121774	0.000239	20.863332
2489.665087	-3.005200	2.994000	-8.997200	28.146777	0.000238	20.862898
2490.663155	-3.008100	2.993400	-9.002900	28.188719	0.000239	20.875250
2491.669876	-3.022300	2.991400	-9.038700	28.163134	0.000239	20.876994
2492.664952	-2.988000	2.991000	-8.936000	28.122220	0.000240	20.865203
2493.663740	-2.979300	2.988500	-8.902800	28.105162	0.000239	20.848506
2494.663013	-2.991100	2.987400	-8.935000	28.103061	0.000240	20.845917
2495.667172	-3.018900	2.986600	-9.015300	28.049390	0.000238	20.854951
2496.663229	-3.012300	2.984600	-8.990100	28.049621	0.000238	20.837641
2497.663905	-3.003800	2.984100	-8.962400	28.036480	0.000237	20.862818
2498.667041	-3.012600	2.981500	-8.980900	28.048893	0.000239	20.862037
2499.664227	-3.009400	2.979500	-8.964300	28.053807	0.000237	20.839484
2500.664825	-3.006600	2.979300	-8.956200	28.042056	0.000240	20.839509
2501.678364	-2.999100	2.977600	-8.929300	28.046766	0.000240	20.850888
2502.668965	-3.011100	2.976500	-8.960900	28.019562	0.000238	20.849108
2503.665122	-3.001400	2.976100	-8.929900	27.979087	0.000235	20.852464
2504.668177	-3.027100	2.972900	-8.997100	27.945221	0.000238	20.873851
2505.668527	-3.007500	2.972100	-8.936800	27.922927	0.000239	20.870853
2506.665846	-2.985300	2.971100	-8.867900	27.870342	0.000237	20.857282
2507.668208	-3.017300	2.968500	-8.956000	27.850656	0.000238	20.841738
2508.669662	-2.984500	2.967600	-8.855200	27.844278	0.000237	20.843379
2509.666417	-3.006600	2.967000	-8.919700	27.856194	0.000237	20.862009
2510.669256	-3.004000	2.966800	-8.910200	27.926874	0.000238	20.837368
2511.667913	-3.015000	2.963000	-8.932900	27.936589	0.000236	20.848569
2512.669955	-2.992600	2.962400	-8.864600	27.964611	0.000238	20.833626
2513.671426	-2.991600	2.961000	-8.856400	27.971308	0.000237	20.837048
2514.668959	-3.013000	2.959100	-8.914800	27.971232	0.000237	20.860677
2515.669020	-2.992700	2.958400	-8.852500	28.011819	0.000235	20.854590
2516.669538	-3.000900	2.957100	-8.871700	28.037842	0.000236	20.831948
2517.670160	-3.011500	2.955400	-8.898800	28.128202	0.000236	20.855578
2518.670458	-2.986500	2.953500	-8.819700	28.171113	0.000235	20.853733
2519.671799	-2.985900	2.952600	-8.813400	28.137532	0.000237	20.844583
2520.670628	-3.001300	2.951200	-8.857100	28.114264	0.000237	20.828746
2521.671191	-2.977600	2.948600	-8.778800	28.103202	0.000237	20.836102
2522.668413	-2.996400	2.947600	-8.830800	28.123365	0.000234	20.846442
2523.670918	-2.977500	2.946000	-8.771000	28.117394	0.000235	20.846596
2524.672466	-2.992700	2.943800	-8.809600	28.116325	0.000239	20.848838
2525.669971	-2.978800	2.942700	-8.764400	28.165526	0.000236	20.843842
2526.672098	-3.009900	2.941100	-8.851800	28.202414	0.000236	20.834038
2527.672309	-3.007500	2.939000	-8.837200	28.237062	0.000236	20.844739
2528.673147	-3.000100	2.937600	-8.811700	28.271340	0.000236	20.842740
2529.676010	-3.019800	2.936100	-8.865200	28.304699	0.000237	20.844086
2530.674209	-2.997600	2.933200	-8.791600	28.312781	0.000236	20.829938
2531.673996	-3.024800	2.931800	-8.866600	28.356818	0.000235	20.826864
2532.674054	-2.993100	2.931400	-8.772700	28.347770	0.000237	20.841934
2533.675940	-2.996600	2.929800	-8.778800	28.355214	0.000234	20.839472
2534.672891	-2.999900	2.928600	-8.785000	28.414089	0.000234	20.823366
2535.673275	-3.011000	2.927000	-8.811400	28.442938	0.000237	20.835347
2536.677390	-3.014200	2.924500	-8.814600	28.474880	0.000236	20.842856
2537.674034	-2.982700	2.924900	-8.723500	28.507763	0.000235	20.842780
2538.675874	-2.985500	2.921000	-8.719900	28.518516	0.000235	20.834169
2539.675824	-2.999100	2.918700	-8.752500	28.539486	0.000239	20.833476
2540.676306	-3.028200	2.918500	-8.835900	28.519164	0.000236	20.833399
2541.674799	-2.966000	2.918500	-8.654900	28.539576	0.000235	20.825032
2542.673569	-3.013300	2.915200	-8.783400	28.531572	0.000236	20.849687
2543.675343	-3.019600	2.911800	-8.789800	28.529957	0.000236	20.828621
2544.676274	-3.012200	2.910500	-8.765500	28.506886	0.000238	20.830043
2545.676342	-3.003900	2.910300	-8.741400	28.525618	0.000237	20.836579
2546.678445	-3.007100	2.908400	-8.744000	28.536573	0.000238	20.835284
2547.679126	-3.012200	2.907500	-8.756200	28.547735	0.000236	20.828982
2548.679890	-3.014100	2.905400	-8.755400	28.537033	0.000236	20.802557
2549.676979	-3.033900	2.903200	-8.806100	28.556272	0.000235	20.844691
2550.679340	-3.004900	2.901600	-8.717700	28.541017	0.000236	20.806569
2551.675929	-2.998900	2.899900	-8.696000	28.509356	0.000236	20.823522
2552.679255	-2.985500	2.898100	-8.651200	28.496542	0.000236	20.827213
2553.677547	-3.000400	2.897300	-8.692200	28.465492	0.000236	20.821549
2554.675648	-2.990600	2.893800	-8.652500	28.449164	0.000236	20.814590
2555.678883	-3.002500	2.891600	-8.681000	28.461725	0.000236	20.824868
2556.681870	-3.015800	2.889900	-8.713600	28.509942	0.000237	20.819371
2557.678135	-3.000300	2.887600	-8.662800	28.536232	0.000235	20.819768
2558.678520	-3.016600	2.885900	-8.705000	28.541564	0.000236	20.827034
2559.679866	-3.026000	2.884800	-8.728200	28.611521	0.000236	20.815461
2560.676615	-3.011300	2.882800	-8.679600	28.621281	0.000237	20.808696
2561.677587	-3.033500	2.880900	-8.737600	28.669325	0.000237	20.815833
2562.683596	-2.992400	2.880900	-8.619900	28.672798	0.000236	20.814590
2563.677190	-2.983800	2.878900	-8.589000	28.672442	0.000237	20.808542
2564.681217	-3.010200	2.876600	-8.657900	28.600476	0.000236	20.821407
2565.678957	-2.977400	2.874300	-8.556600	28.534704	0.000236	20.804005
2566.679354	-2.952900	2.872400	-8.481300	28.493322	0.000235	20.810220
2567.680349	-2.981600	2.872400	-8.563500	28.490802	0.000237	20.824751
2568.681030	-2.992400	2.869300	-8.585200	28.525925	0.000234	20.816501
2569.681663	-3.001800	2.867700	-8.607600	28.544095	0.000236	20.828635
2570.682487	-3.011900	2.863700	-8.623900	28.589369	0.000237	20.805479
2571.680591	-2.980600	2.863100	-8.532000	28.523303	0.000234	20.808644
2572.687411	-3.007400	2.860500	-8.600300	28.519765	0.000234	20.807926
2573.681200	-3.004700	2.859100	-8.589600	28.499762	0.000237	20.821446
2574.682752	-3.007700	2.858300	-8.595300	28.546869	0.000236	20.829058
2575.681434	-2.987200	2.855900	-8.529800	28.524270	0.000234	20.796342
2576.680709	-3.007800	2.851400	-8.575300	28.552468	0.000237	20.815731
2577.681607	-2.987500	2.851700	-8.518600	28.571428	0.000235	20.826764
2578.682335	-2.987600	2.850100	-8.514100	28.570001	0.000235	20.829121
2579.686069	-2.979600	2.847700	-8.483800	28.576581	0.000235	20.817256
2580.682078	-2.987900	2.844500	-8.497700	28.580119	0.000234	20.818448
2581.682454	-3.013200	2.841600	-8.561100	28.563652	0.000236	20.820830
2582.683310	-2.977100	2.841500	-8.458000	28.565115	0.000233	20.819933
2583.681508	-3.004800	2.839800	-8.531800	28.534118	0.000234	20.793932
2584.684968	-2.982400	2.836700	-8.459100	28.497063	0.000235	20.799763
2585.683665	-3.010200	2.835300	-8.533600	28.486908	0.000234	20.814666
2586.683849	-3.018100	2.834000	-8.552200	28.460515	0.000232	20.795201
2587.687970	-2.988100	2.830000	-8.455100	28.465683	0.000236	20.798034
2588.684910	-2.996800	2.829100	-8.476200	28.416739	0.000234	20.802327
2589.688005	-2.997400	2.826100	-8.470100	28.399176	0.000234	20.809772
2590.687767	-3.051100	2.821200	-8.606000	28.376421	0.000234	20.803454
2591.686405	-3.009500	2.819300	-8.483600	28.406278	0.000236	20.798432
2592.686284	-2.996100	2.819700	-8.447100	28.374805	0.000233	20.771007
2593.688690	-2.967400	2.818600	-8.362600	28.353756	0.000234	20.784900
2594.688013	-2.999300	2.815200	-8.441400	28.348743	0.000234	20.790757
2595.685147	-3.000700	2.812800	-8.438300	28.327715	0.000234	20.800879
2596.683975	-2.992200	2.810400	-8.408300	28.360501	0.000235	20.804494
2597.686121	-2.976700	2.808700	-8.358900	28.369448	0.000233	20.781260
2598.686099	-2.989600	2.805900	-8.387600	28.417148	0.000233	20.772393
2599.687205	-2.992800	2.803300	-8.388700	28.465838	0.000234	20.790130
2600.688089	-3.011400	2.799500	-8.429800	28.487139	0.000234	20.799727
2601.690341	-3.006100	2.798000	-8.410000	28.492702	0.000233	20.797268
2602.687078	-2.979000	2.795900	-8.327400	28.525990	0.000234	20.802816
2603.690958	-3.019800	2.791800	-8.429200	28.568797	0.000233	20.775752
2604.688966	-2.976400	2.792200	-8.310200	28.557929	0.000233	20.788514
2605.689018	-2.956300	2.789400	-8.245600	28.599692	0.000234	20.802126
2606.691947	-2.987500	2.783500	-8.314600	28.624427	0.000232	20.778199
2607.691325	-2.985400	2.782800	-8.306300	28.636859	0.000233	20.777444
2608.690289	-3.015000	2.780400	-8.382000	28.663157	0.000232	20.783543
2609.689147	-3.010600	2.777400	-8.361100	28.643500	0.000235	20.791720
2610.692026	-2.998800	2.775700	-8.322000	28.567106	0.000236	20.782583
2611.691226	-3.027200	2.771300	-8.388400	28.530904	0.000233	20.794488
2612.694852	-2.983600	2.767900	-8.256600	28.498736	0.000234	20.781533
2613.695885	-2.976600	2.766200	-8.232600	28.476389	0.000235	20.781314
2614.693779	-2.996200	2.762100	-8.275100	28.467011	0.000235	20.777086
2615.694072	-2.980500	2.761100	-8.228100	28.469213	0.000234	20.801589
2616.694467	-2.984000	2.757400	-8.227200	28.515164	0.000233	20.783378
2617.693072	-3.007300	2.755000	-8.284300	28.571140	0.000233	20.777637
2618.694483	-3.005300	2.749600	-8.262500	28.620027	0.000235	20.801268
2619.695460	-3.004100	2.748500	-8.255400	28.668846	0.000233	20.769832
2620.697294	-3.028300	2.745100	-8.312600	28.668172	0.000236	20.770102
2621.700960	-3.000100	2.743500	-8.228800	28.665652	0.000233	20.776098
2622.699975	-3.011200	2.738400	-8.244900	28.654049	0.000234	20.769628
2623.703157	-2.998800	2.735500	-8.202600	28.622978	0.000235	20.767731
2624.698374	-3.017600	2.731800	-8.242600	28.640636	0.000234	20.794525
2625.700300	-3.015600	2.727900	-8.225300	28.674176	0.000233	20.779468
2626.700310	-2.991900	2.726700	-8.156500	28.624517	0.000233	20.767859
2627.699317	-2.984000	2.724000	-8.126400	28.605429	0.000234	20.778032
2628.704545	-3.008100	2.718800	-8.176400	28.586956	0.000234	20.761322
2629.703008	-3.022600	2.715800	-8.207500	28.539404	0.000233	20.779341
2630.701514	-2.995000	2.712500	-8.123200	28.549444	0.000235	20.756260
2631.701978	-2.982400	2.708200	-8.076000	28.581585	0.000234	20.784363
2632.705591	-3.024200	2.705600	-8.180200	28.570681	0.000234	20.757259
2633.712859	-2.982300	2.703100	-8.060600	28.568135	0.000234	20.759437
2634.704999	-2.995900	2.699200	-8.085900	28.552573	0.000233	20.770317
2635.703762	-2.986000	2.695500	-8.047700	28.521499	0.000233	20.756092
2636.703614	-2.995200	2.690200	-8.057400	28.458522	0.000233	20.767589
2637.705269	-2.989900	2.688800	-8.036500	28.440336	0.000233	20.772035
2638.705479	-3.014500	2.682600	-8.085300	28.430803	0.000234	20.758642
2639.705734	-3.009900	2.678500	-8.060900	28.442589	0.000232	20.755811
2640.705782	-3.007800	2.675400	-8.045200	28.414210	0.000233	20.763744
2641.705983	-3.020800	2.670800	-8.066600	28.448124	0.000233	20.750479
2642.705429	-2.997400	2.668000	-7.995500	28.534439	0.000236	20.748261
2643.704985	-2.986700	2.665100	-7.958400	28.614972	0.000235	20.739278
2644.705647	-3.011600	2.659600	-8.008900	28.663639	0.000233	20.755104
2645.709308	-2.997600	2.657500	-7.965300	28.736123	0.000233	20.752722
2646.704834	-3.035600	2.650300	-8.043000	28.794173	0.000233	20.750505
2647.705111	-3.010400	2.647600	-7.968900	28.843672	0.000234	20.757694
2648.709651	-2.962500	2.644500	-7.833500	28.873668	0.000233	20.764679
2649.706481	-2.994800	2.639100	-7.902400	28.862626	0.000233	20.758770
2650.707141	-2.989500	2.635300	-7.877200	28.834537	0.000233	20.777416
2651.706647	-2.991800	2.630900	-7.869900	28.840670	0.000235	20.754670
2652.709006	-3.059300	2.622800	-8.021100	28.857398	0.000236	20.762038
2653.707761	-2.993000	2.621000	-7.843500	28.897238	0.000234	20.760922
2654.708777	-2.982400	2.616700	-7.803300	28.878972	0.000234	20.779031
2655.718310	-2.988800	2.612300	-7.806500	28.917820	0.000234	20.747992
2656.714755	-2.988400	2.607000	-7.790200	28.901409	0.000234	20.763702
2657.710926	-2.982700	2.602400	-7.761600	28.890421	0.000232	20.754528
2658.717571	-2.991900	2.596200	-7.767000	28.826166	0.000232	20.744800
2659.716360	-3.013700	2.590200	-7.804800	28.826738	0.000233	20.750593
2660.711578	-3.046700	2.585000	-7.874400	28.809374	0.000233	20.753014
2661.715809	-2.953900	2.581600	-7.624900	28.809464	0.000234	20.737932
2662.714159	-3.020700	2.574400	-7.775500	28.799579	0.000237	20.746941
2663.712566	-2.988200	2.569800	-7.677700	28.789886	0.000236	20.763730
2664.715425	-3.004800	2.563400	-7.701300	28.805583	0.000232	20.728806
2665.712937	-2.991000	2.558300	-7.650200	28.860171	0.000233	20.740175
2666.712389	-3.032100	2.551100	-7.733300	28.918595	0.000234	20.755411
2667.715652	-2.979000	2.548000	-7.588700	28.951007	0.000236	20.756297
2668.716876	-3.000500	2.540600	-7.622800	28.975325	0.000236	20.760408
2669.715883	-2.997400	2.536700	-7.602500	28.971650	0.000233	20.757654
2670.713845	-3.003200	2.528500	-7.592500	28.966079	0.000233	20.761524
2671.716049	-3.007400	2.523300	-7.587500	28.930234	0.000235	20.748171
2672.715120	-3.039000	2.516400	-7.646500	28.881757	0.000235	20.748171
2673.714375	-3.009500	2.511200	-7.556500	28.869114	0.000234	20.752978
2674.717102	-2.989800	2.504900	-7.488500	28.841558	0.000235	20.733752
2675.715751	-2.983700	2.498800	-7.455000	28.804909	0.000236	20.741404
