LabVIEW Measurement	
Writer_Version	2
Reader_Version	2
Separator	Tab
Decimal_Separator	.
Multi_Headings	No
X_Columns	One
Time_Pref	Absolute
Operator	admin
Description	Clolumns are: time, Current, Voltage, Power, Battery Temp, and Chamber Temp
Date	2024/08/16
Time	13:06:06.104549407958984375
***End_of_Header***	
	
Channels	6						
Samples	1	1	1	1	1	1	
Date	2024/09/05	2024/09/05	2024/09/05	2024/09/05	2024/09/05	2024/09/05	
Time	00:42:35.3035631179809570312	00:42:35.3100094795227050781	00:42:35.3179922103881835937	00:42:35.2845201492309570313	00:42:35.2845201492309570313	00:42:35.2845201492309570313	
X_Dimension	Time	Time	Time	Time	Time	Time	
X0	0.0000000000000000E+0	0.0000000000000000E+0	0.0000000000000000E+0	0.0000000000000000E+0	0.0000000000000000E+0	0.0000000000000000E+0	
Delta_X	1.000000	1.000000	1.000000	1.000000	1.000000	1.000000	
***End_of_Header***							
X_Value	Untitled	Untitled 1	Untitled 2	Untitled 3	Untitled 4	Untitled 5	Comment
0.000000	0.027250	4.095300	0.111650	20.975686	0.000922	20.741941
0.996669	-2.997200	3.928700	-11.774000	20.986989	0.000922	20.752298
2.002754	-3.005700	3.920700	-11.784000	21.000488	0.000921	20.748255
2.999043	-3.000500	3.915100	-11.746000	20.990832	0.000921	20.749028
3.998625	-2.989900	3.911500	-11.694000	20.984022	0.000922	20.760710
4.998851	-2.990200	3.909500	-11.690000	20.983698	0.000921	20.758015
6.000776	-3.000300	3.905600	-11.717000	21.000688	0.000919	20.761732
7.005103	-3.007900	3.903400	-11.739000	21.020375	0.000915	20.740171
8.000861	-3.016200	3.900800	-11.765000	20.995524	0.000916	20.767946
9.003482	-3.000100	3.900100	-11.699000	21.017805	0.000918	20.745661
10.006734	-3.001800	3.897900	-11.700000	20.994802	0.000917	20.760112
11.001922	-3.000900	3.896500	-11.692000	20.988738	0.000914	20.736977
12.003226	-2.990200	3.894800	-11.645000	21.008001	0.000914	20.756244
13.004626	-2.968000	3.894000	-11.557000	21.014240	0.000914	20.767226
14.002287	-2.977000	3.892700	-11.588000	21.034824	0.000912	20.744665
15.003768	-2.981100	3.890700	-11.598000	21.028960	0.000912	20.756818
16.009872	-3.015800	3.889300	-11.728000	21.040312	0.000912	20.769596
17.003473	-3.003700	3.887800	-11.677000	21.038292	0.000912	20.761885
18.003735	-2.994800	3.888000	-11.643000	21.029734	0.000908	20.740048
19.008097	-2.978400	3.888200	-11.580000	21.041462	0.000909	20.757943
20.003303	-3.024700	3.884500	-11.749000	21.036072	0.000909	20.757120
21.003183	-3.009300	3.885700	-11.692000	21.065438	0.000907	20.772916
22.003790	-2.979100	3.884600	-11.570000	21.044854	0.000908	20.762758
23.003365	-3.006300	3.882000	-11.668000	21.072126	0.000908	20.745940
24.006387	-3.007700	3.881400	-11.672000	21.073697	0.000908	20.751305
25.008477	-3.002200	3.883500	-11.658000	21.075468	0.000907	20.760663
26.005165	-3.002500	3.881100	-11.652000	21.051467	0.000906	20.763209
27.004618	-3.003800	3.880400	-11.655000	21.093908	0.000909	20.764409
28.009580	-2.991100	3.880200	-11.604000	21.102639	0.000906	20.773617
29.006422	-3.009100	3.877900	-11.667000	21.109051	0.000907	20.760115
30.007030	-2.984800	3.878800	-11.575000	21.092560	0.000905	20.773018
31.008895	-2.990900	3.878200	-11.598000	21.091687	0.000904	20.751755
32.009386	-3.005400	3.877300	-11.651000	21.113967	0.000905	20.752705
33.009880	-3.000200	3.876100	-11.628000	21.125568	0.000906	20.775215
34.006927	-3.008700	3.875600	-11.659000	21.122724	0.000906	20.769999
35.009955	-3.000900	3.876400	-11.632000	21.128238	0.000904	20.764135
36.007982	-2.994900	3.876900	-11.609000	21.139613	0.000903	20.756073
37.008900	-3.000500	3.876100	-11.630000	21.166259	0.000903	20.766132
38.010820	-3.001700	3.872600	-11.623000	21.153785	0.000903	20.770249
39.011505	-2.982600	3.874200	-11.554000	21.161145	0.000902	20.766331
40.009945	-2.983300	3.874400	-11.557000	21.145975	0.000899	20.759592
41.011103	-2.997900	3.873200	-11.610000	21.149769	0.000904	20.742997
42.012878	-3.006500	3.872200	-11.641000	21.179282	0.000901	20.761615
43.013759	-3.016400	3.870800	-11.674000	21.169528	0.000902	20.763238
44.012054	-3.007500	3.870900	-11.641000	21.189411	0.000900	20.767006
45.012086	-2.996500	3.871600	-11.600000	21.218675	0.000903	20.754080
46.014872	-3.030400	3.869900	-11.727000	21.211166	0.000901	20.748465
47.011993	-3.000600	3.870400	-11.612000	21.227281	0.000900	20.755578
48.013725	-3.008000	3.868300	-11.634000	21.213037	0.000900	20.772623
49.016226	-2.989800	3.869700	-11.568000	21.220098	0.000901	20.759297
50.018641	-3.003800	3.869900	-11.624000	21.229603	0.000899	20.763590
51.013076	-2.975600	3.869800	-11.513000	21.231276	0.000900	20.792291
52.019572	-2.989900	3.869500	-11.568000	21.248139	0.000900	20.754158
53.015710	-2.992600	3.867100	-11.571000	21.234568	0.000901	20.787997
54.014343	-3.016600	3.866700	-11.663000	21.245148	0.000899	20.782935
55.015048	-2.987600	3.869200	-11.559000	21.254502	0.000902	20.774275
56.017225	-3.004300	3.867600	-11.619000	21.246346	0.000899	20.790297
57.012197	-2.980900	3.867300	-11.527000	21.264581	0.000897	20.774400
58.018013	-3.000400	3.866400	-11.600000	21.266925	0.000900	20.771530
59.020896	-3.015100	3.866800	-11.658000	21.267376	0.000900	20.780989
60.013710	-3.000700	3.867400	-11.602000	21.288080	0.000899	20.801702
61.016470	-3.015600	3.865400	-11.656000	21.280546	0.000900	20.784682
62.015296	-2.998200	3.865400	-11.588000	21.304170	0.000899	20.778445
63.014542	-3.001900	3.865000	-11.601000	21.305243	0.000897	20.761974
64.015505	-2.997900	3.864400	-11.584000	21.314997	0.000897	20.764620
65.018051	-3.000600	3.864900	-11.596000	21.325000	0.000897	20.776050
66.018498	-3.009700	3.861900	-11.622000	21.322555	0.000897	20.788778
67.015440	-2.990700	3.863200	-11.552000	21.325649	0.000895	20.778596
68.017972	-2.990900	3.863000	-11.552000	21.330963	0.000899	20.766368
69.015193	-2.977800	3.864000	-11.505000	21.337823	0.000899	20.782715
70.016556	-2.988300	3.864200	-11.546000	21.356555	0.000897	20.785809
71.014335	-3.006700	3.862000	-11.611000	21.361793	0.000897	20.791524
72.015279	-3.014200	3.862300	-11.640000	21.345955	0.000898	20.801282
73.014703	-2.987100	3.863600	-11.539000	21.382921	0.000896	20.767143
74.015464	-2.996000	3.862500	-11.571000	21.393946	0.000897	20.779122
75.015837	-3.012100	3.860800	-11.627000	21.383021	0.000900	20.787632
76.016891	-3.006400	3.860300	-11.604000	21.408014	0.000899	20.793672
77.016319	-2.978300	3.862200	-11.501000	21.411580	0.000896	20.786809
78.016442	-2.979400	3.860600	-11.502000	21.411979	0.000899	20.778673
79.020237	-2.985900	3.860500	-11.527000	21.397063	0.000897	20.789827
80.017262	-3.009000	3.858500	-11.608000	21.437319	0.000895	20.798811
81.021315	-3.015700	3.860100	-11.638000	21.450837	0.000895	20.794793
82.019515	-2.996300	3.860200	-11.564000	21.467399	0.000895	20.779596
83.018871	-3.022800	3.857200	-11.659000	21.431883	0.000897	20.780095
84.020131	-2.989400	3.859500	-11.537000	21.450064	0.000896	20.810141
85.022902	-3.002800	3.857100	-11.581000	21.480816	0.000900	20.793970
86.022318	-2.994800	3.859600	-11.556000	21.496753	0.000898	20.799958
87.023791	-2.998100	3.858600	-11.568000	21.485930	0.000898	20.794819
88.022227	-3.003300	3.860500	-11.593000	21.480493	0.000899	20.800758
89.020605	-2.992500	3.857600	-11.543000	21.512866	0.000895	20.806598
90.024179	-3.009700	3.857900	-11.610000	21.508501	0.000897	20.823093
91.029943	-3.020700	3.856400	-11.648000	21.529973	0.000897	20.787680
92.023977	-3.009500	3.857200	-11.606000	21.531196	0.000898	20.796965
93.023546	-3.005700	3.857800	-11.594000	21.539625	0.000898	20.794020
94.024705	-2.995800	3.857800	-11.555000	21.550625	0.000899	20.795070
95.026406	-3.006200	3.856400	-11.593000	21.552469	0.000898	20.808294
96.022523	-2.997300	3.856700	-11.559000	21.556060	0.000899	20.807146
97.027598	-2.982200	3.857400	-11.501000	21.578755	0.000899	20.784812
98.022748	-2.994600	3.857500	-11.550000	21.607534	0.000900	20.805075
99.024699	-2.994600	3.856200	-11.547000	21.583194	0.000898	20.796365
100.023039	-3.008700	3.855400	-11.599000	21.607235	0.000898	20.792448
101.026544	-3.002600	3.853900	-11.571000	21.599479	0.000898	20.799860
102.025830	-2.997800	3.853900	-11.552000	21.608880	0.000901	20.830130
103.031727	-2.996700	3.854200	-11.549000	21.606411	0.000899	20.805374
104.027405	-2.995900	3.854300	-11.546000	21.599079	0.000899	20.821270
105.027079	-3.016300	3.855300	-11.627000	21.610674	0.000900	20.803950
106.027143	-3.009100	3.852800	-11.593000	21.614192	0.000900	20.817428
107.032550	-3.004600	3.853900	-11.579000	21.632670	0.000899	20.804625
108.028435	-3.020300	3.852600	-11.636000	21.625637	0.000903	20.781940
109.027395	-3.024100	3.852000	-11.648000	21.623992	0.000902	20.803528
110.031391	-3.012000	3.852800	-11.604000	21.645587	0.000899	20.811388
111.028526	-2.987200	3.852000	-11.504000	21.638680	0.000901	20.812062
112.027469	-2.985500	3.854200	-11.505000	21.638854	0.000901	20.809865
113.031967	-2.997500	3.853000	-11.549000	21.666909	0.000901	20.811862
114.029202	-3.007000	3.852500	-11.584000	21.658255	0.000902	20.815530
115.029087	-3.020500	3.852000	-11.634000	21.684589	0.000900	20.822444
116.034216	-3.018700	3.852400	-11.628000	21.679526	0.000902	20.825911
117.032101	-2.986800	3.852400	-11.505000	21.691197	0.000905	20.798237
118.030025	-3.017800	3.850100	-11.618000	21.711695	0.000903	20.821121
119.033419	-2.984700	3.850000	-11.490000	21.717229	0.000899	20.808642
120.036732	-3.008500	3.850300	-11.583000	21.733912	0.000904	20.788829
121.029430	-3.001200	3.851100	-11.557000	21.732839	0.000904	20.808618
122.035317	-2.976100	3.851200	-11.459000	21.734161	0.000904	20.830803
123.031389	-2.986200	3.850600	-11.498000	21.746529	0.000904	20.809991
124.033317	-2.994400	3.849400	-11.526000	21.750194	0.000905	20.834995
125.029062	-3.002600	3.850500	-11.560000	21.773059	0.000903	20.811413
126.030044	-3.002900	3.848900	-11.557000	21.749521	0.000907	20.828632
127.034958	-3.011600	3.849800	-11.593000	21.785427	0.000905	20.797713
128.030578	-2.991500	3.849200	-11.514000	21.787970	0.000906	20.807371
129.031576	-2.999700	3.848600	-11.544000	21.809988	0.000904	20.812338
130.033259	-3.009000	3.848700	-11.579000	21.814699	0.000907	20.819423
131.030266	-3.005000	3.849200	-11.565000	21.786200	0.000905	20.836893
132.030969	-3.000200	3.848100	-11.544000	21.810311	0.000905	20.846326
133.030887	-2.983800	3.849200	-11.484000	21.799939	0.000906	20.846376
134.030973	-2.997300	3.847300	-11.531000	21.817467	0.000908	20.831203
135.035479	-2.996400	3.847900	-11.529000	21.823651	0.000908	20.817952
136.032282	-3.000900	3.847800	-11.546000	21.825771	0.000907	20.832876
137.032159	-3.012500	3.847300	-11.589000	21.823626	0.000904	20.832152
138.033483	-3.012400	3.846700	-11.587000	21.835394	0.000908	20.821171
139.034161	-3.012900	3.846900	-11.589000	21.849008	0.000907	20.861823
140.033700	-2.984700	3.847500	-11.483000	21.853047	0.000910	20.851167
141.035347	-2.980100	3.848100	-11.466000	21.872819	0.000906	20.834449
142.035280	-3.005100	3.845800	-11.555000	21.900544	0.000909	20.824268
143.034470	-2.982900	3.847800	-11.477000	21.894785	0.000909	20.854538
144.035107	-2.980900	3.847000	-11.466000	21.933853	0.000909	20.860926
145.035355	-3.001500	3.845800	-11.542000	21.926497	0.000909	20.836495
146.035808	-3.003600	3.845100	-11.548000	21.952451	0.000911	20.842086
147.035707	-3.002700	3.845100	-11.544000	21.942829	0.000907	20.837196
148.041514	-2.999400	3.845400	-11.532000	21.942629	0.000911	20.849798
149.037144	-2.999500	3.844700	-11.531000	21.948488	0.000912	20.852818
150.038204	-2.999300	3.844300	-11.529000	21.958609	0.000913	20.848250
151.039376	-3.000000	3.845300	-11.534000	21.941010	0.000909	20.836797
152.037499	-3.003300	3.842800	-11.539000	21.972871	0.000913	20.850198
153.038354	-2.986700	3.844200	-11.479000	21.974989	0.000913	20.852318
154.039368	-3.002800	3.844000	-11.541000	21.984189	0.000913	20.864846
155.038622	-3.001200	3.841900	-11.529000	21.985088	0.000912	20.840143
156.039083	-2.997400	3.843700	-11.520000	21.993987	0.000914	20.832930
157.039114	-2.986200	3.843400	-11.476000	21.986609	0.000914	20.844984
158.038503	-3.011900	3.841500	-11.569000	22.004733	0.000915	20.845583
159.039856	-2.982100	3.842600	-11.458000	22.026819	0.000914	20.835925
160.038230	-2.990800	3.842700	-11.491000	22.043922	0.000914	20.850675
161.040702	-2.987600	3.841600	-11.476000	22.042577	0.000914	20.844114
162.043122	-2.985900	3.841400	-11.469000	22.032530	0.000917	20.852547
163.041270	-3.002000	3.842000	-11.532000	22.037241	0.000916	20.840668
164.039711	-3.007500	3.839900	-11.547000	22.047062	0.000914	20.868517
165.040431	-2.989400	3.841800	-11.483000	22.048833	0.000917	20.859385
166.040451	-3.000700	3.841700	-11.528000	22.041704	0.000919	20.856041
167.041973	-3.017000	3.841400	-11.589000	22.056810	0.000921	20.860258
168.041872	-3.012600	3.841100	-11.570000	22.074186	0.000918	20.868643
169.040362	-2.991800	3.840800	-11.490000	22.091436	0.000918	20.857465
170.041986	-3.030300	3.838900	-11.631000	22.072965	0.000920	20.887808
171.047297	-3.001400	3.839900	-11.523000	22.093356	0.000920	20.846585
172.043849	-2.995100	3.840400	-11.501000	22.108137	0.000919	20.844787
173.043589	-3.008800	3.838800	-11.549000	22.087696	0.000920	20.859884
174.043381	-2.986700	3.840900	-11.469000	22.088071	0.000921	20.855518
175.043682	-2.973000	3.840100	-11.416000	22.114570	0.000921	20.870666
176.043556	-3.003200	3.839500	-11.530000	22.107863	0.000920	20.859685
177.046202	-2.998700	3.838100	-11.508000	22.144932	0.000921	20.859339
178.046893	-2.985200	3.839000	-11.459000	22.156072	0.000920	20.854371
179.045039	-2.999400	3.839200	-11.515000	22.159140	0.000919	20.868347
180.045051	-3.010900	3.838400	-11.555000	22.162005	0.000923	20.862681
181.047253	-2.988500	3.840000	-11.473000	22.170280	0.000923	20.860061
182.045302	-2.984000	3.838100	-11.452000	22.175739	0.000924	20.877853
183.046716	-2.981100	3.839800	-11.445000	22.180824	0.000922	20.859712
184.047491	-2.990700	3.838900	-11.480000	22.186457	0.000924	20.870566
185.045524	-3.030800	3.835600	-11.623000	22.184414	0.000925	20.871366
186.047372	-3.003300	3.836900	-11.522000	22.168735	0.000923	20.892651
187.049334	-3.008400	3.836500	-11.541000	22.181324	0.000925	20.881548
188.049388	-3.010900	3.836300	-11.550000	22.188029	0.000927	20.878304
189.052262	-3.005600	3.835900	-11.528000	22.201289	0.000925	20.908647
190.052364	-3.007500	3.835100	-11.533000	22.214175	0.000928	20.893102
191.049258	-3.003100	3.836700	-11.522000	22.221627	0.000928	20.865003
192.049069	-3.010800	3.835500	-11.547000	22.223273	0.000927	20.860487
193.049713	-2.958900	3.836100	-11.350000	22.241643	0.000927	20.901163
194.051739	-3.016600	3.835200	-11.568000	22.248447	0.000929	20.887113
195.049626	-3.006000	3.835300	-11.526000	22.247001	0.000928	20.895622
196.051534	-3.000200	3.835400	-11.506000	22.260959	0.000930	20.887314
197.050546	-2.980600	3.834800	-11.429000	22.296000	0.000930	20.881623
198.049897	-2.981900	3.835500	-11.436000	22.268112	0.000929	20.881200
199.050797	-3.002200	3.833100	-11.507000	22.284413	0.000930	20.884719
200.050984	-2.989100	3.834500	-11.461000	22.311479	0.000931	20.876734
201.052835	-2.992400	3.833600	-11.471000	22.303678	0.000933	20.895474
202.051343	-3.006200	3.834800	-11.527000	22.314445	0.000933	20.876860
203.055746	-2.990700	3.832900	-11.462000	22.317137	0.000931	20.917009
204.054362	-2.978400	3.832600	-11.414000	22.292562	0.000935	20.887663
205.057442	-3.001200	3.833400	-11.504000	22.319928	0.000933	20.899891
206.054555	-3.005700	3.832900	-11.519000	22.310109	0.000935	20.895275
207.054528	-3.001000	3.834000	-11.505000	22.310782	0.000935	20.882674
208.058098	-2.993000	3.834000	-11.474000	22.316713	0.000935	20.905206
209.058818	-2.996900	3.832200	-11.483000	22.300513	0.000935	20.900839
210.057060	-2.989500	3.831700	-11.454000	22.318632	0.000935	20.899542
211.056512	-2.990300	3.833200	-11.462000	22.315567	0.000936	20.918757
212.061293	-2.991600	3.831500	-11.460000	22.334410	0.000936	20.896849
213.059191	-2.990300	3.830100	-11.452000	22.363741	0.000938	20.911994
214.058543	-3.009600	3.829900	-11.525000	22.344402	0.000934	20.908276
215.063013	-3.018500	3.829900	-11.560000	22.384353	0.000940	20.918409
216.060066	-3.004300	3.831700	-11.511000	22.384602	0.000937	20.916762
217.059400	-3.023100	3.829000	-11.575000	22.379693	0.000941	20.910424
218.059988	-3.015200	3.830400	-11.547000	22.376254	0.000939	20.910299
219.058863	-3.011300	3.828700	-11.527000	22.377948	0.000940	20.902039
220.058831	-3.001900	3.828300	-11.491000	22.385624	0.000940	20.924422
221.059190	-3.024500	3.828700	-11.579000	22.402147	0.000943	20.910151
222.058886	-2.992100	3.828800	-11.455000	22.416526	0.000940	20.909376
223.059064	-3.023000	3.826900	-11.567000	22.425547	0.000941	20.900867
224.058606	-2.999400	3.826500	-11.476000	22.448025	0.000942	20.927642
225.060201	-3.001600	3.828300	-11.490000	22.449645	0.000942	20.920257
226.057795	-2.991800	3.828400	-11.452000	22.457371	0.000943	20.922304
227.061856	-2.999000	3.828600	-11.481000	22.470976	0.000945	20.906059
228.061378	-3.000300	3.827000	-11.481000	22.476808	0.000945	20.917588
229.058860	-2.999500	3.827700	-11.480000	22.483261	0.000943	20.899396
230.059451	-3.010100	3.827000	-11.520000	22.499409	0.000944	20.930263
231.060765	-3.008600	3.827900	-11.516000	22.511818	0.000947	20.926096
232.059478	-3.000100	3.827400	-11.481000	22.484807	0.000945	20.918486
233.064961	-3.022800	3.826900	-11.567000	22.508404	0.000946	20.923626
234.059581	-3.006900	3.826500	-11.505000	22.520789	0.000950	20.922279
235.064826	-2.977200	3.827400	-11.393000	22.514609	0.000948	20.906134
236.077176	-2.996700	3.825200	-11.462000	22.529534	0.000950	20.928192
237.060215	-2.986400	3.825700	-11.424000	22.538481	0.000948	20.910601
238.066439	-3.004800	3.825500	-11.493000	22.543862	0.000948	20.931161
239.062357	-2.987300	3.824900	-11.424000	22.547526	0.000950	20.916815
240.060565	-2.988700	3.825300	-11.431000	22.553354	0.000948	20.922177
241.062587	-3.008100	3.824100	-11.502000	22.552709	0.000951	20.904463
242.063249	-2.997600	3.824600	-11.463000	22.553082	0.000951	20.899622
243.060751	-3.017000	3.822900	-11.532000	22.560957	0.000951	20.906559
244.064263	-2.997600	3.824300	-11.463000	22.559785	0.000952	20.906334
245.065195	-2.989600	3.825100	-11.434000	22.568307	0.000954	20.895430
246.062200	-2.987000	3.824400	-11.422000	22.563099	0.000952	20.912498
247.063757	-3.001300	3.824200	-11.475000	22.550617	0.000952	20.923228
248.063664	-2.997500	3.824000	-11.462000	22.585425	0.000952	20.921107
249.062192	-3.007400	3.823400	-11.497000	22.593796	0.000958	20.885398
250.062165	-3.021400	3.822800	-11.548000	22.609020	0.000953	20.892111
251.063062	-3.003000	3.823300	-11.480000	22.601521	0.000955	20.887919
252.063664	-3.004100	3.822400	-11.482000	22.602916	0.000955	20.908281
253.063470	-3.002200	3.822000	-11.473000	22.612932	0.000955	20.903615
254.064658	-2.998600	3.821400	-11.458000	22.608970	0.000957	20.903439
255.062919	-2.975800	3.822100	-11.372000	22.617068	0.000958	20.890688
256.062018	-3.008100	3.820000	-11.490000	22.616320	0.000956	20.898473
257.063699	-2.994800	3.820500	-11.439000	22.606652	0.000958	20.886420
258.065212	-3.009300	3.821100	-11.497000	22.631493	0.000957	20.876689
259.064359	-2.996200	3.821500	-11.448000	22.640538	0.000958	20.888118
260.064709	-2.998500	3.820800	-11.456000	22.624144	0.000959	20.876440
261.063790	-2.982700	3.821500	-11.397000	22.649931	0.000962	20.878560
262.063544	-3.011000	3.820700	-11.503000	22.646442	0.000958	20.869377
263.068656	-3.006900	3.820800	-11.488000	22.645322	0.000963	20.882952
264.065408	-2.988200	3.819000	-11.411000	22.632739	0.000959	20.873669
265.065414	-2.980900	3.819900	-11.386000	22.632964	0.000961	20.896652
266.072122	-2.997400	3.818400	-11.444000	22.619633	0.000962	20.879983
267.067832	-3.007400	3.819000	-11.484000	22.615896	0.000961	20.884774
268.068678	-2.999500	3.818800	-11.453000	22.621354	0.000962	20.870800
269.072499	-2.971800	3.819100	-11.348000	22.624369	0.000964	20.873346
270.068716	-2.983100	3.818100	-11.389000	22.602916	0.000962	20.876041
271.068627	-3.000300	3.818000	-11.454000	22.625016	0.000965	20.860245
272.067762	-3.002200	3.818100	-11.461000	22.640216	0.000964	20.883528
273.068752	-2.998900	3.815900	-11.442000	22.647615	0.000964	20.870552
274.068696	-2.962700	3.818800	-11.313000	22.638871	0.000968	20.867483
275.069984	-3.016200	3.816800	-11.511000	22.675645	0.000967	20.872074
276.074090	-2.994100	3.817500	-11.429000	22.683468	0.000968	20.877540
277.073085	-3.012400	3.816600	-11.496000	22.684365	0.000968	20.862792
278.070301	-2.999100	3.817600	-11.448000	22.701781	0.000969	20.866486
279.073186	-3.017500	3.815200	-11.510000	22.723429	0.000971	20.856403
280.070995	-3.007200	3.815600	-11.473000	22.728688	0.000970	20.860722
281.076669	-3.031800	3.814100	-11.562000	22.728564	0.000972	20.871503
282.074208	-3.012000	3.815800	-11.492000	22.716382	0.000970	20.874473
283.075331	-3.011300	3.814700	-11.486000	22.716605	0.000972	20.883231
284.073531	-3.001100	3.814200	-11.446000	22.710078	0.000971	20.873374
285.074654	-2.994400	3.814900	-11.422000	22.748595	0.000971	20.852688
286.071264	-2.982100	3.815400	-11.377000	22.712945	0.000972	20.855384
287.071307	-3.023500	3.813800	-11.530000	22.748996	0.000973	20.873478
288.072656	-2.996800	3.813200	-11.426000	22.755248	0.000971	20.878791
289.071459	-3.012300	3.814100	-11.489000	22.750465	0.000972	20.871630
290.072656	-2.986200	3.814800	-11.390000	22.752682	0.000971	20.855833
291.072734	-2.992500	3.814100	-11.413000	22.767307	0.000974	20.869060
292.076692	-2.978400	3.814200	-11.359000	22.780808	0.000973	20.862671
293.074177	-2.996200	3.813400	-11.424000	22.785867	0.000976	20.862523
294.072168	-3.003800	3.812900	-11.453000	22.807466	0.000974	20.853815
295.074113	-2.978300	3.813800	-11.358000	22.800938	0.000976	20.848224
296.073525	-3.015500	3.811800	-11.493000	22.798373	0.000977	20.847077
297.073960	-3.003100	3.812300	-11.448000	22.834893	0.000977	20.855212
298.075787	-3.031100	3.811100	-11.551000	22.790325	0.000978	20.864618
299.076989	-3.004800	3.812200	-11.454000	22.799195	0.000976	20.894838
300.075219	-3.010300	3.812300	-11.474000	22.797673	0.000977	20.836893
301.074593	-2.994400	3.810300	-11.407000	22.794810	0.000979	20.859154
302.076546	-2.995300	3.810500	-11.412000	22.798596	0.000979	20.852516
303.077242	-2.997700	3.810200	-11.421000	22.819297	0.000979	20.858554
304.077929	-3.017600	3.809800	-11.496000	22.844258	0.000979	20.844205
305.080252	-3.034700	3.807700	-11.554000	22.830034	0.000981	20.835172
306.082387	-3.021700	3.809700	-11.510000	22.846601	0.000979	20.842285
307.079349	-2.992900	3.809600	-11.401000	22.838180	0.000979	20.844754
308.079699	-3.007500	3.808900	-11.455000	22.868346	0.000982	20.851267
309.082391	-3.011800	3.807500	-11.466000	22.863140	0.000983	20.853164
310.077652	-3.011200	3.807700	-11.465000	22.896743	0.000982	20.848422
311.079407	-3.000700	3.808100	-11.427000	22.885659	0.000983	20.843482
312.080392	-3.002000	3.807600	-11.429000	22.909945	0.000982	20.849795
313.080404	-2.989000	3.809100	-11.384000	22.906956	0.000983	20.847274
314.081294	-3.000100	3.808200	-11.423000	22.913881	0.000985	20.835247
315.082043	-3.015200	3.806300	-11.476000	22.929201	0.000984	20.854861
316.081763	-3.027000	3.805300	-11.517000	22.905562	0.000986	20.848723
317.087210	-2.999000	3.807300	-11.416000	22.905364	0.000982	20.846153
318.082899	-2.995300	3.806700	-11.401000	22.905464	0.000984	20.838667
319.083872	-2.969800	3.807200	-11.306000	22.936898	0.000987	20.847400
320.083194	-2.997700	3.805500	-11.407000	22.908079	0.000988	20.846502
321.085401	-2.997600	3.806300	-11.409000	22.906485	0.000985	20.836372
322.087095	-3.013900	3.805800	-11.469000	22.919737	0.000986	20.838742
323.084269	-3.009900	3.804700	-11.451000	22.912861	0.000987	20.837544
324.085577	-3.003000	3.804200	-11.423000	22.932939	0.000989	20.839641
325.083495	-2.989900	3.804700	-11.374000	22.972321	0.000989	20.857285
326.085287	-3.000500	3.805400	-11.418000	22.967265	0.000989	20.832780
327.086539	-2.995200	3.805300	-11.396000	22.956752	0.000989	20.831730
328.087676	-2.993200	3.804100	-11.385000	22.978373	0.000991	20.834427
329.088839	-2.979100	3.805400	-11.335000	22.994363	0.000988	20.834326
330.089887	-2.995200	3.803300	-11.391000	23.001387	0.000992	20.844208
331.087223	-3.020900	3.803100	-11.488000	22.978698	0.000993	20.835226
332.086091	-3.007900	3.803100	-11.439000	22.976880	0.000993	20.814913
333.088651	-2.984900	3.803200	-11.351000	22.998002	0.000990	20.846033
334.087182	-2.984700	3.802400	-11.348000	22.988761	0.000990	20.830136
335.087802	-3.017400	3.801600	-11.469000	23.014689	0.000994	20.835251
336.087794	-2.991000	3.801300	-11.369000	23.003431	0.000994	20.812593
337.090797	-3.016200	3.801100	-11.464000	23.030579	0.000994	20.825568
338.091233	-2.982200	3.803600	-11.342000	23.057105	0.000993	20.836026
339.090928	-3.010500	3.800100	-11.439000	23.064005	0.000995	20.828715
340.093987	-3.004100	3.801300	-11.418000	23.073991	0.000994	20.834927
341.090450	-2.994900	3.800500	-11.381000	23.067168	0.000997	20.826668
342.093877	-2.990400	3.800700	-11.364000	23.075811	0.000995	20.827742
343.096683	-3.004000	3.800200	-11.413000	23.080368	0.000996	20.825670
344.091689	-3.003100	3.799800	-11.410000	23.082087	0.000997	20.844462
345.091769	-3.014400	3.800100	-11.453000	23.099744	0.000995	20.836550
346.097398	-3.014900	3.798700	-11.452000	23.093692	0.000995	20.828590
347.093646	-2.985000	3.799100	-11.339000	23.110328	0.000998	20.818232
348.093262	-2.988100	3.800300	-11.353000	23.137672	0.000997	20.810072
349.098356	-3.003900	3.799000	-11.411000	23.140438	0.000998	20.827541
350.092130	-3.029900	3.798700	-11.508000	23.154235	0.000999	20.822401
351.094485	-2.996000	3.797400	-11.376000	23.167434	0.000999	20.809549
352.093964	-2.993300	3.798500	-11.369000	23.173658	0.001000	20.815786
353.094303	-2.998800	3.797100	-11.385000	23.159563	0.000999	20.842913
354.095738	-3.018600	3.796900	-11.461000	23.134535	0.001000	20.813566
355.095752	-3.005600	3.797000	-11.411000	23.127537	0.001000	20.811769
356.098859	-2.992900	3.797600	-11.364000	23.103255	0.001002	20.821102
357.099791	-3.000400	3.795800	-11.388000	23.128955	0.001003	20.816035
358.096460	-2.984700	3.796300	-11.330000	23.141756	0.001001	20.826491
359.097940	-2.988500	3.797100	-11.346000	23.169125	0.001004	20.830684
360.098008	-2.997000	3.797200	-11.379000	23.173409	0.001000	20.824545
361.096527	-3.006200	3.796200	-11.411000	23.191364	0.001001	20.829735
362.097532	-3.018000	3.794100	-11.450000	23.187330	0.001004	20.825219
363.097168	-3.011700	3.793600	-11.425000	23.201375	0.001004	20.822224
364.096118	-3.005800	3.795600	-11.408000	23.155678	0.001002	20.820054
365.100113	-2.995500	3.794600	-11.366000	23.142528	0.001002	20.814937
366.097565	-2.993200	3.794400	-11.355000	23.142229	0.001003	20.829336
367.097211	-2.986900	3.793600	-11.330000	23.161031	0.001003	20.816409
368.097614	-2.982700	3.794500	-11.316000	23.154333	0.001005	20.819655
369.099589	-2.987800	3.793900	-11.334000	23.155378	0.001006	20.800787
370.106458	-2.981800	3.793200	-11.309000	23.153784	0.001006	20.805828
371.097125	-2.980100	3.792900	-11.301000	23.197140	0.001006	20.835998
372.100768	-2.992700	3.792900	-11.350000	23.202545	0.001007	20.803482
373.097828	-2.994600	3.792200	-11.355000	23.196095	0.001008	20.813614
374.104919	-3.009200	3.791700	-11.409000	23.204810	0.001006	20.791054
375.100906	-2.987900	3.792800	-11.331000	23.199432	0.001007	20.807476
376.099026	-3.002800	3.790100	-11.380000	23.200202	0.001007	20.808247
377.100095	-3.020300	3.790600	-11.447000	23.182250	0.001006	20.813965
378.101894	-2.994100	3.791500	-11.350000	23.180406	0.001008	20.816384
379.101418	-3.004200	3.790000	-11.384000	23.190940	0.001010	20.803233
380.101752	-2.991800	3.791800	-11.343000	23.156350	0.001008	20.795597
381.103850	-3.000900	3.790500	-11.373000	23.193753	0.001008	20.783292
382.101521	-3.002200	3.790000	-11.378000	23.177667	0.001006	20.810795
383.102192	-3.010500	3.789100	-11.406000	23.174057	0.001011	20.805754
384.102111	-2.999300	3.789000	-11.363000	23.163372	0.001010	20.828712
385.106419	-2.983800	3.788500	-11.303000	23.148779	0.001009	20.811244
386.103303	-3.010000	3.788400	-11.403000	23.172089	0.001009	20.802360
387.105674	-3.009400	3.789800	-11.403000	23.185909	0.001010	20.803881
388.109324	-2.998800	3.789700	-11.363000	23.188400	0.001012	20.799265
389.115678	-3.022000	3.786500	-11.442000	23.222492	0.001012	20.821101
390.108382	-2.981600	3.787500	-11.292000	23.245800	0.001013	20.781397
391.111993	-3.022100	3.786500	-11.442000	23.272844	0.001011	20.806128
392.111203	-3.019400	3.785900	-11.430000	23.278596	0.001013	20.790082
393.109514	-2.992100	3.787800	-11.332000	23.290797	0.001014	20.782395
394.114515	-3.004300	3.787900	-11.380000	23.307206	0.001016	20.804056
395.111681	-3.030100	3.784000	-11.464000	23.316396	0.001015	20.800465
396.111109	-3.017800	3.784600	-11.420000	23.322246	0.001015	20.812491
397.108892	-3.003200	3.785200	-11.367000	23.306087	0.001015	20.816685
398.110005	-3.001600	3.784000	-11.357000	23.280115	0.001014	20.798243
399.109508	-2.992500	3.785600	-11.327000	23.257679	0.001015	20.801362
400.110370	-3.019300	3.783200	-11.420000	23.243086	0.001016	20.811868
401.114011	-3.013200	3.784900	-11.403000	23.261439	0.001018	20.771939
402.112224	-3.000900	3.784000	-11.355000	23.247146	0.001015	20.807402
403.111220	-3.009300	3.782500	-11.382000	23.255065	0.001015	20.800639
404.112242	-3.019000	3.782100	-11.416000	23.271699	0.001016	20.787437
405.113968	-2.987700	3.784400	-11.305000	23.280189	0.001017	20.780299
406.111720	-3.003400	3.782300	-11.358000	23.298492	0.001018	20.801013
407.114029	-3.006100	3.782900	-11.370000	23.296151	0.001020	20.780175
408.111678	-2.994900	3.783000	-11.329000	23.303100	0.001017	20.792354
409.114039	-3.014200	3.781400	-11.397000	23.326157	0.001018	20.793177
410.112054	-2.984800	3.781300	-11.286000	23.333526	0.001019	20.799141
411.114791	-3.026200	3.780300	-11.440000	23.341767	0.001019	20.801236
412.116933	-3.003900	3.780800	-11.356000	23.352997	0.001018	20.795896
413.112906	-3.003800	3.781000	-11.357000	23.355585	0.001017	20.790904
414.114829	-3.026000	3.779400	-11.435000	23.387283	0.001018	20.787586
415.118587	-2.979200	3.780900	-11.263000	23.380410	0.001018	20.789707
416.112208	-3.018900	3.779200	-11.408000	23.377424	0.001019	20.786239
417.120506	-3.003000	3.779100	-11.347000	23.392635	0.001020	20.788209
418.112536	-3.014500	3.779600	-11.391000	23.395126	0.001020	20.788334
419.112731	-2.999500	3.778800	-11.334000	23.407975	0.001021	20.793627
420.115643	-2.974100	3.779500	-11.240000	23.396770	0.001021	20.799939
421.114194	-2.989000	3.777900	-11.291000	23.387457	0.001019	20.778751
422.116899	-3.000100	3.777800	-11.332000	23.376204	0.001021	20.795922
423.115473	-3.002800	3.777200	-11.341000	23.379464	0.001021	20.796345
424.113227	-2.984000	3.777600	-11.271000	23.360143	0.001019	20.793101
425.114245	-2.965000	3.778600	-11.201000	23.382428	0.001019	20.769443
426.112740	-3.000500	3.777500	-11.332000	23.384270	0.001022	20.791204
427.116889	-2.981700	3.777000	-11.261000	23.409642	0.001021	20.796246
428.113478	-3.015000	3.777200	-11.387000	23.404960	0.001022	20.765000
429.114522	-2.997600	3.776400	-11.319000	23.407774	0.001021	20.788209
430.114391	-2.980200	3.777400	-11.256000	23.422838	0.001023	20.785290
431.122114	-3.015200	3.775700	-11.384000	23.435734	0.001023	20.774034
432.115829	-2.992300	3.776200	-11.298000	23.448433	0.001023	20.771590
433.116587	-2.980500	3.776100	-11.253000	23.443478	0.001025	20.765200
434.116374	-3.000600	3.774200	-11.323000	23.445991	0.001024	20.770091
435.116176	-3.000900	3.774800	-11.326000	23.457173	0.001024	20.779402
436.117379	-2.994900	3.774000	-11.301000	23.461777	0.001023	20.776430
437.117339	-3.011100	3.773000	-11.359000	23.450748	0.001027	20.779126
438.118865	-3.001500	3.774600	-11.328000	23.460059	0.001025	20.767596
439.116796	-3.008400	3.772600	-11.348000	23.440365	0.001024	20.774408
440.124515	-2.991000	3.772300	-11.281000	23.468924	0.001024	20.774585
441.119141	-2.988600	3.774300	-11.277000	23.459986	0.001025	20.782696
442.118093	-3.005900	3.771000	-11.333000	23.470143	0.001027	20.763953
443.123623	-2.986400	3.773600	-11.268000	23.468351	0.001024	20.762631
444.124615	-3.003100	3.770400	-11.322000	23.459786	0.001026	20.782970
445.119014	-2.999000	3.771500	-11.310000	23.486449	0.001028	20.751849
446.119400	-3.010000	3.770800	-11.349000	23.497006	0.001026	20.774285
447.119152	-3.011600	3.769900	-11.352000	23.499669	0.001026	20.771739
448.130227	-3.031700	3.769700	-11.428000	23.501934	0.001024	20.757888
449.120214	-2.995700	3.769800	-11.292000	23.503354	0.001024	20.757888
450.118021	-3.019900	3.769100	-11.381000	23.501436	0.001028	20.738896
451.118876	-3.016200	3.769700	-11.369000	23.513437	0.001027	20.770840
452.119890	-3.002800	3.768900	-11.316000	23.511520	0.001030	20.791678
453.118410	-3.011900	3.769100	-11.352000	23.509379	0.001027	20.755867
454.118846	-3.022600	3.766700	-11.384000	23.517744	0.001027	20.763778
455.119995	-2.991800	3.769900	-11.278000	23.560786	0.001028	20.754767
456.123477	-3.005300	3.767900	-11.321000	23.538307	0.001029	20.765424
457.120350	-3.008000	3.767400	-11.331000	23.523245	0.001030	20.765973
458.119999	-3.002000	3.767900	-11.311000	23.538878	0.001031	20.742288
459.119987	-3.004600	3.766700	-11.316000	23.518440	0.001031	20.760683
460.123398	-2.974800	3.768000	-11.209000	23.524017	0.001031	20.760582
461.119451	-3.012600	3.765400	-11.343000	23.565243	0.001028	20.740742
462.122251	-2.985700	3.767200	-11.246000	23.591582	0.001029	20.769044
463.122397	-2.988000	3.766000	-11.252000	23.593771	0.001029	20.749900
464.120227	-2.979000	3.767500	-11.220000	23.621903	0.001031	20.734005
465.121390	-2.993300	3.766400	-11.272000	23.625663	0.001030	20.759587
466.121405	-2.975200	3.765400	-11.202000	23.629419	0.001028	20.732531
467.120554	-2.993100	3.765800	-11.270000	23.633801	0.001030	20.764900
468.120962	-2.978300	3.765800	-11.214000	23.624616	0.001032	20.751899
469.120651	-2.986000	3.765800	-11.243000	23.644132	0.001034	20.760085
470.121206	-3.000300	3.764100	-11.292000	23.639328	0.001032	20.768545
471.124697	-3.010400	3.764400	-11.331000	23.655881	0.001031	20.737723
472.121929	-3.023100	3.762900	-11.375000	23.636563	0.001032	20.757712
473.123531	-3.017700	3.761900	-11.351000	23.640820	0.001032	20.749651
474.125289	-3.001400	3.762600	-11.292000	23.640449	0.001032	20.760185
475.125923	-2.995300	3.763300	-11.272000	23.624691	0.001033	20.755293
476.126245	-2.995400	3.762600	-11.270000	23.614932	0.001034	20.773485
477.122484	-2.993700	3.764100	-11.267000	23.606345	0.001032	20.762031
478.125237	-3.011100	3.761500	-11.326000	23.607539	0.001032	20.762754
479.124800	-3.009700	3.761200	-11.319000	23.564747	0.001032	20.772488
480.124313	-3.003900	3.760500	-11.295000	23.558721	0.001031	20.751274
481.123512	-2.992400	3.761300	-11.255000	23.581699	0.001032	20.744437
482.125181	-2.996500	3.762100	-11.272000	23.606894	0.001034	20.747883
483.125726	-2.989500	3.760600	-11.242000	23.618444	0.001032	20.738598
484.124990	-3.020200	3.758300	-11.350000	23.640350	0.001033	20.746809
485.125319	-2.999300	3.761500	-11.281000	23.612843	0.001031	20.757640
486.129694	-3.004500	3.758600	-11.291000	23.635945	0.001035	20.756618
487.124426	-2.996600	3.760500	-11.267000	23.658274	0.001031	20.766676
488.128435	-3.002400	3.759100	-11.286000	23.683539	0.001034	20.750279
489.128304	-2.998900	3.757200	-11.266000	23.696658	0.001032	20.761535
490.126861	-2.983200	3.757700	-11.209000	23.684810	0.001032	20.765304
491.131625	-3.005400	3.757800	-11.293000	23.696931	0.001035	20.737152
492.127640	-3.007000	3.757300	-11.296000	23.690187	0.001034	20.759789
493.129050	-2.994400	3.757600	-11.251000	23.681402	0.001034	20.766629
494.130234	-3.013300	3.756400	-11.318000	23.676123	0.001035	20.761337
495.129346	-3.009400	3.757900	-11.308000	23.675973	0.001034	20.751703
496.128980	-2.992700	3.756700	-11.241000	23.668158	0.001035	20.747661
497.130504	-3.009300	3.754800	-11.298000	23.669827	0.001033	20.745066
498.129482	-2.977700	3.756200	-11.184000	23.693026	0.001034	20.767377
499.130733	-3.003800	3.755800	-11.280000	23.684611	0.001036	20.762734
500.130135	-2.985600	3.755900	-11.213000	23.698525	0.001034	20.763407
501.133818	-3.021300	3.754200	-11.341000	23.690213	0.001034	20.736107
502.136662	-2.981200	3.755100	-11.194000	23.709877	0.001034	20.769573
503.131756	-3.005100	3.754500	-11.282000	23.725610	0.001036	20.763535
504.131679	-3.008900	3.754600	-11.297000	23.723768	0.001035	20.765008
505.134256	-3.011800	3.753300	-11.302000	23.724513	0.001037	20.767177
506.132650	-3.011600	3.753500	-11.302000	23.714183	0.001033	20.751604
507.132873	-2.996200	3.752700	-11.243000	23.768672	0.001037	20.760243
508.134627	-2.992400	3.752500	-11.228000	23.755975	0.001035	20.779755
509.133671	-3.017500	3.751000	-11.318000	23.737906	0.001037	20.762113
510.133807	-3.012900	3.751300	-11.302000	23.728622	0.001036	20.783151
511.135563	-3.025800	3.752000	-11.350000	23.718168	0.001034	20.753229
512.134894	-3.008100	3.752100	-11.285000	23.686731	0.001035	20.772446
513.135612	-3.023500	3.749600	-11.336000	23.676924	0.001037	20.769726
514.136360	-3.007600	3.750200	-11.279000	23.688424	0.001034	20.762764
515.135442	-2.979000	3.752400	-11.177000	23.709084	0.001036	20.779683
516.136367	-2.998100	3.749000	-11.239000	23.718444	0.001037	20.757299
517.139205	-2.961900	3.752200	-11.112000	23.743907	0.001036	20.780932
518.135827	-2.996800	3.750200	-11.238000	23.745128	0.001035	20.779311
519.137687	-3.008200	3.749500	-11.278000	23.764244	0.001039	20.764338
520.139223	-3.029200	3.747500	-11.350000	23.760736	0.001037	20.785476
521.137237	-2.991100	3.748700	-11.211000	23.777338	0.001037	20.768931
522.138406	-3.018800	3.748900	-11.315000	23.782243	0.001035	20.760573
523.138203	-2.981400	3.749100	-11.177000	23.808825	0.001037	20.768734
524.142098	-2.995000	3.748500	-11.226000	23.811638	0.001036	20.781037
525.140312	-3.003300	3.746100	-11.250000	23.813131	0.001036	20.783483
526.138570	-2.979100	3.747400	-11.162000	23.830057	0.001038	20.758728
527.140525	-2.992900	3.747900	-11.216000	23.834712	0.001036	20.778095
528.142906	-3.009500	3.747100	-11.276000	23.844395	0.001037	20.785433
529.141500	-2.978400	3.747900	-11.162000	23.865401	0.001036	20.773305
530.139534	-3.006700	3.746800	-11.263000	23.878691	0.001037	20.788054
531.143247	-3.008300	3.746800	-11.271000	23.888596	0.001036	20.775227
532.140042	-2.997400	3.745400	-11.225000	23.881804	0.001037	20.770313
533.144573	-3.004000	3.744300	-11.247000	23.909828	0.001037	20.775180
534.142864	-2.993500	3.744500	-11.208000	23.908907	0.001039	20.771886
535.144193	-2.995000	3.744900	-11.215000	23.921676	0.001038	20.780422
536.142080	-3.017900	3.742700	-11.293000	23.907365	0.001038	20.797841
537.145704	-3.009600	3.744300	-11.268000	23.909779	0.001038	20.792201
538.153450	-3.006500	3.743200	-11.252000	23.919213	0.001034	20.799764
539.141840	-3.015700	3.742400	-11.285000	23.926008	0.001039	20.780973
540.144634	-2.996400	3.742800	-11.214000	23.893854	0.001038	20.784766
541.141858	-2.988300	3.742500	-11.183000	23.923445	0.001038	20.780300
542.143749	-2.970500	3.742700	-11.116000	23.913540	0.001037	20.791705
543.142807	-2.973100	3.743300	-11.128000	23.892985	0.001038	20.798119
544.144215	-2.984900	3.741000	-11.165000	23.858940	0.001037	20.802862
545.147860	-3.003800	3.741400	-11.237000	23.839927	0.001036	20.786168
546.145430	-3.020400	3.739500	-11.294000	23.851424	0.001037	20.779205
547.149632	-3.012400	3.741000	-11.269000	23.835173	0.001035	20.802739
548.146307	-3.002700	3.739600	-11.228000	23.848240	0.001036	20.785496
549.144550	-3.009700	3.740300	-11.257000	23.845974	0.001038	20.778482
550.145632	-2.985800	3.740500	-11.168000	23.837937	0.001040	20.814045
551.146315	-3.006000	3.739500	-11.240000	23.840102	0.001038	20.788240
552.144675	-2.975700	3.741900	-11.134000	23.839704	0.001038	20.792583
553.146991	-2.994500	3.740800	-11.200000	23.827312	0.001036	20.799124
554.146894	-2.995800	3.738100	-11.197000	23.798191	0.001035	20.802168
555.152381	-2.997300	3.738600	-11.205000	23.803268	0.001035	20.792559
556.146903	-2.996800	3.739200	-11.203000	23.777931	0.001035	20.786596
557.149294	-3.003100	3.737300	-11.222000	23.779401	0.001034	20.804665
558.146444	-3.009000	3.738500	-11.248000	23.798840	0.001037	20.801396
559.150882	-3.018300	3.737300	-11.280000	23.773925	0.001034	20.783053
560.150135	-2.988900	3.737700	-11.170000	23.757772	0.001037	20.818541
561.148207	-3.003900	3.737300	-11.226000	23.750978	0.001037	20.788970
562.151864	-3.005500	3.737200	-11.232000	23.732111	0.001037	20.801348
563.147757	-2.995200	3.735500	-11.186000	23.741918	0.001035	20.793162
564.150412	-2.999100	3.735600	-11.202000	23.762853	0.001036	20.779064
565.151288	-2.996000	3.735600	-11.191000	23.799813	0.001037	20.804268
566.153238	-2.995800	3.734800	-11.188000	23.821094	0.001037	20.799528
567.150890	-2.976300	3.734800	-11.114000	23.838316	0.001036	20.804942
568.150355	-2.990400	3.733900	-11.164000	23.885727	0.001037	20.796531
569.153310	-3.005300	3.734000	-11.220000	23.876023	0.001035	20.794387
570.154206	-3.012100	3.733000	-11.244000	23.858402	0.001036	20.813702
571.152544	-3.009900	3.733600	-11.236000	23.865470	0.001038	20.789970
572.151761	-3.015000	3.732600	-11.253000	23.860567	0.001037	20.816821
573.152145	-2.992700	3.733300	-11.171000	23.856113	0.001035	20.819467
574.151690	-2.982100	3.733200	-11.132000	23.850936	0.001034	20.816647
575.152152	-3.001100	3.731600	-11.197000	23.857381	0.001036	20.820265
576.151780	-2.986500	3.731700	-11.143000	23.861787	0.001036	20.800501
577.152318	-2.992300	3.731700	-11.164000	23.911710	0.001034	20.803146
578.151576	-2.993000	3.731700	-11.168000	23.907928	0.001037	20.803620
579.157683	-2.999500	3.730800	-11.190000	23.900388	0.001036	20.815026
580.153765	-2.998900	3.731200	-11.188000	23.930849	0.001035	20.824708
581.151503	-3.007000	3.730900	-11.218000	23.941849	0.001035	20.804919
582.160291	-2.980200	3.731400	-11.119000	23.944065	0.001036	20.797658
583.152655	-2.996800	3.730500	-11.179000	23.969125	0.001036	20.809038
584.153677	-3.015200	3.729900	-11.244000	24.007123	0.001036	20.836238
585.155002	-3.025000	3.728800	-11.279000	24.020037	0.001037	20.818369
586.154381	-3.004900	3.728400	-11.203000	23.989381	0.001036	20.808488
587.155900	-3.002600	3.728200	-11.193000	23.984701	0.001036	20.820391
588.156446	-3.005500	3.729500	-11.208000	23.948244	0.001034	20.810858
589.157351	-3.023000	3.726700	-11.264000	23.957750	0.001036	20.816123
590.154261	-3.013400	3.727500	-11.232000	23.962454	0.001035	20.811831
591.158937	-3.001000	3.727500	-11.185000	23.972110	0.001034	20.828152
592.158536	-3.003800	3.727500	-11.196000	23.984478	0.001036	20.836288
593.163626	-3.001100	3.726800	-11.183000	23.998613	0.001035	20.813005
594.163105	-3.023200	3.726300	-11.264000	24.025065	0.001035	20.830997
595.159496	-2.999800	3.726100	-11.177000	24.052414	0.001035	20.838984
596.160034	-2.988100	3.726200	-11.133000	24.045918	0.001033	20.813978
597.158484	-2.970400	3.727100	-11.070000	24.065527	0.001033	20.819419
598.158274	-2.989000	3.727000	-11.139000	24.057739	0.001034	20.835790
599.157445	-2.986900	3.727200	-11.132000	24.050647	0.001035	20.825359
600.161637	-2.993800	3.725000	-11.150000	24.059903	0.001036	20.827529
601.163137	-3.008400	3.723800	-11.201000	24.096033	0.001032	20.813978
602.164576	-2.991500	3.724800	-11.141000	24.078715	0.001034	20.823636
603.161134	-3.003000	3.724700	-11.185000	24.102530	0.001033	20.833770
604.162442	-3.018000	3.724400	-11.238000	24.133308	0.001032	20.825758
605.161443	-3.009700	3.722500	-11.203000	24.146942	0.001032	20.825209
606.161170	-3.001200	3.723000	-11.172000	24.120543	0.001035	20.831922
607.162824	-2.992300	3.722800	-11.137000	24.128955	0.001034	20.828504
608.160703	-2.974500	3.723500	-11.073000	24.150303	0.001034	20.851812
609.161201	-3.010800	3.721700	-11.203000	24.142441	0.001034	20.827332
610.164740	-3.007700	3.722900	-11.197000	24.175881	0.001033	20.838112
611.163719	-3.000900	3.721600	-11.166000	24.160530	0.001032	20.838837
612.164056	-3.003100	3.722200	-11.177000	24.175110	0.001034	20.833072
613.164287	-3.001000	3.722500	-11.169000	24.142243	0.001034	20.836616
614.165549	-3.013900	3.720800	-11.213000	24.157844	0.001033	20.839461
615.166009	-2.982600	3.721400	-11.098000	24.159710	0.001033	20.835169
616.162643	-2.982500	3.722000	-11.099000	24.163244	0.001031	20.825912
617.169869	-3.009300	3.719200	-11.192000	24.151325	0.001032	20.851415
618.165677	-2.981100	3.719500	-11.086000	24.167349	0.001034	20.853261
619.164454	-2.981600	3.719000	-11.087000	24.203175	0.001032	20.847944
620.163897	-2.980800	3.719800	-11.087000	24.195563	0.001034	20.859749
621.167466	-2.984600	3.718200	-11.096000	24.212979	0.001033	20.846872
622.165553	-3.001400	3.717300	-11.156000	24.246568	0.001034	20.829830
623.171307	-2.999100	3.718500	-11.151000	24.273114	0.001031	20.856931
624.166004	-3.017100	3.717200	-11.213000	24.260924	0.001032	20.840910
625.164360	-3.002600	3.717300	-11.160000	24.262839	0.001032	20.832875
626.166223	-2.989600	3.717300	-11.112000	24.225546	0.001033	20.865640
627.168689	-3.007600	3.716300	-11.176000	24.240175	0.001032	20.859926
628.166752	-3.015400	3.716500	-11.205000	24.241443	0.001031	20.849819
629.164475	-2.992800	3.715700	-11.120000	24.217584	0.001029	20.845802
630.171443	-3.010600	3.716800	-11.188000	24.183348	0.001031	20.862670
631.167206	-2.987100	3.715400	-11.098000	24.159415	0.001031	20.862373
632.167258	-2.973800	3.717300	-11.053000	24.128462	0.001033	20.856458
633.174078	-3.009500	3.715700	-11.181000	24.120102	0.001032	20.859927
634.172658	-2.987500	3.715800	-11.100000	24.132743	0.001031	20.869286
635.174949	-3.023800	3.713100	-11.226000	24.156629	0.001030	20.871432
636.172731	-3.005500	3.715600	-11.166000	24.150858	0.001030	20.853790
637.170147	-3.010300	3.714400	-11.181000	24.138243	0.001032	20.866742
638.173868	-3.001600	3.713500	-11.145000	24.177852	0.001034	20.862847
639.177890	-3.009000	3.714300	-11.175000	24.173599	0.001031	20.875650
640.172325	-2.987400	3.715200	-11.098000	24.154217	0.001028	20.852418
641.174139	-2.997600	3.712000	-11.126000	24.148842	0.001030	20.857458
642.171895	-3.007400	3.713300	-11.166000	24.121946	0.001029	20.875053
643.173774	-3.012300	3.711500	-11.179000	24.102463	0.001030	20.843660
644.171261	-3.001400	3.711700	-11.139000	24.127245	0.001028	20.877522
645.172188	-2.998000	3.711200	-11.125000	24.133815	0.001028	20.861353
646.174492	-3.004900	3.711700	-11.152000	24.140434	0.001031	20.864198
647.173605	-2.982100	3.711900	-11.068000	24.161035	0.001029	20.879644
648.172362	-2.966000	3.711200	-11.006000	24.191838	0.001029	20.870710
649.173791	-2.978800	3.710200	-11.051000	24.197933	0.001028	20.883936
650.173768	-3.017300	3.709000	-11.190000	24.221421	0.001029	20.849176
651.172451	-2.993400	3.712000	-11.111000	24.243936	0.001029	20.859906
652.173506	-3.005100	3.709500	-11.146000	24.252743	0.001028	20.859256
653.172755	-3.005900	3.710300	-11.152000	24.253840	0.001027	20.863201
654.172841	-3.007200	3.710000	-11.156000	24.251899	0.001026	20.867892
655.172928	-3.007000	3.708600	-11.151000	24.233215	0.001026	20.867644
656.178603	-2.969400	3.707600	-11.009000	24.220825	0.001029	20.895991
657.174219	-2.994500	3.708100	-11.103000	24.260557	0.001029	20.893171
658.174995	-3.003900	3.706300	-11.133000	24.233963	0.001026	20.871238
659.176206	-3.003000	3.707500	-11.133000	24.237621	0.001029	20.875382
660.174114	-2.984200	3.707100	-11.062000	24.234113	0.001027	20.886086
661.173447	-3.001500	3.707400	-11.125000	24.196021	0.001028	20.887233
662.177867	-2.991500	3.706700	-11.087000	24.202291	0.001026	20.910590
663.174717	-2.992300	3.707700	-11.093000	24.199082	0.001028	20.891725
664.175056	-3.000300	3.707100	-11.121000	24.226050	0.001025	20.893645
665.174343	-3.002800	3.706800	-11.130000	24.217593	0.001026	20.892274
666.174743	-3.001200	3.706500	-11.123000	24.228738	0.001027	20.887807
667.175310	-2.993400	3.706100	-11.092000	24.263246	0.001027	20.888755
668.174284	-3.006400	3.703500	-11.133000	24.300338	0.001024	20.890875
669.176326	-2.997500	3.704100	-11.101000	24.291432	0.001027	20.885261
670.175750	-2.988500	3.703700	-11.066000	24.325417	0.001025	20.877153
671.176495	-3.012800	3.704400	-11.159000	24.317804	0.001027	20.884215
672.177206	-2.992700	3.704100	-11.085000	24.305365	0.001024	20.900184
673.178242	-2.994200	3.703600	-11.088000	24.286409	0.001025	20.880223
674.178428	-3.014200	3.702900	-11.159000	24.277128	0.001024	20.902680
675.182769	-3.010400	3.702700	-11.145000	24.268047	0.001024	20.888830
676.179881	-3.005300	3.703400	-11.129000	24.308078	0.001025	20.894371
677.179595	-2.994100	3.702200	-11.083000	24.322781	0.001025	20.907696
678.179375	-3.003200	3.702400	-11.117000	24.341637	0.001024	20.896268
679.180470	-2.986500	3.702800	-11.058000	24.328875	0.001024	20.918077
680.181289	-2.984700	3.701900	-11.049000	24.350719	0.001022	20.918653
681.179916	-2.996900	3.702100	-11.094000	24.369449	0.001025	20.908519
682.183320	-3.002100	3.700700	-11.109000	24.388605	0.001022	20.899288
683.183251	-2.980200	3.701600	-11.030000	24.399550	0.001024	20.890355
684.180738	-2.995200	3.702000	-11.087000	24.380645	0.001022	20.894148
685.181753	-3.010700	3.701300	-11.142000	24.392438	0.001021	20.907399
686.180007	-3.006000	3.699800	-11.121000	24.366940	0.001025	20.906950
687.184426	-2.994000	3.699400	-11.074000	24.343656	0.001025	20.912042
688.179819	-2.983400	3.700500	-11.039000	24.340695	0.001023	20.921873
689.183647	-3.010500	3.699200	-11.136000	24.333680	0.001023	20.921474
690.181218	-3.001400	3.698600	-11.099000	24.334128	0.001023	20.897744
691.181418	-2.996600	3.699100	-11.084000	24.334677	0.001024	20.906828
692.184727	-3.019200	3.697900	-11.163000	24.326767	0.001019	20.901264
693.184590	-3.011500	3.697100	-11.133000	24.340226	0.001022	20.904334
694.181610	-3.013600	3.697800	-11.142000	24.304901	0.001020	20.918683
695.186110	-2.984100	3.698700	-11.035000	24.331297	0.001020	20.937573
696.184649	-3.002400	3.697300	-11.100000	24.337615	0.001021	20.914042
697.182442	-3.000300	3.695700	-11.087000	24.355253	0.001020	20.914666
698.183377	-2.987300	3.696500	-11.040000	24.390406	0.001023	20.921955
699.182773	-3.006800	3.695000	-11.109000	24.388838	0.001020	20.909952
700.184671	-3.001500	3.697200	-11.096000	24.412222	0.001022	20.913970
701.182714	-3.001200	3.695700	-11.090000	24.451698	0.001020	20.907107
702.186436	-3.009700	3.695900	-11.122000	24.466823	0.001021	20.898101
703.183642	-2.978500	3.696500	-11.009000	24.470058	0.001019	20.907510
704.184112	-2.996600	3.695300	-11.071000	24.504010	0.001018	20.906961
705.185220	-3.000100	3.693600	-11.080000	24.484486	0.001019	20.885003
706.185120	-2.999400	3.694200	-11.079000	24.503238	0.001018	20.911875
707.184129	-3.009500	3.694600	-11.116000	24.516125	0.001017	20.918166
708.186117	-2.997700	3.694200	-11.074000	24.508016	0.001019	20.930891
709.187668	-2.988500	3.694200	-11.039000	24.496201	0.001017	20.926624
710.184009	-3.000100	3.694500	-11.081000	24.478467	0.001020	20.927324
711.188500	-2.998400	3.692300	-11.069000	24.474736	0.001017	20.917892
712.184557	-3.007300	3.692800	-11.103000	24.470780	0.001017	20.903967
713.186107	-2.988000	3.692800	-11.034000	24.495978	0.001016	20.907436
714.187763	-3.002200	3.691900	-11.083000	24.498739	0.001016	20.908309
715.185857	-2.980500	3.691600	-11.001000	24.519857	0.001016	20.903420
716.188408	-2.985800	3.692900	-11.025000	24.531995	0.001017	20.920337
717.192338	-2.997200	3.692600	-11.066000	24.531073	0.001016	20.894759
718.187894	-3.006500	3.690200	-11.094000	24.545500	0.001017	20.883631
719.187562	-3.016100	3.689400	-11.127000	24.564082	0.001017	20.890894
720.196634	-2.980500	3.691000	-10.999000	24.564379	0.001017	20.889771
721.190543	-2.987300	3.690600	-11.023000	24.557961	0.001016	20.896607
722.194086	-2.984200	3.691900	-11.016000	24.560674	0.001016	20.876096
723.201885	-3.003100	3.690000	-11.080000	24.564032	0.001013	20.878991
724.196653	-3.012100	3.688300	-11.108000	24.568160	0.001016	20.870806
725.195008	-3.012300	3.688500	-11.110000	24.537443	0.001014	20.886926
726.190818	-3.012700	3.688200	-11.110000	24.529682	0.001016	20.875347
727.195544	-2.983500	3.689100	-11.006000	24.543560	0.001014	20.881210
728.196249	-2.983900	3.689400	-11.007000	24.543362	0.001013	20.891442
729.193031	-3.009700	3.687300	-11.095000	24.549778	0.001014	20.883181
730.195691	-3.009000	3.688600	-11.097000	24.566368	0.001014	20.876594
731.200867	-3.004300	3.686800	-11.075000	24.602184	0.001015	20.865591
732.192875	-3.006700	3.687000	-11.086000	24.592011	0.001013	20.884779
733.197322	-3.000700	3.687600	-11.064000	24.614469	0.001013	20.897355
734.192608	-3.014100	3.685800	-11.108000	24.611683	0.001014	20.884604
735.194522	-3.005500	3.686900	-11.079000	24.585146	0.001013	20.890692
736.193485	-2.990100	3.686400	-11.022000	24.589971	0.001014	20.883207
737.194005	-3.003200	3.686200	-11.069000	24.574799	0.001010	20.886001
738.194008	-3.010600	3.684900	-11.094000	24.546893	0.001012	20.879338
739.193850	-2.999600	3.684100	-11.049000	24.555470	0.001010	20.869928
740.198206	-2.978400	3.686400	-10.979000	24.563231	0.001010	20.891938
741.192195	-3.007100	3.683300	-11.075000	24.588650	0.001011	20.866235
742.194693	-2.986900	3.684800	-11.005000	24.577084	0.001009	20.859846
743.193179	-3.017100	3.683800	-11.114000	24.538183	0.001009	20.872971
744.194905	-2.989600	3.684000	-11.012000	24.557908	0.001008	20.848667
745.194157	-3.005600	3.683200	-11.069000	24.542934	0.001009	20.854031
746.194834	-3.003500	3.683900	-11.063000	24.563850	0.001009	20.849413
747.195358	-2.996200	3.684000	-11.037000	24.570641	0.001010	20.853382
748.195361	-3.026000	3.682700	-11.143000	24.560867	0.001010	20.857325
749.194506	-3.012100	3.681800	-11.089000	24.537536	0.001008	20.871848
750.195541	-2.975400	3.680900	-10.951000	24.536168	0.001009	20.857674
751.195829	-2.968700	3.681900	-10.930000	24.571634	0.001009	20.862438
752.194903	-3.002400	3.681300	-11.052000	24.577579	0.001010	20.857024
753.197555	-2.999900	3.681000	-11.041000	24.588423	0.001010	20.840879
754.197060	-3.001100	3.680300	-11.044000	24.592502	0.001009	20.853979
755.200938	-3.009500	3.681900	-11.080000	24.584293	0.001008	20.845270
756.199694	-2.997400	3.680100	-11.029000	24.570513	0.001007	20.851356
757.197788	-3.023300	3.678400	-11.120000	24.603194	0.001006	20.865655
758.198035	-3.008200	3.680700	-11.072000	24.592972	0.001006	20.845443
759.197837	-3.004900	3.679700	-11.056000	24.575910	0.001006	20.849186
760.199641	-3.012000	3.678700	-11.079000	24.559670	0.001005	20.838107
761.198143	-2.992300	3.680400	-11.012000	24.527656	0.001003	20.841548
762.198859	-3.021200	3.677200	-11.107000	24.522932	0.001006	20.854826
763.198682	-3.028200	3.677900	-11.136000	24.511514	0.001005	20.839102
764.202839	-3.012700	3.677100	-11.077000	24.502809	0.001003	20.848861
765.197918	-2.997800	3.678100	-11.025000	24.482612	0.001004	20.856098
766.205799	-3.007600	3.677500	-11.060000	24.508828	0.001004	20.848261
767.202585	-3.000400	3.679100	-11.037000	24.523726	0.001005	20.840924
768.197980	-3.020800	3.676400	-11.103000	24.566060	0.001003	20.858742
769.198908	-2.995100	3.677000	-11.012000	24.581877	0.001005	20.839052
770.202269	-2.979400	3.677600	-10.956000	24.586605	0.001003	20.833838
771.198104	-3.012100	3.675300	-11.069000	24.583197	0.001004	20.857445
772.201355	-2.994800	3.675600	-11.007000	24.620650	0.001004	20.837653
773.203279	-2.993000	3.676300	-11.002000	24.652311	0.001002	20.837655
774.199484	-2.995700	3.675600	-11.009000	24.670590	0.001003	20.845091
775.201663	-2.995700	3.675600	-11.011000	24.681009	0.001001	20.856967
776.199453	-3.018800	3.674900	-11.093000	24.641243	0.001005	20.836980
777.198869	-3.005800	3.673400	-11.041000	24.631793	0.001002	20.829868
778.201232	-2.997700	3.674300	-11.014000	24.621595	0.001003	20.827696
779.199488	-2.993300	3.674500	-10.996000	24.629081	0.001000	20.813397
780.200167	-3.001500	3.672600	-11.022000	24.620352	0.000999	20.801794
781.202440	-3.012800	3.672800	-11.065000	24.635447	0.001002	20.840647
782.198003	-3.002900	3.673700	-11.031000	24.610004	0.001000	20.831239
783.200251	-3.005000	3.673000	-11.037000	24.580208	0.001000	20.833111
784.201215	-3.023000	3.671700	-11.099000	24.578045	0.001001	20.843268
785.203792	-2.995600	3.673000	-11.002000	24.583143	0.000999	20.848383
786.202275	-2.996400	3.672100	-11.001000	24.600553	0.001001	20.829817
787.203254	-2.998200	3.672200	-11.008000	24.616470	0.000999	20.839623
788.203730	-2.995100	3.671300	-10.995000	24.590080	0.000998	20.832585
789.202959	-2.990200	3.672100	-10.979000	24.607542	0.000996	20.841096
790.205512	-3.029700	3.669000	-11.115000	24.579313	0.000998	20.827945
791.205662	-3.007400	3.670900	-11.039000	24.563644	0.000998	20.843516
792.207206	-2.988900	3.671400	-10.971000	24.578514	0.000996	20.838049
793.204958	-2.990100	3.670100	-10.973000	24.607317	0.000998	20.823327
794.208138	-2.994600	3.670400	-10.990000	24.616618	0.000999	20.827444
795.205940	-2.995200	3.670600	-10.994000	24.609903	0.000998	20.818335
796.211906	-3.008500	3.668000	-11.035000	24.615671	0.001000	20.809899
797.205019	-2.973600	3.669700	-10.911000	24.604282	0.000995	20.840196
798.206868	-2.980000	3.669300	-10.934000	24.574634	0.000997	20.830362
799.204703	-2.975600	3.668900	-10.916000	24.600576	0.000995	20.819409
800.207292	-2.985800	3.668400	-10.952000	24.584508	0.000995	20.834580
801.207343	-2.980700	3.667100	-10.930000	24.595851	0.000994	20.811348
802.206070	-2.967200	3.668100	-10.882000	24.611392	0.000994	20.833105
803.207522	-2.992300	3.667400	-10.972000	24.577195	0.000995	20.822501
804.208054	-2.996400	3.669500	-10.993000	24.559960	0.000994	20.842665
805.205898	-3.002000	3.668200	-11.011000	24.526405	0.000994	20.822749
806.207534	-3.010600	3.666900	-11.038000	24.535956	0.000994	20.813841
807.207016	-2.986300	3.667300	-10.951000	24.532748	0.000994	20.822950
808.205277	-2.990600	3.665900	-10.962000	24.556227	0.000995	20.826119
809.207838	-2.986100	3.666800	-10.948000	24.572270	0.000994	20.820404
810.206954	-3.003300	3.664600	-11.005000	24.582814	0.000992	20.817708
811.210814	-2.975100	3.665600	-10.904000	24.575280	0.000989	20.825321
812.207219	-2.996500	3.666000	-10.985000	24.588956	0.000993	20.827663
813.205304	-3.021300	3.664500	-11.071000	24.596370	0.000993	20.807128
814.211938	-3.004300	3.664400	-11.007000	24.578261	0.000991	20.815510
815.211701	-2.996000	3.665100	-10.979000	24.565777	0.000990	20.814838
816.208306	-3.009100	3.663200	-11.021000	24.561226	0.000989	20.815013
817.211977	-3.013300	3.662800	-11.036000	24.563089	0.000992	20.813090
818.207910	-2.997000	3.663700	-10.978000	24.557194	0.000987	20.829933
819.207533	-3.004800	3.662600	-11.003000	24.574754	0.000990	20.793973
820.208220	-2.991000	3.662000	-10.952000	24.566100	0.000987	20.822748
821.214039	-2.996200	3.663100	-10.974000	24.572168	0.000990	20.817931
822.210178	-2.994200	3.662900	-10.966000	24.563462	0.000989	20.803506
823.209766	-3.006300	3.661700	-11.007000	24.588360	0.000990	20.822798
824.212867	-3.009100	3.662100	-11.019000	24.605122	0.000988	20.816858
825.209650	-3.015800	3.660900	-11.039000	24.622881	0.000987	20.824720
826.211779	-2.984100	3.660800	-10.923000	24.620219	0.000988	20.808772
827.212129	-2.998600	3.660600	-10.975000	24.621761	0.000985	20.803208
828.210506	-2.998800	3.659800	-10.974000	24.624197	0.000988	20.786212
829.209157	-2.994900	3.660700	-10.962000	24.601194	0.000987	20.815761
830.212145	-3.017800	3.658900	-11.040000	24.631014	0.000987	20.789733
831.211263	-2.985700	3.659400	-10.924000	24.635590	0.000987	20.823721
832.209532	-3.014100	3.659400	-11.028000	24.623054	0.000986	20.808772
833.219765	-2.991700	3.660500	-10.950000	24.677220	0.000988	20.803855
834.213585	-3.007200	3.658000	-10.999000	24.654241	0.000986	20.808298
835.209925	-2.988500	3.658700	-10.933000	24.677370	0.000986	20.823920
836.212457	-3.017300	3.657400	-11.035000	24.687765	0.000988	20.793574
837.212909	-2.993400	3.657300	-10.947000	24.651829	0.000983	20.795446
838.211630	-2.998800	3.659600	-10.972000	24.632355	0.000986	20.799613
839.213971	-2.995200	3.658300	-10.956000	24.617136	0.000986	20.797144
840.215345	-3.019600	3.656900	-11.041000	24.647603	0.000985	20.808749
841.210798	-3.000900	3.658000	-10.975000	24.640315	0.000982	20.803333
842.212154	-3.000100	3.657600	-10.972000	24.668442	0.000983	20.805004
843.216042	-3.015400	3.656100	-11.024000	24.679982	0.000984	20.805679
844.214264	-3.000900	3.657800	-10.976000	24.721563	0.000984	20.786712
845.215008	-2.997400	3.656000	-10.957000	24.746331	0.000983	20.780273
846.215977	-3.022700	3.655200	-11.047000	24.742180	0.000985	20.802660
847.215138	-2.993800	3.656300	-10.945000	24.763365	0.000984	20.794523
848.216391	-3.001900	3.655000	-10.970000	24.763365	0.000982	20.804006
849.217310	-2.979300	3.655900	-10.891000	24.779802	0.000981	20.783517
850.216406	-2.977100	3.655800	-10.882000	24.799845	0.000983	20.788933
851.221697	-3.000500	3.653600	-10.962000	24.780923	0.000982	20.801712
852.218534	-2.982900	3.654400	-10.900000	24.782687	0.000980	20.786886
853.215542	-2.998800	3.654200	-10.958000	24.753195	0.000979	20.796170
854.216051	-2.990900	3.654000	-10.927000	24.757970	0.000980	20.783892
855.216498	-2.982800	3.655100	-10.900000	24.710447	0.000979	20.786938
856.217112	-3.010700	3.652300	-10.995000	24.706641	0.000979	20.791178
857.219248	-2.979600	3.653700	-10.885000	24.745935	0.000979	20.780350
858.219630	-2.987600	3.653400	-10.914000	24.721265	0.000980	20.783094
859.217232	-2.991500	3.652000	-10.923000	24.744467	0.000979	20.780774
860.217082	-2.991600	3.653100	-10.927000	24.738025	0.000978	20.806552
861.217162	-3.003000	3.650800	-10.963000	24.741805	0.000979	20.803233
862.219703	-2.994000	3.652000	-10.933000	24.725765	0.000980	20.793300
863.217523	-3.008500	3.650900	-10.983000	24.680629	0.000976	20.775508
864.220500	-2.982600	3.651500	-10.890000	24.668542	0.000978	20.795147
865.222014	-3.016700	3.650300	-11.010000	24.692417	0.000975	20.771215
866.220147	-2.980000	3.650900	-10.877000	24.685925	0.000975	20.775606
867.220006	-2.996800	3.649900	-10.937000	24.702813	0.000977	20.792078
868.222946	-2.996600	3.651300	-10.941000	24.719723	0.000975	20.778702
869.220638	-2.987500	3.650400	-10.905000	24.722435	0.000973	20.785216
870.219343	-2.970800	3.649700	-10.842000	24.693860	0.000973	20.775982
871.222661	-3.003200	3.649200	-10.958000	24.724052	0.000975	20.785891
872.220184	-3.019500	3.647100	-11.011000	24.733500	0.000974	20.780674
873.224513	-3.009300	3.649000	-10.980000	24.764189	0.000972	20.775434
874.220707	-2.985800	3.649400	-10.895000	24.736287	0.000972	20.782996
875.227010	-2.997300	3.649100	-10.936000	24.752150	0.000973	20.769043
876.223383	-2.985200	3.649100	-10.891000	24.719698	0.000971	20.781996
877.223185	-2.978500	3.647700	-10.863000	24.723478	0.000971	20.791005
878.222856	-3.018300	3.645900	-11.003000	24.734049	0.000971	20.776009
879.223621	-3.039100	3.645000	-11.076000	24.708012	0.000973	20.766001
880.223582	-3.012900	3.646200	-10.985000	24.718903	0.000971	20.769344
881.223007	-3.018900	3.646400	-11.007000	24.764114	0.000969	20.775833
882.223996	-3.014100	3.645400	-10.987000	24.799672	0.000971	20.798242
883.225937	-3.000500	3.644900	-10.936000	24.795992	0.000973	20.785066
884.225499	-3.021300	3.643400	-11.006000	24.792808	0.000969	20.794673
885.224551	-3.002900	3.643600	-10.939000	24.796689	0.000971	20.793352
886.224523	-2.990900	3.644200	-10.898000	24.755434	0.000971	20.777555
887.226665	-3.001600	3.644400	-10.938000	24.737456	0.000969	20.778954
888.227423	-3.014500	3.644700	-10.985000	24.749989	0.000967	20.770668
889.225966	-3.009100	3.643000	-10.960000	24.778812	0.000969	20.773514
890.225839	-3.007100	3.643600	-10.955000	24.776673	0.000968	20.789860
891.225310	-3.028200	3.642500	-11.029000	24.748572	0.000968	20.774461
892.225594	-2.985500	3.643900	-10.879000	24.722014	0.000974	20.773414
893.227174	-2.992800	3.641700	-10.897000	24.736686	0.000965	20.772491
894.226114	-3.023700	3.641300	-11.009000	24.739049	0.000967	20.752102
895.226451	-2.990700	3.641500	-10.890000	24.769735	0.000968	20.756818
896.226593	-3.008600	3.641000	-10.953000	24.775207	0.000965	20.759939
897.227286	-3.004500	3.640900	-10.938000	24.811065	0.000967	20.762260
898.228567	-3.036300	3.640100	-11.051000	24.811391	0.000967	20.758794
899.227036	-3.030200	3.640100	-11.030000	24.811615	0.000965	20.773718
900.226613	-3.006100	3.639300	-10.940000	24.766879	0.000965	20.765332
901.229105	-3.011000	3.640500	-10.961000	24.746189	0.000964	20.764958
902.227768	-3.003400	3.640200	-10.932000	24.717715	0.000966	20.771471
903.231809	-3.017300	3.640200	-10.982000	24.729554	0.000967	20.776713
904.228391	-2.992300	3.641900	-10.897000	24.718663	0.000964	20.770526
905.229227	-3.012100	3.639800	-10.962000	24.701131	0.000965	20.755777
906.229208	-3.020200	3.637800	-10.986000	24.730650	0.000964	20.758847
907.231760	-3.003700	3.638200	-10.926000	24.763227	0.000962	20.772573
908.231223	-3.013600	3.638200	-10.964000	24.784315	0.000961	20.762916
909.232767	-2.998300	3.639200	-10.910000	24.814505	0.000964	20.773773
910.232908	-3.023500	3.638300	-10.999000	24.823557	0.000960	20.761994
911.232510	-3.008200	3.637300	-10.941000	24.861577	0.000962	20.774548
912.234243	-2.996200	3.637700	-10.898000	24.889600	0.000961	20.771853
913.234049	-3.019800	3.636300	-10.978000	24.904816	0.000961	20.761520
914.235882	-2.996700	3.637700	-10.900000	24.901163	0.000959	20.751690
915.234300	-3.008600	3.635400	-10.937000	24.873614	0.000963	20.757705
916.234282	-3.004400	3.635800	-10.922000	24.879683	0.000961	20.761425
917.234465	-2.990300	3.635700	-10.870000	24.881772	0.000960	20.753090
918.237825	-3.007200	3.635100	-10.930000	24.899402	0.000961	20.763672
919.238157	-2.975500	3.636100	-10.817000	24.911984	0.000959	20.761602
920.243771	-3.001500	3.636000	-10.911000	24.919245	0.000957	20.759407
921.236551	-2.994100	3.636500	-10.887000	24.953110	0.000958	20.769690
922.238618	-3.017400	3.635300	-10.968000	24.934016	0.000959	20.752895
923.240784	-3.009600	3.633300	-10.934000	24.961415	0.000956	20.750524
924.240364	-2.982300	3.635000	-10.838000	24.959601	0.000956	20.758660
925.237540	-3.003200	3.633100	-10.908000	24.954033	0.000958	20.758288
926.240595	-3.011700	3.631900	-10.937000	24.945605	0.000956	20.739396
927.237647	-2.996300	3.632500	-10.884000	24.947422	0.000956	20.745487
928.239067	-2.999500	3.633100	-10.897000	24.942052	0.000956	20.765703
929.238785	-2.999200	3.633100	-10.896000	24.940337	0.000957	20.753550
930.240805	-3.011900	3.633400	-10.941000	24.929896	0.000954	20.739277
931.241413	-2.991000	3.632600	-10.864000	24.882330	0.000955	20.762659
932.239978	-2.988000	3.632600	-10.853000	24.854657	0.000956	20.765707
933.242466	-3.002300	3.630400	-10.898000	24.829691	0.000957	20.774789
934.241057	-2.993300	3.630900	-10.866000	24.799404	0.000955	20.774739
935.239523	-3.024800	3.631000	-10.982000	24.791274	0.000953	20.758993
936.248264	-2.990800	3.630100	-10.856000	24.808979	0.000955	20.747838
937.242293	-3.001500	3.631200	-10.898000	24.848888	0.000950	20.769874
938.240991	-2.999300	3.630400	-10.888000	24.854732	0.000952	20.761988
939.244829	-2.997500	3.629500	-10.878000	24.866395	0.000951	20.774642
940.241846	-2.977800	3.628600	-10.803000	24.870522	0.000950	20.765508
941.239850	-3.007900	3.628100	-10.912000	24.923184	0.000952	20.756248
942.247055	-3.018500	3.627500	-10.949000	24.954812	0.000950	20.768553
943.241852	-3.002300	3.628800	-10.894000	24.946484	0.000951	20.748814
944.242471	-3.026700	3.626800	-10.976000	24.955064	0.000949	20.758848
945.241410	-3.003300	3.628300	-10.897000	25.000313	0.000952	20.745945
946.243050	-2.978100	3.628700	-10.806000	25.006999	0.000951	20.743648
947.243290	-3.003900	3.627500	-10.896000	25.011949	0.000947	20.756204
948.242946	-3.000400	3.625700	-10.877000	25.015703	0.000948	20.766136
949.243278	-3.007800	3.627700	-10.910000	25.038079	0.000949	20.750190
950.243565	-2.985300	3.627800	-10.829000	25.045912	0.000949	20.760423
951.243151	-3.000600	3.627100	-10.882000	25.043650	0.000947	20.760523
952.245005	-2.997000	3.626200	-10.867000	25.060754	0.000948	20.739285
953.242661	-3.018900	3.625300	-10.943000	25.061847	0.000949	20.774997
954.245383	-3.006200	3.626200	-10.899000	25.080169	0.000947	20.765413
955.245165	-3.004800	3.624900	-10.890000	25.077386	0.000945	20.756456
956.248826	-3.010200	3.623900	-10.907000	25.077859	0.000948	20.764991
957.252059	-3.016700	3.623700	-10.930000	25.060009	0.000945	20.766039
958.246632	-2.984800	3.624700	-10.818000	25.076889	0.000946	20.741731
959.249523	-2.971800	3.626100	-10.774000	25.068314	0.000944	20.755883
960.254595	-2.982200	3.623500	-10.806000	25.086487	0.000943	20.753264
961.247319	-3.001900	3.623700	-10.876000	25.100510	0.000945	20.772082
962.249830	-3.006000	3.622900	-10.890000	25.101454	0.000944	20.777772
963.253227	-2.994100	3.624100	-10.850000	25.119278	0.000944	20.751567
964.247691	-3.007200	3.623400	-10.895000	25.142222	0.000943	20.761799
965.247398	-3.015500	3.621300	-10.918000	25.115077	0.000939	20.757308
966.250452	-3.016300	3.621800	-10.923000	25.082983	0.000941	20.775351
967.247104	-3.027800	3.622300	-10.966000	25.060833	0.000943	20.766392
968.249504	-2.997700	3.621600	-10.855000	25.003377	0.000942	20.771307
969.248705	-2.977900	3.620700	-10.780000	24.989580	0.000942	20.762200
970.250065	-2.961300	3.623100	-10.728000	24.958477	0.000942	20.755162
971.252234	-2.990800	3.621100	-10.830000	24.925832	0.000941	20.781191
972.250301	-2.993500	3.620700	-10.836000	24.891222	0.000942	20.765420
973.250491	-2.992200	3.621700	-10.835000	24.858774	0.000939	20.761777
974.252882	-2.993700	3.622100	-10.843000	24.900621	0.000942	20.762525
975.253174	-2.989500	3.620000	-10.820000	24.913948	0.000941	20.774005
976.252565	-2.992800	3.619500	-10.832000	24.901963	0.000938	20.754389
977.253293	-3.000200	3.619200	-10.858000	24.892440	0.000938	20.782290
978.253224	-2.986800	3.619200	-10.808000	24.887788	0.000939	20.771932
979.251842	-2.993600	3.619100	-10.833000	24.877894	0.000934	20.785235
980.254579	-2.994100	3.618600	-10.834000	24.857232	0.000937	20.768765
981.254713	-2.993600	3.618400	-10.831000	24.883613	0.000935	20.798561
982.254273	-3.012900	3.616800	-10.896000	24.936027	0.000937	20.777199
983.253487	-2.995800	3.617700	-10.838000	24.942218	0.000936	20.758283
984.255691	-3.013500	3.616100	-10.896000	24.908379	0.000937	20.776951
985.254464	-3.031600	3.615200	-10.959000	24.887318	0.000935	20.747277
986.254186	-2.984700	3.617700	-10.796000	24.866481	0.000936	20.757658
987.257059	-2.980900	3.616300	-10.779000	24.844599	0.000936	20.765569
988.255281	-3.002100	3.615100	-10.852000	24.829356	0.000935	20.763073
989.255083	-3.014700	3.615300	-10.898000	24.833312	0.000933	20.782216
990.255497	-3.010300	3.613400	-10.875000	24.855242	0.000932	20.776251
991.254979	-2.983800	3.616100	-10.789000	24.886024	0.000934	20.772057
992.254812	-3.008400	3.614800	-10.874000	24.904200	0.000933	20.763273
993.256477	-3.011900	3.613700	-10.884000	24.902858	0.000932	20.782789
994.259484	-2.990000	3.615000	-10.808000	24.901911	0.000932	20.765717
995.258082	-2.994100	3.615200	-10.823000	24.919665	0.000930	20.770260
996.255898	-2.985100	3.613100	-10.784000	24.901316	0.000931	20.774603
997.261625	-2.996600	3.614300	-10.830000	24.871107	0.000931	20.770837
998.258626	-3.002500	3.612700	-10.845000	24.887541	0.000930	20.781640
999.258397	-2.999300	3.614100	-10.839000	24.864293	0.000930	20.782016
1000.262978	-2.992400	3.612500	-10.809000	24.915563	0.000931	20.790325
1001.258862	-3.004400	3.610400	-10.846000	24.924739	0.000927	20.774404
1002.261881	-2.993800	3.613100	-10.816000	24.965938	0.000926	20.780195
1003.265353	-2.996800	3.610600	-10.818000	25.004896	0.000930	20.768090
1004.263518	-2.998400	3.611000	-10.826000	25.020807	0.000926	20.796389
1005.264786	-2.991400	3.610300	-10.799000	25.034010	0.000927	20.792099
1006.267142	-3.008400	3.608900	-10.856000	25.073191	0.000927	20.796815
1007.266094	-2.990400	3.611200	-10.798000	25.041168	0.000927	20.779370
1008.264441	-3.006800	3.610200	-10.854000	25.040571	0.000925	20.788728
1009.270927	-3.013200	3.609500	-10.875000	25.020484	0.000925	20.787531
1010.265171	-3.009500	3.609700	-10.862000	25.038709	0.000925	20.794918
1011.265178	-3.028600	3.607600	-10.925000	25.079131	0.000924	20.790925
1012.263935	-3.020700	3.607200	-10.895000	25.095216	0.000926	20.780993
1013.265197	-3.021900	3.607500	-10.901000	25.060587	0.000925	20.760455
1014.266842	-3.018400	3.608300	-10.890000	25.042338	0.000924	20.779595
1015.265397	-2.981100	3.609400	-10.758000	25.006810	0.000922	20.788978
1016.266868	-2.998400	3.607200	-10.815000	25.003853	0.000922	20.789329
1017.265339	-3.002900	3.606300	-10.827000	25.005493	0.000922	20.781966
1018.266795	-2.987300	3.607500	-10.774000	25.007457	0.000921	20.797688
1019.268464	-3.016200	3.605500	-10.874000	25.019169	0.000919	20.783365
1020.271720	-3.012400	3.605800	-10.859000	25.049275	0.000924	20.779447
1021.265214	-3.009700	3.605400	-10.850000	25.033814	0.000919	20.793798
1022.269053	-2.972100	3.607400	-10.720000	25.036272	0.000921	20.781567
1023.268378	-2.998200	3.604500	-10.806000	25.034782	0.000919	20.787658
1024.268001	-2.995600	3.604600	-10.797000	24.985505	0.000923	20.802206
1025.268894	-3.000400	3.604900	-10.815000	25.019169	0.000917	20.795219
1026.267824	-3.023000	3.603900	-10.894000	25.051862	0.000918	20.780620
1027.270346	-3.011900	3.603700	-10.853000	25.042190	0.000918	20.810267
1028.268934	-3.010700	3.603000	-10.847000	25.051514	0.000916	20.807298
1029.273574	-3.005000	3.602600	-10.825000	25.022400	0.000916	20.809843
1030.274184	-3.008100	3.603100	-10.837000	24.994331	0.000916	20.798737
1031.270794	-3.012500	3.601200	-10.847000	24.994732	0.000916	20.796294
1032.271311	-2.990800	3.603300	-10.776000	24.984263	0.000916	20.788157
1033.272354	-3.016600	3.600700	-10.860000	24.955844	0.000914	20.790452
1034.272362	-3.008700	3.600800	-10.833000	24.985281	0.000915	20.805774
1035.274322	-2.982200	3.603000	-10.744000	25.012381	0.000913	20.805475
1036.272866	-3.001000	3.600800	-10.805000	25.003805	0.000916	20.812988
1037.272821	-2.970900	3.601700	-10.699000	25.009746	0.000914	20.808520
1038.272206	-2.999300	3.600600	-10.798000	25.014818	0.000916	20.785162
1039.273872	-2.990500	3.601900	-10.770000	25.020311	0.000912	20.812487
1040.272358	-3.006500	3.599200	-10.819000	25.012680	0.000912	20.812414
1041.271828	-3.011600	3.599300	-10.839000	25.029784	0.000913	20.812512
1042.275614	-2.995100	3.599100	-10.779000	25.041742	0.000911	20.798912
1043.272323	-2.989300	3.599200	-10.757000	25.053427	0.000912	20.802580
1044.271820	-2.980000	3.600000	-10.728000	25.091788	0.000911	20.808372
1045.275704	-2.984200	3.599400	-10.740000	25.111924	0.000909	20.813412
1046.276288	-2.987100	3.598700	-10.749000	25.094995	0.000910	20.833875
1047.272776	-2.993700	3.598300	-10.771000	25.094993	0.000909	20.812063
1048.273071	-2.983800	3.599000	-10.738000	25.076821	0.000909	20.817055
1049.272379	-3.000800	3.598100	-10.796000	25.100538	0.000909	20.812414
1050.273199	-3.028100	3.597900	-10.893000	25.109240	0.000910	20.803131
1051.274934	-2.978000	3.595900	-10.707000	25.124454	0.000909	20.806550
1052.274469	-3.008100	3.595100	-10.814000	25.117991	0.000908	20.826615
1053.275542	-2.980700	3.596600	-10.719000	25.117842	0.000905	20.835473
1054.276414	-2.994100	3.596500	-10.768000	25.141210	0.000907	20.814836
1055.277906	-3.009300	3.595200	-10.817000	25.160077	0.000906	20.836622
1056.275078	-2.994100	3.596000	-10.765000	25.210986	0.000907	20.802857
1057.274227	-3.007200	3.594100	-10.807000	25.197389	0.000904	20.804854
1058.277192	-3.009900	3.594400	-10.818000	25.187197	0.000905	20.824493
1059.279255	-3.005700	3.592900	-10.798000	25.155155	0.000900	20.813188
1060.277187	-2.972600	3.596200	-10.688000	25.123957	0.000903	20.798939
1061.279651	-2.998200	3.593100	-10.771000	25.120675	0.000903	20.835473
1062.277886	-3.008300	3.593400	-10.809000	25.133254	0.000905	20.818703
1063.277610	-2.999200	3.592700	-10.774000	25.117792	0.000900	20.827363
1064.287919	-2.990100	3.593100	-10.743000	25.115157	0.000901	20.810968
1065.279281	-2.993100	3.593400	-10.753000	25.096588	0.000900	20.826466
1066.278354	-2.998900	3.592900	-10.775000	25.101410	0.000903	20.826091
1067.283363	-3.024500	3.591000	-10.860000	25.112024	0.000902	20.813986
1068.280383	-2.994800	3.592000	-10.756000	25.127213	0.000899	20.834450
1069.281848	-2.995200	3.591400	-10.756000	25.099495	0.000898	20.829385
1070.281997	-3.023800	3.590000	-10.854000	25.090124	0.000898	20.813339
1071.286437	-2.996600	3.591600	-10.762000	25.070856	0.000901	20.840463
1072.282004	-3.003300	3.590700	-10.783000	25.052956	0.000898	20.833401
1073.280725	-3.007500	3.590300	-10.797000	25.030310	0.000899	20.830583
1074.282714	-3.001100	3.589600	-10.771000	25.024516	0.000899	20.835674
1075.282590	-3.023000	3.588200	-10.846000	25.061658	0.000898	20.817955
1076.284314	-3.008600	3.588700	-10.795000	25.101062	0.000897	20.855612
1077.284174	-3.031600	3.587700	-10.875000	25.115480	0.000894	20.816033
1078.285589	-3.019300	3.588600	-10.834000	25.126992	0.000895	20.829487
1079.283175	-3.008800	3.587900	-10.795000	25.142504	0.000892	20.820877
1080.292991	-3.008100	3.586100	-10.787000	25.213919	0.000894	20.840889
1081.285607	-2.993800	3.587000	-10.737000	25.169573	0.000894	20.835724
1082.285853	-3.010600	3.586900	-10.798000	25.185159	0.000892	20.830508
1083.287626	-3.001600	3.585800	-10.762000	25.189088	0.000894	20.838719
1084.288418	-3.011400	3.585200	-10.795000	25.195577	0.000891	20.848078
1085.286227	-3.008700	3.586000	-10.788000	25.217899	0.000894	20.838721
1086.287119	-3.002600	3.585400	-10.765000	25.226425	0.000893	20.845858
1087.289006	-2.985400	3.587600	-10.708000	25.257770	0.000892	20.843662
1088.288071	-3.034000	3.582900	-10.869000	25.293139	0.000891	20.844561
1089.287971	-3.003200	3.584900	-10.764000	25.301267	0.000890	20.843238
1090.290243	-3.023600	3.584200	-10.836000	25.305965	0.000890	20.838946
1091.289828	-3.006100	3.584500	-10.774000	25.304824	0.000891	20.832586
1092.287936	-2.991000	3.584800	-10.721000	25.264159	0.000889	20.832534
1093.291125	-2.966300	3.585200	-10.634000	25.263141	0.000889	20.850477
1094.296811	-3.015800	3.583200	-10.805000	25.249470	0.000886	20.839597
1095.290931	-3.012200	3.583000	-10.791000	25.267866	0.000886	20.851428
1096.292562	-2.996600	3.583700	-10.737000	25.275792	0.000888	20.843739
1097.291251	-3.019400	3.583300	-10.818000	25.275222	0.000887	20.850279
1098.291805	-3.006000	3.581700	-10.765000	25.337161	0.000885	20.861259
1099.290269	-3.002600	3.583200	-10.758000	25.354434	0.000885	20.856317
1100.295313	-3.017900	3.581500	-10.806000	25.360298	0.000888	20.863628
1101.291543	-3.002700	3.580100	-10.749000	25.380830	0.000884	20.844416
1102.291741	-3.009400	3.581900	-10.778000	25.397357	0.000883	20.850579
1103.288379	-2.995700	3.582400	-10.731000	25.413387	0.000884	20.845813
1104.290660	-3.027300	3.579400	-10.834000	25.393008	0.000883	20.857117
1105.290466	-2.998000	3.580800	-10.734000	25.413512	0.000883	20.856369
1106.295444	-3.015300	3.580000	-10.793000	25.399693	0.000884	20.860037
1107.293747	-3.007500	3.580700	-10.767000	25.405657	0.000882	20.856069
1108.291925	-2.980900	3.579900	-10.670000	25.386299	0.000883	20.866027
1109.298631	-2.991200	3.579000	-10.703000	25.360774	0.000879	20.880226
1110.294470	-3.001800	3.578200	-10.740000	25.318894	0.000883	20.854771
1111.292581	-2.982400	3.577900	-10.669000	25.293394	0.000881	20.866152
1112.292373	-2.996000	3.577900	-10.718000	25.264362	0.000879	20.879676
1113.294016	-3.009000	3.577800	-10.764000	25.252183	0.000880	20.861286
1114.293619	-3.000800	3.578300	-10.737000	25.274704	0.000878	20.862086
1115.293775	-2.993800	3.576900	-10.707000	25.291257	0.000878	20.872541
1116.296595	-3.022600	3.576300	-10.808000	25.295208	0.000878	20.861810
1117.294286	-3.036400	3.574700	-10.853000	25.312858	0.000875	20.867203
1118.298834	-3.016100	3.574200	-10.778000	25.307016	0.000877	20.872243
1119.294869	-3.002600	3.576600	-10.738000	25.345193	0.000878	20.884969
1120.295830	-2.999100	3.574900	-10.720000	25.369575	0.000876	20.885269
1121.294589	-2.999300	3.575100	-10.722000	25.396269	0.000877	20.884098
1122.293882	-2.997000	3.574800	-10.712000	25.383546	0.000875	20.892659
1123.296803	-2.984900	3.573300	-10.665000	25.379941	0.000877	20.889513
1124.294746	-3.002100	3.572800	-10.725000	25.358121	0.000874	20.868554
1125.297445	-3.000700	3.573400	-10.722000	25.347532	0.000876	20.880680
1126.299357	-2.994600	3.573400	-10.700000	25.335677	0.000873	20.884423
1127.297113	-2.999100	3.573300	-10.716000	25.329540	0.000874	20.883951
1128.300835	-2.991300	3.572400	-10.685000	25.318181	0.000873	20.889615
1129.300061	-2.997900	3.573400	-10.712000	25.319550	0.000872	20.883404
1130.299027	-3.014400	3.571700	-10.765000	25.301182	0.000874	20.879661
1131.299118	-2.973700	3.572100	-10.621000	25.281870	0.000873	20.883030
1132.301175	-2.994200	3.570800	-10.691000	25.250105	0.000871	20.887647
1133.303174	-3.009500	3.569700	-10.741000	25.312071	0.000870	20.892489
1134.300927	-3.006500	3.569500	-10.730000	25.360685	0.000871	20.878240
1135.307223	-3.018500	3.571200	-10.778000	25.373063	0.000867	20.888771
1136.302732	-3.024100	3.570800	-10.796000	25.376194	0.000870	20.885277
1137.300608	-2.987900	3.571200	-10.669000	25.397768	0.000871	20.896981
1138.309058	-3.002400	3.568800	-10.714000	25.389143	0.000869	20.900649
1139.305985	-2.996300	3.570200	-10.696000	25.364192	0.000865	20.887925
1140.301194	-3.009000	3.569800	-10.741000	25.307177	0.000868	20.903696
1141.302109	-2.991600	3.570000	-10.680000	25.299520	0.000866	20.907387
1142.304512	-3.005400	3.568700	-10.724000	25.268328	0.000866	20.906415
1143.303409	-2.988900	3.567400	-10.662000	25.253465	0.000865	20.900502
1144.304943	-3.000600	3.568600	-10.706000	25.231915	0.000865	20.884084
1145.310927	-2.975600	3.570100	-10.622000	25.210140	0.000863	20.910110
1146.305863	-3.013200	3.568300	-10.749000	25.226570	0.000865	20.910484
1147.303342	-3.013800	3.566200	-10.745000	25.220680	0.000862	20.875176
1148.307394	-3.001400	3.567500	-10.707000	25.253540	0.000866	20.912430
1149.303748	-3.010200	3.565000	-10.731000	25.273872	0.000862	20.894913
1150.305454	-2.992400	3.566000	-10.669000	25.313641	0.000862	20.877945
1151.306459	-2.992100	3.565000	-10.665000	25.315754	0.000861	20.908514
1152.305622	-3.005800	3.565000	-10.713000	25.331785	0.000862	20.895214
1153.306269	-3.007200	3.564200	-10.717000	25.356092	0.000860	20.911557
1154.306541	-2.983900	3.565100	-10.636000	25.392800	0.000861	20.904320
1155.309662	-3.017900	3.563500	-10.753000	25.385145	0.000861	20.920814
1156.309504	-3.007600	3.562700	-10.713000	25.387406	0.000857	20.902223
1157.308736	-2.993700	3.562900	-10.665000	25.413951	0.000860	20.923660
1158.310155	-2.977100	3.564700	-10.610000	25.474590	0.000860	20.922438
1159.307848	-2.999000	3.562800	-10.683000	25.488605	0.000859	20.915651
1160.312395	-3.001800	3.561800	-10.691000	25.486840	0.000858	20.917670
1161.311133	-2.978600	3.565200	-10.617000	25.490615	0.000859	20.934736
1162.310759	-3.002900	3.563700	-10.699000	25.445812	0.000858	20.937160
1163.309411	-2.996200	3.562600	-10.674000	25.450407	0.000854	20.914751
1164.311265	-2.993000	3.562100	-10.661000	25.478838	0.000857	20.937134
1165.313435	-2.996400	3.562800	-10.674000	25.476726	0.000853	20.937384
1166.311950	-2.997100	3.562000	-10.675000	25.519916	0.000855	20.912954
1167.309611	-3.008000	3.560600	-10.709000	25.535844	0.000858	20.911407
1168.315347	-3.007500	3.559900	-10.705000	25.555651	0.000853	20.938407
1169.311042	-3.013700	3.559000	-10.725000	25.549214	0.000853	20.911083
1170.309724	-3.002000	3.559600	-10.685000	25.543596	0.000852	20.913028
1171.313855	-3.012800	3.559400	-10.723000	25.560568	0.000855	20.908262
1172.314326	-2.997100	3.559400	-10.668000	25.575826	0.000853	20.911731
1173.313048	-2.978800	3.560300	-10.604000	25.601495	0.000852	20.928500
1174.313311	-2.998100	3.559100	-10.669000	25.610143	0.000850	20.931969
1175.312358	-3.004800	3.558000	-10.690000	25.625623	0.000850	20.918119
1176.313962	-2.993200	3.557700	-10.647000	25.637947	0.000848	20.917695
1177.312770	-3.015000	3.558000	-10.727000	25.636208	0.000847	20.906941
1178.312496	-2.982800	3.558300	-10.612000	25.649130	0.000849	20.916125
1179.317238	-3.018600	3.555600	-10.732000	25.626170	0.000848	20.919143
1180.313727	-3.008300	3.555800	-10.696000	25.609398	0.000847	20.921265
1181.313998	-2.997000	3.556200	-10.656000	25.588575	0.000848	20.922637
1182.313855	-2.999600	3.555800	-10.665000	25.584326	0.000844	20.925007
1183.313855	-2.995700	3.555400	-10.649000	25.576127	0.000845	20.899706
1184.316734	-3.005300	3.553800	-10.679000	25.602293	0.000843	20.929301
1185.314690	-3.001700	3.554600	-10.668000	25.598789	0.000847	20.918671
1186.314539	-2.990200	3.556400	-10.632000	25.590838	0.000843	20.914953
1187.314245	-3.000300	3.554600	-10.664000	25.582414	0.000844	20.891323
1188.319527	-2.989100	3.554200	-10.623000	25.625553	0.000842	20.882017
1189.315872	-3.016600	3.552600	-10.716000	25.570911	0.000843	20.901580
1190.316257	-2.987700	3.553400	-10.615000	25.583211	0.000839	20.900656
1191.317700	-2.989900	3.554300	-10.626000	25.588404	0.000843	20.898286
1192.315312	-3.001200	3.553400	-10.663000	25.590368	0.000840	20.902628
1193.317347	-2.973100	3.552600	-10.561000	25.555380	0.000840	20.894518
1194.316282	-2.995100	3.551300	-10.635000	25.535378	0.000838	20.887233
1195.319122	-2.999600	3.550200	-10.648000	25.504910	0.000838	20.896465
1196.318053	-2.998800	3.550800	-10.647000	25.497156	0.000835	20.878248
1197.320438	-2.997400	3.551300	-10.643000	25.508688	0.000838	20.917799
1198.326023	-2.990900	3.550500	-10.619000	25.507346	0.000838	20.897962
1199.321805	-3.011700	3.549000	-10.686000	25.508215	0.000836	20.915903
1200.322672	-2.999300	3.550300	-10.647000	25.504636	0.000836	20.909464
1201.320987	-3.004000	3.550700	-10.665000	25.551133	0.000836	20.883615
1202.321066	-2.988900	3.550200	-10.610000	25.565667	0.000836	20.896314
1203.321918	-3.010500	3.549700	-10.685000	25.582963	0.000833	20.903727
1204.321431	-3.011900	3.549300	-10.689000	25.596902	0.000834	20.893545
1205.322210	-3.001100	3.549300	-10.650000	25.617054	0.000835	20.911885
1206.320247	-2.991600	3.549000	-10.616000	25.632733	0.000835	20.890176
1207.320372	-2.990400	3.547200	-10.605000	25.614718	0.000831	20.882989
1208.320677	-3.021200	3.549200	-10.720000	25.605748	0.000834	20.880144
1209.319201	-2.982200	3.547800	-10.578000	25.612160	0.000836	20.871886
1210.323055	-3.010500	3.546100	-10.674000	25.592653	0.000832	20.877425
1211.326009	-2.997400	3.546700	-10.629000	25.561815	0.000831	20.891024
1212.321855	-2.987400	3.546200	-10.593000	25.549690	0.000832	20.887855
1213.322621	-2.989600	3.546200	-10.600000	25.524094	0.000829	20.875428
1214.328110	-2.973200	3.546700	-10.544000	25.499790	0.000831	20.893693
1215.323059	-2.999400	3.544300	-10.630000	25.474866	0.000829	20.880046
1216.321543	-2.983000	3.545400	-10.575000	25.455482	0.000828	20.889503
1217.327031	-3.001000	3.544700	-10.636000	25.478867	0.000828	20.864149
1218.324150	-2.990600	3.544200	-10.598000	25.408983	0.000828	20.877425
1219.323924	-2.990800	3.544100	-10.598000	25.419469	0.000827	20.868515
1220.324379	-2.980500	3.544600	-10.564000	25.424466	0.000826	20.865946
1221.323319	-2.979700	3.545300	-10.563000	25.395462	0.000828	20.874279
1222.323190	-3.003800	3.543100	-10.642000	25.395414	0.000827	20.879921
1223.323949	-2.975800	3.543900	-10.544000	25.377545	0.000826	20.866720
1224.326369	-2.996100	3.542300	-10.611000	25.357737	0.000823	20.866271
1225.325494	-2.990400	3.542000	-10.591000	25.325750	0.000826	20.863552
1226.328129	-2.995600	3.541900	-10.610000	25.346081	0.000824	20.864999
1227.327189	-3.001200	3.541400	-10.627000	25.337481	0.000824	20.871537
1228.327654	-3.004100	3.541500	-10.638000	25.378042	0.000823	20.856315
1229.327483	-2.993000	3.542300	-10.601000	25.413980	0.000821	20.861580
1230.333575	-3.024400	3.540100	-10.705000	25.433687	0.000820	20.874730
1231.333512	-2.994800	3.540300	-10.602000	25.439453	0.000821	20.853969
1232.326891	-3.012200	3.539500	-10.660000	25.489081	0.000821	20.866821
1233.332921	-2.974300	3.541500	-10.533000	25.502799	0.000822	20.865423
1234.329311	-3.017700	3.538400	-10.675000	25.492759	0.000820	20.856764
1235.329033	-2.985400	3.540900	-10.570000	25.521908	0.000819	20.839570
1236.329471	-3.023400	3.538700	-10.697000	25.512043	0.000821	20.866171
1237.330608	-3.004800	3.537900	-10.630000	25.521534	0.000817	20.863849
1238.329990	-3.006100	3.538700	-10.636000	25.478444	0.000817	20.861829
1239.329544	-2.992900	3.538500	-10.588000	25.456077	0.000817	20.873506
1240.333419	-3.016200	3.538700	-10.672000	25.470987	0.000814	20.861453
1241.331360	-3.006600	3.536400	-10.632000	25.476406	0.000816	20.877324
1242.330956	-3.001300	3.536800	-10.614000	25.455431	0.000813	20.844409
1243.333481	-3.001500	3.537200	-10.616000	25.455156	0.000813	20.855987
1244.334902	-2.997400	3.535900	-10.597000	25.453442	0.000814	20.854266
1245.332519	-2.989500	3.535500	-10.567000	25.471607	0.000812	20.857808
1246.337342	-2.999100	3.534100	-10.598000	25.506425	0.000813	20.846306
1247.337987	-2.988000	3.535500	-10.562000	25.505329	0.000812	20.837619
1248.333747	-2.979800	3.536200	-10.536000	25.518029	0.000811	20.863648
1249.336210	-3.003000	3.535500	-10.616000	25.510745	0.000810	20.866291
1250.335295	-2.980900	3.533500	-10.531000	25.515269	0.000810	20.852342
1251.333491	-2.983100	3.534000	-10.541000	25.491139	0.000811	20.840913
1252.333927	-2.994000	3.534500	-10.581000	25.503538	0.000809	20.848623
1253.333396	-2.993600	3.533100	-10.576000	25.488181	0.000809	20.853589
1254.333154	-2.990600	3.534200	-10.569000	25.463751	0.000810	20.864618
1255.334855	-3.006500	3.533400	-10.623000	25.483832	0.000809	20.841162
1256.338025	-2.990400	3.533200	-10.565000	25.437037	0.000808	20.839215
1257.335829	-3.002300	3.531100	-10.600000	25.411339	0.000808	20.845178
1258.336267	-2.991900	3.532400	-10.567000	25.398764	0.000807	20.843931
1259.337350	-2.989900	3.531900	-10.559000	25.373537	0.000807	20.844205
1260.335816	-2.999600	3.530300	-10.588000	25.390239	0.000807	20.846277
1261.335892	-3.018900	3.531100	-10.660000	25.407336	0.000805	20.844005
1262.341139	-3.037500	3.529900	-10.721000	25.427741	0.000808	20.833200
1263.336838	-2.986700	3.531300	-10.546000	25.408780	0.000805	20.853040
1264.337487	-3.004300	3.530200	-10.605000	25.430226	0.000807	20.849920
1265.338526	-3.032000	3.528100	-10.696000	25.418176	0.000804	20.837345
1266.340779	-3.005400	3.528800	-10.604000	25.464348	0.000804	20.841985
1267.340312	-3.019900	3.527200	-10.651000	25.476849	0.000805	20.839365
1268.338557	-3.008500	3.527900	-10.613000	25.497177	0.000804	20.835123
1269.339705	-3.004300	3.528600	-10.599000	25.486915	0.000804	20.840938
1270.348865	-3.003300	3.526800	-10.591000	25.503490	0.000802	20.865169
1271.338696	-2.980400	3.527800	-10.512000	25.518749	0.000803	20.834501
1272.343064	-2.988200	3.527800	-10.540000	25.537633	0.000800	20.836395
1273.340178	-3.014600	3.526000	-10.628000	25.603458	0.000799	20.844182
1274.340201	-2.987200	3.527300	-10.536000	25.613522	0.000801	20.849548
1275.342602	-3.011100	3.526100	-10.614000	25.589345	0.000802	20.831430
1276.340261	-3.002700	3.525700	-10.586000	25.610366	0.000797	20.855386
1277.341753	-2.996300	3.525400	-10.563000	25.604153	0.000797	20.851517
1278.341942	-3.024300	3.523700	-10.655000	25.615683	0.000798	20.832753
1279.340798	-2.998900	3.524600	-10.569000	25.646942	0.000796	20.846603
1280.341394	-3.001800	3.524100	-10.577000	25.670942	0.000797	20.828034
1281.342111	-3.024400	3.523100	-10.653000	25.671863	0.000795	20.840339
1282.345265	-3.002300	3.522900	-10.576000	25.639686	0.000798	20.839789
1283.348198	-2.989800	3.522300	-10.530000	25.641325	0.000792	20.847125
1284.343723	-2.989900	3.523900	-10.534000	25.603606	0.000793	20.851916
1285.344281	-3.002400	3.521100	-10.571000	25.626417	0.000793	20.836420
1286.345249	-2.980200	3.522100	-10.495000	25.599457	0.000795	20.839215
1287.343577	-2.985500	3.522400	-10.514000	25.596077	0.000793	20.823493
1288.343956	-3.011800	3.521300	-10.605000	25.631336	0.000793	20.846102
1289.344880	-2.984300	3.522000	-10.509000	25.631236	0.000792	20.859751
1290.343648	-2.972600	3.520100	-10.462000	25.637970	0.000792	20.827635
1291.344166	-2.997700	3.521100	-10.553000	25.600576	0.000790	20.821373
1292.346861	-3.009400	3.519900	-10.591000	25.612876	0.000790	20.834200
1293.345682	-3.009300	3.518600	-10.587000	25.579154	0.000789	20.827834
1294.346190	-2.986700	3.519200	-10.509000	25.550356	0.000790	20.848224
1295.347517	-3.013700	3.518800	-10.603000	25.582386	0.000787	20.830131
1296.348115	-2.990100	3.519200	-10.522000	25.587257	0.000788	20.829333
1297.345312	-2.993700	3.519600	-10.535000	25.614415	0.000789	20.833849
1298.348169	-3.030400	3.517200	-10.657000	25.606562	0.000787	20.816479
1299.348279	-2.978800	3.517700	-10.478000	25.656209	0.000786	20.833626
1300.346965	-2.968100	3.518200	-10.442000	25.626093	0.000787	20.830879
1301.347941	-2.981500	3.517900	-10.488000	25.586858	0.000788	20.815656
1302.348616	-2.998000	3.515600	-10.539000	25.581764	0.000784	20.801532
1303.348899	-3.002900	3.517600	-10.562000	25.585689	0.000788	20.823491
1304.348938	-2.986600	3.515900	-10.500000	25.572222	0.000786	20.843157
1305.351043	-2.999100	3.516600	-10.545000	25.585044	0.000783	20.826163
1306.351262	-3.012800	3.514400	-10.587000	25.584746	0.000785	20.816855
1307.348601	-3.003100	3.514700	-10.554000	25.593692	0.000783	20.818253
1308.350028	-3.007900	3.515500	-10.574000	25.601618	0.000782	20.826213
1309.352860	-3.006900	3.513800	-10.565000	25.621896	0.000782	20.810543
1310.350266	-3.020100	3.513200	-10.608000	25.629547	0.000781	20.823443
1311.354382	-3.012200	3.511200	-10.576000	25.651412	0.000781	20.828807
1312.351844	-3.004100	3.512300	-10.550000	25.661750	0.000781	20.815957
1313.352535	-3.006000	3.513300	-10.560000	25.663538	0.000778	20.823443
1314.352841	-3.001400	3.511700	-10.539000	25.629399	0.000780	20.816657
1315.352203	-3.012000	3.511300	-10.575000	25.616403	0.000779	20.824467
1316.352917	-2.994500	3.512200	-10.516000	25.632553	0.000780	20.831677
1317.354865	-3.007400	3.510400	-10.556000	25.614490	0.000777	20.812114
1318.352798	-2.970200	3.510100	-10.424000	25.650195	0.000778	20.801033
1319.351547	-3.001300	3.510200	-10.534000	25.656432	0.000777	20.790702
1320.352474	-2.975000	3.511500	-10.445000	25.670520	0.000776	20.824291
1321.355573	-3.004300	3.509300	-10.542000	25.704062	0.000776	20.811989
1322.353944	-3.009200	3.508900	-10.558000	25.731070	0.000773	20.801657
1323.355226	-2.989000	3.508900	-10.488000	25.695243	0.000775	20.811665
1324.356424	-2.991600	3.509000	-10.496000	25.671239	0.000775	20.803203
1325.358146	-2.998600	3.509500	-10.523000	25.637373	0.000773	20.836045
1326.355260	-2.986900	3.509800	-10.483000	25.598413	0.000772	20.804028
1327.359923	-2.997500	3.508600	-10.515000	25.611732	0.000774	20.806973
1328.356144	-3.007000	3.506500	-10.543000	25.608700	0.000772	20.817204
1329.357515	-2.996100	3.507200	-10.506000	25.612749	0.000771	20.807521
1330.360210	-3.000000	3.506600	-10.519000	25.548841	0.000771	20.793599
1331.356518	-2.991000	3.507200	-10.489000	25.529309	0.000769	20.810493
1332.357912	-3.006600	3.506900	-10.541000	25.491684	0.000769	20.799736
1333.360364	-3.022500	3.506400	-10.596000	25.504335	0.000769	20.808172
1334.360107	-3.013000	3.506100	-10.563000	25.506895	0.000768	20.807898
1335.359908	-2.988600	3.504100	-10.472000	25.534602	0.000769	20.794472
1336.362138	-2.985300	3.505800	-10.465000	25.537113	0.000767	20.822123
1337.363750	-2.982300	3.504000	-10.449000	25.562236	0.000767	20.800412
1338.358643	-2.996000	3.503500	-10.495000	25.561142	0.000767	20.803581
1339.360207	-2.998800	3.504400	-10.508000	25.546508	0.000766	20.788884
1340.362287	-3.017900	3.503000	-10.571000	25.539301	0.000765	20.792078
1341.361520	-2.987900	3.504700	-10.470000	25.556647	0.000765	20.798593
1342.361379	-3.008200	3.501100	-10.531000	25.583459	0.000768	20.810346
1343.360519	-3.004200	3.502800	-10.522000	25.595287	0.000763	20.821751
1344.363024	-2.995400	3.502400	-10.490000	25.623166	0.000763	20.802810
1345.362289	-2.980900	3.503000	-10.441000	25.631938	0.000764	20.797396
1346.362695	-3.005800	3.502100	-10.524000	25.656486	0.000762	20.789333
1347.365777	-2.980900	3.502300	-10.439000	25.667666	0.000763	20.796769
1348.362899	-2.991400	3.500600	-10.470000	25.640709	0.000762	20.798144
1349.364817	-2.982400	3.501100	-10.441000	25.628707	0.000761	20.792253
1350.367702	-3.006800	3.500000	-10.521000	25.669804	0.000759	20.827365
1351.363796	-2.996800	3.498200	-10.482000	25.663469	0.000762	20.794925
1352.366243	-2.999000	3.499800	-10.495000	25.635466	0.000761	20.808999
1353.369230	-2.994100	3.500800	-10.480000	25.627588	0.000758	20.805828
1354.365334	-2.999700	3.498900	-10.495000	25.585272	0.000761	20.810271
1355.366160	-2.985200	3.499500	-10.446000	25.571905	0.000758	20.781673
1356.368868	-2.998300	3.497700	-10.486000	25.533288	0.000757	20.795522
1357.367428	-2.994200	3.496900	-10.469000	25.511791	0.000760	20.803807
1358.368827	-2.998900	3.497600	-10.487000	25.482964	0.000758	20.793350
1359.368292	-2.999200	3.496800	-10.486000	25.445365	0.000756	20.782620
1360.368571	-2.999800	3.496800	-10.488000	25.471235	0.000759	20.773511
1361.368428	-2.991200	3.495100	-10.454000	25.478740	0.000756	20.800962
1362.371105	-2.997900	3.496100	-10.480000	25.513904	0.000757	20.788859
1363.369507	-3.016100	3.493700	-10.536000	25.522973	0.000755	20.788483
1364.370459	-3.004900	3.495600	-10.504000	25.520240	0.000754	20.783842
1365.369248	-3.012400	3.494000	-10.525000	25.539621	0.000752	20.784339
1366.368171	-3.007900	3.493300	-10.506000	25.561439	0.000753	20.774956
1367.372090	-3.001100	3.492000	-10.479000	25.564399	0.000754	20.784092
1368.367682	-2.984700	3.494300	-10.428000	25.541410	0.000754	20.781394
1369.367798	-2.990600	3.492600	-10.444000	25.571851	0.000754	20.792051
1370.372078	-3.011000	3.492900	-10.515000	25.585195	0.000754	20.784116
1371.370010	-3.005900	3.491600	-10.494000	25.568097	0.000749	20.767892
1372.369855	-2.999300	3.492000	-10.472000	25.550208	0.000751	20.785014
1373.372149	-3.002500	3.491800	-10.483000	25.552271	0.000749	20.775232
1374.373065	-2.994000	3.490800	-10.449000	25.558234	0.000751	20.801609
1375.371038	-2.984200	3.491600	-10.418000	25.570882	0.000751	20.792026
1376.375099	-2.979700	3.490400	-10.399000	25.544592	0.000749	20.777003
1377.369483	-2.999100	3.490800	-10.469000	25.545784	0.000747	20.778200
1378.372104	-3.001200	3.490300	-10.474000	25.581194	0.000750	20.775829
1379.371997	-3.003700	3.489200	-10.479000	25.610068	0.000749	20.779698
1380.374523	-2.988600	3.489200	-10.427000	25.615637	0.000747	20.771066
1381.377442	-2.988400	3.488000	-10.423000	25.621648	0.000745	20.784216
1382.376813	-2.966200	3.489200	-10.347000	25.612578	0.000747	20.776055
1383.374684	-3.003900	3.488300	-10.476000	25.602814	0.000746	20.763877
1384.379421	-3.014500	3.488300	-10.513000	25.638448	0.000744	20.778329
1385.372512	-2.982100	3.487900	-10.400000	25.669259	0.000745	20.772765
1386.374086	-3.011200	3.485700	-10.495000	25.678821	0.000743	20.777154
1387.374051	-2.999600	3.486900	-10.458000	25.713484	0.000742	20.769769
1388.375566	-3.008000	3.485000	-10.481000	25.715371	0.000741	20.770716
1389.377574	-2.985500	3.486300	-10.408000	25.691546	0.000741	20.784719
1390.376507	-3.010700	3.485700	-10.493000	25.710876	0.000739	20.793703
1391.372181	-2.975400	3.485500	-10.369000	25.713361	0.000744	20.765853
1392.377057	-2.992300	3.484800	-10.427000	25.723423	0.000741	20.760785
1393.375538	-2.993600	3.483900	-10.428000	25.758852	0.000741	20.783096
1394.376904	-3.011400	3.484200	-10.491000	25.782454	0.000742	20.775984
1395.376719	-2.994900	3.483700	-10.432000	25.792342	0.000741	20.782597
1396.376166	-3.010500	3.482500	-10.483000	25.772593	0.000741	20.764181
1397.376119	-3.003600	3.483000	-10.460000	25.718454	0.000740	20.779977
1398.373588	-2.970900	3.484800	-10.352000	25.690727	0.000741	20.777258
1399.377429	-3.028300	3.481300	-10.541000	25.671744	0.000737	20.756768
1400.377720	-3.004100	3.481300	-10.458000	25.687820	0.000737	20.766751
1401.377392	-2.994000	3.480300	-10.418000	25.657457	0.000737	20.776558
1402.387129	-3.002400	3.480400	-10.448000	25.687175	0.000739	20.785544
1403.378384	-2.991400	3.482400	-10.415000	25.689435	0.000737	20.757468
1404.378720	-3.000100	3.480900	-10.442000	25.647420	0.000736	20.752252
1405.379544	-3.002700	3.480300	-10.450000	25.634673	0.000735	20.783073
1406.378934	-3.001400	3.478800	-10.440000	25.602372	0.000736	20.776236
1407.377988	-3.011800	3.479100	-10.478000	25.657610	0.000736	20.764384
1408.382008	-3.001800	3.479000	-10.442000	25.644067	0.000733	20.769274
1409.377549	-2.993200	3.480400	-10.415000	25.667200	0.000733	20.757420
1410.377495	-2.982300	3.478000	-10.372000	25.682878	0.000734	20.761313
1411.383931	-2.986000	3.477700	-10.383000	25.730085	0.000733	20.778383
1412.383965	-3.000100	3.476100	-10.428000	25.708545	0.000733	20.762911
1413.377820	-2.977700	3.477800	-10.355000	25.731354	0.000732	20.766855
1414.378477	-2.960300	3.478000	-10.295000	25.690756	0.000730	20.761639
1415.383268	-3.014900	3.475600	-10.477000	25.682980	0.000732	20.778011
1416.380131	-3.008400	3.475000	-10.454000	25.672819	0.000731	20.754528
1417.381497	-3.014400	3.473900	-10.471000	25.697165	0.000732	20.767603
1418.382185	-3.009400	3.475200	-10.456000	25.694358	0.000730	20.783275
1419.381138	-3.008700	3.473400	-10.449000	25.730933	0.000731	20.763588
1420.380367	-3.004300	3.473400	-10.434000	25.730809	0.000725	20.770101
1421.382008	-2.995100	3.474800	-10.406000	25.740449	0.000728	20.744696
1422.382077	-2.972200	3.474100	-10.324000	25.745145	0.000729	20.765060
1423.386340	-2.991600	3.473400	-10.391000	25.735779	0.000728	20.770351
1424.383173	-2.976500	3.472800	-10.335000	25.740871	0.000728	20.760294
1425.385874	-2.983900	3.473800	-10.364000	25.724820	0.000726	20.765982
1426.389315	-3.009300	3.470500	-10.443000	25.751729	0.000728	20.770725
1427.384126	-2.996900	3.472100	-10.404000	25.797215	0.000726	20.767103
1428.387065	-2.997500	3.472000	-10.405000	25.805441	0.000725	20.773470
1429.386205	-3.013500	3.470900	-10.459000	25.829887	0.000724	20.771473
1430.385436	-3.024000	3.469600	-10.491000	25.843377	0.000725	20.769378
1431.386624	-2.990200	3.469700	-10.373000	25.832197	0.000724	20.756724
1432.388893	-2.995300	3.469900	-10.393000	25.792599	0.000723	20.763414
1433.384286	-2.999600	3.469300	-10.405000	25.745295	0.000723	20.745770
1434.386342	-3.009000	3.468600	-10.436000	25.705467	0.000721	20.765035
1435.391859	-2.986000	3.467900	-10.353000	25.681590	0.000720	20.771874
1436.388923	-2.978000	3.469500	-10.330000	25.643996	0.000722	20.776315
1437.386232	-2.989200	3.468600	-10.367000	25.633660	0.000718	20.754079
1438.390533	-3.009700	3.467600	-10.434000	25.650458	0.000721	20.776641
1439.390796	-2.992700	3.465800	-10.371000	25.652096	0.000721	20.752208
1440.388115	-3.015100	3.466200	-10.450000	25.667727	0.000718	20.753208
1441.390526	-3.005000	3.465400	-10.413000	25.700921	0.000720	20.779910
1442.389975	-3.002300	3.466000	-10.405000	25.731181	0.000719	20.762888
1443.389891	-3.024200	3.463900	-10.474000	25.756871	0.000717	20.766882
1444.391299	-3.002200	3.463200	-10.397000	25.781767	0.000718	20.777664
1445.389863	-2.982200	3.464900	-10.331000	25.771230	0.000719	20.758071
1446.387356	-3.013900	3.464300	-10.440000	25.754461	0.000718	20.774892
1447.389434	-2.996100	3.465400	-10.380000	25.721939	0.000714	20.748863
1448.389417	-2.994100	3.462400	-10.366000	25.693293	0.000718	20.779834
1449.391451	-3.021500	3.462000	-10.459000	25.680723	0.000717	20.780486
1450.393384	-3.019800	3.463300	-10.457000	25.631176	0.000716	20.761068
1451.395813	-3.013900	3.462000	-10.433000	25.617336	0.000717	20.764711
1452.391312	-3.014200	3.461100	-10.432000	25.620615	0.000715	20.768480
1453.395555	-3.007900	3.460900	-10.409000	25.640766	0.000715	20.768329
1454.395498	-2.986900	3.462700	-10.340000	25.660991	0.000716	20.761616
1455.394871	-2.992500	3.461700	-10.359000	25.680199	0.000713	20.768580
1456.395679	-3.024900	3.460100	-10.466000	25.684076	0.000714	20.763464
1457.393796	-3.009900	3.459900	-10.412000	25.703258	0.000710	20.772300
1458.394539	-3.029200	3.459000	-10.476000	25.715382	0.000710	20.782581
1459.394572	-3.004400	3.459700	-10.394000	25.730885	0.000712	20.772074
1460.394115	-3.010000	3.459500	-10.412000	25.764326	0.000711	20.775793
1461.395282	-2.993700	3.459000	-10.354000	25.759408	0.000709	20.770852
1462.395047	-2.997100	3.458000	-10.362000	25.766809	0.000709	20.759794
1463.396496	-3.002800	3.458600	-10.383000	25.787805	0.000708	20.789894
1464.396486	-3.011100	3.456500	-10.405000	25.807458	0.000710	20.774547
1465.395965	-2.992900	3.457300	-10.346000	25.809321	0.000705	20.776419
1466.398665	-2.990300	3.456900	-10.336000	25.811679	0.000711	20.778314
1467.395382	-2.995500	3.456300	-10.352000	25.794017	0.000708	20.799926
1468.399258	-3.021800	3.456900	-10.444000	25.817169	0.000707	20.762965
1469.399396	-3.014100	3.455800	-10.414000	25.793892	0.000707	20.767558
1470.397300	-3.000300	3.454400	-10.363000	25.770092	0.000709	20.760721
1471.397097	-2.996600	3.454100	-10.349000	25.749992	0.000704	20.781309
1472.398199	-2.977700	3.455000	-10.287000	25.749096	0.000706	20.786573
1473.398839	-2.988100	3.454900	-10.323000	25.774416	0.000704	20.769806
1474.401416	-3.004400	3.454300	-10.376000	25.762094	0.000704	20.787302
1475.400923	-3.025800	3.453500	-10.448000	25.727903	0.000704	20.781881
1476.402585	-3.011700	3.454000	-10.401000	25.709122	0.000702	20.772026
1477.399587	-3.005700	3.453500	-10.380000	25.660548	0.000702	20.789146
1478.402507	-3.025900	3.451400	-10.442000	25.600119	0.000702	20.782982
1479.404653	-2.981800	3.452900	-10.294000	25.593857	0.000703	20.791392
1480.400187	-3.022300	3.450400	-10.427000	25.611997	0.000704	20.788747
1481.405154	-3.014500	3.450900	-10.401000	25.610578	0.000700	20.756502
1482.405437	-3.008500	3.450000	-10.378000	25.628593	0.000701	20.778863
1483.402605	-3.002500	3.450900	-10.361000	25.654111	0.000700	20.791690
1484.406364	-3.011800	3.450000	-10.390000	25.687033	0.000702	20.770228
1485.407486	-3.013900	3.449300	-10.395000	25.680474	0.000701	20.781184
1486.405730	-2.986100	3.450700	-10.303000	25.643825	0.000701	20.787523
1487.411209	-2.992300	3.449700	-10.322000	25.629390	0.000699	20.771602
1488.411047	-3.007000	3.449100	-10.371000	25.629240	0.000697	20.797056
1489.408288	-2.999700	3.448800	-10.344000	25.624592	0.000697	20.787172
1490.411153	-2.998500	3.447600	-10.337000	25.644969	0.000696	20.801948
1491.412808	-2.993700	3.447200	-10.319000	25.692625	0.000696	20.786750
1492.409171	-2.994000	3.447000	-10.318000	25.698562	0.000695	20.788921
1493.410661	-3.018400	3.445800	-10.399000	25.762315	0.000698	20.809808
1494.411755	-2.982300	3.446500	-10.278000	25.767632	0.000698	20.801873
1495.411424	-2.993700	3.445600	-10.314000	25.781868	0.000697	20.812380
1496.411030	-2.991300	3.445100	-10.304000	25.835307	0.000695	20.792565
1497.412167	-3.002400	3.445300	-10.342000	25.804825	0.000694	20.806516
1498.412126	-3.012400	3.442900	-10.370000	25.776254	0.000693	20.785877
1499.413714	-2.986700	3.445300	-10.289000	25.789670	0.000695	20.788448
1500.415377	-3.018300	3.443600	-10.393000	25.790367	0.000695	20.799105
1501.413035	-3.010600	3.442700	-10.364000	25.802864	0.000693	20.796486
1502.411951	-2.997600	3.443100	-10.319000	25.837943	0.000692	20.793317
1503.410996	-3.009300	3.441500	-10.356000	25.823733	0.000691	20.819819
1504.414248	-3.005800	3.443000	-10.346000	25.866563	0.000691	20.770858
1505.412142	-3.019800	3.440600	-10.388000	25.881667	0.000693	20.797885
1506.411750	-2.984600	3.441500	-10.270000	25.877891	0.000691	20.808317
1507.412430	-2.994200	3.440700	-10.301000	25.912920	0.000690	20.814583
1508.413925	-2.992700	3.439500	-10.292000	25.879234	0.000689	20.815355
1509.410331	-3.007000	3.440500	-10.345000	25.873942	0.000690	20.798660
1510.411808	-3.018800	3.440900	-10.386000	25.867436	0.000687	20.811090
1511.416134	-3.002600	3.440500	-10.328000	25.836084	0.000688	20.825114
1512.412025	-3.002900	3.439200	-10.326000	25.878616	0.000689	20.800036
1513.415113	-2.984800	3.439700	-10.265000	25.861574	0.000688	20.809943
1514.413801	-2.984700	3.438500	-10.261000	25.834620	0.000688	20.805626
1515.413493	-2.993600	3.437500	-10.289000	25.809405	0.000687	20.805901
1516.414739	-3.005100	3.439000	-10.334000	25.805581	0.000685	20.813440
1517.416761	-3.006100	3.437300	-10.333000	25.851492	0.000684	20.807875
1518.415384	-3.017700	3.437100	-10.371000	25.862768	0.000684	20.835323
1519.414947	-3.010700	3.436300	-10.345000	25.848412	0.000686	20.818058
1520.414482	-3.038500	3.435000	-10.437000	25.822624	0.000683	20.822352
1521.416227	-3.013200	3.434800	-10.349000	25.890345	0.000685	20.814664
1522.418792	-3.004600	3.435900	-10.322000	25.847219	0.000682	20.808324
1523.417390	-2.994500	3.436400	-10.290000	25.802578	0.000680	20.816587
1524.421419	-3.004200	3.434300	-10.316000	25.788368	0.000683	20.835503
1525.420100	-3.009500	3.435400	-10.338000	25.846599	0.000680	20.834728
1526.421594	-3.000800	3.433900	-10.303000	25.798380	0.000680	20.812370
1527.424356	-2.989000	3.433500	-10.262000	25.841531	0.000680	20.796922
1528.421254	-3.003500	3.433300	-10.311000	25.863342	0.000680	20.845857
1529.421800	-2.968400	3.434500	-10.194000	25.841059	0.000678	20.814465
1530.424636	-2.985000	3.434900	-10.252000	25.833235	0.000679	20.829838
1531.422552	-2.992400	3.431600	-10.268000	25.825805	0.000677	20.829961
1532.423355	-3.016900	3.430400	-10.348000	25.805932	0.000678	20.828017
1533.432174	-2.980800	3.433200	-10.233000	25.769411	0.000679	20.812195
1534.422687	-2.990600	3.432500	-10.264000	25.739125	0.000676	20.825395
1535.423007	-3.019000	3.430900	-10.357000	25.729559	0.000676	20.823374
1536.422717	-2.997800	3.432000	-10.288000	25.759496	0.000678	20.808399
1537.422113	-3.002400	3.430500	-10.299000	25.773163	0.000676	20.831609
1538.426795	-2.984500	3.429800	-10.236000	25.777983	0.000674	20.830287
1539.426837	-2.980500	3.429300	-10.220000	25.759548	0.000675	20.823624
1540.427217	-2.981100	3.430600	-10.226000	25.786080	0.000674	20.844110
1541.426359	-2.981900	3.430100	-10.226000	25.810578	0.000674	20.842166
1542.425410	-2.999400	3.428500	-10.282000	25.817756	0.000675	20.839419
1543.427816	-2.999500	3.428500	-10.282000	25.816190	0.000673	20.837372
1544.426029	-3.005600	3.428000	-10.302000	25.850774	0.000675	20.838448
1545.430253	-2.987400	3.428400	-10.239000	25.866051	0.000673	20.836725
1546.430926	-2.997300	3.427700	-10.272000	25.863791	0.000671	20.840144
1547.428565	-2.990200	3.426800	-10.245000	25.824316	0.000670	20.847431
1548.427848	-2.989100	3.425500	-10.238000	25.825433	0.000672	20.827691
1549.431076	-2.980400	3.426600	-10.211000	25.833657	0.000669	20.846857
1550.433320	-3.008800	3.424200	-10.302000	25.863518	0.000671	20.853146
1551.430794	-3.007500	3.425800	-10.302000	25.891987	0.000670	20.830538
1552.431479	-2.988800	3.424500	-10.234000	25.922369	0.000668	20.846834
1553.434215	-3.005600	3.424600	-10.291000	25.959752	0.000670	20.838398
1554.430801	-3.004600	3.422200	-10.281000	25.975204	0.000668	20.847757
1555.432733	-3.006100	3.421600	-10.284000	26.004240	0.000670	20.829514
1556.432626	-3.018300	3.422200	-10.328000	26.007496	0.000668	20.828518
1557.433803	-3.013500	3.421200	-10.309000	26.039762	0.000668	20.836280
1558.436779	-2.988300	3.423000	-10.228000	26.042069	0.000668	20.845710
1559.439085	-2.989900	3.421700	-10.228000	26.054017	0.000666	20.861033
1560.435676	-3.001200	3.422600	-10.271000	26.020438	0.000664	20.835356
1561.436549	-3.012200	3.420300	-10.301000	25.970237	0.000664	20.854146
1562.434356	-2.966900	3.422000	-10.152000	25.973366	0.000664	20.835954
1563.439270	-3.002000	3.420600	-10.268000	25.983129	0.000667	20.841969
1564.440595	-2.986600	3.420700	-10.216000	25.981763	0.000664	20.834907
1565.438311	-2.988000	3.419700	-10.217000	26.025953	0.000664	20.844216
1566.439406	-3.017800	3.419300	-10.318000	26.042323	0.000664	20.854973
1567.441565	-2.983500	3.419300	-10.201000	26.026177	0.000663	20.834959
1568.440803	-3.012800	3.418700	-10.299000	26.051166	0.000665	20.841100
1569.441826	-2.978800	3.419100	-10.183000	26.055487	0.000660	20.821259
1570.440010	-3.010100	3.416500	-10.283000	26.058965	0.000662	20.859366
1571.439902	-3.001500	3.418400	-10.260000	26.070592	0.000659	20.854453
1572.441058	-2.992800	3.417200	-10.226000	26.054247	0.000662	20.864583
1573.442905	-3.006100	3.418300	-10.275000	26.071087	0.000661	20.845467
1574.439807	-3.013700	3.415000	-10.291000	26.079109	0.000660	20.864907
1575.442711	-3.035200	3.414500	-10.363000	26.078564	0.000661	20.852506
1576.440831	-3.004800	3.416300	-10.263000	26.097540	0.000660	20.853081
1577.442184	-2.981900	3.417300	-10.189000	26.092175	0.000658	20.843423
1578.440904	-2.986200	3.415300	-10.198000	26.040886	0.000659	20.861116
1579.444072	-3.011800	3.413800	-10.280000	25.994214	0.000658	20.863536
1580.446261	-2.998900	3.414000	-10.237000	25.984902	0.000657	20.850862
1581.443639	-2.989300	3.415600	-10.209000	25.967860	0.000658	20.873568
1582.445994	-2.978200	3.416300	-10.174000	25.976954	0.000655	20.875592
1583.444691	-2.984900	3.414000	-10.190000	25.946474	0.000657	20.862515
1584.443767	-2.998100	3.412300	-10.230000	25.912047	0.000656	20.870602
1585.447180	-2.982700	3.412900	-10.179000	25.889839	0.000655	20.858724
1586.446309	-2.991600	3.412700	-10.208000	25.874536	0.000658	20.852834
1587.444104	-2.996600	3.411200	-10.221000	25.864276	0.000653	20.856752
1588.446624	-2.999300	3.411400	-10.231000	25.882734	0.000654	20.877664
1589.446146	-3.010500	3.411000	-10.266000	25.894488	0.000651	20.856282
1590.444680	-3.019000	3.411200	-10.296000	25.889691	0.000653	20.863317
1591.447154	-3.007900	3.410900	-10.258000	25.924720	0.000649	20.878591
1592.447093	-2.974600	3.410200	-10.143000	25.911032	0.000650	20.873850
1593.446846	-3.010000	3.410100	-10.262000	25.892675	0.000651	20.875796
1594.446661	-3.035300	3.408100	-10.344000	25.921938	0.000650	20.884805
1595.448390	-3.014900	3.409700	-10.280000	25.943276	0.000651	20.886327
1596.454203	-2.984800	3.409700	-10.176000	25.958479	0.000652	20.885005
1597.448231	-3.003800	3.408500	-10.236000	25.993428	0.000650	20.892142
1598.448352	-2.985000	3.408900	-10.175000	26.017127	0.000650	20.892244
1599.447855	-2.987200	3.408600	-10.181000	26.030291	0.000649	20.890772
1600.449945	-2.995400	3.407300	-10.205000	26.070579	0.000645	20.890947
1601.449372	-2.999600	3.407600	-10.220000	26.098271	0.000648	20.873254
1602.454276	-2.990700	3.407400	-10.189000	26.081158	0.000648	20.891146
1603.451165	-3.004900	3.407100	-10.237000	26.108805	0.000647	20.875303
1604.450624	-2.988500	3.407000	-10.181000	26.095964	0.000645	20.894642
1605.452199	-2.991100	3.406400	-10.189000	26.114792	0.000645	20.887482
1606.450000	-3.004800	3.405500	-10.231000	26.106248	0.000645	20.886958
1607.453241	-2.965900	3.406600	-10.103000	26.126042	0.000646	20.890726
1608.451507	-2.986600	3.405400	-10.169000	26.113303	0.000644	20.907796
1609.452326	-3.002700	3.405300	-10.224000	26.110347	0.000644	20.897714
1610.452566	-2.995000	3.403900	-10.192000	26.136301	0.000645	20.878749
1611.452821	-3.010800	3.401900	-10.241000	26.155003	0.000642	20.906075
1612.455214	-3.008500	3.402200	-10.234000	26.159400	0.000644	20.900536
1613.453797	-3.025400	3.401500	-10.289000	26.179441	0.000640	20.884165
1614.453805	-2.985900	3.402700	-10.159000	26.176042	0.000643	20.907775
1615.453843	-3.007700	3.401600	-10.230000	26.154334	0.000641	20.893075
1616.455503	-3.006200	3.401500	-10.224000	26.130046	0.000640	20.900438
1617.457045	-3.006500	3.402000	-10.227000	26.112609	0.000642	20.897142
1618.458302	-3.011400	3.399600	-10.237000	26.059635	0.000640	20.923571
1619.455796	-2.955400	3.401800	-10.051000	26.058271	0.000637	20.891857
1620.459827	-2.997600	3.399200	-10.188000	26.050745	0.000639	20.889038
1621.456175	-3.016900	3.399500	-10.254000	26.049827	0.000639	20.890011
1622.457660	-3.008700	3.399800	-10.228000	26.081667	0.000640	20.911095
1623.460754	-2.996400	3.399900	-10.186000	26.094535	0.000639	20.894629
1624.455505	-3.016400	3.399200	-10.253000	26.108320	0.000637	20.913220
1625.458515	-2.999600	3.398400	-10.193000	26.065549	0.000638	20.919082
1626.456789	-3.002700	3.397100	-10.199000	26.095728	0.000638	20.912422
1627.457355	-2.996200	3.398800	-10.181000	26.111550	0.000637	20.909828
1628.460402	-2.991200	3.398300	-10.164000	26.141454	0.000636	20.902417
1629.461099	-3.001600	3.396900	-10.195000	26.152382	0.000636	20.909604
1630.458589	-2.996400	3.397200	-10.179000	26.180519	0.000635	20.925548
1631.458198	-2.997000	3.396800	-10.180000	26.210793	0.000635	20.909978
1632.459497	-3.026000	3.395700	-10.274000	26.253905	0.000635	20.918213
1633.458901	-3.008000	3.396200	-10.215000	26.234734	0.000635	20.916492
1634.460804	-3.001700	3.394900	-10.189000	26.208213	0.000633	20.915920
1635.459893	-2.988700	3.393900	-10.143000	26.178459	0.000633	20.913996
1636.460622	-2.980200	3.395100	-10.117000	26.169669	0.000633	20.912275
1637.459480	-2.986100	3.393800	-10.132000	26.168602	0.000633	20.937280
1638.461278	-2.981900	3.394000	-10.119000	26.170465	0.000630	20.922557
1639.459898	-2.986700	3.394500	-10.137000	26.183554	0.000633	20.918641
1640.459216	-2.996100	3.392900	-10.164000	26.191129	0.000631	20.931467
1641.459243	-2.989500	3.392500	-10.141000	26.189364	0.000632	20.920212
1642.459782	-2.996800	3.393600	-10.169000	26.220411	0.000630	20.939554
1643.459599	-3.011400	3.392900	-10.217000	26.235507	0.000630	20.925329
1644.459118	-2.996400	3.390900	-10.160000	26.242834	0.000628	20.940277
1645.461210	-3.010100	3.391000	-10.206000	26.226468	0.000629	20.946588
1646.460746	-3.007800	3.391800	-10.201000	26.206949	0.000627	20.899953
1647.462350	-3.017700	3.389000	-10.226000	26.235956	0.000629	20.922461
1648.460935	-3.008300	3.389500	-10.196000	26.241196	0.000628	20.924408
1649.462878	-2.988600	3.392500	-10.138000	26.228856	0.000627	20.933343
1650.472133	-2.971500	3.390000	-10.072000	26.222350	0.000626	20.925857
1651.462607	-3.029500	3.388100	-10.263000	26.223518	0.000626	20.922764
1652.466516	-3.002600	3.388700	-10.174000	26.226100	0.000624	20.922513
1653.463109	-3.008000	3.387600	-10.189000	26.182269	0.000624	20.926833
1654.467493	-2.978500	3.387800	-10.090000	26.185475	0.000625	20.926734
1655.464100	-3.004600	3.386900	-10.175000	26.160638	0.000624	20.916477
1656.465412	-3.006100	3.387300	-10.181000	26.127532	0.000622	20.915454
1657.465959	-2.998200	3.387400	-10.156000	26.140599	0.000623	20.925738
1658.465103	-2.996100	3.387400	-10.148000	26.119437	0.000621	20.917751
1659.465547	-3.010600	3.386400	-10.194000	26.133818	0.000622	20.936941
1660.466213	-3.002500	3.387100	-10.169000	26.103320	0.000622	20.916730
1661.466524	-2.988100	3.387500	-10.121000	26.073840	0.000620	20.918403
1662.465244	-2.977100	3.386000	-10.079000	26.041725	0.000620	20.904155
1663.467274	-3.000200	3.386700	-10.160000	25.967927	0.000620	20.899712
1664.469824	-3.001500	3.385100	-10.159000	25.978685	0.000618	20.914312
1665.467814	-2.976300	3.385200	-10.074000	25.999078	0.000620	20.895447
1666.468327	-2.997200	3.384700	-10.143000	26.012168	0.000617	20.906227
1667.468675	-3.015200	3.382900	-10.199000	26.017883	0.000618	20.907701
1668.470004	-2.991400	3.384700	-10.124000	26.016220	0.000619	20.900815
1669.470321	-3.005200	3.382800	-10.165000	26.025883	0.000616	20.906256
1670.470755	-3.003800	3.383000	-10.161000	26.033931	0.000618	20.913867
1671.473663	-3.001500	3.382400	-10.151000	26.052361	0.000616	20.890186
1672.472604	-2.990400	3.383100	-10.116000	26.054346	0.000615	20.900715
1673.482539	-3.002900	3.381300	-10.153000	26.081444	0.000615	20.896648
1674.471526	-2.982400	3.382300	-10.087000	26.075484	0.000614	20.906780
1675.472896	-3.000100	3.380300	-10.140000	26.072403	0.000613	20.889936
1676.482224	-2.982900	3.381600	-10.086000	26.103923	0.000616	20.901216
1677.476493	-2.997100	3.379900	-10.129000	26.108095	0.000613	20.897348
1678.475582	-2.983900	3.380800	-10.086000	26.111151	0.000613	20.909901
1679.472309	-2.999800	3.380700	-10.140000	26.105935	0.000612	20.887592
1680.472751	-3.027900	3.379000	-10.230000	26.109563	0.000610	20.882229
1681.472974	-3.013200	3.379300	-10.181000	26.150442	0.000610	20.896751
1682.476583	-3.013100	3.378800	-10.180000	26.164846	0.000611	20.886095
1683.475572	-2.992800	3.379300	-10.113000	26.157348	0.000609	20.879983
1684.476488	-3.014400	3.379600	-10.186000	26.150989	0.000612	20.885447
1685.472952	-3.001600	3.378900	-10.141000	26.107179	0.000611	20.900694
1686.474151	-2.984300	3.378500	-10.081000	26.076952	0.000609	20.886446
1687.477201	-3.005000	3.377700	-10.149000	26.036964	0.000608	20.870925
1688.473038	-3.017200	3.375800	-10.185000	26.022658	0.000606	20.866035
1689.474918	-2.985900	3.376600	-10.081000	26.020571	0.000609	20.874843
1690.475658	-2.991700	3.375700	-10.098000	26.032619	0.000605	20.886947
1691.476681	-2.994600	3.375500	-10.107000	26.081771	0.000606	20.889391
1692.479254	-3.015400	3.375100	-10.175000	26.095109	0.000604	20.890464
1693.483540	-3.011300	3.375700	-10.165000	26.126401	0.000606	20.891086
1694.478733	-2.999000	3.375700	-10.123000	26.133827	0.000603	20.866781
1695.478061	-2.989900	3.376500	-10.094000	26.137107	0.000601	20.870551
1696.477292	-3.004100	3.375100	-10.138000	26.094809	0.000603	20.876414
1697.484176	-3.007000	3.375300	-10.148000	26.061132	0.000604	20.862965
1698.483571	-3.006400	3.372200	-10.137000	26.067713	0.000602	20.861992
1699.480707	-2.990300	3.374000	-10.089000	26.087234	0.000602	20.874966
1700.486664	-3.004300	3.373200	-10.133000	26.079584	0.000602	20.870125
1701.480794	-2.975900	3.373500	-10.038000	26.113213	0.000602	20.876414
1702.481532	-3.007200	3.372100	-10.139000	26.125185	0.000600	20.855728
1703.484870	-2.976900	3.372800	-10.039000	26.137205	0.000599	20.860218
1704.487503	-3.009700	3.371900	-10.147000	26.134770	0.000601	20.858247
1705.482690	-2.993600	3.372400	-10.095000	26.105316	0.000601	20.858522
1706.482015	-2.992200	3.371900	-10.088000	26.102485	0.000600	20.883651
1707.482459	-2.986500	3.372500	-10.070000	26.112717	0.000600	20.866906
1708.483296	-3.006800	3.370500	-10.133000	26.111796	0.000600	20.858395
1709.483914	-3.020200	3.370000	-10.177000	26.075461	0.000596	20.864087
1710.482983	-2.981100	3.370500	-10.046000	26.031301	0.000601	20.853382
1711.486828	-3.009400	3.370000	-10.141000	26.001692	0.000599	20.848764
1712.482323	-2.988500	3.370500	-10.071000	26.012970	0.000598	20.858199
1713.483232	-3.013000	3.367700	-10.146000	26.020347	0.000598	20.835265
1714.486066	-3.011200	3.368700	-10.143000	26.030854	0.000597	20.870476
1715.482492	-2.998300	3.368800	-10.100000	26.035076	0.000594	20.861917
1716.488539	-3.016500	3.367500	-10.157000	26.067913	0.000596	20.851761
1717.483875	-3.010300	3.366800	-10.133000	26.064262	0.000594	20.862318
1718.483399	-2.962700	3.368500	-9.978500	26.140710	0.000593	20.878438
1719.487542	-2.984600	3.367000	-10.048000	26.125884	0.000591	20.840783
1720.490823	-2.988500	3.366700	-10.061000	26.162168	0.000592	20.858750
1721.485689	-2.958500	3.368400	-9.963700	26.137681	0.000592	20.852637
1722.486311	-2.968800	3.367200	-9.995000	26.104229	0.000590	20.865490
1723.484472	-2.994200	3.365400	-10.076000	26.062527	0.000591	20.848720
1724.487473	-2.992000	3.366700	-10.072000	26.095905	0.000590	20.845748
1725.489909	-2.978600	3.366000	-10.025000	26.129162	0.000589	20.851189
1726.487123	-2.986200	3.364100	-10.045000	26.161969	0.000591	20.843377
1727.493537	-2.988200	3.364500	-10.054000	26.180199	0.000588	20.854109
1728.488623	-3.000400	3.362400	-10.088000	26.174439	0.000586	20.822244
1729.489862	-2.989800	3.364100	-10.056000	26.162218	0.000586	20.851214
1730.493042	-2.987500	3.364400	-10.050000	26.122256	0.000586	20.833820
1731.490867	-2.996700	3.363200	-10.076000	26.071665	0.000587	20.834196
1732.491477	-2.993500	3.362200	-10.063000	26.080382	0.000586	20.852436
1733.491790	-2.985500	3.363700	-10.041000	26.048267	0.000585	20.863316
1734.493834	-3.006100	3.361500	-10.104000	26.085101	0.000585	20.841057
1735.492735	-2.968700	3.362300	-9.980300	26.065156	0.000583	20.846147
1736.492145	-2.980300	3.362600	-10.021000	26.062747	0.000583	20.837562
1737.492706	-2.967200	3.362900	-9.977500	26.067466	0.000583	20.838037
1738.494059	-3.013000	3.360700	-10.125000	26.106784	0.000583	20.831549
1739.495499	-2.989700	3.361300	-10.049000	26.186258	0.000581	20.842655
1740.494500	-2.995700	3.360400	-10.066000	26.181390	0.000582	20.829703
1741.497023	-3.015700	3.359800	-10.131000	26.161694	0.000582	20.860170
1742.495916	-3.012400	3.358300	-10.116000	26.185564	0.000582	20.841009
1743.500803	-2.995600	3.359700	-10.063000	26.157697	0.000579	20.846671
1744.496926	-3.013100	3.359700	-10.121000	26.137556	0.000580	20.843977
1745.496825	-3.005600	3.358400	-10.093000	26.100973	0.000581	20.825711
1746.499035	-2.988500	3.358700	-10.037000	26.134278	0.000580	20.820769
1747.496587	-3.004800	3.358500	-10.091000	26.158965	0.000579	20.856480
1748.496315	-2.998700	3.357900	-10.069000	26.175406	0.000580	20.840758
1749.497360	-2.986300	3.358500	-10.029000	26.157350	0.000577	20.837788
1750.496719	-2.996500	3.355000	-10.052000	26.172547	0.000576	20.824136
1751.501453	-3.015900	3.356200	-10.121000	26.138874	0.000576	20.836767
1752.498493	-3.003000	3.355900	-10.077000	26.123722	0.000577	20.827706
1753.499788	-3.000800	3.355400	-10.068000	26.115750	0.000579	20.840084
1754.500438	-3.006000	3.355700	-10.086000	26.152209	0.000576	20.847795
1755.500865	-2.989800	3.355200	-10.030000	26.161873	0.000575	20.831428
1756.500059	-3.007200	3.354600	-10.087000	26.144907	0.000574	20.808216
1757.498070	-3.006400	3.353700	-10.081000	26.140288	0.000573	20.823489
1758.502007	-3.022000	3.353100	-10.131000	26.131819	0.000572	20.827307
1759.501927	-2.990200	3.353100	-10.026000	26.108796	0.000574	20.829778
1760.503229	-3.013700	3.352600	-10.103000	26.071144	0.000573	20.828930
1761.500496	-3.000700	3.353900	-10.063000	26.056861	0.000572	20.822641
1762.502030	-2.982300	3.353900	-10.001000	26.065653	0.000569	20.840008
1763.501960	-2.998900	3.352000	-10.051000	26.093943	0.000571	20.822440
1764.501345	-2.985800	3.351500	-10.006000	26.140337	0.000571	20.813108
1765.501431	-2.993400	3.350700	-10.030000	26.176597	0.000570	20.831998
1766.503531	-3.005900	3.352000	-10.074000	26.183750	0.000569	20.846297
1767.504781	-3.000000	3.350600	-10.050000	26.204910	0.000569	20.832949
1768.504824	-2.976000	3.351800	-9.974400	26.165274	0.000570	20.841009
1769.506085	-3.004900	3.350700	-10.066000	26.184421	0.000566	20.821843
1770.504974	-3.029100	3.348900	-10.143000	26.201210	0.000567	20.831601
1771.505547	-3.014900	3.348400	-10.094000	26.189289	0.000566	20.835269
1772.505548	-2.982100	3.349900	-9.988600	26.177096	0.000566	20.839612
1773.504806	-3.018100	3.347700	-10.103000	26.183003	0.000566	20.828005
1774.505971	-2.995000	3.348900	-10.029000	26.146969	0.000565	20.836840
1775.504269	-2.991000	3.350300	-10.020000	26.129534	0.000565	20.822167
1776.504830	-2.984700	3.347900	-9.991300	26.121934	0.000561	20.837289
1777.507261	-2.997000	3.347900	-10.032000	26.121240	0.000563	20.815729
1778.504314	-2.982400	3.347400	-9.982700	26.140138	0.000564	20.826657
1779.505188	-2.988100	3.346300	-9.997000	26.084010	0.000560	20.825262
1780.504426	-3.008000	3.346700	-10.065000	26.054053	0.000561	20.828353
1781.505597	-2.991000	3.346100	-10.007000	26.039301	0.000561	20.829653
1782.508444	-2.982300	3.345800	-9.977100	26.077823	0.000561	20.821417
1783.508328	-2.999000	3.345500	-10.032000	26.090043	0.000559	20.832746
1784.504803	-3.007400	3.344300	-10.057000	26.136860	0.000560	20.817674
1785.506155	-2.980400	3.345900	-9.970700	26.191052	0.000560	20.839885
1786.506322	-2.999000	3.344600	-10.029000	26.223335	0.000560	20.823015
1787.506269	-2.993000	3.345600	-10.013000	26.205380	0.000558	20.824886
1788.507811	-3.004800	3.342400	-10.041000	26.183178	0.000559	20.806369
1789.504450	-3.013600	3.342700	-10.072000	26.192889	0.000557	20.810912
1790.505662	-3.005700	3.342800	-10.046000	26.230662	0.000557	20.828955
1791.505548	-3.020400	3.341800	-10.093000	26.240446	0.000560	20.828830
1792.505845	-3.003400	3.342700	-10.038000	26.243624	0.000557	20.814954
1793.508554	-2.985500	3.341900	-9.976200	26.234487	0.000553	20.835169
1794.508859	-3.001000	3.341500	-10.026000	26.232227	0.000557	20.826260
1795.508132	-2.990200	3.342400	-9.993800	26.214869	0.000556	20.823516
1796.509070	-3.001400	3.342600	-10.031000	26.161349	0.000555	20.821419
1797.508767	-3.013300	3.342200	-10.070000	26.140238	0.000555	20.818697
1798.511047	-3.011400	3.340900	-10.060000	26.148931	0.000556	20.810363
1799.511127	-3.012700	3.340400	-10.062000	26.142028	0.000553	20.815754
1800.509161	-2.987100	3.341900	-9.981300	26.152434	0.000556	20.798710
1801.512761	-3.002600	3.339300	-10.026000	26.165399	0.000553	20.828807
1802.510275	-2.998100	3.339200	-10.010000	26.209903	0.000554	20.806198
1803.508330	-2.983000	3.338900	-9.958800	26.212807	0.000552	20.813858
1804.512959	-2.986100	3.338100	-9.966900	26.246755	0.000551	20.810513
1805.510122	-2.995600	3.339600	-10.003000	26.267914	0.000552	20.816130
1806.510160	-3.006400	3.338100	-10.035000	26.279435	0.000549	20.790250
1807.510917	-2.979100	3.338600	-9.945300	26.309384	0.000554	20.799011
1808.513993	-3.011700	3.337200	-10.050000	26.281200	0.000550	20.808619
1809.511373	-2.995000	3.337800	-9.995700	26.257706	0.000551	20.802079
1810.511491	-2.983100	3.336800	-9.952300	26.201757	0.000549	20.821245
1811.510952	-3.003500	3.336100	-10.019000	26.210400	0.000549	20.801956
1812.511025	-3.014500	3.334800	-10.052000	26.216037	0.000546	20.792922
1813.511912	-2.995400	3.335900	-9.990700	26.252194	0.000545	20.806023
1814.512301	-3.010500	3.333800	-10.036000	26.273873	0.000546	20.801730
1815.513927	-2.984800	3.336600	-9.958300	26.278541	0.000545	20.788404
1816.517533	-2.985700	3.334500	-9.954700	26.275239	0.000544	20.778446
1817.512917	-2.985000	3.333600	-9.949200	26.278816	0.000544	20.827560
1818.512394	-2.996800	3.334100	-9.989900	26.288973	0.000544	20.796042
1819.514161	-3.009900	3.332500	-10.029000	26.333246	0.000544	20.818250
1820.513206	-3.024500	3.332800	-10.079000	26.353857	0.000544	20.805774
1821.513709	-2.989100	3.333900	-9.963600	26.317949	0.000542	20.771108
1822.517342	-3.020700	3.330200	-10.059000	26.325972	0.000544	20.774430
1823.515052	-2.998600	3.332300	-9.990100	26.323613	0.000540	20.793396
1824.514075	-3.024900	3.329800	-10.071000	26.353309	0.000540	20.797162
1825.516436	-3.019100	3.330300	-10.054000	26.364731	0.000540	20.772132
1826.514904	-2.974000	3.331100	-9.905300	26.342780	0.000540	20.775200
1827.515380	-3.006700	3.329400	-10.009000	26.324355	0.000540	20.783236
1828.514954	-3.016100	3.328800	-10.039000	26.297686	0.000540	20.791048
1829.518572	-2.993600	3.330600	-9.970200	26.289192	0.000539	20.796736
1830.516715	-2.974900	3.330800	-9.908100	26.298902	0.000536	20.813133
1831.517423	-3.014000	3.330100	-10.036000	26.353334	0.000536	20.776798
1832.518736	-3.003400	3.329500	-9.998600	26.346429	0.000535	20.810637
1833.516021	-3.020100	3.329800	-10.056000	26.325843	0.000534	20.777145
1834.518024	-3.003800	3.327700	-9.995500	26.338432	0.000536	20.786478
1835.523307	-2.979000	3.328900	-9.916200	26.328227	0.000533	20.793291
1836.520019	-2.992400	3.327900	-9.958100	26.345783	0.000535	20.783434
1837.517187	-3.018100	3.326300	-10.038000	26.338060	0.000533	20.791320
1838.517434	-2.999100	3.327600	-9.979000	26.346155	0.000533	20.795188
1839.517736	-2.989900	3.327900	-9.948500	26.375428	0.000535	20.783357
1840.517698	-2.988400	3.325900	-9.938100	26.389509	0.000532	20.774749
1841.520414	-2.973200	3.327700	-9.891700	26.414165	0.000531	20.781039
1842.518106	-2.990800	3.326200	-9.947200	26.408999	0.000531	20.769207
1843.522762	-2.965900	3.325100	-9.860900	26.417815	0.000532	20.791345
1844.519929	-2.978300	3.326200	-9.905500	26.392911	0.000528	20.792393
1845.518425	-3.003500	3.324100	-9.982800	26.362915	0.000531	20.790695
1846.522541	-2.980500	3.326000	-9.912400	26.349011	0.000529	20.802800
1847.518197	-3.024600	3.323700	-10.052000	26.378658	0.000529	20.778068
1848.518970	-3.008200	3.322600	-9.993400	26.391296	0.000528	20.792193
1849.518792	-2.987900	3.323200	-9.927500	26.426134	0.000528	20.779792
1850.518898	-2.984500	3.323400	-9.918500	26.472861	0.000527	20.766540
1851.518123	-2.999600	3.322000	-9.963400	26.499056	0.000524	20.771532
1852.520337	-2.989900	3.322800	-9.933700	26.504542	0.000527	20.772779
1853.517857	-2.988000	3.322500	-9.926600	26.558414	0.000527	20.767188
1854.518712	-3.005600	3.321300	-9.981300	26.542131	0.000526	20.772157
1855.519908	-3.003600	3.320900	-9.974000	26.549801	0.000524	20.777022
1856.519882	-2.986200	3.321800	-9.918300	26.508862	0.000523	20.771432
1857.522187	-2.994200	3.322100	-9.945900	26.470056	0.000526	20.770358
1858.520981	-3.002000	3.320800	-9.968100	26.436811	0.000523	20.765393
1859.522563	-2.982300	3.320100	-9.900400	26.415857	0.000524	20.765669
1860.521163	-3.006200	3.319100	-9.976600	26.423303	0.000521	20.784059
1861.523417	-3.001700	3.319300	-9.963000	26.446346	0.000523	20.764545
1862.519725	-2.992700	3.319100	-9.930900	26.484954	0.000520	20.770634
1863.521444	-3.006700	3.319000	-9.977900	26.525769	0.000521	20.776573
1864.521759	-2.977100	3.319600	-9.880200	26.506481	0.000520	20.772832
1865.520556	-2.997500	3.317100	-9.942300	26.472761	0.000520	20.764069
1866.520735	-2.996800	3.316600	-9.937500	26.498981	0.000518	20.773828
1867.524256	-3.023400	3.317400	-10.028000	26.491508	0.000517	20.740711
1868.519710	-3.012000	3.316100	-9.986100	26.542900	0.000520	20.775301
1869.519542	-2.990100	3.316600	-9.916500	26.496869	0.000516	20.774077
1870.524591	-2.990100	3.316100	-9.914400	26.440286	0.000517	20.754187
1871.519091	-3.014500	3.316000	-9.994600	26.410815	0.000516	20.765817
1872.521119	-3.000200	3.315200	-9.945800	26.393063	0.000517	20.766941
1873.524266	-2.990000	3.314900	-9.910100	26.422981	0.000514	20.777571
1874.519825	-2.995500	3.314000	-9.925800	26.422782	0.000514	20.751291
1875.521695	-2.982600	3.314900	-9.886000	26.402496	0.000513	20.768836
1876.521551	-2.972600	3.313800	-9.849600	26.375185	0.000515	20.759879
1877.522442	-2.987900	3.313900	-9.899700	26.347772	0.000510	20.767889
1878.525294	-2.990200	3.314900	-9.910100	26.357008	0.000514	20.757731
1879.520297	-3.009500	3.312900	-9.968200	26.365625	0.000514	20.758805
1880.527674	-3.006700	3.313400	-9.961000	26.405106	0.000513	20.747751
1881.526744	-3.003800	3.312000	-9.947500	26.470802	0.000510	20.765418
1882.524175	-2.997100	3.310500	-9.920400	26.475818	0.000510	20.760503
1883.525117	-3.008500	3.312100	-9.962000	26.482273	0.000510	20.752292
1884.525296	-3.002800	3.311100	-9.940400	26.455509	0.000508	20.761427
1885.522088	-3.026700	3.310800	-10.019000	26.450320	0.000507	20.745779
1886.523300	-3.021300	3.310700	-10.002000	26.481182	0.000507	20.753566
1887.523038	-3.007400	3.310400	-9.954700	26.494862	0.000510	20.761627
1888.524205	-3.005400	3.309800	-9.945400	26.503900	0.000510	20.741787
1889.526565	-3.003900	3.309600	-9.941200	26.468445	0.000507	20.748350
1890.526481	-3.007800	3.308900	-9.951700	26.439000	0.000508	20.763800
1891.527904	-3.008900	3.308000	-9.951500	26.462562	0.000508	20.759981
1892.525432	-2.982900	3.310200	-9.872900	26.484087	0.000506	20.764547
1893.528255	-3.007800	3.309100	-9.952000	26.491313	0.000505	20.753792
1894.529383	-3.010200	3.307600	-9.955400	26.467826	0.000505	20.747728
1895.526953	-3.009000	3.307700	-9.951600	26.483244	0.000505	20.752319
1896.525611	-3.019600	3.306400	-9.982100	26.502935	0.000504	20.754569
1897.525090	-3.027700	3.305700	-10.007000	26.501716	0.000504	20.754765
1898.526299	-3.012400	3.306100	-9.957100	26.486128	0.000503	20.755693
1899.525037	-2.978700	3.307600	-9.850100	26.472221	0.000501	20.759733
1900.531222	-3.000300	3.305800	-9.917300	26.501421	0.000504	20.762530
1901.525380	-2.989500	3.306000	-9.882500	26.454619	0.000500	20.767645
1902.525282	-3.011200	3.305200	-9.951400	26.466093	0.000503	20.751202
1903.526113	-3.016700	3.303100	-9.962900	26.452732	0.000498	20.757213
1904.525443	-3.034100	3.302500	-10.019000	26.482479	0.000498	20.749654
1905.528263	-2.998000	3.304900	-9.907500	26.490349	0.000497	20.750926
1906.525685	-2.982300	3.304400	-9.854600	26.506265	0.000498	20.757441
1907.525595	-2.991600	3.304400	-9.884800	26.510360	0.000496	20.745436
1908.525336	-2.989800	3.304000	-9.877000	26.499683	0.000498	20.750826
1909.526623	-3.004400	3.303100	-9.922700	26.454177	0.000494	20.757717
1910.528746	-2.991500	3.302600	-9.878800	26.446057	0.000496	20.739598
1911.527246	-3.012500	3.301500	-9.944700	26.455143	0.000495	20.738773
1912.528278	-2.990100	3.301500	-9.870300	26.462940	0.000494	20.739972
1913.527442	-2.986800	3.302100	-9.861300	26.468055	0.000493	20.749380
1914.528025	-2.995000	3.300800	-9.883500	26.442880	0.000495	20.761061
1915.527368	-2.983900	3.301000	-9.849400	26.431658	0.000495	20.740298
1916.530222	-2.989400	3.301300	-9.867600	26.481363	0.000492	20.741894
1917.528419	-3.015900	3.299700	-9.949800	26.505321	0.000495	20.740371
1918.529874	-3.014700	3.299500	-9.945900	26.516270	0.000488	20.750903
1919.529150	-3.001400	3.299100	-9.901200	26.549290	0.000491	20.742842
1920.531879	-3.004700	3.299400	-9.912800	26.541321	0.000490	20.754272
1921.530956	-3.000300	3.298400	-9.895600	26.538987	0.000488	20.761884
1922.529319	-3.001400	3.297000	-9.894600	26.546659	0.000490	20.727869
1923.533354	-3.003100	3.296900	-9.899300	26.575383	0.000489	20.757218
1924.528278	-2.995400	3.297200	-9.875900	26.566520	0.000488	20.755895
1925.529822	-3.002700	3.298100	-9.901700	26.593828	0.000487	20.763432
1926.528885	-2.996600	3.296200	-9.876500	26.586628	0.000485	20.778480
1927.533053	-2.975000	3.297400	-9.807900	26.604504	0.000485	20.747611
1928.530160	-3.012000	3.296500	-9.928400	26.636004	0.000484	20.758415
1929.530687	-3.015400	3.296700	-9.939900	26.643752	0.000482	20.767152
1930.530665	-3.001500	3.295300	-9.889700	26.653952	0.000484	20.776932
1931.531868	-2.986700	3.296700	-9.845500	26.648716	0.000484	20.752702
1932.536181	-2.996100	3.294900	-9.870900	26.611752	0.000484	20.768174
1933.537180	-3.027500	3.294200	-9.972700	26.591867	0.000482	20.771892
1934.533507	-3.003000	3.294100	-9.891000	26.567389	0.000484	20.767674
1935.533861	-3.013300	3.294600	-9.926100	26.574067	0.000483	20.767276
1936.535672	-2.979500	3.295000	-9.816000	26.585984	0.000480	20.794428
1937.536754	-3.004200	3.293200	-9.891800	26.629551	0.000482	20.775635
1938.535346	-3.008000	3.292800	-9.903100	26.623793	0.000478	20.767476
1939.535635	-3.013900	3.291500	-9.919400	26.638489	0.000481	20.755697
1940.533659	-2.995800	3.293000	-9.864400	26.632358	0.000477	20.757120
1941.534904	-3.021900	3.290500	-9.941900	26.641469	0.000477	20.758693
1942.536731	-2.981700	3.291500	-9.813700	26.686695	0.000477	20.734457
1943.537187	-2.986000	3.291900	-9.828600	26.715639	0.000477	20.750755
1944.538042	-3.000700	3.290900	-9.874000	26.720605	0.000476	20.760015
1945.536565	-2.999100	3.289500	-9.864600	26.697096	0.000475	20.774313
1946.537211	-3.007000	3.289800	-9.890500	26.694491	0.000475	20.784022
1947.537357	-3.007000	3.288900	-9.888500	26.635535	0.000473	20.778806
1948.543685	-3.016700	3.288400	-9.919800	26.614235	0.000476	20.758816
1949.541771	-2.999300	3.288600	-9.863000	26.581639	0.000470	20.772042
1950.541608	-2.996800	3.288600	-9.853000	26.607631	0.000471	20.766877
1951.539514	-2.979200	3.288400	-9.795400	26.624886	0.000473	20.780903
1952.538978	-2.987400	3.288300	-9.821900	26.645217	0.000469	20.778108
1953.542219	-3.002500	3.288700	-9.872900	26.683718	0.000473	20.780304
1954.546088	-2.998000	3.287800	-9.856100	26.693770	0.000473	20.779503
1955.540793	-2.997600	3.287900	-9.855000	26.656809	0.000469	20.761786
1956.542764	-3.008800	3.285800	-9.885200	26.589411	0.000472	20.761362
1957.540518	-2.989700	3.287700	-9.828200	26.613641	0.000472	20.767228
1958.541704	-2.997300	3.285800	-9.847700	26.586383	0.000470	20.777759
1959.544096	-3.006400	3.285600	-9.877300	26.620915	0.000467	20.774541
1960.541889	-3.018400	3.284700	-9.912400	26.666913	0.000470	20.755822
1961.552299	-3.004700	3.285300	-9.870100	26.690942	0.000467	20.786144
1962.540419	-3.006400	3.284900	-9.873200	26.712662	0.000469	20.768625
1963.541774	-2.997700	3.284600	-9.845800	26.678455	0.000468	20.784496
1964.545345	-2.996700	3.283200	-9.837900	26.648222	0.000468	20.783974
1965.543143	-3.011300	3.283300	-9.884900	26.636779	0.000465	20.783850
1966.545688	-3.005600	3.282900	-9.864700	26.648172	0.000461	20.771595
1967.542877	-2.990300	3.284000	-9.819200	26.616223	0.000464	20.772669
1968.544582	-2.996900	3.282600	-9.836600	26.566697	0.000464	20.773617
1969.543319	-3.015200	3.281600	-9.893200	26.575237	0.000461	20.782202
1970.547482	-3.006400	3.282300	-9.867300	26.562674	0.000459	20.778582
1971.543650	-2.989100	3.281500	-9.807800	26.564388	0.000461	20.775090
1972.544334	-2.984300	3.282100	-9.793700	26.528192	0.000459	20.775215
1973.542444	-3.000300	3.280500	-9.842000	26.554360	0.000459	20.775915
1974.543087	-2.996000	3.279600	-9.824700	26.596910	0.000460	20.774117
1975.547256	-2.973000	3.280100	-9.749500	26.600883	0.000459	20.764360
1976.542840	-2.994500	3.280900	-9.824100	26.650582	0.000457	20.792036
1977.548685	-3.017200	3.278200	-9.890300	26.696751	0.000456	20.780130
1978.544695	-2.993800	3.280200	-9.819000	26.706236	0.000457	20.787769
1979.543242	-3.009600	3.277200	-9.861300	26.708519	0.000456	20.790539
1980.544895	-2.993500	3.277700	-9.810900	26.749029	0.000458	20.803765
1981.546161	-3.012500	3.276000	-9.866500	26.792343	0.000456	20.773346
1982.544150	-3.008200	3.276100	-9.853200	26.827166	0.000454	20.790340
1983.544817	-2.993800	3.277100	-9.809900	26.802718	0.000455	20.779510
1984.544257	-3.005700	3.276700	-9.847200	26.827316	0.000454	20.797129
1985.545766	-3.012800	3.276100	-9.868000	26.862756	0.000453	20.810004
1986.556272	-2.998000	3.276300	-9.821700	26.871495	0.000451	20.793187
1987.546687	-3.013200	3.274000	-9.864200	26.842184	0.000450	20.817294
1988.550102	-2.977600	3.274500	-9.749000	26.832877	0.000449	20.791341
1989.547223	-2.992500	3.275100	-9.799600	26.792717	0.000450	20.802171
1990.549531	-3.001800	3.274300	-9.826700	26.736819	0.000448	20.811404
1991.554770	-2.995300	3.274200	-9.805600	26.683327	0.000449	20.785601
1992.550182	-2.999100	3.273900	-9.817100	26.687570	0.000447	20.783228
1993.552804	-3.008400	3.271900	-9.842000	26.672502	0.000448	20.798426
1994.550717	-2.980500	3.274200	-9.757700	26.684842	0.000445	20.805142
1995.549881	-3.007500	3.272600	-9.841500	26.693976	0.000445	20.798677
1996.550941	-3.000100	3.272200	-9.816000	26.722820	0.000448	20.793536
1997.551218	-3.028800	3.270100	-9.902800	26.714877	0.000446	20.813526
1998.553049	-2.975000	3.271500	-9.731800	26.773380	0.000443	20.786048
1999.555243	-3.016700	3.270300	-9.864900	26.798699	0.000444	20.805814
2000.552706	-3.008700	3.271000	-9.840000	26.857024	0.000445	20.793810
2001.550668	-3.002100	3.269600	-9.814100	26.860053	0.000441	20.814399
2002.559003	-3.021200	3.268600	-9.873800	26.838608	0.000442	20.793311
2003.553796	-2.991600	3.269500	-9.780000	26.842184	0.000440	20.799276
2004.554941	-3.005900	3.269900	-9.827600	26.803240	0.000441	20.796156
2005.553995	-3.002300	3.270100	-9.816500	26.767349	0.000440	20.795631
2006.553528	-3.007100	3.268300	-9.826900	26.742553	0.000440	20.776865
2007.559371	-2.988200	3.267800	-9.763600	26.706658	0.000437	20.793409
2008.560260	-3.010600	3.268200	-9.838600	26.665800	0.000437	20.820137
2009.556658	-2.983800	3.269000	-9.752700	26.682380	0.000438	20.799821
2010.557516	-3.018300	3.266500	-9.857500	26.669720	0.000435	20.817914
2011.558331	-2.994100	3.267300	-9.781700	26.675185	0.000436	20.803019
2012.558512	-3.035200	3.264400	-9.907100	26.668085	0.000436	20.828598
2013.562447	-2.999300	3.267300	-9.798700	26.674412	0.000434	20.804613
2014.558220	-3.009100	3.265300	-9.824100	26.716165	0.000435	20.798700
2015.561244	-2.981800	3.266300	-9.738900	26.749276	0.000434	20.807332
2016.558329	-2.992300	3.264400	-9.767400	26.771940	0.000432	20.809256
2017.558288	-2.982400	3.265700	-9.737100	26.790605	0.000433	20.812375
2018.561344	-2.992600	3.264700	-9.768600	26.783875	0.000431	20.820782
2019.558046	-2.994400	3.264700	-9.773700	26.765610	0.000430	20.819961
2020.558576	-3.014700	3.263700	-9.838200	26.773230	0.000431	20.796803
2021.559399	-3.008100	3.263100	-9.814100	26.787229	0.000429	20.806610
2022.558751	-3.011600	3.263700	-9.827600	26.790255	0.000429	20.819610
2023.558272	-3.014800	3.262100	-9.833500	26.847342	0.000430	20.823428
2024.564754	-2.992600	3.263800	-9.765600	26.847020	0.000426	20.831639
2025.559922	-2.998000	3.260700	-9.774700	26.865261	0.000426	20.813471
2026.561880	-2.981600	3.261500	-9.724700	26.883876	0.000426	20.831240
2027.560507	-3.000500	3.260200	-9.779800	26.847913	0.000426	20.808356
2028.558947	-2.997800	3.261000	-9.774500	26.823761	0.000424	20.823426
2029.568068	-3.017300	3.259100	-9.833100	26.850196	0.000424	20.823928
2030.560346	-3.030900	3.258000	-9.872800	26.866254	0.000424	20.803564
2031.562467	-3.004200	3.259800	-9.792100	26.895688	0.000422	20.820358
2032.562687	-3.016600	3.258500	-9.827900	26.952718	0.000424	20.810376
2033.561447	-2.990200	3.259300	-9.745200	26.959245	0.000423	20.845861
2034.567369	-2.969500	3.259200	-9.675600	26.958028	0.000422	20.815715
2035.566805	-3.009300	3.257400	-9.801800	26.929938	0.000422	20.840098
2036.561703	-3.012600	3.257200	-9.811700	26.969147	0.000420	20.814568
2037.562226	-2.996100	3.257500	-9.759200	26.956293	0.000418	20.821557
2038.561811	-2.992100	3.257100	-9.744500	26.972819	0.000419	20.829640
2039.561874	-2.991100	3.257900	-9.743700	26.928398	0.000419	20.839025
2040.564609	-3.016400	3.256000	-9.821000	26.900154	0.000417	20.839547
2041.559722	-3.009500	3.255500	-9.794700	26.853393	0.000414	20.827142
2042.563101	-3.017700	3.254400	-9.819300	26.849425	0.000417	20.830739
2043.561337	-3.025900	3.253700	-9.844100	26.850815	0.000417	20.816015
2044.561746	-2.995400	3.255200	-9.749500	26.891915	0.000414	20.832211
2045.564861	-2.977700	3.254600	-9.690300	26.929339	0.000414	20.826695
2046.563787	-2.982000	3.254100	-9.702900	26.925295	0.000414	20.827844
2047.564035	-2.996300	3.253700	-9.746900	26.876229	0.000412	20.828767
2048.564128	-3.003500	3.252300	-9.766700	26.849026	0.000413	20.852622
2049.564528	-3.006800	3.252300	-9.778300	26.821403	0.000409	20.856142
2050.567135	-3.010200	3.252700	-9.790400	26.791593	0.000411	20.855567
2051.562540	-3.011900	3.250500	-9.788900	26.796731	0.000409	20.826595
2052.563169	-3.003200	3.251000	-9.761600	26.813112	0.000408	20.832159
2053.564461	-2.960400	3.253500	-9.631000	26.808818	0.000409	20.835428
2054.565198	-2.993400	3.251000	-9.730600	26.773199	0.000407	20.849876
2055.570013	-3.009000	3.250900	-9.779800	26.754632	0.000409	20.844485
2056.565958	-3.016700	3.249800	-9.802400	26.768011	0.000405	20.837074
2057.567644	-3.004400	3.248500	-9.758200	26.811770	0.000406	20.868266
2058.565451	-3.013100	3.248900	-9.788300	26.883945	0.000405	20.838421
2059.565525	-2.994500	3.249200	-9.728700	26.882480	0.000405	20.854491
2060.569684	-3.008800	3.247900	-9.771500	26.961326	0.000403	20.849850
2061.566741	-2.990300	3.248900	-9.714500	27.036542	0.000403	20.849151
2062.565828	-2.998500	3.247900	-9.738300	27.056865	0.000402	20.843985
2063.568168	-3.007300	3.247000	-9.764100	27.095648	0.000401	20.858333
2064.568759	-3.000700	3.246200	-9.740400	27.139096	0.000403	20.838494
2065.567123	-2.997400	3.246900	-9.730800	27.144058	0.000399	20.854863
2066.567855	-2.992000	3.246700	-9.712800	27.162693	0.000399	20.859855
2067.568485	-2.998900	3.245900	-9.733800	27.133414	0.000402	20.845107
2068.570632	-2.987600	3.247200	-9.699900	27.097459	0.000400	20.851620
2069.567549	-3.024300	3.244600	-9.811400	27.089021	0.000395	20.838392
2070.568305	-3.003900	3.242300	-9.738200	27.043886	0.000397	20.871708
2071.569264	-2.972300	3.243500	-9.639500	27.043465	0.000396	20.848052
2072.567719	-2.999900	3.243800	-9.729600	27.091204	0.000396	20.835846
2073.570061	-3.006600	3.242000	-9.746300	27.094653	0.000397	20.856858
2074.567357	-3.020600	3.240400	-9.786600	27.136390	0.000395	20.877496
2075.569842	-3.009200	3.240300	-9.748100	27.153260	0.000393	20.857954
2076.567326	-3.004500	3.242000	-9.740400	27.138845	0.000395	20.865741
2077.571362	-3.003300	3.240800	-9.732700	27.167577	0.000395	20.869035
2078.572443	-2.980600	3.241200	-9.659200	27.153956	0.000392	20.863870
2079.569982	-2.961400	3.240700	-9.597000	27.106911	0.000391	20.876297
2080.569874	-2.996700	3.239500	-9.706800	27.114155	0.000390	20.873626
2081.568850	-2.987300	3.240800	-9.679700	27.161449	0.000391	20.877569
2082.576219	-2.967800	3.240700	-9.616500	27.157376	0.000388	20.853086
2083.568850	-3.018600	3.238600	-9.774300	27.155270	0.000387	20.859976
2084.572613	-2.991300	3.238800	-9.686300	27.132317	0.000387	20.866288
2085.571281	-3.017000	3.237800	-9.766900	27.139339	0.000387	20.868609
2086.571082	-3.014500	3.236800	-9.754800	27.133831	0.000384	20.876345
2087.575411	-2.984900	3.238600	-9.666200	27.165739	0.000386	20.871928
2088.572257	-2.992300	3.239300	-9.692300	27.144475	0.000384	20.878041
2089.572101	-3.005000	3.237000	-9.724900	27.173531	0.000383	20.871230
2090.573930	-3.000600	3.236300	-9.710000	27.169835	0.000384	20.889322
2091.572260	-2.997000	3.237100	-9.699600	27.181867	0.000383	20.868709
2092.574618	-3.012400	3.235800	-9.747000	27.174053	0.000381	20.891667
2093.573355	-2.975900	3.237300	-9.632400	27.220224	0.000382	20.884054
2094.573342	-2.994700	3.233500	-9.682700	27.210524	0.000379	20.869557
2095.573850	-2.994700	3.233200	-9.681300	27.153707	0.000380	20.883532
2096.574514	-2.992200	3.233500	-9.674200	27.149835	0.000379	20.874423
2097.585997	-3.007500	3.233700	-9.723100	27.162140	0.000379	20.878264
2098.578718	-2.983100	3.233000	-9.643500	27.172314	0.000379	20.898453
2099.575010	-2.989000	3.233400	-9.663800	27.179064	0.000376	20.879639
2100.573763	-3.026100	3.231300	-9.777400	27.203478	0.000375	20.899926
2101.575376	-2.996400	3.232400	-9.685500	27.215909	0.000375	20.878292
2102.575636	-3.018400	3.231100	-9.752100	27.244984	0.000375	20.893785
2103.579700	-2.982100	3.231100	-9.634500	27.257911	0.000374	20.883555
2104.576678	-3.006900	3.229400	-9.709100	27.258307	0.000373	20.886324
2105.577342	-3.009300	3.230300	-9.719100	27.269075	0.000374	20.892413
2106.577457	-2.973700	3.230800	-9.606900	27.275998	0.000374	20.884679
2107.579864	-3.002200	3.230200	-9.695800	27.269075	0.000372	20.896680
2108.587518	-2.998000	3.229200	-9.679600	27.312765	0.000370	20.876145
2109.581271	-2.990600	3.228900	-9.655000	27.274978	0.000371	20.865162
2110.580733	-2.985800	3.229000	-9.639000	27.246249	0.000371	20.909754
2111.580006	-3.020300	3.227200	-9.745600	27.245208	0.000367	20.901122
2112.581786	-3.007500	3.227000	-9.704100	27.234738	0.000368	20.902444
2113.579115	-3.003200	3.227300	-9.690800	27.230196	0.000366	20.890765
2114.583102	-2.999900	3.226100	-9.676800	27.264186	0.000367	20.894608
2115.581839	-3.003500	3.225600	-9.687300	27.263194	0.000370	20.890765
2116.582638	-2.992900	3.226000	-9.652900	27.236474	0.000368	20.885226
2117.578804	-2.983400	3.225600	-9.622200	27.233940	0.000363	20.886471
2118.579050	-3.002300	3.225100	-9.680500	27.213149	0.000364	20.910126
2119.582717	-3.012200	3.223400	-9.708100	27.206279	0.000364	20.908432
2120.579948	-3.000700	3.223300	-9.671500	27.193030	0.000363	20.918338
2121.583461	-3.004900	3.223700	-9.685800	27.184941	0.000365	20.911626
2122.582784	-3.009300	3.222200	-9.695400	27.198188	0.000364	20.911674
2123.580883	-3.001000	3.221800	-9.667300	27.222826	0.000361	20.895205
2124.581954	-3.016300	3.223000	-9.720000	27.263167	0.000360	20.924399
2125.584989	-3.012100	3.220400	-9.699600	27.273439	0.000359	20.909604
2126.585459	-3.002000	3.220600	-9.666900	27.315738	0.000359	20.907108
2127.580887	-2.998200	3.220300	-9.653800	27.277333	0.000359	20.902141
2128.580424	-3.022900	3.219500	-9.731100	27.273959	0.000359	20.908230
2129.583190	-2.998500	3.219400	-9.652200	27.281922	0.000357	20.934255
2130.582833	-3.000200	3.219400	-9.657700	27.276540	0.000356	20.910826
2131.581870	-3.003800	3.220500	-9.671700	27.291053	0.000353	20.907407
2132.584482	-2.980100	3.218800	-9.590800	27.290382	0.000355	20.910999
2133.581238	-2.988500	3.218500	-9.617200	27.333326	0.000354	20.909153
2134.583495	-3.002000	3.217600	-9.657500	27.304722	0.000356	20.928267
2135.585678	-3.007700	3.216600	-9.673200	27.266716	0.000351	20.934132
2136.583736	-2.979500	3.217600	-9.585700	27.229449	0.000353	20.922726
2137.581172	-2.986500	3.216100	-9.603600	27.179307	0.000351	20.918760
2138.580156	-3.003900	3.215700	-9.659300	27.159283	0.000352	20.929913
2139.585707	-3.016600	3.216000	-9.700300	27.154296	0.000349	20.913994
2140.582630	-3.006700	3.215400	-9.665900	27.167546	0.000352	20.920682
2141.582297	-3.020300	3.215700	-9.711100	27.220864	0.000349	20.939694
2142.583151	-2.997600	3.213100	-9.630400	27.270065	0.000349	20.929915
2143.582746	-2.986800	3.214100	-9.599200	27.309808	0.000348	20.917737
2144.583132	-3.015100	3.212200	-9.683900	27.306114	0.000348	20.938200
2145.586032	-2.983900	3.212900	-9.585500	27.345533	0.000345	20.923802
2146.583637	-2.978300	3.211700	-9.564100	27.366397	0.000345	20.925350
2147.581670	-3.015700	3.212000	-9.685200	27.356798	0.000345	20.929443
2148.582559	-2.979300	3.212500	-9.570600	27.385053	0.000346	20.924203
2149.583043	-3.018100	3.210800	-9.688200	27.399218	0.000345	20.909057
2150.590856	-3.004700	3.210700	-9.644800	27.422809	0.000343	20.907185
2151.584345	-3.005600	3.211000	-9.649800	27.419190	0.000342	20.945740
2152.588379	-3.000800	3.209900	-9.631100	27.458628	0.000344	20.919512
2153.584988	-3.004200	3.209000	-9.638800	27.434344	0.000342	20.918315
2154.588683	-3.005800	3.209400	-9.645800	27.425910	0.000341	20.926425
2155.587067	-3.004100	3.207500	-9.633700	27.427277	0.000341	20.909310
2156.588917	-3.026900	3.206400	-9.704800	27.400065	0.000339	20.925554
2157.586074	-2.996700	3.208400	-9.614100	27.349433	0.000339	20.917294
2158.586205	-2.998000	3.208000	-9.616100	27.349854	0.000339	20.917718
2159.585826	-3.005800	3.206700	-9.636600	27.381509	0.000336	20.917319
2160.590904	-2.999100	3.206700	-9.616600	27.391132	0.000338	20.919414
2161.587205	-2.999100	3.207700	-9.618900	27.373000	0.000335	20.936732
2162.590477	-3.011000	3.204300	-9.647400	27.366426	0.000334	20.912578
2163.588222	-3.001200	3.204100	-9.615300	27.348442	0.000334	20.908238
2164.589144	-2.987300	3.204200	-9.570800	27.323658	0.000332	20.905118
2165.597915	-2.971300	3.204600	-9.520700	27.344572	0.000333	20.896759
2166.588853	-3.000600	3.202600	-9.609200	27.363029	0.000332	20.909161
2167.588638	-3.009100	3.201200	-9.631900	27.416686	0.000332	20.910983
2168.589232	-2.974200	3.203700	-9.527100	27.433406	0.000333	20.927328
2169.590182	-3.031400	3.201800	-9.704600	27.444321	0.000332	20.894215
2170.594913	-2.999600	3.201200	-9.601400	27.437126	0.000330	20.901202
2171.593163	-3.009700	3.200400	-9.630800	27.397386	0.000329	20.890147
2172.595035	-3.004300	3.200600	-9.614600	27.419738	0.000331	20.916897
2173.590394	-3.020000	3.200000	-9.663400	27.331870	0.000328	20.886354
2174.590715	-3.019300	3.199900	-9.661100	27.325246	0.000327	20.895811
2175.593554	-3.017100	3.198000	-9.647600	27.342165	0.000324	20.902873
2176.592746	-3.006400	3.199200	-9.615800	27.378336	0.000326	20.898482
2177.590618	-3.010000	3.197300	-9.622500	27.451837	0.000324	20.890871
2178.594042	-2.990600	3.197800	-9.562700	27.454019	0.000325	20.905868
2179.591403	-2.977900	3.197900	-9.521800	27.456871	0.000324	20.880765
2180.591866	-2.992300	3.198000	-9.568100	27.464165	0.000322	20.887154
2181.596803	-3.004400	3.195700	-9.599700	27.506506	0.000322	20.881389
2182.591750	-3.001600	3.196300	-9.592100	27.549418	0.000324	20.876201
2183.592630	-2.993400	3.196300	-9.566000	27.570400	0.000321	20.908689
2184.591319	-2.991300	3.195600	-9.557900	27.624864	0.000321	20.896162
2185.590763	-3.002900	3.195900	-9.596000	27.625460	0.000319	20.876374
2186.591622	-2.995200	3.194700	-9.567600	27.606389	0.000319	20.888952
2187.593168	-3.018000	3.193300	-9.636600	27.564646	0.000319	20.902426
2188.591699	-3.011700	3.192400	-9.612900	27.559041	0.000317	20.897261
2189.598744	-3.002900	3.192500	-9.585600	27.605544	0.000317	20.891895
2190.594439	-2.993900	3.191300	-9.553500	27.610605	0.000317	20.884660
2191.593681	-2.991600	3.194400	-9.555700	27.596468	0.000318	20.878022
2192.598450	-2.997200	3.192600	-9.567500	27.620302	0.000315	20.874503
2193.592885	-3.004300	3.192600	-9.589900	27.633423	0.000315	20.874430
2194.596092	-2.983500	3.191700	-9.521300	27.648874	0.000315	20.889027
2195.593136	-3.011100	3.190400	-9.604900	27.668540	0.000315	20.896962
2196.596241	-3.000000	3.189500	-9.567500	27.653214	0.000312	20.864947
2197.594002	-3.009300	3.189100	-9.595400	27.596443	0.000313	20.877997
2198.595626	-3.004100	3.189200	-9.579800	27.560679	0.000311	20.869987
2199.593327	-3.010600	3.188400	-9.598400	27.510727	0.000311	20.877101
2200.592728	-2.982900	3.189600	-9.513000	27.524616	0.000311	20.886807
2201.597466	-2.994000	3.186500	-9.539200	27.563928	0.000310	20.884635
2202.597306	-3.023200	3.185000	-9.627500	27.579827	0.000309	20.878822
2203.602273	-3.011200	3.186100	-9.593200	27.595106	0.000309	20.875704
2204.595211	-3.005100	3.186000	-9.573500	27.626901	0.000308	20.890625
2205.595576	-2.996700	3.183000	-9.537100	27.652893	0.000307	20.865572
2206.595146	-2.994900	3.185600	-9.539700	27.649098	0.000305	20.879296
2207.597695	-2.983500	3.185600	-9.501900	27.631217	0.000305	20.883114
2208.596936	-2.982800	3.184200	-9.496400	27.630843	0.000304	20.885583
2209.603378	-3.025500	3.183800	-9.631100	27.617572	0.000303	20.860377
2210.597619	-2.974500	3.182800	-9.466300	27.591035	0.000303	20.849324
2211.597581	-2.996700	3.181000	-9.532100	27.591581	0.000303	20.867890
2212.604473	-2.989800	3.181700	-9.511400	27.585109	0.000303	20.867541
2213.597526	-3.003600	3.180200	-9.551000	27.630694	0.000302	20.870735
2214.597116	-3.014100	3.179400	-9.580700	27.624763	0.000302	20.874250
2215.596640	-2.985000	3.178700	-9.486300	27.604253	0.000302	20.870209
2216.598781	-2.959600	3.179700	-9.409800	27.590539	0.000299	20.858307
2217.598484	-3.002000	3.178700	-9.541300	27.589296	0.000297	20.879340
2218.598552	-3.020400	3.180300	-9.603900	27.582997	0.000298	20.883434
2219.599761	-3.007200	3.177300	-9.553600	27.517715	0.000298	20.866115
2220.598162	-2.988200	3.177200	-9.492700	27.465996	0.000298	20.885677
2221.600927	-2.995500	3.176600	-9.514900	27.483708	0.000297	20.844230
2222.600831	-2.998200	3.175800	-9.520300	27.463864	0.000298	20.858403
2223.599960	-3.020000	3.175600	-9.589500	27.459273	0.000295	20.862794
2224.597998	-2.998700	3.174600	-9.518700	27.421816	0.000296	20.880111
2225.598875	-2.987800	3.175700	-9.487700	27.440496	0.000296	20.873774
2226.597999	-2.994300	3.173800	-9.502200	27.481993	0.000294	20.875219
2227.599375	-3.001300	3.174800	-9.527600	27.442282	0.000294	20.861821
2228.599540	-3.017500	3.174300	-9.577500	27.473213	0.000292	20.855956
2229.600866	-2.998600	3.173900	-9.515700	27.422933	0.000292	20.861795
2230.599288	-3.003000	3.174000	-9.530500	27.425190	0.000290	20.863592
2231.601036	-2.998000	3.171500	-9.507100	27.464879	0.000290	20.867011
2232.600469	-3.009100	3.171700	-9.542600	27.489658	0.000291	20.869181
2233.604021	-2.997200	3.172000	-9.506400	27.521134	0.000289	20.846797
2234.598816	-3.017900	3.169400	-9.564200	27.552881	0.000287	20.851237
2235.603408	-3.002200	3.168800	-9.512300	27.595742	0.000291	20.826085
2236.603786	-2.996300	3.169400	-9.495600	27.562109	0.000289	20.862418
2237.600211	-2.997600	3.169100	-9.498100	27.548640	0.000289	20.865461
2238.604666	-3.026300	3.167000	-9.583800	27.567986	0.000285	20.873546
2239.599633	-2.969900	3.168700	-9.409800	27.576989	0.000287	20.842778
2240.602398	-2.995100	3.165900	-9.480500	27.579371	0.000284	20.866984
2241.606364	-2.974300	3.167900	-9.421400	27.572028	0.000285	20.857225
2242.604129	-2.999500	3.165500	-9.494000	27.545366	0.000284	20.862167
2243.608482	-2.996400	3.165200	-9.482800	27.563001	0.000282	20.862842
2244.609811	-2.984600	3.164000	-9.442200	27.563373	0.000282	20.841406
2245.604608	-3.002800	3.164000	-9.499000	27.553599	0.000279	20.838210
2246.603992	-2.992600	3.164900	-9.470100	27.525002	0.000280	20.857800
2247.606385	-3.015700	3.161300	-9.532500	27.536437	0.000282	20.881631
2248.604747	-2.984500	3.163000	-9.437800	27.584729	0.000281	20.831125
2249.603898	-3.022200	3.163600	-9.560300	27.625676	0.000278	20.857626
2250.604514	-3.014000	3.161600	-9.528200	27.628777	0.000280	20.846997
2251.606730	-3.018700	3.160000	-9.537000	27.661217	0.000277	20.862094
2252.603438	-3.049300	3.158200	-9.629100	27.694126	0.000277	20.854433
2253.604732	-2.995900	3.159800	-9.465200	27.709476	0.000277	20.862767
2254.610490	-2.988400	3.159500	-9.440900	27.750070	0.000278	20.859047
2255.605407	-3.011000	3.158400	-9.509300	27.794805	0.000275	20.863289
2256.603882	-3.012100	3.158200	-9.511400	27.789377	0.000276	20.859249
2257.603843	-2.983700	3.157500	-9.420800	27.794533	0.000275	20.844998
2258.604910	-3.004600	3.155100	-9.477900	27.770379	0.000274	20.842502
2259.603631	-2.993000	3.155800	-9.444600	27.788532	0.000274	20.835641
2260.605982	-2.995400	3.153900	-9.446600	27.797806	0.000271	20.824585
2261.608471	-2.995100	3.155100	-9.449100	27.807652	0.000273	20.830227
2262.608415	-2.978800	3.155400	-9.398300	27.784763	0.000271	20.869304
2263.606702	-2.985500	3.154600	-9.416900	27.770232	0.000271	20.852311
2264.609698	-2.974100	3.154400	-9.379800	27.764180	0.000269	20.814453
2265.607327	-3.000600	3.153700	-9.460900	27.769784	0.000271	20.843325
2266.608020	-2.994600	3.152500	-9.439700	27.715105	0.000270	20.812483
2267.607467	-2.982900	3.152200	-9.401800	27.699332	0.000269	20.825534
2268.608852	-2.992800	3.151500	-9.430400	27.715327	0.000267	20.841155
2269.609220	-2.994900	3.150800	-9.435100	27.745136	0.000268	20.840806
2270.607812	-2.979300	3.151500	-9.387900	27.715898	0.000270	20.835092
2271.611143	-3.001300	3.150300	-9.453700	27.753443	0.000266	20.845846
2272.609015	-2.974000	3.148800	-9.364000	27.758850	0.000267	20.837537
2273.608801	-3.002100	3.148900	-9.452500	27.801700	0.000266	20.850314
2274.612608	-2.993900	3.148900	-9.426600	27.767380	0.000264	20.845648
2275.610475	-2.989200	3.147000	-9.405700	27.718478	0.000265	20.841007
2276.609106	-3.004100	3.147700	-9.454200	27.684428	0.000265	20.834718
2277.609127	-2.997300	3.145200	-9.425700	27.684328	0.000263	20.830350
2278.608299	-2.985500	3.147000	-9.393400	27.670244	0.000263	20.843678
2279.611135	-3.002400	3.144600	-9.440400	27.689190	0.000264	20.836190
2280.613422	-2.999600	3.143800	-9.429100	27.694171	0.000265	20.826031
2281.608228	-2.995300	3.144200	-9.416900	27.735887	0.000260	20.815378
2282.608951	-2.979900	3.142600	-9.363500	27.765199	0.000262	20.835866
2283.611891	-3.004900	3.142600	-9.441200	27.808024	0.000260	20.826334
2284.614494	-3.013900	3.141200	-9.465900	27.823347	0.000259	20.830849
2285.610279	-2.992800	3.139500	-9.394900	27.826027	0.000261	20.845399
2286.612253	-2.999100	3.139300	-9.412700	27.847773	0.000259	20.829828
2287.614247	-2.992400	3.138300	-9.389900	27.834086	0.000258	20.834070
2288.613758	-3.003500	3.137600	-9.422400	27.784765	0.000260	20.821893
2289.612266	-3.024700	3.138000	-9.490000	27.760365	0.000258	20.803027
2290.620677	-3.025900	3.136500	-9.489500	27.740748	0.000258	20.837813
2291.615085	-2.994100	3.136500	-9.390000	27.752554	0.000256	20.831202
2292.612279	-2.987300	3.135800	-9.366300	27.804406	0.000257	20.825064
2293.615160	-2.999200	3.134200	-9.397600	27.831386	0.000258	20.812861
2294.614184	-2.978100	3.134800	-9.335300	27.868999	0.000254	20.840284
2295.613901	-3.002300	3.131800	-9.400600	27.881003	0.000255	20.837667
2296.617928	-3.019700	3.132200	-9.456400	27.911699	0.000255	20.840113
2297.614100	-2.992900	3.132200	-9.373300	27.937113	0.000255	20.832027
2298.612453	-3.017800	3.130400	-9.446000	27.918616	0.000252	20.820523
2299.617262	-3.017000	3.129600	-9.441200	27.918542	0.000254	20.841784
2300.616179	-3.014300	3.129900	-9.434100	27.899550	0.000255	20.818877
2301.615426	-3.008400	3.128900	-9.411100	27.861592	0.000250	20.826666
2302.615821	-2.982600	3.128400	-9.329800	27.817476	0.000252	20.818777
2303.622149	-2.992300	3.127000	-9.356500	27.773263	0.000251	20.815059
2304.621254	-2.980600	3.128800	-9.325000	27.780232	0.000251	20.814012
2305.615454	-2.965900	3.127400	-9.274300	27.810558	0.000249	20.809444
2306.617313	-3.008700	3.124000	-9.398400	27.788217	0.000248	20.823470
2307.618334	-3.013600	3.124900	-9.416300	27.772916	0.000250	20.818029
2308.620062	-3.016100	3.124200	-9.421800	27.828611	0.000249	20.813388
2309.621430	-2.995000	3.124600	-9.355900	27.836917	0.000250	20.805626
2310.625002	-3.009800	3.123800	-9.400100	27.897245	0.000250	20.810866
2311.621640	-3.011500	3.123400	-9.404900	27.910016	0.000247	20.817557
2312.624150	-3.012000	3.121600	-9.401200	27.949289	0.000247	20.824368
2313.622318	-3.018500	3.120100	-9.417500	27.952910	0.000246	20.823272
2314.620350	-3.005800	3.119400	-9.374300	27.978024	0.000248	20.812515
2315.632771	-3.017300	3.119300	-9.410300	28.027585	0.000250	20.821149
2316.622230	-3.003800	3.118100	-9.364600	28.055104	0.000248	20.806651
2317.621192	-2.994000	3.117400	-9.332000	28.059343	0.000245	20.816608
2318.624838	-3.011200	3.116600	-9.383800	28.075632	0.000248	20.817833
2319.623350	-3.024700	3.116700	-9.425600	28.097347	0.000245	20.826415
2320.620118	-2.991900	3.115400	-9.319900	28.102306	0.000246	20.819079
2321.625056	-3.010100	3.113900	-9.372700	28.101661	0.000245	20.795197
2322.621482	-3.021700	3.113000	-9.404900	28.101588	0.000245	20.832107
2323.622867	-2.971300	3.113900	-9.251000	28.112145	0.000245	20.806225
2324.622178	-2.998000	3.111600	-9.327700	28.125062	0.000245	20.798365
2325.623195	-3.008800	3.109800	-9.355400	28.120601	0.000244	20.800038
2326.626153	-3.008700	3.110200	-9.356700	28.108975	0.000244	20.810620
2327.624545	-3.013200	3.110000	-9.370000	28.110336	0.000243	20.813413
2328.628383	-3.013800	3.108300	-9.367000	28.112172	0.000241	20.825218
2329.624356	-3.012500	3.107900	-9.360100	28.105331	0.000243	20.816435
2330.625799	-2.998000	3.108100	-9.317200	28.081928	0.000241	20.820377
2331.632226	-3.024200	3.106800	-9.394200	28.144325	0.000243	20.819180
2332.628823	-2.997400	3.105400	-9.307500	28.142416	0.000241	20.809672
2333.627115	-2.994500	3.104900	-9.296800	28.168420	0.000241	20.817358
2334.628944	-2.984600	3.104500	-9.264800	28.159793	0.000241	20.809147
2335.632088	-2.985300	3.103700	-9.264700	28.181286	0.000240	20.793801
2336.630354	-2.984800	3.103100	-9.261100	28.216063	0.000240	20.816011
2337.629681	-3.008800	3.099600	-9.324600	28.211054	0.000239	20.832779
2338.632296	-2.985700	3.102600	-9.262400	28.211056	0.000238	20.806704
2339.632159	-2.991800	3.100600	-9.275000	28.254733	0.000241	20.826020
2340.628123	-2.978900	3.099300	-9.231100	28.228335	0.000240	20.804185
2341.633762	-2.993300	3.097900	-9.271800	28.210092	0.000239	20.830862
2342.629030	-2.993000	3.097900	-9.270300	28.209596	0.000238	20.822302
2343.628428	-2.998300	3.097200	-9.285200	28.225111	0.000237	20.811844
2344.628082	-3.001500	3.095900	-9.291000	28.211702	0.000237	20.812095
2345.629000	-3.011900	3.094400	-9.318600	28.223799	0.000237	20.802464
2346.632429	-3.001800	3.094600	-9.288600	28.230717	0.000234	20.808479
2347.627802	-3.013400	3.094400	-9.322100	28.245687	0.000236	20.803637
2348.632890	-3.020200	3.091900	-9.337800	28.242144	0.000237	20.808605
2349.628697	-2.969900	3.092400	-9.182900	28.248737	0.000235	20.797699
2350.631951	-3.009200	3.090600	-9.298900	28.271664	0.000235	20.801342
2351.631310	-3.002400	3.089200	-9.273800	28.253025	0.000235	20.799172
2352.631882	-3.002500	3.088200	-9.271100	28.218494	0.000235	20.796648
2353.633784	-2.986500	3.087700	-9.220700	28.118078	0.000234	20.818835
2354.634762	-3.019900	3.086500	-9.319600	28.066365	0.000235	20.812297
2355.631948	-3.008400	3.085900	-9.282400	28.039963	0.000235	20.799470
2356.632171	-2.984900	3.085200	-9.208300	28.032997	0.000236	20.805735
2357.634150	-3.008200	3.083600	-9.275500	28.071051	0.000234	20.799470
2358.629927	-3.000700	3.083500	-9.252200	28.060194	0.000233	20.799447
2359.632586	-3.000200	3.082500	-9.247100	28.038624	0.000232	20.785795
2360.631619	-2.998500	3.081600	-9.239300	28.070036	0.000232	20.794656
2361.633239	-2.977300	3.082400	-9.175600	28.114212	0.000234	20.819211
2362.634953	-3.007800	3.079000	-9.260400	28.140045	0.000232	20.771249
2363.632029	-2.986500	3.079900	-9.196600	28.147802	0.000232	20.800396
2364.636353	-3.003500	3.077800	-9.242000	28.115700	0.000231	20.800795
2365.638160	-2.995500	3.077300	-9.217000	28.083698	0.000232	20.794184
2366.630507	-2.984000	3.077100	-9.180300	28.111189	0.000233	20.808582
2367.634682	-3.015100	3.075100	-9.270700	28.136820	0.000231	20.788391
2368.638892	-2.989500	3.075100	-9.192300	28.167090	0.000233	20.797054
2369.639454	-3.031100	3.072600	-9.311700	28.180375	0.000232	20.784350
2370.636753	-2.974300	3.072400	-9.137800	28.141335	0.000229	20.781557
2371.636638	-3.002900	3.072300	-9.224900	28.064311	0.000232	20.786048
2372.634392	-3.024500	3.070100	-9.284700	27.997249	0.000229	20.784450
2373.637086	-3.006600	3.068500	-9.223600	27.973200	0.000231	20.781580
2374.635320	-3.005400	3.069000	-9.222600	27.954927	0.000231	20.775516
2375.634953	-3.012800	3.066800	-9.239100	27.969678	0.000231	20.774716
2376.635032	-2.978200	3.067800	-9.135100	28.000000	0.000230	20.789116
2377.639418	-3.012800	3.064100	-9.229200	27.987504	0.000229	20.795030
2378.635574	-2.974500	3.063600	-9.111200	27.980488	0.000228	20.788442
2379.634546	-3.023500	3.061700	-9.256100	27.995068	0.000230	20.780358
2380.636778	-3.020500	3.061200	-9.245400	28.001214	0.000226	20.780855
2381.637483	-2.997700	3.060600	-9.173200	27.962958	0.000229	20.785971
2382.635743	-3.006200	3.060200	-9.197700	28.006249	0.000229	20.771224
2383.638728	-3.007500	3.057000	-9.193400	28.030123	0.000227	20.773444
2384.638853	-2.990700	3.058000	-9.144600	28.051865	0.000230	20.788218
2385.637916	-3.010900	3.056000	-9.199900	28.089024	0.000228	20.780579
2386.638291	-2.980100	3.057600	-9.111300	28.137515	0.000228	20.793833
2387.637701	-2.978700	3.054800	-9.097800	28.124402	0.000227	20.787744
2388.636333	-3.009800	3.052900	-9.187900	28.129556	0.000225	20.783923
2389.637008	-2.991600	3.053600	-9.134000	28.150157	0.000225	20.777636
2390.642763	-3.002600	3.052000	-9.163200	28.170833	0.000227	20.778062
2391.637830	-3.002900	3.050300	-9.158300	28.113100	0.000228	20.801022
2392.640234	-3.011500	3.050200	-9.184000	28.113990	0.000224	20.764460
2393.642045	-3.017500	3.048800	-9.198400	28.144804	0.000225	20.784101
2394.640152	-3.011200	3.047700	-9.175600	28.133005	0.000225	20.772222
2395.644843	-3.017800	3.045200	-9.188700	28.112133	0.000226	20.759271
2396.643215	-2.962600	3.047100	-9.025200	28.053926	0.000226	20.782232
2397.642417	-2.992900	3.045200	-9.113000	28.059479	0.000227	20.774071
2398.644020	-2.976000	3.044200	-9.059100	28.028218	0.000224	20.763466
2399.646461	-3.017800	3.041600	-9.176500	28.043713	0.000225	20.783330
2400.644785	-3.006700	3.040400	-9.140300	27.975260	0.000224	20.781758
2401.644975	-3.005600	3.039000	-9.133400	27.921435	0.000225	20.758400
2402.643455	-3.018800	3.037700	-9.168700	27.917170	0.000223	20.792989
2403.644631	-2.998200	3.037500	-9.106300	27.954882	0.000224	20.782108
2404.644654	-2.995400	3.036000	-9.093300	27.988056	0.000224	20.775197
2405.645082	-2.987700	3.035600	-9.068800	27.989890	0.000224	20.769931
2406.646484	-3.016700	3.033000	-9.148700	28.012003	0.000223	20.785077
2407.646248	-2.998400	3.034400	-9.097000	28.012846	0.000225	20.771226
2408.645462	-2.990100	3.033000	-9.067900	28.020135	0.000224	20.780460
2409.647227	-3.035800	3.029700	-9.196100	28.039398	0.000224	20.768556
2410.651829	-3.000400	3.030100	-9.090500	28.059630	0.000223	20.779913
2411.646524	-3.010000	3.028000	-9.112600	28.087047	0.000224	20.779537
2412.648376	-2.989300	3.028300	-9.051500	28.094586	0.000224	20.761047
2413.650226	-2.978800	3.027500	-9.017700	28.079785	0.000224	20.765588
2414.646914	-2.984100	3.025900	-9.027400	28.085958	0.000224	20.768957
2415.650503	-2.978000	3.024600	-9.006500	28.087495	0.000222	20.771453
2416.648864	-3.016400	3.022400	-9.116100	28.097335	0.000221	20.776617
2417.647243	-2.991600	3.020300	-9.034900	28.147537	0.000222	20.794913
2418.647716	-2.986200	3.019400	-9.015000	28.184371	0.000220	20.755656
2419.652275	-2.979400	3.019900	-8.995500	28.218381	0.000222	20.791792
2420.651791	-3.025300	3.016200	-9.123800	28.261459	0.000222	20.788697
2421.651845	-2.997900	3.016300	-9.042000	28.278340	0.000221	20.778192
2422.651137	-3.000700	3.014700	-9.044700	28.264187	0.000221	20.780064
2423.655351	-2.988200	3.013500	-9.003800	28.307809	0.000221	20.781785
2424.652008	-2.978300	3.012800	-8.972300	28.324466	0.000221	20.774374
2425.652306	-3.008000	3.012200	-9.058500	28.358668	0.000222	20.785578
2426.654337	-3.010400	3.008700	-9.056900	28.361914	0.000222	20.763716
2427.656132	-2.995800	3.008400	-9.011900	28.373141	0.000220	20.778814
2428.651009	-3.017800	3.008500	-9.076900	28.388334	0.000221	20.789371
2429.654560	-3.021500	3.007000	-9.084200	28.364889	0.000221	20.758177
2430.654643	-2.996000	3.004100	-8.998300	28.386525	0.000223	20.782334
2431.653352	-3.013300	3.002700	-9.046700	28.403798	0.000221	20.780761
2432.652774	-3.003800	3.002800	-9.018400	28.389251	0.000222	20.784605
2433.651851	-2.987800	3.000900	-8.965200	28.379634	0.000220	20.785827
2434.654825	-2.999200	3.000400	-8.997700	28.380132	0.000220	20.756456
2435.653084	-3.002700	2.998000	-9.000700	28.358914	0.000223	20.800525
2436.652039	-2.977500	2.997100	-8.923100	28.302333	0.000220	20.791918
2437.654606	-2.993000	2.995300	-8.963300	28.268152	0.000221	20.770305
2438.653000	-3.039400	2.992300	-9.092800	28.288823	0.000221	20.777367
2439.657538	-2.988000	2.993600	-8.943000	28.301017	0.000219	20.775420
2440.656602	-3.022000	2.991300	-9.038500	28.337006	0.000220	20.790320
2441.663026	-3.009400	2.990800	-8.999600	28.378617	0.000220	20.789070
2442.657706	-3.024800	2.988900	-9.039900	28.397355	0.000220	20.797033
2443.656315	-2.992700	2.988100	-8.941500	28.367194	0.000220	20.783732
2444.656303	-3.005000	2.986900	-8.975300	28.383797	0.000220	20.784329
2445.656428	-3.037400	2.984300	-9.063600	28.364988	0.000218	20.779614
2446.655984	-2.999900	2.983000	-8.948300	28.383451	0.000221	20.776868
2447.655348	-2.997600	2.983400	-8.942000	28.362659	0.000219	20.794813
2448.658405	-3.012600	2.981100	-8.979800	28.338446	0.000220	20.781812
2449.655028	-3.008900	2.980600	-8.967200	28.282726	0.000221	20.798729
2450.655188	-3.017400	2.979200	-8.987500	28.282108	0.000219	20.765864
2451.657444	-3.005300	2.977100	-8.945700	28.312718	0.000220	20.776770
2452.654770	-2.963800	2.977400	-8.823300	28.284686	0.000221	20.822040
2453.655788	-2.976000	2.975500	-8.853800	28.270334	0.000219	20.793839
2454.658312	-3.000200	2.972600	-8.916700	28.308208	0.000221	20.783608
2455.656396	-2.993000	2.972000	-8.894200	28.320105	0.000219	20.808390
2456.655978	-3.000800	2.971400	-8.915600	28.311554	0.000219	20.797409
2457.658389	-3.005400	2.969600	-8.924100	28.288454	0.000220	20.784582
2458.660523	-2.979600	2.968500	-8.844200	28.269046	0.000218	20.794913
2459.658877	-2.984800	2.966600	-8.854000	28.225150	0.000220	20.801453
2460.658850	-3.006500	2.962900	-8.907200	28.205121	0.000219	20.795512
2461.660584	-3.023800	2.961600	-8.954200	28.201725	0.000217	20.812482
2462.663272	-3.005900	2.961500	-8.901500	28.228794	0.000217	20.791370
2463.661390	-2.992000	2.960500	-8.856300	28.275961	0.000221	20.790495
2464.668837	-3.023100	2.958000	-8.941400	28.328507	0.000218	20.779865
2465.660937	-3.009200	2.955700	-8.893200	28.365065	0.000218	20.806719
2466.661154	-2.971000	2.956400	-8.781600	28.419291	0.000219	20.796363
2467.661121	-2.975700	2.953500	-8.788100	28.435674	0.000221	20.799109
2468.662797	-2.979100	2.952800	-8.795800	28.424795	0.000220	20.822292
2469.660679	-3.030400	2.949700	-8.936700	28.420383	0.000217	20.795565
2470.662871	-2.994000	2.949400	-8.829300	28.444915	0.000219	20.808415
2471.662331	-2.976600	2.949000	-8.776300	28.460655	0.000220	20.803876
2472.663065	-3.021100	2.945200	-8.896500	28.465139	0.000218	20.793219
2473.660905	-2.998200	2.944500	-8.826500	28.436492	0.000217	20.808467
2474.664077	-3.011700	2.943000	-8.862100	28.411907	0.000218	20.793194
2475.663136	-3.008900	2.941900	-8.850600	28.350345	0.000217	20.797112
2476.663145	-2.999100	2.939400	-8.813700	28.276067	0.000219	20.817154
2477.665467	-2.971400	2.940200	-8.735100	28.243049	0.000218	20.784860
2478.663912	-2.992100	2.938200	-8.791000	28.273017	0.000218	20.811713
2479.663404	-2.979100	2.936600	-8.747900	28.294530	0.000218	20.805873
2480.666998	-3.014600	2.935700	-8.848200	28.289798	0.000218	20.827661
2481.668111	-3.005700	2.933400	-8.816200	28.294779	0.000217	20.802804
2482.665192	-2.996800	2.930600	-8.781600	28.243993	0.000218	20.803828
2483.671800	-3.026800	2.929200	-8.864500	28.215090	0.000217	20.818825
2484.667552	-2.999800	2.929500	-8.787200	28.179571	0.000217	20.788281
2485.666678	-2.992500	2.925900	-8.754300	28.163657	0.000219	20.800710
2486.668567	-2.982400	2.925800	-8.723500	28.212341	0.000218	20.818428
2487.668201	-2.990900	2.922800	-8.740600	28.250536	0.000216	20.825114
2488.665137	-3.006300	2.920400	-8.778400	28.307791	0.000217	20.799784
2489.665776	-3.011900	2.920000	-8.793600	28.350522	0.000216	20.815782
2490.667027	-3.007400	2.918800	-8.777000	28.396049	0.000218	20.804726
2491.668860	-3.001400	2.915700	-8.749600	28.372479	0.000217	20.808020
2492.668241	-2.984300	2.914700	-8.695600	28.376520	0.000215	20.819201
2493.670302	-2.985000	2.913300	-8.695100	28.372233	0.000216	20.802556
2494.671515	-2.983700	2.912900	-8.689800	28.393373	0.000218	20.845653
2495.672554	-2.986200	2.910000	-8.688600	28.410376	0.000217	20.821998
2496.674274	-3.022300	2.906600	-8.783900	28.399173	0.000219	20.833002
2497.671071	-2.986800	2.907700	-8.682900	28.365244	0.000216	20.834399
2498.672871	-2.979200	2.904900	-8.652700	28.351017	0.000218	20.827661
2499.671589	-3.005200	2.902100	-8.720100	28.337311	0.000217	20.826662
2500.671278	-2.997100	2.901300	-8.693000	28.360164	0.000216	20.810792
2501.674659	-3.016000	2.899600	-8.743700	28.384326	0.000217	20.825639
2502.671450	-3.004200	2.900100	-8.710500	28.396870	0.000215	20.842062
2503.673304	-2.993800	2.897000	-8.671700	28.383831	0.000218	20.832252
2504.672943	-2.986100	2.893600	-8.639000	28.367202	0.000218	20.833526
2505.678618	-2.993800	2.893700	-8.662100	28.371639	0.000218	20.807174
2506.675092	-2.970800	2.891700	-8.589300	28.386137	0.000217	20.816557
2507.671754	-3.001400	2.888800	-8.669700	28.375135	0.000219	20.828711
2508.673072	-2.993300	2.887200	-8.641300	28.361603	0.000216	20.838320
2509.676509	-2.997600	2.886100	-8.650600	28.292800	0.000217	20.829261
2510.674837	-2.992400	2.883500	-8.628000	28.248186	0.000218	20.817058
2511.673522	-2.993500	2.880600	-8.622100	28.288985	0.000216	20.835851
2512.673695	-2.993200	2.879200	-8.615900	28.227466	0.000217	20.838871
2513.675306	-2.978800	2.877700	-8.570600	28.224838	0.000218	20.832431
2514.674196	-3.000500	2.876500	-8.630500	28.238002	0.000217	20.832409
2515.674750	-3.020000	2.873700	-8.677800	28.267497	0.000218	20.832707
2516.676218	-3.017000	2.871400	-8.661700	28.334938	0.000217	20.838971
2517.678371	-3.002200	2.870400	-8.616600	28.399700	0.000218	20.825946
2518.673623	-2.986600	2.868000	-8.565100	28.460616	0.000218	20.855992
2519.677175	-2.994200	2.865500	-8.578400	28.524652	0.000215	20.849357
2520.675020	-2.996800	2.864400	-8.583400	28.568587	0.000218	20.849507
2521.674581	-2.969500	2.862600	-8.499800	28.612692	0.000218	20.842719
2522.676808	-3.005800	2.859900	-8.594100	28.633954	0.000218	20.840425
2523.675958	-2.990200	2.858600	-8.546400	28.653353	0.000217	20.840049
2524.679901	-3.006000	2.855500	-8.582100	28.597876	0.000217	20.835383
2525.680895	-3.015900	2.852200	-8.601100	28.577559	0.000217	20.823931
2526.678623	-3.012700	2.851600	-8.590100	28.541011	0.000217	20.838330
2527.687791	-3.016700	2.849700	-8.595600	28.533376	0.000216	20.863357
2528.679540	-3.029500	2.847900	-8.626100	28.508748	0.000216	20.845194
2529.680646	-2.994900	2.846000	-8.522900	28.497599	0.000216	20.863364
2530.680526	-2.963900	2.845600	-8.432800	28.516530	0.000217	20.837384
2531.680713	-3.013300	2.841900	-8.562400	28.536554	0.000216	20.852807
2532.680765	-2.970100	2.840900	-8.436600	28.518368	0.000217	20.844925
2533.679838	-3.011900	2.837000	-8.543700	28.502407	0.000215	20.852559
2534.679251	-2.975200	2.836100	-8.437000	28.473811	0.000217	20.872123
2535.679832	-3.009100	2.833800	-8.525500	28.437333	0.000217	20.847245
2536.678409	-2.985700	2.831200	-8.452000	28.417556	0.000218	20.872374
2537.681147	-3.015500	2.828800	-8.529400	28.443010	0.000215	20.849643
2538.679698	-2.999200	2.826400	-8.476400	28.501989	0.000215	20.859723
2539.680267	-2.985800	2.823800	-8.430100	28.554422	0.000217	20.858948
2540.680581	-2.984900	2.823000	-8.425900	28.604600	0.000218	20.872974
2541.680923	-3.035600	2.817500	-8.550900	28.615553	0.000217	20.863617
2542.683915	-2.996200	2.818500	-8.444100	28.608491	0.000218	20.858401
2543.688304	-3.004500	2.815500	-8.458400	28.608964	0.000216	20.842283
2544.681945	-3.013700	2.812100	-8.473800	28.618749	0.000215	20.853560
2545.686954	-3.015800	2.809100	-8.471200	28.641249	0.000217	20.869582
2546.687217	-3.001300	2.807800	-8.426400	28.698161	0.000219	20.869532
2547.681423	-3.019700	2.805100	-8.470000	28.736365	0.000218	20.849219
2548.685645	-3.032800	2.802600	-8.499100	28.732871	0.000216	20.861346
2549.684999	-3.014200	2.799700	-8.438400	28.688026	0.000217	20.855531
2550.682823	-2.978300	2.799300	-8.335800	28.641622	0.000217	20.869958
2551.686408	-3.002000	2.795500	-8.390600	28.599773	0.000217	20.855784
2552.685971	-3.002200	2.793100	-8.383800	28.542728	0.000217	20.861396
2553.685402	-3.003000	2.790100	-8.377300	28.514703	0.000214	20.874423
2554.687480	-2.993500	2.789000	-8.347700	28.530091	0.000218	20.884704
2555.682821	-3.004200	2.786200	-8.369100	28.583686	0.000217	20.874670
2556.683183	-2.971000	2.784000	-8.269600	28.614562	0.000217	20.876842
2557.683506	-3.005100	2.780300	-8.352000	28.639463	0.000219	20.851663
2558.685029	-2.989700	2.777300	-8.301500	28.664934	0.000217	20.875419
2559.684252	-2.970500	2.775000	-8.241200	28.689362	0.000216	20.878212
2560.683790	-3.002400	2.772800	-8.323100	28.681879	0.000216	20.861194
2561.686321	-2.986900	2.769900	-8.272300	28.695755	0.000216	20.879436
2562.687370	-2.994900	2.767800	-8.288500	28.712109	0.000216	20.851813
2563.686761	-3.000800	2.764000	-8.293400	28.725412	0.000215	20.873272
2564.689915	-3.000600	2.762000	-8.286500	28.686863	0.000215	20.894186
2565.694824	-2.988200	2.757500	-8.239700	28.689735	0.000218	20.878588
2566.688470	-2.973100	2.756000	-8.193200	28.771941	0.000218	20.869880
2567.690230	-2.987400	2.751900	-8.220300	28.802684	0.000216	20.876666
2568.697045	-2.978200	2.749600	-8.187000	28.828548	0.000216	20.882805
2569.689746	-3.029300	2.744200	-8.311700	28.845866	0.000216	20.866587
2570.691309	-2.994200	2.743200	-8.213300	28.919538	0.000214	20.891966
2571.692758	-3.003300	2.738700	-8.223900	28.922213	0.000216	20.893712
2572.692274	-3.021300	2.735800	-8.263700	28.954390	0.000216	20.889620
2573.690731	-3.019000	2.732500	-8.247500	28.954141	0.000216	20.878465
2574.692502	-3.000700	2.729900	-8.190600	28.946414	0.000216	20.886801
2575.693136	-3.013500	2.726100	-8.213700	28.959271	0.000218	20.881736
2576.694041	-3.011300	2.722400	-8.196200	28.921819	0.000217	20.893315
2577.695480	-3.004300	2.720500	-8.171700	28.923281	0.000218	20.905692
2578.694647	-2.993800	2.716000	-8.130000	28.898684	0.000216	20.917422
2579.694591	-2.992300	2.712200	-8.113700	28.865143	0.000216	20.899754
2580.694069	-2.987100	2.709000	-8.090400	28.834202	0.000215	20.900354
2581.696684	-3.017300	2.705400	-8.162000	28.824270	0.000216	20.904099
2582.695299	-3.041800	2.702200	-8.218300	28.863833	0.000215	20.908865
2583.699553	-3.008900	2.698400	-8.118800	28.880874	0.000214	20.902325
2584.698667	-2.994200	2.695700	-8.070700	28.944115	0.000215	20.916250
2585.701526	-2.962100	2.693300	-7.977000	28.972430	0.000215	20.896415
2586.696052	-2.964400	2.688200	-7.967900	28.943498	0.000215	20.887655
2587.707723	-2.988100	2.684200	-8.019200	28.922172	0.000217	20.912161
2588.702003	-2.982100	2.682300	-7.997500	28.888830	0.000216	20.917925
2589.701627	-3.000600	2.677100	-8.031600	28.880779	0.000216	20.904126
2590.703494	-2.985700	2.672600	-7.979100	28.897030	0.000218	20.903429
2591.702297	-3.016800	2.668000	-8.047300	28.845827	0.000216	20.922967
2592.702458	-3.002800	2.664200	-7.999200	28.799475	0.000216	20.901881
2593.697058	-3.013700	2.660600	-8.017100	28.745420	0.000216	20.902907
2594.705621	-3.003500	2.656700	-7.978400	28.766652	0.000217	20.906276
2595.702861	-2.994600	2.651900	-7.940900	28.806067	0.000217	20.919425
2596.704062	-2.985200	2.648300	-7.905200	28.861262	0.000216	20.907224
2597.705007	-2.977600	2.644700	-7.873700	28.928369	0.000217	20.909870
2598.703117	-3.000700	2.638500	-7.916100	29.004536	0.000218	20.899839
2599.703862	-3.028800	2.634800	-7.979300	29.060094	0.000218	20.930209
2600.703631	-3.014900	2.631000	-7.930300	29.085530	0.000217	20.901313
2601.709472	-3.031300	2.624800	-7.955100	29.153612	0.000217	20.903059
2602.702125	-2.995400	2.621000	-7.849700	29.198758	0.000218	20.905405
2603.705169	-2.974200	2.618000	-7.784800	29.216516	0.000218	20.928513
2604.720191	-3.024500	2.610800	-7.894700	29.210845	0.000217	20.910472
2605.707536	-2.997900	2.607800	-7.816500	29.244203	0.000216	20.927492
2606.707080	-3.021600	2.602200	-7.861500	29.261687	0.000216	20.918085
2607.706751	-3.010200	2.597000	-7.816800	29.317029	0.000220	20.926917
2608.706805	-2.987200	2.591300	-7.739600	29.302099	0.000218	20.918983
2609.703346	-2.976500	2.587000	-7.699500	29.232862	0.000218	20.920330
2610.706427	-2.999400	2.579700	-7.737200	29.177415	0.000217	20.932258
2611.714192	-3.006400	2.574300	-7.738800	29.120209	0.000217	20.943839
2612.705746	-3.025800	2.568600	-7.771300	29.069089	0.000215	20.930737
2613.706191	-2.974600	2.563600	-7.624300	28.997411	0.000216	20.918737
2614.707390	-2.985500	2.559400	-7.640600	28.991812	0.000220	20.923051
2615.706562	-2.998400	2.551400	-7.649200	28.989981	0.000218	20.921682
2616.706245	-3.004600	2.547600	-7.653700	29.089105	0.000218	20.912975
2617.710014	-2.968500	2.541200	-7.542600	29.120608	0.000218	20.921957
2618.708305	-3.030600	2.532800	-7.674500	29.160803	0.000216	20.943967
2619.710286	-2.981100	2.529300	-7.538700	29.090317	0.000216	20.912300
2620.709764	-3.031600	2.521800	-7.642900	29.080562	0.000218	20.911953
2621.713295	-2.998400	2.517100	-7.545900	29.078433	0.000218	20.927350
2622.710716	-3.019400	2.510000	-7.576800	29.068451	0.000215	20.920613
2623.717590	-2.974800	2.504300	-7.449000	29.068947	0.000218	20.914474
2624.716693	-2.990500	2.498200	-7.468400	29.125467	0.000216	20.922112
