LabVIEW Measurement	
Writer_Version	2
Reader_Version	2
Separator	Tab
Decimal_Separator	.
Multi_Headings	No
X_Columns	One
Time_Pref	Absolute
Operator	admin
Description	Clolumns are: time, Current, Voltage, Power, Battery Temp, and Chamber Temp
Date	2024/08/16
Time	13:06:06.104549407958984375
***End_of_Header***	
	
Channels	6						
Samples	1	1	1	1	1	1	
Date	2024/09/09	2024/09/09	2024/09/09	2024/09/09	2024/09/09	2024/09/09	
Time	19:15:35.4269399642944335938	19:15:35.4345936775207519532	19:15:35.4415078163146972657	19:15:35.4099926948547363282	19:15:35.4099926948547363282	19:15:35.4099926948547363282	
X_Dimension	Time	Time	Time	Time	Time	Time	
X0	0.0000000000000000E+0	0.0000000000000000E+0	0.0000000000000000E+0	0.0000000000000000E+0	0.0000000000000000E+0	0.0000000000000000E+0	
Delta_X	1.000000	1.000000	1.000000	1.000000	1.000000	1.000000	
***End_of_Header***							
X_Value	Untitled	Untitled 1	Untitled 2	Untitled 3	Untitled 4	Untitled 5	Comment
0.000000	0.016674	4.096200	0.068241	20.991691	0.000914	20.759846
1.002592	-2.981800	3.924200	-11.700000	20.995236	0.000913	20.755330
1.999534	-3.008700	3.915800	-11.781000	21.006539	0.000912	20.758575
3.001653	-2.999500	3.911300	-11.730000	21.018793	0.000914	20.769883
4.000059	-3.014600	3.906700	-11.776000	20.995211	0.000914	20.751512
5.001872	-2.999500	3.903100	-11.707000	21.015273	0.000911	20.741232
5.999295	-2.984800	3.901600	-11.644000	21.010483	0.000911	20.759675
7.000905	-2.995900	3.899100	-11.680000	20.997733	0.000911	20.754035
8.001295	-3.006900	3.896200	-11.714000	21.010282	0.000909	20.748568
9.001612	-3.003600	3.894500	-11.696000	20.998780	0.000906	20.757927
10.002081	-2.980600	3.893000	-11.603000	21.015621	0.000905	20.776194
11.002031	-2.989900	3.889300	-11.628000	21.007063	0.000906	20.751512
12.001151	-2.982000	3.889400	-11.597000	21.001151	0.000906	20.748918
12.999120	-2.993400	3.888300	-11.638000	21.005842	0.000905	20.765938
14.005939	-3.021300	3.884500	-11.734000	21.039971	0.000904	20.749814
14.998540	-2.998000	3.884200	-11.644000	21.022183	0.000902	20.765687
16.002794	-3.010800	3.883400	-11.691000	21.034010	0.000903	20.750963
17.002275	-2.979100	3.883600	-11.569000	21.029699	0.000900	20.755661
18.002697	-3.020500	3.881100	-11.720000	21.040349	0.000902	20.758727
19.001027	-3.026500	3.880300	-11.742000	21.064250	0.000902	20.782159
20.001927	-2.991500	3.880100	-11.607000	21.066022	0.000900	20.745524
20.998969	-3.009300	3.879100	-11.673000	21.079444	0.000899	20.751363
22.002219	-3.015900	3.876400	-11.689000	21.070440	0.000898	20.742357
23.005796	-2.990000	3.876800	-11.589000	21.064801	0.000899	20.753786
24.003531	-2.968800	3.877900	-11.512000	21.068596	0.000899	20.766592
25.004606	-3.000500	3.875700	-11.628000	21.102426	0.000900	20.762024
26.006011	-2.989100	3.874900	-11.581000	21.087858	0.000898	20.761676
27.006031	-2.996600	3.875000	-11.610000	21.090578	0.000896	20.766768
28.006066	-2.994500	3.873800	-11.599000	21.099659	0.000896	20.777274
29.011270	-2.999200	3.874300	-11.619000	21.108666	0.000897	20.754988
30.007957	-3.021300	3.871700	-11.697000	21.104898	0.000896	20.759281
31.008283	-2.990900	3.872700	-11.581000	21.119119	0.000896	20.776351
32.011518	-3.008200	3.870000	-11.641000	21.105874	0.000895	20.764050
33.010754	-3.003600	3.871200	-11.626000	21.133844	0.000894	20.762156
34.011364	-2.990900	3.869800	-11.571000	21.163332	0.000893	20.766997
35.011316	-2.992700	3.870400	-11.583000	21.146441	0.000893	20.784241
36.010447	-3.000300	3.869800	-11.609000	21.141230	0.000892	20.787088
37.011786	-2.976600	3.869200	-11.516000	21.159016	0.000894	20.768844
38.011929	-2.980800	3.869400	-11.533000	21.171892	0.000894	20.775560
39.016104	-2.999900	3.867600	-11.601000	21.179054	0.000894	20.760913
40.012786	-2.989000	3.867900	-11.560000	21.166656	0.000894	20.773641
41.013942	-3.004900	3.867400	-11.621000	21.184246	0.000894	20.765158
42.011713	-2.997200	3.866400	-11.588000	21.176935	0.000895	20.767328
43.014183	-2.997600	3.864500	-11.583000	21.215055	0.000893	20.781754
44.012824	-2.999000	3.864800	-11.590000	21.210191	0.000894	20.784949
45.013464	-3.003400	3.864400	-11.605000	21.211043	0.000893	20.756403
46.014946	-2.996900	3.863900	-11.579000	21.228404	0.000894	20.773771
47.015961	-2.992800	3.864200	-11.563000	21.230573	0.000893	20.769302
48.016147	-2.996000	3.865600	-11.580000	21.232199	0.000894	20.779463
49.012993	-3.006200	3.862800	-11.612000	21.236789	0.000893	20.763193
50.015919	-2.992400	3.862400	-11.556000	21.256473	0.000893	20.777669
51.014615	-3.003300	3.861400	-11.596000	21.244150	0.000892	20.770082
52.027277	-2.969600	3.862900	-11.470000	21.260017	0.000893	20.779791
53.013690	-3.018300	3.861000	-11.652000	21.272836	0.000893	20.778391
54.016712	-3.019500	3.862500	-11.661000	21.272563	0.000893	20.761048
55.017494	-2.991800	3.860900	-11.550000	21.269143	0.000895	20.780387
56.019958	-3.010000	3.860500	-11.620000	21.305913	0.000893	20.769283
57.021807	-2.988800	3.859300	-11.533000	21.332156	0.000893	20.765666
58.018793	-3.000700	3.859400	-11.578000	21.311278	0.000894	20.772279
59.021104	-2.984600	3.859600	-11.519000	21.347994	0.000893	20.752588
60.021821	-2.978800	3.859900	-11.496000	21.314717	0.000892	20.771452
61.023062	-2.994200	3.857700	-11.549000	21.339362	0.000892	20.770030
62.018662	-2.976900	3.861100	-11.492000	21.340808	0.000893	20.790918
63.024249	-2.990300	3.857500	-11.534000	21.356148	0.000891	20.773547
64.024396	-2.986600	3.857400	-11.519000	21.379645	0.000891	20.786151
65.023207	-2.992100	3.857100	-11.539000	21.381216	0.000892	20.790093
66.026458	-2.984300	3.857900	-11.512000	21.388997	0.000893	20.781757
67.023070	-3.017600	3.855800	-11.634000	21.403911	0.000893	20.780558
68.025308	-3.020900	3.856500	-11.649000	21.413265	0.000893	20.778537
69.027322	-2.973400	3.856100	-11.464000	21.407575	0.000892	20.764309
70.030937	-2.999200	3.856100	-11.564000	21.413612	0.000891	20.800221
71.022793	-3.016300	3.854900	-11.626000	21.393231	0.000889	20.795477
72.028342	-2.986300	3.855600	-11.513000	21.407446	0.000892	20.776982
73.026647	-2.993600	3.854300	-11.537000	21.426575	0.000891	20.794700
74.028112	-2.986100	3.855900	-11.512000	21.437574	0.000892	20.793376
75.026147	-2.995800	3.855400	-11.548000	21.437450	0.000892	20.795149
76.024556	-3.003100	3.852600	-11.568000	21.452088	0.000892	20.790829
77.024581	-2.994000	3.853600	-11.536000	21.469145	0.000892	20.801258
78.029305	-3.006000	3.854100	-11.584000	21.471592	0.000892	20.780472
79.028746	-2.987200	3.854900	-11.514000	21.463530	0.000891	20.790424
80.024591	-2.995500	3.854300	-11.545000	21.505132	0.000890	20.795540
81.030361	-3.001600	3.855100	-11.570000	21.486822	0.000890	20.791918
82.027830	-2.998300	3.853600	-11.554000	21.497972	0.000891	20.795014
83.032103	-2.981400	3.853400	-11.487000	21.489839	0.000893	20.785453
84.033843	-3.018000	3.852500	-11.626000	21.496699	0.000890	20.798482
85.033551	-3.012500	3.853200	-11.606000	21.526549	0.000891	20.809384
86.031418	-3.008500	3.851000	-11.585000	21.544652	0.000891	20.792886
87.035361	-3.015800	3.852700	-11.616000	21.518218	0.000891	20.780185
88.035047	-2.992900	3.853100	-11.531000	21.519761	0.000891	20.778410
89.034024	-3.012100	3.850200	-11.595000	21.531957	0.000890	20.806735
90.035394	-3.008200	3.850000	-11.581000	21.538117	0.000893	20.808632
91.034197	-2.987200	3.850200	-11.500000	21.553680	0.000891	20.818989
92.039778	-3.010500	3.850500	-11.591000	21.549087	0.000892	20.804910
93.038346	-3.010300	3.850700	-11.590000	21.584077	0.000892	20.807681
94.038581	-2.990500	3.849600	-11.511000	21.588264	0.000892	20.815664
95.043993	-2.978800	3.849600	-11.465000	21.598865	0.000892	20.822953
96.046595	-2.984500	3.850000	-11.489000	21.602030	0.000893	20.805258
97.038993	-2.997800	3.848100	-11.535000	21.602879	0.000892	20.803736
98.041984	-2.998900	3.848500	-11.539000	21.643580	0.000892	20.796103
99.042009	-3.001300	3.848000	-11.547000	21.636572	0.000893	20.799521
100.040535	-2.992000	3.848400	-11.513000	21.627991	0.000893	20.814641
101.043804	-2.997800	3.849300	-11.539000	21.650188	0.000893	20.802716
102.047113	-2.989300	3.848900	-11.503000	21.640087	0.000891	20.826272
103.044932	-2.992800	3.847200	-11.512000	21.649089	0.000893	20.811573
104.042452	-2.996800	3.848200	-11.531000	21.648491	0.000892	20.792009
105.041696	-2.999400	3.845900	-11.534000	21.654929	0.000893	20.796081
106.046036	-2.983300	3.846200	-11.474000	21.667471	0.000893	20.805313
107.046012	-3.001200	3.847000	-11.542000	21.661639	0.000894	20.809908
108.044137	-2.982000	3.847200	-11.472000	21.685778	0.000894	20.799452
109.046070	-3.009500	3.846000	-11.573000	21.705652	0.000892	20.809384
110.044032	-2.985700	3.847400	-11.485000	21.712486	0.000892	20.813853
111.044025	-2.994700	3.845200	-11.512000	21.705181	0.000892	20.792318
112.042306	-2.997200	3.845100	-11.524000	21.709922	0.000892	20.811287
113.042985	-3.007300	3.845400	-11.563000	21.701669	0.000895	20.812511
114.046994	-2.983600	3.845600	-11.473000	21.724014	0.000897	20.804053
115.044609	-2.995600	3.844500	-11.516000	21.703892	0.000894	20.800037
116.048291	-2.992700	3.845600	-11.508000	21.719802	0.000896	20.827813
117.044154	-2.992200	3.844200	-11.503000	21.732024	0.000898	20.807802
118.044221	-2.979200	3.844500	-11.453000	21.744692	0.000897	20.815265
119.052076	-2.998100	3.844000	-11.523000	21.759926	0.000898	20.816287
120.043070	-2.994200	3.844000	-11.509000	21.791299	0.000896	20.845315
121.049159	-3.014000	3.843700	-11.584000	21.784270	0.000896	20.803667
122.051840	-3.001600	3.842700	-11.534000	21.783650	0.000897	20.813004
123.050745	-3.005500	3.843000	-11.549000	21.804817	0.000898	20.804318
124.045884	-2.994100	3.842500	-11.504000	21.795392	0.000898	20.812428
125.045155	-2.998400	3.841900	-11.518000	21.818310	0.000899	20.808340
126.049637	-2.993000	3.842800	-11.500000	21.821180	0.000898	20.815480
127.047991	-3.011200	3.842200	-11.568000	21.823500	0.000898	20.811637
128.047171	-2.982900	3.842900	-11.462000	21.843873	0.000899	20.819226
129.044464	-2.991500	3.842000	-11.492000	21.836095	0.000898	20.825666
130.045673	-3.010000	3.841900	-11.564000	21.827843	0.000900	20.823097
131.045258	-3.001700	3.840500	-11.526000	21.855597	0.000900	20.828591
132.049189	-2.980200	3.840400	-11.443000	21.874171	0.000900	20.815414
133.048119	-2.997300	3.841500	-11.513000	21.884618	0.000900	20.823499
134.046992	-2.970600	3.842600	-11.414000	21.876344	0.000901	20.845089
135.048429	-3.001100	3.840900	-11.526000	21.874524	0.000900	20.818612
136.048864	-3.020100	3.839800	-11.596000	21.899110	0.000900	20.828996
137.045834	-2.993900	3.839500	-11.495000	21.905767	0.000902	20.838504
138.044570	-2.992400	3.839100	-11.487000	21.917562	0.000901	20.818069
139.052608	-2.993300	3.840100	-11.494000	21.938135	0.000903	20.845299
140.046497	-2.996900	3.840300	-11.508000	21.935664	0.000904	20.825757
141.047110	-2.995500	3.841000	-11.504000	21.921677	0.000903	20.818394
142.050140	-2.985500	3.838600	-11.458000	21.948655	0.000905	20.834019
143.052249	-2.982900	3.839300	-11.451000	21.951497	0.000904	20.821691
144.049447	-2.970800	3.839200	-11.404000	21.945989	0.000907	20.835618
145.054612	-2.989300	3.839500	-11.476000	21.945689	0.000906	20.821567
146.053316	-3.002300	3.838600	-11.523000	21.951100	0.000907	20.829355
147.059052	-2.995200	3.837600	-11.493000	21.970843	0.000907	20.835367
148.053259	-3.011000	3.836400	-11.551000	21.967503	0.000904	20.828704
149.048954	-2.999500	3.837300	-11.509000	21.971490	0.000907	20.815152
150.052485	-2.982300	3.837400	-11.443000	21.971342	0.000909	20.842030
151.052780	-3.008700	3.837400	-11.545000	21.971964	0.000906	20.822265
152.053883	-2.990700	3.837100	-11.474000	21.980914	0.000907	20.854456
153.051124	-2.970200	3.837300	-11.396000	21.985824	0.000910	20.824285
154.057585	-3.006800	3.837000	-11.536000	22.018330	0.000909	20.842126
155.053823	-3.001200	3.834200	-11.505000	22.036354	0.000910	20.829823
156.055951	-2.989500	3.836500	-11.468000	22.039322	0.000910	20.820467
157.055389	-3.002400	3.836300	-11.517000	22.053603	0.000908	20.820065
158.053222	-2.969100	3.837400	-11.392000	22.048693	0.000912	20.826055
159.053417	-2.968800	3.837300	-11.391000	22.082172	0.000911	20.846294
160.058026	-2.989600	3.835200	-11.465000	22.094957	0.000912	20.842024
161.055815	-2.981800	3.835700	-11.435000	22.099715	0.000911	20.833986
162.054334	-2.969700	3.835400	-11.388000	22.106318	0.000912	20.849604
163.062975	-2.995500	3.835800	-11.489000	22.112800	0.000914	20.856567
164.054830	-2.982800	3.834900	-11.438000	22.134509	0.000915	20.822352
165.058534	-3.004700	3.833400	-11.517000	22.128504	0.000915	20.840996
166.059786	-3.003200	3.835100	-11.517000	22.121171	0.000912	20.852146
167.055409	-2.978400	3.834100	-11.419000	22.154670	0.000913	20.866717
168.056849	-2.994200	3.833000	-11.475000	22.142004	0.000916	20.853088
169.056983	-2.996800	3.832700	-11.485000	22.175378	0.000914	20.849044
170.057213	-2.986300	3.834100	-11.449000	22.185695	0.000916	20.866485
171.065889	-2.974000	3.835300	-11.405000	22.197587	0.000915	20.849943
172.060694	-3.006100	3.831900	-11.517000	22.206307	0.000916	20.851087
173.061982	-2.997200	3.832700	-11.486000	22.236987	0.000918	20.868528
174.056519	-2.989700	3.832600	-11.458000	22.207028	0.000916	20.844697
175.064551	-3.012900	3.831100	-11.540000	22.223975	0.000916	20.851233
176.060310	-2.984600	3.833600	-11.440000	22.240202	0.000919	20.858472
177.060903	-2.981200	3.831300	-11.421000	22.240596	0.000920	20.840375
178.069611	-2.972000	3.831100	-11.384000	22.252311	0.000920	20.872017
179.063058	-2.995900	3.831700	-11.479000	22.249965	0.000919	20.863505
180.060756	-3.003600	3.831100	-11.505000	22.270721	0.000921	20.872908
181.066536	-3.003500	3.830200	-11.503000	22.265215	0.000920	20.847955
182.064857	-3.004000	3.829000	-11.500000	22.304819	0.000922	20.878126
183.060741	-2.999400	3.831100	-11.490000	22.266506	0.000923	20.867739
184.076577	-2.983600	3.829900	-11.425000	22.292876	0.000921	20.865220
185.061631	-3.008500	3.830700	-11.524000	22.287868	0.000922	20.865421
186.063135	-3.012500	3.828400	-11.531000	22.306083	0.000924	20.856633
187.061537	-3.012200	3.829100	-11.532000	22.310295	0.000923	20.868436
188.060997	-3.005500	3.829300	-11.508000	22.298129	0.000924	20.866212
189.065147	-3.006700	3.828900	-11.510000	22.325968	0.000925	20.854260
190.059371	-2.996100	3.829100	-11.471000	22.318367	0.000924	20.875570
191.063234	-2.992400	3.828000	-11.454000	22.327537	0.000926	20.854408
192.061014	-2.996100	3.828200	-11.468000	22.327664	0.000927	20.890094
193.064739	-3.000700	3.827700	-11.483000	22.335986	0.000928	20.891315
194.064136	-3.004800	3.827900	-11.500000	22.353404	0.000928	20.886472
195.062561	-3.007900	3.826100	-11.506000	22.352157	0.000928	20.886646
196.063644	-3.010900	3.826400	-11.519000	22.373162	0.000929	20.890610
197.066866	-3.007600	3.826900	-11.508000	22.376204	0.000929	20.878010
198.064064	-3.024000	3.824900	-11.565000	22.377027	0.000931	20.872196
199.062906	-3.008200	3.826400	-11.508000	22.369550	0.000929	20.876563
200.064430	-3.010600	3.825600	-11.517000	22.364314	0.000931	20.882225
201.061757	-3.009600	3.825000	-11.511000	22.363414	0.000930	20.880849
202.063854	-2.993100	3.826100	-11.451000	22.387463	0.000931	20.888810
203.077243	-3.004800	3.825700	-11.495000	22.380559	0.000931	20.896120
204.065350	-2.983800	3.826300	-11.416000	22.369993	0.000932	20.900712
205.061577	-3.018100	3.823700	-11.539000	22.357457	0.000933	20.896693
206.064961	-3.002800	3.825300	-11.485000	22.370192	0.000933	20.893799
207.062541	-3.005100	3.824300	-11.491000	22.375744	0.000932	20.883713
208.066697	-2.995500	3.823700	-11.453000	22.380507	0.000932	20.897016
209.068978	-2.998800	3.824800	-11.468000	22.393613	0.000933	20.892597
210.062585	-3.018800	3.822000	-11.537000	22.410086	0.000934	20.892498
211.064698	-3.003100	3.823800	-11.482000	22.392642	0.000935	20.895417
212.065130	-2.973100	3.825300	-11.372000	22.405475	0.000934	20.891200
213.066714	-2.992900	3.822700	-11.441000	22.422496	0.000936	20.904450
214.068433	-2.991600	3.823300	-11.437000	22.434980	0.000938	20.887556
215.071386	-2.985600	3.824400	-11.417000	22.445718	0.000937	20.902576
216.063136	-2.975800	3.822400	-11.372000	22.448807	0.000936	20.904246
217.068811	-3.013500	3.820600	-11.512000	22.451375	0.000940	20.911085
218.064567	-3.020300	3.822000	-11.543000	22.457431	0.000939	20.897236
219.067302	-3.019400	3.821100	-11.535000	22.437617	0.000939	20.908687
220.082762	-3.001100	3.821600	-11.466000	22.434226	0.000939	20.907661
221.065810	-2.998300	3.821700	-11.458000	22.469739	0.000941	20.917620
222.072711	-3.034400	3.820600	-11.591000	22.455034	0.000941	20.899577
223.070174	-3.010100	3.821800	-11.503000	22.495426	0.000942	20.908259
224.070977	-2.984000	3.820600	-11.399000	22.520519	0.000942	20.914897
225.070529	-2.995400	3.820500	-11.443000	22.510178	0.000941	20.910230
226.069109	-2.984900	3.821000	-11.404000	22.527596	0.000944	20.915346
227.074745	-3.007300	3.820900	-11.489000	22.548545	0.000944	20.896026
228.070817	-3.008800	3.819900	-11.493000	22.541496	0.000944	20.888493
229.069373	-2.991900	3.820100	-11.428000	22.561479	0.000944	20.916565
230.068429	-2.989600	3.819900	-11.419000	22.589083	0.000942	20.938993
231.070784	-3.002000	3.820500	-11.468000	22.566156	0.000942	20.916507
232.072308	-2.997900	3.818600	-11.447000	22.589108	0.000943	20.921002
233.070274	-3.019100	3.818900	-11.528000	22.580683	0.000943	20.913039
234.078922	-3.007700	3.818100	-11.483000	22.573857	0.000945	20.910470
235.069908	-3.007400	3.817500	-11.480000	22.567202	0.000945	20.917080
236.074768	-2.993100	3.818300	-11.427000	22.581033	0.000944	20.914338
237.080978	-2.981300	3.818500	-11.383000	22.596256	0.000946	20.921049
238.074858	-2.990700	3.817900	-11.417000	22.610505	0.000947	20.916355
239.071395	-3.009000	3.816700	-11.483000	22.606019	0.000945	20.904277
240.081857	-2.995600	3.817600	-11.435000	22.584619	0.000945	20.919351
241.075817	-2.988600	3.816900	-11.407000	22.597872	0.000946	20.916030
242.080678	-3.004200	3.816700	-11.465000	22.575949	0.000946	20.910195
243.094787	-3.016700	3.814100	-11.504000	22.600217	0.000947	20.890406
244.076615	-3.001100	3.815600	-11.450000	22.590848	0.000947	20.922271
245.077740	-2.999700	3.816400	-11.446000	22.615168	0.000949	20.912017
246.073479	-3.010100	3.815400	-11.484000	22.624135	0.000950	20.916730
247.078822	-3.003800	3.815800	-11.460000	22.638163	0.000949	20.918453
248.074171	-2.998800	3.815700	-11.442000	22.649951	0.000949	20.911294
249.075176	-2.989500	3.815500	-11.405000	22.660016	0.000951	20.891032
250.074233	-3.017900	3.814300	-11.510000	22.667367	0.000951	20.895550
251.082070	-2.981300	3.814600	-11.372000	22.669338	0.000949	20.879033
252.077535	-2.999600	3.813000	-11.436000	22.682441	0.000951	20.901639
253.078280	-2.989900	3.814100	-11.401000	22.700577	0.000953	20.907951
254.077974	-2.984000	3.814500	-11.381000	22.713886	0.000953	20.903265
255.078002	-3.000200	3.812500	-11.436000	22.702449	0.000952	20.879008
256.079509	-2.994100	3.814000	-11.419000	22.721012	0.000952	20.880058
257.076129	-3.010300	3.812400	-11.475000	22.727116	0.000955	20.900869
258.076535	-2.985200	3.812300	-11.379000	22.755318	0.000956	20.885499
259.077215	-3.005400	3.811900	-11.454000	22.761224	0.000954	20.881458
260.082663	-3.001100	3.811200	-11.437000	22.737956	0.000956	20.888496
261.077050	-2.999600	3.811700	-11.432000	22.709332	0.000956	20.893013
262.079049	-3.004500	3.812100	-11.451000	22.686362	0.000956	20.878068
263.080769	-3.005700	3.811900	-11.456000	22.711002	0.000956	20.878567
264.079923	-3.006600	3.811700	-11.459000	22.705872	0.000958	20.890023
265.077983	-3.011400	3.810600	-11.475000	22.737438	0.000958	20.887503
266.077397	-3.012300	3.809000	-11.473000	22.739059	0.000958	20.891971
267.076143	-3.002200	3.810700	-11.438000	22.772642	0.000958	20.879620
268.080864	-2.993500	3.809600	-11.401000	22.759686	0.000958	20.899830
269.075493	-3.020400	3.808400	-11.502000	22.785521	0.000959	20.885408
270.074965	-2.997900	3.809300	-11.419000	22.773341	0.000961	20.889802
271.077180	-2.986400	3.810800	-11.380000	22.798727	0.000960	20.875879
272.076691	-2.982900	3.810100	-11.362000	22.810087	0.000961	20.878724
273.081029	-3.020200	3.808800	-11.502000	22.793947	0.000963	20.892900
274.078916	-3.011200	3.809600	-11.470000	22.785204	0.000960	20.872290
275.077571	-3.005400	3.807000	-11.440000	22.810665	0.000963	20.871717
276.081261	-3.012400	3.808500	-11.472000	22.814154	0.000966	20.880427
277.075683	-2.983000	3.809100	-11.362000	22.800629	0.000963	20.863560
278.080856	-3.008300	3.808000	-11.454000	22.811416	0.000964	20.872943
279.076986	-3.008200	3.807800	-11.454000	22.803397	0.000965	20.856377
280.081569	-2.976100	3.808400	-11.332000	22.800832	0.000965	20.864238
281.077672	-3.002900	3.807800	-11.434000	22.817476	0.000967	20.883754
282.081619	-3.009000	3.806900	-11.453000	22.795530	0.000966	20.857030
283.081869	-3.017000	3.806900	-11.485000	22.820767	0.000969	20.851966
284.082521	-3.025400	3.805300	-11.511000	22.819573	0.000968	20.865942
285.084455	-3.009500	3.806300	-11.453000	22.851859	0.000968	20.857984
286.079585	-3.026200	3.805900	-11.516000	22.859883	0.000968	20.837574
287.081407	-2.988900	3.806200	-11.376000	22.864515	0.000969	20.857860
288.088564	-2.981900	3.807000	-11.352000	22.871515	0.000970	20.865821
289.087764	-2.994900	3.805400	-11.395000	22.878741	0.000972	20.858836
290.086327	-2.994500	3.805300	-11.393000	22.866785	0.000972	20.880995
291.084803	-2.998800	3.806600	-11.413000	22.888287	0.000969	20.869346
292.083246	-2.975000	3.803800	-11.315000	22.882879	0.000971	20.870093
293.086522	-2.989700	3.803700	-11.371000	22.881460	0.000972	20.871042
294.085831	-2.998800	3.803900	-11.406000	22.890056	0.000974	20.863533
295.083414	-2.990500	3.803500	-11.373000	22.906725	0.000974	20.866956
296.085505	-2.999800	3.803700	-11.410000	22.917135	0.000974	20.864109
297.087606	-2.996400	3.804000	-11.398000	22.917883	0.000974	20.846842
298.091681	-2.985000	3.803300	-11.351000	22.906574	0.000974	20.855900
299.088275	-3.015600	3.802400	-11.465000	22.946007	0.000975	20.848465
300.093590	-2.983400	3.803400	-11.345000	22.960282	0.000975	20.840482
301.094230	-2.994800	3.802900	-11.388000	22.954677	0.000978	20.862367
302.088658	-2.986100	3.801800	-11.351000	22.971915	0.000975	20.841706
303.090169	-2.998000	3.801800	-11.396000	22.993037	0.000978	20.840584
304.092617	-2.996900	3.802500	-11.394000	22.989799	0.000977	20.842555
305.089227	-2.980500	3.801600	-11.328000	23.013142	0.000977	20.846503
306.087724	-2.967700	3.802000	-11.283000	22.992944	0.000979	20.856137
307.097334	-2.993200	3.801000	-11.376000	22.996727	0.000980	20.842385
308.088780	-2.984000	3.802000	-11.344000	22.953343	0.000977	20.858660
309.091803	-3.003700	3.801000	-11.416000	22.957181	0.000980	20.861557
310.092124	-2.982300	3.799600	-11.330000	22.979597	0.000981	20.851300
311.091015	-2.995500	3.798600	-11.377000	22.985078	0.000982	20.843515
312.094677	-3.013100	3.801100	-11.452000	22.998879	0.000981	20.827946
313.095167	-3.019600	3.798800	-11.469000	23.036515	0.000981	20.836257
314.093813	-2.993100	3.799800	-11.372000	23.041720	0.000983	20.832464
315.095300	-3.004800	3.798800	-11.413000	23.034550	0.000984	20.832392
316.097363	-3.001700	3.799600	-11.403000	23.030591	0.000983	20.835064
317.103627	-3.007900	3.798400	-11.423000	23.038113	0.000982	20.843074
318.093743	-3.012000	3.797600	-11.437000	23.049325	0.000983	20.847670
319.095334	-3.017100	3.796700	-11.454000	23.059161	0.000985	20.828128
320.094799	-2.995100	3.797600	-11.374000	23.045762	0.000985	20.825608
321.096023	-2.992200	3.797900	-11.362000	23.032638	0.000985	20.836640
322.101387	-3.002500	3.797200	-11.400000	23.048954	0.000985	20.839237
323.096995	-2.993300	3.797100	-11.364000	23.046764	0.000986	20.844155
324.096822	-2.988200	3.796400	-11.343000	23.037250	0.000986	20.846950
325.097681	-2.998500	3.796700	-11.384000	23.074238	0.000987	20.816209
326.115435	-2.999700	3.795500	-11.384000	23.068782	0.000988	20.833501
327.098746	-3.012000	3.794400	-11.427000	23.085993	0.000989	20.844583
328.103315	-2.991100	3.796100	-11.353000	23.066941	0.000988	20.832605
329.098033	-3.019900	3.794900	-11.458000	23.086395	0.000987	20.837873
330.101315	-3.006000	3.794200	-11.404000	23.114363	0.000989	20.816586
331.102282	-2.994500	3.794500	-11.361000	23.117901	0.000988	20.819657
332.105545	-2.981800	3.794000	-11.313000	23.140966	0.000987	20.823329
333.100473	-3.011700	3.793400	-11.423000	23.150127	0.000990	20.834405
334.101717	-2.988400	3.793800	-11.336000	23.166567	0.000990	20.832862
335.105806	-3.006600	3.793000	-11.402000	23.134020	0.000989	20.824429
336.104504	-2.993800	3.791800	-11.351000	23.132004	0.000992	20.833788
337.102679	-3.011800	3.793200	-11.423000	23.152325	0.000990	20.824755
338.099753	-3.009100	3.792400	-11.411000	23.131032	0.000991	20.814798
339.105209	-3.007400	3.791700	-11.402000	23.172548	0.000990	20.806613
340.107290	-3.011300	3.792300	-11.419000	23.139850	0.000992	20.814150
341.105122	-3.002800	3.792400	-11.386000	23.187618	0.000995	20.811757
342.103183	-3.010500	3.791200	-11.411000	23.144906	0.000994	20.832967
343.105298	-2.999200	3.791700	-11.371000	23.142194	0.000994	20.816025
344.105791	-3.001500	3.790800	-11.377000	23.114075	0.000992	20.811556
345.105500	-2.993500	3.790700	-11.346000	23.131731	0.000994	20.813601
346.105842	-2.986800	3.790700	-11.321000	23.104636	0.000994	20.820589
347.104338	-3.002400	3.789200	-11.376000	23.133624	0.000994	20.805541
348.105728	-3.011000	3.789300	-11.407000	23.151258	0.000994	20.814676
349.104503	-3.000200	3.789500	-11.368000	23.149888	0.000995	20.815674
350.107001	-3.008300	3.790100	-11.401000	23.185082	0.000994	20.818225
351.103863	-3.004600	3.789800	-11.387000	23.185082	0.000993	20.828656
352.108946	-2.985300	3.789500	-11.311000	23.178754	0.000993	20.817100
353.106964	-2.974700	3.789700	-11.272000	23.209463	0.000995	20.816105
354.112434	-2.978000	3.788500	-11.281000	23.223135	0.000994	20.813684
355.110265	-2.989600	3.788100	-11.324000	23.194820	0.000996	20.820871
356.109777	-2.995600	3.788500	-11.347000	23.225853	0.000998	20.819727
357.109687	-2.986200	3.787900	-11.311000	23.187827	0.000997	20.797743
358.108845	-3.012300	3.786300	-11.404000	23.243829	0.000997	20.810241
359.113554	-2.997900	3.786200	-11.349000	23.222618	0.000997	20.830710
360.120399	-3.004200	3.786300	-11.373000	23.207601	0.000998	20.812342
361.112513	-2.990800	3.786400	-11.323000	23.206982	0.000999	20.802713
362.114511	-3.010900	3.786300	-11.399000	23.192787	0.000998	20.796075
363.111162	-2.987300	3.786600	-11.310000	23.166389	0.000999	20.799019
364.111710	-2.974400	3.785300	-11.258000	23.202600	0.001001	20.826297
365.111347	-2.988300	3.784500	-11.308000	23.181710	0.001002	20.799199
366.110508	-2.996900	3.786400	-11.346000	23.215675	0.001000	20.789614
367.114974	-2.999300	3.784600	-11.350000	23.241626	0.001002	20.822258
368.111873	-3.008200	3.784800	-11.383000	23.243244	0.001001	20.807758
369.108354	-3.018300	3.783100	-11.418000	23.254948	0.001003	20.801944
370.112883	-3.015800	3.783100	-11.408000	23.306122	0.001003	20.811979
371.109681	-3.019200	3.782400	-11.419000	23.286722	0.001004	20.816243
372.113863	-3.002300	3.784400	-11.361000	23.299075	0.001004	20.786898
373.111479	-2.986800	3.784700	-11.303000	23.297925	0.001005	20.801393
374.115034	-2.994100	3.782700	-11.324000	23.319419	0.001003	20.786424
375.111963	-2.997700	3.783400	-11.341000	23.302334	0.001003	20.784949
376.123150	-2.995500	3.784300	-11.333000	23.290584	0.001004	20.809683
377.115753	-3.011400	3.782700	-11.390000	23.323649	0.001006	20.784974
378.117078	-2.984400	3.782300	-11.286000	23.355894	0.001007	20.778884
379.119623	-3.005800	3.781900	-11.367000	23.358831	0.001006	20.786570
380.113465	-3.012500	3.781100	-11.388000	23.364159	0.001008	20.797600
381.115577	-2.993000	3.781500	-11.316000	23.375089	0.001007	20.791011
382.117474	-2.995000	3.781300	-11.325000	23.388731	0.001005	20.795675
383.115694	-3.006600	3.779800	-11.363000	23.396699	0.001006	20.808877
384.118327	-2.997900	3.780000	-11.330000	23.403919	0.001007	20.758740
385.121295	-2.982300	3.781000	-11.274000	23.431928	0.001006	20.788238
386.118434	-2.973600	3.780300	-11.239000	23.411336	0.001008	20.793203
387.119668	-3.003300	3.779900	-11.351000	23.396919	0.001008	20.797718
388.122500	-2.997300	3.779000	-11.325000	23.383123	0.001007	20.784838
389.119247	-3.005200	3.778800	-11.355000	23.367189	0.001007	20.796844
390.120707	-2.986300	3.778800	-11.284000	23.370847	0.001010	20.776328
391.124053	-2.998400	3.778600	-11.328000	23.371271	0.001009	20.791926
392.120675	-2.977100	3.779000	-11.250000	23.378293	0.001008	20.804180
393.124524	-2.978700	3.778300	-11.253000	23.377096	0.001008	20.786385
394.128058	-3.004400	3.776600	-11.345000	23.381054	0.001009	20.803628
395.123033	-2.993600	3.777500	-11.307000	23.393901	0.001010	20.803228
396.120551	-2.988000	3.778100	-11.287000	23.389174	0.001006	20.772885
397.124382	-2.997900	3.776400	-11.320000	23.394377	0.001010	20.789007
398.123727	-2.987400	3.775900	-11.278000	23.412428	0.001008	20.787184
399.121681	-3.009000	3.776600	-11.362000	23.422461	0.001010	20.792973
400.125137	-2.976100	3.776500	-11.238000	23.430107	0.001011	20.782145
401.121473	-3.023400	3.774200	-11.410000	23.473430	0.001013	20.766774
402.124517	-3.012600	3.775300	-11.372000	23.462451	0.001009	20.787063
403.120767	-2.994200	3.773800	-11.299000	23.471686	0.001014	20.763603
404.124410	-2.995100	3.774600	-11.304000	23.467107	0.001011	20.773238
405.121995	-3.000600	3.774100	-11.321000	23.469522	0.001014	20.783245
406.123523	-2.985400	3.774900	-11.269000	23.482244	0.001013	20.762807
407.124232	-2.999300	3.772500	-11.313000	23.463722	0.001013	20.776009
408.123221	-3.004600	3.773700	-11.338000	23.472811	0.001012	20.768050
409.125871	-3.002100	3.773600	-11.327000	23.489664	0.001015	20.769770
410.120885	-3.007100	3.771700	-11.340000	23.509256	0.001014	20.771865
411.119452	-2.973700	3.772300	-11.215000	23.499895	0.001017	20.758688
412.125068	-2.996200	3.772400	-11.302000	23.524742	0.001014	20.791656
413.123321	-3.008600	3.770700	-11.344000	23.528350	0.001016	20.774410
414.122170	-2.998300	3.770400	-11.304000	23.524167	0.001015	20.786812
415.125284	-3.009400	3.769800	-11.344000	23.517768	0.001017	20.775182
416.123017	-3.009500	3.770300	-11.346000	23.500668	0.001018	20.756143
417.124874	-3.019900	3.769900	-11.384000	23.528947	0.001017	20.771215
418.123799	-2.992400	3.770000	-11.280000	23.517842	0.001020	20.764350
419.124210	-2.998900	3.770300	-11.306000	23.515149	0.001018	20.774454
420.126074	-2.995400	3.769600	-11.290000	23.516918	0.001018	20.762950
421.124892	-2.976000	3.769600	-11.217000	23.546990	0.001019	20.764171
422.126484	-2.983900	3.769600	-11.246000	23.535112	0.001019	20.757954
423.126236	-3.000400	3.768800	-11.307000	23.563341	0.001019	20.772027
424.127425	-3.007100	3.769400	-11.334000	23.568222	0.001019	20.761747
425.127518	-2.997800	3.769000	-11.297000	23.560077	0.001021	20.757849
426.126575	-3.008200	3.769000	-11.337000	23.559752	0.001019	20.769852
427.127601	-3.006400	3.767800	-11.325000	23.545213	0.001018	20.756225
428.125163	-3.005000	3.768300	-11.323000	23.554871	0.001021	20.770649
429.127340	-3.029000	3.766100	-11.406000	23.551205	0.001018	20.764603
430.126183	-3.014900	3.766700	-11.355000	23.528750	0.001020	20.780975
431.129224	-3.006800	3.765700	-11.322000	23.524837	0.001020	20.767095
432.131200	-2.996800	3.766300	-11.286000	23.541940	0.001020	20.767643
433.134846	-3.013200	3.766400	-11.348000	23.494486	0.001022	20.766543
434.130051	-2.995700	3.765600	-11.279000	23.494085	0.001024	20.779417
435.128991	-3.006700	3.764900	-11.319000	23.541634	0.001023	20.749319
436.129739	-3.001900	3.764300	-11.298000	23.550170	0.001022	20.758824
437.132469	-3.005700	3.763600	-11.311000	23.529305	0.001023	20.751659
438.130231	-2.995900	3.765800	-11.280000	23.555516	0.001024	20.753751
439.132179	-2.982300	3.765600	-11.229000	23.576773	0.001025	20.757991
440.131031	-3.009600	3.763800	-11.326000	23.579559	0.001023	20.749404
441.128624	-3.012800	3.761900	-11.333000	23.584709	0.001023	20.767844
442.133911	-2.993800	3.763400	-11.266000	23.601561	0.001026	20.775254
443.134870	-3.004700	3.761500	-11.301000	23.572777	0.001025	20.771529
444.130254	-2.984800	3.762400	-11.229000	23.587591	0.001024	20.764094
445.135571	-3.005900	3.760700	-11.304000	23.572799	0.001025	20.777241
446.133639	-2.973500	3.762700	-11.187000	23.553128	0.001024	20.756100
447.140449	-3.015300	3.760300	-11.337000	23.533358	0.001022	20.749558
448.140209	-3.004200	3.760500	-11.296000	23.515881	0.001025	20.751953
449.131752	-3.020500	3.759200	-11.354000	23.525985	0.001023	20.759711
450.134528	-2.994400	3.761200	-11.263000	23.515153	0.001023	20.775879
451.137313	-2.982100	3.760500	-11.213000	23.551869	0.001024	20.777597
452.131170	-3.013400	3.758400	-11.324000	23.556797	0.001025	20.752190
453.131963	-3.006900	3.759600	-11.303000	23.581417	0.001025	20.756483
454.137457	-3.005100	3.759000	-11.295000	23.575590	0.001025	20.778143
455.129596	-2.990100	3.758600	-11.238000	23.585443	0.001025	20.773795
456.138120	-3.013500	3.758500	-11.325000	23.631220	0.001027	20.759468
457.136702	-3.004400	3.758400	-11.292000	23.650934	0.001026	20.761687
458.130418	-3.005900	3.757600	-11.294000	23.658303	0.001028	20.747264
459.133635	-3.018900	3.756000	-11.337000	23.655809	0.001028	20.759937
460.136436	-2.985100	3.756700	-11.213000	23.645352	0.001027	20.776480
461.137120	-2.976300	3.758400	-11.185000	23.669123	0.001027	20.766173
462.133675	-2.969900	3.758300	-11.160000	23.661479	0.001027	20.780320
463.147844	-2.988600	3.756400	-11.225000	23.654561	0.001028	20.773859
464.135027	-3.014100	3.756100	-11.320000	23.675343	0.001026	20.781892
465.146959	-3.018900	3.755900	-11.337000	23.656419	0.001028	20.761023
466.140594	-2.973100	3.756500	-11.167000	23.686466	0.001028	20.757006
467.139165	-2.988600	3.755500	-11.221000	23.678450	0.001028	20.750393
468.139675	-3.005800	3.754200	-11.283000	23.707347	0.001028	20.776045
469.142613	-3.015500	3.754200	-11.320000	23.709934	0.001028	20.759672
470.138757	-3.006500	3.754000	-11.286000	23.704382	0.001029	20.759796
471.134990	-2.989600	3.754500	-11.224000	23.684940	0.001028	20.757373
472.142621	-2.991800	3.753600	-11.229000	23.683620	0.001029	20.758895
473.140157	-2.994100	3.753400	-11.237000	23.706742	0.001028	20.763584
474.140851	-2.993300	3.753800	-11.235000	23.726283	0.001028	20.771797
475.144371	-3.003500	3.752400	-11.269000	23.691181	0.001027	20.757467
476.137885	-2.995800	3.752200	-11.240000	23.722648	0.001028	20.760566
477.139138	-3.005900	3.751300	-11.275000	23.703750	0.001028	20.763904
478.138973	-3.012100	3.750600	-11.296000	23.685679	0.001029	20.765227
479.139407	-3.006000	3.751600	-11.276000	23.696557	0.001026	20.763331
480.134600	-2.983000	3.753000	-11.194000	23.707259	0.001030	20.769793
481.137218	-3.000500	3.751200	-11.254000	23.717240	0.001029	20.761781
482.136681	-2.998200	3.750600	-11.245000	23.738148	0.001030	20.775157
483.137939	-3.002600	3.749000	-11.256000	23.739968	0.001030	20.759438
484.145413	-3.017800	3.750100	-11.317000	23.753952	0.001029	20.781046
485.140766	-2.992700	3.750200	-11.223000	23.770878	0.001030	20.775257
486.141320	-2.994000	3.749300	-11.224000	23.760521	0.001031	20.760130
487.142922	-2.998100	3.748200	-11.237000	23.751458	0.001029	20.751518
488.144954	-3.006200	3.748400	-11.268000	23.761887	0.001028	20.763397
489.140290	-3.004500	3.748800	-11.262000	23.747326	0.001031	20.771083
490.147350	-3.003900	3.747800	-11.257000	23.751511	0.001031	20.771011
491.140091	-2.974000	3.748700	-11.148000	23.749963	0.001032	20.769459
492.139639	-2.980400	3.748100	-11.170000	23.773982	0.001031	20.780740
493.147910	-2.983600	3.747900	-11.179000	23.804369	0.001033	20.777068
494.146825	-2.983700	3.747300	-11.179000	23.808499	0.001030	20.776941
495.151313	-2.999100	3.746700	-11.236000	23.852155	0.001031	20.763342
496.146252	-2.991900	3.746400	-11.208000	23.834857	0.001030	20.759747
497.141920	-2.993100	3.746700	-11.214000	23.875496	0.001032	20.756401
498.139169	-2.994800	3.745100	-11.214000	23.876090	0.001028	20.793981
499.146838	-3.029900	3.745100	-11.346000	23.893014	0.001030	20.758319
500.148318	-3.009200	3.745400	-11.269000	23.912899	0.001029	20.772569
501.142716	-3.003800	3.745000	-11.249000	23.888781	0.001029	20.774463
502.144303	-3.001600	3.745100	-11.238000	23.890199	0.001030	20.760712
503.145910	-2.992500	3.743400	-11.201000	23.871606	0.001030	20.749655
504.144722	-2.996700	3.743000	-11.216000	23.862721	0.001028	20.770618
505.147443	-2.998300	3.743300	-11.222000	23.863444	0.001030	20.759963
506.151535	-2.989800	3.744400	-11.194000	23.834472	0.001028	20.770267
507.146842	-2.977900	3.743000	-11.146000	23.816156	0.001029	20.777981
508.143735	-2.992100	3.742500	-11.197000	23.830689	0.001028	20.766000
509.146164	-2.999000	3.743400	-11.225000	23.829845	0.001028	20.782698
510.145602	-3.027500	3.740500	-11.322000	23.871282	0.001027	20.792004
511.149791	-2.996800	3.742800	-11.216000	23.864711	0.001027	20.780674
512.147981	-2.990600	3.741300	-11.188000	23.862966	0.001028	20.767544
513.146896	-3.021200	3.740600	-11.300000	23.871925	0.001027	20.772261
514.150727	-2.996000	3.740800	-11.207000	23.873619	0.001029	20.791029
515.148037	-3.019000	3.738500	-11.284000	23.881559	0.001027	20.767221
516.143497	-3.006100	3.739600	-11.241000	23.901792	0.001028	20.780399
517.151063	-2.999800	3.739200	-11.215000	23.921652	0.001027	20.770915
518.144428	-3.025200	3.738600	-11.310000	23.941784	0.001028	20.772137
519.145729	-2.976700	3.739900	-11.131000	23.926229	0.001027	20.780247
520.150535	-3.004400	3.738700	-11.231000	23.943180	0.001027	20.774959
521.147972	-2.992600	3.739100	-11.189000	23.945869	0.001027	20.784768
522.149486	-3.022400	3.736900	-11.293000	23.965527	0.001028	20.777454
523.146015	-3.007900	3.737200	-11.240000	23.981306	0.001027	20.771467
524.146266	-2.998400	3.737400	-11.206000	23.981779	0.001028	20.769096
525.147001	-2.997200	3.737500	-11.201000	23.991460	0.001026	20.805832
526.153730	-2.988400	3.737000	-11.166000	23.994273	0.001028	20.780203
527.143726	-3.011800	3.736600	-11.253000	23.987829	0.001028	20.780379
528.153432	-2.996000	3.736100	-11.192000	24.007514	0.001028	20.788266
529.148694	-2.983900	3.736300	-11.148000	23.995919	0.001030	20.770474
530.148005	-3.009100	3.735100	-11.237000	24.025604	0.001030	20.780804
531.145961	-2.976100	3.736000	-11.118000	24.029788	0.001028	20.776464
532.148476	-2.983800	3.735100	-11.144000	24.019359	0.001027	20.793032
533.149227	-3.005200	3.735700	-11.225000	23.961007	0.001029	20.785250
534.148497	-3.006000	3.734600	-11.225000	23.990696	0.001030	20.784203
535.148467	-3.016200	3.734400	-11.262000	23.996295	0.001029	20.795508
536.144928	-3.020100	3.733800	-11.275000	23.987139	0.001031	20.776368
537.148973	-3.002000	3.733100	-11.205000	23.977064	0.001030	20.780963
538.149457	-2.985500	3.733000	-11.145000	24.021508	0.001030	20.787127
539.150508	-3.023100	3.731900	-11.281000	24.041019	0.001031	20.781564
540.154716	-2.995000	3.731800	-11.175000	24.054752	0.001029	20.801975
541.150810	-2.994000	3.731600	-11.171000	24.054455	0.001030	20.798832
542.149784	-3.005800	3.731300	-11.214000	24.090015	0.001031	20.788029
543.151289	-3.001100	3.732600	-11.201000	24.081310	0.001030	20.771237
544.149239	-2.996800	3.731600	-11.181000	24.108129	0.001031	20.789126
545.147810	-2.998300	3.730700	-11.184000	24.115822	0.001031	20.775031
546.153028	-3.005800	3.730000	-11.210000	24.107087	0.001030	20.786184
547.155075	-3.014700	3.730000	-11.244000	24.131322	0.001031	20.799111
548.150716	-2.974900	3.730300	-11.097000	24.138589	0.001032	20.789804
549.151115	-2.998500	3.730100	-11.185000	24.140480	0.001031	20.780321
550.153159	-2.965300	3.730900	-11.060000	24.149687	0.001030	20.786711
551.158246	-2.989600	3.730000	-11.149000	24.140983	0.001031	20.777980
552.152319	-3.014600	3.728600	-11.239000	24.139713	0.001032	20.780500
553.151820	-3.003300	3.729400	-11.199000	24.160390	0.001032	20.780376
554.152689	-3.004900	3.728800	-11.204000	24.131132	0.001030	20.800817
555.151460	-3.001000	3.728000	-11.186000	24.095578	0.001032	20.796927
556.151828	-3.001200	3.728200	-11.188000	24.057308	0.001033	20.797900
557.163231	-3.021200	3.726800	-11.258000	24.010977	0.001030	20.791739
558.153378	-2.983900	3.727000	-11.119000	24.005748	0.001031	20.791711
559.153198	-2.986000	3.726300	-11.126000	24.013640	0.001030	20.787298
560.158922	-2.991200	3.726800	-11.147000	24.030686	0.001030	20.793012
561.152774	-2.981800	3.727200	-11.113000	24.067344	0.001031	20.803223
562.152852	-2.977800	3.725900	-11.095000	24.064831	0.001030	20.781263
563.151618	-2.992400	3.726000	-11.149000	24.040496	0.001030	20.789101
564.154431	-3.023800	3.724100	-11.259000	24.071700	0.001029	20.803325
565.151594	-3.009100	3.726000	-11.211000	24.071527	0.001029	20.805522
566.158046	-3.004300	3.725400	-11.191000	24.077253	0.001028	20.804152
567.152503	-3.016800	3.723300	-11.231000	24.120225	0.001030	20.803628
568.155180	-2.998700	3.725300	-11.170000	24.124409	0.001030	20.802134
569.161645	-3.001800	3.724000	-11.178000	24.142420	0.001031	20.774680
570.159786	-2.992300	3.724100	-11.143000	24.155836	0.001028	20.789084
571.157426	-2.992000	3.723500	-11.139000	24.158125	0.001030	20.784742
572.158895	-3.016700	3.723100	-11.231000	24.201592	0.001029	20.785192
573.155964	-3.003200	3.723200	-11.180000	24.213336	0.001031	20.803609
574.156501	-2.996300	3.721900	-11.151000	24.203983	0.001029	20.784745
575.159401	-3.007900	3.721700	-11.193000	24.229584	0.001029	20.793828
576.155626	-2.999800	3.720900	-11.161000	24.235509	0.001028	20.797401
577.157664	-2.988200	3.721400	-11.119000	24.259719	0.001030	20.808883
578.160506	-3.019200	3.720600	-11.231000	24.261659	0.001029	20.817467
579.162976	-3.010900	3.718800	-11.197000	24.263503	0.001027	20.784229
580.158478	-2.993100	3.720300	-11.133000	24.252332	0.001027	20.787722
581.162785	-3.002500	3.719800	-11.168000	24.261912	0.001029	20.794487
582.160031	-2.993400	3.721300	-11.138000	24.258257	0.001028	20.796985
583.157520	-3.021000	3.718800	-11.233000	24.248182	0.001028	20.794465
584.166446	-2.995700	3.718800	-11.140000	24.238106	0.001026	20.797161
585.162056	-3.007000	3.718000	-11.178000	24.217082	0.001028	20.803099
586.168559	-2.992000	3.717500	-11.122000	24.230296	0.001028	20.811612
587.164495	-3.004800	3.717700	-11.170000	24.175685	0.001027	20.790501
588.168298	-3.026100	3.717700	-11.249000	24.155583	0.001026	20.798314
589.164868	-2.983200	3.717900	-11.090000	24.153494	0.001026	20.802857
590.164866	-3.014200	3.717300	-11.204000	24.159516	0.001029	20.807948
591.167557	-3.006300	3.716800	-11.173000	24.167404	0.001025	20.792627
592.163675	-3.016700	3.715600	-11.208000	24.160093	0.001027	20.787190
593.167873	-3.004200	3.715900	-11.162000	24.181168	0.001025	20.804061
594.163045	-3.017700	3.716000	-11.212000	24.184354	0.001025	20.794928
595.162802	-3.004300	3.717000	-11.166000	24.184354	0.001026	20.804886
596.178127	-3.000500	3.715800	-11.148000	24.192165	0.001024	20.822677
597.161771	-3.012100	3.715500	-11.190000	24.158134	0.001026	20.808458
598.168875	-3.024700	3.714200	-11.233000	24.161072	0.001025	20.794810
599.169536	-3.019900	3.714100	-11.215000	24.194413	0.001024	20.804544
600.170247	-2.997800	3.714700	-11.134000	24.173561	0.001026	20.814923
601.167049	-2.996000	3.714600	-11.128000	24.170032	0.001027	20.815651
602.166106	-2.999500	3.713400	-11.138000	24.199940	0.001025	20.802501
603.172007	-3.009600	3.713200	-11.174000	24.202653	0.001025	20.800481
604.163830	-3.013300	3.712500	-11.186000	24.188721	0.001025	20.829180
605.165113	-2.987700	3.712600	-11.091000	24.180713	0.001026	20.825889
606.165370	-3.006600	3.712700	-11.162000	24.178747	0.001025	20.806849
607.164850	-2.980700	3.711800	-11.063000	24.172901	0.001025	20.816158
608.164991	-2.983800	3.712400	-11.075000	24.190395	0.001025	20.806204
609.166709	-2.983500	3.712900	-11.074000	24.185344	0.001025	20.808723
610.166493	-3.002700	3.711300	-11.143000	24.164049	0.001024	20.832409
611.165746	-3.017200	3.710300	-11.194000	24.161710	0.001023	20.812045
612.163397	-3.000700	3.710500	-11.133000	24.196373	0.001027	20.803665
613.166980	-3.017000	3.710200	-11.193000	24.211773	0.001025	20.815792
614.176239	-2.981300	3.710300	-11.061000	24.236706	0.001025	20.817093
615.168833	-2.994100	3.709400	-11.106000	24.253748	0.001026	20.816169
616.169977	-3.011000	3.708000	-11.163000	24.268300	0.001026	20.817964
617.166115	-2.999000	3.708900	-11.121000	24.296988	0.001027	20.823982
618.168503	-3.033500	3.708700	-11.248000	24.313653	0.001025	20.817939
619.166086	-3.010500	3.708200	-11.163000	24.340870	0.001027	20.808732
620.169374	-3.003500	3.708100	-11.136000	24.350548	0.001024	20.832665
621.165164	-3.002900	3.708000	-11.133000	24.369205	0.001024	20.812974
622.169197	-3.009700	3.707700	-11.158000	24.351021	0.001024	20.832665
623.168109	-3.008300	3.706700	-11.149000	24.357515	0.001023	20.812153
624.164631	-3.014600	3.705600	-11.170000	24.366992	0.001023	20.832092
625.168442	-3.005400	3.707000	-11.139000	24.356319	0.001023	20.822333
626.169815	-3.004700	3.704900	-11.131000	24.375550	0.001022	20.815546
627.171786	-3.022400	3.705700	-11.198000	24.384280	0.001021	20.820037
628.168309	-2.994900	3.706500	-11.100000	24.367366	0.001022	20.832467
629.174685	-2.985700	3.706100	-11.064000	24.383785	0.001022	20.825705
630.167407	-2.982800	3.706200	-11.054000	24.377416	0.001022	20.825479
631.172965	-2.991000	3.704500	-11.080000	24.375574	0.001024	20.826477
632.167171	-2.993800	3.704000	-11.088000	24.377190	0.001021	20.833313
633.169608	-3.014600	3.703600	-11.164000	24.412416	0.001023	20.834986
634.170527	-2.988400	3.703200	-11.066000	24.366819	0.001023	20.834763
635.171871	-2.985300	3.705300	-11.060000	24.347561	0.001024	20.824453
636.176955	-3.009500	3.703200	-11.144000	24.375049	0.001022	20.839226
637.175333	-3.006400	3.704400	-11.135000	24.387761	0.001022	20.822107
638.179007	-3.016900	3.701600	-11.167000	24.397736	0.001025	20.827372
639.176629	-2.994700	3.702800	-11.087000	24.424528	0.001023	20.848560
640.174333	-2.993600	3.702300	-11.082000	24.446071	0.001023	20.831767
641.171026	-2.978500	3.702600	-11.026000	24.429727	0.001023	20.829120
642.174586	-3.015900	3.702500	-11.165000	24.438234	0.001023	20.834336
643.172282	-3.001500	3.703000	-11.114000	24.456218	0.001023	20.844791
644.173753	-3.001400	3.701100	-11.108000	24.442785	0.001021	20.843642
645.174153	-2.990900	3.702100	-11.071000	24.465297	0.001024	20.842994
646.178190	-2.985200	3.700600	-11.046000	24.461686	0.001023	20.847432
647.176633	-3.015900	3.700300	-11.159000	24.469026	0.001021	20.829192
648.177742	-3.004200	3.699600	-11.113000	24.455641	0.001022	20.846583
649.177540	-3.017900	3.699800	-11.165000	24.463775	0.001023	20.847631
650.174553	-2.996800	3.699100	-11.084000	24.469471	0.001021	20.852871
651.178053	-2.999700	3.700000	-11.098000	24.456136	0.001021	20.839967
652.175738	-2.991800	3.699600	-11.066000	24.473301	0.001022	20.842489
653.179280	-2.976200	3.699500	-11.010000	24.464170	0.001022	20.839019
654.178046	-3.020000	3.698000	-11.167000	24.464096	0.001019	20.851746
655.180654	-3.009400	3.698300	-11.128000	24.469069	0.001019	20.857684
656.176167	-3.034300	3.695800	-11.212000	24.439990	0.001019	20.854114
657.180887	-2.988600	3.697200	-11.049000	24.435088	0.001020	20.841136
658.180860	-2.990800	3.697900	-11.059000	24.424912	0.001021	20.850842
659.176034	-3.042700	3.695500	-11.242000	24.420285	0.001019	20.868010
660.181673	-2.991500	3.696900	-11.059000	24.444537	0.001018	20.854409
661.182541	-2.991800	3.695900	-11.056000	24.442051	0.001020	20.857129
662.182579	-2.990500	3.696900	-11.055000	24.450110	0.001018	20.850991
663.186044	-3.002900	3.696700	-11.100000	24.458095	0.001020	20.864691
664.182205	-2.996200	3.696000	-11.073000	24.482745	0.001019	20.854808
665.180197	-3.001800	3.693900	-11.087000	24.485778	0.001018	20.855007
666.185367	-2.993400	3.695000	-11.059000	24.496626	0.001017	20.849769
667.182913	-3.019500	3.693500	-11.152000	24.493590	0.001016	20.871852
668.181017	-2.998700	3.693700	-11.076000	24.524907	0.001016	20.851592
669.185556	-3.026300	3.692800	-11.174000	24.492697	0.001016	20.877120
670.183639	-2.987700	3.694000	-11.035000	24.509040	0.001018	20.880240
671.183129	-3.007000	3.693200	-11.104000	24.505185	0.001014	20.872106
672.187437	-2.999200	3.693800	-11.077000	24.513343	0.001016	20.895462
673.187057	-3.003400	3.692200	-11.088000	24.528215	0.001015	20.861074
674.185539	-3.017000	3.693300	-11.142000	24.530161	0.001015	20.881043
675.182554	-3.002600	3.692100	-11.085000	24.552993	0.001016	20.861278
676.185385	-2.999600	3.692900	-11.076000	24.547770	0.001015	20.859357
677.180852	-2.999800	3.691400	-11.072000	24.538145	0.001015	20.874829
678.186143	-3.008800	3.689800	-11.101000	24.539016	0.001013	20.877126
679.186939	-3.013600	3.690000	-11.119000	24.519668	0.001014	20.887110
680.186846	-2.989400	3.690200	-11.030000	24.512579	0.001014	20.859137
681.187151	-3.016100	3.688500	-11.123000	24.518475	0.001014	20.866949
682.188703	-2.993500	3.690700	-11.047000	24.519272	0.001014	20.879127
683.183587	-3.015300	3.689700	-11.125000	24.519772	0.001014	20.874888
684.186726	-3.019900	3.689300	-11.140000	24.527084	0.001014	20.884119
685.183019	-3.007200	3.688900	-11.091000	24.511812	0.001015	20.870695
686.184751	-2.995500	3.689000	-11.050000	24.493659	0.001013	20.859594
687.186757	-2.997600	3.688800	-11.056000	24.455826	0.001013	20.882802
688.193142	-2.997500	3.688700	-11.056000	24.466872	0.001013	20.872547
689.192166	-2.989300	3.688000	-11.023000	24.463863	0.001013	20.891813
690.187205	-2.979400	3.687000	-10.983000	24.497143	0.001013	20.881581
691.189635	-2.985900	3.687900	-11.011000	24.503762	0.001013	20.883954
692.189080	-2.976300	3.687400	-10.974000	24.492098	0.001017	20.901648
693.192894	-2.982400	3.687000	-10.995000	24.518635	0.001013	20.886548
694.189513	-2.984000	3.685600	-10.997000	24.540327	0.001013	20.903095
695.191055	-2.989200	3.686800	-11.019000	24.555499	0.001016	20.893662
696.188978	-3.003800	3.685900	-11.070000	24.580295	0.001011	20.893886
697.188156	-3.002600	3.685700	-11.066000	24.603953	0.001013	20.888227
698.190982	-3.028200	3.684700	-11.156000	24.613003	0.001014	20.878816
699.187829	-2.984900	3.685200	-10.999000	24.629264	0.001014	20.884227
700.194686	-3.007200	3.683600	-11.076000	24.631429	0.001012	20.904415
701.194285	-3.011500	3.684600	-11.095000	24.653292	0.001012	20.880836
702.188795	-3.035400	3.683800	-11.181000	24.622973	0.001012	20.893560
703.198686	-3.012300	3.682400	-11.091000	24.638190	0.001011	20.885123
704.194087	-3.024100	3.681500	-11.132000	24.628069	0.001011	20.899622
705.190097	-3.014600	3.682500	-11.100000	24.642045	0.001013	20.897050
706.193274	-3.016500	3.682700	-11.108000	24.649528	0.001010	20.894602
707.193770	-3.004900	3.682600	-11.065000	24.634855	0.001010	20.891258
708.190123	-3.019300	3.681900	-11.115000	24.647814	0.001009	20.908528
709.199880	-2.985000	3.682200	-10.991000	24.635973	0.001010	20.892854
710.199340	-2.974000	3.682800	-10.951000	24.613665	0.001009	20.885169
711.193524	-2.989600	3.680900	-11.003000	24.566783	0.001008	20.893604
712.199441	-2.994500	3.680900	-11.021000	24.574390	0.001008	20.908823
713.200929	-3.003100	3.681000	-11.053000	24.533900	0.001005	20.887165
714.194834	-3.012500	3.679600	-11.084000	24.519151	0.001006	20.894178
715.195526	-3.010800	3.679700	-11.077000	24.554045	0.001006	20.898367
716.196818	-2.996500	3.680500	-11.028000	24.558002	0.001007	20.879105
717.191091	-2.974400	3.680300	-10.946000	24.537011	0.001007	20.869424
718.197799	-2.999400	3.680300	-11.037000	24.550743	0.001006	20.876564
719.199121	-3.002300	3.678800	-11.044000	24.550317	0.001006	20.879455
720.195151	-3.006100	3.679000	-11.058000	24.550171	0.001005	20.891636
721.198469	-2.988400	3.680100	-10.997000	24.570618	0.001006	20.879910
722.197830	-3.008700	3.678500	-11.066000	24.571687	0.001005	20.889517
723.194349	-3.003200	3.678200	-11.045000	24.561392	0.001005	20.875869
724.198136	-3.026200	3.676000	-11.124000	24.577484	0.001004	20.853610
725.197281	-3.005900	3.676600	-11.050000	24.614294	0.001004	20.878215
726.194254	-2.992300	3.677700	-11.003000	24.615987	0.001005	20.883706
727.199453	-2.991100	3.676300	-10.995000	24.646281	0.001003	20.869061
728.198759	-2.991800	3.676700	-10.999000	24.644095	0.001003	20.861177
729.194201	-3.011000	3.675400	-11.065000	24.639169	0.001004	20.894164
730.201508	-3.004400	3.675100	-11.041000	24.632627	0.001004	20.882860
731.198909	-3.004600	3.675800	-11.044000	24.647652	0.001002	20.877074
732.199214	-2.984600	3.676200	-10.970000	24.657724	0.001003	20.893343
733.199822	-2.989800	3.676200	-10.990000	24.643949	0.001001	20.863876
734.201255	-3.014000	3.674400	-11.073000	24.653150	0.001003	20.856987
735.195552	-3.012400	3.675000	-11.068000	24.654122	0.001004	20.872187
736.196621	-2.996600	3.674700	-11.011000	24.632312	0.001002	20.864052
737.202446	-3.002100	3.672900	-11.024000	24.623061	0.001001	20.862357
738.198960	-2.982700	3.673300	-10.955000	24.618410	0.001003	20.860535
739.201602	-3.009500	3.673500	-11.055000	24.625745	0.001002	20.877377
740.203896	-3.011400	3.672200	-11.057000	24.656287	0.001003	20.873885
741.203220	-3.013200	3.672700	-11.065000	24.669842	0.001002	20.856668
742.202829	-2.992900	3.672800	-10.991000	24.674342	0.001002	20.856442
743.200608	-3.000600	3.670700	-11.012000	24.693891	0.001002	20.862782
744.206785	-3.006400	3.671400	-11.036000	24.722760	0.001001	20.848130
745.203788	-2.983300	3.672200	-10.954000	24.700825	0.001002	20.861205
746.199947	-2.975900	3.671800	-10.925000	24.689561	0.001003	20.855118
747.199565	-2.989700	3.671400	-10.975000	24.687394	0.001000	20.866693
748.203151	-2.983400	3.671200	-10.952000	24.649221	0.001003	20.852571
749.211067	-2.992900	3.671000	-10.986000	24.683487	0.001003	20.855187
750.204806	-2.969100	3.671500	-10.899000	24.676622	0.001003	20.842609
751.203301	-2.974500	3.671300	-10.919000	24.677965	0.001002	20.851543
752.207110	-2.999700	3.670500	-11.010000	24.699547	0.001000	20.843802
753.204880	-2.999300	3.670000	-11.006000	24.706884	0.001001	20.882457
754.202817	-2.998300	3.668800	-10.998000	24.706909	0.001000	20.844552
755.202343	-2.992600	3.669400	-10.980000	24.727922	0.001002	20.848094
756.205303	-2.985600	3.669900	-10.956000	24.744879	0.001000	20.852783
757.204550	-2.972800	3.669800	-10.909000	24.708967	0.000999	20.850884
758.208966	-2.991400	3.667600	-10.971000	24.696805	0.000997	20.868550
759.205942	-2.985300	3.667900	-10.949000	24.700014	0.000998	20.843796
760.204217	-2.994400	3.666500	-10.978000	24.703816	0.001002	20.858042
761.205980	-2.990600	3.667700	-10.968000	24.695706	0.000996	20.869818
762.203999	-2.995300	3.667000	-10.982000	24.689860	0.000997	20.844039
763.206053	-2.998900	3.665700	-10.992000	24.713757	0.000999	20.825820
764.204825	-2.979800	3.667400	-10.926000	24.733154	0.000994	20.861879
765.205997	-2.996300	3.665500	-10.981000	24.729597	0.000994	20.828439
766.214212	-2.999500	3.665000	-10.992000	24.745186	0.000995	20.855936
767.210211	-3.020900	3.665300	-11.071000	24.762495	0.000996	20.851495
768.206930	-2.988700	3.665400	-10.954000	24.784476	0.000994	20.846528
769.203107	-2.998100	3.665300	-10.988000	24.817623	0.000993	20.850869
770.211904	-2.971900	3.666600	-10.896000	24.823787	0.000993	20.830978
771.206469	-2.984700	3.663700	-10.933000	24.851461	0.000993	20.853061
772.206169	-3.001500	3.664900	-10.999000	24.835697	0.000993	20.848146
773.209676	-2.977300	3.664100	-10.907000	24.841067	0.000991	20.845949
774.204759	-3.004300	3.664000	-11.006000	24.797054	0.000993	20.841607
775.204207	-3.008400	3.662900	-11.019000	24.773854	0.000992	20.815006
776.210510	-2.995000	3.662200	-10.968000	24.784072	0.000993	20.839010
777.210396	-2.999500	3.660900	-10.980000	24.776735	0.000991	20.834966
778.206592	-3.018800	3.661900	-11.053000	24.783822	0.000992	20.820742
779.217300	-2.989300	3.662700	-10.948000	24.795761	0.000992	20.827507
780.204976	-2.990200	3.662500	-10.950000	24.791184	0.000991	20.836190
781.210292	-3.002900	3.660500	-10.990000	24.770519	0.000992	20.824935
782.208837	-3.010400	3.661200	-11.020000	24.749260	0.000991	20.851490
783.209749	-3.002100	3.660400	-10.987000	24.767011	0.000991	20.844648
784.214011	-3.001600	3.659300	-10.982000	24.752169	0.000991	20.825486
785.218196	-2.998000	3.661100	-10.976000	24.738264	0.000989	20.826705
786.210792	-2.990100	3.660800	-10.944000	24.768280	0.000989	20.833594
787.208383	-2.999300	3.659500	-10.975000	24.702480	0.000992	20.833944
788.210180	-3.005700	3.658800	-10.995000	24.703376	0.000991	20.842429
789.212303	-3.001600	3.658000	-10.978000	24.713474	0.000990	20.837864
790.213399	-3.005700	3.658600	-10.995000	24.733962	0.000990	20.828552
791.209686	-3.007600	3.657300	-10.998000	24.734085	0.000989	20.816348
792.212098	-2.983400	3.659400	-10.916000	24.760693	0.000990	20.838307
793.210530	-3.018000	3.658100	-11.039000	24.784765	0.000990	20.816946
794.217044	-3.013800	3.658400	-11.024000	24.829920	0.000989	20.829547
795.208776	-3.012900	3.656900	-11.017000	24.824872	0.000989	20.826851
796.212643	-3.011000	3.656200	-11.006000	24.830269	0.000988	20.834164
797.214815	-3.007600	3.656400	-10.996000	24.854312	0.000989	20.824629
798.210391	-3.006800	3.656500	-10.993000	24.876242	0.000987	20.831940
799.211320	-2.995700	3.656800	-10.953000	24.861022	0.000987	20.828044
800.218649	-3.014800	3.655800	-11.021000	24.849381	0.000986	20.828215
801.213369	-2.999000	3.655600	-10.962000	24.895210	0.000985	20.804985
802.211553	-2.992000	3.656200	-10.938000	24.886503	0.000986	20.832281
803.213280	-3.011100	3.654300	-11.003000	24.879194	0.000984	20.826368
804.210672	-2.993100	3.655300	-10.939000	24.886852	0.000983	20.816510
805.213266	-3.004700	3.654500	-10.979000	24.880114	0.000985	20.828714
806.222589	-3.018800	3.654400	-11.031000	24.874072	0.000985	20.814589
807.213540	-3.012400	3.654300	-11.006000	24.840281	0.000981	20.827143
808.213625	-3.003000	3.654400	-10.973000	24.842517	0.000983	20.814214
809.214242	-2.984400	3.654700	-10.906000	24.865494	0.000984	20.813092
810.215989	-3.007200	3.652000	-10.981000	24.854630	0.000983	20.807879
811.216953	-2.992400	3.653000	-10.928000	24.859975	0.000982	20.814666
812.216446	-3.014300	3.653300	-11.010000	24.881482	0.000981	20.825346
813.212582	-2.997000	3.652600	-10.946000	24.887871	0.000982	20.823697
814.214596	-2.993300	3.653600	-10.935000	24.884168	0.000981	20.814291
815.215738	-2.991300	3.652700	-10.925000	24.905156	0.000983	20.817338
816.215227	-3.002800	3.651700	-10.965000	24.897449	0.000981	20.823827
817.215859	-2.981900	3.653100	-10.892000	24.900036	0.000981	20.813147
818.220146	-3.014600	3.651700	-11.007000	24.926318	0.000980	20.794482
819.223191	-3.005400	3.651000	-10.971000	24.929872	0.000981	20.816541
820.217116	-2.988400	3.651600	-10.912000	24.954042	0.000980	20.806187
821.226708	-3.012600	3.649500	-10.993000	24.968387	0.000979	20.810154
822.220036	-2.982400	3.649800	-10.884000	24.969158	0.000978	20.817092
823.220310	-2.972400	3.650600	-10.848000	24.967000	0.000980	20.813977
824.220253	-2.998700	3.649200	-10.941000	24.954248	0.000979	20.811609
825.221531	-3.014900	3.648700	-10.999000	24.930424	0.000979	20.777266
826.227257	-3.009800	3.647800	-10.978000	24.904170	0.000977	20.805917
827.226245	-2.997800	3.648500	-10.936000	24.889975	0.000981	20.792619
828.220776	-2.991700	3.649200	-10.915000	24.905019	0.000978	20.810562
829.218817	-2.997900	3.649100	-10.939000	24.916057	0.000979	20.798408
830.223487	-3.003200	3.646400	-10.950000	24.900943	0.000978	20.812635
831.219511	-2.994200	3.646200	-10.915000	24.932644	0.000978	20.774752
832.222031	-3.003200	3.646700	-10.951000	24.955465	0.000978	20.777269
833.223764	-2.988400	3.646700	-10.895000	24.964740	0.000978	20.790846
834.222992	-3.001300	3.646700	-10.943000	24.904917	0.000977	20.782011
835.221152	-2.977800	3.648600	-10.864000	24.868243	0.000978	20.799257
836.227003	-2.996200	3.646100	-10.924000	24.879903	0.000976	20.793889
837.226467	-2.980300	3.646900	-10.868000	24.864365	0.000977	20.791097
838.221809	-2.995700	3.646500	-10.922000	24.900369	0.000978	20.800679
839.228375	-3.008100	3.644900	-10.963000	24.909938	0.000976	20.802697
840.221839	-2.985600	3.645100	-10.882000	24.923863	0.000976	20.816673
841.223798	-3.002200	3.644300	-10.940000	24.940419	0.000975	20.816221
842.229475	-3.003200	3.644200	-10.942000	24.926200	0.000975	20.778716
843.230858	-2.992700	3.644800	-10.907000	24.957648	0.000976	20.794634
844.224935	-2.998500	3.643200	-10.923000	24.954141	0.000976	20.784949
845.232584	-2.993500	3.642400	-10.902000	24.952402	0.000976	20.798377
846.229073	-3.015300	3.641300	-10.978000	24.975003	0.000975	20.793087
847.231933	-2.999300	3.641700	-10.922000	24.965973	0.000975	20.800144
848.233330	-2.998000	3.641600	-10.916000	24.983973	0.000974	20.770796
849.231289	-3.010200	3.641600	-10.959000	24.989666	0.000974	20.787891
850.232740	-3.016300	3.640900	-10.981000	25.023078	0.000974	20.804359
851.241325	-3.010600	3.641200	-10.961000	25.009750	0.000975	20.789084
852.230485	-3.017300	3.641500	-10.987000	24.989809	0.000973	20.776654
853.226161	-3.005700	3.641600	-10.944000	25.024913	0.000973	20.796717
854.237735	-3.037600	3.640000	-11.055000	25.025336	0.000972	20.788133
855.232705	-3.010600	3.641500	-10.962000	25.027942	0.000972	20.793120
856.231490	-3.041900	3.639900	-11.071000	25.007355	0.000972	20.802801
857.238243	-2.991900	3.640100	-10.888000	25.038109	0.000970	20.785307
858.232897	-3.012200	3.639500	-10.961000	24.979482	0.000970	20.780988
859.229515	-3.027900	3.639100	-11.017000	24.973814	0.000971	20.770556
860.235229	-2.992800	3.640800	-10.895000	24.969411	0.000971	20.786526
861.234201	-3.000800	3.639500	-10.921000	24.967620	0.000970	20.788048
862.229452	-2.990200	3.638800	-10.878000	24.983876	0.000969	20.776863
863.237203	-2.981000	3.640600	-10.851000	24.963338	0.000967	20.790862
864.233855	-3.032400	3.637600	-11.029000	24.962916	0.000969	20.799921
865.232421	-2.986800	3.639200	-10.868000	24.948021	0.000967	20.793980
866.237895	-2.993400	3.638100	-10.889000	24.952322	0.000966	20.790236
867.234431	-2.998600	3.637600	-10.907000	24.959331	0.000966	20.772615
868.232188	-3.029100	3.636400	-11.014000	24.951152	0.000965	20.785743
869.235474	-3.028700	3.636100	-11.012000	24.966664	0.000968	20.792778
870.236008	-3.004600	3.636400	-10.925000	24.956173	0.000965	20.789834
871.232796	-3.010800	3.635800	-10.946000	24.959653	0.000964	20.759661
872.236285	-3.000300	3.635800	-10.907000	24.907737	0.000964	20.772513
873.234547	-3.017400	3.634200	-10.965000	24.903757	0.000963	20.759035
874.235001	-2.998800	3.635100	-10.899000	24.892697	0.000962	20.795350
875.239577	-3.001200	3.634700	-10.907000	24.905298	0.000963	20.771488
876.234306	-3.009300	3.634400	-10.936000	24.908806	0.000961	20.771689
877.235011	-2.995900	3.634700	-10.888000	24.896869	0.000962	20.781520
878.237081	-3.003700	3.634200	-10.915000	24.905620	0.000960	20.775129
879.235338	-3.007700	3.633900	-10.929000	24.914178	0.000959	20.771391
880.234874	-3.028900	3.632100	-11.000000	24.954206	0.000960	20.785963
881.235307	-3.004100	3.633900	-10.915000	24.968378	0.000960	20.773635
882.236451	-2.996300	3.633800	-10.887000	25.000921	0.000958	20.777850
883.235279	-2.992700	3.632700	-10.870000	25.018404	0.000959	20.761260
884.236816	-3.013100	3.633100	-10.946000	25.010895	0.000958	20.776009
885.232859	-2.991700	3.632600	-10.866000	25.022430	0.000960	20.774785
886.235311	-2.995400	3.632300	-10.879000	25.037175	0.000959	20.771568
887.237955	-2.993400	3.631700	-10.869000	25.029595	0.000958	20.785770
888.238949	-2.992300	3.631000	-10.864000	25.035511	0.000958	20.793131
889.231329	-2.979600	3.631100	-10.818000	25.032677	0.000957	20.777010
890.243114	-2.991200	3.632200	-10.864000	25.027953	0.000956	20.756146
891.239698	-3.001100	3.630600	-10.896000	25.026066	0.000959	20.782228
892.230786	-3.009400	3.630800	-10.924000	24.995834	0.000957	20.773219
893.238218	-3.006800	3.629000	-10.911000	24.993994	0.000958	20.779433
894.233394	-2.990600	3.629400	-10.852000	25.006180	0.000957	20.772698
895.238281	-3.000000	3.628100	-10.882000	25.019154	0.000957	20.772444
896.239364	-2.994100	3.629500	-10.866000	25.057640	0.000953	20.754178
897.239542	-3.012700	3.628300	-10.930000	25.062314	0.000957	20.757447
898.237652	-2.993800	3.628700	-10.862000	25.095752	0.000957	20.762090
899.237757	-3.013900	3.627000	-10.930000	25.074543	0.000955	20.749334
900.238158	-3.004500	3.627200	-10.897000	25.048443	0.000957	20.753006
901.240015	-3.005000	3.628400	-10.903000	25.018061	0.000955	20.735310
902.244161	-3.008500	3.626700	-10.910000	24.999015	0.000955	20.761712
903.243149	-3.006400	3.627000	-10.904000	24.970174	0.000954	20.746040
904.237607	-3.013200	3.625100	-10.922000	24.967612	0.000957	20.757693
905.240069	-3.010000	3.625800	-10.913000	25.014702	0.000954	20.767027
906.244503	-2.998700	3.626900	-10.875000	25.017706	0.000954	20.743490
907.241760	-2.993500	3.626000	-10.853000	25.006471	0.000954	20.743592
908.242834	-2.986300	3.626800	-10.830000	25.021436	0.000955	20.756243
909.241081	-2.993900	3.625300	-10.853000	25.023622	0.000952	20.746109
910.239954	-3.028700	3.624700	-10.976000	25.070685	0.000951	20.758738
911.243784	-3.033700	3.623900	-10.992000	25.097232	0.000953	20.755041
912.242337	-3.006400	3.625800	-10.899000	25.127785	0.000952	20.769591
913.243578	-2.961600	3.625500	-10.736000	25.112319	0.000952	20.750272
914.248641	-3.006100	3.623800	-10.892000	25.111649	0.000951	20.762401
915.251378	-3.009600	3.624300	-10.906000	25.109559	0.000951	20.748923
916.242960	-2.989100	3.625400	-10.835000	25.095738	0.000950	20.753541
917.241132	-3.003000	3.622900	-10.879000	25.088675	0.000946	20.761624
918.242239	-2.973900	3.623000	-10.773000	25.078583	0.000948	20.766666
919.244689	-2.982900	3.621900	-10.802000	25.086239	0.000946	20.747799
920.242641	-2.987800	3.622900	-10.823000	25.080670	0.000948	20.755010
921.244927	-2.993000	3.621000	-10.837000	25.098369	0.000948	20.750018
922.244584	-3.023600	3.620800	-10.947000	25.114005	0.000948	20.772828
923.251006	-3.018200	3.621900	-10.930000	25.152587	0.000944	20.733323
924.244995	-3.002000	3.620800	-10.869000	25.161314	0.000948	20.770060
925.243364	-2.989100	3.621900	-10.825000	25.166806	0.000944	20.764193
926.245570	-3.014100	3.620300	-10.912000	25.185426	0.000945	20.768188
927.244066	-3.027800	3.619200	-10.955000	25.183636	0.000944	20.767813
928.239867	-2.992800	3.619400	-10.830000	25.168797	0.000944	20.771882
929.243284	-2.988500	3.620500	-10.819000	25.156739	0.000944	20.757880
930.247834	-3.018100	3.617500	-10.917000	25.135636	0.000941	20.753290
931.245506	-3.007900	3.617200	-10.878000	25.142644	0.000940	20.775025
932.251960	-3.011900	3.617900	-10.895000	25.129867	0.000944	20.758878
933.241317	-2.999700	3.618300	-10.852000	25.131904	0.000942	20.766614
934.245018	-2.987500	3.617900	-10.807000	25.131734	0.000942	20.754589
935.241745	-3.008100	3.616700	-10.878000	25.146925	0.000941	20.763675
936.245179	-3.010300	3.618300	-10.891000	25.158631	0.000940	20.754090
937.247117	-3.028500	3.616500	-10.951000	25.167034	0.000939	20.756361
938.241704	-3.007200	3.616900	-10.875000	25.189630	0.000939	20.751545
939.244433	-3.008700	3.616000	-10.878000	25.197486	0.000939	20.769864
940.242630	-3.022800	3.615400	-10.927000	25.185605	0.000938	20.778325
941.244800	-3.003400	3.615800	-10.857000	25.193436	0.000938	20.752995
942.249181	-3.025400	3.615200	-10.936000	25.185926	0.000939	20.743084
943.242051	-2.990600	3.615000	-10.808000	25.191673	0.000936	20.764502
944.242877	-3.020800	3.614300	-10.917000	25.216057	0.000936	20.764800
945.243402	-3.010200	3.614800	-10.880000	25.221378	0.000935	20.768246
946.244394	-2.997600	3.613500	-10.832000	25.232191	0.000935	20.738798
947.245797	-3.006400	3.614500	-10.865000	25.207981	0.000936	20.739148
948.243052	-2.989300	3.613300	-10.800000	25.222449	0.000935	20.754148
949.244883	-2.980200	3.613800	-10.768000	25.194235	0.000935	20.759962
950.246189	-2.972000	3.615500	-10.743000	25.181609	0.000934	20.754873
951.249651	-2.991200	3.614000	-10.808000	25.148625	0.000933	20.753053
952.246222	-2.991400	3.613100	-10.807000	25.123246	0.000934	20.756973
953.247939	-3.031100	3.612400	-10.948000	25.119665	0.000933	20.773293
954.247186	-3.002000	3.612800	-10.844000	25.112182	0.000934	20.764833
955.245466	-2.988300	3.612600	-10.795000	25.087052	0.000932	20.761417
956.244346	-3.027100	3.610400	-10.927000	25.101420	0.000932	20.756874
957.248927	-3.006900	3.610700	-10.856000	25.099382	0.000933	20.766683
958.245242	-3.007100	3.611500	-10.858000	25.108458	0.000931	20.742602
959.248358	-2.999300	3.610900	-10.829000	25.123276	0.000931	20.754633
960.243762	-3.018700	3.610500	-10.897000	25.149874	0.000930	20.753833
961.244758	-2.990600	3.610000	-10.796000	25.170560	0.000930	20.773178
962.248356	-3.013900	3.609400	-10.878000	25.144237	0.000930	20.747225
963.251220	-2.994300	3.609000	-10.806000	25.126214	0.000931	20.745728
964.254063	-3.001800	3.608900	-10.832000	25.128030	0.000929	20.766043
965.247122	-3.003900	3.607900	-10.834000	25.163033	0.000932	20.762776
966.253884	-2.992600	3.608900	-10.799000	25.150108	0.000930	20.755964
967.253591	-3.000800	3.608200	-10.826000	25.168031	0.000930	20.764949
968.254420	-2.988100	3.608100	-10.780000	25.171068	0.000930	20.783645
969.255209	-2.998000	3.605900	-10.809000	25.195205	0.000929	20.763306
970.256065	-3.018900	3.606300	-10.886000	25.196720	0.000927	20.755818
971.251421	-2.980300	3.607600	-10.750000	25.199955	0.000928	20.771394
972.256785	-2.994600	3.607300	-10.801000	25.185413	0.000929	20.772442
973.257017	-2.980400	3.605800	-10.746000	25.223396	0.000928	20.775488
974.254480	-3.042000	3.604600	-10.964000	25.241568	0.000927	20.775240
975.253012	-3.007800	3.605900	-10.845000	25.269333	0.000926	20.771822
976.256382	-2.985300	3.606300	-10.765000	25.252529	0.000928	20.763485
977.254132	-2.998500	3.604100	-10.806000	25.227847	0.000924	20.747713
978.255792	-2.965400	3.605900	-10.691000	25.206693	0.000926	20.766779
979.257182	-2.978800	3.606100	-10.742000	25.232024	0.000925	20.739104
980.254882	-3.013900	3.604200	-10.860000	25.251090	0.000925	20.761566
981.255348	-2.970300	3.605500	-10.709000	25.244377	0.000922	20.768103
982.258275	-2.989100	3.603900	-10.771000	25.205351	0.000925	20.757370
983.254574	-3.010100	3.602200	-10.840000	25.166175	0.000924	20.763559
984.255760	-2.983900	3.603700	-10.752000	25.135329	0.000923	20.733540
985.257710	-2.987100	3.602800	-10.760000	25.150215	0.000923	20.772194
986.255216	-2.987500	3.602200	-10.760000	25.141985	0.000923	20.764406
987.258822	-2.996400	3.604300	-10.799000	25.168110	0.000922	20.739898
988.261669	-3.004100	3.601800	-10.819000	25.193368	0.000923	20.766677
989.255126	-2.992900	3.603100	-10.782000	25.219492	0.000921	20.754024
990.257552	-3.013400	3.601600	-10.852000	25.219316	0.000921	20.750054
991.261594	-3.011300	3.600400	-10.841000	25.235621	0.000920	20.762630
992.263495	-2.992500	3.600700	-10.774000	25.266269	0.000921	20.765426
993.261105	-3.002200	3.600900	-10.810000	25.252990	0.000920	20.759206
994.259568	-3.014500	3.599600	-10.850000	25.283465	0.000919	20.777001
995.263444	-2.990900	3.599800	-10.766000	25.294747	0.000920	20.794967
996.267410	-3.010100	3.598700	-10.831000	25.297481	0.000917	20.791549
997.262600	-2.996900	3.599700	-10.786000	25.303692	0.000918	20.791146
998.265762	-2.987400	3.599300	-10.751000	25.331900	0.000919	20.780114
999.266101	-2.986800	3.599000	-10.748000	25.337144	0.000918	20.766887
1000.263172	-2.986300	3.597700	-10.743000	25.372311	0.000915	20.759997
1001.262855	-3.010600	3.596900	-10.827000	25.367138	0.000914	20.769977
1002.263751	-3.013100	3.596900	-10.837000	25.362768	0.000912	20.779813
1003.260554	-2.989800	3.597600	-10.755000	25.354114	0.000912	20.781081
1004.265954	-2.964800	3.597400	-10.665000	25.297544	0.000912	20.772646
1005.277580	-3.001600	3.596200	-10.793000	25.289763	0.000913	20.783799
1006.264871	-3.009600	3.596000	-10.821000	25.265431	0.000912	20.793034
1007.265419	-2.993400	3.596000	-10.763000	25.209700	0.000910	20.757469
1008.265687	-3.000100	3.596500	-10.788000	25.220164	0.000910	20.783149
1009.265151	-2.984000	3.595900	-10.729000	25.260159	0.000912	20.799595
1010.261521	-3.010900	3.595700	-10.826000	25.277630	0.000910	20.782997
1011.266449	-3.003300	3.596100	-10.800000	25.268534	0.000909	20.780028
1012.262162	-2.999700	3.593500	-10.778000	25.278599	0.000910	20.787289
1013.272449	-3.020000	3.592700	-10.849000	25.269355	0.000910	20.789861
1014.266828	-2.972800	3.595000	-10.686000	25.268185	0.000910	20.773988
1015.264436	-3.025300	3.592500	-10.868000	25.245464	0.000909	20.788161
1016.267018	-2.987400	3.592100	-10.730000	25.264305	0.000909	20.787637
1017.268425	-3.006600	3.591800	-10.798000	25.252798	0.000909	20.790782
1018.269033	-2.967600	3.593300	-10.662000	25.211757	0.000908	20.777553
1019.263688	-2.978100	3.592700	-10.699000	25.210760	0.000907	20.780819
1020.266971	-2.997200	3.592800	-10.767000	25.207701	0.000907	20.778697
1021.262313	-2.997400	3.591700	-10.765000	25.264374	0.000908	20.787706
1022.265938	-3.011300	3.590800	-10.812000	25.303025	0.000905	20.790002
1023.267599	-3.030700	3.592100	-10.885000	25.287240	0.000906	20.784585
1024.270947	-3.007900	3.590200	-10.798000	25.321662	0.000907	20.784533
1025.266983	-2.996600	3.591500	-10.761000	25.320418	0.000905	20.790870
1026.266834	-3.007800	3.589500	-10.795000	25.325835	0.000905	20.782559
1027.267574	-2.967900	3.590700	-10.656000	25.319224	0.000906	20.793939
1028.269215	-3.024400	3.588800	-10.853000	25.378101	0.000902	20.802796
1029.271516	-3.015200	3.588500	-10.819000	25.389783	0.000903	20.789396
1030.267232	-3.012700	3.588000	-10.808000	25.404391	0.000905	20.780831
1031.268437	-3.014200	3.587900	-10.814000	25.405135	0.000904	20.802440
1032.271213	-3.023400	3.586400	-10.842000	25.440399	0.000904	20.791383
1033.272027	-3.017800	3.586900	-10.824000	25.435430	0.000899	20.793506
1034.269238	-3.001600	3.587100	-10.766000	25.427125	0.000905	20.791331
1035.271294	-2.997300	3.586500	-10.749000	25.405627	0.000900	20.803408
1036.268773	-3.019600	3.586000	-10.828000	25.396679	0.000901	20.809597
1037.273343	-3.015600	3.585700	-10.811000	25.350946	0.000901	20.785961
1038.271008	-2.989400	3.585100	-10.717000	25.379724	0.000900	20.810115
1039.272277	-2.981700	3.586200	-10.690000	25.374801	0.000900	20.792845
1040.273829	-2.996200	3.585300	-10.741000	25.406912	0.000900	20.817026
1041.271973	-3.004600	3.584800	-10.770000	25.425097	0.000899	20.799726
1042.269825	-2.990600	3.585700	-10.722000	25.438494	0.000899	20.793264
1043.273159	-2.996200	3.584500	-10.738000	25.436553	0.000900	20.800324
1044.274028	-3.025200	3.584100	-10.842000	25.439930	0.000897	20.824103
1045.271321	-3.010300	3.582400	-10.783000	25.436652	0.000897	20.819389
1046.276149	-3.028100	3.583500	-10.850000	25.449074	0.000897	20.792035
1047.277289	-3.002900	3.583100	-10.758000	25.468854	0.000895	20.810474
1048.279226	-3.007900	3.583300	-10.777000	25.431700	0.000896	20.809675
1049.273052	-3.001400	3.582300	-10.751000	25.411318	0.000896	20.825719
1050.271511	-3.005200	3.581900	-10.763000	25.400628	0.000893	20.832053
1051.276433	-2.975800	3.583100	-10.662000	25.329845	0.000892	20.813137
1052.276862	-3.013300	3.581900	-10.792000	25.342817	0.000894	20.813835
1053.278308	-3.016200	3.581800	-10.801000	25.344034	0.000891	20.810789
1054.278454	-2.985100	3.582300	-10.692000	25.344630	0.000890	20.817551
1055.282058	-2.999200	3.579600	-10.734000	25.350167	0.000889	20.827379
1056.277763	-2.970400	3.582600	-10.640000	25.362396	0.000891	20.824484
1057.275026	-2.996400	3.579900	-10.726000	25.399028	0.000890	20.821438
1058.280998	-3.001400	3.581400	-10.748000	25.406531	0.000890	20.812377
1059.277669	-3.018900	3.580000	-10.806000	25.377702	0.000889	20.825154
1060.278623	-3.004000	3.580700	-10.755000	25.355975	0.000887	20.819933
1061.279978	-3.017600	3.579600	-10.800000	25.361490	0.000888	20.837799
1062.280822	-3.010500	3.579600	-10.776000	25.358679	0.000887	20.820752
1063.281971	-3.033200	3.577500	-10.849000	25.357712	0.000887	20.829265
1064.279403	-3.000300	3.578600	-10.736000	25.382438	0.000885	20.817582
1065.283729	-3.006900	3.577800	-10.757000	25.383479	0.000885	20.811989
1066.280726	-3.015200	3.576200	-10.781000	25.434803	0.000886	20.835076
1067.281344	-2.997300	3.578300	-10.725000	25.469739	0.000885	20.835070
1068.279684	-2.991000	3.577100	-10.699000	25.471551	0.000885	20.812709
1069.282417	-3.001900	3.577000	-10.736000	25.480473	0.000885	20.832573
1070.282819	-2.985900	3.575900	-10.675000	25.522742	0.000883	20.830925
1071.280370	-3.013300	3.574700	-10.770000	25.525897	0.000883	20.816549
1072.288291	-2.984600	3.575000	-10.668000	25.520231	0.000882	20.845471
1073.284851	-3.012300	3.572900	-10.762000	25.537549	0.000882	20.842475
1074.286152	-3.010900	3.574900	-10.763000	25.505243	0.000881	20.843696
1075.289550	-3.027000	3.573500	-10.816000	25.530415	0.000879	20.847164
1076.287392	-3.005100	3.573700	-10.738000	25.543583	0.000880	20.840000
1077.283823	-3.009600	3.575100	-10.758000	25.501984	0.000879	20.832364
1078.288313	-3.030000	3.572300	-10.823000	25.523454	0.000879	20.824527
1079.286951	-2.964100	3.574300	-10.593000	25.495893	0.000878	20.815816
1080.284826	-2.972500	3.574100	-10.623000	25.485533	0.000880	20.855197
1081.288600	-2.987600	3.573000	-10.674000	25.448775	0.000879	20.848157
1082.286993	-2.978200	3.572500	-10.638000	25.442985	0.000877	20.846136
1083.290773	-3.017100	3.571500	-10.774000	25.483963	0.000878	20.838448
1084.289640	-3.015200	3.571400	-10.767000	25.459511	0.000878	20.834283
1085.286566	-2.993500	3.571800	-10.691000	25.454144	0.000875	20.844540
1086.286815	-3.022800	3.572000	-10.796000	25.448429	0.000876	20.845439
1087.296775	-2.991100	3.571400	-10.681000	25.464110	0.000874	20.846961
1088.289506	-2.976600	3.570900	-10.627000	25.499248	0.000873	20.855693
1089.290952	-2.996400	3.570300	-10.698000	25.509808	0.000874	20.868195
1090.302462	-3.030800	3.568200	-10.814000	25.519625	0.000873	20.849130
1091.288050	-2.983300	3.569200	-10.647000	25.487619	0.000872	20.834060
1092.290361	-2.986900	3.569700	-10.661000	25.450117	0.000874	20.827221
1093.293294	-3.008300	3.568600	-10.734000	25.414132	0.000872	20.854147
1094.292449	-2.987400	3.570200	-10.664000	25.393130	0.000871	20.868145
1095.291216	-3.031400	3.567000	-10.810000	25.376108	0.000871	20.866226
1096.303977	-3.009900	3.566900	-10.735000	25.377871	0.000870	20.851401
1097.287305	-3.011900	3.568000	-10.746000	25.399617	0.000870	20.851900
1098.291437	-2.990900	3.567300	-10.668000	25.457845	0.000869	20.850627
1099.293277	-3.003900	3.565900	-10.710000	25.483768	0.000869	20.859588
1100.294110	-2.999100	3.565600	-10.693000	25.540674	0.000868	20.842768
1101.291801	-2.997200	3.566300	-10.689000	25.541143	0.000869	20.863627
1102.291805	-2.985300	3.566500	-10.646000	25.556603	0.000868	20.852601
1103.291530	-3.007100	3.565800	-10.721000	25.566194	0.000866	20.859387
1104.289708	-3.002200	3.564300	-10.699000	25.600211	0.000867	20.859412
1105.294059	-3.007100	3.563500	-10.714000	25.579361	0.000868	20.857913
1106.291252	-3.032900	3.562600	-10.804000	25.563630	0.000869	20.841641
1107.292397	-3.029400	3.563600	-10.794000	25.543454	0.000865	20.863577
1108.294906	-3.018400	3.562700	-10.753000	25.531475	0.000866	20.846806
1109.295406	-2.976300	3.564200	-10.607000	25.523622	0.000866	20.883014
1110.293919	-3.013600	3.563800	-10.738000	25.541961	0.000866	20.870612
1111.294972	-2.971700	3.564200	-10.591000	25.543998	0.000865	20.860804
1112.297388	-3.036300	3.561200	-10.811000	25.554580	0.000863	20.868112
1113.292776	-3.012600	3.562100	-10.731000	25.552590	0.000862	20.876071
1114.299916	-3.011600	3.561000	-10.724000	25.553686	0.000863	20.856783
1115.293849	-3.021000	3.560600	-10.755000	25.576148	0.000863	20.881236
1116.302967	-2.973200	3.562500	-10.591000	25.563326	0.000862	20.863619
1117.301674	-2.988600	3.560400	-10.639000	25.539546	0.000862	20.856334
1118.296413	-2.977400	3.561200	-10.602000	25.526595	0.000863	20.871302
1119.298436	-3.013400	3.559500	-10.725000	25.538028	0.000860	20.871404
1120.303354	-3.008600	3.561500	-10.715000	25.492578	0.000859	20.877443
1121.300246	-2.992400	3.559600	-10.651000	25.448616	0.000858	20.855584
1122.295593	-3.004000	3.559300	-10.691000	25.437902	0.000858	20.854308
1123.305518	-2.978800	3.560200	-10.604000	25.468072	0.000857	20.862318
1124.298246	-2.998400	3.557900	-10.666000	25.508579	0.000857	20.874072
1125.300478	-2.994100	3.558700	-10.652000	25.544512	0.000856	20.865114
1126.305070	-2.978400	3.559800	-10.601000	25.559274	0.000854	20.866188
1127.303909	-2.991600	3.557100	-10.640000	25.586257	0.000854	20.874320
1128.304658	-3.010400	3.557000	-10.708000	25.590531	0.000855	20.893784
1129.306630	-3.020000	3.556900	-10.741000	25.590531	0.000853	20.876716
1130.305880	-2.991600	3.558000	-10.644000	25.586057	0.000853	20.885024
1131.306142	-2.996300	3.557400	-10.657000	25.593984	0.000851	20.875442
1132.307437	-3.016000	3.555800	-10.723000	25.578728	0.000854	20.891414
1133.299925	-3.002200	3.556300	-10.676000	25.579401	0.000851	20.893037
1134.302155	-3.005500	3.556100	-10.687000	25.574729	0.000851	20.873648
1135.307035	-2.996900	3.555900	-10.655000	25.563197	0.000850	20.899049
1136.302766	-2.987300	3.555000	-10.620000	25.601439	0.000848	20.873447
1137.300415	-2.985000	3.556100	-10.614000	25.592669	0.000848	20.885501
1138.301223	-2.996700	3.553900	-10.649000	25.602038	0.000848	20.877840
1139.304049	-3.020300	3.553300	-10.730000	25.603303	0.000849	20.886697
1140.308431	-3.002500	3.553100	-10.667000	25.601961	0.000846	20.891987
1141.308504	-3.005100	3.552800	-10.675000	25.584122	0.000847	20.873598
1142.305655	-3.005500	3.552600	-10.676000	25.581338	0.000846	20.902095
1143.305801	-3.005000	3.552100	-10.672000	25.529925	0.000844	20.886025
1144.307007	-2.987100	3.553100	-10.612000	25.525181	0.000844	20.871305
1145.306280	-2.977400	3.552500	-10.576000	25.525977	0.000845	20.891069
1146.305614	-2.978300	3.552400	-10.579000	25.503638	0.000844	20.896609
1147.306283	-2.996600	3.550500	-10.638000	25.545709	0.000843	20.881487
1148.304679	-2.996000	3.551600	-10.640000	25.548915	0.000842	20.893715
1149.304998	-2.993100	3.550700	-10.626000	25.565739	0.000843	20.905394
1150.313963	-3.004500	3.551300	-10.667000	25.582068	0.000844	20.888604
1151.309997	-3.003600	3.550300	-10.662000	25.578214	0.000841	20.904647
1152.312379	-3.018100	3.550200	-10.714000	25.602619	0.000844	20.892173
1153.312414	-3.008300	3.548400	-10.673000	25.611987	0.000841	20.896366
1154.312261	-2.980800	3.550000	-10.580000	25.604982	0.000841	20.904029
1155.312736	-2.989700	3.549400	-10.611000	25.635817	0.000841	20.907497
1156.312659	-2.989300	3.547000	-10.602000	25.634129	0.000839	20.894423
1157.309845	-2.999800	3.547400	-10.641000	25.655176	0.000840	20.891853
1158.313021	-2.989400	3.547600	-10.604000	25.695876	0.000839	20.908549
1159.317972	-2.993000	3.548500	-10.619000	25.678484	0.000840	20.905779
1160.314096	-2.993600	3.549100	-10.624000	25.700076	0.000837	20.909448
1161.313907	-2.964600	3.547600	-10.516000	25.728202	0.000838	20.919680
1162.322634	-2.983300	3.546300	-10.579000	25.757966	0.000836	20.897421
1163.311935	-3.006600	3.545200	-10.658000	25.739707	0.000838	20.893780
1164.314895	-2.994400	3.546700	-10.619000	25.754464	0.000837	20.896749
1165.316623	-2.975300	3.547400	-10.554000	25.749546	0.000837	20.931160
1166.315293	-2.994400	3.545300	-10.615000	25.737643	0.000835	20.907827
1167.315382	-2.989300	3.545600	-10.597000	25.707607	0.000835	20.893306
1168.320230	-2.994900	3.546000	-10.619000	25.680525	0.000834	20.906881
1169.316955	-3.003300	3.544900	-10.645000	25.663426	0.000836	20.925741
1170.314063	-3.013400	3.542800	-10.675000	25.692920	0.000834	20.908425
1171.322533	-3.009900	3.543100	-10.662000	25.709940	0.000834	20.910820
1172.312697	-3.003500	3.544100	-10.644000	25.715679	0.000834	20.894301
1173.317407	-2.981900	3.544400	-10.568000	25.741916	0.000834	20.907378
1174.321594	-3.000300	3.542900	-10.628000	25.744400	0.000832	20.907028
1175.316177	-3.006500	3.543800	-10.653000	25.729640	0.000831	20.927287
1176.318036	-3.024600	3.541700	-10.710000	25.769737	0.000833	20.926312
1177.318952	-3.020600	3.541700	-10.697000	25.731130	0.000830	20.924043
1178.319266	-3.010200	3.540900	-10.658000	25.718058	0.000829	20.920397
1179.317550	-3.008800	3.540300	-10.650000	25.688966	0.000830	20.912039
1180.317932	-2.992600	3.541400	-10.597000	25.670428	0.000830	20.919498
1181.320874	-2.999300	3.539900	-10.616000	25.628958	0.000829	20.918150
1182.316342	-3.005300	3.539500	-10.637000	25.610244	0.000828	20.908365
1183.321913	-2.979700	3.539600	-10.546000	25.590786	0.000828	20.910160
1184.320872	-3.010400	3.539900	-10.656000	25.594514	0.000829	20.918644
1185.319457	-3.019300	3.537200	-10.678000	25.545832	0.000827	20.932341
1186.324502	-2.974000	3.537700	-10.519000	25.542028	0.000826	20.918090
1187.317752	-3.008000	3.537600	-10.639000	25.542275	0.000826	20.921183
1188.316531	-3.000500	3.537000	-10.611000	25.556810	0.000825	20.926296
1189.321654	-2.982900	3.538900	-10.555000	25.577084	0.000826	20.917735
1190.318007	-3.012100	3.537200	-10.653000	25.607201	0.000825	20.919532
1191.322054	-3.000300	3.537200	-10.610000	25.616015	0.000826	20.909894
1192.323500	-3.017200	3.535800	-10.667000	25.633832	0.000824	20.930630
1193.319374	-2.996400	3.536700	-10.596000	25.651050	0.000823	20.905726
1194.320887	-3.007200	3.535200	-10.629000	25.695747	0.000823	20.904152
1195.329790	-2.994600	3.536400	-10.588000	25.682702	0.000822	20.925661
1196.323342	-2.995200	3.534800	-10.585000	25.705384	0.000821	20.923787
1197.317366	-3.013100	3.534700	-10.649000	25.722675	0.000821	20.911758
1198.323485	-2.999800	3.536000	-10.606000	25.732808	0.000820	20.911979
1199.319263	-2.974500	3.536200	-10.517000	25.721130	0.000821	20.900250
1200.323151	-3.002300	3.534200	-10.609000	25.747812	0.000820	20.906188
1201.323532	-2.992800	3.534400	-10.577000	25.746193	0.000820	20.904088
1202.317908	-2.985300	3.534400	-10.550000	25.760303	0.000819	20.911621
1203.322510	-3.001400	3.532400	-10.601000	25.790934	0.000822	20.896397
1204.323779	-3.001900	3.533200	-10.605000	25.807529	0.000817	20.906428
1205.323055	-2.994100	3.533000	-10.577000	25.803028	0.000816	20.904279
1206.319288	-3.001500	3.531700	-10.600000	25.815672	0.000818	20.909866
1207.328481	-3.013700	3.531400	-10.640000	25.808539	0.000816	20.904125
1208.322701	-3.019600	3.531200	-10.662000	25.852981	0.000815	20.899456
1209.324013	-3.011200	3.529800	-10.627000	25.793257	0.000815	20.884033
1210.328489	-2.997100	3.529800	-10.576000	25.816707	0.000815	20.894312
1211.321528	-3.015400	3.530800	-10.645000	25.832032	0.000815	20.891689
1212.321950	-2.995200	3.529800	-10.571000	25.816428	0.000815	20.918686
1213.324101	-3.001300	3.530000	-10.593000	25.786638	0.000811	20.907255
1214.324068	-2.991600	3.529900	-10.558000	25.779854	0.000812	20.908501
1215.321765	-2.991100	3.529100	-10.555000	25.752674	0.000812	20.922923
1216.338137	-2.987000	3.528700	-10.539000	25.786609	0.000810	20.912915
1217.323455	-3.012800	3.528200	-10.629000	25.798454	0.000812	20.909166
1218.324803	-2.999200	3.528700	-10.582000	25.816740	0.000809	20.900982
1219.325298	-3.007700	3.527600	-10.608000	25.838277	0.000808	20.906496
1220.331011	-2.995800	3.527700	-10.567000	25.857849	0.000808	20.912880
1221.335161	-3.012300	3.527000	-10.622000	25.850744	0.000809	20.911907
1222.325767	-3.003700	3.527000	-10.593000	25.842592	0.000806	20.911778
1223.329473	-3.000100	3.527000	-10.581000	25.839908	0.000806	20.887747
1224.325481	-3.008000	3.526500	-10.607000	25.814592	0.000806	20.908308
1225.326922	-3.001200	3.525300	-10.579000	25.750245	0.000806	20.898674
1226.330064	-2.982500	3.525900	-10.515000	25.751685	0.000805	20.906285
1227.323538	-3.013500	3.524100	-10.618000	25.740702	0.000804	20.897150
1228.327102	-3.019200	3.522800	-10.634000	25.745149	0.000802	20.912520
1229.330590	-3.016600	3.523500	-10.628000	25.736701	0.000802	20.889339
1230.324427	-3.003400	3.524300	-10.583000	25.730243	0.000800	20.906558
1231.329264	-2.970500	3.524800	-10.470000	25.708177	0.000801	20.902887
1232.327853	-3.026300	3.522200	-10.656000	25.724205	0.000801	20.901916
1233.324988	-3.023900	3.522200	-10.650000	25.754140	0.000800	20.907328
1234.339496	-2.983500	3.523500	-10.511000	25.767088	0.000801	20.889989
1235.331492	-2.992000	3.523200	-10.540000	25.740255	0.000799	20.876314
1236.326480	-3.013100	3.521700	-10.610000	25.754318	0.000798	20.891861
1237.328770	-2.997200	3.521000	-10.552000	25.756080	0.000798	20.905957
1238.331836	-2.974100	3.521800	-10.473000	25.786691	0.000797	20.894981
1239.328873	-2.991000	3.521000	-10.530000	25.812329	0.000797	20.892759
1240.337379	-3.008300	3.519600	-10.588000	25.825671	0.000795	20.873921
1241.331643	-2.993000	3.519900	-10.534000	25.849398	0.000797	20.893960
1242.330558	-2.994300	3.520800	-10.540000	25.839236	0.000797	20.869530
1243.332409	-2.997600	3.519300	-10.548000	25.835885	0.000795	20.891766
1244.340567	-2.989700	3.519200	-10.520000	25.821502	0.000796	20.892017
1245.341314	-3.003100	3.518400	-10.564000	25.792358	0.000794	20.905414
1246.335494	-3.010800	3.518100	-10.591000	25.804880	0.000794	20.894760
1247.334332	-3.016500	3.516600	-10.608000	25.768632	0.000794	20.872101
1248.334594	-3.006900	3.517800	-10.576000	25.766895	0.000793	20.912552
1249.335121	-3.020200	3.515800	-10.618000	25.801427	0.000793	20.855259
1250.333121	-2.991700	3.517700	-10.522000	25.828879	0.000793	20.887573
1251.332787	-3.021500	3.516100	-10.623000	25.803491	0.000791	20.875348
1252.335254	-2.974400	3.516000	-10.456000	25.802149	0.000793	20.899128
1253.334011	-2.981200	3.516000	-10.482000	25.833352	0.000791	20.875472
1254.332874	-2.976400	3.515200	-10.461000	25.816955	0.000791	20.885079
1255.336217	-2.964500	3.515800	-10.422000	25.807761	0.000791	20.879638
1256.333225	-2.992100	3.514600	-10.514000	25.811913	0.000792	20.877170
1257.332512	-2.996900	3.514100	-10.531000	25.806197	0.000790	20.871903
1258.337016	-2.970800	3.514400	-10.439000	25.732781	0.000792	20.883979
1259.340103	-3.005500	3.513600	-10.559000	25.683164	0.000790	20.871128
1260.343374	-3.001600	3.513900	-10.547000	25.651312	0.000790	20.872801
1261.341187	-3.008300	3.513100	-10.567000	25.656204	0.000788	20.869180
1262.340520	-2.995900	3.512500	-10.522000	25.657719	0.000786	20.887296
1263.341227	-3.008700	3.512800	-10.568000	25.683459	0.000789	20.859096
1264.339854	-3.009200	3.511000	-10.564000	25.696872	0.000784	20.860241
1265.340288	-3.008400	3.512000	-10.564000	25.700950	0.000785	20.849165
1266.336898	-2.995500	3.511200	-10.516000	25.696252	0.000784	20.857721
1267.340050	-3.029200	3.510300	-10.632000	25.712228	0.000783	20.863811
1268.341606	-3.007800	3.509900	-10.556000	25.736970	0.000783	20.878230
1269.339548	-3.016100	3.509700	-10.585000	25.739007	0.000785	20.877431
1270.341011	-3.004000	3.508600	-10.538000	25.726931	0.000783	20.867199
1271.341641	-2.990300	3.510800	-10.497000	25.764841	0.000782	20.866397
1272.338863	-3.007400	3.509300	-10.553000	25.797486	0.000783	20.847507
1273.341844	-2.994900	3.509800	-10.511000	25.798630	0.000784	20.865725
1274.340990	-2.987200	3.509600	-10.482000	25.847644	0.000782	20.836252
1275.345850	-3.006300	3.507700	-10.543000	25.847444	0.000780	20.851697
1276.342169	-2.990500	3.507900	-10.490000	25.862298	0.000780	20.861403
1277.342671	-2.996000	3.506000	-10.503000	25.873426	0.000778	20.860254
1278.338940	-3.009900	3.506900	-10.554000	25.905346	0.000778	20.888999
1279.341991	-2.995600	3.507200	-10.505000	25.875984	0.000778	20.865668
1280.345476	-2.992000	3.506700	-10.491000	25.885024	0.000778	20.857680
1281.341551	-2.990900	3.507300	-10.488000	25.886417	0.000775	20.868088
1282.345861	-3.023600	3.505100	-10.597000	25.896974	0.000775	20.887701
1283.346151	-2.987900	3.505600	-10.473000	25.908821	0.000776	20.852189
1284.340833	-3.004000	3.505400	-10.529000	25.917267	0.000774	20.864941
1285.345205	-2.995700	3.505700	-10.500000	25.884280	0.000774	20.877794
1286.349341	-3.006100	3.504500	-10.534000	25.908522	0.000774	20.875595
1287.342339	-2.999200	3.503200	-10.506000	25.926682	0.000772	20.860649
1288.351926	-2.996300	3.504000	-10.499000	25.933986	0.000774	20.849495
1289.347177	-2.998200	3.502100	-10.498000	25.933413	0.000770	20.851764
1290.342555	-2.994500	3.503500	-10.489000	25.936195	0.000772	20.846025
1291.346973	-3.020400	3.501300	-10.575000	25.932269	0.000768	20.868158
1292.348167	-3.002200	3.503000	-10.516000	25.921715	0.000770	20.855185
1293.344927	-3.001400	3.501300	-10.508000	25.881670	0.000769	20.853363
1294.344458	-3.001900	3.501200	-10.509000	25.859560	0.000769	20.844903
1295.345577	-3.020800	3.499400	-10.570000	25.849624	0.000770	20.842982
1296.342985	-2.994500	3.501600	-10.484000	25.867436	0.000767	20.843806
1297.351742	-3.002900	3.500200	-10.510000	25.904971	0.000768	20.855433
1298.345638	-3.013100	3.499700	-10.543000	25.909446	0.000767	20.854239
1299.345526	-3.003400	3.500100	-10.511000	25.906414	0.000766	20.841711
1300.352712	-3.009400	3.497800	-10.525000	25.923234	0.000765	20.869987
1301.348872	-3.024600	3.496700	-10.574000	25.951476	0.000764	20.860902
1302.348652	-3.000900	3.497500	-10.494000	25.886867	0.000762	20.852894
1303.353301	-3.003600	3.498200	-10.507000	25.836911	0.000764	20.852971
1304.350434	-3.007100	3.496700	-10.514000	25.799945	0.000764	20.835753
1305.348853	-3.013900	3.495000	-10.531000	25.796342	0.000762	20.861530
1306.348401	-3.001500	3.497500	-10.496000	25.781961	0.000762	20.847559
1307.350054	-2.980100	3.496800	-10.420000	25.759352	0.000761	20.847608
1308.346202	-3.001500	3.495700	-10.491000	25.734981	0.000761	20.851578
1309.352296	-3.020800	3.496100	-10.560000	25.770261	0.000762	20.851454
1310.348375	-2.986000	3.496700	-10.439000	25.793344	0.000762	20.859467
1311.347577	-3.011700	3.493300	-10.519000	25.795479	0.000759	20.857344
1312.352656	-3.000100	3.493000	-10.477000	25.854034	0.000759	20.846464
1313.349269	-3.008300	3.494900	-10.513000	25.881015	0.000759	20.847489
1314.350677	-3.034600	3.494200	-10.602000	25.864846	0.000757	20.827454
1315.349426	-3.024600	3.491100	-10.558000	25.879875	0.000756	20.844922
1316.355311	-2.989700	3.493200	-10.443000	25.884820	0.000757	20.841829
1317.352125	-3.022700	3.492200	-10.555000	25.861717	0.000756	20.855130
1318.356334	-3.012100	3.491300	-10.516000	25.838018	0.000756	20.850289
1319.353917	-2.994400	3.491800	-10.454000	25.849793	0.000755	20.831299
1320.355400	-2.988700	3.491100	-10.433000	25.855460	0.000756	20.846474
1321.354859	-2.985300	3.491600	-10.423000	25.847984	0.000756	20.822844
1322.354617	-3.000400	3.489700	-10.469000	25.872528	0.000756	20.818576
1323.352329	-2.982400	3.491300	-10.412000	25.913369	0.000752	20.850120
1324.352561	-2.999900	3.489500	-10.466000	25.905721	0.000753	20.834851
1325.356396	-2.995600	3.489300	-10.451000	25.871812	0.000753	20.824494
1326.357570	-2.971000	3.489200	-10.365000	25.859169	0.000754	20.834553
1327.354518	-2.992400	3.488800	-10.438000	25.847818	0.000754	20.828841
1328.357870	-2.949500	3.488700	-10.289000	25.821089	0.000752	20.831388
1329.353628	-2.986000	3.488500	-10.416000	25.796818	0.000749	20.811275
1330.360718	-3.002500	3.488300	-10.473000	25.784024	0.000751	20.829717
1331.353726	-2.994500	3.488000	-10.444000	25.803155	0.000749	20.838502
1332.359588	-3.015700	3.487900	-10.517000	25.810460	0.000751	20.811228
1333.358264	-2.975000	3.488300	-10.376000	25.844299	0.000748	20.803021
1334.360167	-3.004900	3.487000	-10.476000	25.861267	0.000749	20.812479
1335.357546	-2.996900	3.485600	-10.443000	25.912217	0.000748	20.820989
1336.362111	-2.994400	3.486300	-10.438000	25.883077	0.000747	20.835337
1337.359632	-3.012900	3.485600	-10.500000	25.844823	0.000747	20.813504
1338.359588	-3.015300	3.484800	-10.506000	25.798293	0.000746	20.799007
1339.363243	-2.992500	3.486000	-10.431000	25.767984	0.000747	20.825934
1340.356719	-2.989900	3.485600	-10.420000	25.762641	0.000746	20.811558
1341.360808	-3.006500	3.482800	-10.469000	25.769005	0.000745	20.809890
1342.362419	-3.006900	3.482600	-10.471000	25.792958	0.000744	20.819251
1343.361582	-2.980400	3.484600	-10.384000	25.800510	0.000745	20.803604
1344.359478	-2.986100	3.483600	-10.400000	25.813079	0.000744	20.810540
1345.363428	-2.981800	3.481800	-10.381000	25.816534	0.000744	20.789829
1346.363192	-2.993700	3.481400	-10.421000	25.836858	0.000745	20.789382
1347.362858	-2.994100	3.482000	-10.424000	25.843985	0.000743	20.806025
1348.366234	-3.015700	3.480300	-10.495000	25.881451	0.000744	20.803833
1349.367226	-3.006000	3.479600	-10.458000	25.873254	0.000743	20.797495
1350.364292	-3.007600	3.480300	-10.466000	25.888978	0.000742	20.828463
1351.359647	-3.013900	3.479000	-10.484000	25.910865	0.000741	20.809200
1352.368328	-2.987500	3.479900	-10.395000	25.931657	0.000740	20.802112
1353.365015	-2.991300	3.479100	-10.406000	25.927607	0.000741	20.803259
1354.365837	-2.992100	3.478600	-10.408000	25.935929	0.000739	20.788861
1355.362468	-2.985800	3.479700	-10.389000	25.946562	0.000741	20.805707
1356.366191	-3.014500	3.477100	-10.480000	25.960894	0.000741	20.787863
1357.365546	-2.992100	3.476600	-10.401000	25.981388	0.000738	20.791857
1358.367171	-2.993700	3.477100	-10.408000	25.988220	0.000738	20.818161
1359.365165	-2.991900	3.477600	-10.403000	26.015541	0.000738	20.800091
1360.365994	-2.992800	3.477300	-10.405000	26.019020	0.000737	20.804061
1361.371832	-3.029600	3.475000	-10.527000	26.053443	0.000738	20.818732
1362.365749	-3.007100	3.475500	-10.450000	26.026991	0.000736	20.789784
1363.369459	-2.991400	3.474400	-10.392000	26.038913	0.000735	20.801288
1364.369838	-2.995200	3.475500	-10.408000	26.030193	0.000734	20.783993
1365.373176	-2.987900	3.474500	-10.380000	26.021103	0.000736	20.823697
1366.366313	-2.975200	3.475100	-10.339000	26.020480	0.000731	20.781346
1367.374694	-3.001400	3.474900	-10.428000	26.036474	0.000731	20.794096
1368.371155	-2.998500	3.471800	-10.409000	26.039953	0.000732	20.786686
1369.370175	-2.967300	3.474400	-10.306000	25.980289	0.000730	20.771786
1370.377550	-2.969400	3.474100	-10.314000	25.964615	0.000732	20.795395
1371.370006	-2.972800	3.473300	-10.324000	25.939626	0.000730	20.798264
1372.370614	-2.990000	3.472900	-10.382000	25.930782	0.000731	20.807397
1373.376671	-3.002300	3.470100	-10.418000	25.940941	0.000731	20.795318
1374.376825	-2.970200	3.472000	-10.312000	25.918733	0.000731	20.807147
1375.365650	-2.984800	3.471700	-10.361000	25.868455	0.000731	20.798364
1376.370526	-2.988000	3.470600	-10.370000	25.880801	0.000729	20.776153
1377.371069	-3.002600	3.470400	-10.419000	25.876131	0.000728	20.789005
1378.371048	-3.000200	3.469500	-10.408000	25.831735	0.000728	20.785658
1379.373106	-2.980700	3.469800	-10.340000	25.843437	0.000729	20.787456
1380.372300	-2.992300	3.469300	-10.380000	25.851881	0.000728	20.798309
1381.373192	-2.990800	3.468700	-10.373000	25.840355	0.000727	20.812809
1382.372321	-3.012000	3.467900	-10.444000	25.849049	0.000727	20.781239
1383.371578	-2.984700	3.469600	-10.353000	25.829546	0.000728	20.777769
1384.371916	-3.002900	3.467800	-10.412000	25.861291	0.000730	20.789745
1385.373423	-3.025800	3.465400	-10.484000	25.859925	0.000726	20.776518
1386.377954	-3.027400	3.464900	-10.488000	25.921333	0.000728	20.797430
1387.376283	-2.988100	3.467100	-10.359000	25.907146	0.000726	20.795981
1388.375989	-3.018300	3.465400	-10.458000	25.944929	0.000726	20.786522
1389.375411	-3.025300	3.463400	-10.477000	25.932334	0.000724	20.782878
1390.370806	-2.990000	3.465400	-10.361000	25.952157	0.000724	20.794732
1391.371475	-2.989200	3.466200	-10.359000	25.975255	0.000725	20.788067
1392.372623	-2.979300	3.465100	-10.323000	25.975327	0.000723	20.784819
1393.377094	-3.024700	3.463400	-10.475000	25.943928	0.000723	20.794526
1394.375576	-2.992800	3.463900	-10.366000	25.921222	0.000723	20.774085
1395.377141	-2.987100	3.463500	-10.345000	25.913045	0.000722	20.804751
1396.374974	-3.004300	3.461500	-10.399000	25.931949	0.000720	20.809992
1397.376428	-2.994500	3.461800	-10.366000	25.931054	0.000720	20.790601
1398.376774	-2.995300	3.461100	-10.365000	25.944144	0.000720	20.794742
1399.372589	-3.006400	3.461100	-10.404000	25.946029	0.000720	20.799007
1400.374458	-2.984300	3.460400	-10.325000	25.943269	0.000720	20.801924
1401.377891	-2.981300	3.460800	-10.317000	25.924912	0.000722	20.788698
1402.384891	-3.013200	3.459000	-10.421000	25.916562	0.000720	20.790267
1403.375644	-3.010500	3.458400	-10.410000	25.949798	0.000719	20.779085
1404.379199	-2.987800	3.459800	-10.336000	25.950890	0.000720	20.780183
1405.380863	-3.013500	3.458600	-10.420000	25.970712	0.000719	20.785873
1406.380236	-3.014200	3.456700	-10.417000	26.020486	0.000719	20.778981
1407.381103	-2.992800	3.458600	-10.349000	26.031289	0.000718	20.808801
1408.380913	-3.002400	3.457100	-10.379000	26.024655	0.000718	20.777480
1409.381191	-3.020300	3.457200	-10.440000	26.032549	0.000714	20.795369
1410.377009	-3.027800	3.456100	-10.463000	26.044696	0.000716	20.786710
1411.377951	-2.998800	3.456000	-10.363000	26.028149	0.000715	20.792370
1412.382771	-2.985700	3.455300	-10.315000	26.016052	0.000715	20.791121
1413.383367	-2.999500	3.455600	-10.364000	25.992353	0.000716	20.784382
1414.380946	-2.993700	3.456500	-10.346000	25.980155	0.000715	20.776393
1415.378636	-3.023700	3.453300	-10.440000	25.972104	0.000714	20.780633
1416.383837	-2.983000	3.455200	-10.305000	25.947338	0.000713	20.764760
1417.381754	-3.001100	3.453400	-10.362000	25.934318	0.000713	20.781552
1418.382785	-2.996500	3.453500	-10.348000	25.963431	0.000711	20.774765
1419.385520	-2.984500	3.455100	-10.311000	25.974929	0.000713	20.777781
1420.383167	-2.999900	3.453400	-10.357000	25.983647	0.000710	20.789385
1421.380991	-2.977500	3.451900	-10.277000	25.979298	0.000708	20.777429
1422.387305	-3.032400	3.450700	-10.463000	25.991094	0.000709	20.790703
1423.385502	-3.015800	3.451100	-10.407000	25.969755	0.000707	20.792024
1424.381623	-2.988000	3.450700	-10.310000	25.970845	0.000707	20.795015
1425.385789	-3.023300	3.449300	-10.427000	25.972409	0.000706	20.780466
1426.386462	-3.015200	3.449500	-10.401000	26.011680	0.000706	20.799531
1427.384348	-3.001600	3.449600	-10.353000	26.002636	0.000707	20.799454
1428.385253	-2.969000	3.451500	-10.246000	26.000474	0.000705	20.808188
1429.387056	-2.998700	3.448100	-10.339000	25.976823	0.000705	20.808608
1430.383134	-2.998000	3.449000	-10.338000	25.953747	0.000704	20.774044
1431.383914	-2.998100	3.447000	-10.331000	25.940033	0.000703	20.803415
1432.388430	-3.003200	3.448600	-10.356000	25.945024	0.000703	20.776187
1433.386055	-3.004900	3.447300	-10.358000	25.926766	0.000701	20.778232
1434.388988	-3.006500	3.447300	-10.363000	25.926168	0.000701	20.768148
1435.387723	-2.982500	3.448200	-10.283000	25.962361	0.000700	20.795975
1436.387454	-3.006200	3.445700	-10.357000	26.001854	0.000701	20.792504
1437.387374	-3.043100	3.445500	-10.484000	26.025103	0.000699	20.787413
1438.389476	-2.989800	3.445100	-10.299000	26.025972	0.000698	20.808675
1439.387972	-3.007900	3.444400	-10.359000	26.061119	0.000698	20.790883
1440.386475	-2.988700	3.444100	-10.293000	26.063277	0.000697	20.790680
1441.384617	-3.000200	3.444700	-10.334000	26.048773	0.000697	20.801238
1442.386356	-3.070500	3.442200	-10.567000	26.042013	0.000698	20.794446
1443.383394	-3.005700	3.442000	-10.344000	26.050710	0.000696	20.801288
1444.387967	-2.998000	3.443600	-10.323000	26.061366	0.000694	20.802511
1445.387498	-2.993400	3.441700	-10.301000	26.059553	0.000695	20.789784
1446.388875	-3.011500	3.442100	-10.365000	26.047506	0.000695	20.814189
1447.390170	-3.009600	3.441700	-10.357000	26.010028	0.000696	20.796923
1448.389147	-3.003100	3.441500	-10.334000	25.974506	0.000695	20.789210
1449.387725	-3.004300	3.441300	-10.338000	25.943955	0.000694	20.794552
1450.389737	-3.011500	3.440900	-10.361000	25.933221	0.000694	20.814114
1451.393763	-2.982300	3.441700	-10.263000	25.943507	0.000694	20.786517
1452.387569	-3.005100	3.438900	-10.333000	25.967180	0.000692	20.815040
1453.392620	-2.989000	3.439300	-10.279000	25.973488	0.000692	20.801464
1454.387167	-3.027900	3.439000	-10.412000	25.960325	0.000692	20.803886
1455.392249	-2.998600	3.439500	-10.312000	25.951580	0.000691	20.797472
1456.391883	-3.038700	3.437800	-10.445000	25.970930	0.000690	20.795101
1457.389526	-2.999900	3.439500	-10.317000	26.010821	0.000689	20.789185
1458.392298	-2.998000	3.438700	-10.309000	26.024509	0.000692	20.785869
1459.391499	-3.013400	3.437000	-10.356000	26.000638	0.000689	20.813094
1460.398229	-3.017000	3.435800	-10.365000	25.969712	0.000689	20.800041
1461.391356	-3.007800	3.436600	-10.335000	25.971553	0.000689	20.809003
1462.389826	-2.996800	3.436100	-10.297000	25.977039	0.000687	20.807402
1463.386991	-2.996600	3.435800	-10.294000	25.977385	0.000690	20.810594
1464.390995	-2.993900	3.434700	-10.281000	26.021525	0.000686	20.819380
1465.390623	-3.017000	3.435700	-10.365000	25.979671	0.000685	20.786812
1466.391811	-3.004800	3.433600	-10.316000	25.968618	0.000684	20.797519
1467.391303	-3.000800	3.434900	-10.306000	25.926339	0.000685	20.807675
1468.391014	-3.010600	3.432200	-10.331000	25.890219	0.000685	20.781820
1469.388764	-2.973700	3.433800	-10.209000	25.916773	0.000684	20.820351
1470.390697	-2.998300	3.432900	-10.291000	25.898490	0.000684	20.829009
1471.391146	-3.008000	3.431900	-10.322000	25.882840	0.000682	20.805228
1472.387921	-2.990500	3.434400	-10.269000	25.883436	0.000682	20.813412
1473.394660	-3.008100	3.431100	-10.319000	25.853500	0.000682	20.788555
1474.389305	-3.009100	3.430300	-10.320000	25.871038	0.000683	20.795268
1475.395905	-3.002300	3.431500	-10.301000	25.909393	0.000683	20.812936
1476.391190	-3.023300	3.429600	-10.367000	25.899730	0.000680	20.807023
1477.393270	-2.964700	3.432300	-10.174000	25.923900	0.000682	20.817553
1478.391923	-3.010900	3.429800	-10.325000	25.935949	0.000680	20.806424
1479.395676	-3.002900	3.428900	-10.296000	25.946530	0.000680	20.825115
1480.390419	-2.992000	3.431400	-10.265000	25.982426	0.000678	20.793848
1481.391395	-2.985200	3.430200	-10.238000	25.950555	0.000678	20.820624
1482.397213	-2.999700	3.428800	-10.285000	25.960617	0.000677	20.798490
1483.389653	-2.982600	3.429400	-10.228000	25.939105	0.000677	20.796318
1484.392969	-2.970200	3.428400	-10.181000	25.939974	0.000677	20.811890
1485.395243	-3.010000	3.426800	-10.314000	25.955924	0.000675	20.808000
1486.393978	-3.004500	3.426800	-10.295000	26.000411	0.000677	20.806228
1487.394984	-2.996000	3.427700	-10.268000	26.031979	0.000678	20.806650
1488.400514	-3.002900	3.427600	-10.292000	26.018866	0.000675	20.827614
1489.399500	-3.015000	3.426600	-10.330000	26.003591	0.000673	20.805155
1490.395226	-3.022400	3.425700	-10.353000	25.996885	0.000674	20.802211
1491.392709	-3.021400	3.424600	-10.346000	26.039856	0.000672	20.818831
1492.395935	-3.018000	3.425200	-10.336000	26.046537	0.000674	20.812742
1493.395939	-2.993800	3.425100	-10.252000	26.069191	0.000674	20.812270
1494.402916	-3.014700	3.423500	-10.320000	26.075277	0.000672	20.815539
1495.398469	-3.017600	3.422700	-10.326000	26.101678	0.000673	20.826420
1496.397259	-2.988200	3.423600	-10.228000	26.087175	0.000672	20.809951
1497.405790	-2.989400	3.422400	-10.229000	26.098501	0.000670	20.823701
1498.394405	-3.003600	3.422300	-10.278000	26.107319	0.000669	20.828294
1499.401741	-2.970200	3.423900	-10.168000	26.112337	0.000670	20.813421
1500.404639	-3.015600	3.421400	-10.317000	26.136904	0.000669	20.823408
1501.400700	-3.015200	3.421500	-10.316000	26.154534	0.000669	20.813148
1502.402742	-3.009400	3.420900	-10.294000	26.133947	0.000667	20.817117
1503.400924	-2.997600	3.420700	-10.253000	26.156649	0.000669	20.810057
1504.398355	-2.986800	3.421600	-10.218000	26.195840	0.000667	20.817671
1505.397526	-3.005000	3.420600	-10.279000	26.185109	0.000666	20.807361
1506.404499	-3.006200	3.419100	-10.277000	26.220868	0.000668	20.827174
1507.404202	-2.988600	3.420200	-10.221000	26.216377	0.000667	20.825505
1508.403871	-2.986400	3.418200	-10.207000	26.168670	0.000667	20.819766
1509.400366	-2.981100	3.419300	-10.192000	26.111002	0.000665	20.821089
1510.401158	-2.987800	3.419200	-10.214000	26.064236	0.000664	20.816774
1511.401684	-2.999700	3.416600	-10.248000	26.019752	0.000663	20.804797
1512.407071	-3.004300	3.416900	-10.265000	26.003807	0.000663	20.830502
1513.405658	-3.016600	3.417000	-10.307000	26.007509	0.000662	20.827583
1514.400648	-2.980200	3.416600	-10.181000	26.029269	0.000663	20.810565
1515.406887	-3.005000	3.415900	-10.263000	26.094394	0.000663	20.839962
1516.405219	-3.019400	3.416100	-10.314000	26.103461	0.000664	20.824891
1517.404391	-3.008600	3.414400	-10.272000	26.102544	0.000663	20.815910
1518.404663	-2.991100	3.415000	-10.213000	26.052248	0.000662	20.837445
1519.403963	-3.025300	3.413700	-10.325000	26.026045	0.000662	20.830559
1520.406023	-3.005500	3.414000	-10.260000	26.006720	0.000660	20.821101
1521.403928	-2.992400	3.414800	-10.217000	26.047803	0.000663	20.826815
1522.406440	-3.000700	3.413300	-10.242000	26.070356	0.000660	20.833354
1523.405475	-2.985100	3.413300	-10.188000	26.105575	0.000662	20.827490
1524.409352	-3.005000	3.411600	-10.251000	26.101281	0.000663	20.824124
1525.401766	-2.982800	3.411900	-10.176000	26.123411	0.000661	20.823126
1526.403989	-2.995800	3.412400	-10.222000	26.140248	0.000661	20.843837
1527.405741	-2.987800	3.411000	-10.190000	26.130440	0.000659	20.825921
1528.404869	-2.979600	3.411300	-10.163000	26.128055	0.000658	20.837750
1529.402302	-3.009800	3.410800	-10.264000	26.099591	0.000660	20.821952
1530.413340	-2.999100	3.410000	-10.226000	26.101229	0.000659	20.831184
1531.408145	-3.001000	3.409600	-10.230000	26.094996	0.000657	20.832981
1532.407807	-2.983500	3.410200	-10.173000	26.148668	0.000656	20.840917
1533.410275	-2.997200	3.409600	-10.219000	26.144493	0.000658	20.812541
1534.406299	-2.984900	3.408700	-10.174000	26.151571	0.000658	20.833878
1535.405143	-2.991200	3.410000	-10.199000	26.179907	0.000657	20.846704
1536.407945	-3.003400	3.409500	-10.239000	26.190214	0.000657	20.830509
1537.404714	-3.008100	3.408200	-10.250000	26.190857	0.000654	20.831155
1538.406016	-2.993700	3.407900	-10.201000	26.190709	0.000655	20.840014
1539.412261	-2.990300	3.408200	-10.190000	26.186188	0.000655	20.841635
1540.407610	-2.992700	3.406200	-10.193000	26.175234	0.000656	20.829206
1541.409466	-3.020200	3.407100	-10.290000	26.113168	0.000654	20.834645
1542.411481	-3.016300	3.405600	-10.271000	26.090468	0.000653	20.838863
1543.411150	-2.992100	3.405300	-10.188000	26.087535	0.000654	20.827856
1544.407934	-2.996500	3.405300	-10.203000	26.058077	0.000652	20.849939
1545.415026	-2.985300	3.405100	-10.164000	26.066695	0.000653	20.869503
1546.410434	-2.995700	3.404400	-10.197000	26.081396	0.000653	20.850136
1547.408239	-2.992400	3.404700	-10.186000	26.096796	0.000652	20.856600
1548.415633	-3.012700	3.403700	-10.253000	26.123145	0.000652	20.847988
1549.414637	-2.988500	3.404400	-10.173000	26.155801	0.000650	20.828172
1550.414192	-3.008100	3.403500	-10.237000	26.152372	0.000651	20.807183
1551.415687	-3.013400	3.402100	-10.251000	26.155700	0.000649	20.855570
1552.414935	-3.005400	3.403200	-10.227000	26.142088	0.000652	20.867495
1553.415266	-2.987000	3.403400	-10.165000	26.172312	0.000651	20.837650
1554.417991	-3.003600	3.401200	-10.214000	26.166425	0.000646	20.865872
1555.416691	-2.992400	3.401900	-10.178000	26.175339	0.000649	20.844958
1556.423634	-2.979700	3.401800	-10.134000	26.206877	0.000648	20.875700
1557.419483	-2.999400	3.401100	-10.200000	26.193715	0.000648	20.875275
1558.416702	-3.004400	3.399900	-10.213000	26.203224	0.000646	20.853538
1559.416543	-2.999300	3.400000	-10.197000	26.214620	0.000647	20.857877
1560.420137	-3.013900	3.397800	-10.239000	26.184394	0.000646	20.832247
1561.416216	-3.031600	3.397200	-10.297000	26.164151	0.000647	20.849363
1562.416635	-3.004800	3.398700	-10.212000	26.173265	0.000644	20.854728
1563.418562	-3.019200	3.397700	-10.257000	26.146366	0.000643	20.844295
1564.416856	-3.012400	3.398700	-10.237000	26.158882	0.000643	20.863508
1565.418912	-2.994700	3.397100	-10.173000	26.131637	0.000642	20.865055
1566.424847	-3.002800	3.396800	-10.198000	26.112907	0.000642	20.861883
1567.418274	-3.007800	3.395200	-10.211000	26.060697	0.000642	20.844986
1568.417228	-3.000000	3.397000	-10.190000	26.001283	0.000639	20.852621
1569.425398	-2.989100	3.396300	-10.151000	25.967175	0.000642	20.855812
1570.415290	-3.007800	3.395300	-10.212000	25.977511	0.000641	20.878522
1571.418795	-3.004600	3.395700	-10.201000	26.002868	0.000641	20.861325
1572.418820	-3.009000	3.395400	-10.216000	26.020503	0.000639	20.849646
1573.420467	-2.994000	3.393900	-10.159000	26.045364	0.000640	20.865141
1574.420733	-3.002200	3.394800	-10.192000	26.085475	0.000640	20.880785
1575.425263	-3.022900	3.393000	-10.255000	26.074596	0.000640	20.884553
1576.423738	-3.014200	3.392400	-10.224000	26.078245	0.000638	20.883952
1577.424148	-3.041200	3.391600	-10.313000	26.127147	0.000638	20.881880
1578.432602	-2.999200	3.393200	-10.177000	26.177413	0.000639	20.885921
1579.424177	-3.011200	3.391000	-10.209000	26.189702	0.000635	20.866977
1580.426855	-2.983300	3.392400	-10.120000	26.158137	0.000636	20.868923
1581.430521	-3.000900	3.391300	-10.176000	26.144699	0.000633	20.868697
1582.425099	-2.992900	3.391500	-10.150000	26.136082	0.000633	20.884693
1583.422308	-3.001300	3.390400	-10.175000	26.170625	0.000632	20.876256
1584.426877	-2.996500	3.390600	-10.159000	26.210062	0.000633	20.884115
1585.420424	-3.030500	3.390000	-10.272000	26.189994	0.000633	20.884339
1586.424262	-3.000800	3.389800	-10.171000	26.202260	0.000631	20.882914
1587.427572	-3.020500	3.388400	-10.234000	26.228160	0.000630	20.886181
1588.425979	-3.002700	3.388100	-10.173000	26.237000	0.000628	20.893641
1589.425678	-3.009400	3.389200	-10.198000	26.258158	0.000629	20.879817
1590.426013	-2.988400	3.389600	-10.129000	26.255673	0.000628	20.885854
1591.427959	-2.989200	3.389100	-10.129000	26.298213	0.000627	20.885931
1592.426968	-3.005800	3.388000	-10.183000	26.318301	0.000628	20.879566
1593.433879	-2.998000	3.387000	-10.154000	26.337818	0.000625	20.898231
1594.427195	-2.990500	3.388300	-10.132000	26.359122	0.000626	20.885504
1595.427410	-3.019400	3.385500	-10.221000	26.383482	0.000626	20.891494
1596.433035	-2.986800	3.385900	-10.112000	26.359295	0.000624	20.896583
1597.431506	-3.007700	3.386200	-10.184000	26.361580	0.000624	20.888448
1598.429263	-3.003500	3.386000	-10.167000	26.314302	0.000622	20.881711
1599.433727	-2.980000	3.386700	-10.091000	26.276009	0.000623	20.884005
1600.430065	-3.013400	3.384600	-10.198000	26.271812	0.000621	20.892589
1601.429517	-2.992200	3.385600	-10.129000	26.257830	0.000621	20.904141
1602.432906	-3.014500	3.384700	-10.201000	26.227610	0.000620	20.897481
1603.429701	-3.011700	3.383800	-10.190000	26.236227	0.000622	20.910406
1604.436668	-3.026000	3.382300	-10.234000	26.258527	0.000620	20.887299
1605.430633	-3.015900	3.383400	-10.203000	26.298557	0.000619	20.899551
1606.433814	-3.021900	3.380900	-10.215000	26.317281	0.000621	20.887550
1607.434392	-3.000500	3.381700	-10.146000	26.333670	0.000620	20.905916
1608.436533	-2.971200	3.383000	-10.050000	26.357583	0.000617	20.897233
1609.431611	-2.980400	3.381300	-10.075000	26.377695	0.000618	20.902746
1610.442275	-2.986400	3.383000	-10.102000	26.390259	0.000617	20.911106
1611.436582	-2.996100	3.381300	-10.130000	26.390531	0.000617	20.914224
1612.433538	-2.995700	3.381900	-10.130000	26.331884	0.000617	20.884682
1613.433876	-3.015000	3.381200	-10.193000	26.304520	0.000615	20.912181
1614.438773	-3.015500	3.379600	-10.189000	26.260692	0.000615	20.907966
1615.435410	-3.031700	3.379100	-10.243000	26.199998	0.000614	20.918096
1616.435251	-2.991200	3.379000	-10.106000	26.173922	0.000614	20.895688
1617.435217	-2.998100	3.378600	-10.128000	26.145635	0.000614	20.917522
1618.434386	-3.007400	3.378000	-10.158000	26.138484	0.000611	20.941629
1619.434825	-2.985100	3.378700	-10.085000	26.178492	0.000613	20.917822
1620.445356	-2.993200	3.377200	-10.107000	26.211673	0.000614	20.917499
1621.440856	-3.008600	3.376600	-10.157000	26.250438	0.000612	20.899558
1622.441136	-3.015500	3.376500	-10.181000	26.263056	0.000612	20.917926
1623.447326	-3.003500	3.375800	-10.138000	26.292805	0.000613	20.895668
1624.441240	-2.983600	3.377600	-10.076000	26.309145	0.000614	20.921096
1625.440371	-2.987500	3.376400	-10.086000	26.311084	0.000612	20.912614
1626.441597	-2.989900	3.375400	-10.091000	26.303955	0.000611	20.916355
1627.437540	-3.002300	3.374500	-10.131000	26.318161	0.000611	20.929207
1628.442857	-3.012300	3.375300	-10.166000	26.329212	0.000610	20.926564
1629.442490	-2.987400	3.375200	-10.082000	26.258537	0.000611	20.903430
1630.441145	-3.010100	3.373600	-10.153000	26.235519	0.000611	20.929607
1631.439209	-2.997600	3.374600	-10.115000	26.221683	0.000608	20.922816
1632.442086	-2.989000	3.375200	-10.086000	26.246294	0.000609	20.930478
1633.439232	-3.013500	3.373300	-10.165000	26.238844	0.000609	20.911614
1634.439610	-3.004600	3.374000	-10.136000	26.223026	0.000608	20.913262
1635.443486	-3.016900	3.371500	-10.171000	26.205815	0.000608	20.938637
1636.442889	-2.971400	3.373400	-10.022000	26.184930	0.000606	20.912912
1637.441369	-2.983700	3.370900	-10.057000	26.190392	0.000606	20.917926
1638.443485	-2.985200	3.371400	-10.063000	26.182544	0.000605	20.929952
1639.442109	-2.979000	3.372700	-10.046000	26.159000	0.000606	20.922417
1640.443058	-3.000400	3.370100	-10.110000	26.167543	0.000603	20.937163
1641.441798	-3.000200	3.368800	-10.106000	26.198238	0.000604	20.924862
1642.441361	-2.991600	3.369700	-10.079000	26.197618	0.000605	20.937987
1643.440784	-2.991900	3.371100	-10.086000	26.243115	0.000604	20.949566
1644.444531	-2.995100	3.369600	-10.091000	26.237478	0.000604	20.932524
1645.441034	-3.000200	3.367800	-10.103000	26.191931	0.000602	20.914732
1646.441918	-2.996200	3.368100	-10.090000	26.214976	0.000601	20.951160
1647.451780	-2.991900	3.367400	-10.074000	26.248004	0.000602	20.927930
1648.441274	-2.993700	3.367200	-10.079000	26.268641	0.000602	20.938236
1649.441102	-2.996700	3.367600	-10.091000	26.308024	0.000601	20.915228
1650.443850	-2.996500	3.367700	-10.090000	26.318330	0.000599	20.945496
1651.443253	-3.012000	3.366400	-10.139000	26.317932	0.000599	20.949837
1652.441915	-3.022200	3.364800	-10.168000	26.289995	0.000599	20.942625
1653.449004	-2.983500	3.366400	-10.042000	26.319968	0.000598	20.948564
1654.443787	-2.987300	3.367100	-10.058000	26.302464	0.000595	20.935242
1655.444324	-2.997800	3.366100	-10.090000	26.308123	0.000597	20.939507
1656.445823	-2.991800	3.365300	-10.066000	26.317063	0.000594	20.926681
1657.443562	-3.000100	3.365400	-10.095000	26.340354	0.000594	20.937759
1658.443252	-3.000800	3.364700	-10.096000	26.363968	0.000594	20.932569
1659.444728	-3.015000	3.365300	-10.145000	26.363844	0.000595	20.945720
1660.443687	-3.012500	3.363400	-10.131000	26.367120	0.000595	20.929573
1661.443439	-3.021600	3.362100	-10.157000	26.401112	0.000595	20.947140
1662.448358	-3.012700	3.362700	-10.130000	26.388624	0.000592	20.964458
1663.447436	-3.004500	3.362600	-10.101000	26.390612	0.000592	20.956025
1664.445567	-2.979800	3.362600	-10.019000	26.399625	0.000591	20.934741
1665.448737	-2.998000	3.362100	-10.079000	26.401116	0.000590	20.935292
1666.446058	-2.995300	3.362600	-10.071000	26.431729	0.000589	20.922913
1667.447271	-3.001400	3.360500	-10.085000	26.431408	0.000590	20.929228
1668.450866	-3.004300	3.360300	-10.095000	26.441714	0.000587	20.909717
1669.446074	-2.999300	3.360000	-10.076000	26.422745	0.000587	20.909618
1670.446468	-3.001500	3.360500	-10.085000	26.457682	0.000589	20.933350
1671.449761	-3.001700	3.360100	-10.084000	26.469774	0.000589	20.929857
1672.448692	-2.998700	3.361000	-10.078000	26.499964	0.000588	20.915634
1673.448325	-3.016400	3.358400	-10.130000	26.510194	0.000586	20.912641
1674.454568	-2.984800	3.358800	-10.025000	26.491426	0.000585	20.912742
1675.446763	-3.015900	3.359600	-10.131000	26.450635	0.000585	20.926742
1676.447794	-3.004500	3.358000	-10.088000	26.428119	0.000584	20.911699
1677.455643	-3.004700	3.357600	-10.088000	26.449842	0.000585	20.906507
1678.450957	-2.992400	3.357800	-10.046000	26.474945	0.000583	20.902341
1679.448787	-3.015900	3.356900	-10.122000	26.459180	0.000583	20.909254
1680.455887	-3.002500	3.357200	-10.079000	26.472119	0.000582	20.911354
1681.449785	-2.981600	3.357200	-10.009000	26.456650	0.000584	20.909557
1682.450634	-2.997500	3.356500	-10.060000	26.473907	0.000584	20.916944
1683.454815	-3.006300	3.355700	-10.088000	26.492603	0.000582	20.908236
1684.451246	-2.998400	3.354800	-10.058000	26.515966	0.000583	20.908960
1685.451941	-2.993400	3.354700	-10.041000	26.539601	0.000581	20.920389
1686.456629	-3.005100	3.353700	-10.077000	26.515200	0.000582	20.917673
1687.452986	-2.989700	3.355100	-10.030000	26.497772	0.000582	20.888777
1688.453869	-2.981900	3.354300	-10.002000	26.482876	0.000581	20.923588
1689.461936	-3.012600	3.354000	-10.104000	26.491266	0.000581	20.911633
1690.455972	-2.981100	3.352700	-9.992500	26.504526	0.000581	20.901255
1691.455759	-3.027900	3.353000	-10.152000	26.508525	0.000578	20.924712
1692.468099	-2.988000	3.352400	-10.015000	26.527092	0.000584	20.888851
1693.460793	-3.004500	3.353300	-10.074000	26.545540	0.000578	20.892696
1694.461209	-3.000700	3.352700	-10.060000	26.542737	0.000578	20.903628
1695.463605	-2.980900	3.351900	-9.990300	26.552393	0.000576	20.887731
1696.464540	-3.000700	3.351300	-10.054000	26.577047	0.000580	20.905874
1697.463047	-2.999800	3.350100	-10.048000	26.570515	0.000575	20.912584
1698.465103	-2.988400	3.351200	-10.013000	26.582878	0.000576	20.880918
1699.459495	-2.981000	3.350300	-9.986100	26.627018	0.000576	20.901580
1700.461711	-2.984900	3.349900	-9.998100	26.596236	0.000574	20.874905
1701.460710	-3.005500	3.349100	-10.064000	26.596458	0.000574	20.899309
1702.461443	-2.964900	3.350100	-9.931200	26.571980	0.000574	20.885135
1703.463730	-2.982700	3.348600	-9.987100	26.539431	0.000575	20.890348
1704.465183	-2.994000	3.348700	-10.026000	26.494867	0.000574	20.892495
1705.460947	-2.999200	3.348800	-10.043000	26.480987	0.000571	20.895613
1706.467168	-2.992500	3.349200	-10.022000	26.470982	0.000571	20.883661
1707.467113	-3.015500	3.346300	-10.089000	26.482849	0.000569	20.885632
1708.462717	-3.017000	3.346500	-10.096000	26.486846	0.000570	20.849348
1709.467554	-3.017400	3.346500	-10.097000	26.506040	0.000568	20.871485
1710.465153	-2.994900	3.348200	-10.027000	26.525998	0.000569	20.889648
1711.465612	-2.999500	3.345400	-10.034000	26.536230	0.000570	20.877174
1712.467711	-2.996800	3.346600	-10.028000	26.543898	0.000567	20.876822
1713.468427	-3.003000	3.345000	-10.043000	26.531982	0.000569	20.862474
1714.466866	-3.011000	3.343800	-10.067000	26.529004	0.000568	20.874178
1715.467667	-2.998600	3.346400	-10.033000	26.538040	0.000567	20.869038
1716.468633	-3.001800	3.344600	-10.039000	26.548094	0.000565	20.887677
1717.470643	-3.004300	3.345400	-10.048000	26.568674	0.000566	20.869011
1718.467575	-3.006700	3.343700	-10.052000	26.552041	0.000565	20.884058
1719.469864	-3.003700	3.344500	-10.045000	26.565423	0.000564	20.878545
1720.465571	-3.008100	3.343800	-10.057000	26.585234	0.000563	20.877597
1721.469179	-3.024800	3.341200	-10.105000	26.605914	0.000563	20.856186
1722.472412	-2.994000	3.342200	-10.005000	26.597970	0.000563	20.851994
1723.470960	-2.991200	3.342900	-9.998400	26.622919	0.000563	20.864271
1724.466971	-3.010700	3.340600	-10.056000	26.591838	0.000562	20.872855
1725.472366	-2.996100	3.342500	-10.013000	26.593253	0.000560	20.874278
1726.478402	-2.969500	3.342100	-9.922400	26.560980	0.000559	20.866967
1727.476762	-2.992600	3.340600	-9.995600	26.532157	0.000560	20.880667
1728.473057	-2.986000	3.339400	-9.970300	26.474610	0.000560	20.843213
1729.475504	-2.996800	3.339000	-10.006000	26.463187	0.000557	20.880094
1730.475352	-3.010000	3.340400	-10.052000	26.454352	0.000561	20.872162
1731.482995	-3.014200	3.338100	-10.060000	26.421006	0.000558	20.864251
1732.478234	-2.997100	3.337800	-10.003000	26.455271	0.000558	20.865500
1733.477120	-3.008600	3.338800	-10.045000	26.470440	0.000557	20.874582
1734.477839	-3.027700	3.336900	-10.102000	26.518235	0.000557	20.860510
1735.477998	-2.990800	3.338400	-9.983900	26.495766	0.000557	20.872537
1736.476997	-2.995200	3.338700	-9.998900	26.521090	0.000558	20.873336
1737.476460	-2.989500	3.337400	-9.976000	26.513071	0.000553	20.861957
1738.477791	-3.009600	3.336900	-10.042000	26.508181	0.000556	20.866050
1739.477559	-2.998900	3.337300	-10.007000	26.486208	0.000555	20.850129
1740.482454	-2.988700	3.337000	-9.972000	26.467462	0.000555	20.827494
1741.477397	-2.979700	3.336600	-9.941700	26.474315	0.000554	20.872788
1742.477856	-3.010700	3.334600	-10.039000	26.485313	0.000555	20.862980
1743.484435	-3.008100	3.335500	-10.033000	26.490750	0.000557	20.868918
1744.483368	-3.003400	3.335200	-10.016000	26.489658	0.000553	20.852648
1745.481066	-3.013700	3.334200	-10.048000	26.494025	0.000551	20.870787
1746.485040	-2.993600	3.334100	-9.980200	26.466840	0.000551	20.843464
1747.479034	-2.996800	3.334800	-9.992800	26.482975	0.000552	20.850673
1748.478652	-3.001100	3.334000	-10.005000	26.487297	0.000551	20.843638
1749.496630	-2.995600	3.333500	-9.984700	26.499485	0.000551	20.871060
1750.484929	-3.027000	3.332600	-10.087000	26.527490	0.000550	20.847054
1751.484946	-2.987900	3.332300	-9.955800	26.517233	0.000551	20.856184
1752.482173	-2.996800	3.330500	-9.980200	26.549532	0.000548	20.853089
1753.481504	-2.992400	3.331500	-9.967800	26.551221	0.000548	20.851942
1754.486468	-2.998600	3.331000	-9.988000	26.592155	0.000549	20.861321
1755.481798	-2.997900	3.330800	-9.984700	26.611619	0.000549	20.860499
1756.483859	-2.973200	3.331400	-9.903800	26.640885	0.000548	20.850091
1757.480182	-3.006800	3.330100	-10.013000	26.636562	0.000548	20.847641
1758.479554	-3.013700	3.329700	-10.034000	26.661386	0.000547	20.830872
1759.487283	-3.000400	3.329200	-9.987800	26.652796	0.000546	20.851159
1760.484579	-2.991200	3.329100	-9.957400	26.606521	0.000545	20.849210
1761.483665	-2.988400	3.329900	-9.949700	26.602348	0.000544	20.829843
1762.483523	-2.973900	3.329500	-9.900300	26.581371	0.000546	20.846688
1763.483149	-2.985500	3.327400	-9.933000	26.559200	0.000544	20.852376
1764.484087	-3.008800	3.327300	-10.011000	26.549566	0.000546	20.831787
1765.483759	-3.004300	3.326300	-9.991500	26.521610	0.000543	20.844937
1766.484992	-3.007600	3.327000	-10.005000	26.574685	0.000543	20.857036
1767.489368	-3.020600	3.325600	-10.044000	26.573344	0.000543	20.831982
1768.486650	-2.982400	3.328000	-9.923800	26.562343	0.000542	20.850794
1769.487812	-2.999200	3.325300	-9.971600	26.599035	0.000540	20.846427
1770.492862	-2.999000	3.326100	-9.974800	26.583194	0.000538	20.848520
1771.494671	-2.966100	3.325700	-9.862700	26.562689	0.000540	20.838814
1772.491209	-2.970100	3.326100	-9.877200	26.538084	0.000540	20.855332
1773.489998	-2.991300	3.325300	-9.945900	26.565269	0.000537	20.852313
1774.496268	-3.001700	3.324100	-9.977000	26.554544	0.000538	20.833946
1775.489702	-3.009700	3.323600	-10.003000	26.595949	0.000536	20.841429
1776.487593	-2.998900	3.324100	-9.968100	26.608337	0.000536	20.845346
1777.489062	-3.026300	3.322600	-10.054000	26.648999	0.000536	20.835488
1778.488567	-3.011800	3.322400	-10.005000	26.624767	0.000536	20.829621
1779.490940	-3.017100	3.322100	-10.023000	26.558783	0.000537	20.844845
1780.491129	-3.016400	3.321000	-10.016000	26.501803	0.000534	20.850632
1781.485895	-3.012600	3.322500	-10.009000	26.462625	0.000534	20.832590
1782.488374	-3.021000	3.320900	-10.030000	26.455425	0.000533	20.828198
1783.497298	-2.980600	3.321100	-9.897300	26.486508	0.000534	20.824353
1784.494381	-3.003300	3.320300	-9.970600	26.511808	0.000530	20.834610
1785.492323	-2.985700	3.321100	-9.914700	26.514710	0.000534	20.838950
1786.495618	-2.989800	3.320000	-9.925500	26.544626	0.000530	20.840097
1787.496810	-2.994000	3.319300	-9.936500	26.513542	0.000532	20.826871
1788.497408	-2.973000	3.319900	-9.869300	26.536110	0.000530	20.831538
1789.494970	-3.012400	3.318000	-9.993900	26.551948	0.000530	20.846035
1790.495623	-3.018600	3.318000	-10.014000	26.514533	0.000529	20.835927
1791.495678	-3.001100	3.317900	-9.955500	26.527119	0.000530	20.803060
1792.496291	-3.005300	3.317300	-9.968400	26.527588	0.000528	20.841938
1793.496996	-3.014100	3.316900	-9.996600	26.566665	0.000529	20.836173
1794.497388	-3.036000	3.314100	-10.060000	26.605245	0.000527	20.836548
1795.499818	-2.976000	3.317200	-9.871200	26.647618	0.000527	20.838368
1796.497436	-2.998300	3.315500	-9.940200	26.618795	0.000526	20.848747
1797.497077	-2.995700	3.315500	-9.931300	26.609809	0.000525	20.829283
1798.501473	-3.025300	3.313900	-10.025000	26.619761	0.000525	20.816529
1799.497801	-2.994500	3.314900	-9.925800	26.644212	0.000524	20.824987
1800.495016	-2.998700	3.316200	-9.942700	26.678593	0.000523	20.823514
1801.503883	-3.024300	3.313200	-10.017000	26.726324	0.000523	20.819819
1802.498723	-3.004600	3.314700	-9.958900	26.731586	0.000521	20.832221
1803.498567	-3.008300	3.314300	-9.969300	26.712025	0.000523	20.821564
1804.498098	-3.029800	3.312300	-10.033000	26.709714	0.000523	20.815922
1805.502405	-2.982600	3.314900	-9.885600	26.738434	0.000521	20.828200
1806.500206	-2.985400	3.312800	-9.889100	26.757496	0.000521	20.809907
1807.501682	-2.993900	3.313100	-9.918100	26.742899	0.000520	20.824154
1808.503951	-3.003900	3.311900	-9.947600	26.745257	0.000521	20.834111
1809.496955	-2.985000	3.312700	-9.887400	26.733415	0.000521	20.812723
1810.505304	-3.005900	3.311800	-9.953900	26.684786	0.000516	20.828792
1811.502233	-2.996200	3.312000	-9.921900	26.637520	0.000518	20.829639
1812.500385	-3.024400	3.310800	-10.012000	26.560239	0.000518	20.808851
1813.510514	-2.984500	3.311400	-9.881400	26.541939	0.000518	20.805629
1814.502397	-3.003600	3.310800	-9.943200	26.556014	0.000516	20.818355
1815.500610	-3.020300	3.310200	-9.995700	26.577438	0.000515	20.819502
1816.509473	-2.988000	3.311400	-9.893600	26.565596	0.000515	20.810443
1817.510449	-2.997900	3.309200	-9.918400	26.596726	0.000514	20.814709
1818.502297	-3.001100	3.308200	-9.927300	26.598165	0.000514	20.807147
1819.507331	-2.996500	3.309100	-9.914700	26.621475	0.000512	20.821570
1820.502045	-2.978600	3.309900	-9.858300	26.628972	0.000512	20.833848
1821.504187	-3.017800	3.306600	-9.977700	26.672313	0.000511	20.820521
1822.503973	-2.965600	3.308900	-9.810900	26.690408	0.000511	20.822591
1823.504829	-3.007400	3.308200	-9.948100	26.694031	0.000510	20.819595
1824.501073	-2.999900	3.307100	-9.918800	26.684771	0.000508	20.833993
1825.514152	-3.002300	3.306200	-9.925500	26.587883	0.000509	20.803923
1826.506872	-3.030400	3.306200	-10.018000	26.581650	0.000507	20.807141
1827.507230	-2.997500	3.305600	-9.906900	26.586987	0.000507	20.840480
1828.509429	-3.011500	3.305100	-9.952500	26.605731	0.000508	20.815701
1829.508748	-3.017000	3.304400	-9.968400	26.572587	0.000507	20.820316
1830.505959	-2.980500	3.305300	-9.850400	26.553621	0.000509	20.786552
1831.510534	-3.007900	3.305200	-9.940800	26.535321	0.000506	20.808934
1832.503908	-3.000400	3.302700	-9.908200	26.585323	0.000506	20.823635
1833.505994	-3.006400	3.304800	-9.933700	26.593191	0.000505	20.813052
1834.511148	-3.001100	3.303400	-9.913100	26.603517	0.000505	20.813475
1835.507762	-2.985600	3.302600	-9.859300	26.643707	0.000505	20.841074
1836.510521	-3.033800	3.301100	-10.014000	26.676498	0.000504	20.796753
1837.508643	-3.004400	3.303100	-9.922500	26.665253	0.000504	20.809156
1838.509149	-3.020500	3.299800	-9.966000	26.701693	0.000505	20.803590
1839.509844	-2.992100	3.300900	-9.876000	26.726912	0.000503	20.816142
1840.507416	-3.019100	3.300800	-9.964800	26.723759	0.000500	20.795902
1841.509228	-3.000300	3.300800	-9.902600	26.734011	0.000501	20.790088
1842.505535	-3.020500	3.300100	-9.967100	26.748779	0.000502	20.803040
1843.510286	-3.022400	3.298800	-9.968300	26.729988	0.000501	20.794579
1844.510831	-3.018700	3.298600	-9.956500	26.740088	0.000498	20.808527
1845.513049	-2.973400	3.299900	-9.810900	26.737110	0.000500	20.812171
1846.512727	-3.004900	3.298000	-9.907700	26.766721	0.000499	20.808276
1847.513177	-2.980000	3.298500	-9.828500	26.735323	0.000496	20.814641
1848.514652	-2.995800	3.297500	-9.877300	26.650824	0.000498	20.797021
1849.509342	-3.003100	3.298900	-9.905500	26.609194	0.000497	20.797371
1850.518113	-2.977600	3.298100	-9.819300	26.626371	0.000497	20.806578
1851.513498	-2.989000	3.297000	-9.853800	26.631210	0.000495	20.790579
1852.514229	-2.989000	3.296000	-9.850800	26.686492	0.000494	20.813438
1853.516253	-2.992800	3.297700	-9.867500	26.690092	0.000495	20.810893
1854.514665	-2.995500	3.296000	-9.870200	26.703646	0.000494	20.811243
1855.514691	-2.981400	3.295400	-9.823000	26.745173	0.000494	20.793250
1856.516737	-3.007300	3.295900	-9.910600	26.770714	0.000494	20.807075
1857.518356	-2.992000	3.295500	-9.859100	26.703322	0.000492	20.804754
1858.510650	-2.980200	3.294800	-9.818200	26.707888	0.000492	20.774257
1859.510349	-3.012000	3.293100	-9.917800	26.697687	0.000491	20.786287
1860.514563	-3.010000	3.293400	-9.912100	26.714765	0.000491	20.781645
1861.510988	-2.991800	3.293700	-9.853200	26.737428	0.000490	20.797791
1862.514668	-3.023500	3.291800	-9.951500	26.781808	0.000490	20.778400
1863.515828	-3.005100	3.294100	-9.897900	26.789378	0.000489	20.781744
1864.516383	-2.986300	3.293200	-9.833300	26.804195	0.000491	20.801384
1865.513669	-3.003400	3.292600	-9.888300	26.803400	0.000490	20.793472
1866.517433	-2.994000	3.292200	-9.856300	26.801440	0.000486	20.786759
1867.513207	-2.992400	3.291500	-9.848600	26.789749	0.000489	20.797290
1868.516569	-3.004900	3.291500	-9.888000	26.778258	0.000489	20.804703
1869.513433	-3.007100	3.290900	-9.895300	26.824274	0.000486	20.798812
1870.516496	-3.008500	3.291500	-9.901300	26.858326	0.000486	20.795118
1871.518198	-2.999800	3.289900	-9.867200	26.870613	0.000482	20.786136
1872.515172	-2.986400	3.288700	-9.819600	26.896248	0.000482	20.791998
1873.518025	-2.985600	3.289800	-9.821500	26.894732	0.000484	20.796638
1874.519866	-2.990600	3.290100	-9.838800	26.880215	0.000483	20.802429
1875.518157	-3.002700	3.287400	-9.870300	26.850828	0.000482	20.775725
1876.517459	-3.008200	3.287400	-9.888200	26.827126	0.000484	20.793145
1877.515146	-2.998700	3.289000	-9.861900	26.839756	0.000482	20.802525
1878.516762	-2.980500	3.287800	-9.798000	26.838814	0.000479	20.797311
1879.520601	-2.989800	3.286800	-9.826300	26.825163	0.000481	20.785482
1880.518724	-2.987100	3.287800	-9.820300	26.833279	0.000481	20.777521
1881.519146	-2.991000	3.285200	-9.824800	26.823524	0.000478	20.804222
1882.518338	-3.005700	3.286700	-9.877400	26.813942	0.000477	20.783209
1883.518661	-2.990900	3.284700	-9.822100	26.783909	0.000478	20.778616
1884.518787	-3.022600	3.283700	-9.924200	26.746578	0.000476	20.783283
1885.515522	-3.007900	3.284400	-9.877300	26.750922	0.000478	20.792392
1886.523350	-3.003800	3.285600	-9.868800	26.743845	0.000476	20.769630
1887.520892	-3.009400	3.283100	-9.879200	26.790485	0.000474	20.772425
1888.519439	-2.994900	3.283700	-9.832200	26.788423	0.000473	20.774146
1889.517259	-3.000200	3.283200	-9.849500	26.841115	0.000474	20.778287
1890.521003	-2.979200	3.283900	-9.782600	26.879534	0.000473	20.789891
1891.522707	-3.012400	3.281900	-9.885700	26.898099	0.000474	20.775842
1892.520320	-3.011900	3.282400	-9.885700	26.921131	0.000472	20.783828
1893.517197	-3.007500	3.281500	-9.866600	26.873775	0.000471	20.793108
1894.530189	-2.990600	3.281600	-9.812200	26.881196	0.000472	20.789665
1895.522212	-2.996000	3.281800	-9.830600	26.895044	0.000470	20.795529
1896.523368	-2.965100	3.282100	-9.730700	26.863670	0.000469	20.798121
1897.523173	-2.986000	3.280100	-9.793300	26.846593	0.000470	20.801813
1898.520962	-3.004500	3.278900	-9.850400	26.898938	0.000470	20.778582
1899.523190	-2.995000	3.280400	-9.823600	26.903651	0.000466	20.789011
1900.528851	-2.977200	3.280600	-9.766100	26.938098	0.000467	20.789036
1901.522918	-2.989800	3.279000	-9.802800	26.947726	0.000466	20.798244
1902.525641	-3.010700	3.278300	-9.868700	26.942142	0.000466	20.788835
1903.520656	-2.965900	3.279000	-9.724700	26.910920	0.000464	20.792053
1904.524658	-3.022100	3.275300	-9.895400	26.920079	0.000466	20.771391
1905.521466	-2.992700	3.277900	-9.807600	26.930774	0.000464	20.796370
1906.523300	-2.986300	3.278200	-9.788600	26.953729	0.000464	20.795745
1907.527297	-2.998500	3.276500	-9.823700	26.970133	0.000462	20.796594
1908.524339	-2.988300	3.276200	-9.789400	27.006787	0.000462	20.801685
1909.522916	-3.018500	3.277000	-9.890800	27.002716	0.000461	20.801385
1910.524805	-3.027800	3.275600	-9.916500	27.014901	0.000461	20.803681
1911.526975	-3.023900	3.275000	-9.901500	27.042890	0.000460	20.801482
1912.523755	-3.015900	3.274500	-9.874500	27.063215	0.000458	20.786835
1913.526938	-3.021100	3.274900	-9.892500	27.096440	0.000462	20.781843
1914.524522	-3.013400	3.273700	-9.864400	27.104901	0.000458	20.807897
1915.527922	-3.019100	3.273000	-9.879400	27.113338	0.000457	20.802631
1916.528406	-3.006800	3.272300	-9.838200	27.096141	0.000457	20.792923
1917.524672	-3.014200	3.273400	-9.865500	27.058723	0.000458	20.806973
1918.532966	-3.017700	3.271800	-9.872500	26.981744	0.000457	20.808744
1919.527145	-3.026200	3.271700	-9.898700	26.985638	0.000456	20.812185
1920.526162	-2.985500	3.272500	-9.769200	27.000652	0.000456	20.818275
1921.527826	-2.993400	3.273000	-9.796200	26.989659	0.000455	20.802004
1922.528114	-2.989400	3.271600	-9.779300	26.972806	0.000454	20.817299
1923.524966	-2.998100	3.270800	-9.805100	26.956081	0.000453	20.805222
1924.537991	-3.024300	3.270300	-9.888800	26.973179	0.000452	20.816252
1925.535943	-3.039700	3.268900	-9.934700	26.961193	0.000451	20.801828
1926.527388	-3.002200	3.271600	-9.821000	26.966800	0.000450	20.814579
1927.528583	-3.016800	3.268900	-9.860700	26.943869	0.000452	20.816175
1928.532263	-3.002500	3.269500	-9.814800	26.956573	0.000452	20.796708
1929.532919	-3.033500	3.266500	-9.907400	26.942302	0.000453	20.802746
1930.533346	-2.990300	3.268800	-9.774200	26.939153	0.000450	20.816175
1931.528191	-2.989000	3.268100	-9.767400	26.942699	0.000451	20.796033
1932.531151	-3.006200	3.266400	-9.818500	26.928181	0.000449	20.823634
1933.536191	-3.004100	3.265200	-9.807700	26.962079	0.000447	20.800349
1934.532872	-3.008800	3.266800	-9.827500	26.912544	0.000447	20.810281
1935.532204	-3.014100	3.264400	-9.838800	26.897008	0.000446	20.799875
1936.534432	-2.981000	3.265400	-9.734000	26.857150	0.000448	20.822859
1937.534918	-2.995800	3.266000	-9.783500	26.853822	0.000446	20.810031
1938.531830	-3.016200	3.265400	-9.847900	26.879684	0.000445	20.781033
1939.535755	-3.004000	3.265700	-9.809300	26.892192	0.000445	20.792661
1940.531799	-3.031100	3.263500	-9.891200	26.902887	0.000444	20.798674
1941.534293	-3.016300	3.263000	-9.840900	26.940857	0.000443	20.790388
1942.534087	-2.993200	3.265100	-9.772200	26.903855	0.000443	20.817665
1943.533316	-3.021900	3.263100	-9.859300	26.894869	0.000441	20.840871
1944.531549	-2.990200	3.262800	-9.755600	26.879977	0.000440	20.831113
1945.534389	-3.018800	3.262600	-9.847100	26.865979	0.000441	20.806132
1946.534479	-2.990100	3.261900	-9.752900	26.837361	0.000438	20.810549
1947.535434	-3.014200	3.261800	-9.830700	26.794546	0.000439	20.813967
1948.534257	-2.995400	3.262000	-9.769300	26.782061	0.000439	20.808526
1949.533325	-2.992800	3.261800	-9.760800	26.810206	0.000438	20.825918
1950.537024	-2.994700	3.260900	-9.763900	26.835224	0.000438	20.822624
1951.533845	-3.004600	3.259900	-9.792600	26.831427	0.000435	20.821177
1952.533125	-2.972700	3.260500	-9.691400	26.858825	0.000434	20.824070
1953.536056	-3.011000	3.258600	-9.809500	26.910521	0.000434	20.808247
1954.539751	-3.030400	3.257100	-9.870000	26.963581	0.000432	20.829360
1955.537231	-3.020700	3.259200	-9.843500	27.010160	0.000432	20.816457
1956.538403	-2.975500	3.258000	-9.692400	27.024305	0.000430	20.813138
1957.537936	-2.997600	3.257400	-9.763400	27.037282	0.000432	20.825240
1958.542498	-3.002000	3.257000	-9.776600	27.012666	0.000432	20.840787
1959.543591	-3.007000	3.256200	-9.790100	26.978889	0.000430	20.824838
1960.536389	-3.008400	3.256100	-9.794200	26.939827	0.000430	20.834870
1961.537570	-2.972900	3.258100	-9.685600	26.895107	0.000428	20.808868
1962.538666	-3.008600	3.254900	-9.791800	26.871305	0.000428	20.837566
1963.542642	-3.012000	3.255900	-9.805100	26.907241	0.000428	20.831975
1964.539044	-3.013400	3.255000	-9.807500	26.938534	0.000426	20.816501
1965.540665	-3.003900	3.254900	-9.776500	26.932206	0.000424	20.838587
1966.540563	-3.012600	3.255300	-9.805300	26.953573	0.000424	20.847270
1967.543378	-2.990200	3.255200	-9.732800	26.980995	0.000424	20.817474
1968.543344	-3.008600	3.252700	-9.784600	26.991467	0.000423	20.844125
1969.541044	-3.007000	3.253400	-9.780800	27.005784	0.000425	20.831022
1970.541293	-3.021100	3.251900	-9.823300	27.002434	0.000421	20.835239
1971.541979	-3.008500	3.251100	-9.780200	27.025288	0.000421	20.828351
1972.544316	-2.987200	3.252100	-9.714000	27.050672	0.000421	20.836809
1973.546988	-2.987000	3.251600	-9.712300	27.058763	0.000421	20.851583
1974.549064	-3.008400	3.252900	-9.784900	27.076156	0.000417	20.838256
1975.545365	-2.976700	3.251300	-9.677000	27.100572	0.000417	20.833888
1976.545125	-2.997900	3.250300	-9.743400	27.102260	0.000418	20.830370
1977.546026	-2.965200	3.251700	-9.640900	27.129703	0.000418	20.841374
1978.550522	-2.984800	3.250600	-9.701200	27.085038	0.000419	20.831542
1979.546371	-2.998700	3.249000	-9.742200	27.107244	0.000416	20.830641
1980.551670	-3.019700	3.248500	-9.808500	27.097642	0.000418	20.843743
1981.547079	-2.987800	3.248700	-9.704700	27.095458	0.000416	20.839650
1982.546534	-3.002300	3.248000	-9.749000	27.104092	0.000413	20.840747
1983.549847	-2.994400	3.247600	-9.723300	27.100518	0.000414	20.852800
1984.551487	-2.997900	3.248700	-9.737500	27.038754	0.000413	20.852324
1985.548450	-3.002800	3.247500	-9.751200	27.075653	0.000413	20.860982
1986.554657	-2.994700	3.247700	-9.724800	27.099325	0.000412	20.832160
1987.551738	-3.011400	3.247200	-9.777500	27.130216	0.000411	20.843313
1988.547764	-2.951800	3.248300	-9.586600	27.176588	0.000411	20.851546
1989.550838	-3.006100	3.244700	-9.753000	27.195395	0.000409	20.836324
1990.551279	-3.018700	3.244600	-9.792600	27.223529	0.000408	20.859405
1991.549881	-3.016800	3.244200	-9.785700	27.239802	0.000408	20.870557
1992.554977	-3.016200	3.243500	-9.782400	27.284335	0.000407	20.862721
1993.558242	-3.015100	3.243200	-9.777600	27.287908	0.000405	20.837867
1994.557721	-3.008700	3.242900	-9.756500	27.307381	0.000405	20.829480
1995.556186	-3.005200	3.242100	-9.741700	27.293289	0.000405	20.847547
1996.557922	-2.989600	3.243300	-9.695100	27.315392	0.000404	20.868357
1997.553793	-2.966400	3.244000	-9.621100	27.323480	0.000405	20.866535
1998.556579	-2.971100	3.243800	-9.636700	27.360095	0.000404	20.849315
1999.553654	-2.996200	3.241300	-9.710900	27.414619	0.000402	20.852483
2000.550692	-3.006900	3.240500	-9.743200	27.345481	0.000401	20.855477
2001.556832	-2.983900	3.242300	-9.673600	27.319259	0.000402	20.857548
2002.554547	-2.997100	3.240200	-9.710200	27.299163	0.000400	20.849187
2003.556387	-3.015100	3.239700	-9.767600	27.337018	0.000401	20.856921
2004.558314	-2.981800	3.242500	-9.667700	27.323647	0.000400	20.849161
2005.556080	-3.005700	3.239300	-9.735700	27.306579	0.000399	20.849536
2006.557842	-3.020500	3.238300	-9.779700	27.337191	0.000396	20.863733
2007.555686	-3.012100	3.238000	-9.752300	27.379686	0.000397	20.858118
2008.553002	-2.992300	3.237600	-9.687200	27.369439	0.000396	20.871990
2009.556112	-3.028800	3.235700	-9.798900	27.424658	0.000396	20.870642
2010.556914	-3.005600	3.236600	-9.726800	27.413719	0.000395	20.865802
2011.553170	-2.997800	3.236900	-9.701700	27.432645	0.000394	20.854023
2012.558835	-3.002200	3.235100	-9.711300	27.452984	0.000393	20.879224
2013.557289	-3.004600	3.235400	-9.719600	27.453381	0.000393	20.879624
2014.558720	-3.011200	3.233400	-9.735900	27.449265	0.000392	20.864104
2015.556619	-3.011000	3.233100	-9.733800	27.436935	0.000391	20.880148
2016.561008	-3.028000	3.235200	-9.795500	27.431277	0.000391	20.861181
2017.559404	-3.006400	3.234800	-9.723600	27.408061	0.000389	20.843042
2018.566347	-2.997800	3.233300	-9.691400	27.373552	0.000391	20.856688
2019.557358	-3.002200	3.233200	-9.705800	27.354476	0.000388	20.872585
2020.561197	-2.993000	3.233500	-9.676600	27.286600	0.000386	20.864525
2021.562767	-3.018600	3.232400	-9.756300	27.214403	0.000386	20.866347
2022.558669	-3.009100	3.231700	-9.723700	27.183762	0.000387	20.869666
2023.560007	-3.007700	3.232500	-9.721100	27.166119	0.000385	20.876103
2024.556804	-2.996200	3.232200	-9.683300	27.153959	0.000383	20.875252
2025.559842	-2.992800	3.231200	-9.668700	27.176464	0.000383	20.877973
2026.557424	-3.005700	3.229600	-9.705700	27.235217	0.000383	20.879695
2027.559842	-3.006500	3.229100	-9.706400	27.230353	0.000382	20.874803
2028.560937	-2.996700	3.228300	-9.673300	27.225938	0.000382	20.869414
2029.561403	-3.002700	3.228500	-9.693600	27.195443	0.000382	20.887103
2030.562735	-3.014300	3.228500	-9.729500	27.197279	0.000380	20.890373
2031.560187	-2.997800	3.227400	-9.673500	27.193681	0.000380	20.897658
2032.562627	-3.007600	3.227500	-9.705900	27.224670	0.000377	20.884259
2033.560223	-3.003100	3.227100	-9.689200	27.213876	0.000376	20.891893
2034.565951	-2.993400	3.227100	-9.659300	27.231169	0.000377	20.877520
2035.562894	-2.985500	3.228500	-9.636500	27.247544	0.000376	20.893516
2036.563970	-3.003000	3.225200	-9.684100	27.231291	0.000374	20.881910
2037.561671	-3.002600	3.225700	-9.684700	27.235262	0.000373	20.884007
2038.563885	-2.994800	3.226800	-9.663100	27.260171	0.000371	20.878243
2039.564549	-3.001400	3.223900	-9.675200	27.281980	0.000372	20.870783
2040.568129	-3.003900	3.223700	-9.682400	27.345787	0.000370	20.863845
2041.566853	-2.979200	3.224900	-9.605500	27.319096	0.000368	20.886780
2042.562618	-2.993800	3.224700	-9.653900	27.361119	0.000368	20.877371
2043.563241	-3.004800	3.222700	-9.683400	27.384935	0.000365	20.903223
2044.565157	-2.960300	3.224000	-9.541800	27.389823	0.000367	20.898184
2045.561158	-2.985100	3.224200	-9.624300	27.390915	0.000365	20.882215
2046.570162	-3.011600	3.222800	-9.705300	27.427976	0.000366	20.882515
2047.562158	-2.977800	3.221700	-9.591700	27.464763	0.000361	20.907194
2048.563632	-2.998700	3.220900	-9.656500	27.446509	0.000363	20.897365
2049.563962	-3.009300	3.219300	-9.686100	27.476796	0.000362	20.896541
2050.573215	-2.995400	3.220100	-9.644800	27.495153	0.000362	20.889881
2051.563833	-3.012800	3.220500	-9.702100	27.499295	0.000358	20.901634
2052.570242	-3.005400	3.218000	-9.670800	27.505274	0.000359	20.910493
2053.564775	-2.991900	3.218800	-9.628900	27.532486	0.000358	20.902785
2054.569546	-3.009400	3.219600	-9.688200	27.567482	0.000359	20.881100
2055.569718	-2.997200	3.219600	-9.649000	27.593378	0.000358	20.875387
2056.567570	-3.007000	3.217400	-9.673500	27.639784	0.000358	20.875614
2057.579781	-2.994700	3.217200	-9.633500	27.660196	0.000357	20.898049
2058.572114	-3.008800	3.217600	-9.679800	27.658784	0.000356	20.898525
2059.567544	-3.014800	3.216000	-9.695300	27.654617	0.000355	20.899547
2060.572146	-3.002200	3.216200	-9.654500	27.666251	0.000355	20.896081
2061.572031	-2.968000	3.217100	-9.547300	27.631480	0.000354	20.908508
2062.573301	-2.978600	3.216400	-9.578800	27.568956	0.000354	20.896806
2063.572359	-2.985900	3.214100	-9.595700	27.556755	0.000354	20.896857
2064.570307	-3.005800	3.214400	-9.661200	27.572011	0.000352	20.889449
2065.571396	-2.992400	3.213600	-9.614500	27.589820	0.000350	20.894565
2066.576159	-2.993300	3.213400	-9.617100	27.557281	0.000350	20.907817
2067.573895	-3.004100	3.213500	-9.653100	27.561301	0.000350	20.906173
2068.570774	-3.034600	3.211200	-9.743500	27.526479	0.000347	20.897690
2069.582609	-3.046600	3.210600	-9.778800	27.534318	0.000346	20.928333
2070.573439	-2.987100	3.211600	-9.592100	27.519389	0.000348	20.910944
2071.576910	-2.992100	3.211200	-9.607400	27.470971	0.000346	20.897319
2072.587533	-2.980500	3.212700	-9.574300	27.455272	0.000347	20.910447
2073.573655	-2.984900	3.210900	-9.583600	27.448402	0.000345	20.910648
2074.578685	-3.013300	3.209000	-9.668800	27.441112	0.000345	20.906159
2075.577929	-3.010700	3.209800	-9.662600	27.454038	0.000345	20.903991
2076.576435	-2.999200	3.208800	-9.622700	27.463291	0.000343	20.918040
2077.576733	-2.995200	3.209300	-9.610700	27.480434	0.000342	20.893090
2078.584650	-3.021700	3.207600	-9.691600	27.508565	0.000340	20.911907
2079.579504	-2.986100	3.209300	-9.581500	27.495222	0.000338	20.909863
2080.583458	-3.005600	3.207100	-9.638300	27.515615	0.000340	20.903354
2081.585429	-2.949900	3.207800	-9.459900	27.536252	0.000336	20.913211
2082.576502	-2.966400	3.207600	-9.514000	27.558604	0.000338	20.905355
2083.578273	-2.983200	3.206400	-9.564000	27.590747	0.000336	20.910670
2084.581709	-2.972600	3.207200	-9.532100	27.619622	0.000337	20.904162
2085.578567	-3.009000	3.206300	-9.647400	27.646631	0.000336	20.900995
2086.586153	-2.986300	3.204600	-9.568200	27.654967	0.000335	20.901796
2087.583468	-2.959900	3.203400	-9.480900	27.663152	0.000337	20.915721
2088.575871	-2.979600	3.204000	-9.544800	27.666529	0.000333	20.921014
2089.578168	-2.989200	3.203400	-9.573700	27.668119	0.000333	20.911236
2090.585472	-2.991100	3.203600	-9.580800	27.641560	0.000334	20.894470
2091.581809	-2.989400	3.203200	-9.574600	27.650143	0.000332	20.920647
2092.581481	-2.994400	3.202000	-9.586800	27.646178	0.000330	20.907175
2093.584240	-3.012500	3.200500	-9.640700	27.671005	0.000332	20.915562
2094.588285	-3.000900	3.201800	-9.607600	27.699156	0.000331	20.892683
2095.587409	-3.014200	3.199600	-9.643300	27.703573	0.000332	20.922255
2096.591556	-3.000100	3.200800	-9.602100	27.714462	0.000331	20.911876
2097.582179	-2.961500	3.200200	-9.475100	27.691102	0.000330	20.895483
2098.582750	-3.010900	3.197800	-9.627100	27.698421	0.000328	20.905218
2099.585603	-2.989000	3.199500	-9.562400	27.708441	0.000329	20.934265
2100.585849	-3.017200	3.197500	-9.646300	27.732500	0.000329	20.909166
2101.597254	-3.002800	3.199000	-9.605600	27.736195	0.000326	20.905299
2102.590556	-2.989500	3.199100	-9.562600	27.756581	0.000327	20.927708
2103.581512	-2.999300	3.196400	-9.585900	27.776497	0.000326	20.920250
2104.583760	-3.018200	3.196100	-9.644200	27.747139	0.000326	20.919155
2105.583681	-3.011200	3.197300	-9.625800	27.758447	0.000324	20.913466
2106.585365	-2.989200	3.197300	-9.556200	27.693278	0.000322	20.917112
2107.584475	-3.029900	3.194200	-9.677200	27.659948	0.000323	20.911549
2108.588370	-2.986400	3.195800	-9.541800	27.640579	0.000324	20.916240
2109.587590	-3.011800	3.194200	-9.619000	27.615681	0.000323	20.917265
2110.585833	-2.992500	3.194400	-9.558400	27.689912	0.000322	20.922258
2111.586091	-2.996600	3.193400	-9.568100	27.699212	0.000322	20.924979
2112.581076	-2.981200	3.193100	-9.517000	27.724012	0.000321	20.937131
2113.588465	-3.010800	3.191700	-9.608200	27.745168	0.000320	20.910060
2114.587794	-2.999900	3.191200	-9.572600	27.768428	0.000320	20.924457
2115.582284	-2.992200	3.191900	-9.548800	27.794392	0.000320	20.928301
2116.599821	-2.983500	3.191100	-9.519900	27.814353	0.000318	20.941276
2117.587357	-2.994800	3.191200	-9.556200	27.858319	0.000317	20.927204
2118.584284	-3.007600	3.189600	-9.591600	27.885693	0.000316	20.941003
2119.588200	-2.981700	3.189200	-9.508200	27.891895	0.000314	20.910739
2120.593105	-3.009300	3.188400	-9.593400	27.931963	0.000312	20.928306
2121.587222	-2.987600	3.187800	-9.522900	27.934740	0.000312	20.934419
2122.588611	-3.005600	3.187200	-9.578100	27.889365	0.000313	20.930001
2123.595214	-2.961400	3.188500	-9.441200	27.880687	0.000313	20.925061
2124.595662	-2.985400	3.187500	-9.514400	27.846100	0.000311	20.922494
2125.589714	-2.994900	3.186600	-9.541800	27.832141	0.000311	20.928359
2126.588575	-3.002100	3.185300	-9.561200	27.848729	0.000310	20.923244
2127.587773	-3.018300	3.184100	-9.609600	27.819075	0.000307	20.926589
2128.589838	-3.012400	3.184900	-9.593300	27.823439	0.000308	20.920550
2129.591766	-3.007300	3.184800	-9.576300	27.834526	0.000310	20.898994
2130.595354	-2.990000	3.185600	-9.523800	27.799141	0.000307	20.928813
2131.593526	-2.965500	3.184800	-9.443800	27.788058	0.000308	20.907704
2132.596397	-3.015800	3.183000	-9.597500	27.786298	0.000305	20.904511
2133.588845	-2.976700	3.184000	-9.476700	27.814222	0.000306	20.908430
2134.594465	-2.975800	3.182200	-9.468600	27.822305	0.000304	20.930788
2135.591431	-2.997700	3.180600	-9.533000	27.855708	0.000305	20.898501
2136.589936	-2.988000	3.180300	-9.501700	27.866568	0.000305	20.928869
2137.593647	-2.991500	3.181400	-9.517000	27.843882	0.000303	20.893712
2138.591411	-2.972300	3.180700	-9.452200	27.869049	0.000302	20.901497
2139.590416	-2.992900	3.180400	-9.517900	27.892955	0.000302	20.919391
2140.591775	-2.991200	3.179700	-9.510100	27.927762	0.000301	20.907010
2141.591229	-2.990700	3.178400	-9.504100	27.952732	0.000302	20.904642
2142.588367	-3.006500	3.178900	-9.556900	27.928161	0.000301	20.898878
2143.589560	-2.994200	3.178400	-9.515900	27.912368	0.000302	20.890570
2144.589087	-2.997600	3.178200	-9.526400	27.929922	0.000300	20.921985
2145.589823	-2.990800	3.176700	-9.498800	27.927542	0.000298	20.936183
2146.588116	-2.972700	3.177200	-9.443300	27.949484	0.000298	20.901847
2147.590003	-2.999400	3.176200	-9.525700	27.934633	0.000297	20.897331
2148.590856	-2.994600	3.175900	-9.509600	27.886480	0.000297	20.889170
2149.591762	-2.993300	3.174900	-9.501900	27.844923	0.000296	20.901872
2150.591994	-3.003500	3.173700	-9.531600	27.785834	0.000295	20.886975
2151.593487	-3.008900	3.174600	-9.551100	27.791833	0.000295	20.909606
2152.594901	-3.003900	3.172600	-9.529000	27.760216	0.000294	20.894385
2153.593237	-3.008500	3.173000	-9.545100	27.737872	0.000294	20.902718
2154.592614	-3.005100	3.171700	-9.530300	27.726761	0.000294	20.900547
2155.592725	-2.998500	3.172600	-9.510600	27.730977	0.000291	20.896729
2156.594205	-2.978600	3.172400	-9.447900	27.725347	0.000293	20.892013
2157.592841	-2.987400	3.170800	-9.471900	27.716197	0.000291	20.910304
2158.594591	-3.008000	3.170800	-9.536700	27.729462	0.000292	20.880982
2159.593453	-3.003800	3.169400	-9.519800	27.776256	0.000291	20.898673
2160.594731	-2.997900	3.169700	-9.500300	27.801351	0.000289	20.881729
2161.597639	-3.009500	3.169200	-9.535000	27.839982	0.000287	20.885994
2162.592471	-2.998300	3.168300	-9.498500	27.829195	0.000289	20.887466
2163.593118	-3.004500	3.167700	-9.516200	27.826121	0.000286	20.900967
2164.594088	-3.001800	3.165300	-9.501100	27.806803	0.000287	20.881052
2165.598731	-3.015500	3.164900	-9.542700	27.755348	0.000286	20.910348
2166.601910	-3.003400	3.165600	-9.507300	27.767695	0.000284	20.893851
2167.597276	-3.022200	3.164200	-9.562100	27.782202	0.000284	20.903234
2168.599828	-3.020100	3.163200	-9.551600	27.810991	0.000284	20.897594
2169.594659	-3.004100	3.164800	-9.506300	27.815602	0.000283	20.885640
2170.596170	-2.950100	3.164500	-9.334400	27.822967	0.000281	20.886888
2171.597830	-2.977800	3.164800	-9.421400	27.805858	0.000284	20.870145
2172.594186	-3.004600	3.163000	-9.502600	27.851334	0.000282	20.896470
2173.593711	-2.986200	3.162200	-9.441500	27.876106	0.000281	20.882048
2174.597614	-2.998600	3.160900	-9.477200	27.890636	0.000281	20.872491
2175.595727	-3.006600	3.160100	-9.500400	27.906950	0.000278	20.864255
2176.594966	-2.994700	3.160500	-9.462700	27.893710	0.000278	20.888859
2177.598028	-2.981900	3.160900	-9.424600	27.903802	0.000277	20.888586
2178.595489	-3.007900	3.160300	-9.503800	27.886445	0.000278	20.873963
2179.594231	-3.001300	3.158600	-9.479200	27.904917	0.000277	20.873588
2180.599800	-3.028300	3.158400	-9.562300	27.878611	0.000278	20.875561
2181.595036	-3.000100	3.156400	-9.468000	27.881214	0.000275	20.867276
2182.595470	-2.994100	3.156500	-9.449300	27.897604	0.000274	20.877607
2183.600331	-3.036200	3.153300	-9.572300	27.902265	0.000275	20.877557
2184.598705	-3.008300	3.154800	-9.488700	27.936978	0.000276	20.873141
2185.597686	-3.022500	3.154600	-9.534000	27.960828	0.000273	20.899990
2186.601454	-2.986600	3.154200	-9.419000	27.970373	0.000272	20.878305
2187.600118	-2.994500	3.154400	-9.444800	27.943820	0.000270	20.879553
2188.599296	-2.984800	3.154600	-9.415000	27.958897	0.000271	20.895675
2189.601370	-3.020300	3.152400	-9.519300	27.970077	0.000270	20.867576
2190.601873	-2.994900	3.153400	-9.443400	27.948605	0.000270	20.885317
2191.597898	-2.983700	3.151100	-9.399800	27.962540	0.000268	20.865679
2192.601402	-2.992600	3.150900	-9.428200	27.924656	0.000266	20.871644
2193.599730	-3.012800	3.150500	-9.491300	27.915580	0.000266	20.875785
2194.602183	-3.002400	3.150500	-9.458100	27.854807	0.000266	20.882897
2195.603115	-2.997500	3.148900	-9.436400	27.870775	0.000266	20.864356
2196.601722	-2.952400	3.149700	-9.298000	27.876429	0.000265	20.865304
2197.600540	-3.013700	3.147600	-9.483800	27.880568	0.000265	20.863307
2198.602329	-3.017900	3.147700	-9.498500	27.913049	0.000265	20.862808
2199.602989	-2.974300	3.146400	-9.357300	27.939210	0.000265	20.866853
2200.601548	-2.972200	3.146700	-9.351200	27.965268	0.000265	20.875536
2201.602928	-2.980900	3.147600	-9.380600	27.948731	0.000263	20.857470
2202.601514	-2.974800	3.146200	-9.357100	27.896810	0.000265	20.862110
2203.601427	-2.989200	3.145400	-9.401400	27.872485	0.000264	20.865128
2204.603433	-2.981700	3.144900	-9.376900	27.891181	0.000263	20.875410
2205.604274	-2.987300	3.144500	-9.391800	27.931274	0.000259	20.853176
2206.603086	-3.003900	3.142500	-9.438900	27.950341	0.000259	20.875211
2207.600750	-3.001700	3.141600	-9.429500	27.974465	0.000259	20.863458
2208.603218	-2.992100	3.140000	-9.394500	27.966950	0.000258	20.869644
2209.603932	-3.016000	3.139800	-9.468400	27.944020	0.000258	20.837556
2210.603328	-3.018800	3.138700	-9.474400	27.950166	0.000255	20.855596
2211.611792	-2.998100	3.139500	-9.411600	27.967820	0.000256	20.855822
2212.602673	-3.008200	3.138200	-9.439900	27.958127	0.000258	20.854600
2213.604943	-2.999900	3.136400	-9.407900	27.937423	0.000255	20.882122
2214.604176	-3.011700	3.135800	-9.443300	27.889247	0.000256	20.858292
2215.604821	-3.009700	3.135500	-9.435900	27.869138	0.000252	20.866975
2216.603696	-2.988100	3.135300	-9.367200	27.836754	0.000253	20.865203
2217.602878	-3.000300	3.135500	-9.405800	27.851780	0.000253	20.848085
2218.601100	-2.988800	3.133900	-9.365500	27.900031	0.000253	20.874360
2219.602595	-2.992300	3.134400	-9.378200	27.912080	0.000252	20.834807
2220.602401	-2.999700	3.133300	-9.397400	27.879850	0.000253	20.848360
2221.602465	-2.997200	3.131900	-9.386100	27.830775	0.000250	20.865350
2222.602114	-3.016900	3.130600	-9.443300	27.775602	0.000251	20.845387
2223.608271	-2.995100	3.132100	-9.380400	27.743810	0.000249	20.854644
2224.604609	-3.013000	3.129700	-9.428800	27.708819	0.000250	20.854520
2225.607257	-2.993200	3.128800	-9.363900	27.739618	0.000249	20.857538
2226.606566	-3.012100	3.127600	-9.419700	27.729028	0.000248	20.860157
2227.605112	-3.010200	3.128600	-9.416500	27.759580	0.000248	20.874781
2228.607602	-2.989900	3.127500	-9.349300	27.827601	0.000249	20.832285
2229.608388	-2.998000	3.127500	-9.375400	27.850435	0.000248	20.856213
2230.605438	-3.022400	3.124400	-9.441800	27.878033	0.000245	20.848903
2231.607968	-2.994100	3.126800	-9.361700	27.885867	0.000244	20.842563
2232.606748	-3.034400	3.124100	-9.477900	27.929282	0.000245	20.843111
2233.606391	-3.005800	3.124100	-9.389000	27.947332	0.000244	20.862700
2234.605360	-3.007800	3.124300	-9.395900	27.989309	0.000244	20.860381
2235.605958	-3.017100	3.122700	-9.420800	28.005619	0.000242	20.854039
2236.603754	-3.033800	3.121600	-9.468100	28.006859	0.000244	20.856710
2237.605688	-2.996000	3.121400	-9.350200	28.046748	0.000245	20.857981
2238.605990	-3.003000	3.120900	-9.371600	28.121070	0.000245	20.848874
2239.611441	-2.995300	3.122000	-9.349700	28.152205	0.000243	20.843234
2240.607436	-2.989500	3.120300	-9.326400	28.159392	0.000243	20.843830
2241.607214	-2.999400	3.118000	-9.351600	28.146726	0.000242	20.832502
2242.605403	-2.995800	3.117900	-9.339500	28.112047	0.000241	20.834575
2243.606221	-2.993800	3.117600	-9.332800	28.058324	0.000241	20.842608
2244.607410	-3.004700	3.118500	-9.368800	27.976608	0.000240	20.853288
2245.608494	-2.991800	3.116600	-9.322900	27.924938	0.000239	20.854385
2246.608548	-2.988900	3.117300	-9.316400	27.945293	0.000239	20.839786
2247.609698	-3.004900	3.114600	-9.358100	27.975292	0.000238	20.840584
2248.609671	-3.001400	3.112900	-9.342000	28.002021	0.000237	20.821022
2249.608155	-2.985300	3.115000	-9.297200	27.971772	0.000238	20.823291
2250.607287	-2.996100	3.112100	-9.323300	27.971351	0.000238	20.840410
2251.606500	-3.009300	3.112000	-9.363700	27.967306	0.000236	20.836813
2252.607639	-3.001100	3.109900	-9.330900	28.012430	0.000238	20.829602
2253.610107	-3.005400	3.109300	-9.343700	28.071752	0.000236	20.817719
2254.609865	-3.004900	3.108400	-9.339200	28.101527	0.000237	20.811657
2255.609881	-3.007600	3.108600	-9.348400	28.114912	0.000236	20.847890
2256.609354	-3.013500	3.108000	-9.364600	28.162979	0.000235	20.840803
2257.613394	-3.005200	3.105600	-9.331700	28.205239	0.000233	20.850158
2258.611901	-3.021800	3.105300	-9.381000	28.198125	0.000235	20.826875
2259.610133	-3.018400	3.105300	-9.372300	28.169642	0.000233	20.840874
2260.612585	-3.012200	3.104300	-9.349500	28.099637	0.000233	20.859065
2261.608593	-2.998500	3.102900	-9.303600	28.061208	0.000234	20.833658
2262.607901	-3.012900	3.102600	-9.345600	28.078089	0.000233	20.834530
2263.609499	-3.012400	3.102500	-9.343800	28.053672	0.000232	20.842667
2264.610944	-3.010900	3.100000	-9.333200	28.065049	0.000231	20.853644
2265.617647	-3.031300	3.099400	-9.394100	28.058750	0.000230	20.834503
2266.609373	-2.996300	3.099200	-9.285600	28.075804	0.000231	20.839816
2267.610195	-3.012500	3.098200	-9.332100	28.084184	0.000229	20.829286
2268.610611	-3.007400	3.098200	-9.316800	28.069903	0.000230	20.848100
2269.612879	-2.991700	3.096900	-9.263700	28.094098	0.000230	20.844955
2270.609418	-3.010900	3.094500	-9.315400	28.142363	0.000228	20.817204
2271.616481	-2.996000	3.094600	-9.270400	28.127661	0.000229	20.828008
2272.610948	-2.993200	3.095300	-9.263800	28.132519	0.000229	20.821994
2273.611107	-3.002900	3.094400	-9.291400	28.129422	0.000229	20.823617
2274.618553	-2.990100	3.092800	-9.246800	28.199275	0.000226	20.823766
2275.612261	-2.981700	3.092500	-9.219700	28.207356	0.000228	20.828108
2276.612167	-2.986700	3.091500	-9.232900	28.219648	0.000228	20.816776
2277.620250	-2.993500	3.091400	-9.253000	28.248847	0.000227	20.828630
2278.613649	-3.031600	3.088400	-9.360800	28.242053	0.000228	20.821315
2279.614729	-3.029200	3.087700	-9.352300	28.258264	0.000227	20.824360
2280.616163	-3.007500	3.087600	-9.284300	28.259973	0.000226	20.834141
2281.614834	-3.019100	3.087000	-9.318500	28.280919	0.000226	20.828677
2282.614631	-2.973900	3.086600	-9.178700	28.265030	0.000226	20.825957
2283.617608	-3.009400	3.084600	-9.282200	28.234145	0.000226	20.828526
2284.617875	-3.005500	3.083500	-9.266300	28.248422	0.000225	20.827253
2285.617785	-3.014400	3.084000	-9.294800	28.251297	0.000227	20.829199
2286.618097	-3.014100	3.082000	-9.288500	28.227772	0.000225	20.837282
2287.614385	-2.996200	3.081500	-9.231800	28.240911	0.000223	20.821588
2288.617501	-2.967100	3.082100	-9.143300	28.242548	0.000223	20.815176
2289.619796	-3.001400	3.080100	-9.242900	28.227525	0.000223	20.823284
2290.620025	-3.014800	3.078700	-9.279100	28.187146	0.000224	20.821037
2291.619062	-2.983200	3.079300	-9.185600	28.124926	0.000223	20.817195
2292.622287	-3.010000	3.076200	-9.259200	28.108860	0.000222	20.822833
2293.620410	-2.998500	3.076400	-9.223300	28.100905	0.000222	20.812453
2294.622882	-3.013700	3.075500	-9.267800	28.101820	0.000221	20.827599
2295.624619	-3.005500	3.074100	-9.238700	28.097110	0.000221	20.817642
2296.625350	-2.993000	3.075000	-9.202100	28.110991	0.000221	20.822607
2297.623694	-2.991000	3.073800	-9.193400	28.110370	0.000221	20.814395
2298.624157	-2.999100	3.072400	-9.212900	28.119469	0.000219	20.829245
2299.627808	-3.012300	3.069300	-9.244900	28.121376	0.000220	20.828320
2300.623477	-2.969900	3.070100	-9.115800	28.115601	0.000221	20.815868
2301.628334	-3.008500	3.069300	-9.233400	28.109155	0.000219	20.822655
2302.623287	-3.043600	3.066400	-9.331700	28.125936	0.000218	20.823427
2303.620658	-2.995600	3.067700	-9.188800	28.100825	0.000218	20.828019
2304.635356	-3.024800	3.065000	-9.269200	28.066959	0.000219	20.801515
2305.626928	-2.963000	3.064900	-9.079700	28.083173	0.000221	20.815466
2306.623597	-2.991500	3.064300	-9.166200	28.117012	0.000220	20.823452
2307.635616	-3.009500	3.063700	-9.219500	28.104122	0.000217	20.822804
2308.627021	-2.997800	3.062100	-9.179600	28.066364	0.000219	20.819408
2309.628871	-2.996900	3.060900	-9.171900	28.043282	0.000219	20.806130
2310.634004	-3.018200	3.058700	-9.230500	27.996995	0.000220	20.803635
2311.631649	-2.998000	3.057900	-9.167300	27.994665	0.000217	20.807453
2312.625054	-3.008000	3.058500	-9.198900	27.998135	0.000218	20.801463
2313.627831	-2.990200	3.056300	-9.137800	28.015017	0.000217	20.810870
2314.629782	-2.999900	3.055100	-9.164400	28.057810	0.000218	20.802737
2315.628376	-2.963500	3.055600	-9.054100	28.100918	0.000216	20.814837
2316.630343	-3.003300	3.052800	-9.166500	28.136169	0.000218	20.812866
2317.630979	-2.984700	3.054600	-9.116200	28.173328	0.000216	20.800488
2318.633576	-3.003100	3.051100	-9.161600	28.228478	0.000215	20.801010
2319.631582	-2.996900	3.050100	-9.139400	28.256760	0.000214	20.795819
2320.632073	-2.980100	3.051000	-9.090800	28.299738	0.000216	20.789305
2321.629014	-2.977400	3.049800	-9.079100	28.320533	0.000215	20.813562
2322.634007	-2.997300	3.048500	-9.135700	28.345045	0.000214	20.801733
2323.631094	-2.999200	3.046400	-9.135700	28.313817	0.000216	20.821498
2324.630147	-2.984900	3.045300	-9.088500	28.327792	0.000216	20.810914
2325.633630	-2.975400	3.043600	-9.055000	28.363482	0.000217	20.812711
2326.630778	-2.979700	3.044400	-9.070400	28.394783	0.000214	20.798710
2327.629770	-2.991300	3.041800	-9.097900	28.427719	0.000215	20.812910
2328.634933	-2.990700	3.041200	-9.093500	28.470641	0.000214	20.800656
2329.631204	-3.009100	3.038500	-9.141800	28.476837	0.000215	20.793145
2330.631916	-2.996100	3.038700	-9.102900	28.480626	0.000215	20.813556
2331.634310	-3.018000	3.037400	-9.166100	28.438249	0.000215	20.809763
2332.632890	-3.005300	3.036100	-9.123500	28.447642	0.000215	20.809264
2333.630196	-3.000700	3.034900	-9.105000	28.436489	0.000213	20.804671
2334.632838	-2.999200	3.034300	-9.099100	28.426426	0.000214	20.811608
2335.632118	-3.003000	3.033400	-9.108200	28.424890	0.000213	20.819070
2336.629508	-2.979100	3.031500	-9.029000	28.442535	0.000213	20.820242
2337.639642	-2.992800	3.030400	-9.067800	28.457057	0.000214	20.805943
2338.633503	-3.001100	3.028200	-9.087000	28.472223	0.000213	20.828327
2339.632535	-3.013200	3.028300	-9.123500	28.472024	0.000214	20.821014
2340.638108	-3.019000	3.025500	-9.132500	28.498218	0.000213	20.802823
2341.633050	-3.000900	3.024700	-9.077500	28.542178	0.000212	20.820540
2342.632898	-3.000400	3.024900	-9.075000	28.536627	0.000213	20.794561
2343.635703	-2.982000	3.022700	-9.013000	28.535362	0.000214	20.815573
2344.644359	-2.993000	3.021300	-9.041100	28.560239	0.000213	20.811229
2345.638514	-2.982800	3.021900	-9.013000	28.547108	0.000212	20.813652
2346.634558	-2.992100	3.020700	-9.037600	28.554390	0.000212	20.818141
2347.640130	-3.005900	3.018100	-9.071200	28.540142	0.000212	20.791938
2348.634865	-2.992300	3.016400	-9.024800	28.510999	0.000212	20.790089
2349.635906	-2.983400	3.016200	-8.996500	28.466368	0.000210	20.802991
2350.637618	-2.967600	3.015400	-8.947500	28.398687	0.000212	20.810227
2351.639044	-3.010900	3.013200	-9.071900	28.383468	0.000213	20.816240
2352.637798	-3.019900	3.012500	-9.096100	28.381091	0.000211	20.789191
2353.637753	-2.992300	3.012500	-9.013600	28.409044	0.000212	20.810700
2354.637474	-3.007300	3.009400	-9.048600	28.420370	0.000210	20.816889
2355.641380	-3.009700	3.009000	-9.055200	28.453776	0.000213	20.809277
2356.638210	-3.019000	3.006500	-9.075500	28.455833	0.000211	20.804236
2357.639048	-2.972900	3.007900	-8.941100	28.447010	0.000211	20.803412
2358.641076	-2.982900	3.006000	-8.965600	28.463340	0.000209	20.805157
2359.640089	-3.005600	3.004200	-9.027900	28.498628	0.000211	20.807029
2360.643368	-2.992400	3.002700	-8.983700	28.510350	0.000210	20.807928
2361.642964	-2.994400	3.001300	-8.985700	28.510323	0.000209	20.821177
2362.641143	-3.007300	3.000800	-9.024000	28.501305	0.000209	20.820156
2363.643204	-2.991300	2.999500	-8.970300	28.472111	0.000210	20.813516
2364.638833	-3.016000	2.999000	-9.042900	28.473450	0.000209	20.799217
2365.641084	-3.005100	2.996000	-9.002200	28.472730	0.000210	20.814139
2366.640254	-3.008100	2.995900	-9.010500	28.504202	0.000211	20.803633
2367.646802	-2.979800	2.994800	-8.922900	28.469235	0.000209	20.813464
2368.648224	-2.977900	2.992400	-8.910400	28.441977	0.000209	20.793128
2369.644698	-2.996400	2.989800	-8.958000	28.469260	0.000210	20.791204
2370.646383	-3.016700	2.988900	-9.015900	28.484822	0.000208	20.813514
2371.644058	-3.016200	2.987000	-9.007900	28.536019	0.000211	20.827614
2372.647223	-3.001300	2.987500	-8.966500	28.542833	0.000210	20.807450
2373.646499	-3.023100	2.984700	-9.021900	28.476419	0.000210	20.801259
2374.644916	-3.023000	2.983100	-9.016800	28.434737	0.000210	20.818080
2375.646706	-3.049800	2.980100	-9.087400	28.406732	0.000208	20.815483
2376.645660	-3.010200	2.980300	-8.969600	28.402220	0.000207	20.809518
2377.649133	-2.993700	2.979600	-8.919800	28.336369	0.000208	20.825240
2378.648361	-2.996100	2.978700	-8.923400	28.314757	0.000206	20.809169
2379.646969	-2.984900	2.978200	-8.888400	28.345216	0.000208	20.797638
2380.644603	-3.020900	2.974500	-8.984300	28.398848	0.000207	20.814658
2381.649244	-2.981000	2.975900	-8.869400	28.442267	0.000208	20.809541
2382.650758	-2.977000	2.973800	-8.851800	28.478398	0.000207	20.821269
2383.648323	-3.005200	2.970900	-8.926500	28.516759	0.000208	20.830503
2384.649825	-3.002400	2.970700	-8.918700	28.513659	0.000209	20.823114
2385.655320	-3.003200	2.968800	-8.914800	28.524291	0.000207	20.825760
2386.647579	-3.040500	2.965200	-9.013500	28.591863	0.000208	20.827905
2387.652446	-3.020200	2.965800	-8.956300	28.595903	0.000207	20.818223
2388.650373	-3.028600	2.963300	-8.973900	28.604599	0.000207	20.787153
2389.653090	-2.984900	2.961600	-8.839300	28.639238	0.000207	20.818721
2390.646019	-3.009500	2.960200	-8.907000	28.575308	0.000207	20.797956
2391.647379	-2.991500	2.959900	-8.852700	28.555213	0.000207	20.832719
2392.654755	-2.971300	2.958200	-8.788900	28.499158	0.000208	20.809934
2393.648908	-3.001700	2.956400	-8.872800	28.464639	0.000208	20.829224
2394.648706	-3.036100	2.953900	-8.967400	28.397256	0.000207	20.800726
2395.654443	-2.986100	2.953000	-8.817500	28.362980	0.000206	20.821688
2396.648029	-2.997100	2.952000	-8.846600	28.321392	0.000207	20.827703
2397.650841	-2.973400	2.952200	-8.777300	28.333362	0.000207	20.824582
2398.653571	-2.995100	2.947900	-8.828600	28.361863	0.000207	20.809658
2399.654536	-2.995800	2.949000	-8.834200	28.394802	0.000205	20.821489
2400.649187	-3.023400	2.945800	-8.905300	28.440302	0.000206	20.829848
2401.659449	-3.003300	2.943400	-8.838300	28.494177	0.000205	20.837159
2402.655059	-3.010700	2.943000	-8.859300	28.485876	0.000206	20.812679
2403.651065	-2.994000	2.941800	-8.806900	28.458320	0.000204	20.826655
2404.655259	-2.967100	2.939700	-8.721500	28.381496	0.000205	20.829427
2405.651988	-2.989800	2.939900	-8.787900	28.382140	0.000204	20.838135
2406.650463	-3.009700	2.936300	-8.836200	28.365883	0.000201	20.812283
2407.658699	-3.010100	2.932900	-8.827600	28.373987	0.000204	20.836564
2408.652771	-3.000900	2.932800	-8.800400	28.390494	0.000204	20.822366
2409.650747	-3.020300	2.930100	-8.848300	28.466378	0.000202	20.846622
2410.657943	-3.000400	2.928800	-8.786800	28.491680	0.000204	20.818523
2411.653727	-2.981400	2.929100	-8.732400	28.543473	0.000201	20.822793
2412.654375	-2.994500	2.925200	-8.758700	28.574297	0.000203	20.825861
2413.657207	-3.002100	2.925400	-8.781700	28.577173	0.000201	20.812163
2414.655219	-3.009600	2.922100	-8.792400	28.554751	0.000202	20.833677
2415.653817	-2.999000	2.921900	-8.761500	28.584833	0.000202	20.835049
2416.653943	-2.968800	2.921000	-8.670000	28.580374	0.000201	20.845257
2417.661151	-2.998400	2.918700	-8.750200	28.601436	0.000201	20.843236
2418.651423	-3.005900	2.916700	-8.766100	28.552969	0.000203	20.811493
2419.659165	-3.046700	2.913000	-8.874200	28.512753	0.000200	20.848753
2420.657373	-3.020600	2.911300	-8.793000	28.490104	0.000199	20.822626
2421.651642	-2.993100	2.912000	-8.714500	28.490377	0.000200	20.834755
2422.658839	-3.021600	2.909500	-8.790200	28.503462	0.000199	20.826121
2423.661259	-2.995600	2.907400	-8.709000	28.545815	0.000199	20.843643
2424.649985	-2.996600	2.906900	-8.709000	28.555729	0.000201	20.823756
2425.653363	-3.003600	2.904000	-8.721700	28.600777	0.000201	20.830719
2426.654893	-3.014700	2.901900	-8.747200	28.633708	0.000200	20.843496
2427.663238	-3.027900	2.899700	-8.779400	28.665004	0.000200	20.815275
2428.659218	-2.958600	2.899600	-8.577400	28.726972	0.000200	20.834068
2429.656971	-2.992600	2.897400	-8.669900	28.786158	0.000200	20.835839
2430.656182	-2.978600	2.896600	-8.626700	28.804690	0.000201	20.841704
2431.659501	-3.028200	2.892300	-8.757300	28.815914	0.000202	20.853959
2432.655021	-2.982700	2.891800	-8.623600	28.805809	0.000202	20.819599
2433.658870	-3.000600	2.890500	-8.672100	28.780492	0.000201	20.838192
2434.660685	-3.030500	2.888200	-8.751400	28.789559	0.000203	20.832153
2435.660216	-3.010100	2.887100	-8.689000	28.776481	0.000203	20.841265
2436.660407	-2.994600	2.884600	-8.636800	28.775242	0.000202	20.851395
2437.658905	-3.028600	2.880700	-8.723300	28.758693	0.000203	20.843735
2438.660551	-2.987000	2.882700	-8.608900	28.796970	0.000202	20.835351
2439.660542	-2.981500	2.881100	-8.588600	28.795065	0.000203	20.857613
2440.656784	-3.005200	2.876200	-8.642500	28.766997	0.000204	20.844039
2441.659847	-3.007500	2.875700	-8.647300	28.702729	0.000203	20.829090
2442.660306	-2.992100	2.873900	-8.598600	28.718415	0.000202	20.848683
2443.656168	-2.994500	2.871800	-8.598300	28.702063	0.000203	20.837428
2444.657981	-2.968700	2.870500	-8.520800	28.700106	0.000203	20.830715
2445.658035	-3.005500	2.866300	-8.612900	28.722083	0.000201	20.838152
2446.659669	-2.991900	2.866400	-8.575500	28.768612	0.000204	20.829545
2447.659277	-3.028200	2.862500	-8.667100	28.765541	0.000202	20.832616
2448.660482	-2.997400	2.861200	-8.575200	28.811247	0.000202	20.812749
2449.660134	-2.984900	2.859100	-8.533500	28.824081	0.000204	20.845591
2450.658865	-2.993200	2.856900	-8.550000	28.838870	0.000201	20.841523
2451.655507	-3.026000	2.853300	-8.631000	28.877815	0.000203	20.838556
2452.659169	-2.987400	2.854700	-8.526500	28.878731	0.000200	20.856548
2453.663714	-3.012900	2.850100	-8.586600	28.880367	0.000202	20.839231
2454.658256	-3.003700	2.849400	-8.558600	28.874546	0.000203	20.839531
2455.664335	-3.020000	2.845800	-8.594100	28.889110	0.000202	20.842349
2456.659189	-2.988600	2.845200	-8.502100	28.836444	0.000204	20.864209
2457.660810	-2.999100	2.843100	-8.525200	28.837238	0.000201	20.846517
2458.663063	-3.010100	2.839800	-8.546700	28.862210	0.000206	20.851759
2459.661462	-3.020300	2.838200	-8.570100	28.876602	0.000204	20.869101
2460.661318	-3.028200	2.835500	-8.585100	28.854158	0.000202	20.839380
2461.658456	-2.968800	2.835000	-8.415500	28.800476	0.000202	20.851210
2462.662625	-3.019500	2.831100	-8.547300	28.794257	0.000202	20.843997
2463.658311	-3.049800	2.828200	-8.623600	28.769778	0.000202	20.858693
2464.668018	-2.992800	2.828600	-8.464500	28.792448	0.000203	20.851183
2465.665989	-2.992700	2.825400	-8.454500	28.818708	0.000202	20.840179
2466.664416	-2.986300	2.823700	-8.431600	28.802828	0.000204	20.838407
2467.662208	-2.985300	2.822400	-8.424900	28.779069	0.000201	20.838181
2468.666272	-3.003600	2.818100	-8.462100	28.786797	0.000202	20.847862
2469.668198	-3.000600	2.816200	-8.448700	28.789027	0.000202	20.848686
2470.660230	-3.032800	2.812900	-8.530000	28.808152	0.000203	20.860838
2471.666955	-3.020800	2.810600	-8.488800	28.829012	0.000203	20.871894
2472.665263	-2.972700	2.811000	-8.355200	28.842313	0.000203	20.875335
2473.664762	-3.034600	2.805800	-8.512400	28.891834	0.000203	20.846989
2474.668174	-2.995400	2.805000	-8.401200	28.897829	0.000202	20.840701
2475.670547	-3.006300	2.801600	-8.421200	28.943507	0.000202	20.855898
2476.662913	-3.022200	2.798500	-8.456300	28.989753	0.000203	20.861714
2477.668560	-3.008000	2.797500	-8.414100	29.014248	0.000200	20.845616
2478.668519	-2.987100	2.794700	-8.347000	29.004490	0.000203	20.858544
2479.661849	-2.967100	2.793400	-8.287100	29.008305	0.000202	20.865231
2480.669941	-3.005800	2.790400	-8.385800	28.957650	0.000204	20.845966
2481.666564	-2.999100	2.787300	-8.358300	28.942220	0.000202	20.870248
2482.674113	-2.980600	2.786500	-8.304400	28.917424	0.000201	20.849061
2483.669234	-2.987900	2.782800	-8.313600	28.918813	0.000200	20.862314
2484.665232	-2.992700	2.778000	-8.312400	28.908210	0.000199	20.864908
2485.668594	-2.952900	2.778700	-8.204000	28.900854	0.000200	20.848016
2486.667924	-2.996800	2.774700	-8.314500	28.945169	0.000199	20.851883
2487.665838	-3.008400	2.771300	-8.336900	28.955400	0.000199	20.861241
2488.667986	-2.974000	2.769600	-8.234900	28.946904	0.000199	20.858846
2489.673099	-3.001700	2.765400	-8.300200	28.902169	0.000200	20.863564
2490.666953	-2.990900	2.761400	-8.257100	28.856194	0.000201	20.855655
2491.668527	-2.983500	2.759600	-8.232700	28.848367	0.000198	20.858676
2492.680466	-2.994300	2.755900	-8.250900	28.864942	0.000199	20.856881
2493.666027	-2.996800	2.754600	-8.254100	28.909903	0.000200	20.860924
2494.667923	-2.982800	2.752600	-8.209700	28.975842	0.000199	20.863345
2495.669587	-3.010400	2.747800	-8.270800	28.988255	0.000199	20.872531
2496.666149	-3.009500	2.743300	-8.255100	29.039031	0.000199	20.872481
2497.664665	-3.017300	2.740100	-8.266200	29.048570	0.000199	20.852696
2498.673786	-2.995300	2.737500	-8.198700	29.029002	0.000198	20.853843
2499.670748	-2.969400	2.735900	-8.123000	29.049291	0.000199	20.877603
2500.668264	-2.981800	2.732800	-8.147500	29.098431	0.000200	20.861684
2501.676018	-2.998800	2.727300	-8.177200	29.174662	0.000200	20.892029
2502.667305	-2.978600	2.724900	-8.115900	29.181077	0.000198	20.872417
2503.669403	-2.973500	2.722400	-8.094100	29.263121	0.000199	20.859791
2504.671813	-3.018900	2.719100	-8.207400	29.307174	0.000202	20.877160
2505.670378	-2.989400	2.713700	-8.111500	29.335776	0.000199	20.864261
2506.666484	-2.975100	2.712000	-8.067300	29.304328	0.000198	20.886145
2507.672694	-3.004900	2.706900	-8.132900	29.324784	0.000200	20.868356
2508.669616	-3.003100	2.703800	-8.119200	29.296036	0.000200	20.864040
2509.672945	-2.996300	2.700800	-8.091300	29.251044	0.000200	20.880336
2510.676396	-3.002200	2.699200	-8.102600	29.260108	0.000200	20.893737
2511.671767	-3.015100	2.692600	-8.117600	29.256295	0.000200	20.887050
2512.668297	-3.018200	2.689700	-8.116900	29.273062	0.000199	20.870284
2513.673398	-2.979000	2.686900	-8.002800	29.297256	0.000201	20.872855
2514.671258	-3.010800	2.682000	-8.073800	29.310083	0.000198	20.880565
2515.669083	-3.009300	2.678300	-8.058600	29.291417	0.000198	20.856540
2516.672681	-3.005500	2.675100	-8.039300	29.292780	0.000197	20.876878
2517.672678	-2.989000	2.671000	-7.982900	29.322791	0.000198	20.872986
2518.673085	-2.994900	2.666800	-7.985200	29.349287	0.000198	20.867447
2519.679796	-3.003900	2.662200	-7.995900	29.369716	0.000199	20.877131
2520.672794	-3.007900	2.658200	-7.994600	29.358624	0.000198	20.869271
2521.673625	-2.973100	2.655300	-7.893000	29.364841	0.000198	20.887864
2522.677091	-3.008200	2.650500	-7.972200	29.402008	0.000199	20.888340
2523.674042	-3.017500	2.645700	-7.983000	29.444794	0.000201	20.863189
2524.670123	-2.987500	2.643000	-7.895000	29.426524	0.000201	20.865162
2525.678504	-2.987000	2.638000	-7.878300	29.454278	0.000199	20.892661
2526.675076	-2.983900	2.633700	-7.858100	29.482061	0.000201	20.886052
2527.673543	-2.991800	2.628800	-7.863700	29.510878	0.000200	20.892340
2528.673627	-2.998900	2.623100	-7.866200	29.476543	0.000201	20.880491
2529.671798	-2.959600	2.620100	-7.752700	29.397811	0.000200	20.872731
2530.674191	-2.990600	2.614600	-7.817600	29.381198	0.000201	20.897236
2531.673362	-3.001100	2.609300	-7.828800	29.358892	0.000199	20.883290
2532.672797	-3.018900	2.603700	-7.859800	29.385633	0.000199	20.881793
2533.670784	-3.004200	2.598800	-7.804800	29.375039	0.000201	20.874909
2534.676505	-3.032900	2.593200	-7.863500	29.408664	0.000198	20.895048
2535.677426	-3.022300	2.588000	-7.820400	29.464003	0.000201	20.887765
2536.673961	-2.985200	2.583300	-7.711300	29.500793	0.000199	20.903036
2537.672387	-3.023200	2.577800	-7.791700	29.529638	0.000200	20.879009
2538.675678	-3.001300	2.572800	-7.720900	29.492825	0.000201	20.900694
2539.678872	-2.998500	2.566000	-7.692600	29.437716	0.000202	20.896829
2540.674767	-3.005800	2.560800	-7.696700	29.400059	0.000202	20.879738
2541.677499	-2.982600	2.554600	-7.618500	29.424176	0.000201	20.903570
2542.674970	-2.999900	2.550700	-7.650400	29.434801	0.000201	20.907640
2543.676954	-3.011500	2.543900	-7.659700	29.406575	0.000200	20.876349
2544.675117	-3.025800	2.538200	-7.679300	29.418710	0.000201	20.902328
2545.675512	-3.023900	2.530100	-7.649800	29.448940	0.000200	20.888229
2546.674876	-3.025300	2.524200	-7.636000	29.443595	0.000201	20.882842
2547.677569	-3.012000	2.518400	-7.584500	29.378407	0.000200	20.892527
2548.677310	-2.984600	2.513100	-7.499500	29.375165	0.000200	20.879778
2549.678278	-3.015300	2.506900	-7.558000	29.338768	0.000200	20.907103
2550.677126	-2.991000	2.501100	-7.480300	29.282213	0.000203	20.907952
2551.674651	-3.003500	2.494000	-7.489200	29.319011	0.000202	20.897149
