LabVIEW Measurement	
Writer_Version	2
Reader_Version	2
Separator	Tab
Decimal_Separator	.
Multi_Headings	No
X_Columns	One
Time_Pref	Absolute
Operator	admin
Description	Clolumns are: time, Current, Voltage, Power, Battery Temp, and Chamber Temp
Date	2024/08/16
Time	13:06:06.104549407958984375
***End_of_Header***	
	
Channels	6						
Samples	1	1	1	1	1	1	
Date	2024/09/11	2024/09/11	2024/09/11	2024/09/11	2024/09/11	2024/09/11	
Time	13:01:11.9820351600646972656	13:01:11.9880366325378417969	13:01:11.9930462837219238282	13:01:11.9668917655944824219	13:01:11.9668917655944824219	13:01:11.9668917655944824219	
X_Dimension	Time	Time	Time	Time	Time	Time	
X0	0.0000000000000000E+0	0.0000000000000000E+0	0.0000000000000000E+0	0.0000000000000000E+0	0.0000000000000000E+0	0.0000000000000000E+0	
Delta_X	1.000000	1.000000	1.000000	1.000000	1.000000	1.000000	
***End_of_Header***							
X_Value	Untitled	Untitled 1	Untitled 2	Untitled 3	Untitled 4	Untitled 5	Comment
0.000000	0.001720	4.093100	0.007023	20.975202	0.000913	20.792666
1.006024	-2.992500	3.918200	-11.723000	20.987854	0.000914	20.768336
2.001531	-3.000000	3.909900	-11.729000	20.970119	0.000911	20.774306
3.001607	-3.003700	3.906100	-11.731000	20.981142	0.000910	20.787702
4.004011	-2.992000	3.902200	-11.675000	20.974204	0.000908	20.770806
5.001569	-3.021600	3.898200	-11.777000	20.994668	0.000908	20.750495
6.001203	-2.970700	3.897100	-11.575000	21.002451	0.000908	20.770608
7.001735	-2.983500	3.893900	-11.616000	20.985986	0.000907	20.784486
8.000664	-2.994100	3.891300	-11.650000	21.012983	0.000908	20.776875
9.001882	-2.985900	3.889100	-11.610000	21.006919	0.000908	20.765120
10.004807	-2.991500	3.887300	-11.628000	20.986811	0.000907	20.778198
11.001711	-2.976300	3.886800	-11.568000	20.988431	0.000904	20.777922
12.001014	-2.992200	3.885400	-11.625000	20.985190	0.000904	20.786535
13.001694	-3.010000	3.882000	-11.684000	21.018920	0.000903	20.788028
14.002729	-2.996900	3.881500	-11.631000	21.000761	0.000901	20.778875
15.006270	-3.018800	3.878300	-11.706000	21.009970	0.000901	20.789508
16.005619	-2.985700	3.880400	-11.585000	21.037020	0.000902	20.758242
17.004729	-2.998400	3.877000	-11.624000	21.028182	0.000902	20.777852
18.003905	-2.999000	3.877000	-11.626000	21.021319	0.000900	20.799911
19.003755	-3.005500	3.875900	-11.647000	21.050442	0.000899	20.783995
20.006558	-2.980200	3.875400	-11.547000	21.032803	0.000900	20.771094
21.005618	-2.961300	3.873800	-11.470000	21.060496	0.000898	20.779827
22.004934	-2.992000	3.872800	-11.586000	21.052190	0.000897	20.790959
23.005994	-2.988000	3.873400	-11.572000	21.052866	0.000897	20.786894
24.006086	-2.978300	3.872800	-11.533000	21.087150	0.000899	20.791788
25.006503	-2.977100	3.871600	-11.525000	21.079940	0.000898	20.766559
26.007047	-3.001900	3.870000	-11.616000	21.097084	0.000895	20.765689
27.005959	-2.995400	3.868600	-11.586000	21.085183	0.000897	20.778916
28.007303	-3.002000	3.867900	-11.611000	21.111102	0.000896	20.801997
29.006252	-2.980200	3.869200	-11.530000	21.089202	0.000894	20.796212
30.006292	-3.001000	3.867300	-11.603000	21.116651	0.000896	20.798063
31.012648	-3.003900	3.868300	-11.619000	21.091226	0.000895	20.777374
32.007113	-3.008200	3.865600	-11.627000	21.102335	0.000894	20.794649
33.008962	-3.001800	3.866200	-11.605000	21.141625	0.000895	20.787958
34.007046	-3.003500	3.865900	-11.610000	21.122693	0.000895	20.802211
35.009855	-3.014100	3.863700	-11.643000	21.132223	0.000895	20.787562
36.007730	-2.988600	3.864900	-11.549000	21.111144	0.000894	20.809150
37.011259	-3.009700	3.863000	-11.626000	21.140434	0.000894	20.796723
38.007045	-3.025400	3.862300	-11.684000	21.114017	0.000893	20.784997
39.008315	-2.983300	3.863000	-11.523000	21.151122	0.000894	20.770904
40.008911	-3.023400	3.861800	-11.674000	21.170754	0.000894	20.791017
41.010826	-2.991800	3.863500	-11.558000	21.143468	0.000893	20.802129
42.010089	-2.980000	3.861900	-11.508000	21.186948	0.000893	20.804372
43.011004	-2.997900	3.860700	-11.573000	21.181536	0.000894	20.795165
44.010459	-3.000600	3.860000	-11.579000	21.191593	0.000893	20.797639
45.012724	-2.991400	3.859700	-11.544000	21.191346	0.000894	20.802607
46.019074	-3.036000	3.859000	-11.714000	21.216117	0.000893	20.789929
47.012140	-3.001000	3.858200	-11.577000	21.224179	0.000893	20.803209
48.010959	-3.013300	3.858400	-11.625000	21.220564	0.000892	20.803386
49.012763	-3.006100	3.857200	-11.594000	21.219868	0.000894	20.806957
50.011279	-2.985600	3.857500	-11.515000	21.221117	0.000892	20.810577
51.011363	-2.992400	3.858100	-11.543000	21.248483	0.000894	20.797651
52.014210	-2.974100	3.857300	-11.470000	21.252931	0.000894	20.807790
53.011643	-2.975900	3.857500	-11.478000	21.258944	0.000895	20.789624
54.013595	-2.978600	3.856200	-11.485000	21.269025	0.000895	20.802080
55.011269	-2.998000	3.856500	-11.559000	21.260320	0.000894	20.792897
56.012696	-2.973500	3.856100	-11.465000	21.272895	0.000892	20.805003
57.012204	-3.001000	3.854400	-11.565000	21.286669	0.000895	20.794126
58.017921	-3.020400	3.856200	-11.646000	21.294676	0.000894	20.816362
59.013902	-3.001500	3.854900	-11.569000	21.314759	0.000893	20.815591
60.015711	-3.002000	3.854200	-11.570000	21.336589	0.000892	20.807085
61.015010	-2.993000	3.854600	-11.536000	21.331747	0.000895	20.800818
62.014833	-2.996700	3.853600	-11.546000	21.340632	0.000894	20.813026
63.021749	-2.998800	3.852800	-11.552000	21.356972	0.000895	20.799029
64.015978	-2.982600	3.854500	-11.496000	21.370469	0.000893	20.812058
65.014950	-3.001700	3.853400	-11.566000	21.356255	0.000894	20.811588
66.014984	-2.997500	3.853200	-11.548000	21.370592	0.000894	20.801750
67.015826	-2.982700	3.853700	-11.493000	21.389751	0.000894	20.799107
68.016407	-2.989700	3.852700	-11.517000	21.382424	0.000894	20.824967
69.017678	-2.995600	3.851400	-11.536000	21.400359	0.000893	20.792651
70.015958	-3.004800	3.852000	-11.573000	21.396345	0.000893	20.809497
71.017828	-3.003500	3.851800	-11.568000	21.413158	0.000895	20.811621
72.017345	-3.008000	3.851400	-11.584000	21.427775	0.000893	20.828616
73.022086	-3.019600	3.848600	-11.620000	21.442519	0.000893	20.785522
74.018399	-3.001200	3.851400	-11.556000	21.434166	0.000895	20.814148
75.020426	-3.003900	3.851300	-11.567000	21.458532	0.000894	20.808182
76.017940	-2.999300	3.849400	-11.544000	21.454000	0.000894	20.808863
77.022364	-3.005600	3.849800	-11.570000	21.458314	0.000895	20.815076
78.022015	-3.003200	3.847800	-11.554000	21.508124	0.000894	20.796164
79.025552	-3.011100	3.847900	-11.585000	21.497497	0.000895	20.827730
80.023374	-3.007500	3.848300	-11.572000	21.499294	0.000894	20.823838
81.025613	-2.988200	3.848400	-11.498000	21.504086	0.000893	20.836219
82.021580	-2.984500	3.848300	-11.484000	21.496257	0.000896	20.813687
83.027274	-2.997700	3.847700	-11.534000	21.510749	0.000898	20.809222
84.021107	-2.997400	3.847100	-11.530000	21.528237	0.000896	20.834780
85.026937	-3.000000	3.847200	-11.541000	21.523597	0.000895	20.823026
86.022954	-3.002400	3.846800	-11.547000	21.540207	0.000896	20.802662
87.023188	-3.014200	3.846400	-11.592000	21.545798	0.000897	20.816318
88.028487	-3.010700	3.846800	-11.580000	21.551237	0.000898	20.828398
89.025827	-2.991100	3.846300	-11.503000	21.566046	0.000896	20.842268
90.023876	-3.011600	3.844100	-11.576000	21.563429	0.000897	20.835856
91.023818	-3.009000	3.844300	-11.566000	21.559190	0.000898	20.816441
92.024813	-3.018300	3.844500	-11.601000	21.557768	0.000899	20.815019
93.025333	-3.002100	3.845700	-11.544000	21.561938	0.000899	20.811131
94.029060	-2.996200	3.846200	-11.523000	21.564381	0.000896	20.826378
95.024835	-3.005200	3.845600	-11.556000	21.565152	0.000897	20.820985
96.025674	-3.006000	3.844700	-11.556000	21.571761	0.000898	20.835659
97.024666	-3.010500	3.844500	-11.572000	21.588221	0.000899	20.832690
98.027046	-3.009100	3.843900	-11.564000	21.578769	0.000900	20.826077
99.028249	-3.003900	3.844700	-11.548000	21.585053	0.000898	20.827149
100.028669	-2.980900	3.844100	-11.457000	21.601163	0.000898	20.848485
101.029613	-3.005800	3.842700	-11.548000	21.615851	0.000900	20.820037
102.029786	-3.002500	3.841900	-11.534000	21.643905	0.000901	20.814920
103.029050	-2.998900	3.843200	-11.524000	21.635224	0.000899	20.845586
104.031500	-3.014700	3.841000	-11.579000	21.666223	0.000899	20.824452
105.030253	-2.993400	3.843300	-11.503000	21.648342	0.000899	20.843067
106.030567	-3.004900	3.842100	-11.544000	21.667245	0.000900	20.851552
107.031415	-3.007400	3.841500	-11.551000	21.671109	0.000899	20.821756
108.036928	-3.005600	3.842000	-11.546000	21.683823	0.000899	20.845384
109.034959	-3.012000	3.839400	-11.564000	21.681129	0.000900	20.849326
110.033596	-2.983400	3.840600	-11.455000	21.685373	0.000900	20.824650
111.031197	-3.004900	3.840300	-11.538000	21.677314	0.000901	20.849301
112.033295	-3.006500	3.840500	-11.545000	21.695170	0.000901	20.856265
113.033878	-3.000500	3.840900	-11.524000	21.714520	0.000900	20.839596
114.033902	-2.989100	3.840500	-11.479000	21.719205	0.000901	20.825792
115.034968	-2.999700	3.839600	-11.517000	21.725220	0.000900	20.839398
116.033071	-2.989900	3.840100	-11.480000	21.757604	0.000899	20.854265
117.038604	-2.992300	3.839100	-11.486000	21.740129	0.000901	20.865698
118.033431	-3.013900	3.838700	-11.569000	21.761848	0.000901	20.845236
119.033255	-3.004300	3.839200	-11.532000	21.779327	0.000904	20.843764
120.034942	-2.980900	3.839600	-11.445000	21.763714	0.000903	20.839992
121.038043	-2.989400	3.838700	-11.475000	21.774165	0.000902	20.852348
122.034251	-3.000400	3.837900	-11.515000	21.804357	0.000904	20.850798
123.035373	-3.022700	3.837300	-11.598000	21.821935	0.000904	20.850373
124.035611	-2.991300	3.838800	-11.480000	21.817025	0.000906	20.839295
125.035886	-2.985500	3.837800	-11.457000	21.838417	0.000906	20.864024
126.037870	-3.004100	3.837700	-11.528000	21.828168	0.000905	20.860404
127.036461	-3.000900	3.835900	-11.509000	21.842305	0.000906	20.857959
128.037219	-3.012500	3.836600	-11.555000	21.844946	0.000905	20.863447
129.035494	-3.015800	3.836500	-11.569000	21.864298	0.000907	20.848204
130.035486	-2.985900	3.838400	-11.459000	21.850437	0.000906	20.849977
131.038057	-3.007400	3.836700	-11.538000	21.871902	0.000906	20.864350
132.037180	-3.000800	3.835400	-11.507000	21.871276	0.000905	20.856611
133.037522	-2.999300	3.836700	-11.507000	21.872866	0.000908	20.843504
134.035814	-3.004700	3.836400	-11.525000	21.879197	0.000908	20.827557
135.038741	-3.021500	3.833800	-11.583000	21.902689	0.000907	20.844906
136.037536	-2.985800	3.835200	-11.450000	21.894508	0.000907	20.843356
137.039853	-3.006800	3.834100	-11.527000	21.933079	0.000908	20.871531
138.039602	-2.994100	3.836800	-11.486000	21.935345	0.000908	20.862420
139.039459	-2.976400	3.835400	-11.414000	21.945692	0.000909	20.876095
140.038486	-2.983900	3.834800	-11.441000	21.929537	0.000908	20.865615
141.038481	-2.984000	3.834100	-11.439000	21.945836	0.000907	20.892834
142.042906	-3.006200	3.833300	-11.521000	21.969948	0.000908	20.871927
143.039353	-2.992900	3.834000	-11.474000	21.974932	0.000908	20.867433
144.042931	-3.015000	3.834200	-11.559000	21.998664	0.000908	20.867009
145.038507	-2.985100	3.832200	-11.439000	22.002833	0.000909	20.858854
146.039337	-2.982800	3.832400	-11.431000	22.001758	0.000909	20.881484
147.044894	-3.013500	3.832800	-11.548000	22.002783	0.000911	20.860227
148.044618	-2.988700	3.832000	-11.452000	22.016144	0.000911	20.859377
149.041075	-2.998500	3.832300	-11.490000	22.039275	0.000911	20.869730
150.042046	-2.985900	3.832400	-11.442000	22.057450	0.000912	20.868485
151.042547	-2.964100	3.832800	-11.359000	22.044658	0.000911	20.885549
152.043333	-2.999600	3.830700	-11.489000	22.078216	0.000914	20.875522
153.046885	-3.012500	3.831900	-11.543000	22.074550	0.000913	20.882758
154.043129	-2.974000	3.833300	-11.399000	22.078562	0.000914	20.871601
155.047081	-2.973000	3.832600	-11.393000	22.092223	0.000914	20.892388
156.043402	-3.007800	3.830500	-11.520000	22.109199	0.000916	20.875246
157.042415	-3.012200	3.829100	-11.533000	22.119519	0.000915	20.887948
158.045784	-2.999200	3.830000	-11.486000	22.114878	0.000918	20.876664
159.046837	-3.011600	3.827500	-11.525000	22.113535	0.000918	20.892388
160.042699	-2.991700	3.830500	-11.459000	22.104759	0.000917	20.894982
161.044021	-3.000200	3.829000	-11.487000	22.134724	0.000918	20.888946
162.044161	-2.993300	3.829500	-11.462000	22.138336	0.000919	20.891139
163.044658	-3.011800	3.828100	-11.528000	22.143665	0.000919	20.879406
164.047296	-3.007800	3.828100	-11.513000	22.141424	0.000918	20.858198
165.043919	-3.019600	3.827500	-11.556000	22.148075	0.000920	20.871968
166.043716	-3.013600	3.827900	-11.535000	22.166545	0.000921	20.888562
167.044338	-3.001000	3.828200	-11.487000	22.164004	0.000921	20.875114
168.065426	-2.995300	3.827800	-11.463000	22.166191	0.000919	20.872562
169.049908	-2.996100	3.828200	-11.469000	22.175012	0.000923	20.885660
170.046825	-3.009300	3.826200	-11.513000	22.196994	0.000922	20.874479
171.049881	-3.026300	3.826700	-11.580000	22.173188	0.000923	20.887626
172.047048	-3.006900	3.826600	-11.505000	22.193074	0.000923	20.886200
173.054054	-3.000300	3.826500	-11.479000	22.197913	0.000925	20.874450
174.049756	-3.009000	3.825200	-11.509000	22.207129	0.000924	20.895529
175.049443	-2.995500	3.826700	-11.461000	22.218391	0.000924	20.874565
176.048921	-3.003900	3.826300	-11.493000	22.229580	0.000924	20.868224
177.055173	-3.026800	3.825100	-11.575000	22.235485	0.000923	20.873662
178.048642	-3.012100	3.824900	-11.520000	22.247645	0.000925	20.877302
179.049657	-3.007200	3.825500	-11.502000	22.240916	0.000925	20.870092
180.053453	-2.987900	3.822800	-11.421000	22.260950	0.000927	20.877822
181.050322	-3.004600	3.824300	-11.489000	22.254464	0.000926	20.901198
182.052314	-3.001900	3.824800	-11.481000	22.263433	0.000927	20.878885
183.051431	-3.002500	3.824600	-11.482000	22.267200	0.000925	20.848995
184.051981	-3.016000	3.823200	-11.529000	22.278985	0.000929	20.870277
185.055330	-3.005600	3.824400	-11.494000	22.271928	0.000929	20.866055
186.052438	-2.981400	3.824100	-11.399000	22.292360	0.000928	20.871341
187.051051	-2.993400	3.823800	-11.445000	22.305120	0.000931	20.894548
188.053382	-3.021400	3.823800	-11.551000	22.305116	0.000931	20.873208
189.053322	-2.988100	3.823500	-11.424000	22.307731	0.000929	20.867292
190.058241	-3.002000	3.823700	-11.477000	22.315777	0.000932	20.857805
191.055567	-3.011800	3.822300	-11.512000	22.313957	0.000929	20.878741
192.056183	-3.015600	3.822200	-11.525000	22.324000	0.000932	20.861297
193.057775	-2.997900	3.823000	-11.458000	22.306673	0.000932	20.857698
194.056914	-3.003900	3.821900	-11.480000	22.331370	0.000934	20.872470
195.060534	-2.994500	3.820700	-11.439000	22.332313	0.000932	20.856346
196.058650	-3.019000	3.820400	-11.533000	22.341108	0.000934	20.861359
197.059287	-2.992500	3.821700	-11.436000	22.343924	0.000934	20.868920
198.059912	-2.997200	3.820600	-11.450000	22.365554	0.000934	20.867345
199.059421	-2.981100	3.821700	-11.390000	22.386412	0.000934	20.859310
200.059206	-3.024600	3.819200	-11.549000	22.400263	0.000937	20.860852
201.060506	-3.006700	3.819700	-11.484000	22.397591	0.000935	20.874771
202.059344	-2.996600	3.819800	-11.444000	22.402927	0.000936	20.861149
203.062410	-2.999200	3.820400	-11.457000	22.408057	0.000940	20.865338
204.060118	-3.005600	3.821000	-11.483000	22.437907	0.000938	20.862988
205.062787	-3.008100	3.818700	-11.486000	22.445656	0.000939	20.851782
206.061898	-3.022100	3.818400	-11.539000	22.429879	0.000938	20.855422
207.059952	-2.996400	3.819400	-11.443000	22.438945	0.000941	20.852173
208.063898	-3.012100	3.818200	-11.499000	22.424341	0.000939	20.860308
209.062397	-3.023800	3.817100	-11.541000	22.428553	0.000942	20.852198
210.062985	-2.972200	3.818700	-11.348000	22.425185	0.000940	20.860679
211.065675	-3.027000	3.817400	-11.554000	22.432411	0.000943	20.851794
212.066979	-3.019200	3.816600	-11.522000	22.415015	0.000942	20.851918
213.063742	-3.016600	3.816000	-11.510000	22.421393	0.000942	20.852615
214.063936	-3.024800	3.817900	-11.547000	22.428195	0.000944	20.866063
215.064490	-2.998000	3.817400	-11.443000	22.441452	0.000942	20.864167
216.063527	-3.023600	3.816300	-11.537000	22.452490	0.000944	20.845824
217.067995	-3.022700	3.815100	-11.530000	22.442568	0.000943	20.858646
218.065119	-3.002900	3.815300	-11.456000	22.450967	0.000944	20.855678
219.069200	-3.007400	3.815300	-11.473000	22.437010	0.000944	20.854977
220.065720	-3.002100	3.814900	-11.452000	22.450139	0.000945	20.856272
221.065418	-3.012200	3.815300	-11.492000	22.449789	0.000944	20.840275
222.066986	-2.992800	3.814400	-11.415000	22.462149	0.000947	20.837479
223.065609	-3.008700	3.814400	-11.476000	22.483026	0.000945	20.841792
224.066452	-3.023600	3.813900	-11.531000	22.488111	0.000948	20.857315
225.066419	-2.996600	3.814500	-11.430000	22.482829	0.000946	20.838749
226.067106	-3.021700	3.813400	-11.520000	22.497757	0.000949	20.831415
227.070398	-2.998000	3.814300	-11.435000	22.474780	0.000948	20.827844
228.090518	-2.984300	3.814200	-11.382000	22.501491	0.000949	20.847956
229.067173	-3.017500	3.813400	-11.505000	22.526110	0.000948	20.847956
230.068553	-2.996400	3.813200	-11.425000	22.531244	0.000949	20.839821
231.067325	-3.010000	3.812800	-11.476000	22.543903	0.000951	20.839224
232.067188	-3.004200	3.812400	-11.453000	22.547143	0.000952	20.841994
233.069464	-3.004400	3.812100	-11.452000	22.540342	0.000952	20.807683
234.067152	-3.014700	3.812300	-11.492000	22.529231	0.000951	20.840650
235.071651	-2.990000	3.813300	-11.401000	22.544101	0.000954	20.845111
236.067709	-3.005600	3.812600	-11.459000	22.565084	0.000953	20.841470
237.068056	-3.011000	3.811700	-11.477000	22.564487	0.000955	20.846088
238.070961	-3.011000	3.811500	-11.475000	22.576223	0.000953	20.836506
239.070058	-3.029800	3.809800	-11.542000	22.568077	0.000955	20.841623
240.068035	-3.008600	3.811900	-11.467000	22.568624	0.000955	20.822732
241.068382	-3.005600	3.811500	-11.454000	22.603385	0.000956	20.843322
242.068126	-3.023900	3.810300	-11.521000	22.622519	0.000956	20.826451
243.068776	-3.016100	3.811000	-11.493000	22.622296	0.000956	20.821486
244.073151	-2.981300	3.811200	-11.360000	22.620724	0.000956	20.829869
245.070504	-3.011300	3.809200	-11.469000	22.600343	0.000957	20.838378
246.076998	-3.007200	3.808300	-11.451000	22.605377	0.000957	20.829196
247.071054	-3.006000	3.808900	-11.447000	22.652865	0.000961	20.819862
248.073528	-3.013800	3.808500	-11.477000	22.630517	0.000960	20.825927
249.072394	-3.011900	3.809100	-11.472000	22.608065	0.000958	20.843742
250.071047	-3.005200	3.808000	-11.443000	22.618406	0.000959	20.822806
251.071582	-3.059700	3.805500	-11.643000	22.605472	0.000961	20.828817
252.070542	-2.989500	3.808800	-11.385000	22.596029	0.000961	20.808454
253.071407	-3.015400	3.807400	-11.478000	22.614866	0.000961	20.818786
254.072603	-3.023800	3.806700	-11.509000	22.604673	0.000960	20.833707
255.073115	-3.006100	3.808000	-11.447000	22.616064	0.000962	20.822831
256.072497	-3.021200	3.806200	-11.498000	22.619876	0.000964	20.828545
257.075285	-3.024300	3.806600	-11.512000	22.628096	0.000964	20.838201
258.073594	-3.011800	3.806100	-11.462000	22.667239	0.000963	20.816716
259.073784	-2.994100	3.807100	-11.398000	22.660060	0.000962	20.850776
260.076706	-3.016800	3.805000	-11.477000	22.692003	0.000964	20.828244
261.074079	-3.030700	3.805700	-11.533000	22.713226	0.000966	20.815838
262.076365	-3.014400	3.806200	-11.473000	22.727307	0.000965	20.824727
263.074191	-3.013000	3.804300	-11.462000	22.736075	0.000965	20.812173
264.075755	-3.021800	3.803800	-11.493000	22.735247	0.000966	20.806603
265.077551	-2.973500	3.805800	-11.316000	22.730045	0.000967	20.817512
266.079129	-2.997400	3.805000	-11.404000	22.728225	0.000968	20.832285
267.076239	-3.009300	3.804000	-11.447000	22.757647	0.000969	20.808652
268.077021	-2.986800	3.804700	-11.363000	22.749950	0.000968	20.801416
269.076965	-2.995000	3.803600	-11.389000	22.755033	0.000969	20.816939
270.077606	-2.996400	3.803700	-11.397000	22.715420	0.000968	20.810923
271.081647	-2.982700	3.804400	-11.346000	22.742475	0.000969	20.815265
272.078867	-2.982400	3.803600	-11.342000	22.748653	0.000971	20.813867
273.079053	-3.019100	3.802900	-11.480000	22.769904	0.000969	20.804809
274.079395	-2.968000	3.803600	-11.288000	22.769456	0.000971	20.825696
275.078882	-2.982000	3.803200	-11.340000	22.778478	0.000971	20.815294
276.080495	-2.984500	3.802500	-11.348000	22.784553	0.000970	20.826121
277.080027	-2.985000	3.802200	-11.348000	22.767315	0.000973	20.812647
278.079529	-3.007100	3.801100	-11.428000	22.756449	0.000975	20.826892
279.079005	-2.987800	3.800900	-11.355000	22.756725	0.000973	20.831909
280.080307	-2.982100	3.801100	-11.333000	22.762582	0.000973	20.808854
281.080755	-3.000000	3.800900	-11.402000	22.790509	0.000974	20.801741
282.081326	-2.997200	3.800400	-11.388000	22.786397	0.000974	20.823701
283.086242	-2.997700	3.800400	-11.391000	22.783754	0.000976	20.812519
284.079903	-2.995800	3.799800	-11.382000	22.801539	0.000976	20.810420
285.080425	-2.997500	3.799400	-11.387000	22.803161	0.000976	20.816312
286.079676	-2.974300	3.800100	-11.301000	22.804680	0.000976	20.809299
287.083254	-2.996500	3.798200	-11.379000	22.818352	0.000978	20.801185
288.080487	-3.000800	3.798700	-11.398000	22.818677	0.000978	20.797717
289.084645	-2.980500	3.800800	-11.328000	22.792670	0.000977	20.800587
290.081672	-2.998600	3.798900	-11.390000	22.800745	0.000978	20.817685
291.083390	-3.010600	3.798800	-11.436000	22.795135	0.000978	20.817755
292.086266	-3.012000	3.799500	-11.443000	22.809837	0.000979	20.801663
293.087006	-3.019800	3.798600	-11.469000	22.798847	0.000980	20.793974
294.085046	-3.000100	3.798000	-11.393000	22.810059	0.000978	20.812317
295.085171	-3.008600	3.798200	-11.427000	22.804429	0.000979	20.798616
296.085715	-3.009500	3.797000	-11.425000	22.841894	0.000979	20.823346
297.086095	-3.001800	3.797200	-11.397000	22.847821	0.000981	20.813162
298.089775	-3.001400	3.796200	-11.393000	22.864139	0.000981	20.796320
299.086491	-3.026100	3.796100	-11.486000	22.855171	0.000980	20.807724
300.090133	-2.975600	3.796100	-11.295000	22.859629	0.000983	20.795120
301.086019	-2.979400	3.796200	-11.309000	22.878935	0.000982	20.813513
302.086734	-3.005500	3.795100	-11.404000	22.908900	0.000983	20.796592
303.087567	-2.996500	3.794900	-11.370000	22.930173	0.000982	20.809843
304.087905	-2.996200	3.795600	-11.372000	22.932189	0.000984	20.791001
305.089658	-3.014500	3.794400	-11.437000	22.960433	0.000985	20.790848
306.089971	-3.021100	3.794700	-11.463000	22.969326	0.000983	20.783637
307.089282	-3.010000	3.794300	-11.420000	22.948202	0.000984	20.788078
308.089382	-2.999500	3.793800	-11.379000	22.917662	0.000983	20.788775
309.090909	-3.004300	3.793800	-11.397000	22.956297	0.000987	20.810886
310.088769	-3.018400	3.792300	-11.446000	22.936095	0.000984	20.794914
311.089899	-2.999100	3.794500	-11.379000	22.976622	0.000986	20.804698
312.090070	-3.002500	3.793400	-11.388000	22.983420	0.000987	20.791595
313.088203	-3.015600	3.792700	-11.436000	22.963717	0.000987	20.798406
314.089261	-3.009300	3.792500	-11.410000	22.955198	0.000987	20.786552
315.089256	-2.999000	3.792500	-11.373000	22.958132	0.000987	20.787121
316.095999	-3.012400	3.793800	-11.428000	22.968894	0.000987	20.787472
317.090586	-3.008700	3.791700	-11.408000	22.988646	0.000988	20.781184
318.091546	-2.999100	3.790700	-11.368000	22.995194	0.000988	20.778735
319.092039	-3.009200	3.791000	-11.407000	22.990486	0.000988	20.790614
320.089839	-3.010800	3.789600	-11.408000	23.000103	0.000988	20.792189
321.092289	-2.995500	3.791200	-11.354000	23.000741	0.000988	20.777655
322.091475	-2.994000	3.789800	-11.345000	23.011654	0.000988	20.794279
323.092712	-3.006800	3.789800	-11.394000	23.008342	0.000987	20.794753
324.093622	-3.025600	3.789800	-11.465000	22.952972	0.000989	20.800443
325.094450	-2.977100	3.790200	-11.283000	22.964774	0.000990	20.799940
326.092759	-3.014300	3.788400	-11.418000	22.943009	0.000989	20.791409
327.095643	-2.988700	3.790200	-11.327000	22.936379	0.000991	20.759162
328.095231	-3.015500	3.788700	-11.424000	22.926189	0.000989	20.785938
329.092798	-2.988000	3.788500	-11.318000	22.954762	0.000990	20.781848
330.099076	-3.020500	3.788700	-11.443000	22.970853	0.000990	20.790383
331.092490	-2.996600	3.788500	-11.351000	22.988733	0.000991	20.770365
332.092978	-3.005200	3.788000	-11.381000	23.000716	0.000994	20.783794
333.092751	-2.987900	3.786900	-11.314000	23.006045	0.000992	20.789134
334.092731	-2.987200	3.787600	-11.314000	23.007766	0.000992	20.762881
335.094294	-3.016300	3.786200	-11.419000	23.011428	0.000993	20.776508
336.094897	-3.016700	3.786300	-11.421000	23.049261	0.000994	20.794976
337.096558	-3.009900	3.787000	-11.396000	23.052475	0.000993	20.782549
338.096730	-3.019700	3.786000	-11.431000	23.080370	0.000993	20.762135
339.095495	-2.986900	3.787300	-11.311000	23.079399	0.000995	20.781551
340.098389	-3.005200	3.786500	-11.379000	23.099627	0.000995	20.788070
341.098926	-2.992600	3.786700	-11.331000	23.101816	0.000995	20.765607
342.097005	-3.005000	3.784400	-11.371000	23.135186	0.000997	20.782450
343.098086	-3.006000	3.786200	-11.380000	23.110058	0.000998	20.774340
344.097187	-3.006300	3.782600	-11.371000	23.147192	0.000995	20.762238
345.099608	-2.988400	3.784900	-11.310000	23.147567	0.000997	20.753130
346.098170	-3.011200	3.785000	-11.395000	23.158351	0.000999	20.788119
347.097283	-3.004000	3.784200	-11.366000	23.170830	0.001000	20.762217
348.100069	-2.992500	3.784400	-11.324000	23.196430	0.000998	20.771750
349.098557	-3.015500	3.781500	-11.401000	23.183610	0.000999	20.761747
350.100113	-3.008900	3.781900	-11.377000	23.178100	0.001001	20.785150
351.101303	-3.001400	3.782800	-11.353000	23.199697	0.001002	20.783085
352.098312	-3.009500	3.782000	-11.381000	23.175269	0.001002	20.741535
353.099764	-3.005800	3.781700	-11.366000	23.172673	0.001003	20.785402
354.099405	-2.994900	3.781400	-11.323000	23.164880	0.001003	20.773799
355.099727	-2.986900	3.781000	-11.292000	23.179450	0.001004	20.777494
356.099882	-3.037400	3.779600	-11.478000	23.182762	0.001003	20.763743
357.106472	-2.982000	3.782700	-11.279000	23.192151	0.001004	20.759875
358.099267	-3.006700	3.780400	-11.365000	23.193369	0.001004	20.761570
359.100614	-2.995300	3.780200	-11.322000	23.184729	0.001007	20.765240
360.101250	-3.004000	3.780600	-11.356000	23.227810	0.001006	20.754833
361.102365	-2.997500	3.780000	-11.329000	23.215508	0.001005	20.770954
362.105755	-2.991100	3.779400	-11.302000	23.206864	0.001005	20.775568
363.102057	-2.988900	3.779400	-11.295000	23.188539	0.001006	20.760997
364.104024	-2.990400	3.779100	-11.300000	23.183676	0.001006	20.751382
365.101841	-3.001400	3.778700	-11.340000	23.177401	0.001007	20.755051
366.102724	-2.998500	3.779100	-11.330000	23.217644	0.001008	20.745118
367.102624	-3.024600	3.777400	-11.424000	23.231538	0.001006	20.747663
368.103181	-2.992500	3.779300	-11.309000	23.235969	0.001010	20.759690
369.103357	-3.005900	3.776000	-11.348000	23.272597	0.001009	20.751353
370.104488	-2.985100	3.776600	-11.272000	23.285565	0.001009	20.757711
371.106174	-2.989900	3.776500	-11.289000	23.298216	0.001008	20.761855
372.106296	-2.974900	3.775700	-11.230000	23.295003	0.001009	20.759109
373.107049	-3.005300	3.776600	-11.348000	23.303091	0.001009	20.765793
374.106907	-2.993500	3.776700	-11.305000	23.328762	0.001009	20.736043
375.107950	-3.011200	3.775300	-11.365000	23.347538	0.001011	20.748698
376.105672	-3.002500	3.775800	-11.335000	23.331399	0.001011	20.765714
377.107204	-2.984700	3.775100	-11.266000	23.305625	0.001012	20.761694
378.108776	-3.002500	3.775300	-11.334000	23.271162	0.001010	20.782158
379.107379	-3.006700	3.773700	-11.345000	23.263143	0.001013	20.775544
380.110576	-3.011400	3.773800	-11.364000	23.295414	0.001012	20.768056
381.107026	-3.000400	3.773600	-11.321000	23.292247	0.001013	20.754924
382.107047	-3.001500	3.774000	-11.327000	23.285475	0.001011	20.750982
383.108459	-2.992600	3.775300	-11.296000	23.325985	0.001013	20.753650
384.109713	-3.001300	3.772900	-11.323000	23.332411	0.001011	20.751555
385.106975	-2.993800	3.773300	-11.295000	23.339705	0.001012	20.759340
386.107209	-3.000100	3.773700	-11.320000	23.355741	0.001014	20.759291
387.107990	-2.998600	3.773400	-11.313000	23.339310	0.001015	20.762738
388.107771	-3.019100	3.771000	-11.384000	23.329248	0.001015	20.757868
389.112464	-3.014500	3.770900	-11.366000	23.297151	0.001015	20.745140
390.108253	-2.981800	3.772400	-11.248000	23.262888	0.001015	20.780504
391.107509	-2.985800	3.770900	-11.258000	23.269286	0.001015	20.765104
392.109365	-2.993300	3.769600	-11.282000	23.242042	0.001016	20.758190
393.108638	-3.000200	3.768300	-11.304000	23.269237	0.001015	20.750830
394.111537	-3.013300	3.769600	-11.358000	23.246201	0.001017	20.769945
395.109008	-3.038100	3.769000	-11.449000	23.253920	0.001016	20.763929
396.108205	-2.984200	3.770400	-11.251000	23.237562	0.001017	20.774089
397.108578	-2.985900	3.770200	-11.257000	23.269533	0.001017	20.774361
398.109534	-3.015100	3.768300	-11.359000	23.277531	0.001017	20.765306
399.109553	-2.996300	3.769500	-11.294000	23.305638	0.001017	20.771190
400.111940	-2.996100	3.770000	-11.294000	23.341445	0.001017	20.761558
401.109956	-3.029100	3.768100	-11.412000	23.353717	0.001018	20.762004
402.110203	-3.017300	3.767400	-11.366000	23.357954	0.001017	20.759138
403.109967	-3.002500	3.766700	-11.308000	23.358156	0.001018	20.772143
404.109723	-3.002000	3.767900	-11.310000	23.378342	0.001022	20.765822
405.112461	-3.003800	3.767700	-11.316000	23.393332	0.001018	20.766622
406.110599	-2.993400	3.765400	-11.270000	23.394377	0.001019	20.776204
407.113667	-3.017500	3.767300	-11.366000	23.413798	0.001020	20.782393
408.108407	-3.004700	3.766300	-11.316000	23.432847	0.001020	20.769718
409.112601	-2.986500	3.767400	-11.250000	23.427171	0.001019	20.766873
410.112659	-3.004900	3.765600	-11.314000	23.412152	0.001019	20.781692
411.115205	-3.004700	3.764900	-11.311000	23.470638	0.001019	20.779622
412.108721	-2.997800	3.765400	-11.287000	23.465759	0.001021	20.783267
413.108861	-3.003300	3.764600	-11.306000	23.488712	0.001021	20.781618
414.108656	-3.000700	3.765400	-11.298000	23.479448	0.001020	20.757159
415.110388	-3.003900	3.764000	-11.306000	23.514210	0.001020	20.776357
416.109702	-2.996100	3.764200	-11.276000	23.515477	0.001021	20.770040
417.109990	-3.009900	3.762600	-11.322000	23.494141	0.001022	20.758610
418.109658	-3.012400	3.763000	-11.335000	23.481493	0.001020	20.787658
419.110797	-3.011600	3.763700	-11.333000	23.495289	0.001022	20.768296
420.110991	-3.005600	3.762900	-11.308000	23.494293	0.001020	20.780575
421.114496	-2.991600	3.763100	-11.256000	23.533451	0.001021	20.779049
422.109450	-2.994100	3.762000	-11.263000	23.554539	0.001023	20.770316
423.111279	-2.997600	3.761900	-11.274000	23.543462	0.001022	20.784817
424.110279	-3.012300	3.761900	-11.331000	23.517747	0.001023	20.768048
425.110276	-2.988800	3.761100	-11.239000	23.538432	0.001023	20.745635
426.113958	-3.002500	3.761000	-11.291000	23.564077	0.001023	20.770394
427.110826	-2.995700	3.759900	-11.261000	23.566742	0.001024	20.777334
428.113490	-2.997400	3.759900	-11.269000	23.576428	0.001023	20.774715
429.110686	-2.990400	3.760500	-11.244000	23.582030	0.001025	20.789814
430.111099	-2.979900	3.760200	-11.204000	23.576749	0.001023	20.777408
431.112099	-2.978900	3.759000	-11.197000	23.560223	0.001023	20.763212
432.113548	-3.000900	3.759200	-11.280000	23.527409	0.001023	20.769673
433.111992	-2.994500	3.757900	-11.252000	23.552334	0.001024	20.794659
434.116419	-2.989700	3.758000	-11.233000	23.551437	0.001023	20.781906
435.113049	-2.986800	3.757400	-11.221000	23.571205	0.001026	20.780859
436.112047	-2.977400	3.757900	-11.187000	23.562444	0.001024	20.786301
437.115050	-2.985500	3.757700	-11.218000	23.546411	0.001025	20.756953
438.113050	-2.992300	3.757300	-11.241000	23.555847	0.001026	20.776369
439.117050	-2.989500	3.756500	-11.230000	23.543573	0.001025	20.784928
440.113050	-3.000200	3.756900	-11.270000	23.546465	0.001026	20.779292
441.114051	-2.998000	3.756700	-11.261000	23.567577	0.001025	20.779119
442.117050	-2.985700	3.756700	-11.215000	23.599662	0.001026	20.769083
443.113048	-2.993600	3.755100	-11.240000	23.619704	0.001024	20.793916
444.116050	-2.993500	3.756300	-11.242000	23.620502	0.001027	20.780017
445.115050	-2.991200	3.755400	-11.232000	23.623117	0.001024	20.784536
446.115049	-3.003700	3.753100	-11.271000	23.641789	0.001026	20.783815
447.116051	-2.978200	3.754400	-11.180000	23.663192	0.001027	20.793892
448.121049	-2.972800	3.754700	-11.162000	23.665261	0.001026	20.791698
449.117048	-2.994300	3.754000	-11.240000	23.676241	0.001026	20.775680
450.118050	-2.986000	3.753400	-11.206000	23.680991	0.001028	20.782339
451.116049	-3.003900	3.752400	-11.270000	23.657891	0.001029	20.782887
452.117049	-3.006000	3.752200	-11.278000	23.657521	0.001028	20.790103
453.119050	-2.991700	3.752200	-11.225000	23.657747	0.001028	20.793174
454.117049	-3.024900	3.751500	-11.346000	23.672828	0.001028	20.801655
455.119054	-3.013000	3.751200	-11.302000	23.685922	0.001030	20.780644
456.116049	-3.021800	3.751100	-11.334000	23.709343	0.001032	20.776150
457.115396	-2.994400	3.751800	-11.234000	23.701723	0.001030	20.779890
458.118432	-3.003200	3.751300	-11.265000	23.677557	0.001030	20.793121
459.118397	-2.980100	3.751700	-11.178000	23.706847	0.001031	20.791665
460.115395	-2.987500	3.751000	-11.205000	23.704334	0.001029	20.771602
461.115396	-2.994200	3.750400	-11.228000	23.686186	0.001028	20.798926
462.116395	-3.002000	3.749700	-11.255000	23.707065	0.001031	20.801367
463.123398	-2.996100	3.749000	-11.231000	23.665771	0.001031	20.785572
464.119397	-3.002700	3.747400	-11.251000	23.678265	0.001030	20.791459
465.117396	-2.984700	3.747600	-11.184000	23.669427	0.001029	20.800143
466.117395	-2.989700	3.748700	-11.207000	23.712860	0.001031	20.812392
467.117403	-2.996200	3.747900	-11.228000	23.711638	0.001029	20.805478
468.125399	-3.018900	3.746400	-11.307000	23.737798	0.001031	20.803256
469.118397	-3.002100	3.749000	-11.254000	23.741729	0.001030	20.805301
470.117398	-3.000900	3.745400	-11.237000	23.754095	0.001031	20.781663
471.118397	-2.995600	3.747200	-11.224000	23.790781	0.001029	20.811333
472.117397	-3.003900	3.746000	-11.252000	23.775648	0.001030	20.815126
473.119397	-3.000700	3.745500	-11.239000	23.741845	0.001029	20.794037
474.120399	-2.997200	3.745300	-11.225000	23.765017	0.001031	20.792140
475.118397	-3.012400	3.746200	-11.283000	23.798166	0.001032	20.802617
476.118397	-3.009000	3.745500	-11.269000	23.799133	0.001031	20.796000
477.119397	-3.012500	3.743600	-11.276000	23.814837	0.001032	20.812694
478.118396	-3.017500	3.744700	-11.298000	23.834094	0.001032	20.810192
479.119566	-3.007000	3.743800	-11.257000	23.862368	0.001031	20.799661
480.125469	-3.007700	3.743600	-11.259000	23.850546	0.001032	20.806299
481.121782	-3.003700	3.743500	-11.242000	23.878918	0.001031	20.820998
482.121722	-2.990600	3.743000	-11.193000	23.877047	0.001032	20.833346
483.124532	-2.995600	3.744300	-11.215000	23.901336	0.001032	20.813131
484.121824	-3.019700	3.741500	-11.296000	23.890707	0.001032	20.822388
485.121934	-2.986100	3.742200	-11.173000	23.896459	0.001034	20.785482
486.123202	-3.019300	3.742500	-11.298000	23.890156	0.001034	20.806188
487.124418	-3.001900	3.741100	-11.230000	23.910439	0.001032	20.822734
488.136205	-3.000700	3.742400	-11.228000	23.886768	0.001034	20.824128
489.126705	-3.001500	3.741900	-11.230000	23.861682	0.001034	20.813672
490.125232	-3.012500	3.740500	-11.266000	23.831019	0.001034	20.805686
491.125111	-3.031700	3.740100	-11.337000	23.854387	0.001031	20.798771
492.123927	-2.975500	3.741900	-11.133000	23.848536	0.001033	20.802862
493.125079	-3.007900	3.739000	-11.245000	23.863993	0.001035	20.819308
494.127759	-2.990500	3.741200	-11.186000	23.887632	0.001036	20.803657
495.127440	-3.010700	3.738400	-11.253000	23.910230	0.001036	20.834378
496.127935	-3.006100	3.738800	-11.238000	23.908910	0.001033	20.821201
497.129048	-3.002700	3.739400	-11.227000	23.906994	0.001034	20.824969
498.129533	-3.012500	3.737900	-11.260000	23.910247	0.001034	20.825386
499.130520	-3.007300	3.737400	-11.238000	23.915724	0.001036	20.817602
500.130075	-3.013000	3.736900	-11.258000	23.938889	0.001037	20.823762
501.135540	-3.011200	3.736800	-11.251000	23.939288	0.001035	20.808515
502.133563	-3.015300	3.736200	-11.264000	23.935353	0.001034	20.817371
503.134105	-3.027100	3.736000	-11.308000	23.938215	0.001035	20.818818
504.131658	-3.001100	3.735800	-11.211000	23.961310	0.001037	20.827753
505.135973	-2.991200	3.735600	-11.173000	23.969344	0.001035	20.831068
506.130882	-2.998100	3.736600	-11.201000	23.958370	0.001036	20.832865
507.133841	-3.003100	3.734700	-11.215000	23.923006	0.001035	20.826326
508.136282	-3.012600	3.735700	-11.254000	23.932936	0.001037	20.832016
509.134441	-2.993200	3.734800	-11.178000	23.937064	0.001036	20.832363
510.135064	-3.000600	3.733500	-11.201000	23.938803	0.001036	20.823676
511.137045	-2.997700	3.735200	-11.196000	23.960948	0.001036	20.809373
512.137304	-2.977200	3.735300	-11.119000	23.963633	0.001035	20.846204
513.136627	-3.002200	3.733200	-11.207000	23.984536	0.001037	20.861475
514.139550	-3.000500	3.733100	-11.200000	24.016613	0.001036	20.824418
515.135383	-2.988600	3.734200	-11.160000	24.029054	0.001034	20.856808
516.136514	-3.000200	3.732500	-11.197000	24.044053	0.001035	20.828228
517.141718	-2.999400	3.732800	-11.195000	24.043428	0.001035	20.826653
518.136679	-2.995300	3.732000	-11.178000	24.030786	0.001036	20.823932
519.137617	-3.015400	3.731700	-11.252000	24.036784	0.001037	20.856973
520.141520	-3.005300	3.731500	-11.213000	24.035090	0.001035	20.824456
521.139538	-3.004100	3.731600	-11.209000	24.012540	0.001035	20.848781
522.139001	-3.004000	3.730100	-11.204000	24.042503	0.001034	20.846114
523.144408	-2.969600	3.731300	-11.079000	24.035605	0.001036	20.842989
524.138410	-3.010100	3.730600	-11.227000	24.067528	0.001035	20.844659
525.139422	-3.020000	3.728300	-11.259000	24.062497	0.001036	20.839139
526.143971	-3.016600	3.727900	-11.244000	24.030248	0.001034	20.836669
527.139866	-3.013900	3.728600	-11.237000	24.018174	0.001034	20.843526
528.139245	-3.002100	3.729200	-11.195000	24.019793	0.001037	20.863641
529.142671	-3.004100	3.729000	-11.201000	23.994529	0.001037	20.852530
530.139175	-2.996100	3.727900	-11.167000	23.997338	0.001036	20.835907
531.140546	-2.986500	3.728600	-11.134000	24.023285	0.001035	20.854815
532.141799	-2.992300	3.728500	-11.156000	24.019132	0.001036	20.844487
533.141990	-3.008900	3.727500	-11.215000	24.032416	0.001036	20.863024
534.140585	-3.012800	3.727200	-11.229000	24.048787	0.001038	20.858579
535.145437	-2.997300	3.726100	-11.167000	24.026689	0.001035	20.863445
536.144259	-3.018400	3.725900	-11.245000	24.049799	0.001035	20.870025
537.142951	-3.005300	3.726100	-11.198000	24.059699	0.001037	20.848187
538.146475	-3.014400	3.724600	-11.227000	24.089008	0.001035	20.864777
539.144012	-2.985800	3.725600	-11.122000	24.081365	0.001035	20.846682
540.144205	-3.002000	3.725500	-11.183000	24.089949	0.001037	20.853394
541.146676	-2.983200	3.726200	-11.114000	24.126373	0.001036	20.855786
542.145303	-2.971300	3.725500	-11.068000	24.124754	0.001035	20.857006
543.145304	-3.003200	3.724500	-11.184000	24.102724	0.001034	20.856249
544.158666	-2.998900	3.724500	-11.168000	24.110189	0.001035	20.846193
545.144670	-3.000700	3.724600	-11.176000	24.137905	0.001037	20.868774
546.145491	-2.982900	3.723900	-11.107000	24.133647	0.001036	20.852650
547.150964	-2.989300	3.722800	-11.128000	24.116599	0.001036	20.879172
548.147965	-2.985500	3.723700	-11.115000	24.137273	0.001035	20.868140
549.148946	-2.966500	3.723900	-11.046000	24.103255	0.001034	20.868635
550.148178	-2.988500	3.722000	-11.122000	24.100588	0.001035	20.870227
551.148806	-3.008300	3.720800	-11.192000	24.118426	0.001034	20.865358
552.148743	-3.011000	3.721200	-11.204000	24.101328	0.001036	20.851056
553.158519	-3.006200	3.721300	-11.186000	24.051633	0.001036	20.871864
554.149912	-3.003700	3.721500	-11.177000	24.075742	0.001035	20.874705
555.156611	-3.000600	3.719400	-11.160000	24.054368	0.001036	20.880770
556.155054	-3.012800	3.719500	-11.206000	24.079816	0.001034	20.872628
557.151115	-3.003100	3.720200	-11.170000	24.101137	0.001035	20.873622
558.151102	-3.006500	3.719100	-11.181000	24.113926	0.001036	20.870328
559.155987	-2.981800	3.720300	-11.091000	24.122876	0.001034	20.866977
560.154133	-3.001200	3.719300	-11.161000	24.137634	0.001035	20.874666
561.151901	-3.000500	3.718900	-11.156000	24.148730	0.001035	20.895275
562.156402	-3.008600	3.718900	-11.188000	24.138371	0.001035	20.869241
563.153700	-2.994400	3.717500	-11.131000	24.137479	0.001035	20.883518
564.150265	-3.003800	3.718700	-11.169000	24.136805	0.001033	20.893272
565.155189	-3.000900	3.717700	-11.155000	24.150214	0.001032	20.891075
566.154937	-3.015500	3.716800	-11.207000	24.162608	0.001033	20.875058
567.152454	-3.002800	3.716900	-11.160000	24.143621	0.001033	20.880195
568.157052	-2.990300	3.717800	-11.117000	24.121348	0.001032	20.890098
569.155253	-3.001200	3.717700	-11.157000	24.113512	0.001032	20.880818
570.155916	-3.001500	3.715100	-11.150000	24.070067	0.001031	20.888453
571.154219	-2.999100	3.715400	-11.142000	24.120628	0.001031	20.888429
572.153867	-2.982300	3.716500	-11.082000	24.132028	0.001031	20.890378
573.153494	-2.998500	3.714500	-11.137000	24.146005	0.001032	20.895862
574.154164	-3.001700	3.715200	-11.151000	24.182632	0.001032	20.891822
575.154548	-3.006700	3.715200	-11.169000	24.214707	0.001031	20.864252
576.155275	-3.010800	3.712600	-11.177000	24.217564	0.001031	20.904573
577.154291	-3.018600	3.713700	-11.210000	24.215353	0.001031	20.899984
578.155726	-3.001100	3.712900	-11.142000	24.193611	0.001031	20.893825
579.157593	-2.991100	3.714400	-11.110000	24.205257	0.001031	20.885117
580.157256	-2.989600	3.713800	-11.102000	24.177242	0.001030	20.887364
581.155579	-2.993500	3.713200	-11.114000	24.187494	0.001029	20.897172
582.155337	-3.019600	3.712500	-11.209000	24.223150	0.001029	20.903537
583.157169	-3.001800	3.712200	-11.142000	24.216186	0.001031	20.880433
584.155110	-3.000200	3.712500	-11.137000	24.183222	0.001030	20.893836
585.162390	-3.003000	3.711500	-11.144000	24.167125	0.001030	20.915620
586.156562	-2.994500	3.710800	-11.110000	24.150710	0.001030	20.907692
587.160548	-2.992900	3.710800	-11.106000	24.144963	0.001031	20.890549
588.160454	-3.023100	3.709800	-11.214000	24.158199	0.001030	20.907143
589.161381	-3.010000	3.708300	-11.161000	24.168455	0.001031	20.913162
590.159616	-2.996200	3.709600	-11.114000	24.204757	0.001031	20.916382
591.159667	-3.001700	3.711500	-11.139000	24.230365	0.001032	20.900344
592.161623	-3.002100	3.708700	-11.132000	24.241957	0.001029	20.896324
593.158978	-3.005200	3.708800	-11.145000	24.240066	0.001031	20.907703
594.161366	-3.032400	3.708000	-11.243000	24.231216	0.001030	20.922532
595.159134	-3.010800	3.708900	-11.166000	24.274803	0.001030	20.918838
596.159878	-2.998900	3.709200	-11.123000	24.279209	0.001030	20.900500
597.159622	-3.022100	3.706500	-11.199000	24.269057	0.001031	20.910704
598.160906	-2.986800	3.708200	-11.074000	24.254206	0.001029	20.907661
599.160288	-2.997100	3.706800	-11.109000	24.221243	0.001030	20.933390
600.160992	-2.978000	3.709800	-11.047000	24.215948	0.001028	20.919546
601.161098	-3.001700	3.706800	-11.126000	24.197636	0.001030	20.908291
602.162280	-3.016400	3.705700	-11.176000	24.179824	0.001029	20.896117
603.164855	-2.987700	3.706400	-11.072000	24.209560	0.001029	20.916932
604.163735	-2.998000	3.704900	-11.107000	24.229040	0.001028	20.908971
605.164702	-2.979600	3.705800	-11.041000	24.258845	0.001028	20.894772
606.167598	-3.003100	3.703800	-11.123000	24.258849	0.001029	20.929860
607.166064	-2.992600	3.704700	-11.086000	24.233122	0.001030	20.909746
608.168156	-3.001700	3.703900	-11.115000	24.237577	0.001030	20.906629
609.164886	-2.980700	3.705100	-11.043000	24.239225	0.001030	20.906859
610.168716	-2.998200	3.703300	-11.102000	24.259728	0.001027	20.899925
611.169516	-3.020000	3.702100	-11.179000	24.288488	0.001028	20.920237
612.167032	-2.993300	3.705100	-11.089000	24.294362	0.001028	20.922810
613.166743	-2.990300	3.704300	-11.076000	24.343248	0.001028	20.918744
614.168941	-3.001500	3.703300	-11.115000	24.332652	0.001027	20.935140
615.168207	-2.999500	3.702000	-11.104000	24.339792	0.001027	20.910062
616.169089	-2.995900	3.701200	-11.088000	24.332134	0.001028	20.933672
617.169189	-2.996000	3.701000	-11.086000	24.329845	0.001028	20.927583
618.168854	-3.017500	3.699600	-11.162000	24.330050	0.001028	20.913566
619.174201	-2.992300	3.700100	-11.071000	24.332244	0.001028	20.906285
620.172367	-2.997900	3.700500	-11.092000	24.318512	0.001027	20.911001
621.173011	-2.995300	3.701200	-11.085000	24.321475	0.001028	20.909706
622.172829	-2.996000	3.701100	-11.087000	24.274754	0.001027	20.905039
623.174589	-3.010000	3.700300	-11.137000	24.288811	0.001027	20.906812
624.173090	-3.000000	3.699900	-11.098000	24.262122	0.001028	20.917972
625.171769	-3.011200	3.700000	-11.141000	24.292498	0.001028	20.909561
626.175786	-2.998700	3.698700	-11.091000	24.299440	0.001028	20.911784
627.172750	-2.985900	3.699000	-11.044000	24.262599	0.001027	20.895692
628.179330	-2.997800	3.697300	-11.083000	24.262549	0.001027	20.895643
629.177582	-3.003300	3.698200	-11.106000	24.298227	0.001026	20.901085
630.173931	-2.997400	3.699300	-11.087000	24.312111	0.001026	20.903632
631.175208	-2.990300	3.698500	-11.059000	24.304351	0.001027	20.890159
632.177498	-2.980500	3.698600	-11.022000	24.277207	0.001027	20.896121
633.180446	-2.990700	3.696400	-11.055000	24.280795	0.001026	20.906357
634.177607	-2.999700	3.695700	-11.085000	24.305851	0.001026	20.903516
635.177536	-3.004100	3.696500	-11.103000	24.331745	0.001026	20.892983
636.177817	-3.003200	3.695300	-11.096000	24.315654	0.001027	20.898652
637.177261	-2.997900	3.696700	-11.081000	24.352472	0.001026	20.900973
638.177445	-2.993000	3.695700	-11.060000	24.373117	0.001025	20.895605
639.177309	-2.992700	3.694200	-11.055000	24.373093	0.001024	20.897951
640.175711	-2.998900	3.694700	-11.079000	24.380782	0.001024	20.893811
641.180862	-3.006000	3.694000	-11.102000	24.372324	0.001027	20.894335
642.175828	-2.992600	3.694600	-11.055000	24.390658	0.001025	20.882383
643.189150	-2.999100	3.694200	-11.078000	24.410933	0.001026	20.891816
644.180402	-2.991000	3.693400	-11.046000	24.421923	0.001025	20.890988
645.180968	-2.982600	3.693900	-11.016000	24.422970	0.001024	20.890616
646.180102	-2.988200	3.693600	-11.037000	24.420981	0.001024	20.898577
647.181286	-2.985600	3.692000	-11.021000	24.425905	0.001023	20.880285
648.179308	-2.977900	3.691600	-10.991000	24.470253	0.001024	20.897749
649.179092	-2.997200	3.692800	-11.068000	24.474905	0.001025	20.882977
650.182360	-2.997800	3.691800	-11.065000	24.469460	0.001023	20.877514
651.179950	-3.023200	3.690600	-11.156000	24.481447	0.001022	20.874843
652.183714	-3.000700	3.692500	-11.079000	24.524302	0.001025	20.878483
653.182627	-2.998700	3.690600	-11.066000	24.519378	0.001022	20.869751
654.182402	-3.006400	3.691100	-11.095000	24.567031	0.001023	20.886741
655.183256	-3.012400	3.690300	-11.114000	24.536585	0.001023	20.888910
656.181844	-2.986100	3.691200	-11.022000	24.528900	0.001023	20.886890
657.182261	-2.981100	3.690100	-10.999000	24.513453	0.001022	20.868548
658.180591	-3.016100	3.688900	-11.125000	24.495293	0.001022	20.865027
659.185225	-2.998000	3.688800	-11.058000	24.538570	0.001022	20.884738
660.183882	-3.022400	3.687700	-11.143000	24.516437	0.001021	20.853524
661.182421	-2.994600	3.688200	-11.044000	24.509697	0.001021	20.874262
662.183825	-2.990800	3.688100	-11.029000	24.524125	0.001020	20.885418
663.183180	-2.969100	3.689700	-10.953000	24.539967	0.001021	20.887562
664.185899	-3.000500	3.688000	-11.064000	24.560086	0.001022	20.885464
665.183301	-3.004400	3.685900	-11.072000	24.548198	0.001020	20.896768
666.185466	-2.998800	3.687700	-11.058000	24.528255	0.001018	20.863011
667.183603	-3.004100	3.686800	-11.074000	24.494451	0.001019	20.876983
668.184300	-2.974400	3.686400	-10.963000	24.458878	0.001019	20.868795
669.187629	-2.981500	3.686800	-10.991000	24.437713	0.001019	20.867476
670.185570	-3.009200	3.686000	-11.091000	24.429107	0.001021	20.861213
671.183959	-2.976200	3.687900	-10.975000	24.463707	0.001020	20.870795
672.185628	-2.990300	3.685500	-11.018000	24.425421	0.001020	20.860834
673.185579	-2.997000	3.685000	-11.043000	24.404279	0.001018	20.856220
674.183873	-3.023400	3.683300	-11.136000	24.438259	0.001019	20.851430
675.187452	-3.011000	3.684000	-11.091000	24.454550	0.001020	20.857342
676.185275	-3.009300	3.684400	-11.085000	24.485298	0.001019	20.885344
677.188991	-3.013400	3.682000	-11.094000	24.502238	0.001018	20.855874
678.186613	-3.008700	3.684000	-11.083000	24.523353	0.001016	20.857618
679.186287	-3.006600	3.683100	-11.073000	24.529270	0.001018	20.847435
680.186329	-2.996900	3.684100	-11.040000	24.554867	0.001018	20.864107
681.187491	-2.986900	3.683700	-11.002000	24.560563	0.001016	20.868399
682.188045	-3.001600	3.682800	-11.053000	24.585387	0.001018	20.864383
683.187239	-3.022000	3.681000	-11.123000	24.576856	0.001018	20.857247
684.188601	-3.008300	3.683200	-11.079000	24.601577	0.001019	20.840801
685.190211	-2.996800	3.682100	-11.033000	24.632814	0.001017	20.858867
686.191422	-2.987400	3.681800	-10.999000	24.645774	0.001017	20.849112
687.192401	-2.996300	3.680200	-11.026000	24.666833	0.001016	20.845114
688.192603	-3.005800	3.679100	-11.057000	24.670691	0.001017	20.850881
689.191100	-3.006900	3.680100	-11.065000	24.691506	0.001017	20.874612
690.191624	-2.992700	3.680800	-11.015000	24.707941	0.001015	20.838002
691.193727	-3.002600	3.678900	-11.045000	24.688544	0.001016	20.853149
692.193573	-3.000000	3.680500	-11.040000	24.669068	0.001015	20.857313
693.190824	-3.009100	3.679900	-11.071000	24.652209	0.001015	20.867896
694.195554	-3.010600	3.677800	-11.072000	24.616144	0.001015	20.843089
695.192815	-2.989000	3.680300	-10.998000	24.627383	0.001015	20.847254
696.193784	-3.002700	3.677600	-11.042000	24.641957	0.001016	20.860929
697.200309	-2.991200	3.678800	-11.002000	24.629220	0.001013	20.844356
698.194165	-3.011700	3.676100	-11.070000	24.629146	0.001015	20.848549
699.196449	-3.001800	3.676900	-11.036000	24.662843	0.001015	20.842059
700.195424	-2.997100	3.675700	-11.016000	24.654211	0.001013	20.863267
701.191803	-3.002300	3.676200	-11.036000	24.677290	0.001014	20.824788
702.195984	-3.005300	3.677300	-11.051000	24.698201	0.001014	20.841503
703.195599	-2.984900	3.676600	-10.973000	24.683479	0.001013	20.838584
704.194212	-3.020000	3.675100	-11.098000	24.663732	0.001013	20.855278
705.196010	-2.993300	3.675200	-11.001000	24.665667	0.001012	20.857220
706.195591	-2.997800	3.676300	-11.020000	24.685961	0.001013	20.835385
707.194742	-3.017200	3.675900	-11.089000	24.685016	0.001011	20.848187
708.195681	-3.019200	3.675200	-11.095000	24.694064	0.001011	20.838300
709.198813	-3.011100	3.673800	-11.061000	24.704541	0.001011	20.860192
710.193387	-3.008400	3.675600	-11.057000	24.689367	0.001012	20.838803
711.200756	-3.006400	3.674800	-11.047000	24.684741	0.001010	20.846488
712.195390	-2.999700	3.675500	-11.024000	24.676630	0.001011	20.848307
713.194154	-2.983700	3.674200	-10.961000	24.662754	0.001008	20.825849
714.201725	-3.001600	3.673800	-11.026000	24.641585	0.001010	20.825470
715.200504	-2.993600	3.675000	-11.000000	24.623329	0.001007	20.835126
716.197042	-2.995000	3.672100	-10.996000	24.658000	0.001010	20.846682
717.199119	-2.998100	3.672400	-11.009000	24.655909	0.001010	20.852170
718.198655	-2.998500	3.672000	-11.009000	24.663523	0.001009	20.852697
719.196569	-2.966900	3.674400	-10.901000	24.700893	0.001008	20.834722
720.205647	-2.991100	3.670400	-10.977000	24.701370	0.001009	20.833778
721.197806	-2.995300	3.672300	-10.998000	24.678812	0.001009	20.850022
722.198545	-3.001500	3.670600	-11.015000	24.644840	0.001008	20.857184
723.204545	-2.970600	3.670900	-10.904000	24.636182	0.001008	20.829057
724.207083	-2.994200	3.670500	-10.989000	24.613274	0.001010	20.832624
725.199580	-2.976100	3.671000	-10.924000	24.615962	0.001007	20.838165
726.203669	-2.995000	3.669400	-10.987000	24.586935	0.001008	20.826584
727.201953	-2.986400	3.670000	-10.959000	24.619093	0.001007	20.835617
728.202594	-2.981600	3.669900	-10.940000	24.618772	0.001006	20.847623
729.203067	-2.999900	3.669500	-11.006000	24.632892	0.001006	20.827178
730.200253	-3.021900	3.667600	-11.083000	24.634535	0.001006	20.835939
731.201523	-3.000300	3.668600	-11.005000	24.661596	0.001008	20.841756
732.207998	-3.027500	3.666700	-11.100000	24.638192	0.001007	20.841979
733.205524	-3.009500	3.668100	-11.038000	24.666889	0.001006	20.841377
734.203490	-2.992800	3.667400	-10.974000	24.705290	0.001004	20.832970
735.205184	-2.991300	3.667200	-10.968000	24.692853	0.001006	20.820016
736.204797	-3.001500	3.667000	-11.005000	24.708520	0.001005	20.851384
737.203554	-3.017700	3.665000	-11.059000	24.697681	0.001003	20.829602
738.207366	-2.992800	3.667300	-10.974000	24.734035	0.001005	20.833366
739.204493	-2.982800	3.666900	-10.936000	24.755896	0.001005	20.831597
740.203526	-2.980600	3.665000	-10.923000	24.701979	0.001003	20.827277
741.203738	-2.980100	3.665000	-10.921000	24.720981	0.001005	20.841130
742.204419	-3.004900	3.663600	-11.006000	24.725456	0.001003	20.822387
743.204520	-2.994200	3.665700	-10.974000	24.726849	0.001000	20.820940
744.205465	-3.012700	3.664000	-11.037000	24.712970	0.001003	20.820288
745.204723	-3.014300	3.663100	-11.041000	24.715233	0.001004	20.832043
746.205277	-3.006200	3.664700	-11.015000	24.745502	0.001004	20.835865
747.206551	-3.002400	3.663400	-10.998000	24.736323	0.001004	20.837559
748.205788	-3.034900	3.661700	-11.112000	24.755219	0.001002	20.830443
749.206170	-3.015300	3.663500	-11.045000	24.751270	0.001003	20.841179
750.206956	-2.982200	3.664600	-10.927000	24.744479	0.001001	20.824407
751.205657	-3.015000	3.660000	-11.033000	24.767655	0.001002	20.814001
752.206703	-2.989700	3.662100	-10.948000	24.779171	0.001001	20.822713
753.208514	-3.001700	3.661400	-10.989000	24.774545	0.001002	20.797208
754.205982	-2.985200	3.663000	-10.933000	24.756189	0.001000	20.831417
755.209132	-3.003100	3.660600	-10.992000	24.748135	0.001001	20.803421
756.210096	-2.973800	3.663000	-10.892000	24.720254	0.001000	20.830918
757.209262	-2.992000	3.660600	-10.951000	24.736467	0.001000	20.806885
758.207835	-3.002100	3.660600	-10.988000	24.739602	0.000996	20.821410
759.209951	-3.007100	3.661300	-11.009000	24.718960	0.000999	20.808282
760.209929	-2.991700	3.659500	-10.947000	24.751390	0.001000	20.805738
761.209478	-3.010300	3.658600	-11.013000	24.758230	0.000997	20.810707
762.209974	-2.986500	3.660500	-10.931000	24.757109	0.000997	20.824280
763.211064	-2.993200	3.660200	-10.955000	24.773773	0.000999	20.817769
764.208981	-3.018800	3.659900	-11.047000	24.793818	0.000996	20.826032
765.209509	-2.987800	3.659200	-10.932000	24.769668	0.001000	20.816021
766.211575	-3.017000	3.658700	-11.038000	24.799611	0.000998	20.811931
767.210751	-3.001300	3.659100	-10.980000	24.806102	0.000997	20.810859
768.223889	-2.989900	3.660000	-10.941000	24.818484	0.000997	20.819967
769.215310	-3.003200	3.657900	-10.984000	24.800231	0.000997	20.809709
770.211585	-2.987800	3.657600	-10.927000	24.815728	0.000998	20.814355
771.211275	-2.999100	3.657200	-10.967000	24.809882	0.000997	20.808488
772.215597	-3.001200	3.657000	-10.974000	24.854613	0.000996	20.796482
773.210267	-3.000000	3.656200	-10.967000	24.834301	0.000994	20.812607
774.215964	-3.025000	3.655500	-11.056000	24.852156	0.000995	20.819620
775.214921	-3.009300	3.655700	-11.000000	24.847784	0.000994	20.812388
776.213561	-2.985600	3.656300	-10.915000	24.828213	0.000994	20.799858
777.213141	-2.986400	3.657200	-10.920000	24.817395	0.000996	20.810813
778.215823	-2.984400	3.655300	-10.908000	24.756817	0.000996	20.821616
779.215370	-2.991100	3.656200	-10.934000	24.774175	0.000995	20.807268
780.214176	-2.977900	3.655400	-10.883000	24.736923	0.000992	20.801178
781.219011	-3.006200	3.653300	-10.981000	24.730484	0.000993	20.801829
782.214169	-2.987100	3.654600	-10.916000	24.765896	0.000994	20.799908
783.216598	-3.003300	3.652900	-10.969000	24.769951	0.000993	20.804925
784.216256	-2.964300	3.654600	-10.832000	24.811504	0.000990	20.798737
785.213852	-2.982500	3.653100	-10.893000	24.775300	0.000991	20.807448
786.214054	-2.993700	3.652800	-10.935000	24.760226	0.000990	20.808917
787.214822	-3.001500	3.653100	-10.965000	24.779323	0.000989	20.834244
788.216456	-2.997300	3.650600	-10.941000	24.772786	0.000988	20.786908
789.214998	-2.980800	3.652200	-10.885000	24.791340	0.000989	20.803631
790.219773	-2.998300	3.651600	-10.947000	24.765078	0.000988	20.787707
791.216562	-3.013000	3.651000	-10.999000	24.802231	0.000986	20.785163
792.217603	-2.997800	3.650700	-10.942000	24.836527	0.000989	20.816263
793.220718	-2.974900	3.651800	-10.864000	24.845179	0.000988	20.796497
794.217170	-3.016700	3.650700	-11.012000	24.868103	0.000988	20.785839
795.215525	-3.025000	3.649300	-11.038000	24.856049	0.000985	20.789863
796.215939	-3.014000	3.650000	-11.000000	24.868657	0.000985	20.792559
797.218428	-3.027500	3.648000	-11.041000	24.859751	0.000986	20.771767
798.218802	-2.992200	3.649000	-10.918000	24.878578	0.000984	20.782128
799.221779	-2.993600	3.648300	-10.920000	24.878627	0.000983	20.792135
800.219273	-2.994200	3.648700	-10.924000	24.878804	0.000982	20.787570
801.219058	-2.988300	3.648400	-10.902000	24.925947	0.000982	20.786997
802.223320	-2.988500	3.647800	-10.900000	24.916351	0.000982	20.787797
803.221250	-2.994100	3.648700	-10.924000	24.922644	0.000981	20.787949
804.221204	-3.007200	3.646900	-10.965000	24.952924	0.000982	20.792737
805.222125	-3.031800	3.646900	-11.055000	24.938283	0.000981	20.801275
806.222322	-2.985200	3.648700	-10.889000	24.929780	0.000981	20.777567
807.221807	-2.993900	3.646800	-10.917000	24.944375	0.000982	20.793639
808.223126	-3.031100	3.644300	-11.045000	24.934010	0.000981	20.783236
809.221554	-2.967500	3.647000	-10.821000	24.924817	0.000979	20.774957
810.219886	-3.004900	3.646700	-10.957000	24.960617	0.000980	20.788604
811.223629	-3.013300	3.645100	-10.983000	24.950203	0.000980	20.795222
812.222489	-3.001200	3.645000	-10.939000	24.972106	0.000980	20.772161
813.218610	-2.996900	3.646000	-10.925000	24.978325	0.000980	20.784567
814.224314	-3.021200	3.643800	-11.007000	24.980884	0.000979	20.797568
815.223327	-2.990700	3.643900	-10.896000	24.968458	0.000976	20.779405
816.223557	-3.003000	3.644000	-10.941000	24.932358	0.000979	20.781578
817.223886	-2.990200	3.643800	-10.895000	24.915203	0.000977	20.771472
818.224146	-3.003800	3.645200	-10.949000	24.933081	0.000976	20.764285
819.221536	-3.008100	3.643800	-10.960000	24.931914	0.000978	20.777813
820.223779	-2.999400	3.643600	-10.927000	24.945819	0.000976	20.757630
821.223215	-3.017000	3.643100	-10.989000	24.973243	0.000977	20.776147
822.222246	-3.001100	3.641400	-10.927000	24.980258	0.000976	20.790776
823.225399	-3.031500	3.642200	-11.040000	25.025187	0.000977	20.763328
824.224250	-3.020300	3.640200	-10.993000	24.986999	0.000977	20.770040
825.226562	-3.025300	3.640100	-11.010000	24.982455	0.000976	20.772118
826.228305	-3.004500	3.642800	-10.943000	24.974873	0.000976	20.768774
827.227724	-3.023500	3.640100	-11.005000	24.935618	0.000974	20.777263
828.223562	-3.017900	3.639100	-10.982000	24.924880	0.000974	20.774546
829.229145	-3.004400	3.639400	-10.933000	24.941611	0.000972	20.740130
830.232343	-3.007500	3.640700	-10.948000	24.959246	0.000973	20.769210
831.227341	-2.986000	3.641200	-10.872000	24.971360	0.000974	20.774257
832.231951	-2.995900	3.639200	-10.902000	24.986550	0.000973	20.760106
833.226881	-2.995700	3.640000	-10.903000	24.974995	0.000971	20.758939
834.228586	-3.008200	3.638900	-10.945000	24.966471	0.000973	20.764134
835.231172	-3.002800	3.639500	-10.927000	24.959984	0.000972	20.758098
836.230870	-3.003500	3.639500	-10.929000	24.962548	0.000973	20.751661
837.230555	-3.001300	3.638100	-10.917000	24.965460	0.000972	20.782086
838.233090	-3.004600	3.638100	-10.929000	24.985329	0.000970	20.742759
839.231906	-2.979400	3.637700	-10.838000	25.009819	0.000972	20.771609
840.229943	-2.990600	3.638000	-10.878000	24.993741	0.000972	20.770169
841.235062	-2.984600	3.638100	-10.856000	25.005530	0.000972	20.760191
842.232051	-2.978700	3.638200	-10.835000	24.947652	0.000969	20.756624
843.231084	-3.010100	3.636400	-10.945000	24.965808	0.000970	20.755882
844.237023	-3.001800	3.636500	-10.915000	24.968519	0.000970	20.749594
845.231283	-2.989900	3.635400	-10.868000	24.980206	0.000970	20.732400
846.231302	-3.000300	3.634900	-10.905000	24.993859	0.000969	20.770288
847.234201	-3.008800	3.635300	-10.937000	25.000300	0.000971	20.755890
848.234994	-2.984500	3.634700	-10.846000	25.019072	0.000971	20.760508
849.232754	-3.005200	3.634600	-10.920000	25.040160	0.000971	20.741372
850.238166	-3.012000	3.633600	-10.944000	25.015297	0.000969	20.767150
851.235749	-3.005100	3.633800	-10.918000	25.004465	0.000969	20.744897
852.234104	-2.999400	3.633400	-10.897000	25.000760	0.000970	20.755877
853.237618	-3.009800	3.634300	-10.938000	25.019359	0.000971	20.766012
854.235749	-2.991800	3.633000	-10.868000	25.033505	0.000968	20.765513
855.234318	-3.001000	3.633600	-10.903000	25.043178	0.000970	20.751515
856.238375	-2.990900	3.631800	-10.861000	25.062348	0.000970	20.740411
857.234415	-2.987400	3.633300	-10.853000	25.036319	0.000967	20.756957
858.237982	-3.003700	3.632100	-10.909000	25.041120	0.000967	20.726688
859.237134	-3.022600	3.631400	-10.976000	25.038857	0.000967	20.749548
860.237627	-3.006900	3.633200	-10.924000	25.027003	0.000967	20.767521
861.235878	-3.024800	3.629800	-10.979000	25.047614	0.000966	20.758812
862.240825	-2.982800	3.631000	-10.829000	25.050493	0.000965	20.729459
863.241266	-2.996400	3.630600	-10.878000	25.058877	0.000966	20.734555
864.237698	-2.992900	3.630200	-10.864000	25.078916	0.000966	20.760837
865.240128	-3.010600	3.630700	-10.929000	25.061312	0.000965	20.776831
866.240486	-3.004700	3.630400	-10.907000	25.072952	0.000964	20.733038
867.237241	-2.984900	3.631500	-10.838000	25.074468	0.000963	20.744991
868.243775	-2.973900	3.629200	-10.791000	25.049138	0.000964	20.770299
869.239259	-2.982100	3.628400	-10.819000	25.036856	0.000965	20.743746
870.241363	-2.980900	3.629400	-10.818000	25.004665	0.000962	20.756478
871.240062	-3.000300	3.627700	-10.884000	25.007101	0.000961	20.747543
872.238918	-3.014200	3.629300	-10.939000	25.014807	0.000960	20.754804
873.238379	-3.006800	3.627800	-10.906000	25.025774	0.000962	20.735466
874.239208	-2.996200	3.627200	-10.866000	25.023663	0.000961	20.737140
875.239519	-2.993500	3.627500	-10.858000	25.051935	0.000959	20.747502
876.239881	-2.997500	3.627000	-10.870000	25.053126	0.000959	20.752965
877.242006	-2.997700	3.626100	-10.869000	25.047889	0.000959	20.753398
878.243600	-2.990100	3.626500	-10.843000	25.030884	0.000960	20.750553
879.239044	-3.018000	3.625600	-10.940000	25.016713	0.000958	20.745811
880.241147	-3.000500	3.627400	-10.883000	24.976466	0.000957	20.734336
881.239429	-2.996400	3.627100	-10.866000	24.994490	0.000958	20.762861
882.245598	-3.003700	3.624200	-10.885000	25.019826	0.000957	20.745617
883.240921	-2.998400	3.625800	-10.870000	25.018787	0.000957	20.750738
884.247904	-3.003400	3.625900	-10.890000	25.016548	0.000955	20.734740
885.243766	-3.000800	3.624000	-10.875000	25.014737	0.000954	20.760424
886.242898	-3.013100	3.624000	-10.919000	25.056629	0.000957	20.742257
887.243915	-3.007300	3.625100	-10.901000	25.053766	0.000954	20.736064
888.243258	-3.009400	3.624400	-10.907000	25.097255	0.000954	20.743683
889.245753	-3.027300	3.623200	-10.967000	25.105038	0.000955	20.752445
890.243892	-3.017300	3.621400	-10.924000	25.114858	0.000953	20.748079
891.245421	-3.012900	3.624100	-10.916000	25.143296	0.000954	20.754816
892.244760	-3.014700	3.620700	-10.913000	25.165047	0.000954	20.746306
893.246781	-3.019900	3.621500	-10.935000	25.146212	0.000956	20.724077
894.247915	-2.994200	3.622300	-10.844000	25.122222	0.000951	20.743143
895.246005	-3.005400	3.620900	-10.882000	25.134753	0.000951	20.759516
896.249973	-3.003900	3.621500	-10.878000	25.161355	0.000951	20.754453
897.245800	-3.000100	3.619700	-10.858000	25.166201	0.000952	20.765008
898.247931	-2.992200	3.621500	-10.835000	25.183278	0.000951	20.733787
899.245695	-2.952200	3.622000	-10.692000	25.184699	0.000950	20.736636
900.247120	-3.001300	3.620900	-10.865000	25.180152	0.000951	20.757677
901.247755	-2.990000	3.621400	-10.827000	25.136355	0.000951	20.742632
902.248058	-2.992300	3.618500	-10.827000	25.138893	0.000950	20.761302
903.249437	-3.002500	3.620000	-10.868000	25.113540	0.000950	20.751971
904.248430	-2.982200	3.619100	-10.792000	25.121717	0.000950	20.732204
905.250899	-2.994500	3.618500	-10.835000	25.114090	0.000951	20.752523
906.249429	-3.003500	3.619200	-10.868000	25.100766	0.000949	20.746260
907.253293	-3.003400	3.618200	-10.866000	25.105042	0.000948	20.755768
908.250247	-3.011600	3.616600	-10.891000	25.066889	0.000950	20.740228
909.252015	-3.001500	3.616600	-10.854000	25.061492	0.000951	20.752828
910.254811	-3.007700	3.617100	-10.878000	25.065969	0.000946	20.741201
911.251913	-2.994800	3.616800	-10.829000	25.088740	0.000949	20.739403
912.248254	-3.001100	3.616200	-10.852000	25.064556	0.000946	20.760172
913.250343	-2.993000	3.617200	-10.824000	25.057791	0.000949	20.750536
914.251125	-2.996000	3.616700	-10.835000	25.086161	0.000946	20.760048
915.251141	-3.028200	3.614600	-10.945000	25.086185	0.000945	20.751064
916.251164	-2.980800	3.617000	-10.781000	25.121881	0.000947	20.754181
917.252279	-3.005800	3.614800	-10.863000	25.137747	0.000946	20.739762
918.252211	-3.010500	3.615800	-10.884000	25.141226	0.000948	20.738038
919.254266	-2.965000	3.616500	-10.721000	25.170632	0.000947	20.760922
920.255059	-2.989900	3.614500	-10.806000	25.196633	0.000945	20.775646
921.254554	-2.999000	3.613800	-10.836000	25.201829	0.000944	20.778017
922.254469	-3.000200	3.613100	-10.839000	25.193500	0.000943	20.778664
923.258664	-2.981900	3.614200	-10.775000	25.220465	0.000944	20.751208
924.255222	-2.996300	3.612300	-10.822000	25.187910	0.000943	20.746499
925.253985	-3.020700	3.611300	-10.907000	25.191582	0.000943	20.769626
926.258427	-3.003500	3.611900	-10.847000	25.181618	0.000944	20.770055
927.254412	-3.006400	3.612500	-10.860000	25.163367	0.000942	20.759318
928.256647	-2.994600	3.611100	-10.813000	25.178633	0.000941	20.739556
929.256630	-2.997500	3.612100	-10.826000	25.200309	0.000941	20.767008
930.256738	-3.011500	3.609900	-10.870000	25.218630	0.000941	20.761693
931.256953	-3.008200	3.609400	-10.857000	25.189771	0.000940	20.772550
932.260957	-3.005200	3.609400	-10.846000	25.206547	0.000939	20.772323
933.257255	-3.012300	3.610300	-10.874000	25.221365	0.000939	20.772974
934.258983	-3.023400	3.610400	-10.914000	25.247016	0.000939	20.761269
935.259483	-3.001400	3.608000	-10.827000	25.272867	0.000940	20.740755
936.260478	-2.976900	3.609100	-10.743000	25.289100	0.000938	20.770805
937.260015	-2.987000	3.608800	-10.779000	25.221714	0.000937	20.768583
938.258933	-2.981800	3.608700	-10.760000	25.204814	0.000937	20.769634
939.260842	-2.995000	3.608500	-10.807000	25.191664	0.000934	20.783459
940.261556	-3.015700	3.608500	-10.880000	25.188756	0.000936	20.773428
941.260561	-2.995100	3.609400	-10.808000	25.147863	0.000935	20.769832
942.262654	-3.007400	3.606700	-10.846000	25.157662	0.000933	20.770661
943.262128	-2.990600	3.607100	-10.786000	25.131040	0.000935	20.777600
944.262494	-2.999800	3.606000	-10.817000	25.154262	0.000935	20.784317
945.265374	-2.976200	3.607300	-10.735000	25.140618	0.000933	20.769672
946.264543	-3.006300	3.606000	-10.840000	25.170599	0.000932	20.772269
947.261651	-2.982800	3.607500	-10.760000	25.188350	0.000934	20.766381
948.262510	-3.016400	3.605200	-10.872000	25.181442	0.000932	20.788844
949.262720	-3.003100	3.606800	-10.831000	25.223077	0.000934	20.810255
950.262725	-2.988800	3.605800	-10.776000	25.230613	0.000934	20.770880
951.265059	-2.999200	3.604400	-10.809000	25.213291	0.000933	20.771506
952.262707	-2.998500	3.604500	-10.807000	25.212572	0.000933	20.776001
953.263927	-2.939100	3.605900	-10.595000	25.212523	0.000931	20.765045
954.266948	-3.003300	3.604400	-10.823000	25.254683	0.000933	20.780347
955.265258	-3.005200	3.603000	-10.827000	25.238305	0.000931	20.788086
956.266285	-2.972900	3.603700	-10.712000	25.221451	0.000931	20.759784
957.266482	-2.989800	3.602700	-10.770000	25.254165	0.000929	20.783146
958.266283	-2.975000	3.603700	-10.721000	25.253295	0.000930	20.809773
959.267341	-3.009900	3.601400	-10.839000	25.281208	0.000928	20.806503
960.268689	-2.987300	3.602700	-10.761000	25.271093	0.000929	20.766950
961.269073	-2.992700	3.601000	-10.776000	25.274325	0.000928	20.768773
962.271166	-3.000100	3.600800	-10.802000	25.256925	0.000928	20.782124
963.269244	-2.972700	3.601900	-10.706000	25.283869	0.000927	20.783571
964.271804	-3.001500	3.600500	-10.807000	25.284411	0.000928	20.770364
965.272728	-3.000700	3.599800	-10.801000	25.299822	0.000928	20.779200
966.272909	-3.009100	3.600200	-10.832000	25.326367	0.000928	20.779773
967.274777	-2.993200	3.601300	-10.778000	25.327114	0.000925	20.790955
968.273894	-3.000500	3.600000	-10.801000	25.367799	0.000926	20.788659
969.273737	-3.000200	3.599500	-10.798000	25.389074	0.000925	20.800537
970.275187	-2.986100	3.598100	-10.743000	25.370780	0.000924	20.794023
971.274544	-2.994400	3.597700	-10.772000	25.363229	0.000924	20.794501
972.274758	-2.988400	3.598700	-10.754000	25.332136	0.000926	20.779877
973.278516	-3.016400	3.598100	-10.853000	25.311481	0.000925	20.790432
974.274276	-2.990600	3.598200	-10.760000	25.298258	0.000924	20.800389
975.276148	-2.996200	3.596900	-10.776000	25.313419	0.000923	20.796171
976.274594	-3.021700	3.595500	-10.864000	25.280809	0.000922	20.811793
977.278749	-3.002100	3.596500	-10.795000	25.254983	0.000921	20.807674
978.281285	-3.000900	3.596500	-10.791000	25.242925	0.000922	20.803155
979.273755	-2.990900	3.595500	-10.751000	25.232507	0.000925	20.797911
980.281329	-3.003300	3.596300	-10.799000	25.211131	0.000921	20.793994
981.280211	-2.975600	3.596500	-10.700000	25.213640	0.000920	20.800306
982.280249	-2.998200	3.595700	-10.780000	25.211225	0.000921	20.795985
983.280743	-3.024400	3.593100	-10.866000	25.193299	0.000920	20.806911
984.279762	-2.997100	3.593000	-10.768000	25.226309	0.000919	20.797379
985.278316	-3.001300	3.594200	-10.785000	25.204831	0.000918	20.808058
986.282719	-3.012900	3.594400	-10.828000	25.226983	0.000918	20.804693
987.280246	-3.019600	3.591500	-10.844000	25.214375	0.000917	20.798674
988.279737	-3.023100	3.593400	-10.863000	25.253923	0.000918	20.813249
989.283111	-3.012500	3.592700	-10.822000	25.281462	0.000916	20.804862
990.282021	-2.994400	3.592400	-10.756000	25.296894	0.000914	20.820831
991.279655	-3.040100	3.591300	-10.917000	25.286628	0.000918	20.797721
992.284200	-2.994200	3.591900	-10.754000	25.268259	0.000914	20.797771
993.284680	-3.009400	3.591500	-10.807000	25.277355	0.000916	20.796472
994.282668	-2.997700	3.590900	-10.763000	25.287991	0.000917	20.813789
995.286701	-2.995900	3.591000	-10.757000	25.292394	0.000916	20.802562
996.284202	-3.010300	3.589700	-10.805000	25.301190	0.000914	20.792427
997.284093	-2.999200	3.589700	-10.766000	25.316700	0.000913	20.822224
998.286789	-2.985200	3.591100	-10.718000	25.336259	0.000914	20.803931
999.284528	-2.983500	3.589100	-10.707000	25.350627	0.000912	20.816460
1000.289338	-3.001500	3.589400	-10.772000	25.365787	0.000913	20.803234
1001.284786	-2.984100	3.589700	-10.712000	25.368419	0.000911	20.821523
1002.284284	-3.006300	3.588600	-10.787000	25.396132	0.000911	20.834177
1003.284025	-3.035400	3.588500	-10.890000	25.356240	0.000911	20.808820
1004.283510	-3.025000	3.587900	-10.853000	25.394740	0.000909	20.828038
1005.287841	-2.995200	3.588400	-10.748000	25.402324	0.000908	20.804359
1006.282792	-2.992500	3.587600	-10.734000	25.403987	0.000909	20.815986
1007.283678	-3.012800	3.587000	-10.806000	25.376151	0.000910	20.820278
1008.285389	-2.983300	3.587400	-10.700000	25.364198	0.000909	20.809699
1009.283359	-2.983400	3.587100	-10.701000	25.364867	0.000909	20.817957
1010.282302	-3.019400	3.585000	-10.823000	25.386741	0.000907	20.820006
1011.286811	-3.001400	3.584600	-10.757000	25.393800	0.000906	20.822826
1012.287262	-2.993900	3.586900	-10.738000	25.411743	0.000907	20.813818
1013.290534	-3.014900	3.585000	-10.808000	25.421089	0.000906	20.825572
1014.293001	-2.977900	3.587000	-10.680000	25.402349	0.000905	20.828565
1015.286436	-2.998700	3.584600	-10.748000	25.367631	0.000904	20.799869
1016.287492	-3.001700	3.585300	-10.761000	25.376677	0.000903	20.831237
1017.287378	-3.026900	3.583500	-10.846000	25.339224	0.000904	20.831089
1018.287637	-2.984000	3.584000	-10.694000	25.327024	0.000903	20.814098
1019.294633	-3.032400	3.583100	-10.864000	25.307855	0.000904	20.825671
1020.289406	-3.001100	3.583500	-10.753000	25.297243	0.000903	20.828293
1021.291046	-2.996700	3.582600	-10.735000	25.290858	0.000903	20.811925
1022.293485	-3.008800	3.581800	-10.776000	25.310319	0.000902	20.837178
1023.291170	-3.010800	3.580600	-10.779000	25.371487	0.000901	20.839302
1024.293165	-2.994200	3.582200	-10.725000	25.363808	0.000900	20.837706
1025.294294	-3.012200	3.580400	-10.783000	25.392067	0.000898	20.796905
1026.290190	-2.992900	3.581800	-10.719000	25.396842	0.000900	20.834416
1027.291027	-2.970900	3.582000	-10.641000	25.361151	0.000900	20.835562
1028.292632	-2.980700	3.581600	-10.674000	25.352130	0.000900	20.822237
1029.289661	-2.960500	3.581600	-10.602000	25.360659	0.000898	20.838860
1030.292802	-3.006000	3.578900	-10.757000	25.368017	0.000899	20.840559
1031.292353	-3.030400	3.578700	-10.842000	25.354943	0.000899	20.845449
1032.290019	-3.024000	3.579600	-10.824000	25.349851	0.000898	20.846500
1033.290107	-3.026600	3.580000	-10.833000	25.314212	0.000898	20.838691
1034.291241	-2.990000	3.578800	-10.700000	25.305535	0.000897	20.829980
1035.292037	-3.016400	3.577900	-10.791000	25.323784	0.000897	20.833604
1036.304188	-3.008000	3.577400	-10.759000	25.312873	0.000895	20.853942
1037.291553	-3.007200	3.577400	-10.757000	25.316503	0.000895	20.839096
1038.294097	-3.000500	3.577200	-10.731000	25.286780	0.000894	20.843392
1039.290957	-2.981900	3.578100	-10.668000	25.279048	0.000895	20.847956
1040.290707	-2.979000	3.578600	-10.660000	25.312425	0.000895	20.868191
1041.292036	-3.023600	3.576300	-10.812000	25.301917	0.000894	20.852425
1042.292735	-3.037200	3.575800	-10.860000	25.332489	0.000891	20.857043
1043.291955	-2.992000	3.576600	-10.700000	25.346833	0.000891	20.851530
1044.290984	-3.002000	3.576200	-10.735000	25.356552	0.000891	20.836634
1045.292449	-3.026500	3.573400	-10.814000	25.335031	0.000889	20.874767
1046.295117	-3.009800	3.575500	-10.760000	25.326280	0.000889	20.839904
1047.295757	-2.993400	3.574500	-10.700000	25.354220	0.000888	20.853258
1048.293490	-3.008400	3.574400	-10.752000	25.377162	0.000888	20.844526
1049.297050	-2.979300	3.575800	-10.653000	25.374579	0.000886	20.861372
1050.296506	-3.013700	3.573400	-10.768000	25.394864	0.000886	20.864670
1051.294750	-2.991000	3.572300	-10.683000	25.418917	0.000887	20.869856
1052.296376	-2.975100	3.574100	-10.632000	25.438581	0.000886	20.862102
1053.295411	-2.986500	3.572700	-10.669000	25.436770	0.000887	20.855542
1054.296327	-3.000200	3.572900	-10.717000	25.464801	0.000884	20.848603
1055.298220	-3.014300	3.571300	-10.763000	25.488389	0.000885	20.877979
1056.297169	-2.980800	3.573500	-10.650000	25.510330	0.000884	20.864452
1057.299481	-3.013600	3.571900	-10.762000	25.538417	0.000881	20.850933
1058.297010	-3.030100	3.569900	-10.816000	25.521145	0.000884	20.868673
1059.299607	-3.020100	3.570400	-10.782000	25.547860	0.000884	20.877010
1060.298045	-3.017600	3.570100	-10.772000	25.554322	0.000882	20.885870
1061.298006	-2.999500	3.571200	-10.711000	25.566774	0.000882	20.857600
1062.299602	-2.987900	3.570300	-10.666000	25.514198	0.000881	20.861224
1063.300347	-3.007800	3.568800	-10.733000	25.509054	0.000881	20.857954
1064.300429	-3.006100	3.570300	-10.731000	25.513685	0.000882	20.848855
1065.301939	-3.006300	3.567900	-10.725000	25.546087	0.000878	20.875703
1066.299841	-3.003800	3.568800	-10.719000	25.547877	0.000879	20.860906
1067.299847	-2.975600	3.570100	-10.621000	25.520049	0.000879	20.854772
1068.301586	-2.986300	3.568900	-10.657000	25.531955	0.000880	20.876685
1069.299998	-3.004100	3.567800	-10.717000	25.529098	0.000878	20.872867
1070.303295	-2.994900	3.567300	-10.681000	25.489495	0.000877	20.863442
1071.300128	-2.993900	3.567300	-10.679000	25.532879	0.000876	20.872397
1072.301514	-3.013800	3.566900	-10.749000	25.537556	0.000876	20.863343
1073.300608	-3.025500	3.565900	-10.787000	25.569111	0.000876	20.875118
1074.303025	-2.996400	3.566200	-10.684000	25.573290	0.000875	20.881212
1075.300802	-3.025400	3.564000	-10.781000	25.602537	0.000874	20.868860
1076.307959	-2.993500	3.564800	-10.671000	25.627317	0.000877	20.866246
1077.301003	-3.008200	3.564200	-10.720000	25.645906	0.000874	20.866898
1078.302472	-2.995600	3.565500	-10.679000	25.657708	0.000873	20.882544
1079.304630	-3.004700	3.564400	-10.709000	25.638607	0.000874	20.872369
1080.304737	-3.008200	3.564300	-10.720000	25.627428	0.000872	20.862091
1081.308049	-3.016300	3.562600	-10.744000	25.628594	0.000871	20.859943
1082.303811	-2.997900	3.563400	-10.681000	25.621073	0.000871	20.874200
1083.304408	-3.000500	3.562400	-10.688000	25.640036	0.000872	20.869537
1084.305784	-2.992600	3.562800	-10.661000	25.630421	0.000872	20.892121
1085.303329	-2.988600	3.563600	-10.648000	25.654975	0.000870	20.876954
1086.304485	-2.971500	3.563100	-10.587000	25.666088	0.000870	20.872469
1087.304019	-2.991400	3.562000	-10.654000	25.694265	0.000871	20.877535
1088.307954	-2.987600	3.562500	-10.642000	25.693448	0.000870	20.885723
1089.316175	-2.997100	3.561000	-10.673000	25.706793	0.000871	20.880162
1090.304027	-3.015100	3.559900	-10.732000	25.683272	0.000869	20.880245
1091.309494	-2.999000	3.560400	-10.677000	25.642865	0.000867	20.884231
1092.305683	-3.004700	3.561200	-10.699000	25.601501	0.000871	20.873982
1093.310603	-2.984600	3.560000	-10.624000	25.569273	0.000869	20.869591
1094.309629	-2.993100	3.558700	-10.650000	25.534684	0.000867	20.893174
1095.308634	-3.045300	3.558800	-10.835000	25.546393	0.000869	20.891183
1096.308874	-2.997200	3.558500	-10.665000	25.544977	0.000867	20.875537
1097.309798	-2.999500	3.559100	-10.676000	25.541278	0.000865	20.910700
1098.313680	-3.026900	3.556900	-10.765000	25.562150	0.000866	20.884248
1099.310742	-2.982000	3.559400	-10.613000	25.573707	0.000866	20.890165
1100.311630	-3.016300	3.557100	-10.728000	25.561958	0.000864	20.886900
1101.315784	-3.002300	3.557800	-10.681000	25.578306	0.000863	20.900946
1102.314778	-3.000700	3.557300	-10.674000	25.576893	0.000864	20.904743
1103.310877	-2.997800	3.557600	-10.663000	25.595680	0.000861	20.892317
1104.314169	-2.986600	3.556900	-10.621000	25.617200	0.000862	20.894490
1105.311086	-2.975000	3.556800	-10.580000	25.625374	0.000861	20.893216
1106.311554	-2.996200	3.556400	-10.654000	25.634319	0.000860	20.900303
1107.317456	-3.016600	3.554500	-10.722000	25.622246	0.000860	20.902875
1108.312083	-2.988700	3.556200	-10.627000	25.660358	0.000860	20.906540
1109.314110	-2.996600	3.554100	-10.649000	25.665453	0.000858	20.908338
1110.317836	-2.993300	3.555200	-10.640000	25.674172	0.000857	20.883907
1111.313011	-3.003700	3.552900	-10.671000	25.690518	0.000857	20.894160
1112.313962	-2.993100	3.554100	-10.637000	25.736539	0.000856	20.896761
1113.316251	-3.012500	3.553500	-10.704000	25.740709	0.000856	20.920388
1114.312402	-3.002400	3.553300	-10.668000	25.734798	0.000855	20.889324
1115.314495	-2.991300	3.554400	-10.631000	25.776884	0.000855	20.915474
1116.316319	-2.977000	3.554000	-10.579000	25.765728	0.000854	20.894786
1117.316572	-2.991500	3.554100	-10.631000	25.782766	0.000856	20.899573
1118.314271	-3.009200	3.552000	-10.688000	25.758548	0.000852	20.892791
1119.314515	-3.019300	3.550900	-10.720000	25.748455	0.000851	20.902566
1120.315349	-2.995700	3.551400	-10.638000	25.700210	0.000852	20.892515
1121.314900	-2.999600	3.550100	-10.648000	25.680530	0.000851	20.893611
1122.315513	-2.945200	3.552100	-10.460000	25.666269	0.000850	20.903943
1123.315030	-3.004300	3.551200	-10.668000	25.657374	0.000849	20.923455
1124.320333	-3.020100	3.549500	-10.718000	25.679985	0.000849	20.925777
1125.314178	-2.991100	3.549300	-10.616000	25.662095	0.000851	20.896431
1126.315607	-3.012300	3.549100	-10.689000	25.690420	0.000849	20.887897
1127.316454	-3.045600	3.547200	-10.802000	25.677148	0.000850	20.890214
1128.315884	-3.013900	3.547600	-10.691000	25.696458	0.000848	20.890169
1129.317048	-3.022300	3.549700	-10.726000	25.715907	0.000848	20.869876
1130.322986	-3.007800	3.548000	-10.670000	25.726420	0.000847	20.874271
1131.316495	-3.007800	3.546500	-10.665000	25.751336	0.000845	20.895504
1132.317277	-3.015100	3.546700	-10.693000	25.763338	0.000847	20.893335
1133.316955	-2.982100	3.547700	-10.579000	25.752752	0.000845	20.865634
1134.320603	-2.980600	3.546500	-10.570000	25.746616	0.000842	20.876539
1135.321659	-2.986800	3.546100	-10.591000	25.740056	0.000845	20.856201
1136.317462	-2.989900	3.545200	-10.599000	25.736333	0.000842	20.895133
1137.317354	-3.009200	3.544500	-10.664000	25.746566	0.000844	20.869852
1138.317906	-3.005500	3.546300	-10.657000	25.743759	0.000842	20.873669
1139.316592	-3.001300	3.544600	-10.637000	25.765896	0.000842	20.872672
1140.318368	-3.004000	3.544700	-10.648000	25.755191	0.000842	20.850540
1141.318379	-3.023600	3.543200	-10.711000	25.746419	0.000841	20.893883
1142.317249	-2.980600	3.544500	-10.564000	25.742421	0.000840	20.868533
1143.319694	-2.997700	3.543800	-10.622000	25.728357	0.000839	20.880010
1144.318957	-2.989100	3.545800	-10.598000	25.732089	0.000840	20.872379
1145.318186	-2.993000	3.542700	-10.602000	25.734469	0.000841	20.873348
1146.321821	-2.985700	3.544300	-10.582000	25.723740	0.000840	20.870631
1147.319631	-3.017700	3.541300	-10.685000	25.703367	0.000839	20.877669
1148.321446	-3.004900	3.542200	-10.643000	25.696861	0.000837	20.885358
1149.321061	-3.017500	3.541900	-10.687000	25.701881	0.000837	20.895615
1150.318702	-3.008200	3.541700	-10.654000	25.683548	0.000838	20.873884
1151.319338	-2.995100	3.542300	-10.609000	25.651820	0.000835	20.861458
1152.320106	-2.997300	3.541300	-10.613000	25.667448	0.000835	20.865301
1153.322092	-2.983800	3.540600	-10.564000	25.642928	0.000836	20.882398
1154.320559	-2.978100	3.541600	-10.546000	25.624245	0.000835	20.845619
1155.321144	-2.969500	3.540900	-10.513000	25.655975	0.000833	20.870372
1156.322915	-3.007700	3.539600	-10.644000	25.647157	0.000835	20.877637
1157.320035	-2.981400	3.539000	-10.550000	25.693184	0.000832	20.854640
1158.321469	-2.976700	3.539000	-10.533000	25.732542	0.000832	20.849128
1159.324618	-2.989500	3.538700	-10.578000	25.749536	0.000833	20.851024
1160.320621	-3.015000	3.536800	-10.662000	25.764867	0.000831	20.857889
1161.319618	-2.986600	3.536900	-10.561000	25.765963	0.000831	20.884593
1162.324515	-2.996000	3.537500	-10.596000	25.746938	0.000829	20.849364
1163.324590	-2.987300	3.537400	-10.566000	25.691588	0.000830	20.866313
1164.321687	-3.038100	3.536400	-10.742000	25.662746	0.000828	20.870061
1165.323931	-2.999800	3.537000	-10.609000	25.611911	0.000828	20.862153
1166.323040	-2.998800	3.536900	-10.605000	25.612162	0.000826	20.853871
1167.324491	-3.016300	3.534100	-10.658000	25.604735	0.000826	20.853999
1168.326507	-3.003900	3.536400	-10.623000	25.609535	0.000826	20.846491
1169.325202	-3.018600	3.534300	-10.668000	25.576171	0.000826	20.835269
1170.325042	-2.999100	3.533800	-10.597000	25.566831	0.000827	20.864294
1171.325462	-3.032400	3.531900	-10.709000	25.608928	0.000824	20.843037
1172.326253	-2.996100	3.533200	-10.584000	25.614425	0.000825	20.844291
1173.328995	-3.026800	3.532400	-10.691000	25.613958	0.000823	20.857571
1174.330005	-3.010400	3.532900	-10.635000	25.655306	0.000825	20.845520
1175.327687	-2.991500	3.533000	-10.568000	25.685926	0.000825	20.844980
1176.328514	-2.979800	3.533500	-10.528000	25.700663	0.000823	20.859308
1177.330125	-2.982500	3.533400	-10.537000	25.728589	0.000822	20.830460
1178.328403	-3.046000	3.530400	-10.752000	25.673193	0.000822	20.824606
1179.331021	-3.005400	3.532400	-10.615000	25.682089	0.000821	20.819316
1180.330727	-2.981800	3.532800	-10.534000	25.681715	0.000821	20.827949
1181.327826	-3.007900	3.531100	-10.621000	25.680136	0.000821	20.834423
1182.329871	-2.995400	3.530600	-10.574000	25.710422	0.000820	20.837816
1183.330230	-2.994500	3.531600	-10.574000	25.731247	0.000821	20.825543
1184.330943	-2.999000	3.530200	-10.586000	25.763228	0.000819	20.831113
1185.333410	-3.001100	3.530200	-10.594000	25.776843	0.000821	20.837677
1186.332798	-3.002700	3.529100	-10.595000	25.770736	0.000820	20.829646
1187.333906	-3.009100	3.529200	-10.619000	25.744630	0.000818	20.823338
1188.334475	-3.016100	3.528200	-10.640000	25.723855	0.000819	20.819066
1189.331451	-3.019500	3.527700	-10.650000	25.728699	0.000820	20.827725
1190.333966	-2.996300	3.527600	-10.568000	25.754022	0.000818	20.819496
1191.332475	-3.016000	3.526000	-10.633000	25.761854	0.000815	20.838742
1192.332144	-3.003600	3.526800	-10.592000	25.788760	0.000816	20.836845
1193.333383	-3.005000	3.527200	-10.599000	25.774973	0.000816	20.832953
1194.331906	-3.002700	3.527200	-10.589000	25.779349	0.000813	20.845409
1195.333751	-3.038200	3.524800	-10.707000	25.798234	0.000814	20.826922
1196.333882	-3.008200	3.527400	-10.607000	25.770187	0.000814	20.819612
1197.335367	-3.029000	3.524600	-10.675000	25.781098	0.000814	20.831046
1198.335171	-2.998700	3.526000	-10.573000	25.784456	0.000812	20.820668
1199.333419	-3.002500	3.525400	-10.582000	25.802791	0.000813	20.833870
1200.335647	-2.996800	3.524200	-10.560000	25.838772	0.000813	20.825444
1201.336259	-3.015900	3.522300	-10.622000	25.829804	0.000810	20.810271
1202.334805	-3.033400	3.522400	-10.684000	25.829882	0.000811	20.830264
1203.335231	-2.994400	3.523800	-10.551000	25.825663	0.000811	20.806112
1204.335989	-2.999300	3.522900	-10.565000	25.828549	0.000812	20.819442
1205.336015	-3.031900	3.521800	-10.677000	25.819728	0.000810	20.821012
1206.336904	-3.014500	3.521500	-10.614000	25.843063	0.000807	20.821693
1207.337687	-2.988600	3.523600	-10.529000	25.864234	0.000807	20.791752
1208.337556	-2.999600	3.520900	-10.560000	25.882494	0.000809	20.822898
1209.338278	-3.010200	3.520000	-10.595000	25.892386	0.000809	20.829990
1210.344378	-3.008800	3.519700	-10.589000	25.937327	0.000806	20.803067
1211.338181	-3.002400	3.520600	-10.570000	25.954224	0.000805	20.815775
1212.340254	-3.018900	3.519200	-10.624000	25.946697	0.000806	20.821489
1213.343590	-3.014800	3.520600	-10.613000	25.974621	0.000804	20.808292
1214.343146	-3.019600	3.518500	-10.623000	25.963849	0.000805	20.801737
1215.342719	-3.031400	3.517800	-10.663000	25.927188	0.000803	20.817537
1216.344316	-2.986500	3.519600	-10.510000	25.927680	0.000803	20.809496
1217.342373	-2.992300	3.518100	-10.526000	25.910319	0.000802	20.804384
1218.340888	-3.010700	3.517700	-10.589000	25.914995	0.000805	20.814296
1219.349426	-3.025100	3.517700	-10.641000	25.893657	0.000802	20.816094
1220.345495	-2.992400	3.518600	-10.527000	25.898627	0.000799	20.827725
1221.342753	-3.009400	3.516700	-10.582000	25.903126	0.000801	20.799054
1222.347234	-3.008900	3.516000	-10.578000	25.928966	0.000800	20.815056
1223.343820	-2.993400	3.516800	-10.525000	25.941537	0.000798	20.803503
1224.344002	-3.013000	3.516500	-10.594000	25.893720	0.000797	20.816157
1225.344871	-3.000900	3.517000	-10.553000	25.855021	0.000799	20.797670
1226.346830	-3.021600	3.514700	-10.618000	25.816266	0.000798	20.809000
1227.345466	-2.988900	3.516100	-10.509000	25.810976	0.000797	20.798470
1228.346858	-3.024300	3.514400	-10.626000	25.828416	0.000797	20.806032
1229.347221	-3.007300	3.514300	-10.568000	25.819919	0.000797	20.800816
1230.349846	-3.009800	3.513100	-10.572000	25.818287	0.000797	20.792537
1231.346654	-3.003400	3.512300	-10.548000	25.820302	0.000795	20.804519
1232.347777	-3.012200	3.512700	-10.580000	25.809889	0.000796	20.787895
1233.345657	-2.987600	3.513200	-10.495000	25.800227	0.000794	20.783879
1234.346978	-3.007200	3.511400	-10.559000	25.806663	0.000794	20.797457
1235.348439	-3.035100	3.509900	-10.651000	25.811900	0.000790	20.783751
1236.347247	-3.013100	3.510600	-10.575000	25.837890	0.000791	20.797531
1237.346840	-3.009300	3.510900	-10.563000	25.864401	0.000792	20.791445
1238.347587	-3.007400	3.511100	-10.559000	25.868496	0.000794	20.814052
1239.347867	-2.997700	3.511800	-10.526000	25.884397	0.000790	20.805369
1240.347315	-3.005500	3.510500	-10.550000	25.897170	0.000791	20.805872
1241.347182	-3.014300	3.509000	-10.576000	25.909683	0.000790	20.815598
1242.348541	-3.011300	3.510500	-10.570000	25.882681	0.000790	20.782308
1243.349812	-3.002100	3.508600	-10.532000	25.891403	0.000787	20.795812
1244.347497	-2.985100	3.509400	-10.475000	25.906256	0.000789	20.796982
1245.349228	-3.021000	3.507200	-10.594000	25.882410	0.000789	20.806693
1246.348829	-3.013700	3.508000	-10.570000	25.864002	0.000788	20.808115
1247.347757	-2.983500	3.508000	-10.465000	25.877140	0.000788	20.790967
1248.348814	-3.000000	3.507000	-10.519000	25.891575	0.000786	20.792666
1249.347914	-3.008400	3.506200	-10.547000	25.875925	0.000788	20.778367
1250.350513	-2.998100	3.506000	-10.509000	25.915995	0.000787	20.801077
1251.349618	-2.981800	3.507200	-10.456000	25.910356	0.000785	20.791618
1252.353473	-2.990200	3.505300	-10.480000	25.878261	0.000785	20.792093
1253.353771	-3.012500	3.504300	-10.555000	25.854135	0.000785	20.783978
1254.349791	-2.990900	3.504400	-10.480000	25.819510	0.000785	20.791870
1255.352065	-3.015900	3.503200	-10.564000	25.789542	0.000783	20.791164
1256.347771	-3.021300	3.503200	-10.583000	25.780598	0.000784	20.783603
1257.349132	-2.985000	3.504400	-10.459000	25.757365	0.000782	20.800095
1258.356447	-3.005700	3.502100	-10.525000	25.729288	0.000781	20.808402
1259.349765	-3.008200	3.503000	-10.537000	25.696169	0.000781	20.809276
1260.348023	-3.011100	3.502100	-10.544000	25.689010	0.000781	20.781223
1261.349000	-3.003900	3.502300	-10.519000	25.701234	0.000782	20.805829
1262.349674	-3.001500	3.502800	-10.512000	25.673333	0.000778	20.785865
1263.351109	-2.994500	3.502100	-10.486000	25.685459	0.000778	20.787614
1264.351341	-2.970800	3.501400	-10.400000	25.656485	0.000779	20.778427
1265.351229	-3.014000	3.500700	-10.551000	25.644284	0.000777	20.782295
1266.350789	-3.011500	3.499600	-10.538000	25.665450	0.000777	20.786957
1267.348390	-2.995200	3.499500	-10.480000	25.684309	0.000778	20.767492
1268.353435	-3.014900	3.499900	-10.551000	25.717226	0.000776	20.766416
1269.351451	-2.977300	3.500900	-10.422000	25.696534	0.000776	20.780719
1270.352547	-3.008900	3.498300	-10.525000	25.695963	0.000774	20.779672
1271.358782	-3.032200	3.498000	-10.606000	25.702022	0.000775	20.778171
1272.353802	-2.990600	3.499100	-10.463000	25.657543	0.000773	20.789921
1273.354320	-3.002900	3.497000	-10.500000	25.674740	0.000772	20.791546
1274.354339	-3.016500	3.496500	-10.546000	25.705548	0.000774	20.787876
1275.356303	-2.997500	3.496900	-10.481000	25.729348	0.000774	20.759150
1276.355196	-2.997500	3.498000	-10.483000	25.734241	0.000771	20.776393
1277.355539	-2.989400	3.496600	-10.452000	25.758763	0.000770	20.786326
1278.360961	-2.989900	3.495200	-10.450000	25.740500	0.000771	20.771301
1279.357976	-2.985000	3.497200	-10.438000	25.759304	0.000772	20.775016
1280.358057	-2.996700	3.495500	-10.474000	25.780665	0.000770	20.777980
1281.365087	-2.998600	3.493000	-10.474000	25.765805	0.000770	20.754044
1282.357647	-3.000500	3.493800	-10.482000	25.769503	0.000770	20.773406
1283.354449	-2.983300	3.494500	-10.424000	25.807910	0.000769	20.772157
1284.355575	-2.976700	3.494400	-10.401000	25.815709	0.000769	20.770982
1285.357211	-2.971600	3.494200	-10.381000	25.802040	0.000769	20.772898
1286.358203	-2.983600	3.492300	-10.417000	25.805796	0.000769	20.764343
1287.359586	-2.996300	3.491700	-10.461000	25.792649	0.000768	20.760145
1288.359164	-2.977000	3.492400	-10.396000	25.802807	0.000765	20.776040
1289.357059	-2.990700	3.491800	-10.442000	25.839719	0.000765	20.761435
1290.361083	-3.022300	3.491000	-10.550000	25.844812	0.000767	20.771294
1291.357225	-3.006300	3.491100	-10.494000	25.874869	0.000765	20.759761
1292.359757	-2.997800	3.490800	-10.463000	25.922136	0.000763	20.756986
1293.356623	-2.994500	3.491000	-10.453000	25.951870	0.000765	20.792548
1294.359665	-2.983500	3.489600	-10.410000	25.974245	0.000764	20.768559
1295.358226	-2.978700	3.492200	-10.401000	25.966345	0.000762	20.780536
1296.359048	-2.996400	3.488800	-10.453000	25.998084	0.000762	20.758370
1297.362635	-3.016600	3.488200	-10.522000	26.008589	0.000763	20.773667
1298.361405	-2.999800	3.489300	-10.467000	25.995670	0.000762	20.778705
1299.358647	-2.989300	3.489000	-10.428000	25.991069	0.000760	20.773608
1300.362072	-3.012800	3.487200	-10.506000	26.013870	0.000761	20.760480
1301.363528	-3.017500	3.487700	-10.522000	26.017223	0.000760	20.755313
1302.360234	-2.995700	3.486200	-10.442000	26.014087	0.000758	20.784406
1303.361381	-2.979800	3.486700	-10.389000	26.020399	0.000758	20.750918
1304.364787	-3.017800	3.484900	-10.516000	26.035181	0.000758	20.754864
1305.364402	-2.976600	3.486000	-10.375000	25.985151	0.000759	20.754385
1306.363122	-3.001900	3.484900	-10.460000	25.913556	0.000759	20.751684
1307.365363	-3.019400	3.484900	-10.522000	25.909382	0.000758	20.752707
1308.368294	-3.021000	3.485000	-10.527000	25.887818	0.000757	20.780357
1309.369165	-2.975600	3.485400	-10.370000	25.910892	0.000757	20.772242
1310.370622	-2.982000	3.483400	-10.387000	25.917081	0.000755	20.764709
1311.367491	-3.009300	3.482400	-10.478000	25.902494	0.000755	20.768073
1312.369745	-2.992500	3.484200	-10.425000	25.872065	0.000756	20.759316
1313.367053	-3.010100	3.482500	-10.481000	25.869003	0.000756	20.745333
1314.368399	-3.003000	3.481700	-10.454000	25.868929	0.000755	20.757588
1315.368186	-2.967700	3.483300	-10.337000	25.873797	0.000755	20.765323
1316.371579	-3.002400	3.482500	-10.456000	25.875926	0.000753	20.765565
1317.368721	-2.989900	3.481600	-10.409000	25.891974	0.000753	20.770781
1318.368663	-2.965900	3.482200	-10.327000	25.904669	0.000751	20.759352
1319.374146	-2.983200	3.481300	-10.384000	25.928809	0.000751	20.757999
1320.370308	-2.985800	3.481900	-10.396000	25.946095	0.000752	20.745967
1321.371936	-3.022900	3.479800	-10.518000	25.939163	0.000752	20.778833
1322.368666	-3.006100	3.479700	-10.459000	25.949222	0.000754	20.750057
1323.374352	-3.015400	3.478100	-10.486000	25.947753	0.000752	20.760909
1324.375470	-3.007500	3.478600	-10.461000	25.950157	0.000752	20.769015
1325.371465	-3.016600	3.477300	-10.487000	25.958156	0.000749	20.762826
1326.371969	-2.985700	3.478200	-10.384000	25.955910	0.000750	20.755828
1327.373466	-3.020600	3.477900	-10.503000	25.908664	0.000750	20.756253
1328.373944	-3.018800	3.476700	-10.495000	25.868368	0.000748	20.766033
1329.372338	-3.003300	3.477700	-10.444000	25.851971	0.000748	20.772795
1330.372240	-3.071900	3.474200	-10.671000	25.829458	0.000749	20.748282
1331.371474	-2.989100	3.477100	-10.393000	25.823946	0.000747	20.758393
1332.369814	-2.997700	3.476100	-10.419000	25.842025	0.000746	20.746208
1333.371309	-3.011500	3.475100	-10.464000	25.871334	0.000743	20.762849
1334.372661	-3.012700	3.474600	-10.467000	25.913740	0.000744	20.762775
1335.372643	-2.996600	3.474900	-10.410000	25.899773	0.000744	20.758227
1336.375590	-2.992400	3.474500	-10.396000	25.908642	0.000743	20.753860
1337.376914	-2.972200	3.474500	-10.326000	25.966095	0.000743	20.755629
1338.377728	-3.001100	3.471900	-10.418000	25.981025	0.000742	20.755930
1339.381086	-3.020700	3.472700	-10.488000	25.968061	0.000740	20.757130
1340.380605	-2.989900	3.474300	-10.386000	25.954369	0.000740	20.767557
1341.382269	-3.002200	3.473300	-10.427000	25.944856	0.000738	20.751361
1342.382231	-3.024700	3.470000	-10.495000	25.965667	0.000741	20.750458
1343.380554	-2.997600	3.470500	-10.403000	25.972033	0.000739	20.771078
1344.379789	-2.999500	3.471000	-10.409000	25.976699	0.000737	20.764860
1345.384674	-3.006300	3.470500	-10.432000	25.999578	0.000737	20.763191
1346.382633	-3.018300	3.470800	-10.475000	25.989914	0.000735	20.757274
1347.387189	-3.009700	3.468900	-10.438000	25.999225	0.000735	20.769474
1348.386123	-3.002100	3.469300	-10.414000	25.992918	0.000736	20.751757
1349.395750	-2.982400	3.469100	-10.345000	25.985765	0.000735	20.773020
1350.384127	-3.001700	3.470200	-10.416000	25.980171	0.000733	20.760762
1351.387929	-3.009400	3.466600	-10.430000	25.995277	0.000734	20.765034
1352.386306	-2.990600	3.467800	-10.370000	26.009509	0.000733	20.769375
1353.386658	-2.988200	3.466800	-10.358000	26.025457	0.000731	20.775915
1354.392389	-2.999600	3.466300	-10.396000	26.004322	0.000731	20.756577
1355.387850	-2.989200	3.467200	-10.362000	25.964482	0.000734	20.759698
1356.389619	-3.017000	3.464900	-10.452000	25.911695	0.000731	20.762618
1357.388518	-3.026800	3.464100	-10.484000	25.876148	0.000728	20.749667
1358.385703	-3.010100	3.464400	-10.427000	25.884222	0.000730	20.748294
1359.384706	-3.025000	3.463500	-10.477000	25.870411	0.000729	20.758128
1360.389082	-3.012900	3.464500	-10.437000	25.869693	0.000728	20.768312
1361.388597	-2.995900	3.465200	-10.380000	25.881862	0.000729	20.745923
1362.386043	-3.018300	3.464200	-10.454000	25.855184	0.000727	20.759427
1363.386046	-3.014200	3.464200	-10.440000	25.865597	0.000726	20.754240
1364.388651	-3.011200	3.462300	-10.425000	25.912328	0.000727	20.766098
1365.388457	-2.994900	3.462000	-10.367000	25.907206	0.000723	20.758582
1366.388751	-3.019500	3.461300	-10.450000	25.909049	0.000726	20.764701
1367.393919	-2.983800	3.462200	-10.330000	25.896625	0.000724	20.760755
1368.404672	-3.013900	3.459800	-10.426000	25.921944	0.000727	20.761060
1369.387883	-2.996800	3.461500	-10.373000	25.905056	0.000725	20.740300
1370.395682	-2.992400	3.462700	-10.360000	25.866254	0.000724	20.765332
1371.390365	-3.007100	3.461200	-10.407000	25.862999	0.000724	20.758269
1372.389230	-3.008900	3.459100	-10.406000	25.855373	0.000725	20.746815
1373.393289	-3.001900	3.459600	-10.385000	25.831375	0.000723	20.761588
1374.390313	-2.982900	3.461200	-10.323000	25.796199	0.000725	20.749961
1375.392834	-3.022900	3.457600	-10.451000	25.815129	0.000723	20.740053
1376.395539	-3.008600	3.457100	-10.400000	25.841764	0.000724	20.771076
1377.393208	-3.006900	3.458200	-10.398000	25.848716	0.000722	20.745817
1378.393541	-2.998700	3.457500	-10.368000	25.826330	0.000723	20.753201
1379.395267	-3.001600	3.457800	-10.379000	25.828169	0.000724	20.742246
1380.397165	-2.982900	3.457200	-10.312000	25.815277	0.000722	20.754426
1381.397289	-3.024900	3.454600	-10.449000	25.835721	0.000722	20.745565
1382.397882	-3.005300	3.456500	-10.387000	25.829010	0.000722	20.735504
1383.396727	-3.045500	3.455100	-10.521000	25.864838	0.000721	20.765332
1384.395459	-3.013500	3.454800	-10.410000	25.874643	0.000720	20.746732
1385.398683	-2.995700	3.454500	-10.347000	25.867986	0.000721	20.778926
1386.400732	-3.020900	3.454800	-10.435000	25.830746	0.000718	20.775182
1387.396759	-3.004900	3.454000	-10.378000	25.851461	0.000719	20.776076
1388.395228	-2.991900	3.453200	-10.330000	25.818716	0.000719	20.777795
1389.399246	-3.004500	3.452200	-10.371000	25.831735	0.000718	20.762898
1390.398798	-2.993300	3.451800	-10.331000	25.841146	0.000719	20.754334
1391.395342	-2.993600	3.451500	-10.331000	25.843428	0.000718	20.762791
1392.399829	-2.993000	3.452700	-10.333000	25.871596	0.000717	20.791562
1393.395870	-3.017800	3.451000	-10.413000	25.931908	0.000717	20.751155
1394.398899	-2.966000	3.452200	-10.239000	25.924307	0.000716	20.763434
1395.402075	-3.005700	3.451400	-10.374000	25.893033	0.000716	20.754301
1396.401731	-3.023200	3.449100	-10.427000	25.921417	0.000715	20.763849
1397.398955	-3.029900	3.448300	-10.446000	25.920128	0.000715	20.773935
1398.399377	-2.976900	3.450900	-10.271000	25.893369	0.000713	20.768389
1399.398458	-2.993900	3.450200	-10.328000	25.874711	0.000716	20.771931
1400.398755	-3.003700	3.448600	-10.357000	25.842265	0.000714	20.782486
1401.398919	-2.990100	3.447600	-10.308000	25.890434	0.000714	20.774450
1402.399757	-3.010600	3.448800	-10.382000	25.912116	0.000715	20.765886
1403.402997	-2.990400	3.448200	-10.311000	25.923095	0.000713	20.764113
1404.400019	-3.002800	3.445700	-10.345000	25.960277	0.000712	20.773967
1405.399703	-2.956600	3.448300	-10.193000	25.942171	0.000712	20.778535
1406.402054	-2.996300	3.448200	-10.331000	25.988890	0.000710	20.764780
1407.401562	-2.981600	3.444600	-10.268000	25.997631	0.000711	20.774037
1408.403085	-3.002400	3.444600	-10.342000	26.039378	0.000713	20.763823
1409.399836	-2.987400	3.445400	-10.292000	26.050852	0.000709	20.786731
1410.400733	-2.993400	3.445200	-10.312000	26.051541	0.000710	20.785053
1411.401071	-3.020700	3.443600	-10.401000	26.027321	0.000708	20.788219
1412.401824	-2.989600	3.444900	-10.298000	25.980718	0.000708	20.777433
1413.400860	-3.003200	3.443200	-10.339000	25.958236	0.000709	20.780925
1414.401739	-3.006600	3.443100	-10.351000	25.913916	0.000708	20.770064
1415.404253	-3.021000	3.441800	-10.397000	25.928350	0.000707	20.772712
1416.405076	-3.015500	3.441700	-10.377000	25.941536	0.000707	20.793071
1417.402953	-3.000400	3.442000	-10.326000	25.948189	0.000706	20.780314
1418.406486	-2.986700	3.443000	-10.283000	25.958966	0.000706	20.787822
1419.403395	-2.986900	3.442300	-10.281000	25.994103	0.000704	20.796571
1420.403834	-2.983000	3.442000	-10.266000	26.015492	0.000705	20.791034
1421.406919	-2.961300	3.441000	-10.187000	26.031013	0.000704	20.785764
1422.405278	-3.004100	3.440000	-10.332000	26.054949	0.000702	20.786580
1423.403136	-3.001200	3.439200	-10.320000	26.049852	0.000702	20.778140
1424.405864	-3.001900	3.439700	-10.324000	25.988796	0.000703	20.788868
1425.404627	-3.019900	3.439900	-10.387000	25.974215	0.000701	20.785599
1426.402806	-3.008800	3.438600	-10.345000	25.930519	0.000701	20.776313
1427.405037	-3.017700	3.439500	-10.378000	25.934783	0.000702	20.788658
1428.404719	-2.986900	3.439600	-10.271000	25.949287	0.000700	20.800858
1429.404331	-2.999600	3.437300	-10.307000	25.993498	0.000700	20.778420
1430.408752	-3.011900	3.435600	-10.346000	26.021835	0.000699	20.790294
1431.410119	-3.006900	3.437000	-10.334000	26.037404	0.000698	20.791238
1432.403425	-3.008300	3.435000	-10.333000	26.074780	0.000696	20.797023
1433.403960	-2.971600	3.437200	-10.213000	26.105651	0.000697	20.791531
1434.406494	-3.000400	3.434000	-10.302000	26.113590	0.000696	20.807569
1435.406307	-2.987600	3.434700	-10.261000	26.115474	0.000697	20.793814
1436.408334	-2.989600	3.435900	-10.271000	26.151160	0.000696	20.804068
1437.403407	-2.991500	3.435000	-10.275000	26.141694	0.000696	20.785547
1438.406487	-3.009900	3.433000	-10.332000	26.169727	0.000696	20.824621
1439.406344	-3.013500	3.433000	-10.345000	26.146179	0.000694	20.797166
1440.403563	-2.991700	3.433100	-10.270000	26.140590	0.000693	20.817154
1441.405795	-3.025100	3.432100	-10.381000	26.107599	0.000693	20.801548
1442.405622	-3.013200	3.432500	-10.341000	26.111148	0.000692	20.810331
1443.406442	-2.994300	3.429900	-10.268000	26.119392	0.000692	20.810553
1444.405380	-3.007000	3.431100	-10.316000	26.081016	0.000690	20.811349
1445.409015	-2.980300	3.431600	-10.226000	26.067027	0.000693	20.811518
1446.406655	-2.992300	3.430000	-10.262000	26.079046	0.000691	20.803206
1447.409225	-3.000600	3.430600	-10.293000	26.070769	0.000690	20.807217
1448.409794	-3.002800	3.430200	-10.299000	26.093445	0.000690	20.818147
1449.411883	-3.005700	3.429300	-10.305000	26.109034	0.000688	20.824802
1450.407125	-2.995200	3.428900	-10.269000	26.098254	0.000690	20.822505
1451.409953	-2.991200	3.429300	-10.257000	26.109678	0.000688	20.819759
1452.408647	-3.003000	3.428000	-10.293000	26.092887	0.000687	20.810948
1453.408964	-3.020500	3.427800	-10.354000	26.030619	0.000687	20.808602
1454.409446	-3.001800	3.426900	-10.285000	26.027459	0.000686	20.828187
1455.411654	-3.012800	3.427700	-10.326000	26.025120	0.000687	20.817776
1456.412567	-3.010400	3.425600	-10.311000	26.029564	0.000685	20.819870
1457.414855	-3.014900	3.426200	-10.328000	26.049040	0.000685	20.810989
1458.412015	-3.013100	3.426200	-10.323000	26.074023	0.000684	20.793891
1459.411442	-2.997200	3.426400	-10.267000	26.088627	0.000685	20.829427
1460.413988	-3.023000	3.425200	-10.353000	26.101713	0.000685	20.817920
1461.414353	-2.988800	3.426500	-10.240000	26.095755	0.000683	20.840856
1462.409855	-2.982300	3.426500	-10.217000	26.138045	0.000684	20.831192
1463.411833	-3.017800	3.424100	-10.333000	26.126744	0.000682	20.815096
1464.413822	-2.976500	3.425600	-10.196000	26.147876	0.000682	20.799820
1465.412537	-3.030300	3.422900	-10.371000	26.158155	0.000682	20.832907
1466.409691	-3.009900	3.423400	-10.303000	26.158881	0.000682	20.817042
1467.414200	-3.002300	3.422700	-10.275000	26.157781	0.000679	20.823523
1468.413617	-2.983100	3.424600	-10.215000	26.154454	0.000680	20.827766
1469.412672	-2.993300	3.423100	-10.245000	26.166673	0.000680	20.826768
1470.412329	-2.989900	3.422800	-10.233000	26.200068	0.000681	20.811014
1471.414563	-3.008900	3.420400	-10.290000	26.204541	0.000680	20.842060
1472.412701	-3.006100	3.419400	-10.278000	26.238957	0.000679	20.832074
1473.414421	-3.006300	3.420200	-10.281000	26.282787	0.000680	20.840085
1474.419339	-3.025000	3.419800	-10.344000	26.290012	0.000677	20.828380
1475.413391	-2.985900	3.419600	-10.209000	26.303120	0.000677	20.839182
1476.414991	-2.984400	3.418900	-10.202000	26.311961	0.000676	20.818670
1477.417722	-3.004900	3.418400	-10.271000	26.315761	0.000677	20.831971
1478.415379	-3.015900	3.419200	-10.311000	26.295022	0.000674	20.834362
1479.416697	-3.006800	3.418100	-10.277000	26.277864	0.000676	20.824706
1480.416908	-2.994700	3.419400	-10.239000	26.291965	0.000675	20.837929
1481.414399	-3.005300	3.417500	-10.270000	26.308577	0.000674	20.839450
1482.415520	-2.997800	3.416100	-10.239000	26.309619	0.000673	20.827221
1483.414309	-2.993300	3.416200	-10.225000	26.299260	0.000673	20.839095
1484.415934	-3.014100	3.415700	-10.295000	26.301738	0.000671	20.829258
1485.415252	-2.991100	3.416400	-10.217000	26.295780	0.000673	20.848875
1486.417078	-2.991800	3.415000	-10.216000	26.276978	0.000672	20.841833
1487.414818	-3.003600	3.413900	-10.254000	26.234365	0.000672	20.851641
1488.416059	-2.986400	3.415600	-10.199000	26.202448	0.000670	20.856552
1489.419049	-3.006700	3.413900	-10.263000	26.208434	0.000669	20.842179
1490.416439	-3.001800	3.414100	-10.247000	26.220103	0.000670	20.846319
1491.416618	-3.010600	3.414100	-10.277000	26.194127	0.000671	20.850561
1492.416367	-2.992200	3.414100	-10.215000	26.186426	0.000669	20.848986
1493.419122	-3.007200	3.411800	-10.259000	26.214417	0.000667	20.847716
1494.419206	-3.007300	3.412200	-10.260000	26.242501	0.000667	20.846067
1495.417837	-3.001600	3.411800	-10.240000	26.240487	0.000666	20.852103
1496.417356	-2.995600	3.411200	-10.217000	26.249078	0.000666	20.848883
1497.418901	-2.999100	3.411500	-10.230000	26.254966	0.000666	20.860489
1498.418092	-3.023800	3.411500	-10.313000	26.294574	0.000663	20.863309
1499.419281	-3.002900	3.411500	-10.242000	26.283374	0.000666	20.859640
1500.419827	-2.992000	3.409300	-10.199000	26.309570	0.000665	20.850879
1501.418500	-2.984000	3.410000	-10.174000	26.328762	0.000665	20.868743
1502.419718	-2.978800	3.409000	-10.154000	26.307904	0.000663	20.866273
1503.421059	-2.978500	3.410800	-10.158000	26.295715	0.000665	20.852128
1504.417418	-3.014700	3.408300	-10.274000	26.309865	0.000664	20.849279
1505.420706	-2.986500	3.409000	-10.180000	26.304675	0.000663	20.853072
1506.418074	-3.003800	3.406900	-10.232000	26.309943	0.000662	20.865478
1507.420561	-3.000300	3.407300	-10.222000	26.308995	0.000662	20.857888
1508.420925	-2.985500	3.407300	-10.172000	26.251089	0.000660	20.844266
1509.423445	-3.008900	3.407400	-10.251000	26.197697	0.000663	20.867898
1510.421373	-3.001700	3.407300	-10.227000	26.177846	0.000662	20.851270
1511.421167	-2.982900	3.407000	-10.161000	26.169328	0.000662	20.870211
1512.421249	-2.996900	3.405000	-10.203000	26.169455	0.000658	20.862753
1513.421175	-2.995000	3.404900	-10.197000	26.172360	0.000661	20.868042
1514.421978	-2.974100	3.405900	-10.128000	26.196942	0.000661	20.856234
1515.422881	-2.980800	3.405200	-10.149000	26.218200	0.000661	20.865268
1516.425232	-3.010900	3.402800	-10.244000	26.249809	0.000660	20.867160
1517.422624	-2.971800	3.405100	-10.119000	26.270524	0.000659	20.850046
1518.424286	-2.995300	3.402800	-10.192000	26.248196	0.000658	20.870281
1519.428007	-3.007400	3.403800	-10.235000	26.248791	0.000657	20.870405
1520.425226	-3.008500	3.402000	-10.234000	26.233914	0.000657	20.867783
1521.424598	-2.992700	3.401900	-10.179000	26.248914	0.000658	20.859623
1522.429355	-2.978000	3.402500	-10.132000	26.248164	0.000657	20.868826
1523.424790	-2.990300	3.400600	-10.168000	26.257153	0.000656	20.879755
1524.424815	-2.957700	3.402100	-10.061000	26.277294	0.000655	20.864909
1525.424414	-2.989500	3.401900	-10.169000	26.240462	0.000655	20.857768
1526.424472	-2.990200	3.401000	-10.169000	26.219053	0.000657	20.880823
1527.423675	-3.030000	3.398600	-10.296000	26.195633	0.000655	20.885737
1528.429406	-3.012800	3.397900	-10.236000	26.234353	0.000654	20.866801
1529.428101	-2.995500	3.399700	-10.183000	26.235740	0.000653	20.876255
1530.431187	-2.991000	3.398600	-10.164000	26.258835	0.000654	20.881920
1531.428514	-3.009900	3.398500	-10.228000	26.260796	0.000654	20.885787
1532.427943	-3.016800	3.397500	-10.248000	26.229102	0.000651	20.875274
1533.425867	-3.003000	3.396600	-10.200000	26.250507	0.000651	20.874025
1534.425917	-3.027100	3.397100	-10.281000	26.222094	0.000652	20.870603
1535.429111	-3.019800	3.396200	-10.255000	26.223883	0.000651	20.878564
1536.426752	-3.004700	3.396600	-10.205000	26.202252	0.000651	20.872475
1537.428215	-3.029300	3.395200	-10.284000	26.158414	0.000650	20.863986
1538.429651	-3.003000	3.395600	-10.196000	26.145919	0.000649	20.895525
1539.429464	-2.997300	3.395200	-10.176000	26.185429	0.000649	20.881174
1540.428761	-3.008500	3.396100	-10.216000	26.199880	0.000649	20.889057
1541.429263	-3.017100	3.394500	-10.240000	26.172611	0.000647	20.902905
1542.430970	-3.017300	3.393500	-10.239000	26.180029	0.000646	20.903721
1543.430424	-3.020800	3.391800	-10.244000	26.145234	0.000647	20.873027
1544.429873	-3.029100	3.392600	-10.276000	26.103684	0.000646	20.889597
1545.430688	-3.003900	3.392500	-10.190000	26.069456	0.000645	20.897879
1546.431955	-3.000800	3.393100	-10.181000	26.052710	0.000645	20.893382
1547.429962	-2.987100	3.393200	-10.134000	26.083926	0.000644	20.901986
1548.432335	-3.012000	3.391300	-10.214000	26.067433	0.000643	20.887313
1549.433378	-3.001300	3.391000	-10.177000	26.086109	0.000643	20.905128
1550.431606	-2.985000	3.391500	-10.122000	26.117500	0.000644	20.902530
1551.439678	-3.006300	3.390800	-10.192000	26.134287	0.000643	20.908018
1552.432057	-3.007900	3.389500	-10.194000	26.166124	0.000640	20.900655
1553.432907	-3.003300	3.389900	-10.179000	26.172780	0.000643	20.893592
1554.435707	-3.008400	3.390400	-10.198000	26.211021	0.000641	20.886975
1555.438489	-2.994600	3.390700	-10.152000	26.235253	0.000640	20.897101
1556.435987	-3.010400	3.390100	-10.204000	26.279503	0.000639	20.898895
1557.436882	-2.985500	3.389000	-10.116000	26.296488	0.000640	20.911696
1558.437172	-3.030300	3.386800	-10.261000	26.308776	0.000639	20.900812
1559.435357	-3.027700	3.387100	-10.254000	26.343512	0.000637	20.891152
1560.435557	-3.004000	3.386900	-10.172000	26.357990	0.000638	20.923243
1561.437885	-3.012500	3.386800	-10.201000	26.374769	0.000637	20.893643
1562.435593	-3.002000	3.385600	-10.162000	26.385444	0.000637	20.913852
1563.436240	-3.007200	3.385800	-10.181000	26.392442	0.000637	20.906188
1564.436402	-2.997800	3.386800	-10.152000	26.388045	0.000637	20.904139
1565.436948	-2.991600	3.386400	-10.129000	26.367853	0.000635	20.946903
1566.436882	-3.001500	3.385400	-10.161000	26.313921	0.000637	20.911198
1567.438576	-3.003700	3.385100	-10.167000	26.285830	0.000635	20.915209
1568.438505	-3.016300	3.383200	-10.203000	26.276562	0.000635	20.927231
1569.437411	-3.003100	3.384400	-10.163000	26.302163	0.000636	20.915976
1570.437417	-2.983800	3.385700	-10.100000	26.301220	0.000633	20.897486
1571.437165	-2.977300	3.383800	-10.073000	26.305610	0.000633	20.917543
1572.445170	-2.989000	3.383000	-10.111000	26.305831	0.000631	20.931041
1573.439702	-2.998200	3.383400	-10.143000	26.303419	0.000630	20.920083
1574.440579	-2.994000	3.382700	-10.127000	26.329815	0.000631	20.937126
1575.438765	-2.973700	3.382700	-10.057000	26.312728	0.000631	20.914266
1576.438355	-2.976400	3.384000	-10.071000	26.292416	0.000633	20.924671
1577.442396	-3.009200	3.382900	-10.179000	26.274631	0.000629	20.929557
1578.438718	-2.992400	3.381100	-10.117000	26.291768	0.000629	20.920701
1579.439178	-3.024000	3.380400	-10.221000	26.295612	0.000629	20.938788
1580.439307	-2.997400	3.381700	-10.135000	26.317808	0.000626	20.923163
1581.444263	-2.999600	3.380900	-10.140000	26.316593	0.000625	20.933795
1582.438891	-2.996200	3.379400	-10.124000	26.353914	0.000627	20.934319
1583.440399	-2.990700	3.380700	-10.109000	26.347851	0.000626	20.920640
1584.439319	-3.011500	3.379600	-10.177000	26.369254	0.000625	20.926503
1585.439574	-3.011700	3.378700	-10.174000	26.385520	0.000624	20.944271
1586.442093	-3.020100	3.379200	-10.205000	26.409875	0.000625	20.924182
1587.440844	-2.979500	3.378000	-10.064000	26.421197	0.000625	20.912329
1588.438733	-2.984800	3.377800	-10.081000	26.447595	0.000623	20.929850
1589.440945	-3.014300	3.376300	-10.175000	26.474160	0.000623	20.928102
1590.440713	-2.995700	3.376800	-10.115000	26.456578	0.000622	20.928923
1591.441142	-3.006000	3.376600	-10.148000	26.453801	0.000620	20.921390
1592.440393	-3.035300	3.374600	-10.242000	26.458638	0.000622	20.926251
1593.441430	-3.012500	3.375900	-10.168000	26.469889	0.000619	20.923336
1594.442257	-3.025400	3.374800	-10.208000	26.456558	0.000619	20.919420
1595.442253	-3.001000	3.374800	-10.127000	26.479078	0.000619	20.929726
1596.443753	-2.992000	3.375300	-10.098000	26.496852	0.000620	20.939056
1597.446553	-2.997500	3.374200	-10.113000	26.491741	0.000618	20.916377
1598.442736	-3.034700	3.372700	-10.235000	26.483771	0.000619	20.917849
1599.445936	-3.016900	3.372600	-10.173000	26.492061	0.000619	20.919069
1600.444165	-3.014500	3.373000	-10.166000	26.467933	0.000617	20.889130
1601.447071	-3.001600	3.372400	-10.122000	26.461796	0.000617	20.914728
1602.449277	-3.006100	3.372900	-10.138000	26.420557	0.000616	20.908367
1603.449307	-3.010700	3.371600	-10.150000	26.385548	0.000614	20.904001
1604.446684	-3.023500	3.370600	-10.189000	26.394241	0.000613	20.911314
1605.449623	-2.989500	3.371500	-10.078000	26.409830	0.000614	20.915128
1606.446175	-2.983500	3.371300	-10.058000	26.421698	0.000615	20.905720
1607.446091	-3.020900	3.369100	-10.177000	26.393223	0.000613	20.903654
1608.448456	-2.992900	3.370100	-10.085000	26.401440	0.000612	20.910964
1609.447757	-2.987700	3.369400	-10.065000	26.419367	0.000613	20.902904
1610.446643	-2.983700	3.370100	-10.054000	26.406084	0.000612	20.880072
1611.452645	-3.002200	3.369900	-10.116000	26.418772	0.000611	20.895669
1612.447640	-3.022100	3.367300	-10.176000	26.424905	0.000612	20.885238
1613.450789	-3.023400	3.366900	-10.179000	26.436724	0.000610	20.864402
1614.454069	-3.021300	3.367200	-10.172000	26.432904	0.000611	20.918879
1615.446444	-3.028700	3.367200	-10.197000	26.419868	0.000609	20.889184
1616.448719	-3.010000	3.367400	-10.135000	26.474442	0.000608	20.895673
1617.449349	-2.994400	3.367800	-10.083000	26.486953	0.000607	20.906825
1618.450584	-3.009400	3.365200	-10.126000	26.497237	0.000609	20.919531
1619.451495	-3.023500	3.365200	-10.173000	26.525265	0.000608	20.889860
1620.448019	-2.995800	3.365800	-10.082000	26.558411	0.000607	20.889039
1621.448914	-2.998300	3.365600	-10.089000	26.562013	0.000607	20.882702
1622.449144	-3.004300	3.365700	-10.111000	26.565417	0.000605	20.871900
1623.450022	-2.986500	3.366000	-10.052000	26.567500	0.000605	20.884900
1624.450174	-2.993100	3.365100	-10.071000	26.551910	0.000603	20.880134
1625.450317	-2.980200	3.365300	-10.027000	26.569785	0.000603	20.899049
1626.451037	-2.996600	3.363800	-10.079000	26.588058	0.000605	20.879486
1627.453083	-2.988900	3.365200	-10.058000	26.569264	0.000603	20.888569
1628.455749	-2.989600	3.363000	-10.053000	26.544367	0.000603	20.887249
1629.451818	-2.994200	3.362400	-10.067000	26.489595	0.000603	20.869654
1630.453353	-3.024800	3.363200	-10.172000	26.441953	0.000602	20.891467
1631.453825	-2.991800	3.363000	-10.061000	26.415580	0.000600	20.897676
1632.454739	-2.988500	3.360900	-10.043000	26.427427	0.000601	20.855533
1633.453459	-2.980800	3.361800	-10.020000	26.450892	0.000600	20.880538
1634.458186	-3.002200	3.362000	-10.093000	26.467054	0.000598	20.874972
1635.455761	-3.004800	3.361700	-10.101000	26.481108	0.000599	20.894786
1636.453924	-3.009800	3.359200	-10.108000	26.465512	0.000597	20.863465
1637.458050	-2.999300	3.361800	-10.082000	26.472567	0.000600	20.874823
1638.454664	-3.005000	3.358500	-10.090000	26.429688	0.000598	20.867287
1639.455977	-3.006900	3.358600	-10.097000	26.399520	0.000598	20.876794
1640.454649	-2.988800	3.358700	-10.036000	26.412208	0.000597	20.868685
1641.456293	-2.984600	3.359900	-10.028000	26.405185	0.000595	20.873005
1642.462298	-2.998900	3.359400	-10.072000	26.386409	0.000594	20.883057
1643.459321	-3.009400	3.357900	-10.104000	26.392296	0.000595	20.865741
1644.467302	-3.007100	3.356400	-10.092000	26.405009	0.000595	20.869035
1645.458801	-2.998300	3.357700	-10.066000	26.416536	0.000595	20.848853
1646.456587	-2.978800	3.357200	-9.999100	26.430885	0.000594	20.871809
1647.461571	-3.004500	3.356500	-10.084000	26.472596	0.000594	20.870585
1648.461751	-2.982300	3.356100	-10.007000	26.488064	0.000593	20.870486
1649.460437	-2.991400	3.356900	-10.041000	26.504402	0.000593	20.873632
1650.462162	-3.004000	3.356000	-10.080000	26.498618	0.000592	20.845060
1651.460181	-2.968400	3.355900	-9.960200	26.503311	0.000591	20.851673
1652.458036	-3.025200	3.354500	-10.147000	26.499590	0.000592	20.873537
1653.458855	-3.012400	3.355600	-10.108000	26.511404	0.000590	20.865497
1654.462709	-3.012700	3.353600	-10.103000	26.532438	0.000591	20.836381
1655.457451	-3.014300	3.352800	-10.105000	26.550137	0.000589	20.844689
1656.461049	-2.986600	3.354800	-10.019000	26.540876	0.000588	20.860983
1657.459013	-3.020400	3.353200	-10.126000	26.516351	0.000588	20.850082
1658.458838	-3.001200	3.352400	-10.060000	26.480053	0.000586	20.856744
1659.458840	-3.004900	3.351300	-10.069000	26.457537	0.000587	20.851656
1660.464235	-3.009300	3.351100	-10.083000	26.452569	0.000585	20.872267
1661.458160	-2.989800	3.352000	-10.021000	26.455301	0.000582	20.859366
1662.459531	-2.980300	3.350900	-9.986300	26.481025	0.000583	20.828325
1663.462938	-3.002300	3.350400	-10.057000	26.490906	0.000584	20.869550
1664.459634	-2.995200	3.350000	-10.033000	26.498232	0.000584	20.861267
1665.461727	-3.004600	3.351200	-10.068000	26.504964	0.000585	20.838162
1666.465399	-3.003400	3.350200	-10.061000	26.525370	0.000582	20.857251
1667.461722	-2.967600	3.352300	-9.946100	26.534579	0.000581	20.865085
1668.458360	-3.009000	3.349100	-10.076000	26.512659	0.000583	20.850164
1669.462042	-3.000500	3.349800	-10.050000	26.512310	0.000581	20.830848
1670.458938	-3.005400	3.349700	-10.066000	26.471890	0.000580	20.844746
1671.458816	-3.006900	3.348800	-10.068000	26.446075	0.000580	20.841085
1672.459742	-3.004200	3.348200	-10.057000	26.463525	0.000580	20.825434
1673.460404	-3.033100	3.347800	-10.153000	26.479093	0.000580	20.860995
1674.465161	-2.987400	3.346800	-9.996800	26.475938	0.000580	20.842652
1675.463957	-3.002800	3.346400	-10.048000	26.477255	0.000579	20.836389
1676.468683	-3.000000	3.346600	-10.039000	26.501608	0.000577	20.821988
1677.465182	-2.994900	3.345400	-10.017000	26.512479	0.000578	20.815845
1678.467430	-3.006400	3.345100	-10.056000	26.521740	0.000579	20.839853
1679.466994	-2.991400	3.345700	-10.006000	26.504037	0.000576	20.836756
1680.468371	-3.005900	3.346000	-10.057000	26.448122	0.000579	20.834608
1681.466358	-2.993900	3.344800	-10.013000	26.405041	0.000577	20.839671
1682.469065	-3.008200	3.344900	-10.061000	26.410354	0.000578	20.826519
1683.472195	-3.015500	3.344000	-10.083000	26.418648	0.000576	20.840071
1684.467728	-2.990800	3.344800	-10.003000	26.433712	0.000575	20.840039
1685.470078	-3.012400	3.344400	-10.074000	26.475049	0.000577	20.844129
1686.469991	-2.988000	3.343700	-9.988900	26.499599	0.000576	20.824236
1687.470825	-2.997400	3.343000	-10.019000	26.501363	0.000573	20.827431
1688.470174	-2.988500	3.343500	-9.990900	26.528300	0.000573	20.822739
1689.470835	-3.022900	3.341600	-10.100000	26.518862	0.000574	20.835537
1690.468850	-3.010200	3.340800	-10.055000	26.498201	0.000573	20.834684
1691.469249	-2.996600	3.342600	-10.016000	26.470144	0.000570	20.836354
1692.471705	-3.012900	3.340700	-10.064000	26.469122	0.000572	20.847181
1693.474406	-2.984200	3.340800	-9.968600	26.466091	0.000572	20.844134
1694.470710	-2.975900	3.340900	-9.941900	26.502857	0.000569	20.838416
1695.474061	-3.001900	3.338800	-10.021000	26.475793	0.000569	20.841557
1696.472346	-3.004300	3.338700	-10.030000	26.521000	0.000569	20.832945
1697.471646	-3.008200	3.339600	-10.044000	26.521049	0.000567	20.829201
1698.474843	-2.978000	3.339600	-9.943100	26.534926	0.000568	20.824184
1699.471934	-3.030500	3.337300	-10.112000	26.554135	0.000568	20.819311
1700.471633	-3.052000	3.336500	-10.182000	26.564512	0.000567	20.815992
1701.472351	-3.007900	3.337400	-10.037000	26.560390	0.000568	20.809951
1702.478466	-3.006500	3.337400	-10.033000	26.543282	0.000565	20.831160
1703.472723	-3.014000	3.337300	-10.057000	26.522498	0.000566	20.827338
1704.472931	-2.978400	3.337100	-9.937800	26.545112	0.000566	20.830629
1705.476308	-3.006700	3.336000	-10.029000	26.487263	0.000564	20.829380
1706.474673	-3.009200	3.334900	-10.035000	26.445349	0.000564	20.824709
1707.476155	-3.006500	3.335200	-10.026000	26.411977	0.000564	20.829574
1708.479698	-2.998300	3.336100	-10.002000	26.383294	0.000563	20.821134
1709.475070	-3.011700	3.335600	-10.045000	26.339341	0.000562	20.832910
1710.475294	-3.000900	3.334600	-10.006000	26.332584	0.000562	20.816637
1711.479525	-3.010200	3.335200	-10.038000	26.332084	0.000562	20.831306
1712.478766	-3.022700	3.333100	-10.074000	26.352937	0.000561	20.828083
1713.476494	-2.997600	3.334000	-9.992600	26.365351	0.000562	20.820171
1714.478683	-3.002300	3.332800	-10.005000	26.410215	0.000560	20.813104
1715.477790	-2.995800	3.333900	-9.987300	26.421710	0.000558	20.811381
1716.476747	-2.989500	3.333000	-9.963200	26.443283	0.000561	20.831641
1717.476665	-3.024000	3.331200	-10.072000	26.461628	0.000557	20.824002
1718.479090	-3.012500	3.330300	-10.030000	26.467782	0.000557	20.819755
1719.480860	-2.985200	3.331600	-9.944600	26.482151	0.000557	20.820448
1720.477643	-2.977400	3.332700	-9.921700	26.461194	0.000557	20.822143
1721.477048	-2.993900	3.330500	-9.969700	26.414048	0.000557	20.837344
1722.483127	-3.015100	3.329700	-10.038000	26.392561	0.000556	20.832818
1723.481595	-2.962000	3.331400	-9.866700	26.402563	0.000555	20.831965
1724.484499	-2.995000	3.330000	-9.971300	26.351586	0.000556	20.821035
1725.488225	-2.996100	3.329800	-9.974800	26.312096	0.000553	20.794149
1726.479970	-3.003300	3.329300	-9.997400	26.303804	0.000555	20.818059
1727.483308	-2.998500	3.328900	-9.980800	26.305240	0.000552	20.831356
1728.482208	-2.980500	3.328100	-9.918900	26.285544	0.000554	20.822467
1729.482183	-2.961700	3.329100	-9.858100	26.266121	0.000553	20.800578
1730.483481	-3.027800	3.325300	-10.068000	26.315387	0.000552	20.810733
1731.482295	-3.008000	3.325300	-10.001000	26.369688	0.000552	20.814572
1732.487638	-3.003900	3.327800	-9.996200	26.383891	0.000550	20.806087
1733.480667	-3.010000	3.326000	-10.010000	26.387440	0.000552	20.818662
1734.488241	-2.977800	3.326500	-9.904800	26.395354	0.000550	20.821875
1735.481949	-3.000200	3.326600	-9.978900	26.409978	0.000549	20.817133
1736.485885	-2.993200	3.325500	-9.952900	26.403669	0.000547	20.804628
1737.482419	-2.992400	3.325500	-9.950100	26.431503	0.000548	20.816008
1738.487110	-3.000100	3.324200	-9.971100	26.435199	0.000545	20.803128
1739.480866	-2.990600	3.323800	-9.939000	26.457991	0.000548	20.806121
1740.484032	-2.999100	3.323000	-9.965100	26.495599	0.000547	20.796033
1741.480818	-2.993400	3.324400	-9.950300	26.501235	0.000545	20.814500
1742.481318	-3.016600	3.321800	-10.018000	26.489864	0.000544	20.801174
1743.482804	-2.996900	3.322900	-9.956700	26.519779	0.000543	20.807062
1744.482187	-3.006600	3.321700	-9.985900	26.497133	0.000542	20.824602
1745.481394	-3.000000	3.322400	-9.966500	26.498893	0.000543	20.795077
1746.481356	-3.012400	3.321100	-10.004000	26.458870	0.000541	20.810324
1747.483030	-3.004600	3.319900	-9.973600	26.454374	0.000541	20.813866
1748.480123	-2.974200	3.322500	-9.880700	26.455691	0.000541	20.792904
1749.482311	-2.996100	3.320600	-9.948300	26.472846	0.000541	20.783595
1750.485340	-2.983100	3.320800	-9.906300	26.472842	0.000539	20.814885
1751.480615	-3.001300	3.319800	-9.962000	26.510478	0.000541	20.783014
1752.482749	-3.018800	3.318800	-10.017000	26.531832	0.000537	20.792150
1753.485336	-2.991900	3.319400	-9.930400	26.575601	0.000540	20.802957
1754.483402	-2.984500	3.318000	-9.901500	26.565893	0.000537	20.787982
1755.484254	-3.001900	3.317500	-9.957900	26.565347	0.000536	20.791701
1756.487319	-2.994800	3.316700	-9.932100	26.552985	0.000536	20.791128
1757.485379	-2.986300	3.318400	-9.908500	26.574035	0.000535	20.791899
1758.483375	-3.001000	3.317200	-9.954100	26.568399	0.000537	20.794769
1759.488707	-3.006900	3.316400	-9.971500	26.576467	0.000535	20.780594
1760.484455	-2.997400	3.317000	-9.941500	26.586397	0.000534	20.800059
1761.490725	-3.002800	3.316500	-9.957600	26.613902	0.000534	20.793569
1762.488195	-2.991500	3.315600	-9.917400	26.651012	0.000534	20.784408
1763.488183	-2.986200	3.316400	-9.902200	26.680430	0.000533	20.781740
1764.484442	-2.997100	3.316300	-9.936400	26.727815	0.000533	20.788601
1765.489449	-2.992400	3.315200	-9.918800	26.686857	0.000532	20.793891
1766.485773	-2.968100	3.315200	-9.838400	26.681021	0.000531	20.791817
1767.492388	-2.986000	3.315800	-9.899800	26.686111	0.000532	20.797408
1768.490292	-2.998200	3.312800	-9.931600	26.707035	0.000532	20.784779
1769.488603	-2.983300	3.314600	-9.886700	26.718629	0.000532	20.798332
1770.485974	-2.999000	3.312000	-9.931700	26.747492	0.000529	20.805539
1771.490771	-3.004100	3.313100	-9.951200	26.730367	0.000528	20.787847
1772.491154	-3.017300	3.311100	-9.989800	26.719642	0.000529	20.780859
1773.490332	-2.996100	3.311900	-9.921800	26.717481	0.000526	20.782479
1774.490959	-3.004500	3.311900	-9.949500	26.726446	0.000527	20.781535
1775.493105	-2.993600	3.312000	-9.912300	26.693006	0.000528	20.791538
1776.493531	-2.993600	3.311300	-9.910800	26.689007	0.000527	20.805062
1777.489835	-3.004000	3.310800	-9.944800	26.692953	0.000526	20.781053
1778.495433	-3.010900	3.308900	-9.960700	26.624641	0.000525	20.786347
1779.490822	-3.013700	3.308800	-9.970400	26.618305	0.000525	20.779029
1780.493917	-3.014300	3.309200	-9.974200	26.603658	0.000526	20.778530
1781.493739	-3.013100	3.308500	-9.967600	26.595288	0.000525	20.772960
1782.491301	-2.991800	3.309500	-9.900700	26.627935	0.000525	20.785865
1783.497735	-2.994100	3.307500	-9.902100	26.651265	0.000521	20.779446
1784.495672	-2.998700	3.307600	-9.917100	26.666431	0.000522	20.774305
1785.497984	-2.993600	3.307300	-9.899800	26.657347	0.000523	20.790302
1786.495571	-3.027100	3.306200	-10.007000	26.694800	0.000522	20.794764
1787.493703	-3.004100	3.307300	-9.934500	26.710536	0.000521	20.796360
1788.493486	-2.998900	3.306900	-9.915800	26.737989	0.000519	20.769906
1789.494488	-2.996500	3.306200	-9.906100	26.742874	0.000518	20.808956
1790.496471	-3.015300	3.305000	-9.964100	26.712665	0.000519	20.776689
1791.497014	-3.017900	3.304500	-9.970900	26.662545	0.000518	20.777510
1792.502783	-2.982900	3.307400	-9.863900	26.648846	0.000516	20.792662
1793.498520	-2.999500	3.304200	-9.910700	26.685057	0.000518	20.781176
1794.494523	-3.016300	3.304000	-9.964600	26.684462	0.000515	20.776784
1795.497948	-3.014700	3.303200	-9.956900	26.733237	0.000515	20.782672
1796.501401	-3.020900	3.302800	-9.976100	26.733860	0.000514	20.767651
1797.498552	-2.998100	3.302800	-9.901200	26.717473	0.000513	20.786264
1798.498770	-2.970300	3.304200	-9.813200	26.681185	0.000514	20.787241
1799.498279	-2.992500	3.302800	-9.882300	26.657255	0.000513	20.780252
1800.499064	-2.990900	3.301900	-9.875300	26.588764	0.000511	20.800068
1801.500476	-2.991700	3.302100	-9.878400	26.541320	0.000510	20.770394
1802.499800	-2.977000	3.302700	-9.830600	26.528834	0.000511	20.767326
1803.502126	-3.016900	3.299400	-9.952900	26.527616	0.000509	20.760411
1804.502779	-3.018700	3.299300	-9.957200	26.555496	0.000510	20.769944
1805.501368	-3.004000	3.298200	-9.906400	26.599138	0.000510	20.768295
1806.503326	-2.989200	3.300400	-9.865000	26.648191	0.000510	20.773037
1807.503519	-2.986300	3.299400	-9.852000	26.677236	0.000509	20.796073
1808.505167	-2.998000	3.299700	-9.891300	26.700199	0.000509	20.774113
1809.504845	-3.017900	3.298300	-9.952300	26.662812	0.000510	20.773037
1810.508689	-3.012600	3.298400	-9.935500	26.679168	0.000506	20.791377
1811.501883	-2.987000	3.298100	-9.850100	26.688826	0.000505	20.779749
1812.504946	-3.016800	3.296000	-9.942000	26.686518	0.000508	20.776954
1813.506298	-2.998700	3.295900	-9.883000	26.731072	0.000506	20.774332
1814.506590	-3.011500	3.296100	-9.925700	26.746238	0.000504	20.763500
1815.505945	-2.992500	3.296700	-9.864300	26.793500	0.000504	20.771664
1816.503039	-3.028900	3.294100	-9.976200	26.831424	0.000504	20.773759
1817.504910	-2.954200	3.298000	-9.741400	26.840884	0.000504	20.788012
1818.504997	-2.994600	3.295600	-9.868200	26.875656	0.000501	20.773189
1819.505872	-3.007900	3.294700	-9.909200	26.881487	0.000501	20.785691
1820.502101	-2.989600	3.294700	-9.847700	26.885633	0.000501	20.786540
1821.502736	-3.001700	3.294200	-9.886500	26.921372	0.000500	20.780751
1822.505761	-2.995000	3.294800	-9.866800	26.893674	0.000500	20.775659
1823.508009	-3.022800	3.293100	-9.952200	26.836734	0.000498	20.767244
1824.502351	-3.009800	3.291600	-9.905800	26.789907	0.000498	20.754775
1825.509167	-2.987600	3.292700	-9.836400	26.787623	0.000499	20.779031
1826.504327	-2.993700	3.292400	-9.855600	26.774538	0.000499	20.785316
1827.502568	-2.998500	3.293300	-9.873300	26.779705	0.000497	20.775337
1828.502393	-3.000900	3.292500	-9.879500	26.770990	0.000496	20.772266
1829.504076	-3.009900	3.291100	-9.904400	26.783354	0.000498	20.780429
1830.502973	-2.991400	3.291500	-9.845200	26.808078	0.000498	20.789640
1831.502913	-3.000200	3.290600	-9.870600	26.805642	0.000495	20.767276
1832.506413	-2.982700	3.291000	-9.815100	26.854985	0.000493	20.778009
1833.506140	-2.980000	3.289000	-9.800100	26.881445	0.000495	20.773795
1834.504637	-2.988600	3.289900	-9.831200	26.831903	0.000494	20.762386
1835.510615	-3.004800	3.288600	-9.881300	26.842721	0.000493	20.777057
1836.508807	-3.001700	3.287900	-9.867900	26.834507	0.000493	20.782549
1837.507985	-3.000100	3.288800	-9.865600	26.810207	0.000491	20.764279
1838.513718	-2.997800	3.288300	-9.856900	26.801222	0.000491	20.789385
1839.506394	-3.002300	3.289000	-9.873300	26.816858	0.000490	20.753897
1840.510415	-3.025300	3.285500	-9.938400	26.813684	0.000490	20.759714
1841.513446	-2.994600	3.288000	-9.845200	26.813979	0.000490	20.772814
1842.510891	-2.968700	3.287600	-9.759000	26.861260	0.000490	20.778154
1843.510233	-2.991200	3.287000	-9.830900	26.854211	0.000488	20.782920
1844.515356	-2.989300	3.286900	-9.824000	26.865352	0.000488	20.798864
1845.511429	-2.997100	3.285900	-9.846500	26.902035	0.000487	20.753246
1846.514766	-2.980700	3.285500	-9.792300	26.908313	0.000487	20.783267
1847.511330	-3.005800	3.284600	-9.871800	26.880643	0.000485	20.786738
1848.513258	-3.019100	3.282900	-9.910000	26.825617	0.000484	20.773136
1849.510760	-3.013100	3.283800	-9.892600	26.786673	0.000483	20.789930
1850.511738	-3.010700	3.282200	-9.880700	26.810080	0.000484	20.765100
1851.512070	-3.003100	3.283700	-9.859800	26.838445	0.000483	20.774654
1852.510814	-3.004500	3.283400	-9.863800	26.853412	0.000481	20.790651
1853.510382	-3.020600	3.282500	-9.914300	26.879594	0.000480	20.779993
1854.512002	-3.007000	3.281800	-9.866400	26.844223	0.000480	20.788050
1855.517199	-2.988400	3.283000	-9.808900	26.809256	0.000479	20.770436
1856.515441	-3.011600	3.280600	-9.878900	26.793194	0.000478	20.781313
1857.513768	-3.014100	3.280600	-9.887500	26.776410	0.000478	20.775818
1858.516983	-2.982600	3.282500	-9.789400	26.769068	0.000479	20.778868
1859.515372	-2.979400	3.280800	-9.774000	26.762762	0.000477	20.785804
1860.512477	-3.009600	3.280200	-9.870600	26.734465	0.000474	20.793390
1861.519396	-2.992100	3.279100	-9.810600	26.759284	0.000476	20.769505
1862.517795	-2.983100	3.280800	-9.786100	26.787506	0.000476	20.797880
1863.516646	-2.987200	3.279600	-9.796000	26.840250	0.000471	20.786900
1864.521382	-2.998700	3.280300	-9.834600	26.875068	0.000475	20.792512
1865.517608	-3.007100	3.278600	-9.857900	26.903484	0.000474	20.777463
1866.518592	-2.999400	3.279300	-9.834400	26.944831	0.000472	20.802445
1867.518261	-3.028900	3.275600	-9.920000	26.971363	0.000474	20.783606
1868.520603	-2.986800	3.276500	-9.785200	26.914502	0.000470	20.791387
1869.520470	-2.987500	3.277900	-9.791000	26.909913	0.000471	20.776341
1870.521581	-2.999400	3.276000	-9.824200	26.908249	0.000471	20.800272
1871.523149	-2.973300	3.277200	-9.743200	26.960117	0.000470	20.800746
1872.521542	-3.002100	3.276400	-9.834400	26.962327	0.000469	20.781157
1873.520593	-3.000000	3.275400	-9.824600	27.001687	0.000470	20.791815
1874.526155	-2.993500	3.274500	-9.801500	27.013967	0.000467	20.770499
1875.520466	-2.982200	3.274100	-9.761900	27.017887	0.000468	20.773019
1876.522562	-2.988100	3.276300	-9.788200	27.001606	0.000466	20.799794
1877.525196	-2.992000	3.274200	-9.794900	26.982074	0.000467	20.778730
1878.525609	-2.996600	3.274100	-9.810400	27.009449	0.000465	20.787293
1879.525753	-3.006300	3.272400	-9.837300	27.003689	0.000466	20.793354
1880.523325	-2.988200	3.274000	-9.781900	27.045455	0.000464	20.796475
1881.524800	-3.009600	3.272900	-9.849200	27.054036	0.000465	20.797519
1882.524847	-2.992600	3.271800	-9.790200	27.042126	0.000462	20.795024
1883.525485	-3.000100	3.272600	-9.817100	27.067705	0.000461	20.809843
1884.526399	-3.022700	3.270700	-9.885900	27.056985	0.000462	20.813286
1885.530399	-3.001000	3.271000	-9.815800	27.016708	0.000461	20.797437
1886.525681	-2.998800	3.269800	-9.804600	27.036211	0.000460	20.808042
1887.528245	-3.002000	3.270800	-9.817200	27.021718	0.000458	20.801054
1888.530037	-2.996300	3.269100	-9.794100	27.031320	0.000460	20.796960
1889.529029	-3.007700	3.269900	-9.833500	27.050803	0.000458	20.768662
1890.528747	-2.983200	3.269100	-9.751900	27.053406	0.000457	20.802575
1891.534191	-2.990200	3.270000	-9.776800	27.070478	0.000457	20.800303
1892.526814	-3.028700	3.267300	-9.894900	27.061942	0.000457	20.822065
1893.529675	-2.989400	3.268600	-9.769900	27.075492	0.000455	20.800604
1894.533580	-2.993400	3.267800	-9.779800	27.058469	0.000453	20.796287
1895.529918	-3.003200	3.266500	-9.807300	27.052512	0.000457	20.795038
1896.531311	-3.002200	3.266500	-9.805700	26.986929	0.000456	20.804001
1897.529280	-3.000200	3.266100	-9.796500	26.946449	0.000455	20.802175
1898.531429	-3.002200	3.266000	-9.803000	26.913815	0.000453	20.810611
1899.530696	-3.008500	3.265300	-9.822400	26.934288	0.000452	20.805593
1900.531430	-3.001800	3.264600	-9.798200	26.944708	0.000452	20.809907
1901.533865	-3.006400	3.264900	-9.814200	26.914361	0.000452	20.801676
1902.529546	-3.020200	3.262900	-9.853100	26.910064	0.000450	20.785502
1903.534806	-3.030800	3.262800	-9.887900	26.931906	0.000450	20.786128
1904.531614	-2.970600	3.265500	-9.698700	26.934682	0.000449	20.817369
1905.532428	-2.988600	3.263600	-9.753400	26.961485	0.000450	20.815398
1906.533878	-3.010000	3.263300	-9.821400	26.936245	0.000447	20.794284
1907.534561	-3.010300	3.262200	-9.818600	26.938722	0.000448	20.793931
1908.534711	-3.016100	3.261800	-9.836500	26.961383	0.000446	20.820985
1909.532691	-3.020100	3.261400	-9.848900	26.999948	0.000447	20.796705
1910.538733	-2.985900	3.262200	-9.739400	27.014413	0.000444	20.817889
1911.536582	-2.980200	3.261400	-9.718900	27.030912	0.000445	20.812670
1912.533572	-3.003100	3.261500	-9.792400	27.048009	0.000444	20.820380
1913.535429	-2.979300	3.260800	-9.714000	27.064285	0.000444	20.832007
1914.535326	-2.990500	3.261200	-9.751600	27.090888	0.000444	20.820830
1915.540559	-2.999700	3.258300	-9.773100	27.054507	0.000441	20.825967
1916.536579	-2.988600	3.258300	-9.735600	27.046196	0.000440	20.810023
1917.542650	-2.990000	3.258200	-9.741000	27.062867	0.000438	20.814935
1918.535367	-2.983500	3.258800	-9.720600	27.054254	0.000440	20.803428
1919.536861	-2.972000	3.257900	-9.680800	27.052790	0.000438	20.826611
1920.536837	-2.984000	3.258000	-9.720800	27.065471	0.000439	20.812337
1921.537363	-2.991100	3.256900	-9.740400	27.093583	0.000437	20.823540
1922.538915	-3.002700	3.257100	-9.778000	27.114130	0.000436	20.818600
1923.540192	-2.995200	3.256100	-9.752200	27.158392	0.000438	20.821866
1924.538176	-2.985700	3.257000	-9.722200	27.204862	0.000435	20.830199
1925.538495	-2.986100	3.255100	-9.718600	27.227542	0.000437	20.819347
1926.543179	-3.001000	3.255000	-9.766800	27.255928	0.000438	20.835570
1927.538452	-3.015600	3.254300	-9.812600	27.267188	0.000436	20.818922
1928.538885	-3.014600	3.253400	-9.805500	27.228461	0.000435	20.826434
1929.543437	-3.025200	3.253900	-9.842800	27.229453	0.000435	20.830277
1930.538128	-2.997000	3.253900	-9.751100	27.222505	0.000432	20.827082
1931.542669	-3.022300	3.253200	-9.830200	27.155887	0.000434	20.822666
1932.544669	-3.010500	3.253800	-9.794200	27.109637	0.000432	20.828306
1933.541860	-2.999300	3.252300	-9.752800	27.123105	0.000432	20.841851
1934.543251	-3.014100	3.252300	-9.800800	27.131992	0.000431	20.843677
1935.542566	-3.019700	3.252600	-9.820000	27.120424	0.000431	20.819715
1936.542566	-2.995200	3.251900	-9.738500	27.121613	0.000431	20.847937
1937.544943	-3.016400	3.251300	-9.806500	27.155036	0.000430	20.830344
1938.541567	-3.015200	3.251700	-9.802200	27.171884	0.000430	20.831643
1939.543507	-3.006800	3.250800	-9.773200	27.183100	0.000427	20.852405
1940.558565	-2.997900	3.249400	-9.740000	27.156872	0.000428	20.832191
1941.541037	-3.010700	3.248800	-9.779400	27.172004	0.000424	20.833659
1942.548362	-3.027200	3.249300	-9.835400	27.199571	0.000426	20.839101
1943.544734	-2.981900	3.249100	-9.687700	27.194484	0.000428	20.841097
1944.544850	-3.002100	3.250000	-9.756200	27.190910	0.000425	20.832761
1945.543666	-2.998100	3.248500	-9.738200	27.232689	0.000424	20.848230
1946.547092	-2.998700	3.247700	-9.737600	27.236263	0.000423	20.839498
1947.544963	-3.013100	3.248800	-9.787200	27.190734	0.000423	20.835903
1948.547208	-3.001400	3.246900	-9.743800	27.146743	0.000423	20.841918
1949.547263	-3.046100	3.245800	-9.885200	27.100169	0.000422	20.851974
1950.544430	-3.011800	3.245200	-9.773400	27.088206	0.000420	20.839469
1951.546584	-2.993800	3.245800	-9.716300	27.085821	0.000420	20.835648
1952.545172	-2.996900	3.245400	-9.725300	27.134905	0.000419	20.857985
1953.542843	-3.011000	3.244300	-9.767300	27.180063	0.000417	20.841766
1954.547346	-3.014400	3.244300	-9.778300	27.208496	0.000418	20.849026
1955.547485	-3.003600	3.243600	-9.740500	27.197034	0.000418	20.854567
1956.549665	-3.008000	3.243900	-9.756200	27.231071	0.000414	20.834749
1957.547953	-3.008500	3.243200	-9.755900	27.245438	0.000416	20.867216
1958.546273	-2.997900	3.243300	-9.722100	27.242236	0.000414	20.845031
1959.546496	-3.015900	3.241800	-9.776400	27.250201	0.000415	20.844508
1960.546339	-3.024400	3.241200	-9.800700	27.261686	0.000413	20.863646
1961.545697	-2.992900	3.243200	-9.705600	27.302401	0.000413	20.857186
1962.546390	-3.016700	3.241400	-9.777500	27.305996	0.000412	20.838517
1963.551927	-3.008100	3.240900	-9.748600	27.298281	0.000412	20.833129
1964.548147	-3.029300	3.239400	-9.812000	27.335121	0.000410	20.852642
1965.547387	-3.017700	3.238900	-9.772800	27.339487	0.000410	20.852292
1966.550414	-3.009900	3.238800	-9.746700	27.327457	0.000410	20.846355
1967.552837	-3.020400	3.239100	-9.781700	27.312992	0.000410	20.860253
1968.548990	-2.985000	3.239200	-9.667600	27.275979	0.000410	20.860954
1969.554158	-2.988700	3.238400	-9.677300	27.266949	0.000408	20.857086
1970.553800	-2.979800	3.238900	-9.650400	27.237128	0.000407	20.864075
1971.557174	-2.984400	3.238400	-9.663400	27.212514	0.000403	20.854015
1972.551133	-2.959900	3.240700	-9.590300	27.155275	0.000405	20.874204
1973.555130	-2.979100	3.235400	-9.637400	27.143334	0.000406	20.876419
1974.550764	-2.990100	3.236700	-9.677200	27.147085	0.000405	20.855063
1975.552557	-3.005500	3.237000	-9.727500	27.137033	0.000402	20.858703
1976.554211	-3.010800	3.234600	-9.736400	27.116437	0.000403	20.853162
1977.549991	-2.991200	3.235400	-9.676200	27.153685	0.000401	20.879243
1978.551331	-2.982100	3.235800	-9.648000	27.179360	0.000400	20.859549
1979.554498	-2.998200	3.234100	-9.695700	27.213625	0.000399	20.873150
1980.553070	-2.991600	3.235300	-9.677600	27.230620	0.000398	20.853736
1981.553784	-3.015900	3.233300	-9.750100	27.250415	0.000397	20.867482
1982.553888	-2.978200	3.233300	-9.627300	27.271230	0.000399	20.876090
1983.556307	-3.018100	3.232300	-9.754900	27.281650	0.000397	20.871873
1984.550889	-3.000400	3.230800	-9.691900	27.233864	0.000396	20.873592
1985.551686	-3.007600	3.231900	-9.718900	27.238455	0.000396	20.862089
1986.552461	-2.991300	3.233000	-9.670500	27.247984	0.000394	20.858873
1987.551713	-2.981200	3.232500	-9.635400	27.259118	0.000394	20.881925
1988.551569	-2.990900	3.232400	-9.666900	27.224932	0.000395	20.862238
1989.550435	-2.988100	3.230400	-9.649900	27.229843	0.000393	20.873341
1990.551579	-2.989500	3.230200	-9.655600	27.146324	0.000392	20.883220
1991.552186	-3.010000	3.229100	-9.719200	27.163592	0.000390	20.866923
1992.552778	-3.027800	3.229900	-9.777600	27.177386	0.000390	20.875581
1993.552763	-3.025300	3.230600	-9.772100	27.211673	0.000391	20.878772
1994.559498	-2.994100	3.229300	-9.668200	27.263304	0.000389	20.892773
1995.556475	-2.995000	3.226900	-9.663400	27.231250	0.000388	20.862429
1996.552673	-2.995500	3.227300	-9.666300	27.232858	0.000387	20.892967
1997.553464	-2.983400	3.227900	-9.628700	27.270393	0.000385	20.864817
1998.559505	-2.987700	3.229200	-9.646600	27.277910	0.000386	20.886128
1999.555058	-3.013200	3.227800	-9.725000	27.275895	0.000385	20.869877
2000.556305	-2.984300	3.227200	-9.629200	27.317080	0.000385	20.889493
2001.553499	-3.008000	3.225900	-9.702600	27.279222	0.000385	20.873224
2002.554520	-2.998600	3.225900	-9.671800	27.301349	0.000383	20.892635
2003.555600	-2.990700	3.224800	-9.644200	27.312883	0.000382	20.912770
2004.560706	-2.979100	3.226300	-9.609900	27.323672	0.000382	20.909399
2005.556695	-2.993000	3.224200	-9.647900	27.369093	0.000381	20.913365
2006.563228	-2.989000	3.224000	-9.635300	27.384201	0.000381	20.889684
2007.563703	-2.986300	3.224100	-9.626800	27.419747	0.000380	20.897942
2008.559431	-2.988400	3.223200	-9.631900	27.438451	0.000379	20.898742
2009.564134	-2.994900	3.222600	-9.651200	27.507925	0.000377	20.911263
2010.559315	-3.023200	3.222000	-9.739500	27.504204	0.000378	20.901831
2011.559555	-2.985300	3.221200	-9.615400	27.508966	0.000376	20.913733
2012.560359	-2.998700	3.220800	-9.657700	27.512166	0.000374	20.888032
2013.560583	-3.023800	3.219500	-9.734100	27.519854	0.000376	20.895292
2014.557694	-3.002200	3.220400	-9.667500	27.497778	0.000374	20.894418
2015.561430	-2.976900	3.221300	-9.588600	27.497483	0.000374	20.894595
2016.562161	-3.015600	3.217600	-9.702000	27.492468	0.000372	20.895713
2017.562285	-2.999400	3.218000	-9.651000	27.501323	0.000373	20.905096
2018.563548	-3.005500	3.217600	-9.670200	27.502016	0.000373	20.896785
2019.563482	-3.000400	3.217300	-9.652400	27.551274	0.000371	20.888973
2020.565475	-2.993900	3.218100	-9.632200	27.529920	0.000371	20.903996
2021.563719	-2.971800	3.216300	-9.557200	27.509951	0.000371	20.914249
2022.565313	-2.996400	3.216700	-9.636700	27.509029	0.000367	20.901944
2023.565242	-2.989600	3.215300	-9.611500	27.489587	0.000369	20.901824
2024.572046	-2.989000	3.217000	-9.615500	27.498812	0.000369	20.906363
2025.566543	-3.015700	3.215500	-9.695800	27.499481	0.000367	20.898027
2026.567357	-3.015600	3.214100	-9.691700	27.556996	0.000366	20.920331
2027.565112	-3.005400	3.214000	-9.658700	27.579616	0.000365	20.918435
2028.566852	-2.998300	3.214400	-9.636600	27.577084	0.000366	20.910673
2029.565237	-3.025500	3.212600	-9.717800	27.593426	0.000364	20.896771
2030.566906	-2.984200	3.213000	-9.586700	27.623437	0.000365	20.914639
2031.569318	-3.028900	3.210500	-9.722100	27.659471	0.000362	20.930507
2032.567669	-3.002300	3.213800	-9.648000	27.672964	0.000362	20.917533
2033.571092	-2.980700	3.212700	-9.575600	27.666213	0.000363	20.921170
2034.572695	-2.993600	3.210000	-9.608600	27.696021	0.000359	20.914182
2035.569091	-2.978200	3.210100	-9.559300	27.729922	0.000360	20.924114
2036.573143	-2.972200	3.211700	-9.544300	27.754694	0.000357	20.907319
2037.571051	-2.993000	3.209700	-9.605400	27.725354	0.000358	20.929000
2038.574114	-2.981500	3.209700	-9.568100	27.693711	0.000357	20.924659
2039.572279	-2.972400	3.211200	-9.543400	27.687086	0.000357	20.908985
2040.577231	-3.000000	3.209200	-9.627300	27.686489	0.000354	20.918340
2041.570430	-2.983100	3.210200	-9.575800	27.693827	0.000355	20.937102
2042.577700	-2.995400	3.208400	-9.609300	27.702112	0.000353	20.931689
2043.576420	-2.996300	3.206500	-9.606900	27.700273	0.000352	20.912771
2044.570351	-3.009500	3.207600	-9.653600	27.686907	0.000352	20.918761
2045.574728	-2.993800	3.206300	-9.597700	27.686555	0.000352	20.922674
2046.573974	-2.978300	3.206800	-9.548700	27.690726	0.000352	20.909328
2047.573967	-2.992300	3.205300	-9.589900	27.702305	0.000350	20.926669
2048.573526	-2.969900	3.206500	-9.521700	27.669543	0.000349	20.934003
2049.576869	-2.998400	3.202500	-9.601900	27.656522	0.000348	20.927539
2050.571212	-3.003600	3.203000	-9.619400	27.632915	0.000347	20.939820
2051.571657	-3.018900	3.203100	-9.669300	27.620561	0.000346	20.946354
2052.573442	-3.030300	3.202300	-9.703200	27.627134	0.000346	20.944433
2053.578292	-3.022700	3.202300	-9.678900	27.671621	0.000344	20.934198
2054.574831	-3.015400	3.203600	-9.658300	27.698233	0.000345	20.918305
2055.573245	-3.002000	3.203000	-9.614300	27.728565	0.000345	20.934601
2056.579113	-3.026700	3.200200	-9.685400	27.763351	0.000343	20.927408
2057.573138	-3.027500	3.200400	-9.687100	27.804021	0.000343	20.931353
2058.575805	-2.994500	3.199900	-9.581000	27.801592	0.000342	20.945976
2059.576037	-3.021800	3.198500	-9.663400	27.823806	0.000341	20.928505
2060.578242	-3.014100	3.200400	-9.645500	27.835088	0.000341	20.937962
2061.571656	-2.997600	3.200200	-9.592200	27.825813	0.000342	20.937637
2062.577546	-2.979600	3.199800	-9.533700	27.796648	0.000338	20.938631
2063.575171	-2.996200	3.199800	-9.586200	27.770689	0.000337	20.920095
2064.575795	-3.013500	3.196600	-9.632000	27.724261	0.000335	20.927900
2065.583136	-2.995100	3.197900	-9.577500	27.696957	0.000335	20.944518
2066.576842	-2.994800	3.197300	-9.574600	27.696113	0.000336	20.937032
2067.578561	-2.994700	3.195600	-9.569200	27.668735	0.000336	20.908062
2068.579795	-3.013200	3.196300	-9.629200	27.617815	0.000334	20.914197
2069.577691	-3.018800	3.197200	-9.649900	27.592045	0.000334	20.927621
2070.578080	-2.991100	3.197500	-9.562600	27.586387	0.000334	20.915291
2071.580571	-2.998800	3.194600	-9.578500	27.602979	0.000332	20.906856
2072.581900	-2.982700	3.194300	-9.526400	27.601491	0.000329	20.926220
2073.578381	-3.005100	3.194000	-9.596900	27.600922	0.000329	20.932284
2074.580953	-2.947000	3.196100	-9.417300	27.624135	0.000327	20.903014
2075.578189	-3.002800	3.193000	-9.586300	27.655059	0.000329	20.926068
2076.578161	-3.001000	3.193700	-9.583100	27.649180	0.000328	20.921575
2077.582038	-3.027000	3.190200	-9.655400	27.627852	0.000326	20.910072
2078.581140	-3.004500	3.192400	-9.590500	27.630750	0.000326	20.930056
2079.578967	-3.019800	3.191300	-9.636300	27.659895	0.000324	20.916710
2080.586158	-3.026700	3.191000	-9.656700	27.710685	0.000323	20.937945
2081.580930	-3.013700	3.188900	-9.609200	27.710858	0.000324	20.929585
2082.580827	-2.986700	3.190300	-9.528000	27.707239	0.000323	20.909350
2083.585083	-2.983200	3.190100	-9.515000	27.698807	0.000322	20.924097
2084.581873	-3.011800	3.187200	-9.598100	27.671453	0.000323	20.925021
2085.584008	-2.990700	3.188000	-9.533900	27.630609	0.000319	20.907631
2086.586185	-2.989600	3.189300	-9.533300	27.637723	0.000318	20.911944
2087.581774	-2.990700	3.189100	-9.537300	27.642238	0.000318	20.914590
2088.580486	-2.979600	3.187600	-9.496800	27.673517	0.000320	20.911926
2089.583189	-3.008600	3.186300	-9.585300	27.697052	0.000316	20.907634
2090.582141	-3.002500	3.186700	-9.566900	27.717538	0.000315	20.899801
2091.581249	-3.015600	3.187700	-9.611500	27.695688	0.000314	20.923329
2092.581252	-3.024500	3.184500	-9.629700	27.714317	0.000314	20.895137
2093.582789	-2.997200	3.183100	-9.539000	27.717468	0.000313	20.892144
2094.583846	-3.022800	3.184800	-9.626800	27.728899	0.000314	20.903173
2095.585001	-2.986800	3.184100	-9.509500	27.772897	0.000311	20.902879
2096.589039	-2.976000	3.184100	-9.474900	27.793329	0.000313	20.888829
2097.585137	-3.008900	3.181100	-9.571100	27.806078	0.000312	20.888383
2098.586784	-3.006700	3.181700	-9.565600	27.845281	0.000311	20.886585
2099.590184	-2.980000	3.182200	-9.481300	27.857111	0.000312	20.895647
2100.587049	-2.987200	3.182400	-9.506000	27.881834	0.000310	20.888761
2101.585285	-3.005400	3.183200	-9.565000	27.883944	0.000311	20.885195
2102.588872	-2.998000	3.178900	-9.528800	27.882035	0.000310	20.893230
2103.593014	-2.981800	3.180800	-9.483600	27.886574	0.000308	20.892582
2104.586176	-2.985000	3.181100	-9.494200	27.898847	0.000307	20.894030
2105.588634	-3.000500	3.179100	-9.538200	27.903164	0.000306	20.899797
2106.591237	-3.008700	3.177100	-9.558100	27.871751	0.000307	20.895682
2107.587074	-2.994900	3.178600	-9.518500	27.906539	0.000305	20.865738
2108.588850	-3.022800	3.174700	-9.594800	27.933121	0.000304	20.890594
2109.588843	-3.007800	3.176300	-9.551700	27.946089	0.000303	20.903646
2110.587615	-2.990700	3.176800	-9.500000	27.970856	0.000304	20.900600
2111.589187	-3.012300	3.175100	-9.563100	27.967812	0.000304	20.893269
2112.589052	-3.003900	3.174600	-9.534800	27.975050	0.000300	20.890123
2113.592350	-3.021600	3.174000	-9.589800	27.936597	0.000300	20.889352
2114.590759	-2.986000	3.174300	-9.477100	27.954850	0.000302	20.863155
2115.594484	-2.999700	3.174400	-9.520800	27.955672	0.000300	20.888637
2116.592458	-2.994400	3.172200	-9.497400	27.947116	0.000298	20.901360
2117.589919	-3.003800	3.172500	-9.528800	27.972434	0.000297	20.874215
2118.590965	-2.975000	3.173500	-9.439600	27.979578	0.000296	20.887568
2119.592245	-3.002500	3.171300	-9.520900	27.988229	0.000296	20.891535
2120.597051	-3.016000	3.170400	-9.561700	28.022176	0.000295	20.883032
2121.590634	-3.015800	3.170500	-9.561000	27.996247	0.000294	20.890123
2122.592462	-3.003300	3.171100	-9.522200	27.973387	0.000294	20.867114
2123.590409	-2.999900	3.170300	-9.510000	27.970641	0.000293	20.876204
2124.594565	-2.999000	3.169100	-9.503300	27.966405	0.000292	20.863880
2125.593563	-2.987100	3.167900	-9.462100	27.969432	0.000293	20.848909
2126.592505	-3.003800	3.167500	-9.513200	27.963607	0.000290	20.871020
2127.595224	-2.996500	3.168100	-9.492300	27.956621	0.000289	20.885799
2128.592669	-3.013500	3.165800	-9.538900	27.964728	0.000288	20.867407
2129.593008	-3.024300	3.165800	-9.573200	27.996817	0.000290	20.864145
2130.593930	-3.017000	3.165100	-9.547300	28.000884	0.000287	20.868713
2131.593120	-2.994100	3.165300	-9.476500	28.020549	0.000288	20.884239
2132.593694	-3.008100	3.164000	-9.517000	27.970817	0.000286	20.858364
2133.598039	-3.001400	3.163700	-9.493800	27.901051	0.000284	20.869223
2134.599451	-3.002900	3.163000	-9.497200	27.836757	0.000285	20.875163
2135.597824	-3.020300	3.162500	-9.550600	27.783005	0.000284	20.864216
2136.593876	-2.996900	3.163500	-9.479500	27.756100	0.000281	20.859425
2137.600090	-2.992100	3.162600	-9.461700	27.690507	0.000281	20.859326
2138.599281	-2.995000	3.161000	-9.466100	27.677792	0.000282	20.871186
2139.598386	-3.012300	3.159800	-9.518200	27.710849	0.000282	20.853718
2140.605432	-2.993400	3.160400	-9.459000	27.759314	0.000279	20.868823
2141.612004	-2.982400	3.160300	-9.423100	27.792646	0.000280	20.875815
2142.598349	-2.998100	3.159400	-9.471400	27.807923	0.000279	20.862741
2143.600316	-3.021100	3.159700	-9.543800	27.839693	0.000278	20.856308
2144.602142	-2.996600	3.157900	-9.462100	27.814428	0.000278	20.852218
2145.603203	-2.991900	3.157000	-9.444600	27.751670	0.000277	20.865872
2146.598824	-2.985400	3.157600	-9.425100	27.712689	0.000277	20.847035
2147.604189	-2.997700	3.157000	-9.462600	27.684544	0.000278	20.848110
2148.597696	-2.998200	3.154800	-9.458500	27.681942	0.000275	20.856871
2149.598541	-2.994500	3.155000	-9.446900	27.687132	0.000276	20.837439
2150.604019	-3.000300	3.156500	-9.469200	27.723393	0.000277	20.845478
2151.597705	-3.005600	3.153300	-9.475400	27.724212	0.000275	20.846303
2152.598652	-2.990600	3.153700	-9.429400	27.731653	0.000277	20.840988
2153.604980	-2.995500	3.153600	-9.444700	27.747402	0.000276	20.840242
2154.599514	-3.018200	3.153800	-9.517900	27.804886	0.000274	20.838349
2155.601685	-3.004100	3.151800	-9.466900	27.830135	0.000271	20.856171
2156.605404	-3.004100	3.151200	-9.465400	27.846895	0.000272	20.863556
2157.605990	-3.001300	3.150400	-9.454600	27.859893	0.000273	20.844396
2158.601794	-3.011400	3.149300	-9.482200	27.871819	0.000269	20.851656
2159.605150	-3.007300	3.150200	-9.473100	27.925454	0.000271	20.844474
2160.603258	-2.962500	3.151100	-9.333700	27.956771	0.000270	20.855605
2161.601458	-3.000900	3.148900	-9.449300	27.987960	0.000269	20.840532
2162.602879	-2.976400	3.148500	-9.369400	28.008096	0.000267	20.839464
2163.612339	-2.995000	3.147700	-9.426000	28.001898	0.000269	20.846027
2164.602733	-2.997700	3.147900	-9.435400	28.023120	0.000266	20.857431
2165.606171	-2.987700	3.147500	-9.402800	27.998105	0.000266	20.851692
2166.607663	-3.000200	3.145400	-9.435700	27.981699	0.000265	20.861256
2167.608133	-2.984800	3.144400	-9.384900	27.977583	0.000266	20.848105
2168.606623	-2.997600	3.142200	-9.418200	27.956360	0.000266	20.848080
2169.607989	-2.995300	3.142900	-9.413100	27.974264	0.000264	20.843816
2170.608651	-2.995000	3.141800	-9.409100	28.006845	0.000265	20.855748
2171.605604	-3.034000	3.140200	-9.525800	28.000647	0.000262	20.827225
2172.604909	-2.990900	3.141300	-9.393900	28.027054	0.000262	20.845271
2173.605050	-2.993300	3.140400	-9.398600	28.089132	0.000261	20.849439
2174.606470	-3.009800	3.139500	-9.448100	28.130134	0.000260	20.830024
2175.607457	-3.012400	3.138500	-9.453200	28.108820	0.000259	20.834171
2176.611363	-3.007600	3.138800	-9.438900	28.090700	0.000259	20.847698
2177.606668	-3.009600	3.137400	-9.441400	28.119931	0.000258	20.839667
2178.608357	-2.997700	3.138300	-9.406800	28.144996	0.000257	20.841666
2179.608012	-3.017000	3.136500	-9.461500	28.153650	0.000256	20.829041
2180.611021	-2.972600	3.136800	-9.323000	28.121773	0.000257	20.831090
2181.607386	-3.005800	3.135400	-9.423700	28.101622	0.000256	20.862960
2182.613358	-3.025300	3.134200	-9.480500	28.098026	0.000253	20.828047
2183.623581	-3.009400	3.133100	-9.428200	28.130234	0.000252	20.826805
2184.607434	-2.997900	3.132900	-9.390000	28.136930	0.000254	20.812210
2185.611471	-2.991300	3.133900	-9.372100	28.193673	0.000254	20.850367
2186.613747	-2.995200	3.133600	-9.384400	28.196699	0.000250	20.820699
2187.609269	-3.006400	3.131400	-9.413700	28.226796	0.000252	20.836299
2188.612793	-3.039700	3.129100	-9.510700	28.255622	0.000252	20.822648
2189.611588	-3.010100	3.129100	-9.417600	28.252231	0.000251	20.821131
2190.613761	-3.012400	3.129900	-9.427100	28.218625	0.000249	20.841349
2191.612287	-2.974900	3.130700	-9.312500	28.190764	0.000248	20.827999
2192.610450	-2.996600	3.127200	-9.370300	28.163525	0.000250	20.813853
2193.611146	-3.024700	3.126100	-9.455000	28.108340	0.000248	20.816145
2194.612579	-3.000000	3.126500	-9.378000	28.027704	0.000247	20.821744
2195.612771	-2.995300	3.126900	-9.365100	28.008686	0.000249	20.822989
2196.610555	-3.005300	3.125400	-9.392000	28.034179	0.000247	20.829684
2197.609674	-2.992600	3.126000	-9.353500	28.085047	0.000247	20.823990
2198.612727	-2.995000	3.124400	-9.356100	28.095192	0.000245	20.834203
2199.612113	-3.008200	3.124800	-9.398500	28.127494	0.000244	20.838272
2200.613786	-3.015300	3.121100	-9.409500	28.177845	0.000244	20.826372
2201.617024	-3.037500	3.119900	-9.474700	28.197527	0.000245	20.813472
2202.615132	-2.984100	3.123000	-9.319000	28.213966	0.000246	20.823383
2203.615399	-2.996100	3.121000	-9.349700	28.227799	0.000243	20.824982
2204.625743	-3.002400	3.120400	-9.366500	28.207524	0.000244	20.831596
2205.618433	-3.024400	3.119200	-9.431600	28.188914	0.000243	20.813334
2206.616567	-2.988800	3.119000	-9.321500	28.166556	0.000243	20.815008
2207.623175	-2.987400	3.118300	-9.314800	28.179649	0.000243	20.824870
2208.623830	-3.017700	3.115600	-9.401500	28.188598	0.000242	20.823922
2209.620049	-2.983900	3.116600	-9.298700	28.121025	0.000241	20.799992
2210.623600	-2.986100	3.115300	-9.301800	28.026898	0.000240	20.808604
2211.625208	-2.995200	3.114800	-9.327800	28.009740	0.000238	20.792755
2212.619727	-2.999400	3.115500	-9.343800	27.983438	0.000240	20.798998
2213.623328	-3.004500	3.112600	-9.351000	28.002551	0.000238	20.792632
2214.622101	-3.003900	3.113200	-9.351100	28.025910	0.000239	20.813774
2215.620243	-2.991400	3.112900	-9.310300	27.999654	0.000239	20.794458
2216.619577	-2.992700	3.112400	-9.314100	27.975679	0.000238	20.804465
2217.624784	-3.008000	3.109500	-9.353400	27.994255	0.000238	20.790920
2218.623623	-2.976100	3.111100	-9.257100	27.980763	0.000238	20.813374
2219.623417	-2.982700	3.109500	-9.274000	27.952548	0.000236	20.786871
2220.628469	-2.988600	3.109000	-9.289900	27.917171	0.000236	20.808637
2221.625428	-2.998800	3.107500	-9.317200	27.889523	0.000235	20.790767
2222.623716	-3.010500	3.107100	-9.352800	27.917659	0.000235	20.801067
2223.626210	-2.998400	3.106000	-9.311300	27.946571	0.000236	20.802193
2224.630005	-3.012000	3.104300	-9.348400	27.992687	0.000235	20.791712
2225.627834	-2.981000	3.105500	-9.256200	28.100100	0.000233	20.794574
2226.627934	-2.993700	3.105400	-9.294700	28.111658	0.000234	20.777285
2227.625291	-3.019400	3.101900	-9.364900	28.139419	0.000232	20.800965
2228.623592	-3.007200	3.103100	-9.330600	28.184855	0.000232	20.802136
2229.626529	-2.991600	3.101600	-9.277300	28.219260	0.000232	20.785565
2230.626988	-2.990300	3.101300	-9.272800	28.248975	0.000229	20.787033
2231.627114	-2.998700	3.099100	-9.292800	28.302739	0.000231	20.798017
2232.626532	-3.009600	3.099000	-9.326200	28.362464	0.000229	20.788452
2233.627998	-3.007900	3.098700	-9.319500	28.391163	0.000229	20.788427
2234.626218	-3.012000	3.097600	-9.329100	28.354606	0.000229	20.797609
2235.626739	-3.019700	3.095500	-9.346400	28.351211	0.000230	20.783760
2236.629619	-2.998600	3.097100	-9.285600	28.338296	0.000230	20.799205
2237.639383	-2.997600	3.094100	-9.272800	28.281389	0.000229	20.786003
2238.628482	-2.994500	3.094100	-9.264200	28.266741	0.000229	20.776470
2239.631227	-2.992800	3.093100	-9.256700	28.278735	0.000228	20.783331
2240.633865	-2.991100	3.092500	-9.248700	28.320127	0.000229	20.792291
2241.627752	-3.007000	3.092100	-9.297000	28.339234	0.000228	20.802046
2242.633758	-3.011600	3.091600	-9.309000	28.363918	0.000229	20.794658
2243.631753	-2.979900	3.089800	-9.206700	28.367042	0.000229	20.796381
2244.630002	-2.991100	3.090500	-9.242800	28.387487	0.000229	20.790415
2245.631161	-2.985100	3.088100	-9.216900	28.356626	0.000228	20.789686
2246.630033	-2.990500	3.086400	-9.228500	28.339698	0.000227	20.774538
2247.630842	-2.984700	3.087500	-9.214400	28.327728	0.000228	20.800892
2248.631257	-2.989000	3.086400	-9.224000	28.368173	0.000226	20.801313
2249.632488	-2.986300	3.086400	-9.216200	28.416400	0.000225	20.783968
2250.629807	-2.995500	3.083600	-9.235200	28.432827	0.000226	20.789604
2251.637606	-2.999600	3.083400	-9.248000	28.419692	0.000224	20.806249
2252.631818	-2.987100	3.081600	-9.203700	28.393520	0.000224	20.763299
2253.634717	-2.979500	3.081700	-9.180600	28.396517	0.000223	20.793818
2254.634521	-2.988100	3.082400	-9.209400	28.401549	0.000225	20.789402
2255.635498	-3.007100	3.078600	-9.256700	28.423775	0.000224	20.785230
2256.633120	-3.001800	3.077800	-9.238300	28.382239	0.000222	20.785605
2257.631326	-2.994100	3.077500	-9.214100	28.377998	0.000224	20.758100
2258.636171	-2.974100	3.077800	-9.152800	28.379017	0.000222	20.792318
2259.633594	-2.981700	3.077200	-9.173900	28.377920	0.000222	20.787420
2260.634882	-3.008700	3.075700	-9.251900	28.380201	0.000222	20.789717
2261.633479	-2.999000	3.073800	-9.217700	28.397128	0.000221	20.776890
2262.634329	-2.992800	3.073600	-9.197600	28.384439	0.000223	20.798726
2263.635723	-2.990100	3.072900	-9.188000	28.326441	0.000221	20.775414
2264.637056	-3.023800	3.071600	-9.287200	28.295782	0.000221	20.800495
2265.642674	-2.985600	3.071800	-9.170200	28.270675	0.000220	20.801769
2266.634617	-2.992600	3.069900	-9.185100	28.295307	0.000220	20.780576
2267.637611	-2.987800	3.069700	-9.170700	28.317465	0.000222	20.771592
2268.638723	-2.978700	3.068100	-9.137600	28.279640	0.000219	20.774759
2269.638859	-2.993100	3.067800	-9.180800	28.301278	0.000220	20.793226
2270.637263	-2.982100	3.067100	-9.144800	28.314710	0.000221	20.761705
2271.637521	-2.999900	3.063100	-9.187900	28.351019	0.000219	20.775980
2272.636628	-3.021200	3.064500	-9.257500	28.315426	0.000221	20.787557
2273.640960	-2.988100	3.062600	-9.149000	28.289796	0.000218	20.793994
2274.637789	-3.003100	3.062100	-9.194500	28.301545	0.000218	20.777374
2275.639338	-2.998800	3.062100	-9.181800	28.316438	0.000219	20.779093
2276.653498	-3.027900	3.058500	-9.260000	28.338051	0.000217	20.773354
2277.640262	-2.994100	3.059200	-9.158600	28.411584	0.000220	20.793343
2278.637966	-3.003400	3.057700	-9.182700	28.391259	0.000221	20.789471
2279.636845	-2.986200	3.058000	-9.131500	28.387266	0.000220	20.797305
2280.638968	-3.001500	3.055900	-9.170800	28.391132	0.000217	20.781757
2281.639349	-2.986700	3.054600	-9.122800	28.380498	0.000215	20.783378
2282.637825	-3.009800	3.054200	-9.189900	28.422726	0.000213	20.790338
2283.642326	-3.015600	3.052900	-9.205400	28.445180	0.000215	20.770749
2284.642529	-2.997000	3.053000	-9.149000	28.441336	0.000215	20.771619
2285.639775	-2.998400	3.051100	-9.147000	28.461091	0.000216	20.782030
2286.641232	-2.993300	3.050300	-9.129400	28.476850	0.000215	20.779408
2287.645221	-3.002000	3.048500	-9.150800	28.508839	0.000213	20.795975
2288.640120	-2.991500	3.047400	-9.114900	28.514833	0.000215	20.777829
2289.641875	-2.997500	3.045800	-9.128700	28.548690	0.000214	20.776365
2290.643598	-2.992200	3.046300	-9.114100	28.545693	0.000213	20.782355
2291.640530	-3.012000	3.045500	-9.172200	28.472964	0.000212	20.790667
2292.644730	-2.995100	3.042900	-9.112900	28.400672	0.000213	20.787571
2293.644628	-3.005300	3.041200	-9.138800	28.381686	0.000214	20.783626
2294.639707	-2.984600	3.041100	-9.075100	28.307336	0.000213	20.765661
2295.642958	-2.976100	3.040400	-9.047700	28.301832	0.000212	20.771973
2296.646874	-2.997300	3.038600	-9.106600	28.317626	0.000213	20.773177
2297.642880	-3.008700	3.037900	-9.138900	28.356363	0.000212	20.772352
2298.645549	-3.031900	3.036300	-9.203700	28.374036	0.000213	20.777345
2299.645230	-3.014600	3.035800	-9.151000	28.419318	0.000213	20.762250
2300.644450	-3.000200	3.032100	-9.096000	28.461225	0.000212	20.785484
2301.642807	-3.026800	3.032600	-9.178000	28.508559	0.000213	20.785261
2302.649351	-3.006900	3.032500	-9.118100	28.530441	0.000211	20.759883
2303.644279	-3.015500	3.031500	-9.140100	28.516714	0.000213	20.777827
2304.646842	-3.022400	3.029500	-9.154700	28.520435	0.000213	20.795799
2305.646418	-3.004300	3.028800	-9.097900	28.518752	0.000212	20.781776
2306.645530	-2.993300	3.027200	-9.059500	28.570988	0.000211	20.775587
2307.643533	-3.002500	3.026400	-9.085700	28.621833	0.000212	20.785070
2308.646425	-2.981100	3.026400	-9.020700	28.614677	0.000211	20.793036
2309.646657	-2.996600	3.025700	-9.065700	28.643398	0.000210	20.814850
2310.644028	-2.961900	3.024200	-8.956200	28.679475	0.000210	20.788125
2311.649240	-3.009200	3.020300	-9.087600	28.710393	0.000208	20.783231
2312.642033	-2.969600	3.020500	-8.968600	28.705595	0.000212	20.780768
2313.645160	-2.999100	3.018700	-9.052300	28.691992	0.000210	20.792672
2314.645349	-3.016800	3.018400	-9.104200	28.643778	0.000211	20.770188
2315.645039	-3.009100	3.018100	-9.080800	28.639120	0.000212	20.779721
2316.643417	-3.022200	3.016200	-9.114700	28.613624	0.000211	20.772534
2317.646545	-2.982300	3.015900	-8.993100	28.606783	0.000210	20.785560
2318.644657	-3.001900	3.013600	-9.045900	28.544395	0.000211	20.781522
2319.648118	-3.018900	3.010900	-9.088500	28.469906	0.000210	20.779527
2320.646995	-2.963700	3.012000	-8.925500	28.460243	0.000208	20.791133
2321.644147	-3.000700	3.010000	-9.030500	28.444635	0.000210	20.777786
2322.650035	-2.997500	3.009300	-9.019100	28.393781	0.000211	20.800072
2323.646596	-2.987200	3.008300	-8.985500	28.394346	0.000208	20.790684
2324.661568	-2.983000	3.007100	-8.969300	28.398465	0.000209	20.779658
2325.649957	-3.014700	3.005200	-9.058300	28.395095	0.000208	20.771049
2326.646617	-3.011000	3.002200	-9.038400	28.431970	0.000207	20.790638
2327.648978	-2.996600	3.002700	-8.996800	28.461287	0.000209	20.789339
2328.650973	-3.011700	3.000600	-9.035800	28.444192	0.000207	20.765487
2329.648780	-3.016400	2.999600	-9.047100	28.432818	0.000208	20.778215
2330.651810	-2.986700	2.999200	-8.955800	28.402879	0.000208	20.783628
2331.650689	-2.998600	2.998400	-8.990300	28.382364	0.000207	20.781937
2332.646751	-3.006700	2.995700	-9.006400	28.428584	0.000209	20.775373
2333.655271	-3.009000	2.994500	-9.008900	28.486896	0.000207	20.794740
2334.656707	-2.993600	2.993200	-8.959300	28.495153	0.000207	20.786934
2335.652429	-2.985000	2.993300	-8.934800	28.562080	0.000208	20.802652
2336.652049	-2.989900	2.990900	-8.941500	28.543648	0.000206	20.796417
2337.654759	-2.973400	2.989900	-8.887900	28.546105	0.000210	20.773286
2338.654375	-2.980500	2.988300	-8.905800	28.537008	0.000207	20.805851
2339.654676	-2.988200	2.986100	-8.922400	28.476422	0.000207	20.788934
2340.652635	-3.005800	2.984700	-8.970600	28.454074	0.000209	20.779706
2341.651180	-2.989300	2.983300	-8.917300	28.411054	0.000207	20.784274
2342.651408	-3.017500	2.980900	-8.994100	28.391916	0.000208	20.797246
2343.651678	-2.985300	2.981800	-8.899900	28.376331	0.000208	20.814743
2344.652040	-2.986000	2.980700	-8.899300	28.370628	0.000208	20.785767
2345.655639	-2.987800	2.979000	-8.898600	28.390581	0.000207	20.793530
2346.654462	-2.982900	2.976900	-8.878500	28.408843	0.000207	20.791057
2347.653088	-3.009400	2.974600	-8.950100	28.415263	0.000210	20.796099
2348.654191	-3.031800	2.972500	-9.010400	28.449587	0.000208	20.810748
2349.653196	-3.007200	2.972100	-8.936500	28.521053	0.000209	20.792628
2350.659155	-2.989900	2.971500	-8.882800	28.547320	0.000209	20.786365
2351.654834	-3.016600	2.969000	-8.955200	28.566845	0.000208	20.788958
2352.653677	-3.037100	2.966500	-9.008100	28.570263	0.000209	20.812316
2353.659856	-2.982700	2.966700	-8.847600	28.593111	0.000207	20.794549
2354.657237	-3.015900	2.964000	-8.938000	28.638577	0.000206	20.798141
2355.658070	-3.004500	2.963500	-8.902700	28.658374	0.000207	20.797217
2356.660410	-3.005500	2.963300	-8.905500	28.687360	0.000205	20.814085
2357.661829	-3.004700	2.961000	-8.894800	28.732502	0.000207	20.784638
2358.656581	-2.991700	2.959400	-8.852400	28.758445	0.000206	20.789907
2359.657549	-3.021400	2.958300	-8.937300	28.734066	0.000204	20.804230
2360.658196	-2.985900	2.957300	-8.829200	28.722670	0.000205	20.816933
2361.659956	-2.993800	2.956500	-8.849600	28.734610	0.000205	20.798141
2362.659298	-3.009700	2.953500	-8.888300	28.750938	0.000204	20.797044
2363.657418	-3.015200	2.950400	-8.895100	28.729236	0.000206	20.775183
2364.661377	-2.975900	2.950600	-8.779500	28.669230	0.000205	20.803884
2365.658422	-3.013100	2.948600	-8.882900	28.673790	0.000206	20.794726
2366.660821	-3.012400	2.947100	-8.877300	28.711249	0.000206	20.802111
2367.658086	-3.015000	2.944900	-8.876900	28.719206	0.000204	20.789263
2368.659017	-2.986700	2.944700	-8.793600	28.694380	0.000205	20.800767
2369.661356	-3.000000	2.943600	-8.829500	28.649728	0.000207	20.800837
2370.662835	-3.011200	2.941300	-8.855000	28.615238	0.000204	20.796920
2371.663492	-2.986100	2.938900	-8.774800	28.634495	0.000204	20.801142
2372.660362	-3.031200	2.937900	-8.903500	28.634839	0.000204	20.806230
2373.661340	-2.992600	2.936700	-8.787500	28.640980	0.000203	20.803880
2374.664420	-2.991300	2.934300	-8.777200	28.632731	0.000205	20.817857
2375.666905	-2.984800	2.932900	-8.753200	28.631716	0.000203	20.806877
2376.662599	-2.994900	2.931000	-8.777400	28.667347	0.000204	20.794401
2377.665392	-3.007200	2.930100	-8.809700	28.730427	0.000203	20.818582
2378.661239	-3.019200	2.927400	-8.837600	28.701638	0.000205	20.835103
2379.663862	-2.983300	2.926800	-8.728500	28.617870	0.000203	20.814743
2380.666198	-2.985100	2.925300	-8.731300	28.574930	0.000203	20.813696
2381.662501	-3.000400	2.921900	-8.765800	28.627830	0.000202	20.811499
2382.666543	-3.020500	2.921800	-8.823700	28.681776	0.000202	20.799925
2383.664508	-3.002400	2.920200	-8.766700	28.713533	0.000203	20.821481
2384.664778	-2.998200	2.918100	-8.748100	28.733209	0.000204	20.811428
2385.668287	-3.001000	2.916600	-8.752000	28.774236	0.000203	20.812925
2386.667258	-2.995800	2.915500	-8.733100	28.798790	0.000204	20.807787
2387.668714	-2.994600	2.913300	-8.722900	28.767253	0.000202	20.820589
2388.668299	-2.982800	2.913000	-8.688000	28.785041	0.000206	20.815749
2389.667342	-2.986900	2.910100	-8.690500	28.806423	0.000204	20.830649
2390.669142	-3.016000	2.907300	-8.765900	28.844234	0.000204	20.822271
2391.670192	-2.994400	2.906200	-8.700700	28.870841	0.000204	20.804030
2392.670415	-3.004000	2.905700	-8.727200	28.902920	0.000204	20.809320
2393.671791	-2.994000	2.902800	-8.690000	28.896629	0.000203	20.826216
2394.673970	-3.013100	2.900700	-8.738500	28.832920	0.000204	20.825573
2395.674620	-2.969100	2.898600	-8.605200	28.844065	0.000204	20.825420
2396.673550	-2.995400	2.897000	-8.677100	28.858488	0.000202	20.806285
2397.675335	-3.004300	2.897500	-8.702200	28.887846	0.000205	20.816419
2398.677077	-3.013700	2.894300	-8.720900	28.909668	0.000204	20.827498
2399.676308	-2.989500	2.893000	-8.647700	28.941528	0.000203	20.823560
2400.676032	-3.012900	2.889900	-8.705800	28.924041	0.000203	20.809261
2401.677462	-2.988600	2.889000	-8.633300	28.954980	0.000204	20.825733
2402.679375	-2.990600	2.885500	-8.628800	28.935364	0.000205	20.806919
2403.679572	-3.035700	2.882600	-8.749200	28.863505	0.000203	20.833150
2404.682030	-3.002600	2.882300	-8.653800	28.782076	0.000203	20.826986
2405.680482	-3.002700	2.882100	-8.653000	28.813093	0.000203	20.822669
2406.680468	-2.976200	2.880100	-8.570500	28.827635	0.000204	20.837318
2407.679180	-2.998500	2.877300	-8.625900	28.804428	0.000205	20.832432
2408.681365	-2.983500	2.876100	-8.579400	28.799446	0.000205	20.842587
2409.677969	-2.984300	2.872400	-8.571400	28.815528	0.000203	20.831285
2410.680134	-3.002900	2.871600	-8.622100	28.827393	0.000202	20.837074
2411.680104	-2.975100	2.870300	-8.538300	28.847457	0.000202	20.836423
2412.683542	-3.005800	2.866500	-8.614600	28.891605	0.000203	20.827319
2413.683957	-3.027600	2.864500	-8.671100	28.920041	0.000204	20.831310
2414.682365	-2.970400	2.864700	-8.507900	28.904510	0.000204	20.831310
2415.683462	-2.996400	2.863000	-8.577500	28.895518	0.000204	20.835528
2416.682322	-3.007100	2.859500	-8.597400	28.834777	0.000202	20.833133
2417.685014	-3.000900	2.857000	-8.572600	28.790957	0.000202	20.835458
2418.684058	-3.015400	2.854300	-8.606000	28.713337	0.000203	20.817964
2419.685417	-2.974400	2.854500	-8.489400	28.648893	0.000206	20.839824
2420.682755	-3.004200	2.851200	-8.563600	28.641557	0.000204	20.812522
2421.684666	-2.995600	2.848900	-8.533100	28.642375	0.000203	20.826622
2422.685989	-2.965900	2.847600	-8.443600	28.682939	0.000205	20.835235
2423.684493	-3.024800	2.844300	-8.602100	28.738040	0.000205	20.818190
2424.690062	-3.018300	2.841600	-8.576400	28.823734	0.000203	20.839552
2425.684985	-2.961100	2.842400	-8.415700	28.854426	0.000203	20.850081
2426.685638	-3.011000	2.837200	-8.542200	28.894900	0.000203	20.851026
2427.688371	-2.981100	2.837200	-8.457200	28.968770	0.000204	20.837255
2428.688088	-2.974100	2.835300	-8.432200	28.929978	0.000202	20.837527
2429.689450	-3.003500	2.831300	-8.503100	28.917815	0.000201	20.834283
2430.688622	-3.015700	2.829700	-8.532200	28.938776	0.000201	20.828374
2431.686741	-2.992000	2.828800	-8.463100	28.970579	0.000201	20.853301
2432.689865	-3.001600	2.824100	-8.475600	29.038220	0.000201	20.848432
2433.690825	-3.000200	2.823400	-8.469300	29.061922	0.000201	20.851451
2434.689437	-2.995100	2.820900	-8.447900	29.092039	0.000201	20.838649
2435.694266	-2.994100	2.818900	-8.438800	29.090975	0.000200	20.835206
2436.690227	-3.043500	2.815500	-8.566800	29.083000	0.000201	20.833334
2437.695609	-2.973700	2.813900	-8.366600	29.104200	0.000199	20.850902
2438.691516	-2.984100	2.811500	-8.388700	29.142417	0.000199	20.846738
2439.691873	-2.980000	2.809000	-8.370000	29.165544	0.000199	20.865773
2440.691819	-2.994000	2.805500	-8.398800	29.180380	0.000198	20.857965
2441.693337	-2.970800	2.805100	-8.331800	29.194225	0.000200	20.837305
2442.690326	-3.003500	2.801200	-8.412000	29.202519	0.000201	20.857515
2443.693674	-3.009000	2.799400	-8.421900	29.228377	0.000200	20.869822
2444.698438	-2.988600	2.796600	-8.356600	29.225877	0.000199	20.863584
2445.692677	-2.990300	2.793700	-8.353300	29.207600	0.000199	20.845093
2446.695169	-3.013600	2.790800	-8.409400	29.151435	0.000200	20.856299
2447.696423	-2.979400	2.789000	-8.307500	29.058684	0.000200	20.860042
2448.693985	-2.996400	2.786200	-8.346900	29.001697	0.000198	20.862367
2449.698623	-3.014800	2.783200	-8.389900	28.954393	0.000199	20.858805
2450.698846	-3.028500	2.779500	-8.416700	28.961076	0.000200	20.849891
2451.692873	-3.004000	2.777700	-8.343200	28.945479	0.000199	20.848877
2452.695087	-3.033700	2.774300	-8.414600	28.997473	0.000200	20.859060
2453.695899	-2.993700	2.772200	-8.298400	28.984320	0.000199	20.856714
2454.695302	-2.995500	2.769100	-8.293900	28.999981	0.000200	20.850682
2455.696130	-3.030200	2.764900	-8.376800	29.058315	0.000199	20.841652
2456.692851	-2.999500	2.764500	-8.291000	29.067800	0.000199	20.848365
2457.694507	-2.993600	2.761400	-8.265900	29.147701	0.000200	20.845425
2458.698813	-3.010100	2.757800	-8.300700	29.164940	0.000201	20.857579
2459.695874	-3.007300	2.755400	-8.284700	29.164624	0.000199	20.873381
2460.696536	-2.988700	2.753800	-8.229300	29.185798	0.000200	20.851571
2461.697381	-3.000200	2.749600	-8.246100	29.226414	0.000200	20.869741
2462.694454	-2.967300	2.747600	-8.151500	29.224704	0.000198	20.868017
2463.698646	-2.976200	2.743200	-8.162600	29.172210	0.000199	20.883395
2464.698483	-2.955000	2.741300	-8.099400	29.169808	0.000199	20.876234
2465.695817	-3.007800	2.736400	-8.229700	29.163519	0.000199	20.877957
2466.699715	-2.997800	2.732700	-8.191800	29.187721	0.000199	20.863939
2467.698510	-2.994600	2.730800	-8.177000	29.237841	0.000201	20.864187
2468.696343	-2.998600	2.727200	-8.176000	29.257062	0.000200	20.887823
2469.695921	-2.999700	2.723700	-8.168600	29.289530	0.000200	20.872181
2470.705399	-3.001800	2.720800	-8.166400	29.301615	0.000199	20.871558
2471.701631	-2.992100	2.718300	-8.132700	29.301668	0.000201	20.874456
2472.702852	-2.980500	2.713400	-8.086400	29.332473	0.000200	20.855244
2473.698224	-3.020400	2.710100	-8.184600	29.321902	0.000200	20.876357
2474.697344	-2.983300	2.708000	-8.077700	29.338986	0.000202	20.875083
2475.703174	-2.989800	2.703500	-8.082400	29.371083	0.000199	20.860966
2476.699445	-3.022200	2.699100	-8.155200	29.367025	0.000200	20.866358
2477.704682	-2.998200	2.696500	-8.083700	29.352097	0.000200	20.893511
2478.703396	-3.011900	2.691900	-8.106800	29.295248	0.000201	20.854711
2479.698619	-2.997700	2.689300	-8.060800	29.302604	0.000200	20.874925
2480.701723	-3.005700	2.683700	-8.065000	29.283781	0.000202	20.847896
2481.700498	-3.015300	2.680600	-8.081000	29.270738	0.000201	20.873631
2482.699544	-3.004000	2.677200	-8.041700	29.283866	0.000202	20.892076
2483.703616	-2.984100	2.672700	-7.975000	29.265689	0.000202	20.882767
2484.699914	-3.009100	2.668100	-8.027600	29.259597	0.000200	20.869990
2485.700410	-3.004700	2.665000	-8.006700	29.220025	0.000201	20.882742
2486.703003	-3.012400	2.660600	-8.014700	29.199274	0.000199	20.876529
2487.703891	-2.986400	2.657200	-7.933400	29.155317	0.000202	20.871590
2488.704129	-3.041200	2.652600	-8.066100	29.169012	0.000203	20.885863
2489.708271	-3.018200	2.647500	-7.990100	29.212301	0.000204	20.874958
2490.700319	-2.998000	2.643600	-7.925000	29.285274	0.000204	20.882115
2491.703204	-3.030100	2.639700	-7.997600	29.341387	0.000203	20.868494
2492.703348	-3.000800	2.634700	-7.905300	29.340814	0.000203	20.893519
2493.700633	-2.994300	2.630500	-7.875600	29.353766	0.000202	20.886659
2494.704245	-3.029900	2.625400	-7.953300	29.366759	0.000203	20.890270
2495.708075	-3.008700	2.620500	-7.882600	29.392486	0.000202	20.893441
2496.702120	-3.018200	2.617100	-7.897700	29.385106	0.000201	20.886952
2497.701763	-2.997600	2.611000	-7.825500	29.430366	0.000202	20.892740
2498.707468	-3.006800	2.605400	-7.831900	29.405654	0.000201	20.902919
2499.704618	-3.003500	2.600300	-7.808800	29.393717	0.000202	20.901319
2500.704642	-2.989000	2.597200	-7.761300	29.410183	0.000204	20.891363
2501.702802	-3.012800	2.591200	-7.805500	29.440956	0.000203	20.893932
2502.705979	-3.002800	2.584800	-7.760600	29.465000	0.000204	20.898726
2503.704908	-2.999600	2.580500	-7.739600	29.470347	0.000203	20.907907
2504.704294	-2.996300	2.574100	-7.712100	29.435357	0.000204	20.888762
2505.703550	-2.968400	2.567700	-7.620400	29.440756	0.000203	20.900841
2506.705777	-2.972900	2.563700	-7.620900	29.453257	0.000204	20.883571
2507.704532	-2.988000	2.558000	-7.642500	29.483338	0.000202	20.922898
2508.706236	-3.019800	2.551700	-7.704900	29.538054	0.000204	20.891759
2509.704829	-3.020200	2.546600	-7.690700	29.554513	0.000205	20.897444
2510.702548	-2.978600	2.540800	-7.566700	29.531170	0.000202	20.891932
2511.707130	-2.991500	2.535400	-7.583500	29.531988	0.000203	20.918359
2512.707011	-2.994300	2.527200	-7.565900	29.543596	0.000204	20.907302
2513.706229	-2.995800	2.520300	-7.549100	29.544586	0.000204	20.893602
2514.709078	-2.996000	2.515100	-7.533900	29.526737	0.000203	20.903109
2515.705151	-3.051900	2.507200	-7.650400	29.496464	0.000204	20.915741
2516.714425	-2.967300	2.503500	-7.428000	29.461552	0.000206	20.909948
2517.709326	-2.991500	2.496400	-7.467000	29.436911	0.000203	20.900759
