LabVIEW Measurement	
Writer_Version	2
Reader_Version	2
Separator	Tab
Decimal_Separator	.
Multi_Headings	No
X_Columns	One
Time_Pref	Absolute
Operator	admin
Description	Clolumns are: time, Current, Voltage, Power, Battery Temp, and Chamber Temp
Date	2024/08/16
Time	13:06:06.104549407958984375
***End_of_Header***	
	
Channels	6						
Samples	1	1	1	1	1	1	
Date	2024/09/18	2024/09/18	2024/09/18	2024/09/18	2024/09/18	2024/09/18	
Time	06:35:24.0809569358825683594	06:35:24.0868487358093261719	06:35:24.0951304435729980469	06:35:24.0651040077209472656	06:35:24.0651040077209472656	06:35:24.0651040077209472656	
X_Dimension	Time	Time	Time	Time	Time	Time	
X0	0.0000000000000000E+0	0.0000000000000000E+0	0.0000000000000000E+0	0.0000000000000000E+0	0.0000000000000000E+0	0.0000000000000000E+0	
Delta_X	1.000000	1.000000	1.000000	1.000000	1.000000	1.000000	
***End_of_Header***							
X_Value	Untitled	Untitled 1	Untitled 2	Untitled 3	Untitled 4	Untitled 5	Comment
0.000000	-0.001875	4.093500	-0.007786	20.996565	0.000976	20.825412
0.998735	-3.000700	3.908600	-11.728000	21.010436	0.000976	20.798509
2.001185	-2.986100	3.901900	-11.651000	21.009895	0.000976	20.804132
3.000265	-2.985600	3.896800	-11.633000	21.003602	0.000973	20.829132
4.001849	-2.990300	3.892500	-11.639000	21.025219	0.000972	20.794803
5.004002	-3.021200	3.886700	-11.742000	21.005277	0.000973	20.791927
6.000929	-2.998800	3.884800	-11.649000	21.002014	0.000971	20.813793
7.002629	-2.980200	3.882000	-11.568000	21.018859	0.000969	20.813572
8.004528	-3.000000	3.880700	-11.641000	21.016889	0.000970	20.790265
9.004337	-3.013300	3.876800	-11.681000	21.015646	0.000968	20.809410
10.003632	-3.015200	3.875400	-11.684000	21.010881	0.000967	20.792316
11.007195	-3.023500	3.872900	-11.708000	21.012574	0.000965	20.798750
12.001328	-3.002800	3.872900	-11.628000	21.027178	0.000963	20.791072
13.006784	-3.003200	3.870300	-11.622000	21.039300	0.000964	20.797033
14.008710	-2.983500	3.869800	-11.544000	21.030127	0.000964	20.796867
15.004318	-3.026000	3.866600	-11.699000	21.028133	0.000965	20.791553
16.007522	-3.002600	3.865100	-11.605000	21.030805	0.000962	20.807028
17.009786	-2.995600	3.866800	-11.583000	21.051337	0.000963	20.782045
18.005168	-3.010200	3.864000	-11.630000	21.054360	0.000962	20.792656
19.006644	-2.998700	3.863900	-11.585000	21.055333	0.000961	20.789835
20.009453	-2.996400	3.862400	-11.571000	21.070650	0.000960	20.772913
21.006189	-3.002200	3.861900	-11.593000	21.052587	0.000960	20.782821
22.010263	-3.007800	3.861600	-11.615000	21.066415	0.000959	20.800920
23.010162	-3.017100	3.860300	-11.646000	21.077121	0.000959	20.767532
24.006824	-3.019500	3.858800	-11.651000	21.080341	0.000957	20.799202
25.010172	-2.972200	3.859000	-11.469000	21.078992	0.000958	20.774620
26.007322	-3.004400	3.858600	-11.592000	21.094021	0.000958	20.793919
27.006956	-2.994500	3.857100	-11.549000	21.095474	0.000959	20.782097
28.018457	-3.004600	3.855300	-11.582000	21.110341	0.000956	20.784166
29.008111	-3.010500	3.856000	-11.607000	21.135587	0.000957	20.771012
30.007825	-2.999100	3.855700	-11.563000	21.114786	0.000958	20.773439
31.008242	-2.992700	3.854000	-11.533000	21.132423	0.000957	20.790607
32.012249	-2.986900	3.854000	-11.510000	21.123498	0.000956	20.806335
33.008700	-3.005000	3.854000	-11.580000	21.155373	0.000957	20.776579
34.009608	-3.000100	3.854600	-11.562000	21.139165	0.000956	20.785971
35.008976	-3.001900	3.852700	-11.564000	21.149199	0.000954	20.763766
36.012224	-2.991000	3.852200	-11.521000	21.160502	0.000955	20.760847
37.012340	-3.002500	3.850600	-11.560000	21.168339	0.000955	20.771057
38.011633	-3.002500	3.850400	-11.560000	21.167366	0.000955	20.773877
39.014137	-2.998900	3.850800	-11.546000	21.186424	0.000956	20.783459
40.013581	-3.014700	3.848600	-11.601000	21.182509	0.000955	20.767689
41.013143	-3.000900	3.849800	-11.552000	21.187274	0.000956	20.777196
42.011518	-3.010200	3.847400	-11.580000	21.194261	0.000955	20.753365
43.010646	-3.008200	3.849100	-11.578000	21.204362	0.000954	20.784333
44.012168	-3.003500	3.848000	-11.557000	21.216994	0.000954	20.779426
45.010869	-2.985700	3.847200	-11.485000	21.221130	0.000955	20.770288
46.010844	-3.009400	3.845800	-11.572000	21.225495	0.000954	20.751893
47.010664	-2.998100	3.846800	-11.532000	21.239573	0.000956	20.771193
48.015438	-3.015700	3.845500	-11.596000	21.245759	0.000954	20.772166
49.011232	-3.005800	3.845900	-11.559000	21.247975	0.000954	20.745933
50.011312	-2.986200	3.846700	-11.487000	21.244836	0.000954	20.774088
51.012916	-3.001400	3.844000	-11.537000	21.261474	0.000955	20.762757
52.013438	-3.000100	3.844300	-11.532000	21.251945	0.000955	20.759389
53.010694	-2.987900	3.843100	-11.481000	21.283202	0.000955	20.756993
54.012816	-2.986200	3.844800	-11.480000	21.289961	0.000954	20.760435
55.010989	-2.993000	3.844300	-11.503000	21.288286	0.000955	20.762553
56.011582	-3.016200	3.841700	-11.586000	21.292755	0.000953	20.757067
57.011569	-2.996100	3.843600	-11.514000	21.319068	0.000953	20.744984
58.011313	-2.995900	3.842800	-11.511000	21.330197	0.000953	20.764654
59.011692	-2.997500	3.841200	-11.512000	21.321297	0.000954	20.762862
60.012402	-3.026900	3.840000	-11.622000	21.325464	0.000953	20.748539
61.013280	-3.008500	3.841700	-11.556000	21.346637	0.000954	20.751703
62.012802	-3.001600	3.840600	-11.527000	21.358565	0.000955	20.747516
63.013090	-3.009400	3.838900	-11.551000	21.359587	0.000952	20.739055
64.014672	-2.994600	3.841000	-11.501000	21.369132	0.000955	20.741493
65.013288	-3.006500	3.839300	-11.541000	21.358990	0.000954	20.748416
66.011455	-3.011700	3.839000	-11.561000	21.353826	0.000955	20.754629
67.011848	-3.000600	3.837900	-11.515000	21.382514	0.000953	20.745872
68.012296	-2.991000	3.839100	-11.481000	21.387007	0.000953	20.744678
69.011669	-3.020800	3.837600	-11.591000	21.406666	0.000952	20.752019
70.018661	-3.002100	3.837500	-11.519000	21.419559	0.000953	20.746427
71.014606	-2.987500	3.838100	-11.465000	21.431579	0.000954	20.728581
72.015382	-3.004700	3.837900	-11.531000	21.407294	0.000957	20.751699
73.014083	-2.977500	3.836600	-11.422000	21.447747	0.000955	20.758035
74.018517	-3.002300	3.836500	-11.518000	21.431758	0.000954	20.750098
75.015577	-2.983700	3.837600	-11.449000	21.459176	0.000955	20.752876
76.014758	-2.990300	3.836500	-11.471000	21.461170	0.000954	20.747284
77.016829	-2.982700	3.837600	-11.446000	21.457459	0.000954	20.748313
78.013283	-3.013200	3.833900	-11.551000	21.458228	0.000955	20.750031
79.021835	-2.983500	3.835400	-11.442000	21.484052	0.000954	20.742205
80.014892	-3.007000	3.835200	-11.531000	21.511961	0.000955	20.738836
81.019365	-2.990900	3.835000	-11.468000	21.497763	0.000953	20.752131
82.018757	-2.997400	3.834700	-11.492000	21.501561	0.000955	20.734119
83.013536	-3.007400	3.833000	-11.526000	21.515033	0.000955	20.741909
84.014388	-2.989700	3.834400	-11.462000	21.534436	0.000955	20.753739
85.013866	-2.992600	3.832800	-11.469000	21.542190	0.000955	20.727832
86.017258	-3.006700	3.831700	-11.520000	21.561624	0.000956	20.740641
87.015848	-2.995300	3.830800	-11.472000	21.563642	0.000957	20.715633
88.016730	-3.004400	3.832300	-11.513000	21.563551	0.000956	20.723128
89.020432	-3.001100	3.831000	-11.494000	21.588818	0.000958	20.748414
90.014955	-3.001200	3.830200	-11.494000	21.595052	0.000956	20.744694
91.017461	-3.005900	3.831500	-11.517000	21.581163	0.000957	20.726054
92.017022	-2.993200	3.830600	-11.465000	21.592665	0.000956	20.733770
93.015755	-3.000500	3.828600	-11.487000	21.596172	0.000956	20.721157
94.017425	-2.983100	3.829800	-11.424000	21.628700	0.000957	20.719095
95.023109	-3.018300	3.829000	-11.556000	21.621494	0.000956	20.725161
96.025034	-3.030700	3.828100	-11.600000	21.635038	0.000959	20.725913
97.021452	-3.000000	3.829100	-11.487000	21.639074	0.000957	20.749393
98.021441	-3.008500	3.828900	-11.518000	21.620350	0.000958	20.730180
99.021086	-2.984800	3.829400	-11.429000	21.619311	0.000958	20.726295
100.023685	-2.985000	3.829400	-11.430000	21.629482	0.000958	20.734578
101.023142	-2.992700	3.828900	-11.458000	21.641580	0.000958	20.711596
102.022477	-2.990100	3.828200	-11.445000	21.636768	0.000957	20.726696
103.022830	-2.972500	3.829200	-11.381000	21.648589	0.000957	20.724774
104.022842	-2.982400	3.828700	-11.417000	21.669067	0.000959	20.720138
105.023434	-2.997900	3.827000	-11.473000	21.688019	0.000959	20.731044
106.023542	-3.011100	3.827300	-11.522000	21.709241	0.000959	20.724781
107.021837	-2.976700	3.828000	-11.393000	21.701513	0.000959	20.716098
108.032319	-3.009300	3.827200	-11.516000	21.709044	0.000959	20.718420
109.024297	-3.015000	3.825900	-11.534000	21.720938	0.000961	20.735540
110.022654	-3.016000	3.827000	-11.540000	21.732038	0.000961	20.723415
111.023213	-2.989500	3.827500	-11.441000	21.734259	0.000961	20.718051
112.024019	-3.016000	3.825300	-11.534000	21.759769	0.000962	20.710864
113.023208	-3.011200	3.824600	-11.515000	21.766457	0.000961	20.701911
114.025109	-3.016000	3.824800	-11.533000	21.781365	0.000962	20.717780
115.023125	-2.992100	3.824500	-11.441000	21.793461	0.000963	20.727043
116.024951	-2.994100	3.824700	-11.450000	21.783039	0.000961	20.705230
117.026935	-2.985500	3.825600	-11.420000	21.800518	0.000962	20.733632
118.024566	-3.005900	3.823300	-11.490000	21.806203	0.000961	20.735529
119.024927	-2.989300	3.825000	-11.433000	21.813481	0.000963	20.730485
120.026991	-2.988200	3.824300	-11.427000	21.780295	0.000963	20.699164
121.026322	-2.978100	3.823600	-11.386000	21.812786	0.000964	20.704183
122.023662	-2.992600	3.822500	-11.437000	21.814306	0.000964	20.730836
123.026606	-3.000400	3.822200	-11.467000	21.804339	0.000964	20.699048
124.025146	-3.004700	3.822000	-11.482000	21.825184	0.000964	20.702841
125.030838	-3.007200	3.823500	-11.497000	21.823436	0.000966	20.713421
126.026042	-2.985500	3.823500	-11.413000	21.838947	0.000965	20.727524
127.024804	-2.995900	3.822200	-11.450000	21.873331	0.000965	20.714050
128.025349	-2.992300	3.821000	-11.432000	21.845757	0.000966	20.724858
129.033705	-3.001700	3.821900	-11.472000	21.880763	0.000966	20.719118
130.025390	-3.005900	3.820700	-11.485000	21.911684	0.000966	20.711661
131.025866	-2.997500	3.821300	-11.454000	21.881065	0.000966	20.681485
132.032291	-3.023400	3.820400	-11.549000	21.899890	0.000967	20.696536
133.030902	-2.977800	3.820400	-11.375000	21.907364	0.000967	20.715399
134.027212	-3.009300	3.820000	-11.495000	21.911136	0.000968	20.698784
135.031189	-3.010800	3.819100	-11.496000	21.910705	0.000969	20.700249
136.032280	-3.010800	3.820200	-11.500000	21.901188	0.000969	20.708268
137.028366	-2.997700	3.819500	-11.448000	21.919171	0.000971	20.711095
138.027596	-3.025200	3.818400	-11.550000	21.919164	0.000967	20.711088
139.026973	-3.023600	3.819100	-11.547000	21.909069	0.000969	20.691025
140.029076	-2.989900	3.819000	-11.417000	21.944154	0.000970	20.710024
141.028830	-3.019600	3.817800	-11.527000	21.920420	0.000969	20.716139
142.032071	-2.997200	3.819400	-11.445000	21.937996	0.000969	20.726146
143.030520	-2.969400	3.819100	-11.339000	21.969480	0.000970	20.701710
144.030948	-2.992700	3.819500	-11.430000	21.950564	0.000972	20.690361
145.034035	-3.009300	3.817400	-11.486000	21.979009	0.000970	20.725949
146.033614	-3.006200	3.816500	-11.472000	21.973897	0.000971	20.710400
147.044432	-2.990000	3.817000	-11.413000	21.955048	0.000973	20.725672
148.034353	-3.002900	3.816600	-11.460000	21.983254	0.000973	20.708861
149.035963	-3.014800	3.817900	-11.509000	21.980258	0.000974	20.701594
150.037134	-2.993800	3.816200	-11.423000	21.986945	0.000972	20.710185
151.033849	-2.996000	3.816300	-11.432000	21.997464	0.000973	20.691790
152.047353	-2.979800	3.815500	-11.367000	22.007614	0.000973	20.684881
153.035681	-2.996600	3.815600	-11.433000	22.019031	0.000976	20.703898
154.034954	-2.999000	3.816500	-11.445000	22.039994	0.000975	20.703072
155.035882	-2.989800	3.814600	-11.403000	22.030269	0.000974	20.707561
156.038841	-2.978000	3.815600	-11.361000	22.022803	0.000976	20.693448
157.034812	-2.974400	3.815800	-11.349000	22.058529	0.000976	20.698393
158.040528	-2.987500	3.815400	-11.397000	22.072486	0.000976	20.687708
159.038318	-2.991600	3.814800	-11.412000	22.057533	0.000976	20.704509
160.036399	-2.982200	3.816300	-11.378000	22.075408	0.000977	20.721456
161.036981	-2.999800	3.813800	-11.438000	22.066760	0.000978	20.691459
162.039669	-2.999000	3.812500	-11.432000	22.079376	0.000979	20.709781
163.038648	-2.988500	3.814900	-11.400000	22.088774	0.000979	20.717294
164.037826	-3.011500	3.813800	-11.485000	22.072370	0.000979	20.695179
165.042278	-3.017000	3.812700	-11.501000	22.075618	0.000980	20.703174
166.040408	-2.981700	3.813900	-11.370000	22.102467	0.000982	20.694016
167.038568	-2.989800	3.811800	-11.395000	22.093174	0.000980	20.679969
168.037430	-3.001800	3.812100	-11.442000	22.087736	0.000980	20.701554
169.040318	-3.007900	3.812400	-11.466000	22.096587	0.000981	20.701407
170.045380	-3.004400	3.812100	-11.452000	22.103144	0.000983	20.692797
171.038476	-3.011500	3.810500	-11.474000	22.117359	0.000982	20.704185
172.040575	-2.989400	3.811800	-11.393000	22.143685	0.000982	20.695927
173.039610	-3.001200	3.811100	-11.436000	22.146151	0.000982	20.694603
174.039651	-2.988000	3.811200	-11.386000	22.173096	0.000983	20.687440
175.040817	-2.986600	3.811400	-11.382000	22.160734	0.000984	20.697824
176.037915	-2.987800	3.810900	-11.385000	22.142222	0.000984	20.690668
177.039770	-2.999500	3.808600	-11.423000	22.170532	0.000985	20.681079
178.045521	-2.979100	3.809700	-11.349000	22.197182	0.000985	20.686899
179.040125	-2.995000	3.809800	-11.409000	22.200024	0.000985	20.687848
180.041039	-2.988800	3.810000	-11.387000	22.195288	0.000985	20.681683
181.042041	-3.005700	3.807900	-11.445000	22.212484	0.000986	20.675192
182.040155	-3.010900	3.809000	-11.467000	22.201174	0.000988	20.691371
183.039968	-2.997100	3.808400	-11.413000	22.225375	0.000989	20.694265
184.047202	-2.999500	3.808600	-11.423000	22.247755	0.000988	20.676843
185.050922	-2.998900	3.808200	-11.420000	22.255006	0.000988	20.685526
186.040749	-2.983200	3.809900	-11.364000	22.254385	0.000991	20.673523
187.041118	-3.003700	3.806500	-11.432000	22.232005	0.000988	20.668184
188.040110	-2.994900	3.807400	-11.401000	22.230942	0.000991	20.683242
189.042068	-3.025200	3.805700	-11.511000	22.247640	0.000990	20.707075
190.042154	-3.002300	3.807100	-11.429000	22.257332	0.000990	20.676000
191.043579	-3.021400	3.805200	-11.496000	22.265179	0.000992	20.681961
192.040514	-3.009300	3.804300	-11.448000	22.277049	0.000992	20.667766
193.040257	-2.994500	3.804900	-11.393000	22.278845	0.000991	20.655338
194.043299	-2.997300	3.805200	-11.404000	22.268967	0.000995	20.684806
195.043706	-2.991600	3.805600	-11.384000	22.290960	0.000992	20.661306
196.049430	-2.985100	3.805900	-11.359000	22.312385	0.000994	20.683710
197.047672	-2.990000	3.805700	-11.378000	22.306685	0.000994	20.650498
198.048756	-3.010300	3.804100	-11.450000	22.290087	0.000994	20.674183
199.044386	-3.005100	3.804300	-11.432000	22.302774	0.000996	20.675033
200.047976	-2.995500	3.805400	-11.397000	22.286249	0.000997	20.660857
201.050342	-3.011000	3.803600	-11.450000	22.293426	0.000996	20.675631
202.042583	-3.005500	3.804200	-11.433000	22.302700	0.000996	20.679228
203.044567	-3.008800	3.802500	-11.441000	22.310123	0.000998	20.669115
204.047078	-2.981400	3.804300	-11.341000	22.327219	0.000998	20.664896
205.052013	-3.011700	3.801400	-11.447000	22.316759	0.000997	20.669596
206.044409	-3.005100	3.803500	-11.429000	22.339113	0.000998	20.680601
207.046556	-3.001300	3.803600	-11.414000	22.351946	0.000999	20.674960
208.045767	-3.019400	3.801400	-11.477000	22.379059	0.001000	20.668444
209.044555	-3.015600	3.802800	-11.467000	22.399223	0.001000	20.685793
210.043105	-3.010600	3.801500	-11.443000	22.402783	0.001001	20.659009
211.046149	-3.000500	3.800900	-11.403000	22.411884	0.001003	20.663856
212.055877	-3.021600	3.800200	-11.481000	22.442015	0.001002	20.655148
213.060902	-3.013800	3.800900	-11.454000	22.433738	0.001002	20.673414
214.047539	-3.004800	3.801000	-11.421000	22.441935	0.001001	20.665974
215.051502	-2.974500	3.801500	-11.307000	22.450285	0.001003	20.671019
216.059939	-3.016900	3.800900	-11.466000	22.479664	0.001002	20.671992
217.049182	-3.029800	3.798900	-11.509000	22.482979	0.001004	20.661559
218.048133	-2.986700	3.800800	-11.351000	22.449363	0.001005	20.665827
219.047126	-2.962100	3.801200	-11.258000	22.459134	0.001005	20.667551
220.048022	-3.013300	3.799600	-11.447000	22.459730	0.001004	20.652500
221.047827	-3.010300	3.799500	-11.437000	22.453256	0.001006	20.673045
222.051717	-3.000600	3.799000	-11.397000	22.477101	0.001006	20.672743
223.050213	-2.983100	3.799500	-11.333000	22.452382	0.001007	20.660315
224.047529	-3.021200	3.798600	-11.476000	22.482733	0.001007	20.666055
225.052373	-2.976700	3.800100	-11.310000	22.522012	0.001008	20.682634
226.051611	-2.989400	3.799300	-11.356000	22.522233	0.001008	20.670527
227.053731	-3.031000	3.796700	-11.507000	22.530607	0.001010	20.669431
228.055532	-2.977600	3.798100	-11.307000	22.561282	0.001009	20.673600
229.056219	-3.009200	3.795600	-11.420000	22.559094	0.001012	20.679944
230.053744	-3.004800	3.797400	-11.409000	22.553111	0.001009	20.652612
231.054743	-3.021800	3.795600	-11.469000	22.574169	0.001011	20.652840
232.054778	-3.006400	3.796400	-11.413000	22.591808	0.001009	20.646798
233.059248	-2.994800	3.796000	-11.367000	22.601129	0.001012	20.672732
234.060256	-2.994700	3.796400	-11.367000	22.617877	0.001013	20.664850
235.051602	-3.008900	3.796300	-11.422000	22.636101	0.001013	20.667930
236.052335	-3.023000	3.795400	-11.473000	22.635417	0.001014	20.655390
237.054378	-2.997800	3.794400	-11.374000	22.634495	0.001015	20.669641
238.060092	-2.993700	3.794400	-11.358000	22.670251	0.001013	20.648555
239.053760	-3.014900	3.794500	-11.438000	22.649128	0.001015	20.662960
240.066004	-2.987600	3.794200	-11.334000	22.685498	0.001015	20.670467
241.052974	-3.000000	3.795600	-11.386000	22.669582	0.001016	20.663533
242.064091	-3.014600	3.792700	-11.431000	22.687219	0.001016	20.656068
243.058197	-2.983800	3.794800	-11.322000	22.695421	0.001017	20.679933
244.057135	-3.010100	3.793400	-11.417000	22.677499	0.001016	20.678103
245.065969	-2.999700	3.793600	-11.378000	22.670633	0.001017	20.660318
246.064923	-3.005600	3.792400	-11.396000	22.673099	0.001017	20.678437
247.060740	-3.006400	3.792400	-11.400000	22.671752	0.001019	20.670923
248.059377	-2.996300	3.791900	-11.361000	22.657526	0.001017	20.653353
249.065280	-2.996700	3.792800	-11.365000	22.699411	0.001019	20.671601
250.057915	-2.994700	3.792100	-11.355000	22.659949	0.001020	20.649141
251.059035	-2.999000	3.791900	-11.371000	22.665998	0.001021	20.668478
252.058534	-3.018000	3.791400	-11.441000	22.677303	0.001020	20.671742
253.061987	-2.994700	3.792000	-11.354000	22.681970	0.001023	20.659345
254.059857	-2.996900	3.790400	-11.358000	22.704569	0.001023	20.662542
255.058955	-3.018400	3.791000	-11.442000	22.693411	0.001021	20.664642
256.071122	-3.011700	3.790200	-11.414000	22.709032	0.001023	20.665591
257.062433	-3.001000	3.790300	-11.374000	22.723331	0.001022	20.661421
258.063734	-3.001200	3.790200	-11.374000	22.712591	0.001024	20.645920
259.060899	-3.002100	3.789900	-11.376000	22.739155	0.001023	20.662099
260.063141	-3.005200	3.788900	-11.386000	22.746532	0.001025	20.652892
261.066721	-2.974300	3.790300	-11.272000	22.768380	0.001025	20.677151
262.066587	-3.006600	3.789200	-11.392000	22.752090	0.001026	20.652295
263.067600	-3.005300	3.788000	-11.383000	22.750694	0.001027	20.653742
264.068104	-2.994600	3.789200	-11.346000	22.769782	0.001029	20.670968
265.063722	-3.026300	3.787900	-11.462000	22.797284	0.001027	20.640668
266.066521	-2.999800	3.789200	-11.366000	22.806677	0.001029	20.665253
267.067608	-2.986300	3.789300	-11.314000	22.824141	0.001028	20.659039
268.063497	-2.997900	3.787600	-11.354000	22.834750	0.001029	20.681998
269.065267	-3.019800	3.788100	-11.438000	22.818934	0.001029	20.694605
270.067532	-3.009600	3.788000	-11.399000	22.815947	0.001030	20.657469
271.065294	-3.014700	3.785900	-11.412000	22.812781	0.001030	20.652875
272.065352	-2.996500	3.787200	-11.347000	22.821486	0.001033	20.663019
273.070431	-2.981100	3.786300	-11.287000	22.828611	0.001031	20.672528
274.071534	-2.993900	3.785800	-11.333000	22.819169	0.001031	20.674923
275.068742	-2.980800	3.787100	-11.288000	22.808584	0.001032	20.660051
276.079904	-2.994600	3.784300	-11.332000	22.827738	0.001034	20.681611
277.071490	-3.004900	3.784700	-11.371000	22.844955	0.001033	20.652390
278.077515	-3.011100	3.784000	-11.393000	22.832877	0.001032	20.680596
279.076609	-2.999900	3.785500	-11.354000	22.832152	0.001035	20.675601
280.070282	-2.999000	3.786100	-11.353000	22.832183	0.001036	20.686539
281.073832	-2.995200	3.785000	-11.336000	22.849043	0.001035	20.674031
282.070415	-3.014300	3.782100	-11.399000	22.819355	0.001036	20.663254
283.071625	-3.014800	3.783200	-11.404000	22.826977	0.001038	20.654768
284.069748	-3.007200	3.782500	-11.374000	22.819723	0.001037	20.680695
285.078129	-3.005200	3.782900	-11.368000	22.824056	0.001037	20.680294
286.074455	-2.961700	3.784700	-11.208000	22.814467	0.001039	20.665945
287.076963	-2.957600	3.783700	-11.189000	22.832355	0.001038	20.687186
288.072917	-2.976900	3.782000	-11.258000	22.844293	0.001038	20.691085
289.074533	-2.984600	3.783300	-11.289000	22.854681	0.001039	20.671144
290.072027	-2.997400	3.780400	-11.331000	22.853107	0.001038	20.678102
291.073144	-2.983300	3.781900	-11.281000	22.867975	0.001040	20.688731
292.077773	-2.993000	3.781600	-11.317000	22.846775	0.001039	20.689778
293.073817	-3.008700	3.781400	-11.376000	22.867951	0.001042	20.674955
294.075775	-2.984600	3.781100	-11.284000	22.874682	0.001042	20.676483
295.074875	-3.014000	3.780500	-11.393000	22.875597	0.001040	20.673132
296.080110	-2.984200	3.780400	-11.280000	22.856967	0.001042	20.677228
297.074309	-2.995600	3.780800	-11.325000	22.871436	0.001044	20.686508
298.075230	-2.976900	3.780600	-11.253000	22.870496	0.001043	20.678928
299.077568	-2.996900	3.778500	-11.323000	22.880263	0.001044	20.673539
300.080238	-3.000300	3.778300	-11.334000	22.883373	0.001045	20.694675
301.078348	-3.016800	3.779100	-11.399000	22.906627	0.001044	20.667708
302.082703	-3.007900	3.778600	-11.365000	22.923381	0.001042	20.697773
303.081470	-2.997700	3.779700	-11.329000	22.937326	0.001044	20.679026
304.080802	-2.988900	3.776900	-11.287000	22.919945	0.001045	20.696701
305.084800	-3.002200	3.777600	-11.340000	22.958556	0.001046	20.684175
306.084694	-2.989700	3.776700	-11.290000	22.975096	0.001047	20.677512
307.080909	-3.002300	3.777400	-11.338000	22.995070	0.001047	20.685672
308.080653	-2.999900	3.775600	-11.325000	23.023170	0.001045	20.679686
309.085762	-3.001600	3.776400	-11.333000	23.026531	0.001048	20.692539
310.081870	-3.000700	3.776400	-11.330000	23.053701	0.001049	20.703642
311.081734	-2.974700	3.776800	-11.234000	23.074529	0.001048	20.666187
312.082297	-2.986500	3.777500	-11.280000	23.059762	0.001048	20.689325
313.085732	-2.993400	3.776300	-11.302000	23.061280	0.001048	20.658126
314.083970	-3.010100	3.774000	-11.359000	23.069282	0.001048	20.701710
315.083409	-3.004200	3.773700	-11.336000	23.062282	0.001050	20.699437
316.086221	-3.012700	3.774300	-11.370000	23.082059	0.001051	20.683216
317.088595	-3.000800	3.774100	-11.324000	23.091498	0.001050	20.682243
318.085749	-3.022000	3.773700	-11.402000	23.093668	0.001050	20.694850
319.092178	-2.973800	3.773300	-11.220000	23.090250	0.001051	20.695693
320.090615	-2.985100	3.773100	-11.262000	23.107384	0.001053	20.693895
321.087802	-3.004300	3.772100	-11.332000	23.105638	0.001052	20.685507
322.092278	-3.017700	3.773100	-11.385000	23.147015	0.001052	20.678604
323.088251	-2.987300	3.771900	-11.266000	23.139567	0.001054	20.701014
324.093331	-2.982000	3.773800	-11.252000	23.163878	0.001054	20.700245
325.089739	-2.975900	3.772400	-11.225000	23.146949	0.001055	20.697031
326.091290	-3.017500	3.770100	-11.375000	23.146241	0.001054	20.694899
327.091974	-2.986100	3.771300	-11.261000	23.166286	0.001053	20.716884
328.091095	-2.990000	3.771400	-11.275000	23.170618	0.001055	20.713164
329.092516	-2.996600	3.770700	-11.297000	23.184813	0.001056	20.735451
330.090598	-3.011300	3.770000	-11.352000	23.173303	0.001056	20.686455
331.091084	-3.005600	3.768900	-11.327000	23.159808	0.001055	20.713712
332.092738	-3.015700	3.770300	-11.368000	23.160601	0.001058	20.689374
333.092118	-2.996100	3.770700	-11.296000	23.189734	0.001059	20.710983
334.092041	-3.015300	3.768300	-11.362000	23.157632	0.001059	20.702522
335.092873	-3.003100	3.768800	-11.317000	23.166924	0.001058	20.698556
336.093909	-3.008300	3.767900	-11.334000	23.178819	0.001059	20.707158
337.094064	-3.023600	3.767000	-11.387000	23.159770	0.001060	20.706561
338.095118	-2.998800	3.767600	-11.296000	23.161957	0.001059	20.710650
339.098233	-2.989500	3.768000	-11.264000	23.170401	0.001060	20.708679
340.099974	-3.011500	3.766400	-11.341000	23.160163	0.001060	20.706006
341.096292	-3.004100	3.765400	-11.311000	23.145943	0.001059	20.700765
342.099646	-3.002800	3.766000	-11.306000	23.169276	0.001059	20.722726
343.099956	-3.001100	3.767100	-11.304000	23.181424	0.001060	20.706449
344.096889	-2.992100	3.766700	-11.269000	23.176569	0.001061	20.703006
345.098211	-2.999400	3.766500	-11.297000	23.204062	0.001061	20.721549
346.096731	-2.977800	3.767100	-11.216000	23.215344	0.001063	20.717682
347.096403	-2.986500	3.764700	-11.243000	23.216910	0.001062	20.709768
348.099961	-2.997400	3.765000	-11.285000	23.210384	0.001061	20.730256
349.098384	-3.005300	3.765300	-11.315000	23.229303	0.001062	20.721240
350.096065	-2.993600	3.765200	-11.270000	23.247191	0.001063	20.719252
351.097605	-2.968700	3.765200	-11.177000	23.274934	0.001065	20.727615
352.096089	-3.003700	3.763000	-11.301000	23.270946	0.001064	20.721721
353.097605	-2.982700	3.764800	-11.229000	23.301428	0.001066	20.711018
354.098180	-3.001200	3.763500	-11.294000	23.317808	0.001063	20.706572
355.098992	-2.976600	3.764100	-11.203000	23.301453	0.001066	20.725743
356.100015	-2.993300	3.763800	-11.265000	23.317318	0.001066	20.725996
357.099267	-2.964300	3.765500	-11.162000	23.328770	0.001066	20.716136
358.101421	-3.010000	3.761900	-11.321000	23.345360	0.001065	20.720910
359.101897	-3.002600	3.762300	-11.296000	23.371895	0.001068	20.726168
360.102295	-3.003000	3.761300	-11.294000	23.390401	0.001067	20.737130
361.101665	-3.020500	3.761100	-11.358000	23.386788	0.001067	20.723551
362.101792	-3.013600	3.761400	-11.334000	23.397301	0.001066	20.719863
363.101927	-2.991200	3.759600	-11.243000	23.421427	0.001070	20.724605
364.102854	-2.993900	3.761500	-11.259000	23.412912	0.001069	20.740727
365.100794	-3.011300	3.760000	-11.321000	23.438986	0.001069	20.726083
366.103449	-3.017200	3.759300	-11.342000	23.416826	0.001068	20.740857
367.104162	-3.014400	3.759400	-11.332000	23.396011	0.001068	20.747021
368.106007	-2.979000	3.759400	-11.198000	23.388516	0.001071	20.714850
369.105207	-3.009100	3.759200	-11.310000	23.402063	0.001069	20.728904
370.105425	-2.992600	3.759600	-11.250000	23.402953	0.001070	20.736435
371.104780	-3.008700	3.758300	-11.307000	23.404029	0.001072	20.724710
372.107057	-2.995600	3.758000	-11.255000	23.416297	0.001070	20.731317
373.108012	-3.006300	3.756800	-11.294000	23.424574	0.001071	20.730604
374.108138	-3.011200	3.757000	-11.312000	23.431344	0.001070	20.724587
375.107038	-2.987000	3.756800	-11.220000	23.440430	0.001071	20.724211
376.109061	-2.991700	3.757900	-11.241000	23.459530	0.001070	20.722968
377.109078	-2.991000	3.756800	-11.236000	23.459807	0.001074	20.730358
378.108974	-2.983200	3.756700	-11.207000	23.513806	0.001073	20.735648
379.110940	-3.016100	3.755000	-11.325000	23.520625	0.001072	20.734896
380.108515	-3.014100	3.755700	-11.319000	23.537856	0.001074	20.727987
381.107613	-3.001600	3.755800	-11.272000	23.550529	0.001074	20.745433
382.114510	-3.000100	3.754500	-11.261000	23.536707	0.001072	20.729680
383.109511	-2.981400	3.755500	-11.196000	23.555855	0.001073	20.749350
384.110086	-2.995700	3.755000	-11.248000	23.566562	0.001073	20.752022
385.112425	-3.006700	3.752800	-11.282000	23.581950	0.001074	20.739947
386.113346	-2.994200	3.753300	-11.237000	23.596613	0.001075	20.736628
387.109781	-3.007200	3.753100	-11.286000	23.575181	0.001075	20.748334
388.110604	-3.012400	3.752500	-11.303000	23.582945	0.001075	20.735254
389.113222	-3.011800	3.752400	-11.300000	23.588008	0.001075	20.736062
390.112558	-3.007400	3.752200	-11.284000	23.580360	0.001076	20.746413
391.111598	-3.009500	3.751000	-11.287000	23.589672	0.001076	20.746740
392.117160	-3.015900	3.751200	-11.312000	23.616748	0.001077	20.734527
393.113239	-2.998900	3.751000	-11.247000	23.606798	0.001076	20.747312
394.111469	-2.991400	3.751200	-11.221000	23.618002	0.001078	20.752855
395.113341	-3.006300	3.750100	-11.272000	23.619519	0.001076	20.740150
396.127726	-3.012100	3.750400	-11.294000	23.609790	0.001078	20.747467
397.117051	-2.993400	3.750600	-11.226000	23.610140	0.001076	20.755879
398.116328	-2.993100	3.750100	-11.223000	23.625748	0.001078	20.753034
399.116901	-2.979300	3.751100	-11.175000	23.628505	0.001077	20.745366
400.115499	-2.990700	3.749200	-11.212000	23.618279	0.001077	20.751710
401.116838	-2.991700	3.749500	-11.215000	23.618752	0.001078	20.766883
402.118633	-3.009100	3.746600	-11.272000	23.628740	0.001077	20.736592
403.117430	-2.997800	3.746700	-11.231000	23.655300	0.001080	20.776496
404.116789	-2.987600	3.748400	-11.197000	23.641240	0.001078	20.748176
405.118981	-2.976900	3.748700	-11.159000	23.632555	0.001078	20.754168
406.119636	-2.996800	3.746000	-11.225000	23.595141	0.001079	20.752697
407.119042	-2.990200	3.746200	-11.201000	23.589784	0.001080	20.755387
408.121841	-2.994700	3.746800	-11.219000	23.588421	0.001079	20.754969
409.119969	-2.996400	3.744900	-11.220000	23.607120	0.001079	20.773240
410.118743	-2.983300	3.746000	-11.172000	23.602341	0.001079	20.749483
411.120085	-2.994600	3.745300	-11.215000	23.633932	0.001082	20.753652
412.119277	-2.985200	3.745500	-11.180000	23.636696	0.001082	20.756423
413.119786	-3.002900	3.744600	-11.243000	23.645105	0.001080	20.757266
414.119932	-2.984800	3.743700	-11.173000	23.653078	0.001081	20.746768
415.120661	-2.996800	3.743600	-11.218000	23.652858	0.001082	20.751762
416.120784	-2.965600	3.743700	-11.101000	23.685442	0.001082	20.750765
417.121252	-3.005600	3.743500	-11.250000	23.692789	0.001081	20.755285
418.122285	-2.995900	3.743600	-11.214000	23.708967	0.001085	20.769134
419.122450	-3.005600	3.743900	-11.252000	23.709415	0.001082	20.747298
420.122560	-2.989700	3.743100	-11.189000	23.746230	0.001082	20.769036
421.126666	-2.989500	3.743500	-11.191000	23.730795	0.001082	20.773475
422.123493	-2.995300	3.742400	-11.209000	23.753544	0.001082	20.765464
423.125460	-3.011400	3.741800	-11.266000	23.764078	0.001083	20.764645
424.126895	-3.027000	3.739200	-11.316000	23.757163	0.001085	20.740642
425.123150	-2.996700	3.741600	-11.212000	23.770846	0.001082	20.782811
426.123069	-2.988000	3.742100	-11.180000	23.781534	0.001081	20.778354
427.129401	-2.997600	3.741900	-11.215000	23.747386	0.001084	20.772566
428.123936	-3.003000	3.740700	-11.232000	23.763784	0.001083	20.764825
429.123476	-2.991400	3.739900	-11.186000	23.765055	0.001085	20.783644
430.125186	-2.991400	3.740400	-11.188000	23.745739	0.001085	20.787036
431.125030	-2.984600	3.738700	-11.157000	23.761174	0.001084	20.788287
432.126699	-2.993900	3.738300	-11.190000	23.774888	0.001084	20.761260
433.125169	-3.009200	3.738200	-11.248000	23.760407	0.001085	20.769974
434.126367	-2.989500	3.739500	-11.177000	23.720829	0.001086	20.776759
435.128824	-2.988200	3.738700	-11.170000	23.712543	0.001086	20.773669
436.129313	-3.004700	3.736200	-11.225000	23.724311	0.001084	20.773138
437.128582	-3.022100	3.736000	-11.289000	23.737136	0.001087	20.781255
438.128749	-3.020600	3.737300	-11.288000	23.734901	0.001085	20.793713
439.128850	-2.988900	3.737000	-11.168000	23.716285	0.001084	20.783584
440.129728	-3.009400	3.735600	-11.240000	23.761955	0.001085	20.791441
441.129790	-3.001800	3.736000	-11.214000	23.780700	0.001086	20.777044
442.127342	-2.991800	3.735400	-11.174000	23.793850	0.001085	20.769840
443.128515	-2.993200	3.735800	-11.181000	23.792603	0.001086	20.766693
444.128112	-3.011700	3.734800	-11.247000	23.797364	0.001088	20.769095
445.127634	-2.994000	3.735800	-11.184000	23.782150	0.001086	20.785136
446.129977	-3.011900	3.735100	-11.249000	23.778115	0.001087	20.778245
447.132968	-3.015500	3.733000	-11.256000	23.792701	0.001086	20.779120
448.134118	-3.015600	3.734300	-11.260000	23.765556	0.001085	20.780827
449.130450	-3.001000	3.733500	-11.203000	23.798978	0.001088	20.783043
450.130635	-2.999300	3.733200	-11.196000	23.801423	0.001087	20.781701
451.134014	-3.012900	3.733000	-11.246000	23.840151	0.001087	20.780229
452.131881	-2.988100	3.733200	-11.154000	23.847195	0.001087	20.782077
453.132439	-3.015600	3.732500	-11.255000	23.896349	0.001086	20.801019
454.134854	-2.995600	3.731400	-11.175000	23.893494	0.001088	20.769707
455.132817	-3.002100	3.731300	-11.201000	23.909571	0.001089	20.795785
456.132020	-3.017900	3.730000	-11.255000	23.919508	0.001088	20.796741
457.136449	-3.007300	3.730700	-11.218000	23.922860	0.001088	20.799154
458.134417	-3.007600	3.730500	-11.218000	23.936352	0.001090	20.782337
459.133177	-3.012100	3.730500	-11.235000	23.956536	0.001087	20.785983
460.136670	-3.001200	3.728400	-11.189000	23.933490	0.001087	20.811236
461.136228	-2.984400	3.730500	-11.132000	23.938642	0.001089	20.797436
462.135003	-2.976800	3.730300	-11.103000	23.944593	0.001090	20.791075
463.135433	-2.998700	3.729700	-11.182000	23.913109	0.001087	20.799807
464.134782	-3.007500	3.728500	-11.213000	23.944446	0.001090	20.796144
465.137258	-2.995200	3.728300	-11.165000	23.935217	0.001091	20.791630
466.136769	-2.989000	3.728800	-11.144000	23.971723	0.001089	20.813065
467.136701	-2.985300	3.727300	-11.126000	23.956691	0.001088	20.815060
468.139019	-3.008700	3.728700	-11.218000	23.976752	0.001088	20.801040
469.138784	-3.011600	3.728400	-11.228000	23.999497	0.001090	20.808201
470.143737	-2.969900	3.728700	-11.073000	23.995739	0.001090	20.801587
471.140951	-3.008800	3.727500	-11.214000	24.005324	0.001089	20.800769
472.141076	-3.029700	3.725700	-11.287000	23.969040	0.001090	20.810849
473.144176	-3.003100	3.725900	-11.188000	23.953363	0.001088	20.819310
474.140165	-3.005100	3.726100	-11.196000	23.951006	0.001089	20.803670
475.139985	-3.009700	3.725300	-11.210000	23.964319	0.001090	20.817020
476.148322	-3.000400	3.723800	-11.172000	23.961293	0.001088	20.816830
477.141803	-3.008500	3.723700	-11.202000	23.974126	0.001088	20.822113
478.144602	-2.995300	3.724700	-11.155000	23.953377	0.001089	20.788030
479.143327	-2.996500	3.724500	-11.158000	23.950908	0.001089	20.815900
480.143476	-2.981300	3.724000	-11.101000	23.947997	0.001090	20.825309
481.142536	-2.986400	3.724200	-11.121000	23.917736	0.001088	20.798282
482.145090	-3.013500	3.722300	-11.216000	23.922170	0.001090	20.813160
483.141768	-3.001500	3.722300	-11.172000	23.932278	0.001091	20.804805
484.142752	-3.008200	3.722900	-11.198000	23.964179	0.001090	20.812612
485.146249	-2.996000	3.721400	-11.149000	23.987298	0.001089	20.794545
486.142336	-3.010900	3.722000	-11.206000	24.005762	0.001089	20.813536
487.143195	-2.996800	3.721400	-11.151000	24.021347	0.001090	20.821579
488.143542	-2.999800	3.721400	-11.162000	24.029507	0.001090	20.791830
489.143451	-3.024400	3.719600	-11.249000	24.048990	0.001090	20.808998
490.141929	-3.003000	3.721400	-11.174000	24.072654	0.001089	20.776306
491.141942	-3.039500	3.718400	-11.301000	24.100050	0.001090	20.797144
492.142166	-2.992700	3.720600	-11.135000	24.118821	0.001090	20.790840
493.142293	-3.004200	3.719200	-11.171000	24.106357	0.001090	20.804893
494.142833	-3.000600	3.720200	-11.162000	24.102551	0.001090	20.791117
495.146181	-3.003000	3.719800	-11.170000	24.123996	0.001090	20.804566
496.143065	-2.999800	3.718400	-11.153000	24.110612	0.001091	20.812005
497.142628	-3.009600	3.718000	-11.188000	24.084333	0.001091	20.812676
498.145080	-3.003700	3.719300	-11.170000	24.078544	0.001089	20.791223
499.144198	-2.990500	3.718500	-11.118000	24.053179	0.001088	20.799923
500.146001	-2.982700	3.718500	-11.091000	24.065699	0.001090	20.790194
501.144888	-3.003000	3.715400	-11.156000	24.082270	0.001091	20.789744
502.148414	-3.000900	3.716500	-11.152000	24.071551	0.001091	20.792744
503.145642	-3.014000	3.715000	-11.196000	24.048255	0.001091	20.794036
504.147853	-3.015800	3.715500	-11.204000	24.043681	0.001091	20.787553
505.146821	-3.011100	3.717000	-11.190000	24.054530	0.001090	20.781838
506.145380	-3.011300	3.714400	-11.184000	24.067345	0.001090	20.779042
507.145872	-3.006100	3.714100	-11.164000	24.075529	0.001091	20.781086
508.147973	-3.029300	3.713300	-11.247000	24.084764	0.001089	20.811211
509.150980	-3.001300	3.714300	-11.145000	24.110318	0.001091	20.779941
510.152000	-2.989500	3.715900	-11.108000	24.132391	0.001091	20.769836
511.149796	-2.982600	3.716700	-11.085000	24.150422	0.001090	20.776067
512.152847	-3.007600	3.714000	-11.169000	24.152841	0.001091	20.795090
513.149317	-2.973600	3.713700	-11.042000	24.190016	0.001089	20.768839
514.149376	-3.003100	3.712700	-11.148000	24.166281	0.001093	20.774431
515.151061	-3.004900	3.711300	-11.151000	24.199471	0.001092	20.769313
516.154726	-3.007400	3.711800	-11.163000	24.211828	0.001091	20.759422
517.155852	-3.007500	3.711300	-11.161000	24.218477	0.001090	20.778895
518.153039	-3.003900	3.712300	-11.149000	24.229049	0.001090	20.775274
519.157836	-3.000900	3.712800	-11.141000	24.227336	0.001091	20.791100
520.153358	-3.029100	3.710400	-11.239000	24.235845	0.001089	20.774030
521.155106	-3.004000	3.710300	-11.145000	24.226342	0.001089	20.760704
522.155887	-2.992300	3.710400	-11.101000	24.235502	0.001092	20.761358
523.153244	-3.025800	3.709100	-11.221000	24.232886	0.001090	20.768691
524.154706	-2.987400	3.710700	-11.085000	24.249659	0.001088	20.743789
525.155691	-3.007100	3.707600	-11.147000	24.214377	0.001091	20.766721
526.154208	-3.017300	3.708400	-11.188000	24.160755	0.001089	20.776475
527.155668	-3.006400	3.707500	-11.144000	24.148405	0.001089	20.765509
528.156711	-3.020000	3.706600	-11.193000	24.118190	0.001089	20.760810
529.159296	-2.986400	3.708800	-11.073000	24.110153	0.001090	20.748007
530.159867	-2.982700	3.707000	-11.055000	24.119983	0.001091	20.771617
531.156422	-2.993000	3.707900	-11.096000	24.122102	0.001090	20.763785
532.159660	-2.994300	3.707600	-11.100000	24.140743	0.001089	20.744073
533.161072	-3.017800	3.706100	-11.184000	24.181472	0.001090	20.756476
534.156652	-2.993200	3.707700	-11.096000	24.195262	0.001091	20.757031
535.161844	-3.018200	3.706400	-11.186000	24.187022	0.001091	20.771526
536.163272	-3.009000	3.705800	-11.150000	24.201358	0.001088	20.760301
537.158346	-3.002600	3.706300	-11.127000	24.169163	0.001089	20.755510
538.161656	-3.004100	3.706000	-11.133000	24.197723	0.001090	20.746697
539.159821	-2.999000	3.705700	-11.111000	24.224049	0.001090	20.735644
540.157635	-3.007200	3.703200	-11.135000	24.237088	0.001092	20.763897
541.162555	-2.980800	3.704500	-11.042000	24.245215	0.001090	20.767782
542.159678	-2.987100	3.704300	-11.064000	24.228629	0.001091	20.754937
543.158338	-2.996000	3.704300	-11.097000	24.226468	0.001090	20.774108
544.161201	-2.996300	3.703200	-11.095000	24.224675	0.001090	20.754765
545.164546	-3.032200	3.702700	-11.226000	24.259313	0.001090	20.770068
546.163587	-2.983800	3.702400	-11.046000	24.287576	0.001091	20.752426
547.161989	-2.996600	3.702800	-11.095000	24.283259	0.001091	20.751414
548.163737	-2.982000	3.704700	-11.046000	24.298374	0.001091	20.752826
549.162763	-2.987900	3.701000	-11.056000	24.292425	0.001090	20.758239
550.164238	-2.989200	3.701400	-11.062000	24.296133	0.001088	20.758639
551.165125	-2.983600	3.700800	-11.039000	24.308479	0.001089	20.750635
552.163021	-2.987800	3.700000	-11.054000	24.323426	0.001087	20.752826
553.163194	-3.030300	3.698900	-11.208000	24.329007	0.001090	20.748942
554.168168	-2.989800	3.700300	-11.062000	24.351720	0.001088	20.752285
555.163473	-2.993500	3.700500	-11.077000	24.357392	0.001088	20.754656
556.163834	-3.017300	3.699200	-11.161000	24.377096	0.001088	20.736964
557.163903	-3.003100	3.697000	-11.100000	24.384837	0.001089	20.762275
558.162716	-3.004200	3.698900	-11.110000	24.387200	0.001090	20.746627
559.163273	-2.994000	3.699000	-11.074000	24.365710	0.001089	20.749725
560.162562	-2.972500	3.699100	-10.995000	24.356950	0.001090	20.728134
561.164117	-2.994300	3.698300	-11.072000	24.332852	0.001089	20.747108
562.166209	-3.011200	3.697300	-11.133000	24.325566	0.001090	20.753076
563.165291	-2.991600	3.696100	-11.055000	24.317555	0.001089	20.752152
564.166536	-2.952200	3.698200	-10.916000	24.339070	0.001087	20.742914
565.169099	-3.017500	3.696200	-11.152000	24.318402	0.001090	20.745415
566.165784	-2.986200	3.695900	-11.035000	24.313945	0.001087	20.748057
567.167538	-2.988500	3.696700	-11.047000	24.308353	0.001089	20.765208
568.169866	-3.022100	3.695900	-11.168000	24.282926	0.001088	20.739701
569.165971	-3.008300	3.694900	-11.113000	24.302828	0.001086	20.720783
570.167348	-3.004000	3.694600	-11.097000	24.294393	0.001086	20.732711
571.168051	-3.008100	3.694000	-11.111000	24.281834	0.001088	20.734337
572.166310	-3.011300	3.693200	-11.120000	24.282454	0.001087	20.715043
573.166296	-3.015700	3.693700	-11.138000	24.298182	0.001086	20.723234
574.167371	-3.004300	3.694000	-11.097000	24.338702	0.001087	20.741123
575.166616	-3.003200	3.692700	-11.089000	24.359149	0.001086	20.752152
576.167249	-3.015700	3.692500	-11.134000	24.393040	0.001088	20.739209
577.169918	-3.004500	3.693900	-11.097000	24.393880	0.001088	20.736733
578.167618	-2.998700	3.692400	-11.072000	24.394059	0.001087	20.749715
579.170783	-3.009100	3.693300	-11.112000	24.369775	0.001086	20.739104
580.167816	-3.015500	3.690100	-11.127000	24.375202	0.001088	20.714200
581.171662	-2.997800	3.692600	-11.069000	24.376627	0.001088	20.741236
582.171125	-2.995400	3.690900	-11.055000	24.415229	0.001087	20.752461
583.172159	-2.999500	3.691200	-11.070000	24.446496	0.001085	20.731671
584.171266	-3.001700	3.691700	-11.081000	24.445730	0.001085	20.723789
585.172416	-2.982600	3.690500	-11.006000	24.480409	0.001085	20.738194
586.170549	-3.004500	3.688400	-11.080000	24.501816	0.001084	20.730273
587.171119	-2.980800	3.690000	-10.998000	24.520474	0.001087	20.746624
588.171759	-3.018500	3.688800	-11.132000	24.517614	0.001086	20.731900
589.172245	-3.003300	3.689400	-11.080000	24.530497	0.001085	20.732497
590.178421	-3.004700	3.688600	-11.082000	24.511366	0.001084	20.725156
591.172513	-3.019100	3.688500	-11.135000	24.526691	0.001087	20.724885
592.175939	-3.027300	3.686900	-11.160000	24.518031	0.001087	20.706237
593.172884	-3.009600	3.687100	-11.095000	24.511950	0.001084	20.713888
594.174170	-3.012300	3.687100	-11.106000	24.523716	0.001086	20.730435
595.173401	-3.005000	3.686800	-11.078000	24.539973	0.001084	20.728254
596.179216	-2.991500	3.688200	-11.033000	24.579375	0.001086	20.745029
597.172745	-3.002500	3.686400	-11.068000	24.568733	0.001085	20.738145
598.173130	-2.997200	3.684900	-11.043000	24.534407	0.001081	20.727885
599.176811	-2.973900	3.685900	-10.960000	24.517100	0.001085	20.726642
600.174737	-2.995100	3.685700	-11.038000	24.502124	0.001085	20.707822
601.175128	-2.996600	3.685000	-11.042000	24.489689	0.001084	20.727116
602.177306	-2.985100	3.686700	-11.004000	24.532026	0.001083	20.745886
603.173590	-3.001400	3.685100	-11.060000	24.508723	0.001083	20.728668
604.174473	-3.007900	3.683900	-11.080000	24.486259	0.001082	20.725096
605.178600	-3.002200	3.682900	-11.055000	24.457552	0.001082	20.710045
606.174666	-2.976400	3.683000	-10.961000	24.476414	0.001083	20.699097
607.174456	-2.990300	3.684200	-11.016000	24.512388	0.001084	20.749890
608.174622	-2.994400	3.682100	-11.024000	24.478011	0.001082	20.721088
609.174927	-3.005400	3.682700	-11.067000	24.463465	0.001081	20.719771
610.179385	-3.003300	3.681500	-11.055000	24.446990	0.001082	20.713199
611.178085	-2.992900	3.681600	-11.017000	24.434464	0.001083	20.722444
612.178968	-3.014600	3.681100	-11.096000	24.439110	0.001083	20.711457
613.179746	-2.992800	3.682000	-11.018000	24.458543	0.001081	20.723368
614.177666	-3.003300	3.680400	-11.052000	24.476355	0.001081	20.711840
615.183325	-2.990100	3.680500	-11.004000	24.496376	0.001083	20.738567
616.179634	-2.980500	3.679900	-10.968000	24.528299	0.001082	20.754948
617.178367	-2.995600	3.679900	-11.023000	24.549908	0.001083	20.720204
618.178095	-2.997300	3.679200	-11.027000	24.518245	0.001080	20.733006
619.180386	-3.003900	3.677800	-11.046000	24.536553	0.001083	20.714390
620.179073	-2.994200	3.679000	-11.015000	24.537628	0.001080	20.714995
621.179935	-2.987400	3.678600	-10.988000	24.581276	0.001080	20.706631
622.181428	-3.005800	3.678900	-11.058000	24.574268	0.001079	20.705764
623.180321	-2.995400	3.678400	-11.018000	24.586302	0.001081	20.722582
624.179865	-2.999800	3.678000	-11.032000	24.569217	0.001081	20.720137
625.181961	-2.994800	3.677000	-11.010000	24.567505	0.001079	20.723635
626.187218	-2.990100	3.677600	-10.995000	24.554133	0.001079	20.723021
627.181386	-3.007500	3.675800	-11.054000	24.549001	0.001078	20.709336
628.184154	-2.999300	3.676100	-11.025000	24.550818	0.001080	20.736291
629.182205	-3.015900	3.675100	-11.082000	24.591214	0.001081	20.699058
630.181305	-3.017300	3.675700	-11.090000	24.563535	0.001079	20.708746
631.185332	-2.984400	3.674500	-10.964000	24.551193	0.001080	20.702999
632.181662	-2.998100	3.675800	-11.018000	24.536403	0.001079	20.708549
633.181370	-3.003100	3.674100	-11.033000	24.540281	0.001079	20.713864
634.181409	-2.998500	3.674800	-11.018000	24.512602	0.001078	20.703635
635.181702	-3.007400	3.675100	-11.052000	24.461334	0.001076	20.737548
636.180230	-3.012100	3.672300	-11.060000	24.454692	0.001079	20.706228
637.182166	-2.995900	3.673800	-11.005000	24.463102	0.001077	20.716561
638.182179	-3.001400	3.671000	-11.017000	24.474469	0.001076	20.705680
639.182166	-2.995300	3.673400	-11.001000	24.503427	0.001077	20.711026
640.182524	-2.997000	3.673100	-11.007000	24.493919	0.001077	20.736575
641.186460	-2.975900	3.672800	-10.929000	24.478649	0.001078	20.703235
642.184433	-3.005700	3.672600	-11.037000	24.467982	0.001077	20.710552
643.184301	-3.001400	3.671400	-11.018000	24.451090	0.001077	20.690284
644.188173	-3.007900	3.669700	-11.037000	24.481540	0.001075	20.699024
645.184646	-3.006200	3.670100	-11.032000	24.486014	0.001076	20.709203
646.185644	-2.996300	3.669600	-10.994000	24.495914	0.001078	20.707756
647.188285	-2.993500	3.670500	-10.986000	24.529076	0.001075	20.697878
648.188333	-2.991300	3.669000	-10.974000	24.546415	0.001076	20.699628
649.187624	-3.009900	3.668900	-11.041000	24.575161	0.001076	20.684373
650.189497	-2.999300	3.670000	-11.005000	24.596531	0.001074	20.689694
651.189206	-2.992200	3.669400	-10.979000	24.581402	0.001075	20.694429
652.186559	-3.001800	3.669600	-11.014000	24.589597	0.001074	20.696962
653.189255	-3.007000	3.669000	-11.031000	24.632346	0.001074	20.707141
654.185536	-2.996600	3.668700	-10.992000	24.617502	0.001074	20.710738
655.187715	-2.991400	3.668900	-10.973000	24.633397	0.001075	20.709617
656.186190	-2.995200	3.666900	-10.982000	24.628199	0.001073	20.687330
657.185942	-2.998800	3.667700	-10.998000	24.654237	0.001073	20.698286
658.186522	-2.994800	3.666900	-10.980000	24.629795	0.001072	20.715013
659.187677	-2.991800	3.665000	-10.963000	24.613900	0.001073	20.681991
660.189313	-3.012800	3.665300	-11.041000	24.581178	0.001072	20.692782
661.187850	-2.995300	3.666000	-10.979000	24.564639	0.001073	20.705111
662.187721	-3.008300	3.667000	-11.031000	24.591974	0.001074	20.688441
663.188089	-3.000400	3.665300	-10.996000	24.587248	0.001073	20.692708
664.188557	-2.996500	3.664500	-10.979000	24.570537	0.001072	20.684475
665.189869	-3.003800	3.664300	-11.005000	24.547413	0.001072	20.694939
666.191547	-3.008100	3.663700	-11.020000	24.526969	0.001073	20.691023
667.190201	-3.011900	3.662500	-11.030000	24.513867	0.001072	20.683091
668.188971	-3.003700	3.663300	-11.002000	24.515155	0.001070	20.692445
669.190065	-3.010500	3.662300	-11.024000	24.530824	0.001070	20.681138
670.190558	-2.990100	3.662600	-10.950000	24.563113	0.001070	20.668963
671.191680	-2.989100	3.663400	-10.949000	24.574153	0.001071	20.690000
672.193125	-2.996600	3.662000	-10.973000	24.589762	0.001070	20.676737
673.193398	-2.996100	3.663600	-10.975000	24.608885	0.001070	20.681700
674.194602	-3.011200	3.662600	-11.028000	24.620999	0.001069	20.691486
675.193778	-3.012200	3.661600	-11.028000	24.594341	0.001069	20.679909
676.196694	-2.989600	3.661300	-10.944000	24.551491	0.001071	20.682909
677.199787	-2.984100	3.661300	-10.925000	24.554351	0.001068	20.690995
678.194142	-2.988700	3.661000	-10.940000	24.548712	0.001070	20.679172
679.194562	-3.037600	3.657800	-11.110000	24.525027	0.001068	20.688599
680.198005	-3.004700	3.660100	-10.995000	24.544427	0.001070	20.661594
681.194394	-3.003400	3.660100	-10.991000	24.556917	0.001069	20.669860
682.196405	-2.989000	3.658800	-10.936000	24.588807	0.001066	20.662975
683.195275	-3.011500	3.658200	-11.015000	24.604180	0.001068	20.669867
684.193559	-2.995100	3.659500	-10.959000	24.643352	0.001066	20.672189
685.194328	-3.015100	3.658400	-11.029000	24.641812	0.001067	20.673963
686.195209	-3.019700	3.656800	-11.041000	24.669471	0.001068	20.678958
687.197108	-3.024000	3.657900	-11.061000	24.678351	0.001065	20.668901
688.196426	-3.014900	3.657300	-11.026000	24.672558	0.001067	20.665933
689.198906	-3.003300	3.657000	-10.982000	24.691084	0.001067	20.678835
690.195879	-2.997300	3.655600	-10.955000	24.658904	0.001066	20.682105
691.195650	-3.009200	3.656400	-11.002000	24.619764	0.001065	20.675073
692.196062	-3.025600	3.656500	-11.061000	24.651620	0.001065	20.662940
693.197186	-3.007700	3.654400	-10.990000	24.646577	0.001065	20.683486
694.197084	-2.981500	3.657100	-10.902000	24.643937	0.001066	20.670405
695.197409	-3.001400	3.655000	-10.969000	24.624840	0.001065	20.679218
696.196151	-2.999400	3.654700	-10.960000	24.641932	0.001062	20.665547
697.196082	-2.991800	3.654000	-10.932000	24.633776	0.001065	20.659733
698.197782	-3.009200	3.654900	-10.997000	24.635439	0.001064	20.681318
699.196956	-2.973100	3.656800	-10.870000	24.623527	0.001063	20.657510
700.198051	-3.019300	3.652700	-11.028000	24.654470	0.001063	20.694252
701.198893	-3.005400	3.654200	-10.981000	24.677599	0.001065	20.670517
702.199046	-2.981800	3.654800	-10.896000	24.670242	0.001066	20.663134
703.198749	-3.000800	3.652200	-10.959000	24.656881	0.001063	20.679601
704.202822	-3.008600	3.652200	-10.986000	24.659815	0.001063	20.667844
705.202330	-2.989500	3.651700	-10.914000	24.641337	0.001062	20.681547
706.199007	-3.001700	3.652000	-10.960000	24.626167	0.001062	20.663004
707.201213	-2.998100	3.651700	-10.947000	24.589087	0.001062	20.688389
708.199857	-3.004200	3.651100	-10.968000	24.559764	0.001062	20.689787
709.200092	-3.017600	3.650700	-11.016000	24.550883	0.001060	20.665701
710.201054	-3.012900	3.650500	-10.997000	24.520344	0.001061	20.663510
711.201645	-3.004700	3.649700	-10.965000	24.557426	0.001061	20.658989
712.201813	-2.998000	3.651000	-10.945000	24.580466	0.001058	20.662193
713.202424	-3.021700	3.648500	-11.023000	24.609642	0.001059	20.688151
714.204363	-3.011900	3.649400	-10.991000	24.658884	0.001061	20.659323
715.203181	-2.982800	3.651700	-10.889000	24.675300	0.001060	20.678168
716.203191	-2.974900	3.650600	-10.859000	24.680368	0.001060	20.691790
717.204830	-2.992400	3.649000	-10.918000	24.742812	0.001058	20.674792
718.203525	-2.957400	3.649400	-10.791000	24.756612	0.001061	20.669200
719.203572	-2.982900	3.648000	-10.881000	24.770020	0.001059	20.651359
720.205407	-2.988300	3.649800	-10.906000	24.768228	0.001058	20.652406
721.205981	-3.032000	3.647100	-11.057000	24.795957	0.001058	20.667433
722.204722	-2.982000	3.647500	-10.875000	24.807891	0.001059	20.665660
723.205926	-3.009200	3.646700	-10.973000	24.852896	0.001058	20.677638
724.204602	-3.005600	3.646700	-10.958000	24.864529	0.001058	20.691210
725.208785	-2.991100	3.647000	-10.907000	24.895832	0.001059	20.675684
726.205914	-3.007200	3.646800	-10.965000	24.906851	0.001058	20.681055
727.205877	-3.014300	3.644600	-10.985000	24.929128	0.001057	20.686345
728.205682	-3.010400	3.646300	-10.976000	24.957032	0.001056	20.657450
729.206097	-3.016300	3.645600	-10.995000	24.962865	0.001056	20.672316
730.209509	-3.004600	3.643900	-10.948000	24.957301	0.001056	20.685699
731.207405	-3.004100	3.645300	-10.950000	24.939073	0.001058	20.680205
732.207504	-2.994500	3.643700	-10.910000	24.932680	0.001056	20.685168
733.214914	-3.011300	3.642400	-10.967000	24.931840	0.001055	20.683377
734.207374	-3.003700	3.643900	-10.944000	24.933258	0.001056	20.681954
735.213787	-2.999100	3.642900	-10.925000	24.925821	0.001056	20.657419
736.208707	-2.964000	3.644600	-10.801000	24.963393	0.001055	20.685176
737.212183	-2.994300	3.642200	-10.903000	24.952325	0.001055	20.684498
738.208975	-3.005600	3.642200	-10.946000	24.908619	0.001053	20.678087
739.210629	-2.999100	3.642500	-10.923000	24.876812	0.001054	20.679829
740.210541	-3.005200	3.641300	-10.942000	24.870181	0.001053	20.671750
741.211705	-2.991200	3.639800	-10.886000	24.836693	0.001052	20.685084
742.209459	-3.022500	3.640500	-11.003000	24.818513	0.001052	20.679640
743.210526	-3.008700	3.641400	-10.954000	24.839675	0.001053	20.676222
744.209881	-2.987400	3.642100	-10.879000	24.838552	0.001051	20.688846
745.210562	-3.005000	3.640300	-10.938000	24.886114	0.001052	20.686321
746.213513	-2.986800	3.639700	-10.871000	24.904692	0.001050	20.696433
747.210084	-2.999800	3.639300	-10.917000	24.917276	0.001052	20.692468
748.212753	-3.011300	3.639300	-10.957000	24.899632	0.001051	20.682819
749.210742	-3.003200	3.639600	-10.929000	24.932058	0.001051	20.659885
750.210856	-3.015000	3.637900	-10.967000	24.941474	0.001051	20.667441
751.210842	-2.993900	3.638700	-10.892000	24.948732	0.001051	20.669035
752.214699	-2.993600	3.638700	-10.891000	24.985879	0.001051	20.671234
753.211857	-3.017000	3.637000	-10.971000	24.992997	0.001050	20.681224
754.211190	-2.996200	3.638200	-10.901000	24.996181	0.001048	20.681576
755.212965	-3.011700	3.636700	-10.951000	25.028026	0.001049	20.691256
756.211380	-3.002300	3.637600	-10.920000	25.035958	0.001050	20.681200
757.218441	-3.007600	3.634700	-10.930000	25.018130	0.001048	20.675158
758.213182	-2.991100	3.636000	-10.874000	25.008991	0.001048	20.709135
759.216575	-3.002900	3.635600	-10.916000	25.004838	0.001049	20.699750
760.213180	-3.020800	3.634700	-10.979000	25.016997	0.001048	20.701524
761.212535	-3.008300	3.634900	-10.934000	25.008795	0.001048	20.677168
762.215198	-3.004200	3.633500	-10.913000	25.015783	0.001047	20.698882
763.216245	-3.006200	3.635700	-10.928000	25.053548	0.001046	20.678467
764.215898	-3.012800	3.634600	-10.950000	25.056658	0.001048	20.683961
765.215346	-2.995600	3.633400	-10.883000	25.070528	0.001047	20.710214
766.216606	-2.977100	3.634300	-10.818000	25.094022	0.001046	20.686381
767.215975	-3.006400	3.633700	-10.922000	25.113640	0.001046	20.697067
768.216383	-3.009400	3.632700	-10.931000	25.050574	0.001045	20.698243
769.216509	-3.003300	3.633400	-10.912000	25.050003	0.001045	20.701464
770.216074	-2.991400	3.632500	-10.865000	25.054360	0.001044	20.698251
771.217149	-2.984600	3.632600	-10.841000	25.044066	0.001045	20.695504
772.217763	-2.985100	3.632400	-10.841000	25.066022	0.001044	20.691464
773.222302	-3.002200	3.632900	-10.906000	25.080941	0.001047	20.678939
774.218771	-3.016700	3.631200	-10.953000	25.094387	0.001043	20.686273
775.218603	-3.000100	3.632600	-10.897000	25.116961	0.001044	20.699452
776.218184	-3.011400	3.630200	-10.931000	25.134535	0.001043	20.688170
777.219141	-3.001700	3.631100	-10.898000	25.143191	0.001043	20.692118
778.222431	-2.985400	3.631300	-10.840000	25.129444	0.001042	20.709614
779.219619	-2.989000	3.630900	-10.851000	25.136463	0.001042	20.708125
780.222641	-3.015900	3.629700	-10.946000	25.150828	0.001041	20.690776
781.219803	-2.994300	3.629900	-10.868000	25.113246	0.001042	20.682445
782.220487	-2.971900	3.629100	-10.785000	25.095216	0.001041	20.695167
783.222666	-3.008000	3.627900	-10.911000	25.062429	0.001040	20.708722
784.221547	-2.984400	3.630300	-10.833000	25.039210	0.001040	20.700587
785.219654	-2.990700	3.628300	-10.849000	25.060914	0.001040	20.702459
786.224516	-3.000400	3.627700	-10.884000	25.083562	0.001038	20.689157
787.221836	-2.977600	3.628300	-10.803000	25.100933	0.001040	20.716080
788.222456	-2.989100	3.628600	-10.845000	25.097617	0.001038	20.724131
789.225002	-2.990700	3.627000	-10.846000	25.107634	0.001040	20.718065
790.224895	-3.011400	3.625700	-10.916000	25.113106	0.001038	20.703169
791.225740	-3.012900	3.625700	-10.923000	25.123514	0.001037	20.708402
792.224247	-2.998100	3.626400	-10.871000	25.138188	0.001037	20.684724
793.224684	-3.006500	3.625300	-10.897000	25.116087	0.001037	20.697152
794.228064	-2.996300	3.625600	-10.862000	25.141445	0.001036	20.698901
795.225693	-2.996700	3.626000	-10.865000	25.136341	0.001038	20.724598
796.229206	-3.000700	3.624600	-10.875000	25.133391	0.001036	20.702670
797.226705	-3.000700	3.624600	-10.875000	25.096021	0.001035	20.721107
798.227197	-2.984900	3.625200	-10.820000	25.084993	0.001035	20.709088
799.227821	-3.032600	3.623200	-10.986000	25.090906	0.001035	20.700798
800.228857	-2.983900	3.625900	-10.818000	25.097477	0.001036	20.722569
801.244574	-2.988000	3.624900	-10.829000	25.130736	0.001034	20.693366
802.226574	-2.983000	3.624100	-10.810000	25.101231	0.001033	20.722544
803.227575	-2.980500	3.624400	-10.802000	25.137349	0.001034	20.705220
804.228875	-3.010700	3.622500	-10.904000	25.141754	0.001034	20.713910
805.230968	-2.982900	3.622900	-10.806000	25.146337	0.001034	20.721357
806.229988	-3.001500	3.623300	-10.874000	25.147876	0.001035	20.721006
807.230887	-3.000300	3.621900	-10.866000	25.147502	0.001033	20.686488
808.228975	-2.998100	3.621300	-10.855000	25.129855	0.001031	20.720458
809.231413	-2.994500	3.621700	-10.843000	25.095928	0.001032	20.694933
810.234464	-2.997900	3.620600	-10.852000	25.095602	0.001031	20.715470
811.231333	-2.976300	3.621200	-10.776000	25.037609	0.001030	20.716524
812.232904	-2.997700	3.620600	-10.853000	25.041356	0.001031	20.716018
813.233042	-3.006500	3.619400	-10.881000	25.059753	0.001029	20.715045
814.232478	-2.999900	3.620100	-10.858000	25.089144	0.001030	20.728428
815.232354	-2.979200	3.620100	-10.784000	25.101442	0.001029	20.718962
816.233407	-2.991500	3.618300	-10.823000	25.137199	0.001029	20.720244
817.232252	-2.985900	3.619700	-10.806000	25.151075	0.001031	20.702404
818.232696	-2.995900	3.618600	-10.840000	25.131335	0.001029	20.707719
819.232913	-2.980300	3.619300	-10.785000	25.134078	0.001028	20.728018
820.233027	-3.004500	3.617900	-10.869000	25.171856	0.001029	20.720423
821.235461	-3.010100	3.616700	-10.885000	25.180536	0.001027	20.726767
822.232513	-3.005000	3.615900	-10.865000	25.218841	0.001027	20.730136
823.233641	-3.003000	3.616800	-10.860000	25.241258	0.001027	20.731305
824.234212	-2.988200	3.616900	-10.808000	25.227447	0.001028	20.708429
825.234232	-3.011900	3.614600	-10.885000	25.237081	0.001026	20.735646
826.236948	-3.010700	3.615700	-10.885000	25.255685	0.001025	20.726824
827.235371	-3.024400	3.614400	-10.930000	25.264756	0.001025	20.724551
828.237128	-2.993900	3.615800	-10.824000	25.279389	0.001025	20.733079
829.235381	-3.004600	3.614700	-10.860000	25.266964	0.001025	20.756640
830.235770	-2.981800	3.616100	-10.780000	25.224068	0.001023	20.721632
831.236964	-3.001000	3.614700	-10.847000	25.213751	0.001025	20.733086
832.240482	-2.988800	3.613500	-10.798000	25.174966	0.001024	20.753893
833.238687	-2.999000	3.613600	-10.836000	25.161067	0.001022	20.743258
834.244504	-3.009400	3.612700	-10.871000	25.152572	0.001023	20.749429
835.238424	-3.008100	3.612300	-10.865000	25.135422	0.001022	20.743592
836.239059	-2.983200	3.614500	-10.781000	25.135796	0.001022	20.729742
837.242054	-3.007200	3.612300	-10.862000	25.150340	0.001023	20.732015
838.241075	-3.006400	3.612400	-10.858000	25.167938	0.001022	20.738776
839.239976	-3.000000	3.612300	-10.836000	25.181219	0.001021	20.731246
840.240765	-3.024900	3.611400	-10.923000	25.225883	0.001020	20.741474
841.242240	-3.017100	3.610900	-10.894000	25.255661	0.001020	20.739602
842.242302	-3.009300	3.611000	-10.866000	25.281936	0.001020	20.754603
843.244401	-3.013700	3.609800	-10.878000	25.309456	0.001019	20.733396
844.243261	-2.986900	3.611400	-10.785000	25.329210	0.001020	20.759868
845.242647	-3.013200	3.610000	-10.874000	25.307795	0.001019	20.748798
846.242414	-2.999500	3.610400	-10.829000	25.315074	0.001020	20.748994
847.243746	-2.977000	3.611000	-10.748000	25.327353	0.001018	20.752313
848.248512	-3.001300	3.608100	-10.827000	25.287978	0.001017	20.742651
849.244811	-3.010100	3.608700	-10.860000	25.282465	0.001017	20.735219
850.245414	-2.981800	3.609300	-10.761000	25.326261	0.001016	20.750269
851.247126	-3.017300	3.607700	-10.884000	25.317908	0.001016	20.744727
852.250381	-2.984100	3.608900	-10.768000	25.336773	0.001016	20.743280
853.250873	-3.000100	3.607100	-10.821000	25.347162	0.001016	20.732374
854.247573	-3.003200	3.606200	-10.828000	25.367492	0.001016	20.755633
855.246790	-3.008300	3.607300	-10.850000	25.363526	0.001016	20.746434
856.247788	-3.001100	3.607300	-10.824000	25.321759	0.001015	20.746223
857.249035	-3.015400	3.606500	-10.874000	25.300655	0.001014	20.749690
858.251700	-2.984000	3.607100	-10.763000	25.272799	0.001017	20.756809
859.249830	-3.015100	3.604600	-10.866000	25.285827	0.001014	20.752345
860.251856	-2.987200	3.606300	-10.772000	25.300655	0.001013	20.734042
861.250422	-2.995900	3.606100	-10.801000	25.308218	0.001015	20.751119
862.250758	-2.989300	3.605000	-10.775000	25.300963	0.001013	20.757586
863.251351	-3.017400	3.603800	-10.872000	25.323176	0.001013	20.754758
864.251079	-3.009700	3.603900	-10.845000	25.313609	0.001013	20.757480
865.251317	-3.006200	3.604300	-10.834000	25.308715	0.001011	20.763947
866.252890	-3.009500	3.604100	-10.845000	25.305825	0.001010	20.757252
867.250988	-2.986000	3.604000	-10.761000	25.295289	0.001011	20.749518
868.253054	-3.010900	3.603400	-10.848000	25.327671	0.001010	20.737459
869.257399	-2.985000	3.604000	-10.758000	25.325310	0.001009	20.749788
870.254737	-3.026300	3.602700	-10.901000	25.351250	0.001010	20.756394
871.254777	-3.015500	3.601200	-10.857000	25.368828	0.001009	20.772147
872.254209	-3.009900	3.601900	-10.840000	25.383410	0.001010	20.769720
873.253858	-3.001200	3.603800	-10.815000	25.390266	0.001008	20.744835
874.264212	-3.024900	3.599200	-10.886000	25.369625	0.001007	20.762991
875.254530	-3.018000	3.601600	-10.869000	25.373567	0.001007	20.781648
876.258182	-2.986600	3.601900	-10.756000	25.345846	0.001008	20.770882
877.256008	-3.026300	3.600000	-10.893000	25.320100	0.001005	20.764473
878.257660	-3.009500	3.600200	-10.832000	25.314157	0.001006	20.751867
879.258315	-2.998400	3.599800	-10.791000	25.338420	0.001005	20.765323
880.258766	-2.989600	3.599000	-10.758000	25.327502	0.001006	20.779965
881.257889	-3.005900	3.600300	-10.821000	25.367194	0.001004	20.768136
882.257520	-3.029800	3.598700	-10.901000	25.379195	0.001004	20.778290
883.256993	-3.016200	3.597000	-10.848000	25.362863	0.001006	20.772322
884.258376	-3.011400	3.599300	-10.836000	25.359190	0.001004	20.779540
885.259963	-2.999400	3.597900	-10.791000	25.333658	0.001004	20.780457
886.259103	-2.974200	3.599000	-10.702000	25.319768	0.001004	20.776941
887.259692	-2.997200	3.598400	-10.783000	25.308052	0.001001	20.792205
888.260278	-3.022600	3.596700	-10.871000	25.279595	0.001001	20.795401
889.259825	-3.023700	3.596600	-10.874000	25.272585	0.001001	20.775086
890.265316	-3.019500	3.597500	-10.862000	25.283243	0.001000	20.769667
891.259734	-2.982300	3.597000	-10.727000	25.252798	0.001000	20.805007
892.261564	-3.000400	3.595800	-10.787000	25.241863	0.001001	20.789286
893.260711	-3.005000	3.596300	-10.805000	25.233288	0.001000	20.775462
894.259761	-3.022100	3.593200	-10.858000	25.260208	0.000998	20.782100
895.259739	-2.998400	3.594800	-10.778000	25.282404	0.000999	20.775936
896.263002	-3.025800	3.594300	-10.874000	25.322521	0.000997	20.791085
897.260478	-3.019700	3.595400	-10.855000	25.375459	0.000995	20.790186
898.260551	-2.989500	3.595100	-10.745000	25.412511	0.000996	20.787088
899.262660	-3.018200	3.592600	-10.842000	25.429363	0.000996	20.785044
900.262305	-2.992800	3.593300	-10.753000	25.398198	0.000994	20.792156
901.264992	-3.004800	3.593400	-10.796000	25.389146	0.000995	20.796817
902.261792	-3.009100	3.592100	-10.807000	25.378813	0.000994	20.797821
903.268344	-2.994700	3.592600	-10.758000	25.363751	0.000995	20.771318
904.264451	-2.989000	3.592100	-10.736000	25.366658	0.000995	20.793677
905.264504	-2.998200	3.590400	-10.764000	25.354380	0.000994	20.781823
906.265565	-2.986700	3.592500	-10.729000	25.344659	0.000995	20.793873
907.263879	-2.996900	3.591100	-10.761000	25.340262	0.000994	20.787562
908.266412	-3.007000	3.590600	-10.796000	25.313475	0.000993	20.803813
909.266553	-3.008900	3.590500	-10.802000	25.287550	0.000993	20.799121
910.267155	-3.027400	3.588800	-10.864000	25.299527	0.000991	20.802612
911.267774	-3.013700	3.588900	-10.815000	25.270444	0.000991	20.812291
912.269209	-3.031100	3.589200	-10.877000	25.300993	0.000990	20.814041
913.267460	-3.018800	3.588200	-10.831000	25.304502	0.000988	20.802391
914.267258	-3.004000	3.589600	-10.782000	25.283226	0.000990	20.809478
915.267456	-2.998200	3.589200	-10.760000	25.303900	0.000990	20.784243
916.268076	-3.006200	3.586300	-10.780000	25.294357	0.000991	20.808326
917.271406	-2.979700	3.589500	-10.692000	25.270517	0.000988	20.813314
918.268724	-3.006100	3.586900	-10.782000	25.259190	0.000988	20.808105
919.270741	-3.010400	3.586100	-10.793000	25.274970	0.000986	20.806405
920.269459	-3.005300	3.586200	-10.776000	25.295627	0.000987	20.805334
921.268651	-3.002700	3.585600	-10.766000	25.281760	0.000987	20.797576
922.271185	-3.014100	3.585100	-10.805000	25.325998	0.000988	20.828240
923.273432	-3.019400	3.584100	-10.821000	25.328278	0.000986	20.819625
924.271043	-3.027300	3.584500	-10.849000	25.351970	0.000986	20.803111
925.270598	-3.039800	3.584000	-10.893000	25.352296	0.000986	20.818136
926.270373	-3.028300	3.583500	-10.851000	25.369467	0.000986	20.818308
927.270085	-3.035500	3.583800	-10.877000	25.373073	0.000986	20.814817
928.274040	-3.024900	3.585200	-10.844000	25.410892	0.000986	20.812488
929.270052	-2.993800	3.584400	-10.729000	25.412683	0.000984	20.814286
930.277329	-3.009400	3.583900	-10.783000	25.450108	0.000984	20.815358
931.273110	-2.994100	3.584600	-10.730000	25.464794	0.000984	20.819200
932.273872	-2.989800	3.584300	-10.715000	25.508884	0.000982	20.805629
933.277540	-3.010100	3.582900	-10.784000	25.506670	0.000981	20.816208
934.275443	-3.002600	3.581300	-10.752000	25.498399	0.000982	20.821652
935.275851	-2.981400	3.582400	-10.679000	25.505523	0.000981	20.805572
936.275587	-3.007900	3.582200	-10.774000	25.537514	0.000979	20.819681
937.274310	-2.990200	3.582200	-10.709000	25.489022	0.000980	20.802752
938.274642	-3.005200	3.579200	-10.755000	25.468352	0.000978	20.800013
939.274762	-2.997100	3.580700	-10.730000	25.447551	0.000979	20.815635
940.278173	-2.997500	3.580300	-10.731000	25.451052	0.000978	20.809194
941.275367	-2.993200	3.580800	-10.717000	25.471209	0.000979	20.812839
942.274465	-2.985800	3.580000	-10.688000	25.518751	0.000977	20.795148
943.279064	-2.991800	3.579300	-10.708000	25.508283	0.000976	20.797912
944.277911	-2.997300	3.580400	-10.731000	25.510252	0.000977	20.807476
945.274856	-2.982300	3.580200	-10.675000	25.536448	0.000975	20.806756
946.274118	-2.986700	3.579200	-10.689000	25.541715	0.000975	20.790235
947.275787	-2.996700	3.579700	-10.727000	25.509136	0.000976	20.803985
948.274958	-2.976100	3.578700	-10.649000	25.471485	0.000976	20.791306
949.278735	-2.995500	3.577900	-10.716000	25.417184	0.000974	20.821177
950.275788	-2.991400	3.577300	-10.700000	25.398206	0.000975	20.793586
951.281388	-3.012600	3.576800	-10.775000	25.395341	0.000971	20.812520
952.274800	-2.999400	3.576800	-10.728000	25.429720	0.000972	20.792989
953.275367	-3.002200	3.577200	-10.738000	25.454812	0.000972	20.786891
954.276073	-2.989000	3.576100	-10.688000	25.453151	0.000972	20.785223
955.276709	-2.974600	3.576300	-10.637000	25.474308	0.000970	20.794615
956.276261	-3.017700	3.574100	-10.785000	25.509249	0.000971	20.771381
957.276144	-2.993500	3.575300	-10.701000	25.529950	0.000970	20.787429
958.283288	-2.987900	3.574600	-10.680000	25.543317	0.000970	20.793266
959.278748	-2.982200	3.576000	-10.663000	25.561461	0.000968	20.776400
960.280566	-2.989200	3.573800	-10.682000	25.599906	0.000968	20.792251
961.279391	-2.986900	3.574700	-10.677000	25.600182	0.000969	20.771192
962.279818	-2.994700	3.573600	-10.701000	25.628184	0.000967	20.777503
963.277675	-3.021600	3.573000	-10.795000	25.618343	0.000969	20.769042
964.279150	-2.993900	3.572900	-10.694000	25.667840	0.000966	20.764701
965.283633	-3.020600	3.572300	-10.788000	25.653684	0.000965	20.775614
966.278835	-2.970000	3.573700	-10.612000	25.653009	0.000965	20.780152
967.280917	-3.005500	3.572100	-10.735000	25.596241	0.000965	20.769131
968.279843	-3.026000	3.570900	-10.803000	25.656419	0.000966	20.766507
969.279056	-3.018000	3.571200	-10.776000	25.629013	0.000964	20.788294
970.281975	-3.013600	3.569900	-10.757000	25.653391	0.000963	20.792389
971.281875	-3.000800	3.569400	-10.710000	25.657199	0.000963	20.792421
972.280683	-3.011900	3.568700	-10.748000	25.650908	0.000962	20.767610
973.281600	-2.984600	3.570300	-10.655000	25.667862	0.000962	20.770413
974.281711	-2.990400	3.570200	-10.675000	25.657451	0.000961	20.774656
975.281712	-3.013200	3.568900	-10.753000	25.672754	0.000960	20.794293
976.284993	-2.985800	3.570100	-10.659000	25.669065	0.000959	20.751232
977.288898	-3.007100	3.569200	-10.732000	25.683545	0.000959	20.774312
978.292009	-2.994300	3.567700	-10.682000	25.711772	0.000959	20.792706
979.283083	-3.008000	3.567500	-10.730000	25.705757	0.000959	20.759163
980.283144	-3.003600	3.567900	-10.716000	25.713310	0.000958	20.763431
981.283261	-3.001400	3.567900	-10.708000	25.740176	0.000957	20.762914
982.287832	-3.006100	3.566300	-10.718000	25.704764	0.000957	20.777132
983.285265	-3.006500	3.567000	-10.724000	25.715230	0.000959	20.760143
984.283638	-3.008000	3.565900	-10.726000	25.690039	0.000958	20.769455
985.285027	-3.011600	3.566200	-10.740000	25.663148	0.000957	20.763308
986.286551	-2.984600	3.566300	-10.643000	25.685262	0.000956	20.756596
987.289315	-2.978000	3.565200	-10.617000	25.678335	0.000956	20.757224
988.287146	-3.001500	3.564800	-10.698000	25.686011	0.000953	20.767779
989.286242	-2.990200	3.565600	-10.661000	25.686808	0.000956	20.766209
990.287991	-2.987300	3.564300	-10.647000	25.692725	0.000955	20.756030
991.286621	-3.021900	3.562300	-10.764000	25.708947	0.000953	20.769479
992.291470	-2.988400	3.562800	-10.646000	25.718413	0.000954	20.772823
993.286450	-2.996900	3.564800	-10.682000	25.714318	0.000953	20.771555
994.286899	-3.008800	3.562800	-10.718000	25.769972	0.000951	20.769609
995.287856	-3.019500	3.563000	-10.757000	25.765870	0.000952	20.754583
996.288370	-2.989600	3.563300	-10.651000	25.715514	0.000950	20.774653
997.288795	-3.008100	3.561500	-10.711000	25.721829	0.000951	20.760607
998.292676	-3.001300	3.561600	-10.689000	25.718819	0.000950	20.748574
999.289230	-2.986500	3.563000	-10.639000	25.714905	0.000948	20.769300
1000.288543	-2.983700	3.562700	-10.630000	25.705926	0.000950	20.745581
1001.292165	-3.022200	3.560300	-10.759000	25.667932	0.000948	20.753888
1002.290802	-2.984800	3.560300	-10.626000	25.672237	0.000946	20.766747
1003.293021	-3.000400	3.560200	-10.681000	25.668534	0.000947	20.732680
1004.293299	-3.000700	3.560200	-10.681000	25.649748	0.000946	20.729459
1005.297490	-2.997300	3.560400	-10.671000	25.678553	0.000946	20.742269
1006.294480	-3.002300	3.559200	-10.685000	25.667296	0.000945	20.748982
1007.293561	-2.996600	3.559700	-10.666000	25.670926	0.000945	20.764008
1008.297699	-3.001600	3.559800	-10.683000	25.717637	0.000945	20.734110
1009.295432	-2.995400	3.559500	-10.661000	25.726012	0.000944	20.753428
1010.297451	-2.990700	3.558200	-10.640000	25.719533	0.000943	20.738859
1011.295948	-2.994700	3.559700	-10.659000	25.740947	0.000943	20.762740
1012.295156	-3.004900	3.556900	-10.687000	25.778539	0.000943	20.733643
1013.297236	-3.023100	3.557200	-10.752000	25.813477	0.000943	20.751195
1014.300471	-2.994100	3.558200	-10.653000	25.828280	0.000942	20.738090
1015.296187	-3.004100	3.556500	-10.682000	25.842693	0.000940	20.768216
1016.296256	-3.022200	3.555200	-10.743000	25.837875	0.000940	20.736348
1017.296227	-3.010700	3.554000	-10.697000	25.857308	0.000939	20.727894
1018.296514	-2.996200	3.555700	-10.653000	25.870695	0.000940	20.736127
1019.298367	-3.013300	3.554300	-10.709000	25.843204	0.000938	20.735063
1020.296536	-3.008400	3.553600	-10.690000	25.800397	0.000939	20.731891
1021.297501	-2.998600	3.555900	-10.661000	25.774134	0.000937	20.735857
1022.296820	-2.981100	3.555000	-10.596000	25.719244	0.000938	20.727663
1023.296882	-2.953200	3.555200	-10.498000	25.702298	0.000936	20.716332
1024.297325	-3.003600	3.551200	-10.665000	25.695259	0.000937	20.734867
1025.296634	-2.993700	3.552100	-10.633000	25.679264	0.000936	20.738717
1026.298974	-3.004300	3.551800	-10.670000	25.682048	0.000936	20.737245
1027.298464	-3.017300	3.552500	-10.717000	25.675862	0.000935	20.722022
1028.300952	-3.016800	3.551800	-10.714000	25.637500	0.000936	20.735650
1029.299949	-3.030100	3.549800	-10.755000	25.622271	0.000933	20.726518
1030.300748	-3.010600	3.552500	-10.693000	25.598168	0.000934	20.735977
1031.300719	-3.023600	3.550400	-10.735000	25.598420	0.000931	20.720108
1032.300673	-2.987400	3.551200	-10.607000	25.602068	0.000932	20.721400
1033.301043	-3.021300	3.549500	-10.724000	25.605681	0.000931	20.741151
1034.302587	-2.983800	3.550400	-10.593000	25.585274	0.000931	20.732036
1035.303671	-3.000600	3.550400	-10.653000	25.553421	0.000928	20.728970
1036.302842	-3.015500	3.550500	-10.705000	25.563385	0.000931	20.718587
1037.303623	-2.999700	3.548800	-10.644000	25.581529	0.000930	20.728749
1038.303782	-3.002500	3.547800	-10.651000	25.636018	0.000930	20.725152
1039.304341	-2.997100	3.548900	-10.635000	25.666305	0.000927	20.735183
1040.307025	-2.988400	3.548100	-10.602000	25.713139	0.000928	20.722479
1041.307374	-2.979000	3.547700	-10.567000	25.709135	0.000927	20.734579
1042.305840	-3.001200	3.546300	-10.642000	25.693231	0.000927	20.722398
1043.305532	-2.995800	3.546500	-10.623000	25.678530	0.000925	20.723754
1044.306181	-2.987900	3.546800	-10.597000	25.681485	0.000926	20.715342
1045.310365	-2.997000	3.547400	-10.630000	25.669651	0.000928	20.718629
1046.309722	-2.976900	3.546300	-10.555000	25.663490	0.000924	20.731407
1047.308030	-2.970600	3.545900	-10.532000	25.655464	0.000922	20.731881
1048.311872	-2.995600	3.545300	-10.619000	25.686150	0.000923	20.726665
1049.307982	-3.005200	3.543600	-10.647000	25.705236	0.000923	20.710273
1050.307881	-3.025200	3.543400	-10.718000	25.686849	0.000923	20.723100
1051.313457	-3.015300	3.544000	-10.685000	25.707100	0.000922	20.724474
1052.308481	-2.993800	3.545000	-10.611000	25.679240	0.000920	20.710241
1053.309385	-2.986900	3.543700	-10.584000	25.648505	0.000921	20.716830
1054.309642	-2.988000	3.544700	-10.590000	25.617559	0.000920	20.737908
1055.310584	-2.995200	3.542100	-10.608000	25.607254	0.000920	20.719970
1056.310017	-2.994400	3.541700	-10.604000	25.622410	0.000920	20.729503
1057.312866	-2.975400	3.543200	-10.541000	25.656083	0.000919	20.725390
1058.310407	-2.997800	3.542800	-10.620000	25.671630	0.000917	20.731049
1059.310830	-3.005400	3.541500	-10.643000	25.709281	0.000917	20.702956
1060.309049	-3.022800	3.541100	-10.703000	25.705652	0.000917	20.723019
1061.310472	-3.004800	3.540500	-10.638000	25.736010	0.000916	20.712261
1062.314186	-2.999300	3.540700	-10.618000	25.762739	0.000916	20.715401
1063.314094	-3.026600	3.540800	-10.714000	25.788351	0.000916	20.720265
1064.310961	-2.997300	3.540300	-10.610000	25.781872	0.000916	20.718499
1065.311637	-3.013000	3.539000	-10.661000	25.745819	0.000912	20.709784
1066.312312	-3.000200	3.539900	-10.620000	25.753599	0.000912	20.718074
1067.312080	-3.010700	3.538300	-10.651000	25.739462	0.000912	20.689173
1068.321778	-3.004400	3.538600	-10.631000	25.729118	0.000911	20.696802
1069.311704	-2.981300	3.539300	-10.551000	25.718544	0.000912	20.717477
1070.312723	-3.016600	3.538000	-10.670000	25.716355	0.000911	20.725236
1071.311718	-2.995500	3.539100	-10.600000	25.728083	0.000910	20.690546
1072.315064	-2.989700	3.537100	-10.574000	25.743214	0.000909	20.700054
1073.317112	-3.018600	3.536400	-10.673000	25.787309	0.000909	20.713528
1074.313322	-3.013300	3.536100	-10.654000	25.820921	0.000909	20.730223
1075.313283	-3.019200	3.534200	-10.669000	25.817421	0.000909	20.725285
1076.314096	-2.985900	3.537100	-10.560000	25.795082	0.000907	20.692885
1077.315059	-3.015900	3.535500	-10.661000	25.803383	0.000908	20.705492
1078.319355	-3.000000	3.534400	-10.603000	25.848924	0.000908	20.707143
1079.316863	-2.997800	3.534700	-10.595000	25.817698	0.000907	20.714656
1080.319876	-2.997800	3.533700	-10.592000	25.772229	0.000906	20.723037
1081.315861	-3.029200	3.532800	-10.699000	25.755675	0.000905	20.712098
1082.315593	-3.019600	3.534400	-10.672000	25.709372	0.000906	20.697831
1083.319414	-2.983900	3.535400	-10.547000	25.681862	0.000905	20.685846
1084.315912	-3.005400	3.532100	-10.614000	25.709218	0.000903	20.719489
1085.316422	-2.988700	3.532500	-10.556000	25.705710	0.000903	20.724975
1086.315861	-3.000600	3.532700	-10.599000	25.711889	0.000902	20.683288
1087.316469	-3.001600	3.530700	-10.597000	25.686502	0.000903	20.700939
1088.316961	-2.973500	3.532100	-10.501000	25.680064	0.000902	20.693050
1089.319770	-2.996200	3.531200	-10.579000	25.670899	0.000901	20.702811
1090.320982	-2.969600	3.532400	-10.489000	25.644658	0.000899	20.700637
1091.317873	-2.992300	3.530300	-10.563000	25.675987	0.000902	20.715035
1092.317568	-2.983400	3.530600	-10.531000	25.671958	0.000899	20.695814
1093.318761	-2.998500	3.530300	-10.585000	25.666146	0.000898	20.693770
1094.320565	-3.015400	3.527700	-10.636000	25.712581	0.000897	20.715280
1095.317394	-2.999600	3.529400	-10.586000	25.710693	0.000896	20.684458
1096.320086	-3.015400	3.526900	-10.633000	25.753675	0.000898	20.732375
1097.319001	-2.996600	3.527700	-10.570000	25.769032	0.000896	20.690900
1098.320096	-3.005500	3.527700	-10.602000	25.800448	0.000898	20.723408
1099.319803	-2.980500	3.528900	-10.516000	25.778148	0.000897	20.696264
1100.320811	-2.987800	3.527200	-10.538000	25.813022	0.000895	20.704268
1101.320769	-2.985600	3.527900	-10.533000	25.776976	0.000893	20.703622
1102.320117	-2.992600	3.526500	-10.552000	25.793001	0.000893	20.686052
1103.319622	-2.993600	3.527300	-10.558000	25.826441	0.000891	20.700205
1104.320962	-2.990000	3.526400	-10.542000	25.837168	0.000892	20.687745
1105.322649	-2.986700	3.526000	-10.530000	25.852255	0.000892	20.707644
1106.322128	-2.993300	3.526900	-10.555000	25.866310	0.000890	20.695684
1107.322165	-3.034200	3.522600	-10.687000	25.868125	0.000890	20.688023
1108.322605	-2.992300	3.524900	-10.546000	25.843231	0.000889	20.688146
1109.321521	-2.989400	3.523700	-10.532000	25.837241	0.000892	20.703467
1110.324883	-3.004600	3.522400	-10.583000	25.843133	0.000889	20.708912
1111.329754	-2.981000	3.523400	-10.501000	25.820672	0.000890	20.687296
1112.326077	-2.991600	3.522100	-10.535000	25.824245	0.000888	20.681401
1113.323018	-3.001700	3.523500	-10.576000	25.836102	0.000888	20.694735
1114.322842	-2.998100	3.521200	-10.555000	25.866701	0.000888	20.683274
1115.322616	-3.007700	3.521400	-10.589000	25.874603	0.000886	20.678409
1116.326648	-2.989200	3.523000	-10.530000	25.823577	0.000885	20.691637
1117.324749	-3.007400	3.520100	-10.586000	25.818011	0.000886	20.695529
1118.322744	-3.005800	3.521000	-10.583000	25.810508	0.000885	20.680878
1119.323338	-3.007800	3.519200	-10.584000	25.789389	0.000885	20.687640
1120.322861	-3.013000	3.519700	-10.604000	25.813616	0.000884	20.708659
1121.327110	-3.005400	3.519100	-10.575000	25.814536	0.000884	20.676389
1122.326047	-2.997200	3.518500	-10.543000	25.822829	0.000883	20.704163
1123.328517	-2.978900	3.518600	-10.480000	25.848416	0.000884	20.680551
1124.325494	-2.999000	3.517100	-10.548000	25.871495	0.000881	20.692357
1125.325885	-2.990100	3.519700	-10.523000	25.863226	0.000880	20.686421
1126.326849	-2.980300	3.519400	-10.488000	25.873407	0.000881	20.677207
1127.325967	-2.961400	3.517800	-10.415000	25.895843	0.000880	20.678409
1128.328658	-2.992800	3.517000	-10.525000	25.881081	0.000878	20.676382
1129.324904	-2.996500	3.517500	-10.539000	25.890920	0.000879	20.677731
1130.323885	-3.012300	3.515700	-10.589000	25.917896	0.000880	20.691556
1131.326197	-3.020800	3.514900	-10.617000	25.889871	0.000878	20.677151
1132.329373	-2.998100	3.515000	-10.537000	25.927280	0.000878	20.692922
1133.326009	-3.004700	3.515800	-10.563000	25.898024	0.000876	20.681075
1134.327851	-3.000200	3.515200	-10.546000	25.914935	0.000876	20.668664
1135.327186	-2.971500	3.515200	-10.444000	25.942806	0.000876	20.672957
1136.327302	-2.998400	3.514500	-10.536000	25.926262	0.000876	20.679571
1137.329777	-3.011800	3.512800	-10.578000	25.929070	0.000873	20.672908
1138.327067	-3.009000	3.512100	-10.567000	25.953703	0.000874	20.688173
1139.329802	-2.995900	3.512000	-10.521000	25.939575	0.000874	20.667340
1140.327130	-3.009200	3.511600	-10.567000	25.949609	0.000872	20.681215
1141.327498	-2.999000	3.512900	-10.534000	25.959342	0.000872	20.683406
1142.327771	-2.989500	3.512100	-10.498000	25.976154	0.000871	20.659517
1143.331199	-2.986400	3.511400	-10.486000	25.976528	0.000871	20.671274
1144.326336	-3.023400	3.510600	-10.613000	25.952416	0.000871	20.692571
1145.327170	-3.010700	3.510600	-10.568000	25.907393	0.000870	20.689539
1146.329453	-2.983200	3.509600	-10.469000	25.889937	0.000869	20.671053
1147.329090	-3.005600	3.509600	-10.547000	25.864596	0.000868	20.679736
1148.330274	-3.005000	3.507800	-10.540000	25.835307	0.000868	20.680660
1149.328591	-2.982700	3.509300	-10.466000	25.777419	0.000869	20.686522
1150.333612	-2.974400	3.509000	-10.435000	25.761020	0.000867	20.665306
1151.327881	-3.008500	3.507800	-10.553000	25.739435	0.000865	20.660694
1152.328906	-3.000400	3.507600	-10.523000	25.758024	0.000866	20.685057
1153.329576	-3.006600	3.506200	-10.540000	25.773577	0.000864	20.683136
1154.333372	-3.019200	3.505600	-10.583000	25.803087	0.000866	20.663465
1155.335072	-3.007400	3.506300	-10.543000	25.818339	0.000864	20.667881
1156.332768	-2.994900	3.505500	-10.497000	25.859803	0.000864	20.698156
1157.332103	-3.020900	3.504900	-10.586000	25.860341	0.000862	20.680203
1158.333017	-3.030400	3.503900	-10.616000	25.862334	0.000864	20.688370
1159.336008	-3.018100	3.503500	-10.573000	25.878308	0.000861	20.684502
1160.333441	-2.977000	3.505900	-10.436000	25.908662	0.000861	20.687969
1161.336718	-2.981300	3.504600	-10.447000	25.932489	0.000861	20.671126
1162.333466	-2.981200	3.504600	-10.447000	25.981394	0.000862	20.672844
1163.334244	-3.010100	3.503900	-10.546000	25.958862	0.000862	20.673441
1164.333553	-3.016200	3.502500	-10.563000	25.971011	0.000858	20.681379
1165.334291	-2.999300	3.502200	-10.502000	25.935338	0.000859	20.665927
1166.334462	-2.980300	3.503900	-10.442000	25.950147	0.000860	20.671797
1167.333737	-2.995000	3.503200	-10.491000	25.939089	0.000858	20.674438
1168.338939	-3.004200	3.501600	-10.517000	25.909176	0.000858	20.666672
1169.334769	-2.972900	3.502300	-10.411000	25.859470	0.000856	20.657040
1170.335720	-2.985000	3.502200	-10.453000	25.861652	0.000857	20.666345
1171.334149	-3.012700	3.499600	-10.542000	25.874378	0.000857	20.680554
1172.334668	-2.999600	3.498300	-10.493000	25.880140	0.000854	20.672117
1173.332905	-2.976500	3.500000	-10.417000	25.886919	0.000856	20.670866
1174.334792	-2.990900	3.499200	-10.464000	25.858145	0.000856	20.675151
1175.337786	-3.008900	3.498900	-10.527000	25.861732	0.000852	20.673539
1176.334417	-3.002000	3.498700	-10.502000	25.857802	0.000853	20.679075
1177.336583	-3.029700	3.497800	-10.595000	25.841729	0.000853	20.680947
1178.334458	-3.002800	3.498800	-10.506000	25.842243	0.000853	20.667711
1179.335698	-3.014300	3.497200	-10.540000	25.835293	0.000852	20.667841
1180.339037	-3.012100	3.496200	-10.530000	25.850023	0.000851	20.675053
1181.339006	-3.012100	3.495400	-10.526000	25.888800	0.000851	20.654736
1182.337186	-3.023000	3.494400	-10.563000	25.897988	0.000853	20.664441
1183.341498	-2.988600	3.496200	-10.448000	25.895758	0.000849	20.678323
1184.337668	-2.998600	3.495800	-10.482000	25.887279	0.000848	20.650836
1185.337896	-2.998200	3.495900	-10.481000	25.882014	0.000848	20.660247
1186.339365	-2.996700	3.495800	-10.474000	25.935966	0.000848	20.643323
1187.337247	-3.012200	3.495400	-10.528000	25.959907	0.000847	20.688242
1188.339679	-2.965500	3.496800	-10.369000	25.969640	0.000848	20.652497
1189.343581	-3.007700	3.492900	-10.504000	25.943437	0.000846	20.679281
1190.339616	-3.004900	3.492400	-10.493000	25.944804	0.000846	20.674490
1191.346984	-2.983000	3.493600	-10.421000	25.936822	0.000844	20.666945
1192.339517	-2.988800	3.492300	-10.437000	25.881569	0.000845	20.671655
1193.340375	-3.013800	3.491700	-10.521000	25.881121	0.000843	20.676896
1194.339432	-3.015900	3.490500	-10.526000	25.893638	0.000843	20.672874
1195.342215	-3.010600	3.490100	-10.505000	25.943562	0.000843	20.677985
1196.340524	-3.011000	3.489700	-10.506000	25.959861	0.000841	20.677763
1197.343092	-3.022100	3.490000	-10.546000	25.919069	0.000841	20.687043
1198.340145	-2.995700	3.491000	-10.458000	25.940828	0.000842	20.662434
1199.340985	-2.994200	3.489100	-10.446000	25.949463	0.000840	20.673955
1200.341120	-3.009600	3.489200	-10.499000	25.934116	0.000841	20.681771
1201.341680	-2.998500	3.488800	-10.460000	25.899556	0.000840	20.692572
1202.344375	-2.994100	3.487300	-10.440000	25.955494	0.000838	20.677643
1203.342459	-3.000800	3.488100	-10.466000	25.935500	0.000838	20.668936
1204.344945	-3.001100	3.487100	-10.464000	25.999832	0.000837	20.685206
1205.342752	-2.993600	3.487400	-10.439000	26.010663	0.000838	20.672852
1206.343776	-2.998000	3.486600	-10.451000	26.015375	0.000837	20.683751
1207.345999	-2.986300	3.487000	-10.413000	26.015749	0.000837	20.680808
1208.348731	-2.997400	3.485200	-10.446000	26.008963	0.000837	20.692958
1209.345172	-2.975800	3.485200	-10.370000	25.997312	0.000835	20.695002
1210.345979	-2.995100	3.484700	-10.436000	25.973487	0.000833	20.723225
1211.345284	-3.006900	3.484300	-10.476000	25.915802	0.000835	20.687081
1212.345955	-2.979800	3.484100	-10.381000	25.895947	0.000833	20.702223
1213.353102	-2.988900	3.482800	-10.409000	25.907583	0.000833	20.703481
1214.348608	-3.014800	3.482000	-10.495000	25.898828	0.000830	20.685676
1215.351231	-2.995600	3.483300	-10.433000	25.895297	0.000831	20.689715
1216.349050	-3.001700	3.481900	-10.449000	25.888738	0.000832	20.699722
1217.348422	-3.035200	3.480100	-10.561000	25.878232	0.000830	20.696754
1218.351376	-3.000100	3.481300	-10.442000	25.887297	0.000830	20.686894
1219.350740	-2.999500	3.481600	-10.442000	25.866278	0.000830	20.688538
1220.348149	-3.023600	3.481200	-10.524000	25.913949	0.000828	20.696125
1221.348606	-3.000600	3.480600	-10.443000	25.945938	0.000829	20.694597
1222.348868	-2.981200	3.481200	-10.377000	25.972668	0.000827	20.698693
1223.348843	-3.005600	3.481500	-10.463000	26.001677	0.000828	20.683266
1224.352169	-3.007000	3.479500	-10.462000	26.049293	0.000828	20.691278
1225.350080	-2.978700	3.481500	-10.368000	26.085012	0.000828	20.694924
1226.351363	-3.011700	3.477900	-10.472000	26.110861	0.000824	20.706199
1227.350401	-2.999500	3.478200	-10.432000	26.117841	0.000826	20.695669
1228.354235	-3.009200	3.477400	-10.463000	26.106037	0.000825	20.711310
1229.355144	-2.997800	3.477500	-10.424000	26.073410	0.000825	20.712666
1230.352286	-2.992000	3.476800	-10.402000	26.072459	0.000823	20.723565
1231.353894	-3.021200	3.475200	-10.498000	26.048618	0.000824	20.706722
1232.353530	-2.989400	3.476900	-10.393000	26.002866	0.000825	20.707221
1233.353478	-3.000800	3.476400	-10.430000	26.016747	0.000824	20.702202
1234.355361	-2.998200	3.476300	-10.422000	26.022117	0.000822	20.732255
1235.352801	-3.003400	3.473700	-10.432000	26.048464	0.000823	20.698032
1236.353265	-2.985000	3.475600	-10.373000	26.079188	0.000819	20.699504
1237.355505	-2.991400	3.475100	-10.394000	26.098812	0.000820	20.692194
1238.354194	-2.998800	3.473400	-10.414000	26.116101	0.000821	20.695816
1239.354972	-3.000000	3.474400	-10.421000	26.112514	0.000818	20.712602
1240.356323	-3.003100	3.474200	-10.431000	26.078870	0.000818	20.700133
1241.354438	-3.005800	3.472900	-10.437000	26.083068	0.000816	20.708145
1242.354686	-2.982000	3.473700	-10.357000	26.107355	0.000817	20.712160
1243.353618	-2.987600	3.471300	-10.370000	26.106215	0.000818	20.721921
1244.354271	-3.001600	3.470100	-10.415000	26.126353	0.000816	20.702325
1245.358492	-3.020100	3.470400	-10.480000	26.143463	0.000818	20.715251
1246.354710	-2.991600	3.470400	-10.382000	26.149573	0.000816	20.691991
1247.358085	-3.011500	3.469200	-10.445000	26.108666	0.000815	20.713003
1248.355097	-2.987600	3.468900	-10.361000	26.088650	0.000815	20.711858
1249.354607	-2.990000	3.469800	-10.374000	26.079131	0.000813	20.706561
1250.354410	-2.964500	3.469100	-10.283000	26.052785	0.000813	20.715177
1251.359351	-2.989200	3.469300	-10.368000	26.037204	0.000812	20.703789
1252.356567	-2.975800	3.470700	-10.326000	26.024511	0.000811	20.701941
1253.356957	-2.990300	3.467900	-10.368000	26.031590	0.000811	20.714745
1254.357682	-2.998000	3.466800	-10.392000	26.049369	0.000810	20.709374
1255.356709	-2.983800	3.467500	-10.346000	26.059531	0.000812	20.730965
1256.359831	-2.987400	3.466700	-10.355000	26.079376	0.000810	20.711548
1257.358220	-3.003100	3.464500	-10.401000	26.108854	0.000809	20.712718
1258.360490	-3.004700	3.465800	-10.412000	26.115771	0.000808	20.725359
1259.358478	-2.999700	3.465800	-10.395000	26.133857	0.000808	20.725988
1260.359494	-2.993800	3.465100	-10.373000	26.128666	0.000809	20.711762
1261.362397	-2.994200	3.465100	-10.374000	26.146224	0.000807	20.718973
1262.365796	-2.990400	3.464800	-10.360000	26.196584	0.000808	20.715998
1263.361332	-2.989100	3.463000	-10.351000	26.224293	0.000805	20.724877
1264.360861	-3.006700	3.463500	-10.411000	26.197902	0.000804	20.720167
1265.361250	-2.994500	3.461600	-10.365000	26.157891	0.000805	20.724533
1266.362445	-3.001900	3.463400	-10.395000	26.089289	0.000805	20.728148
1267.363693	-3.008200	3.462500	-10.415000	26.065508	0.000805	20.710416
1268.361936	-3.005300	3.461800	-10.403000	26.014247	0.000803	20.729563
1269.362451	-2.994900	3.462200	-10.368000	26.051529	0.000803	20.716286
1270.362372	-3.007600	3.461400	-10.409000	26.067217	0.000803	20.716876
1271.364747	-3.009600	3.460000	-10.412000	26.086639	0.000803	20.736391
1272.364766	-2.994500	3.461100	-10.364000	26.123234	0.000802	20.736651
1273.362358	-3.015100	3.459900	-10.431000	26.136618	0.000803	20.721649
1274.365332	-3.018200	3.458600	-10.438000	26.177989	0.000799	20.709640
1275.364038	-3.003100	3.458200	-10.384000	26.206821	0.000799	20.722966
1276.365428	-3.004400	3.457700	-10.386000	26.242649	0.000798	20.721986
1277.368618	-2.982200	3.457800	-10.310000	26.215559	0.000798	20.724161
1278.369205	-3.002600	3.457300	-10.379000	26.209051	0.000796	20.742278
1279.366475	-2.983600	3.458900	-10.319000	26.135261	0.000798	20.707009
1280.366128	-2.997100	3.456500	-10.358000	26.127589	0.000798	20.735811
1281.367249	-2.983800	3.456900	-10.313000	26.114743	0.000795	20.734283
1282.367642	-2.993200	3.455900	-10.343000	26.087055	0.000795	20.725428
1283.369109	-3.022900	3.454600	-10.441000	26.078138	0.000796	20.716942
1284.368298	-2.999400	3.454700	-10.361000	26.069350	0.000796	20.751737
1285.370191	-2.993600	3.453900	-10.339000	26.123513	0.000793	20.717964
1286.368436	-2.993100	3.453700	-10.337000	26.148149	0.000794	20.731814
1287.368021	-2.996700	3.452900	-10.345000	26.130990	0.000793	20.736384
1288.373838	-3.011700	3.452700	-10.398000	26.136205	0.000792	20.741624
1289.367342	-2.973700	3.455400	-10.274000	26.145538	0.000793	20.734406
1290.370358	-3.004000	3.452200	-10.370000	26.157757	0.000791	20.738625
1291.371308	-3.006800	3.452200	-10.379000	26.159369	0.000791	20.717483
1292.371748	-2.989200	3.452200	-10.318000	26.140794	0.000790	20.752874
1293.371949	-3.013300	3.450200	-10.395000	26.109846	0.000789	20.756390
1294.375389	-3.014000	3.450200	-10.398000	26.129917	0.000790	20.730563
1295.372274	-2.986800	3.450800	-10.306000	26.144293	0.000791	20.736949
1296.373898	-2.995300	3.451900	-10.338000	26.123831	0.000790	20.716861
1297.373158	-3.017000	3.448900	-10.404000	26.138606	0.000791	20.745460
1298.372869	-3.003800	3.448500	-10.356000	26.132968	0.000788	20.734104
1299.375509	-3.006400	3.449300	-10.368000	26.152193	0.000787	20.736352
1300.372941	-3.014600	3.448600	-10.394000	26.161997	0.000787	20.740514
1301.373478	-2.989700	3.448400	-10.309000	26.146027	0.000788	20.756710
1302.374322	-2.982800	3.448000	-10.284000	26.118014	0.000787	20.754641
1303.374603	-2.989800	3.446500	-10.304000	26.120968	0.000786	20.758557
1304.376643	-3.036900	3.445600	-10.461000	26.137655	0.000783	20.725063
1305.376779	-2.992300	3.445700	-10.309000	26.112027	0.000784	20.733925
1306.374998	-2.989400	3.446300	-10.301000	26.124572	0.000784	20.739418
1307.375860	-2.994100	3.444300	-10.312000	26.151756	0.000785	20.750138
1308.374861	-2.995600	3.444200	-10.317000	26.195045	0.000781	20.753808
1309.376121	-2.989800	3.445100	-10.299000	26.223104	0.000782	20.742649
1310.376014	-3.003800	3.445000	-10.347000	26.254920	0.000781	20.747595
1311.375194	-3.012400	3.443300	-10.372000	26.283278	0.000781	20.746696
1312.377150	-3.020200	3.442400	-10.396000	26.308179	0.000782	20.765557
1313.377736	-3.026300	3.442400	-10.417000	26.319761	0.000782	20.731677
1314.378699	-2.997900	3.442300	-10.319000	26.302916	0.000781	20.752681
1315.381530	-2.988300	3.442500	-10.285000	26.275250	0.000779	20.739102
1316.378797	-3.001100	3.441100	-10.326000	26.230947	0.000778	20.764282
1317.380391	-2.994600	3.442100	-10.307000	26.236658	0.000777	20.742519
1318.379614	-2.969100	3.441500	-10.216000	26.240279	0.000778	20.762754
1319.379730	-2.993300	3.440600	-10.297000	26.272143	0.000778	20.748782
1320.379874	-3.007900	3.438600	-10.342000	26.297272	0.000778	20.765501
1321.388585	-2.995900	3.440700	-10.307000	26.302339	0.000774	20.755420
1322.380423	-3.028200	3.438300	-10.410000	26.270200	0.000778	20.750622
1323.381463	-2.993200	3.438100	-10.290000	26.210430	0.000777	20.744138
1324.381064	-2.999700	3.438800	-10.314000	26.204174	0.000775	20.760137
1325.382504	-3.000700	3.438700	-10.316000	26.233771	0.000774	20.744360
1326.383571	-2.981900	3.438800	-10.254000	26.197830	0.000773	20.776522
1327.383568	-3.003800	3.436700	-10.322000	26.170291	0.000772	20.765919
1328.384178	-3.020700	3.436300	-10.379000	26.177166	0.000774	20.769508
1329.384256	-2.988100	3.436600	-10.267000	26.209976	0.000772	20.785883
1330.384642	-2.987100	3.435700	-10.262000	26.248293	0.000771	20.768911
1331.387332	-3.019200	3.434300	-10.367000	26.219829	0.000770	20.753109
1332.389620	-3.002100	3.435200	-10.312000	26.254402	0.000771	20.775051
1333.384701	-3.034900	3.433500	-10.419000	26.283924	0.000770	20.766312
1334.386068	-3.023100	3.433100	-10.376000	26.294028	0.000770	20.763663
1335.385121	-3.004400	3.434200	-10.316000	26.312558	0.000767	20.765690
1336.387357	-2.989300	3.435100	-10.267000	26.297250	0.000769	20.763108
1337.388112	-3.007300	3.432600	-10.322000	26.291644	0.000768	20.784976
1338.386753	-3.006400	3.432300	-10.318000	26.309671	0.000766	20.742400
1339.391698	-2.994300	3.432500	-10.277000	26.287447	0.000767	20.776016
1340.386611	-3.005600	3.431600	-10.313000	26.274407	0.000767	20.771921
1341.387417	-3.039400	3.430900	-10.427000	26.254217	0.000764	20.768226
1342.393046	-2.993400	3.431400	-10.270000	26.253640	0.000765	20.793725
1343.387717	-2.991200	3.430600	-10.261000	26.243780	0.000764	20.793774
1344.388913	-2.991400	3.429500	-10.258000	26.278475	0.000765	20.751827
1345.388143	-2.989500	3.429800	-10.252000	26.277451	0.000763	20.784937
1346.386801	-2.991000	3.429600	-10.257000	26.257781	0.000764	20.772757
1347.388025	-2.981200	3.430600	-10.226000	26.264614	0.000763	20.781994
1348.391057	-2.971200	3.429100	-10.188000	26.284350	0.000760	20.772430
1349.388593	-3.018100	3.426900	-10.341000	26.268333	0.000761	20.781464
1350.388978	-2.998600	3.428600	-10.280000	26.277836	0.000759	20.772521
1351.388574	-3.010100	3.427100	-10.315000	26.284668	0.000761	20.776069
1352.389084	-3.026400	3.426500	-10.368000	26.326732	0.000761	20.779936
1353.392110	-3.022100	3.426600	-10.354000	26.328043	0.000760	20.780779
1354.389858	-3.015100	3.425800	-10.328000	26.332265	0.000758	20.794505
1355.391018	-2.993800	3.425900	-10.255000	26.347086	0.000758	20.786166
1356.391031	-3.003900	3.425600	-10.289000	26.365241	0.000759	20.783550
1357.390409	-2.985700	3.425400	-10.226000	26.368634	0.000757	20.777951
1358.392870	-2.991200	3.424300	-10.240000	26.322472	0.000756	20.793198
1359.391360	-2.997700	3.424600	-10.264000	26.311019	0.000755	20.794016
1360.391762	-2.993900	3.422700	-10.245000	26.296051	0.000756	20.793198
1361.393214	-2.985200	3.423400	-10.218000	26.253059	0.000754	20.791245
1362.391853	-2.972400	3.424200	-10.176000	26.257697	0.000753	20.786422
1363.392321	-2.998000	3.423600	-10.264000	26.216053	0.000755	20.804792
1364.393674	-3.016900	3.421600	-10.322000	26.228720	0.000751	20.773424
1365.394771	-2.997500	3.422000	-10.255000	26.186075	0.000751	20.792211
1366.393923	-3.004900	3.420500	-10.278000	26.219667	0.000752	20.788509
1367.393845	-3.019800	3.419700	-10.326000	26.202883	0.000753	20.810049
1368.394598	-3.006500	3.420500	-10.283000	26.244129	0.000749	20.785590
1369.402733	-2.997600	3.420100	-10.251000	26.241421	0.000750	20.793299
1370.394969	-2.998400	3.419700	-10.253000	26.274693	0.000751	20.799235
1371.398337	-3.012000	3.418600	-10.295000	26.266819	0.000751	20.803650
1372.394703	-2.989200	3.420500	-10.223000	26.254349	0.000750	20.792066
1373.393976	-2.991000	3.418200	-10.223000	26.202495	0.000749	20.819616
1374.394341	-2.996400	3.418300	-10.240000	26.211436	0.000749	20.806316
1375.400386	-3.012100	3.417500	-10.293000	26.263086	0.000746	20.806537
1376.393836	-2.979400	3.418700	-10.184000	26.276266	0.000747	20.794651
1377.394333	-2.994900	3.418800	-10.238000	26.277241	0.000747	20.805114
1378.393796	-2.978600	3.418000	-10.181000	26.281089	0.000745	20.791912
1379.394536	-3.005200	3.415800	-10.264000	26.267179	0.000747	20.794054
1380.397377	-2.992700	3.416500	-10.224000	26.325928	0.000745	20.789084
1381.394339	-3.007600	3.416200	-10.273000	26.327791	0.000744	20.819405
1382.396529	-3.016900	3.414100	-10.300000	26.345907	0.000743	20.803474
1383.393673	-3.017700	3.413200	-10.299000	26.355270	0.000744	20.810038
1384.395953	-2.974800	3.414800	-10.158000	26.350975	0.000743	20.809515
1385.398721	-2.980300	3.415500	-10.178000	26.370360	0.000743	20.793910
1386.395596	-3.009800	3.414200	-10.274000	26.356972	0.000742	20.815542
1387.397917	-2.971900	3.413100	-10.142000	26.344932	0.000741	20.816718
1388.397341	-2.996300	3.413000	-10.226000	26.315478	0.000742	20.817463
1389.397263	-3.009400	3.411200	-10.264000	26.293100	0.000740	20.820578
1390.403588	-2.993100	3.412100	-10.211000	26.317813	0.000741	20.830714
1391.402441	-3.031400	3.411000	-10.338000	26.321353	0.000738	20.836169
1392.400791	-3.000700	3.410700	-10.233000	26.366246	0.000739	20.825337
1393.398667	-3.007600	3.409800	-10.254000	26.375528	0.000738	20.829924
1394.399193	-2.991900	3.409500	-10.201000	26.380026	0.000739	20.819746
1395.398530	-2.996200	3.410000	-10.215000	26.385282	0.000737	20.819813
1396.403505	-3.017500	3.407900	-10.282000	26.340934	0.000737	20.823132
1397.401281	-2.994900	3.408700	-10.208000	26.302662	0.000737	20.845834
1398.400823	-3.006900	3.408900	-10.249000	26.326424	0.000734	20.844109
1399.400602	-2.991300	3.407200	-10.191000	26.343181	0.000735	20.828709
1400.401992	-3.029300	3.407300	-10.320000	26.341839	0.000735	20.833050
1401.405032	-3.025900	3.406800	-10.307000	26.313727	0.000733	20.847471
1402.402821	-2.991800	3.406600	-10.190000	26.300314	0.000735	20.837310
1403.405093	-3.027000	3.407000	-10.312000	26.318861	0.000733	20.833190
1404.401579	-3.002200	3.406300	-10.225000	26.318609	0.000734	20.819661
1405.401563	-2.968900	3.407800	-10.115000	26.325704	0.000732	20.848127
1406.403027	-2.994400	3.405000	-10.196000	26.304993	0.000733	20.824470
1407.402418	-2.986600	3.405400	-10.170000	26.300698	0.000731	20.848127
1408.402306	-3.002500	3.404900	-10.223000	26.274399	0.000732	20.819802
1409.402935	-3.006100	3.405100	-10.235000	26.300716	0.000731	20.833921
1410.403629	-3.005600	3.402000	-10.224000	26.343821	0.000730	20.846894
1411.403321	-2.998500	3.403100	-10.203000	26.365376	0.000728	20.818773
1412.404192	-3.009700	3.403800	-10.243000	26.393756	0.000729	20.835441
1413.402986	-3.019000	3.401500	-10.269000	26.419517	0.000729	20.842367
1414.405060	-2.998500	3.401900	-10.200000	26.435110	0.000730	20.849978
1415.405318	-3.021900	3.401100	-10.276000	26.467807	0.000727	20.835901
1416.404680	-3.000600	3.400700	-10.203000	26.460521	0.000731	20.827156
1417.407407	-2.994400	3.401200	-10.184000	26.427359	0.000725	20.824171
1418.405386	-2.983600	3.401600	-10.148000	26.399801	0.000725	20.839147
1419.407137	-3.001800	3.400700	-10.207000	26.402398	0.000726	20.832273
1420.407149	-2.985200	3.400000	-10.148000	26.402464	0.000725	20.859366
1421.405953	-2.997600	3.399600	-10.189000	26.426817	0.000722	20.845911
1422.408270	-2.973500	3.400000	-10.108000	26.449591	0.000722	20.845567
1423.409699	-2.966400	3.399800	-10.084000	26.475456	0.000724	20.842641
1424.406904	-2.989100	3.398800	-10.158000	26.489307	0.000722	20.830012
1425.408320	-3.002200	3.398600	-10.203000	26.496212	0.000723	20.854020
1426.406082	-3.021000	3.397000	-10.261000	26.510014	0.000721	20.829962
1427.407990	-3.002400	3.397200	-10.197000	26.524630	0.000722	20.833749
1428.424375	-3.034300	3.395800	-10.301000	26.495953	0.000721	20.837640
1429.407664	-2.993900	3.395900	-10.166000	26.485649	0.000720	20.832024
1430.414193	-3.018500	3.396400	-10.252000	26.447952	0.000718	20.826377
1431.410159	-2.993800	3.395400	-10.163000	26.427820	0.000720	20.833643
1432.410483	-3.015400	3.394200	-10.234000	26.437647	0.000719	20.827873
1433.423459	-2.982200	3.395100	-10.124000	26.443958	0.000717	20.815250
1434.410507	-2.986900	3.394300	-10.138000	26.437769	0.000717	20.826099
1435.412374	-3.015500	3.391900	-10.228000	26.452589	0.000717	20.807804
1436.411918	-3.004900	3.393000	-10.195000	26.452044	0.000715	20.825274
1437.412533	-2.979600	3.393800	-10.111000	26.482560	0.000717	20.823230
1438.413521	-3.003500	3.392900	-10.190000	26.477738	0.000717	20.808900
1439.416891	-3.003700	3.392000	-10.188000	26.485830	0.000714	20.830310
1440.415241	-3.007400	3.391700	-10.199000	26.517037	0.000713	20.822798
1441.415489	-2.990300	3.390300	-10.138000	26.519696	0.000714	20.817410
1442.415971	-2.991400	3.392600	-10.148000	26.514427	0.000714	20.842459
1443.415462	-3.001100	3.391300	-10.177000	26.520388	0.000712	20.823795
1444.417160	-2.995400	3.389300	-10.150000	26.508075	0.000711	20.840341
1445.415363	-3.010200	3.389400	-10.201000	26.525871	0.000710	20.829306
1446.416278	-3.001000	3.389000	-10.169000	26.560955	0.000712	20.820950
1447.415564	-2.997800	3.389700	-10.161000	26.579938	0.000710	20.810635
1448.416874	-3.009700	3.387500	-10.194000	26.635595	0.000710	20.812058
1449.420024	-3.012600	3.387400	-10.203000	26.588281	0.000709	20.826134
1450.417217	-2.971800	3.388200	-10.069000	26.535347	0.000708	20.830770
1451.416509	-3.007300	3.387200	-10.186000	26.490614	0.000707	20.807618
1452.417430	-2.998200	3.386300	-10.152000	26.468174	0.000707	20.818727
1453.418983	-2.987000	3.387600	-10.116000	26.475917	0.000706	20.808493
1454.418399	-3.009300	3.386800	-10.191000	26.487060	0.000706	20.789347
1455.421035	-2.988300	3.387900	-10.123000	26.525392	0.000705	20.815075
1456.418960	-3.007600	3.386100	-10.183000	26.548114	0.000705	20.815629
1457.426528	-3.018500	3.385500	-10.218000	26.560850	0.000705	20.800931
1458.418002	-3.010100	3.384900	-10.188000	26.554197	0.000704	20.808942
1459.419083	-3.007400	3.384600	-10.178000	26.518397	0.000704	20.791922
1460.422430	-3.014500	3.383100	-10.198000	26.520228	0.000705	20.808461
1461.420060	-2.989700	3.384000	-10.116000	26.466182	0.000703	20.802975
1462.418797	-3.031700	3.382600	-10.253000	26.489150	0.000702	20.818474
1463.420094	-3.010500	3.382500	-10.182000	26.515958	0.000702	20.820290
1464.421685	-3.009100	3.382600	-10.178000	26.471885	0.000700	20.811552
1465.421737	-2.999400	3.381400	-10.141000	26.482637	0.000701	20.819988
1466.424752	-2.986700	3.383700	-10.103000	26.514469	0.000699	20.808837
1467.422381	-2.976000	3.381900	-10.064000	26.536566	0.000699	20.791694
1468.421811	-2.992800	3.381300	-10.118000	26.585168	0.000698	20.796927
1469.421467	-3.024800	3.379700	-10.222000	26.601586	0.000699	20.792568
1470.423989	-2.991900	3.379800	-10.111000	26.581947	0.000697	20.793214
1471.425501	-3.006700	3.380000	-10.162000	26.522887	0.000696	20.806866
1472.423360	-2.997800	3.381100	-10.133000	26.492323	0.000697	20.784205
1473.424913	-2.977300	3.379800	-10.062000	26.461189	0.000695	20.787999
1474.425133	-2.995900	3.380100	-10.126000	26.439163	0.000696	20.812328
1475.424753	-3.020700	3.377600	-10.202000	26.441222	0.000695	20.781206
1476.426757	-3.013500	3.378800	-10.181000	26.473324	0.000694	20.784076
1477.425862	-2.999300	3.377800	-10.131000	26.464313	0.000697	20.784975
1478.425169	-2.973100	3.378800	-10.045000	26.423400	0.000693	20.791269
1479.425242	-3.019500	3.376300	-10.192000	26.440131	0.000693	20.780584
1480.425553	-2.998200	3.376200	-10.121000	26.473380	0.000693	20.806891
1481.425421	-2.998300	3.375600	-10.120000	26.441326	0.000694	20.787475
1482.427792	-3.015500	3.374400	-10.173000	26.456024	0.000691	20.790394
1483.426109	-3.002300	3.374100	-10.129000	26.420423	0.000690	20.784957
1484.425347	-3.020500	3.373300	-10.189000	26.441050	0.000690	20.810906
1485.426270	-3.040700	3.374100	-10.259000	26.461384	0.000689	20.782505
1486.425985	-2.995100	3.375600	-10.108000	26.478723	0.000689	20.770061
1487.431290	-3.001900	3.373500	-10.126000	26.505978	0.000688	20.782758
1488.427198	-3.000000	3.372300	-10.116000	26.473681	0.000688	20.786330
1489.429657	-3.006600	3.371900	-10.137000	26.521618	0.000689	20.786151
1490.428011	-3.004300	3.372200	-10.130000	26.552108	0.000686	20.775073
1491.428073	-2.996200	3.372300	-10.103000	26.557499	0.000687	20.775751
1492.428092	-3.013000	3.371900	-10.158000	26.577562	0.000685	20.788806
1493.431984	-3.021700	3.370200	-10.183000	26.562143	0.000684	20.788006
1494.428029	-3.001400	3.371800	-10.119000	26.546325	0.000686	20.803874
1495.429262	-3.017100	3.368600	-10.161000	26.538477	0.000685	20.762794
1496.430312	-3.005400	3.369000	-10.122000	26.537639	0.000685	20.776650
1497.432293	-3.016700	3.368700	-10.161000	26.563502	0.000683	20.768983
1498.433919	-3.014300	3.368700	-10.152000	26.578320	0.000684	20.786724
1499.430486	-3.006100	3.369600	-10.128000	26.576238	0.000682	20.794114
1500.435437	-3.002200	3.367400	-10.109000	26.575790	0.000682	20.773275
1501.432714	-2.997600	3.368900	-10.098000	26.579141	0.000679	20.778540
1502.432166	-3.008900	3.368600	-10.134000	26.581622	0.000681	20.779137
1503.432542	-2.999300	3.367400	-10.099000	26.591877	0.000678	20.778066
1504.431988	-3.000500	3.367300	-10.103000	26.624576	0.000678	20.767789
1505.431801	-3.004100	3.365600	-10.109000	26.619559	0.000678	20.775548
1506.430976	-2.970100	3.368400	-10.003000	26.633628	0.000678	20.771674
1507.432907	-2.983800	3.365800	-10.041000	26.636930	0.000679	20.772622
1508.438034	-2.986900	3.363900	-10.047000	26.641849	0.000677	20.783731
1509.434686	-2.978900	3.365300	-10.023000	26.645843	0.000677	20.770202
1510.436388	-2.983800	3.365000	-10.039000	26.621040	0.000676	20.762812
1511.432918	-2.994800	3.364300	-10.074000	26.559949	0.000674	20.774420
1512.434375	-2.997800	3.363900	-10.083000	26.548652	0.000674	20.771600
1513.434220	-3.008800	3.364300	-10.121000	26.530200	0.000675	20.773440
1514.435663	-3.000600	3.364800	-10.096000	26.516527	0.000674	20.762541
1515.433965	-2.997000	3.362800	-10.077000	26.560843	0.000673	20.779587
1516.436942	-3.008300	3.361800	-10.112000	26.595814	0.000674	20.773964
1517.436634	-3.012800	3.362800	-10.130000	26.595374	0.000671	20.769728
1518.436585	-3.011900	3.361200	-10.122000	26.593480	0.000671	20.763557
1519.440714	-2.992800	3.362000	-10.060000	26.558624	0.000673	20.760761
1520.436542	-3.016000	3.361200	-10.136000	26.529672	0.000670	20.771962
1521.441967	-2.998200	3.360000	-10.072000	26.531688	0.000672	20.765927
1522.438715	-3.009800	3.360400	-10.112000	26.551524	0.000669	20.783496
1523.439307	-3.026000	3.358800	-10.161000	26.584739	0.000669	20.778477
1524.440370	-2.984400	3.359200	-10.023000	26.614332	0.000669	20.773612
1525.439722	-3.000600	3.359900	-10.081000	26.581811	0.000668	20.777430
1526.439850	-2.996900	3.359100	-10.066000	26.593700	0.000667	20.760459
1527.439155	-3.002800	3.358900	-10.084000	26.588910	0.000666	20.767023
1528.440106	-2.999600	3.357400	-10.070000	26.566213	0.000666	20.779770
1529.441061	-2.992000	3.357900	-10.046000	26.593840	0.000664	20.754909
1530.441371	-2.998900	3.358000	-10.069000	26.579250	0.000663	20.774382
1531.443078	-2.997900	3.358400	-10.068000	26.588984	0.000664	20.761407
1532.440139	-3.000300	3.357600	-10.073000	26.593620	0.000662	20.741885
1533.440793	-3.014700	3.356200	-10.116000	26.656198	0.000663	20.772078
1534.441813	-2.992800	3.356500	-10.044000	26.641357	0.000661	20.754786
1535.442692	-2.993700	3.356900	-10.049000	26.625418	0.000661	20.750617
1536.453509	-2.954200	3.357100	-9.915300	26.629474	0.000661	20.776032
1537.442062	-3.006100	3.355700	-10.087000	26.662116	0.000659	20.758112
1538.442714	-2.976100	3.354600	-9.983000	26.670396	0.000660	20.758376
1539.442596	-3.003100	3.353800	-10.071000	26.644487	0.000661	20.759830
1540.443660	-2.999800	3.353200	-10.058000	26.596929	0.000659	20.758014
1541.445841	-3.009000	3.353700	-10.090000	26.639624	0.000659	20.749725
1542.441675	-3.004000	3.351800	-10.068000	26.645357	0.000658	20.731780
1543.442711	-2.984300	3.353100	-10.004000	26.644218	0.000656	20.766672
1544.443531	-2.985700	3.352800	-10.008000	26.638827	0.000657	20.749398
1545.444325	-2.988400	3.352100	-10.016000	26.579078	0.000655	20.761881
1546.446129	-3.014600	3.352400	-10.104000	26.573271	0.000654	20.747983
1547.445342	-2.995400	3.351300	-10.038000	26.600231	0.000656	20.746160
1548.447161	-3.001700	3.351100	-10.058000	26.639183	0.000652	20.745489
1549.443926	-3.020600	3.349600	-10.117000	26.646559	0.000654	20.769499
1550.446341	-3.032700	3.349200	-10.156000	26.652194	0.000655	20.758569
1551.451138	-3.019600	3.348000	-10.109000	26.682404	0.000652	20.753852
1552.446370	-2.995000	3.349700	-10.031000	26.656146	0.000652	20.754955
1553.445802	-2.994400	3.349100	-10.028000	26.676964	0.000650	20.774462
1554.447475	-2.996500	3.347200	-10.029000	26.708295	0.000650	20.749061
1555.447127	-3.004200	3.347500	-10.055000	26.704798	0.000651	20.739855
1556.448338	-3.001400	3.347400	-10.046000	26.761888	0.000650	20.756476
1557.450388	-3.018300	3.346500	-10.100000	26.764969	0.000650	20.744400
1558.446952	-2.989500	3.346600	-10.003000	26.809893	0.000650	20.742626
1559.446832	-2.985400	3.346200	-9.988600	26.819821	0.000646	20.739806
1560.448033	-3.012500	3.345500	-10.078000	26.811608	0.000646	20.757153
1561.449045	-3.003900	3.344900	-10.046000	26.812195	0.000648	20.725500
1562.457329	-3.021600	3.343800	-10.102000	26.838911	0.000645	20.732921
1563.448889	-3.007200	3.344900	-10.058000	26.829382	0.000647	20.758428
1564.451807	-2.988800	3.344600	-9.996200	26.792850	0.000647	20.757259
1565.450975	-3.004100	3.344000	-10.045000	26.757025	0.000644	20.744000
1566.450471	-3.003900	3.343300	-10.042000	26.717532	0.000646	20.746019
1567.450490	-3.010200	3.343400	-10.062000	26.725728	0.000645	20.767536
1568.450597	-3.001600	3.342200	-10.031000	26.704725	0.000643	20.754955
1569.451184	-3.008000	3.341600	-10.051000	26.701626	0.000643	20.753262
1570.458652	-2.997700	3.341900	-10.017000	26.737770	0.000643	20.750245
1571.451666	-2.994000	3.341100	-10.003000	26.746650	0.000643	20.739258
1572.451652	-2.983000	3.341500	-9.967200	26.791037	0.000642	20.756858
1573.452886	-2.981500	3.340900	-9.959300	26.810690	0.000639	20.755281
1574.451321	-3.012600	3.340200	-10.061000	26.827226	0.000639	20.766219
1575.454019	-2.990000	3.341300	-9.989200	26.803120	0.000639	20.750515
1576.453480	-2.992300	3.340200	-9.994100	26.804786	0.000638	20.764993
1577.453444	-2.985900	3.340100	-9.972300	26.816097	0.000638	20.740329
1578.456654	-2.989400	3.339500	-9.980500	26.819293	0.000636	20.744966
1579.454025	-3.024000	3.337400	-10.091000	26.811406	0.000639	20.723757
1580.458221	-2.995800	3.337500	-9.997200	26.773825	0.000637	20.754252
1581.455516	-2.999200	3.338000	-10.010000	26.753221	0.000636	20.735907
1582.455296	-3.008900	3.337600	-10.041000	26.769507	0.000635	20.754653
1583.455139	-3.003800	3.337200	-10.023000	26.731405	0.000634	20.748113
1584.458512	-3.012300	3.336200	-10.049000	26.729794	0.000636	20.738432
1585.457250	-3.014900	3.335000	-10.053000	26.750018	0.000635	20.741221
1586.457471	-3.011800	3.336000	-10.046000	26.780232	0.000633	20.758323
1587.459768	-3.008600	3.335100	-10.033000	26.795470	0.000632	20.744245
1588.458431	-3.005900	3.334700	-10.023000	26.742081	0.000632	20.725654
1589.462057	-3.014300	3.334100	-10.049000	26.697741	0.000631	20.739398
1590.458974	-3.009800	3.334200	-10.034000	26.704204	0.000630	20.746370
1591.463696	-2.999800	3.334900	-10.003000	26.719939	0.000631	20.729946
1592.458806	-2.996800	3.333600	-9.988800	26.763946	0.000631	20.737207
1593.459373	-3.007400	3.332700	-10.022000	26.764344	0.000630	20.751358
1594.461368	-3.014000	3.332400	-10.040000	26.773549	0.000628	20.725998
1595.462459	-3.000800	3.333200	-10.001000	26.753123	0.000628	20.736283
1596.457882	-2.999600	3.330800	-9.989800	26.734168	0.000626	20.727182
1597.458881	-3.004900	3.331800	-10.011000	26.736201	0.000625	20.726381
1598.460149	-3.003700	3.331300	-10.005000	26.706409	0.000625	20.726775
1599.460174	-3.006200	3.331800	-10.015000	26.648617	0.000625	20.746911
1600.464689	-3.002700	3.329900	-9.996500	26.670166	0.000625	20.731590
1601.462095	-3.016200	3.328800	-10.039000	26.696633	0.000624	20.725482
1602.462775	-2.989200	3.331400	-9.956400	26.692015	0.000623	20.719890
1603.463230	-2.991800	3.330000	-9.961800	26.729347	0.000625	20.713325
1604.462147	-2.995600	3.329800	-9.974100	26.764376	0.000623	20.721991
1605.466870	-3.009900	3.328600	-10.019000	26.795274	0.000620	20.720340
1606.462904	-3.023000	3.328300	-10.061000	26.795022	0.000621	20.741425
1607.462948	-3.001600	3.328000	-9.988200	26.804975	0.000622	20.730094
1608.463115	-2.979400	3.329000	-9.916900	26.835627	0.000620	20.728671
1609.464133	-3.009500	3.326500	-10.010000	26.844399	0.000619	20.739388
1610.465160	-2.990600	3.327000	-9.948300	26.831481	0.000620	20.706483
1611.466714	-2.993100	3.326500	-9.955100	26.788371	0.000618	20.726676
1612.463919	-3.016400	3.325200	-10.030000	26.754961	0.000618	20.723431
1613.464530	-2.993000	3.325500	-9.952600	26.735901	0.000617	20.709008
1614.464192	-3.025300	3.323200	-10.052000	26.727527	0.000616	20.738998
1615.465191	-2.987700	3.326000	-9.936200	26.720550	0.000616	20.708274
1616.466405	-2.994100	3.323700	-9.950800	26.758605	0.000615	20.731362
1617.466002	-2.982400	3.324600	-9.914600	26.753668	0.000614	20.726873
1618.465856	-3.000800	3.322800	-9.969500	26.765574	0.000616	20.730782
1619.465555	-3.000500	3.323600	-9.971400	26.771264	0.000613	20.711847
1620.466014	-2.988000	3.322800	-9.927500	26.802683	0.000614	20.730635
1621.469080	-2.982400	3.324200	-9.912100	26.832239	0.000613	20.716255
1622.467877	-2.981100	3.323500	-9.907000	26.883088	0.000613	20.746522
1623.468743	-3.011100	3.321400	-9.999600	26.888453	0.000612	20.700705
1624.467629	-3.003900	3.320700	-9.973500	26.917217	0.000611	20.691221
1625.468341	-3.026500	3.319700	-10.046000	26.925079	0.000610	20.733743
1626.468915	-3.020100	3.320300	-10.026000	26.926812	0.000610	20.707983
1627.470493	-3.004300	3.320700	-9.975000	26.938405	0.000610	20.709209
1628.470560	-3.013900	3.319700	-10.003000	26.912463	0.000609	20.726273
1629.470998	-3.005000	3.320500	-9.976200	26.916861	0.000609	20.717892
1630.469678	-2.991000	3.319400	-9.927500	26.875284	0.000606	20.714492
1631.470208	-2.997000	3.319300	-9.946400	26.904618	0.000607	20.717909
1632.474468	-3.008300	3.318000	-9.980200	26.891635	0.000605	20.716708
1633.471883	-2.998300	3.319400	-9.950700	26.853366	0.000606	20.701460
1634.474653	-3.007800	3.318300	-9.979200	26.812908	0.000605	20.728113
1635.472273	-3.008100	3.316900	-9.976100	26.791980	0.000604	20.708018
1636.473724	-3.008300	3.316300	-9.975200	26.777214	0.000604	20.711664
1637.473271	-3.003600	3.316800	-9.961400	26.784539	0.000600	20.713340
1638.476449	-3.007600	3.316700	-9.974100	26.810868	0.000599	20.719898
1639.473994	-2.991600	3.315200	-9.916400	26.817096	0.000601	20.705296
1640.474739	-3.027900	3.314200	-10.034000	26.807958	0.000602	20.704643
1641.474185	-3.003600	3.314900	-9.956100	26.828512	0.000599	20.708240
1642.474366	-3.012100	3.314400	-9.981700	26.851263	0.000601	20.715468
1643.477972	-3.020700	3.313400	-10.008000	26.857994	0.000598	20.702795
1644.475533	-2.994800	3.313100	-9.920100	26.831537	0.000599	20.689943
1645.479162	-3.013100	3.313700	-9.983000	26.787453	0.000599	20.703466
1646.477001	-3.010500	3.313900	-9.974100	26.788267	0.000598	20.716139
1647.476113	-2.998600	3.313200	-9.933800	26.783575	0.000597	20.711896
1648.478843	-2.988300	3.312900	-9.899400	26.781315	0.000597	20.709624
1649.477282	-2.999900	3.311500	-9.933300	26.749271	0.000595	20.718658
1650.478088	-3.010400	3.310700	-9.966100	26.719412	0.000596	20.688636
1651.480809	-2.989900	3.310700	-9.897900	26.720502	0.000593	20.706803
1652.482430	-3.001100	3.310400	-9.934700	26.700564	0.000594	20.698138
1653.479044	-3.023000	3.310500	-10.006000	26.715527	0.000592	20.704647
1654.481064	-2.999200	3.309600	-9.924900	26.749435	0.000594	20.707443
1655.478739	-3.006000	3.310400	-9.948900	26.754029	0.000591	20.685032
1656.478729	-2.988500	3.308900	-9.886500	26.792669	0.000593	20.717246
1657.478237	-2.996900	3.308300	-9.913300	26.831614	0.000591	20.719420
1658.478645	-2.987500	3.309000	-9.884800	26.882935	0.000590	20.732617
1659.481139	-2.998200	3.307300	-9.915100	26.913229	0.000591	20.718507
1660.479422	-3.039300	3.305800	-10.045000	26.948747	0.000589	20.698746
1661.480951	-2.995600	3.307200	-9.906200	26.929341	0.000587	20.721907
1662.480411	-2.985300	3.306000	-9.867500	26.968820	0.000588	20.705655
1663.479492	-3.003900	3.305200	-9.927500	26.949764	0.000587	20.705458
1664.482501	-2.992100	3.306000	-9.890500	26.965659	0.000585	20.697734
1665.483732	-2.966700	3.306400	-9.807900	27.002584	0.000587	20.716375
1666.481229	-3.005700	3.304700	-9.932000	27.021437	0.000586	20.722058
1667.480278	-3.017800	3.304800	-9.972600	27.016330	0.000585	20.729726
1668.480704	-2.996800	3.304900	-9.902500	27.010236	0.000586	20.694672
1669.481621	-3.007500	3.303400	-9.933800	26.984181	0.000584	20.715413
1670.484445	-3.014800	3.303000	-9.955800	26.958175	0.000584	20.710597
1671.480316	-3.018000	3.302600	-9.966200	26.928608	0.000583	20.715954
1672.483163	-3.009000	3.302800	-9.937100	26.921217	0.000581	20.721799
1673.481373	-2.994800	3.302800	-9.890800	26.879764	0.000581	20.714254
1674.487244	-3.000700	3.303200	-9.911000	26.868568	0.000580	20.712480
1675.485166	-3.019400	3.301100	-9.965600	26.909090	0.000579	20.706758
1676.482917	-3.003800	3.301600	-9.916700	26.879212	0.000580	20.725554
1677.482819	-3.004600	3.301400	-9.918300	26.891441	0.000579	20.710348
1678.483784	-3.009700	3.301000	-9.933700	26.927676	0.000579	20.703636
1679.484086	-2.997900	3.298900	-9.888500	26.967357	0.000577	20.720780
1680.484392	-3.009200	3.299000	-9.926300	27.015800	0.000576	20.696948
1681.484577	-2.988400	3.299500	-9.859100	26.977130	0.000578	20.723021
1682.485767	-2.977800	3.298500	-9.821700	26.940572	0.000578	20.706172
1683.488087	-2.985300	3.300100	-9.850600	26.930523	0.000574	20.720250
1684.488134	-3.026600	3.297500	-9.977500	26.949035	0.000575	20.707570
1685.487741	-3.015400	3.296400	-9.938400	26.972408	0.000574	20.720169
1686.491866	-2.989100	3.296600	-9.853200	26.988813	0.000574	20.739038
1687.488130	-3.012200	3.295800	-9.925500	27.025265	0.000574	20.727806
1688.488431	-3.005400	3.295700	-9.903600	27.039232	0.000570	20.728575
1689.488634	-2.993400	3.295000	-9.861100	27.064471	0.000571	20.713654
1690.488688	-3.009200	3.294900	-9.912900	27.088939	0.000569	20.726882
1691.491881	-3.024300	3.294100	-9.961800	27.101190	0.000570	20.721659
1692.493776	-3.006200	3.294800	-9.904200	27.114788	0.000569	20.712101
1693.495355	-2.998700	3.293700	-9.876100	27.108960	0.000570	20.719990
1694.490802	-2.998400	3.293800	-9.875300	27.118958	0.000567	20.704441
1695.492158	-2.984100	3.294300	-9.829300	27.114024	0.000569	20.735990
1696.492106	-2.993600	3.293200	-9.857500	27.138734	0.000568	20.735712
1697.493431	-2.985900	3.293100	-9.831900	27.144336	0.000567	20.723327
1698.491845	-3.006600	3.291100	-9.894000	27.165697	0.000565	20.736752
1699.497005	-3.003100	3.292500	-9.887100	27.130193	0.000565	20.725224
1700.492507	-2.997300	3.293300	-9.870500	27.086948	0.000566	20.735312
1701.491544	-2.986600	3.292400	-9.831300	27.033127	0.000564	20.729548
1702.495691	-3.013800	3.289400	-9.912600	26.985450	0.000564	20.731388
1703.492162	-3.008800	3.290800	-9.900400	26.944379	0.000564	20.729917
1704.491612	-3.002600	3.290000	-9.878200	26.899534	0.000561	20.721332
1705.494025	-2.995800	3.291400	-9.858600	26.880452	0.000561	20.744346
1706.493734	-2.994400	3.290100	-9.851500	26.879453	0.000559	20.727219
1707.493494	-3.013800	3.287500	-9.906900	26.816686	0.000562	20.734283
1708.494818	-2.996100	3.288300	-9.850300	26.778298	0.000559	20.718919
1709.494429	-3.001600	3.287600	-9.866400	26.789487	0.000559	20.737282
1710.494133	-2.993200	3.288900	-9.843600	26.822897	0.000558	20.734838
1711.494386	-3.012100	3.287100	-9.901000	26.860402	0.000559	20.731297
1712.494117	-3.004800	3.287400	-9.877100	26.886006	0.000558	20.730964
1713.496532	-2.979900	3.287700	-9.796000	26.902290	0.000557	20.704662
1714.496155	-3.010800	3.287800	-9.897600	26.898420	0.000557	20.738231
1715.499501	-3.002500	3.286300	-9.866600	26.845434	0.000554	20.736162
1716.498990	-2.998400	3.286800	-9.853600	26.833125	0.000555	20.742751
1717.498985	-2.990600	3.284800	-9.822400	26.826369	0.000555	20.743071
1718.500880	-3.011700	3.285700	-9.894800	26.810206	0.000553	20.757166
1719.499726	-3.020800	3.283700	-9.917500	26.802147	0.000553	20.714448
1720.499783	-2.973700	3.283700	-9.763600	26.788520	0.000552	20.716394
1721.498789	-2.992400	3.282900	-9.822400	26.812099	0.000552	20.721136
1722.501118	-2.972600	3.283800	-9.760700	26.845459	0.000551	20.736661
1723.497590	-2.983500	3.283700	-9.795800	26.820441	0.000549	20.731894
1724.503931	-3.023600	3.281700	-9.920800	26.860996	0.000551	20.734739
1725.498813	-2.986800	3.282300	-9.802200	26.881175	0.000548	20.727528
1726.501945	-2.993200	3.281700	-9.821700	26.913265	0.000549	20.747942
1727.498782	-2.995500	3.281400	-9.828600	26.943345	0.000547	20.730774
1728.499483	-3.001000	3.281000	-9.845500	27.005462	0.000546	20.734918
1729.505441	-2.991800	3.281500	-9.817400	27.067520	0.000546	20.737110
1730.500947	-2.999700	3.280900	-9.841200	27.094296	0.000546	20.737486
1731.503245	-3.017900	3.280000	-9.897400	27.122461	0.000546	20.745424
1732.501068	-3.023700	3.279700	-9.914600	27.122663	0.000544	20.742783
1733.502985	-3.030800	3.278500	-9.934500	27.113179	0.000545	20.724233
1734.502175	-3.008100	3.278300	-9.860700	27.155364	0.000544	20.744851
1735.505397	-2.992300	3.277800	-9.806900	27.167792	0.000543	20.747869
1736.502285	-3.024300	3.278100	-9.913300	27.121291	0.000541	20.724332
1737.501688	-3.011500	3.277400	-9.868900	27.115462	0.000542	20.735066
1738.502746	-3.002700	3.278400	-9.843600	27.095343	0.000540	20.747075
1739.501673	-2.997300	3.277700	-9.823500	27.072633	0.000540	20.738933
1740.506196	-2.988000	3.278100	-9.794100	27.104595	0.000540	20.730774
1741.501842	-2.989800	3.275200	-9.791700	27.119828	0.000539	20.752259
1742.506768	-2.975200	3.275800	-9.745200	27.144870	0.000540	20.750419
1743.503731	-3.010600	3.275000	-9.859400	27.118015	0.000539	20.762765
1744.503893	-2.997400	3.275100	-9.815900	27.124071	0.000536	20.748466
1745.504876	-2.995200	3.274400	-9.806400	27.163109	0.000535	20.744107
1746.503523	-2.990400	3.274200	-9.788400	27.197785	0.000534	20.732990
1747.506445	-3.008000	3.274000	-9.846500	27.221624	0.000535	20.752702
1748.505154	-3.013400	3.272900	-9.861700	27.222469	0.000535	20.743594
1749.506169	-2.997900	3.272400	-9.809400	27.250980	0.000535	20.730071
1750.506621	-3.015700	3.273700	-9.871900	27.290398	0.000534	20.773042
1751.508903	-3.009500	3.272100	-9.846800	27.313030	0.000535	20.752185
1752.506714	-3.013800	3.271800	-9.860100	27.323027	0.000533	20.757974
1753.506958	-3.009900	3.272100	-9.847700	27.360679	0.000532	20.737054
1754.508765	-2.989500	3.272200	-9.781600	27.358940	0.000532	20.757117
1755.508733	-3.030100	3.270700	-9.908200	27.344622	0.000531	20.765473
1756.510387	-3.003100	3.270700	-9.820100	27.331173	0.000529	20.759530
1757.508038	-2.994700	3.269300	-9.789400	27.327451	0.000532	20.758157
1758.511827	-2.985400	3.269000	-9.758700	27.312943	0.000530	20.746408
1759.509105	-3.014500	3.268900	-9.851600	27.327224	0.000527	20.767886
1760.518325	-2.994400	3.270100	-9.790800	27.313506	0.000527	20.767837
1761.511775	-3.023400	3.268700	-9.881500	27.315618	0.000528	20.747676
1762.513255	-2.981000	3.267800	-9.740600	27.345680	0.000526	20.753735
1763.510025	-2.998500	3.267600	-9.796800	27.368678	0.000525	20.765016
1764.509939	-3.019100	3.266200	-9.859700	27.368978	0.000525	20.750145
1765.510827	-3.021000	3.265600	-9.864400	27.375228	0.000524	20.772080
1766.511591	-3.019100	3.266200	-9.860000	27.321641	0.000524	20.764166
1767.516157	-2.983000	3.265100	-9.737200	27.322633	0.000522	20.768009
1768.512156	-2.979400	3.266200	-9.730800	27.301624	0.000523	20.755884
1769.521414	-2.989600	3.266100	-9.763600	27.272123	0.000524	20.767935
1770.513831	-2.994500	3.264900	-9.775300	27.272472	0.000521	20.754061
1771.515096	-3.007900	3.263500	-9.815300	27.287280	0.000522	20.765164
1772.517611	-3.010500	3.263200	-9.822800	27.298673	0.000520	20.762874
1773.516922	-2.999500	3.263000	-9.786100	27.274326	0.000520	20.752133
1774.515337	-3.015000	3.262800	-9.836100	27.302168	0.000520	20.774451
1775.514389	-2.977400	3.263700	-9.716100	27.314368	0.000519	20.773446
1776.513782	-3.004600	3.262200	-9.800200	27.343047	0.000516	20.771950
1777.516642	-3.016900	3.262400	-9.841000	27.334661	0.000516	20.766832
1778.518089	-3.012700	3.261400	-9.824400	27.319675	0.000517	20.751757
1779.517622	-2.985400	3.261500	-9.735600	27.309501	0.000515	20.765705
1780.519811	-3.010900	3.260000	-9.814500	27.312158	0.000514	20.775016
1781.517874	-2.986700	3.261900	-9.741800	27.318115	0.000515	20.751610
1782.518522	-3.012800	3.259600	-9.819100	27.353239	0.000512	20.779832
1783.520874	-3.016300	3.258100	-9.826400	27.369736	0.000512	20.781728
1784.518594	-2.991300	3.257300	-9.742100	27.448391	0.000511	20.755593
1785.520592	-2.994700	3.259100	-9.759100	27.464544	0.000514	20.786069
1786.518600	-2.984600	3.258700	-9.724800	27.488800	0.000510	20.762109
1787.518960	-3.015500	3.258700	-9.825900	27.494853	0.000511	20.782898
1788.518528	-2.987800	3.257600	-9.732700	27.514151	0.000510	20.762484
1789.522547	-2.989000	3.258000	-9.736900	27.494081	0.000510	20.768371
1790.518683	-2.985400	3.256800	-9.722500	27.507871	0.000507	20.780348
1791.519722	-3.011200	3.256600	-9.805000	27.503158	0.000507	20.758537
1792.520096	-3.008700	3.256100	-9.795200	27.489418	0.000507	20.767472
1793.520534	-2.996500	3.257000	-9.758700	27.497901	0.000509	20.782171
1794.523413	-3.028500	3.255000	-9.856200	27.509065	0.000505	20.772066
1795.520768	-3.018300	3.254900	-9.823600	27.500208	0.000504	20.784967
1796.526512	-3.021600	3.252900	-9.828000	27.498047	0.000505	20.766671
1797.522210	-3.035100	3.253900	-9.875000	27.524763	0.000505	20.764627
1798.521578	-2.999400	3.253700	-9.757200	27.483884	0.000502	20.786561
1799.522877	-2.993000	3.254700	-9.740100	27.426183	0.000503	20.794418
1800.522428	-3.012800	3.252500	-9.798300	27.383220	0.000502	20.786758
1801.523403	-3.013400	3.252300	-9.799200	27.321131	0.000501	20.784043
1802.523144	-3.013000	3.252600	-9.799300	27.267909	0.000502	20.779344
1803.523886	-2.996300	3.252600	-9.744400	27.257594	0.000499	20.797892
1804.524963	-2.992700	3.250900	-9.727200	27.293443	0.000498	20.770415
1805.526455	-2.991000	3.252100	-9.725300	27.313736	0.000499	20.770440
1806.526967	-3.014100	3.249900	-9.793800	27.304578	0.000498	20.791573
1807.531248	-3.007400	3.250700	-9.775800	27.272256	0.000497	20.784665
1808.526059	-2.991200	3.251700	-9.725400	27.303293	0.000497	20.802609
1809.526889	-2.975800	3.253000	-9.679400	27.325838	0.000497	20.790674
1810.529088	-3.002200	3.249600	-9.754000	27.344643	0.000494	20.788729
1811.526286	-2.988300	3.249300	-9.709300	27.310412	0.000494	20.778476
1812.527140	-3.004600	3.248600	-9.759200	27.313590	0.000493	20.789259
1813.528015	-2.964600	3.249400	-9.631800	27.341368	0.000493	20.795391
1814.526854	-2.995300	3.247400	-9.725800	27.319864	0.000492	20.776604
1815.530594	-2.991700	3.247000	-9.713300	27.321327	0.000493	20.802732
1816.529459	-2.975700	3.247300	-9.661600	27.312909	0.000491	20.784307
1817.528661	-2.998600	3.247100	-9.734300	27.311697	0.000490	20.793993
1818.526433	-2.983900	3.247100	-9.687500	27.353714	0.000489	20.807811
1819.527850	-3.002800	3.246600	-9.747400	27.359224	0.000490	20.792016
1820.543154	-3.019000	3.244800	-9.794500	27.355851	0.000489	20.796684
1821.529883	-3.001500	3.245300	-9.740000	27.323101	0.000486	20.812577
1822.533830	-3.006500	3.243700	-9.750800	27.297218	0.000486	20.791282
1823.534325	-3.006900	3.243200	-9.749300	27.271250	0.000486	20.819215
1824.530428	-3.011000	3.243700	-9.765900	27.261449	0.000486	20.811727
1825.531073	-3.001900	3.242900	-9.734200	27.299551	0.000485	20.813543
1826.535445	-3.003800	3.243700	-9.742800	27.308426	0.000483	20.819626
1827.531534	-2.998700	3.243100	-9.724300	27.309792	0.000485	20.797292
1828.531036	-2.989600	3.241200	-9.689100	27.338642	0.000482	20.796442
1829.530537	-2.997500	3.243200	-9.718700	27.370540	0.000482	20.805296
1830.532410	-3.011400	3.239600	-9.755100	27.364615	0.000481	20.814509
1831.531912	-2.986300	3.241300	-9.678600	27.379244	0.000478	20.800776
1832.534654	-3.009600	3.240600	-9.751800	27.401875	0.000480	20.809792
1833.535234	-2.993100	3.240200	-9.697600	27.405160	0.000477	20.809304
1834.533608	-3.036900	3.239400	-9.836300	27.398097	0.000480	20.826380
1835.535347	-3.014700	3.239600	-9.765600	27.387030	0.000477	20.807186
1836.535490	-2.997800	3.238200	-9.706400	27.427661	0.000478	20.801121
1837.537504	-3.009700	3.237800	-9.743700	27.414636	0.000475	20.823104
1838.534475	-2.976500	3.238700	-9.638200	27.424338	0.000477	20.801570
1839.537120	-2.984700	3.238300	-9.662900	27.478213	0.000474	20.795554
1840.536424	-3.006300	3.238000	-9.733500	27.479546	0.000475	20.822026
1841.537170	-2.995800	3.236600	-9.694800	27.499382	0.000475	20.804999
1842.540149	-2.995700	3.236800	-9.695400	27.532298	0.000473	20.823417
1843.539279	-3.004500	3.236500	-9.723300	27.554049	0.000471	20.818749
1844.537654	-3.014100	3.235900	-9.752600	27.562532	0.000471	20.816378
1845.537965	-3.001700	3.233400	-9.704600	27.525480	0.000470	20.823669
1846.537944	-3.002500	3.236400	-9.716300	27.487967	0.000468	20.829549
1847.538365	-3.001100	3.235900	-9.709200	27.465547	0.000469	20.814106
1848.540505	-2.994900	3.234500	-9.685700	27.494369	0.000468	20.827456
1849.539257	-3.013400	3.233400	-9.742200	27.535688	0.000468	20.823508
1850.542885	-2.995800	3.233100	-9.685000	27.580384	0.000467	20.810158
1851.538794	-3.003800	3.231700	-9.707100	27.602507	0.000467	20.822461
1852.538504	-3.002500	3.231100	-9.700300	27.613524	0.000464	20.832597
1853.541313	-2.986500	3.232300	-9.651200	27.653804	0.000465	20.823817
1854.539329	-3.001700	3.232300	-9.701800	27.658509	0.000465	20.825707
1855.538312	-2.977600	3.230700	-9.618700	27.672555	0.000463	20.837943
1856.539890	-3.005300	3.229200	-9.703500	27.730560	0.000463	20.846052
1857.541078	-2.981400	3.229400	-9.627000	27.753763	0.000462	20.846168
1858.541415	-2.978300	3.230500	-9.620800	27.754963	0.000463	20.812764
1859.544573	-2.983800	3.229800	-9.636100	27.781048	0.000462	20.850393
1860.541513	-2.993000	3.229300	-9.664000	27.763119	0.000459	20.834722
1861.540473	-2.998000	3.227400	-9.674700	27.746953	0.000459	20.812290
1862.541544	-3.002400	3.227300	-9.688600	27.736214	0.000458	20.839888
1863.541525	-3.004600	3.226300	-9.692900	27.711810	0.000457	20.841883
1864.551428	-2.974200	3.227500	-9.598400	27.670694	0.000457	20.844605
1865.542169	-2.987800	3.226600	-9.639800	27.640879	0.000456	20.832622
1866.544106	-3.032800	3.225600	-9.781500	27.630041	0.000455	20.834518
1867.542686	-3.025800	3.226000	-9.760000	27.601963	0.000455	20.857000
1868.543195	-2.995200	3.226600	-9.663200	27.588052	0.000455	20.844426
1869.543071	-3.042600	3.224700	-9.810600	27.581853	0.000453	20.850042
1870.544342	-3.006900	3.224300	-9.694400	27.634655	0.000452	20.846748
1871.544118	-3.006800	3.222800	-9.689100	27.648792	0.000451	20.849592
1872.542829	-2.997200	3.224800	-9.663500	27.644324	0.000451	20.835140
1873.544650	-3.012900	3.221900	-9.706000	27.590953	0.000450	20.833595
1874.544245	-3.018600	3.222000	-9.725200	27.592171	0.000449	20.851889
1875.546690	-3.003400	3.221800	-9.675000	27.628676	0.000449	20.845947
1876.545537	-3.016400	3.221800	-9.717000	27.647060	0.000449	20.851643
1877.545723	-2.978100	3.221200	-9.591800	27.633744	0.000448	20.849150
1878.544553	-3.009900	3.221800	-9.695800	27.659850	0.000448	20.834641
1879.545227	-2.990200	3.221500	-9.631700	27.657574	0.000445	20.852739
1880.551221	-3.003500	3.220000	-9.670400	27.718854	0.000446	20.860350
1881.544710	-3.004900	3.219900	-9.674200	27.725052	0.000445	20.846200
1882.549325	-2.976800	3.220700	-9.586100	27.732867	0.000444	20.851693
1883.547124	-3.008700	3.221700	-9.692200	27.752331	0.000444	20.853737
1884.545305	-3.000000	3.218400	-9.654100	27.793867	0.000444	20.858078
1885.546880	-2.998100	3.218200	-9.648000	27.807903	0.000443	20.858453
1886.550915	-2.981400	3.217600	-9.590700	27.843709	0.000440	20.851816
1887.547610	-3.011800	3.217500	-9.689100	27.837187	0.000439	20.843355
1888.547606	-2.996300	3.216700	-9.637000	27.755734	0.000440	20.858109
1889.548782	-3.004800	3.217000	-9.664500	27.718040	0.000439	20.861428
1890.546992	-2.999900	3.216300	-9.647400	27.625255	0.000436	20.853884
1891.552350	-2.997600	3.215600	-9.638600	27.631981	0.000438	20.868238
1892.547728	-2.986600	3.217100	-9.606700	27.632899	0.000437	20.857308
1893.556074	-3.000000	3.214700	-9.642500	27.669776	0.000433	20.847949
1894.550275	-3.018700	3.214200	-9.701900	27.690436	0.000435	20.884383
1895.552023	-2.993900	3.212700	-9.617400	27.644833	0.000432	20.849877
1896.553216	-2.995900	3.212700	-9.622700	27.672206	0.000433	20.858927
1897.551953	-3.007500	3.212400	-9.659400	27.682450	0.000433	20.861175
1898.553057	-2.973200	3.214900	-9.557600	27.707050	0.000430	20.863170
1899.553389	-2.980000	3.213800	-9.575000	27.743208	0.000429	20.853564
1900.553641	-2.986000	3.212600	-9.591200	27.769024	0.000428	20.855363
1901.553395	-3.003100	3.211400	-9.642400	27.773736	0.000426	20.863897
1902.553299	-2.983500	3.212200	-9.582800	27.747424	0.000428	20.857807
1903.552717	-2.987400	3.210600	-9.590100	27.744395	0.000428	20.841957
1904.553690	-2.975000	3.210500	-9.550500	27.766637	0.000427	20.840159
1905.553674	-2.991000	3.211300	-9.603700	27.790966	0.000425	20.846625
1906.553517	-2.972800	3.209700	-9.541000	27.811194	0.000425	20.851335
1907.557126	-3.000900	3.210600	-9.634500	27.857665	0.000424	20.881032
1908.558040	-2.998900	3.210100	-9.625100	27.867705	0.000423	20.857474
1909.558032	-2.975200	3.209300	-9.547500	27.879790	0.000423	20.848300
1910.555779	-3.005400	3.207600	-9.639300	27.912858	0.000422	20.834167
1911.554941	-2.984800	3.207500	-9.572900	27.939679	0.000421	20.852153
1912.555903	-2.983600	3.209200	-9.574300	27.984438	0.000421	20.862591
1913.557707	-2.963300	3.207200	-9.503400	27.985282	0.000420	20.827406
1914.556313	-2.986400	3.206600	-9.574500	27.981532	0.000419	20.835010
1915.556314	-2.958300	3.207600	-9.487300	27.955598	0.000417	20.853951
1916.555787	-3.017300	3.206400	-9.673900	27.915151	0.000418	20.842165
1917.557435	-2.997800	3.204300	-9.605100	27.890012	0.000415	20.840570
1918.560404	-2.986900	3.204800	-9.571500	27.876496	0.000413	20.837873
1919.555704	-3.019300	3.202900	-9.668500	27.865978	0.000414	20.832977
1920.560999	-2.961400	3.203200	-9.485100	27.853932	0.000414	20.835077
1921.557858	-2.978700	3.204300	-9.542700	27.872679	0.000412	20.848255
1922.558495	-2.976300	3.205100	-9.538800	27.916111	0.000411	20.851665
1923.560600	-2.979400	3.202500	-9.540000	27.973063	0.000410	20.826487
1924.559120	-2.975600	3.201700	-9.526300	27.923966	0.000414	20.844399
1925.558336	-3.001500	3.201500	-9.607100	27.896723	0.000410	20.836419
1926.557634	-3.013300	3.201500	-9.645400	27.901256	0.000408	20.854731
1927.557935	-3.008900	3.200100	-9.627600	27.953767	0.000406	20.831720
1928.559565	-2.985300	3.200600	-9.554400	27.895278	0.000407	20.855353
1929.560662	-3.020700	3.200600	-9.666100	27.913051	0.000405	20.820137
1930.557894	-3.000700	3.198500	-9.596200	27.865738	0.000404	20.838899
1931.559580	-3.017700	3.198300	-9.650200	27.825228	0.000403	20.812828
1932.559927	-3.017000	3.198200	-9.647200	27.782469	0.000404	20.815315
1933.560558	-2.974900	3.198700	-9.513800	27.774955	0.000404	20.818659
1934.563435	-2.999000	3.197900	-9.588500	27.816717	0.000403	20.809952
1935.563067	-2.989200	3.197200	-9.555700	27.817352	0.000400	20.836669
1936.562712	-2.979700	3.199100	-9.531700	27.837017	0.000401	20.832279
1937.564166	-2.971300	3.196700	-9.496800	27.830568	0.000400	20.808720
1938.563544	-2.995200	3.195900	-9.570700	27.886429	0.000398	20.825585
1939.565540	-2.996800	3.195600	-9.575600	27.884796	0.000398	20.822519
1940.566738	-3.009300	3.194500	-9.612200	27.898856	0.000395	20.839040
1941.565037	-3.002700	3.195000	-9.592000	27.932223	0.000396	20.815727
1942.563596	-2.978000	3.194900	-9.513500	27.954169	0.000395	20.823590
1943.566378	-3.024600	3.191500	-9.652100	27.991530	0.000395	20.819471
1944.567059	-2.997500	3.193700	-9.572200	27.983871	0.000395	20.826460
1945.569196	-2.992500	3.192300	-9.551800	27.952578	0.000393	20.823885
1946.568036	-3.001200	3.191900	-9.578300	27.932297	0.000391	20.809162
1947.568810	-2.999500	3.193100	-9.576100	27.930412	0.000392	20.812481
1948.568585	-2.997800	3.192600	-9.570100	27.933239	0.000390	20.825757
1949.568386	-3.001100	3.192200	-9.577400	27.898451	0.000390	20.819193
1950.569770	-3.008000	3.190500	-9.596500	27.880916	0.000389	20.799174
1951.568133	-3.030600	3.190200	-9.667300	27.875985	0.000387	20.808435
1952.569351	-2.978400	3.188800	-9.496100	27.893287	0.000388	20.819211
1953.569958	-3.008100	3.189200	-9.592300	27.911140	0.000386	20.825800
1954.571094	-2.997800	3.187100	-9.553600	27.917540	0.000385	20.813275
1955.573174	-3.019400	3.188800	-9.627600	27.890851	0.000385	20.829562
1956.570152	-3.007200	3.187300	-9.584300	27.883638	0.000385	20.824198
1957.572438	-3.008500	3.186800	-9.586900	27.897642	0.000382	20.787559
1958.571720	-3.002000	3.187500	-9.568200	27.914577	0.000380	20.791328
1959.572168	-2.989700	3.185500	-9.522100	27.933697	0.000382	20.785915
1960.573413	-2.999000	3.187900	-9.558300	27.992525	0.000381	20.820946
1961.574219	-3.019800	3.185100	-9.615700	28.023192	0.000380	20.819573
1962.579153	-3.004900	3.185900	-9.572000	27.996562	0.000376	20.797984
1963.573503	-3.014400	3.185100	-9.598600	27.995749	0.000378	20.805700
1964.573418	-2.971400	3.184600	-9.462100	28.018078	0.000375	20.801148
1965.573326	-2.987600	3.182600	-9.506600	28.035537	0.000375	20.809240
1966.578560	-2.990800	3.183200	-9.519600	28.049669	0.000377	20.794067
1967.574068	-2.989400	3.183600	-9.515600	28.089284	0.000376	20.808341
1968.578843	-2.995800	3.182300	-9.532200	28.082585	0.000375	20.804917
1969.575203	-3.004900	3.182500	-9.562100	28.116693	0.000373	20.807485
1970.575114	-3.010800	3.181700	-9.578400	28.127722	0.000374	20.788241
1971.577889	-3.008000	3.181600	-9.569000	28.162973	0.000372	20.816142
1972.575987	-2.998300	3.180300	-9.533500	28.144189	0.000370	20.826155
1973.576066	-2.998000	3.179800	-9.532400	28.108417	0.000368	20.806740
1974.577681	-2.990600	3.179900	-9.507900	28.054788	0.000368	20.807281
1975.577245	-2.987800	3.180300	-9.501500	28.034693	0.000367	20.795588
1976.578745	-3.000100	3.179300	-9.537000	28.005677	0.000366	20.791985
1977.581796	-2.979900	3.179300	-9.473000	28.033004	0.000367	20.790569
1978.579748	-3.000200	3.177000	-9.530000	28.056385	0.000364	20.783285
1979.583800	-2.977300	3.177400	-9.458800	28.060862	0.000365	20.807232
1980.580207	-2.980600	3.176600	-9.466100	28.117042	0.000365	20.793137
1981.581131	-3.007400	3.174900	-9.546900	28.121403	0.000363	20.793260
1982.581604	-2.982800	3.178400	-9.479200	28.107346	0.000363	20.776264
1983.580502	-2.989100	3.174600	-9.488400	28.139601	0.000361	20.789769
1984.579630	-3.020100	3.174000	-9.583800	28.168252	0.000361	20.814344
1985.580677	-3.008500	3.174200	-9.549300	28.212621	0.000358	20.814917
1986.581958	-2.996500	3.175400	-9.512800	28.205807	0.000359	20.790988
1987.581966	-3.003100	3.173000	-9.528000	28.226756	0.000358	20.795009
1988.595921	-2.986500	3.173900	-9.477300	28.229226	0.000358	20.791332
1989.582510	-2.996200	3.172900	-9.505600	28.219392	0.000357	20.823630
1990.584161	-3.003600	3.172400	-9.526900	28.225685	0.000355	20.795353
1991.584471	-3.029900	3.170800	-9.606600	28.261282	0.000355	20.787096
1992.584906	-3.016000	3.170000	-9.559300	28.314528	0.000355	20.792343
1993.586066	-3.012200	3.169500	-9.546000	28.339682	0.000354	20.785902
1994.587818	-2.984900	3.169600	-9.459700	28.346819	0.000353	20.802097
1995.586984	-3.018300	3.169400	-9.564900	28.333676	0.000353	20.783173
1996.585390	-3.001800	3.168300	-9.509400	28.273331	0.000350	20.795434
1997.585264	-3.004900	3.168200	-9.519200	28.203777	0.000350	20.780409
1998.589498	-3.025300	3.166600	-9.578700	28.170233	0.000350	20.785045
1999.592473	-3.015500	3.166900	-9.547400	28.131337	0.000347	20.805156
2000.592982	-2.989600	3.168100	-9.470100	28.072882	0.000346	20.792779
2001.586264	-3.028300	3.165100	-9.583400	28.031113	0.000348	20.787244
2002.587042	-2.991100	3.167900	-9.475000	28.014791	0.000345	20.784090
2003.584998	-2.996400	3.165400	-9.483900	28.004581	0.000346	20.797046
2004.589610	-3.003000	3.163700	-9.499700	28.022830	0.000345	20.789337
2005.587341	-3.012500	3.164500	-9.532000	28.009494	0.000345	20.789664
2006.593837	-2.991400	3.164100	-9.464000	28.012320	0.000341	20.795828
2007.588059	-2.994900	3.163500	-9.473500	27.949693	0.000343	20.798697
2008.586972	-3.009200	3.161800	-9.513200	27.961997	0.000340	20.772200
2009.591916	-2.992100	3.162700	-9.462300	27.955451	0.000339	20.791216
2010.586477	-2.972300	3.161500	-9.395500	27.933310	0.000338	20.786474
2011.588548	-2.993700	3.160300	-9.460400	27.922230	0.000339	20.789547
2012.586732	-3.006900	3.159900	-9.499800	27.919997	0.000339	20.774971
2013.586635	-3.018800	3.158900	-9.534000	27.954215	0.000337	20.780963
2014.589963	-2.991800	3.159100	-9.450500	27.979984	0.000337	20.794573
2015.589934	-2.982800	3.160100	-9.425200	28.041888	0.000336	20.753992
2016.590248	-2.991100	3.159400	-9.449300	28.062142	0.000337	20.766794
2017.591083	-2.992600	3.158600	-9.451600	28.031727	0.000333	20.782645
2018.590906	-2.994700	3.157000	-9.453300	28.003391	0.000333	20.775933
2019.591399	-2.982400	3.157200	-9.414600	28.034333	0.000332	20.786691
2020.591952	-3.003700	3.156300	-9.479400	28.021371	0.000331	20.785971
2021.592632	-3.000100	3.155700	-9.466500	28.031392	0.000331	20.771876
2022.593266	-3.010400	3.155700	-9.498400	28.061018	0.000330	20.759973
2023.592069	-3.008000	3.154800	-9.489200	28.053555	0.000329	20.782332
2024.592268	-2.984100	3.155500	-9.415300	28.049573	0.000329	20.764099
2025.597167	-3.006900	3.154500	-9.484300	28.050760	0.000329	20.764820
2026.592941	-2.986800	3.152900	-9.415900	28.058596	0.000329	20.773657
2027.594461	-2.973600	3.154500	-9.379500	28.018216	0.000327	20.778054
2028.592694	-2.998200	3.151500	-9.448400	28.026028	0.000326	20.777383
2029.592958	-3.003600	3.153400	-9.471400	27.996107	0.000327	20.770973
2030.592402	-3.001500	3.151100	-9.456900	28.007633	0.000323	20.779729
2031.601372	-3.026600	3.150800	-9.535000	27.995148	0.000324	20.774748
2032.593263	-2.996800	3.149200	-9.436600	27.982129	0.000322	20.779188
2033.595825	-2.970100	3.151200	-9.358700	28.031199	0.000321	20.764569
2034.594809	-3.005100	3.148100	-9.458900	28.052298	0.000323	20.774903
2035.593562	-2.990200	3.148400	-9.413700	28.055741	0.000321	20.782163
2036.597356	-2.989000	3.148900	-9.411700	28.097198	0.000320	20.753245
2037.594531	-2.990400	3.146700	-9.409300	28.153499	0.000319	20.764878
2038.598372	-3.009100	3.146200	-9.466200	28.195367	0.000318	20.759139
2039.594984	-2.998200	3.145600	-9.429700	28.224769	0.000314	20.761239
2040.595053	-3.011100	3.144000	-9.465900	28.235154	0.000315	20.777860
2041.597272	-2.982800	3.145100	-9.379700	28.207123	0.000314	20.790416
2042.595414	-2.985800	3.146100	-9.392800	28.186945	0.000315	20.771998
2043.594652	-3.028200	3.142800	-9.515700	28.219075	0.000315	20.769258
2044.596126	-2.994700	3.142800	-9.411000	28.253106	0.000313	20.754682
2045.594681	-2.990300	3.141900	-9.393700	28.281087	0.000313	20.769103
2046.595489	-3.028800	3.140600	-9.510200	28.268874	0.000313	20.769135
2047.596760	-3.014300	3.141500	-9.468100	28.240066	0.000309	20.753881
2048.596968	-3.025700	3.139600	-9.498800	28.295612	0.000313	20.767607
2049.596479	-3.009100	3.138600	-9.443600	28.317648	0.000310	20.746645
2050.595947	-3.008700	3.139900	-9.446300	28.312255	0.000312	20.748802
2051.596256	-3.002900	3.139100	-9.425300	28.346827	0.000308	20.760378
2052.600651	-3.009900	3.137400	-9.441900	28.328015	0.000307	20.772257
2053.596326	-3.025500	3.136300	-9.488000	28.337384	0.000308	20.738068
2054.599760	-3.018200	3.137300	-9.468400	28.341660	0.000307	20.749960
2055.599952	-2.996000	3.137200	-9.397800	28.359694	0.000305	20.749153
2056.596266	-3.008400	3.135100	-9.430800	28.351120	0.000305	20.733407
2057.599254	-3.014200	3.134800	-9.447100	28.317142	0.000303	20.730013
2058.601528	-3.006600	3.133700	-9.420200	28.295430	0.000302	20.761734
2059.597638	-3.036100	3.133200	-9.511800	28.281805	0.000302	20.751808
2060.599777	-3.007400	3.132400	-9.419100	28.227200	0.000303	20.735710
2061.600291	-2.998600	3.132600	-9.391200	28.217652	0.000301	20.755496
2062.599380	-3.027600	3.131800	-9.480700	28.160329	0.000298	20.756107
2063.602953	-3.011900	3.131600	-9.431200	28.126490	0.000299	20.759026
2064.598718	-3.019300	3.130800	-9.450500	28.091960	0.000298	20.764094
2065.603208	-2.989800	3.132000	-9.363600	28.060450	0.000299	20.733796
2066.600028	-2.994900	3.131700	-9.378300	28.048075	0.000296	20.743624
2067.601262	-3.016900	3.127400	-9.433500	28.061783	0.000296	20.735612
2068.604805	-3.013800	3.128600	-9.427500	28.072690	0.000296	20.739479
2069.601614	-2.991600	3.128400	-9.357800	28.096499	0.000293	20.750171
2070.603502	-2.991500	3.126900	-9.353100	28.128472	0.000294	20.736838
2071.602831	-2.995000	3.127200	-9.363100	28.191860	0.000292	20.739486
2072.602916	-2.985500	3.127200	-9.335200	28.214930	0.000292	20.736160
2073.606062	-2.983800	3.127000	-9.328700	28.241433	0.000291	20.744825
2074.604809	-3.000400	3.124800	-9.374600	28.237219	0.000292	20.754333
2075.604046	-2.994100	3.124700	-9.354900	28.206484	0.000290	20.741882
2076.604409	-2.993800	3.124900	-9.354800	28.214735	0.000289	20.754456
2077.604465	-3.000000	3.123300	-9.368400	28.228295	0.000289	20.730649
2078.603903	-2.995100	3.123000	-9.352000	28.202961	0.000288	20.739283
2079.607999	-3.023800	3.120200	-9.432800	28.162010	0.000286	20.730772
2080.603722	-2.997800	3.120300	-9.352600	28.161019	0.000286	20.744474
2081.606601	-2.993100	3.120500	-9.338900	28.185186	0.000285	20.741776
2082.604029	-2.989100	3.121300	-9.329100	28.207004	0.000283	20.745250
2083.614548	-3.014300	3.118400	-9.398900	28.230925	0.000282	20.746100
2084.607343	-2.966900	3.119800	-9.254900	28.191260	0.000283	20.732718
2085.607720	-2.976500	3.117800	-9.279700	28.174305	0.000281	20.729399
2086.606733	-2.994100	3.117900	-9.334400	28.120612	0.000282	20.741727
2087.608916	-2.991100	3.116200	-9.320300	28.134302	0.000283	20.742233
2088.606509	-3.010000	3.115100	-9.375500	28.179859	0.000281	20.753009
2089.607326	-2.982000	3.115700	-9.290100	28.227297	0.000281	20.723954
2090.608500	-3.006700	3.113700	-9.361100	28.262894	0.000279	20.735138
2091.608165	-2.976800	3.114900	-9.271400	28.297248	0.000278	20.725156
2092.609945	-3.011000	3.112500	-9.370400	28.343575	0.000277	20.724860
2093.608620	-2.984700	3.113600	-9.292700	28.390462	0.000275	20.735089
2094.608356	-3.018200	3.111600	-9.390900	28.418488	0.000275	20.746241
2095.609601	-2.987700	3.110800	-9.293500	28.439635	0.000276	20.712057
2096.608651	-2.977900	3.110300	-9.261300	28.490738	0.000274	20.716578
2097.608649	-2.985100	3.109100	-9.280200	28.550460	0.000275	20.738316
2098.609029	-2.994600	3.108300	-9.306300	28.561759	0.000274	20.730255
2099.609293	-3.009100	3.108300	-9.352000	28.570795	0.000271	20.740779
2100.608998	-2.998300	3.108100	-9.316700	28.590747	0.000273	20.728629
2101.610861	-2.976800	3.108400	-9.252200	28.578206	0.000272	20.721214
2102.610894	-3.028400	3.105900	-9.405500	28.557693	0.000270	20.719047
2103.610677	-3.001900	3.104700	-9.318400	28.559771	0.000270	20.724934
2104.610912	-3.006900	3.104600	-9.333800	28.572061	0.000270	20.717396
2105.610346	-3.011100	3.105000	-9.348700	28.581153	0.000269	20.713276
2106.614753	-3.015400	3.103000	-9.356000	28.565672	0.000270	20.740361
2107.611557	-2.994900	3.104100	-9.295100	28.548197	0.000268	20.721337
2108.611857	-3.004200	3.101400	-9.316400	28.517698	0.000266	20.726659
2109.610615	-2.983700	3.102700	-9.256000	28.542345	0.000267	20.712124
2110.610951	-3.010400	3.101100	-9.334700	28.525182	0.000264	20.708590
2111.613937	-2.988500	3.100600	-9.265100	28.490163	0.000265	20.724534
2112.613063	-2.989800	3.099700	-9.266900	28.473683	0.000263	20.710308
2113.611548	-2.982200	3.098600	-9.239700	28.478465	0.000264	20.714650
2114.611626	-2.994500	3.097900	-9.275500	28.507057	0.000264	20.735384
2115.612318	-3.002000	3.096700	-9.294300	28.501836	0.000262	20.714003
2116.612257	-2.982600	3.097300	-9.237200	28.468828	0.000261	20.722489
2117.613659	-3.010100	3.096100	-9.318700	28.459007	0.000261	20.724453
2118.613225	-3.020800	3.096200	-9.351300	28.440211	0.000260	20.715482
2119.616169	-3.017200	3.093400	-9.331200	28.460890	0.000261	20.700270
2120.615217	-3.007500	3.092800	-9.300800	28.490518	0.000261	20.717305
2121.614909	-3.001200	3.092800	-9.281300	28.566338	0.000259	20.704994
2122.617341	-3.016200	3.091300	-9.323000	28.610276	0.000257	20.706097
2123.614433	-2.994200	3.092200	-9.256600	28.602126	0.000256	20.710691
2124.613986	-3.033400	3.087900	-9.366000	28.607395	0.000257	20.725956
2125.614410	-3.006400	3.089900	-9.288400	28.619831	0.000257	20.705763
2126.614848	-2.988800	3.089100	-9.231700	28.655139	0.000255	20.712876
2127.622257	-3.016400	3.088100	-9.313700	28.685121	0.000254	20.680957
2128.618678	-3.006200	3.087100	-9.279100	28.615154	0.000254	20.701527
2129.615955	-2.984000	3.087900	-9.213700	28.578775	0.000253	20.704716
2130.614946	-2.990700	3.085800	-9.227500	28.541166	0.000251	20.709514
2131.615204	-2.986000	3.085900	-9.213600	28.544730	0.000250	20.694136
2132.620224	-3.031400	3.083200	-9.345200	28.515992	0.000250	20.704551
2133.617709	-3.000900	3.083000	-9.250500	28.532795	0.000251	20.685436
2134.615559	-3.002800	3.082100	-9.253400	28.520920	0.000251	20.702401
2135.617882	-2.996900	3.082000	-9.235500	28.514213	0.000249	20.681895
2136.615945	-2.998500	3.081200	-9.238300	28.537301	0.000249	20.711787
2137.618047	-3.004900	3.080400	-9.255400	28.550686	0.000248	20.711516
2138.618821	-3.004200	3.077500	-9.243400	28.616207	0.000247	20.709700
2139.618114	-2.991400	3.078500	-9.208700	28.626833	0.000246	20.683890
2140.617734	-3.017300	3.077100	-9.283100	28.660662	0.000245	20.700894
2141.617705	-3.016600	3.076400	-9.279000	28.659219	0.000246	20.702285
2142.617391	-2.985000	3.076600	-9.182800	28.699784	0.000244	20.715169
2143.617710	-2.997100	3.074900	-9.214800	28.727484	0.000244	20.675737
2144.618450	-2.986900	3.074100	-9.181000	28.757935	0.000242	20.713051
2145.619812	-3.002600	3.073800	-9.228800	28.728157	0.000243	20.666457
2146.619087	-3.007100	3.072900	-9.239500	28.701942	0.000242	20.690788
2147.618721	-2.998700	3.071600	-9.210000	28.742432	0.000243	20.672776
2148.618556	-3.004400	3.070200	-9.223300	28.750581	0.000242	20.669130
2149.622743	-3.001800	3.070700	-9.217200	28.744639	0.000242	20.684009
2150.620740	-3.002300	3.068900	-9.213300	28.774399	0.000240	20.681269
2151.622898	-2.961700	3.069200	-9.088800	28.764953	0.000242	20.704947
2152.621291	-2.991600	3.068400	-9.177900	28.726410	0.000239	20.679871
2153.621930	-2.980200	3.067700	-9.141500	28.692865	0.000239	20.657935
2154.625009	-3.006800	3.064100	-9.212000	28.657809	0.000239	20.689959
2155.627306	-3.007200	3.064700	-9.214700	28.615018	0.000240	20.698070
2156.624105	-2.981700	3.064700	-9.136500	28.567387	0.000239	20.697040
2157.624849	-2.998100	3.062900	-9.182100	28.496820	0.000238	20.701838
2158.624874	-3.017700	3.063600	-9.242100	28.471677	0.000239	20.701649
2159.624648	-3.010800	3.061300	-9.215600	28.430161	0.000238	20.699197
2160.625886	-3.002400	3.059400	-9.184100	28.412463	0.000237	20.684694
2161.624320	-3.024500	3.060000	-9.252800	28.417821	0.000236	20.694831
2162.625312	-3.004900	3.057600	-9.187500	28.417870	0.000237	20.684448
2163.624053	-3.012700	3.056400	-9.207200	28.481802	0.000237	20.695723
2164.623250	-3.006200	3.056800	-9.188900	28.556272	0.000236	20.700072
2165.627027	-3.007700	3.054900	-9.187400	28.648969	0.000234	20.708558
2166.625603	-2.997000	3.055500	-9.155900	28.708650	0.000235	20.684743
2167.624933	-2.993300	3.055900	-9.145300	28.730458	0.000234	20.708133
2168.626073	-3.011200	3.052300	-9.189900	28.763157	0.000234	20.691757
2169.627953	-2.988000	3.052100	-9.118500	28.791473	0.000233	20.687089
2170.627449	-2.992800	3.050700	-9.129500	28.836116	0.000233	20.692706
2171.628774	-3.001400	3.050400	-9.154600	28.857224	0.000233	20.686942
2172.628404	-2.952800	3.052000	-9.009800	28.807404	0.000234	20.684644
2173.628991	-2.989400	3.047600	-9.110000	28.790012	0.000232	20.678979
2174.629004	-2.993300	3.047000	-9.119600	28.759716	0.000231	20.682126
2175.628571	-2.983200	3.045800	-9.085300	28.645074	0.000230	20.702738
2176.635112	-3.000200	3.044600	-9.133700	28.605797	0.000232	20.683092
2177.629908	-3.020600	3.043100	-9.190700	28.555697	0.000229	20.678627
2178.630509	-2.959800	3.043900	-9.008100	28.575478	0.000231	20.697128
2179.628784	-3.031700	3.041400	-9.220200	28.573839	0.000232	20.717764
2180.628654	-3.019100	3.040200	-9.177700	28.644230	0.000227	20.708526
2181.628678	-2.983000	3.039500	-9.065300	28.644830	0.000229	20.686843
2182.631334	-3.009500	3.037800	-9.141000	28.654985	0.000227	20.673836
2183.631217	-2.988000	3.038600	-9.078600	28.611307	0.000226	20.678209
2184.630513	-3.001500	3.036100	-9.111400	28.574487	0.000228	20.699450
2185.631174	-2.962600	3.037600	-8.998200	28.557434	0.000227	20.667099
2186.631551	-3.015100	3.033800	-9.146100	28.543738	0.000227	20.696457
2187.634977	-2.973600	3.033800	-9.020300	28.511673	0.000226	20.710634
2188.631824	-3.005400	3.032700	-9.112600	28.501340	0.000226	20.688371
2189.633567	-3.026900	3.029900	-9.170300	28.509661	0.000225	20.700546
2190.633942	-3.028200	3.030200	-9.174600	28.540523	0.000225	20.696538
2191.632437	-3.012500	3.028000	-9.121200	28.594665	0.000224	20.688002
2192.635005	-3.016200	3.026500	-9.127300	28.561678	0.000225	20.692713
2193.637649	-2.989800	3.027100	-9.049500	28.567603	0.000226	20.703422
2194.637138	-3.031100	3.025500	-9.169900	28.649251	0.000226	20.683710
2195.634687	-3.001000	3.024500	-9.075500	28.692959	0.000225	20.693120
2196.634449	-2.986500	3.023900	-9.030100	28.763244	0.000225	20.695639
2197.634034	-2.967200	3.023800	-8.971200	28.809600	0.000224	20.690651
2198.637673	-2.984100	3.021500	-9.015000	28.852928	0.000224	20.686407
2199.634932	-2.979900	3.020300	-8.999100	28.876681	0.000224	20.693268
2200.639502	-2.991700	3.018700	-9.030400	28.914292	0.000224	20.697967
2201.634761	-3.005300	3.017000	-9.066200	28.948269	0.000225	20.698059
2202.635078	-3.021700	3.016700	-9.114000	28.942353	0.000223	20.719601
2203.637198	-2.992900	3.015900	-9.025500	28.942126	0.000223	20.700405
2204.637747	-3.012900	3.012400	-9.075300	28.956399	0.000223	20.719053
2205.634891	-2.995800	3.013300	-9.026400	29.006162	0.000224	20.708024
2206.635885	-2.991200	3.011900	-9.007700	28.999250	0.000222	20.706749
2207.637812	-2.973200	3.011100	-8.951300	29.025304	0.000223	20.694118
2208.634852	-2.972700	3.009000	-8.944200	29.023000	0.000222	20.691796
2209.637181	-3.019400	3.006900	-9.077600	29.025426	0.000222	20.700405
2210.635813	-2.998300	3.007800	-9.016800	29.026538	0.000220	20.684455
2211.635155	-3.014300	3.004500	-9.056100	29.063446	0.000221	20.708368
2212.635179	-3.037100	3.002100	-9.115000	29.058448	0.000222	20.705702
2213.642176	-2.990500	3.002900	-8.978500	29.087697	0.000219	20.697240
2214.637943	-3.006200	3.001800	-9.022200	29.090123	0.000220	20.689253
2215.636120	-3.007500	3.000400	-9.022100	29.108151	0.000221	20.718326
2216.636456	-2.971100	3.000500	-8.914300	29.102438	0.000218	20.713517
2217.635046	-2.997400	2.999500	-8.987700	29.072590	0.000220	20.695294
2218.636040	-2.983800	2.998000	-8.943800	29.033409	0.000220	20.709871
2219.637845	-2.980100	2.995500	-8.925400	29.042246	0.000218	20.719724
2220.637706	-2.998700	2.994600	-8.979100	29.020152	0.000222	20.708842
2221.635297	-2.986200	2.993200	-8.936700	29.026374	0.000221	20.700412
2222.635916	-3.035700	2.989600	-9.073400	29.075713	0.000220	20.713141
2223.636579	-2.992200	2.992500	-8.952700	29.107583	0.000220	20.706373
2224.638862	-2.980200	2.990700	-8.912300	29.105083	0.000218	20.721873
2225.640911	-3.002600	2.987400	-8.969100	29.127719	0.000219	20.699636
2226.638523	-2.996100	2.986500	-8.947100	29.074228	0.000219	20.714016
2227.639720	-3.015100	2.984200	-8.996100	29.017126	0.000220	20.715751
2228.638494	-2.999200	2.984700	-8.950600	29.000069	0.000218	20.724171
2229.638159	-3.006300	2.983200	-8.967100	28.944926	0.000218	20.712709
2230.637507	-3.016200	2.981600	-8.991500	28.920655	0.000216	20.699162
2231.638266	-2.990900	2.979900	-8.911600	28.910942	0.000218	20.689376
2232.639138	-3.021500	2.978600	-8.998800	28.926620	0.000218	20.710862
2233.639017	-3.012900	2.977300	-8.969400	28.914383	0.000217	20.733148
2234.641213	-2.956600	2.978900	-8.806600	28.924608	0.000216	20.717845
2235.638576	-2.955700	2.976100	-8.794800	28.884059	0.000216	20.723461
2236.642985	-2.941500	2.975600	-8.750600	28.840537	0.000217	20.727033
2237.639911	-2.998200	2.972800	-8.911800	28.775898	0.000216	20.724982
2238.640962	-3.020300	2.970400	-8.970500	28.762198	0.000218	20.713553
2239.641987	-3.014800	2.968200	-8.947800	28.719913	0.000216	20.715530
2240.641230	-3.006000	2.968300	-8.921500	28.739084	0.000216	20.707339
2241.644906	-3.028700	2.964000	-8.974000	28.709508	0.000217	20.702678
2242.641870	-3.003600	2.965200	-8.905600	28.731308	0.000217	20.718948
2243.643794	-3.003100	2.961300	-8.892000	28.724589	0.000215	20.719766
2244.641518	-3.000400	2.960300	-8.880300	28.732494	0.000216	20.703545
2245.642166	-3.001300	2.958800	-8.879500	28.754116	0.000215	20.725326
2246.644520	-3.019800	2.958000	-8.930400	28.819551	0.000215	20.716324
2247.643039	-3.018500	2.956000	-8.921800	28.864064	0.000214	20.717543
2248.644581	-3.038500	2.954100	-8.975100	28.904994	0.000213	20.724164
2249.643089	-3.008100	2.953900	-8.884200	28.927066	0.000216	20.731701
2250.643154	-3.007000	2.951500	-8.873600	28.978567	0.000214	20.717680
2251.645554	-3.034400	2.948200	-8.945000	28.930318	0.000215	20.722175
2252.644764	-2.993600	2.948700	-8.826300	28.883766	0.000214	20.724114
2253.646187	-2.986100	2.949400	-8.805500	28.884041	0.000215	20.709218
2254.645817	-2.985100	2.947300	-8.797800	28.935116	0.000215	20.716102
2255.646101	-3.001400	2.944800	-8.837200	28.909212	0.000214	20.724620
2256.650707	-2.972300	2.945900	-8.754900	28.891401	0.000214	20.725642
2257.647221	-2.971500	2.942500	-8.742200	28.930423	0.000214	20.726074
2258.645987	-3.000200	2.939700	-8.818600	28.945281	0.000214	20.738199
2259.646973	-3.015200	2.938500	-8.859100	28.939163	0.000215	20.741044
2260.645595	-3.005500	2.936100	-8.822700	28.889654	0.000213	20.739056
2261.648118	-3.001900	2.935900	-8.812000	28.863736	0.000214	20.708203
2262.650737	-2.976500	2.933700	-8.731100	28.894580	0.000213	20.731691
2263.647334	-2.989700	2.932600	-8.766700	28.954854	0.000213	20.750215
2264.650123	-2.981800	2.931600	-8.739900	29.011499	0.000213	20.719565
2265.647794	-3.007200	2.929200	-8.807500	29.001989	0.000214	20.731796
2266.648758	-2.998100	2.926000	-8.771700	28.987407	0.000213	20.737493
2267.652913	-2.992200	2.924900	-8.748800	28.979260	0.000215	20.734500
2268.654510	-3.007100	2.922700	-8.787800	28.996000	0.000213	20.747099
2269.651543	-3.013000	2.920400	-8.797400	29.010045	0.000213	20.734697
2270.652458	-2.978600	2.920300	-8.697000	29.025980	0.000214	20.743639
2271.653283	-2.991800	2.918100	-8.729100	29.077469	0.000212	20.731982
2272.653418	-3.023500	2.916000	-8.815600	29.105313	0.000212	20.747710
2273.655887	-3.011600	2.916400	-8.782100	29.099666	0.000211	20.734907
2274.654061	-3.005600	2.913100	-8.755300	29.112549	0.000213	20.735087
2275.659396	-3.010200	2.910800	-8.761500	29.164989	0.000212	20.721072
2276.653498	-3.015800	2.909600	-8.773700	29.217437	0.000212	20.734570
2277.654043	-2.986700	2.907900	-8.684000	29.245149	0.000211	20.738788
2278.658852	-3.007500	2.907400	-8.743100	29.220090	0.000214	20.741511
2279.655517	-2.976400	2.906400	-8.649600	29.227649	0.000213	20.736326
2280.655642	-2.987000	2.903200	-8.669400	29.218141	0.000211	20.702086
2281.654803	-3.014600	2.901400	-8.746000	29.173814	0.000213	20.745613
2282.655607	-3.006400	2.898700	-8.713200	29.181967	0.000213	20.740551
2283.661555	-3.014600	2.897500	-8.733900	29.225676	0.000212	20.727699
2284.659038	-2.993400	2.896200	-8.668400	29.235233	0.000212	20.746340
2285.656501	-2.996600	2.895200	-8.674600	29.211592	0.000212	20.736266
2286.656431	-3.005300	2.893000	-8.693400	29.194312	0.000212	20.717903
2287.656414	-3.002400	2.891700	-8.680300	29.217287	0.000212	20.735841
2288.656378	-3.000200	2.889700	-8.668500	29.261149	0.000214	20.752543
2289.658832	-3.007500	2.885400	-8.676500	29.302179	0.000211	20.732251
2290.657838	-2.995300	2.884800	-8.639200	29.313202	0.000212	20.726765
2291.657826	-2.993100	2.883900	-8.630000	29.296289	0.000212	20.735799
2292.657491	-2.990900	2.880700	-8.614300	29.257141	0.000209	20.749926
2293.657322	-3.006700	2.878700	-8.653800	29.218510	0.000212	20.738971
2294.658638	-2.992000	2.878000	-8.610200	29.146470	0.000213	20.744612
2295.658662	-2.993200	2.875100	-8.605200	29.137108	0.000211	20.753196
2296.659536	-2.993000	2.873600	-8.600500	29.167272	0.000212	20.746607
2297.658795	-3.010500	2.871600	-8.644200	29.182677	0.000212	20.755019
2298.659504	-3.008900	2.868800	-8.630600	29.180990	0.000211	20.736723
2299.659721	-2.987700	2.866400	-8.562900	29.185720	0.000210	20.757611
2300.662017	-2.997300	2.864500	-8.584700	29.213279	0.000211	20.751243
2301.661314	-3.013800	2.861700	-8.624100	29.258350	0.000210	20.744506
2302.662229	-3.005600	2.860800	-8.596400	29.282467	0.000210	20.747000
2303.662313	-2.986600	2.858900	-8.536700	29.307573	0.000211	20.761872
2304.662459	-2.994700	2.857600	-8.556500	29.333272	0.000211	20.758847
2305.665189	-3.046600	2.852500	-8.688700	29.289591	0.000209	20.750860
2306.662821	-3.030200	2.852400	-8.641500	29.209428	0.000212	20.759691
2307.669033	-3.007100	2.850800	-8.571400	29.170081	0.000211	20.755128
2308.664554	-2.982600	2.850100	-8.499500	29.117924	0.000211	20.750934
2309.665090	-3.009900	2.846200	-8.565300	29.110137	0.000211	20.771064
2310.663860	-3.004100	2.844300	-8.543400	29.138792	0.000211	20.771963
2311.668579	-2.993400	2.841700	-8.505400	29.190851	0.000210	20.775110
2312.665005	-2.988800	2.841600	-8.491700	29.213558	0.000210	20.748679
2313.664766	-2.989600	2.837900	-8.483200	29.228193	0.000210	20.759634
2314.665526	-2.990100	2.836600	-8.481200	29.247037	0.000210	20.783841
2315.670771	-3.011300	2.833600	-8.531500	29.297882	0.000211	20.760165
2316.672103	-2.995000	2.831700	-8.478400	29.305030	0.000212	20.757411
2317.667963	-3.003300	2.831200	-8.501600	29.300966	0.000210	20.765644
2318.669238	-3.007500	2.826500	-8.498900	29.321918	0.000210	20.758784
2319.666640	-3.000100	2.824500	-8.473400	29.406543	0.000209	20.759677
2320.667950	-2.963300	2.824200	-8.367800	29.383499	0.000210	20.762529
2321.669752	-3.002500	2.821200	-8.470400	29.342001	0.000211	20.768594
2322.672388	-2.994600	2.817900	-8.437900	29.284774	0.000211	20.775879
2323.667040	-2.980500	2.815700	-8.390800	29.225192	0.000211	20.759930
2324.668456	-3.031700	2.813800	-8.529500	29.172622	0.000209	20.774759
2325.669601	-2.995500	2.811200	-8.419900	29.120465	0.000210	20.760607
2326.668985	-2.971800	2.811900	-8.354900	29.110925	0.000209	20.764271
2327.671764	-2.979700	2.807100	-8.363200	29.067883	0.000210	20.739867
2328.670213	-2.981400	2.804800	-8.360100	29.103127	0.000211	20.763052
2329.675632	-2.995800	2.803900	-8.398200	29.192757	0.000211	20.764703
2330.670434	-3.004500	2.798700	-8.407300	29.213307	0.000210	20.774506
2331.674866	-3.002500	2.798400	-8.401500	29.221752	0.000210	20.767843
2332.673820	-2.990100	2.794800	-8.355700	29.198048	0.000209	20.783785
2333.670369	-3.008400	2.792900	-8.400900	29.243737	0.000209	20.777670
2334.670793	-2.981600	2.790400	-8.317700	29.245730	0.000209	20.781576
2335.669624	-3.007700	2.787200	-8.381900	29.268680	0.000210	20.775781
2336.670728	-2.998900	2.785100	-8.351000	29.280620	0.000210	20.775960
2337.669500	-3.002500	2.781800	-8.351300	29.233344	0.000210	20.791853
2338.672976	-3.002300	2.778500	-8.341200	29.248327	0.000208	20.784193
2339.671179	-2.980500	2.775200	-8.270300	29.268461	0.000209	20.757541
2340.671284	-3.054000	2.772200	-8.465300	29.326678	0.000209	20.773540
2341.671331	-3.002400	2.769500	-8.313700	29.352132	0.000211	20.780227
2342.671665	-2.991300	2.768800	-8.280600	29.418666	0.000208	20.788491
2343.673331	-3.032300	2.762900	-8.376700	29.482001	0.000209	20.790690
2344.673217	-3.002000	2.762000	-8.290400	29.539437	0.000210	20.781730
2345.674507	-2.991400	2.757900	-8.248700	29.593131	0.000210	20.786072
2346.675640	-2.986600	2.754600	-8.225400	29.648710	0.000209	20.789945
2347.673208	-2.960100	2.752800	-8.147400	29.661005	0.000210	20.798073
2348.676110	-3.028800	2.748400	-8.322700	29.719727	0.000206	20.788049
2349.674701	-3.006800	2.746600	-8.257200	29.716045	0.000209	20.797613
2350.673225	-2.985200	2.744000	-8.190300	29.682695	0.000209	20.785801
2351.673845	-3.003000	2.740900	-8.229500	29.696738	0.000208	20.774828
2352.675722	-3.016900	2.736600	-8.254800	29.715898	0.000209	20.801258
2353.681118	-2.999100	2.734600	-8.200500	29.750278	0.000208	20.806049
2354.676379	-3.001400	2.729800	-8.192200	29.763000	0.000207	20.793271
2355.675233	-3.002200	2.727700	-8.187700	29.755475	0.000209	20.792797
2356.676713	-2.990300	2.725500	-8.148400	29.737159	0.000210	20.806098
2357.674713	-2.990900	2.721800	-8.137800	29.724931	0.000209	20.790451
2358.674556	-3.002300	2.716200	-8.153800	29.684493	0.000208	20.793303
2359.679740	-2.982500	2.714700	-8.096000	29.639666	0.000208	20.807380
2360.675038	-3.008300	2.710000	-8.151400	29.623198	0.000209	20.814485
2361.678561	-3.019700	2.706400	-8.171300	29.619839	0.000207	20.799720
2362.674558	-2.987800	2.703500	-8.076200	29.595827	0.000208	20.811549
2363.674573	-2.995200	2.700500	-8.087900	29.585382	0.000207	20.792010
2364.675113	-2.993900	2.696300	-8.071100	29.600078	0.000208	20.814412
2365.677773	-2.993400	2.691800	-8.056700	29.573574	0.000207	20.792910
2366.674326	-2.962500	2.691200	-7.970300	29.552854	0.000210	20.812799
2367.675305	-2.970300	2.685800	-7.976200	29.552659	0.000209	20.796481
2368.673532	-2.991300	2.682100	-8.021900	29.598308	0.000207	20.815946
2369.675330	-2.986300	2.677300	-7.994500	29.649996	0.000208	20.795983
2370.677956	-3.027100	2.671800	-8.087600	29.677372	0.000207	20.810780
2371.677478	-3.003500	2.669200	-8.016600	29.722503	0.000209	20.830676
2372.675261	-3.021700	2.665000	-8.052300	29.702500	0.000208	20.799604
2373.677244	-3.013400	2.660300	-8.015300	29.685966	0.000207	20.814229
2374.678182	-3.031600	2.656800	-8.053000	29.612804	0.000209	20.813965
2375.678101	-3.006800	2.653700	-7.978300	29.547962	0.000207	20.789850
2376.677671	-3.016500	2.648400	-7.988100	29.509642	0.000210	20.807647
2377.678713	-3.003500	2.644500	-7.941600	29.537816	0.000207	20.808072
2378.679574	-2.993200	2.642500	-7.908200	29.579061	0.000208	20.804131
2379.679029	-3.008600	2.635800	-7.929400	29.590625	0.000208	20.824797
2380.680374	-2.979800	2.631800	-7.841700	29.584584	0.000208	20.813491
2381.679949	-2.983700	2.628200	-7.840900	29.547896	0.000209	20.811594
2382.678842	-3.011500	2.620900	-7.891800	29.526363	0.000207	20.797949
2383.681898	-3.006100	2.617300	-7.865900	29.545551	0.000208	20.804963
2384.679058	-2.994700	2.612100	-7.822200	29.562630	0.000207	20.790412
2385.679490	-2.979400	2.607600	-7.766900	29.623727	0.000209	20.819286
2386.685064	-3.018000	2.601600	-7.850900	29.684673	0.000207	20.810081
2387.681572	-3.030300	2.596800	-7.867700	29.750270	0.000209	20.831171
2388.682934	-2.988400	2.592200	-7.745600	29.791501	0.000207	20.836232
2389.681507	-3.017600	2.585600	-7.801000	29.782437	0.000209	20.834206
2390.681284	-3.018200	2.580900	-7.788300	29.817438	0.000208	20.819711
2391.680892	-2.974000	2.576900	-7.662900	29.835607	0.000209	20.824280
2392.683762	-2.987300	2.570800	-7.679000	29.862636	0.000207	20.806491
2393.682096	-3.028800	2.563100	-7.762900	29.893054	0.000207	20.813456
2394.682818	-2.987300	2.559200	-7.644500	29.933962	0.000207	20.832421
2395.683952	-2.977900	2.553600	-7.602600	29.965434	0.000208	20.844243
2396.684368	-2.998400	2.546700	-7.635100	30.026684	0.000208	20.827304
2397.686764	-3.006100	2.540900	-7.637500	30.059205	0.000207	20.842083
2398.688779	-2.977700	2.535800	-7.549800	30.114088	0.000208	20.817779
2399.685077	-3.025300	2.528100	-7.647100	30.161018	0.000207	20.796362
2400.685347	-2.986200	2.521100	-7.527600	30.119955	0.000209	20.844085
2401.685461	-2.987100	2.516500	-7.515100	30.122299	0.000209	20.832225
2402.687359	-3.013200	2.509700	-7.560900	30.141890	0.000211	20.835389
2403.686394	-2.983800	2.503400	-7.468900	30.144467	0.000207	20.824712
2404.687446	-2.979700	2.498300	-7.443800	30.120175	0.000209	20.843358
