LabVIEW Measurement	
Writer_Version	2
Reader_Version	2
Separator	Tab
Decimal_Separator	.
Multi_Headings	No
X_Columns	One
Time_Pref	Absolute
Operator	admin
Description	Clolumns are: time, Current, Voltage, Power, Battery Temp, and Chamber Temp
Date	2024/08/16
Time	13:06:06.104549407958984375
***End_of_Header***	
	
Channels	6						
Samples	1	1	1	1	1	1	
Date	2024/09/04	2024/09/04	2024/09/04	2024/09/04	2024/09/04	2024/09/04	
Time	01:41:47.0254607200622558594	01:41:47.0322408676147460938	01:41:47.03812408447265625	01:41:47.0055561065673828125	01:41:47.0055561065673828125	01:41:47.0055561065673828125	
X_Dimension	Time	Time	Time	Time	Time	Time	
X0	0.0000000000000000E+0	0.0000000000000000E+0	0.0000000000000000E+0	0.0000000000000000E+0	0.0000000000000000E+0	0.0000000000000000E+0	
Delta_X	1.000000	1.000000	1.000000	1.000000	1.000000	1.000000	
***End_of_Header***							
X_Value	Untitled	Untitled 1	Untitled 2	Untitled 3	Untitled 4	Untitled 5	Comment
0.000000	-0.005424	4.099600	-0.022225	20.969304	0.000929	20.727497
0.995663	-2.995100	3.934500	-11.783000	20.969355	0.000928	20.725176
1.999189	-3.012000	3.926200	-11.825000	20.965837	0.000928	20.734935
3.001333	-3.001600	3.922100	-11.772000	20.939513	0.000926	20.720460
3.998290	-3.004700	3.916500	-11.767000	20.952639	0.000925	20.728847
5.000758	-3.008500	3.913100	-11.772000	20.966661	0.000925	20.716792
6.000271	-2.996400	3.910900	-11.718000	20.963219	0.000925	20.730420
6.998425	-2.979400	3.908500	-11.644000	20.971528	0.000925	20.754378
8.001822	-3.002800	3.904900	-11.725000	20.977268	0.000923	20.737833
9.001071	-2.979900	3.904400	-11.633000	20.960551	0.000924	20.719690
9.998458	-2.981900	3.903200	-11.637000	20.949597	0.000922	20.714424
11.001506	-2.991900	3.900400	-11.669000	20.969534	0.000920	20.727727
12.003770	-2.999300	3.899300	-11.693000	20.971505	0.000918	20.729224
12.998826	-3.002300	3.899300	-11.705000	20.968337	0.000918	20.730322
14.003179	-3.000900	3.896600	-11.692000	20.977794	0.000920	20.717021
15.002573	-3.002500	3.894800	-11.693000	20.980041	0.000919	20.745823
15.999903	-2.995400	3.894000	-11.663000	20.971907	0.000916	20.715400
17.001401	-2.993100	3.893300	-11.653000	21.000601	0.000916	20.715176
18.001007	-2.990000	3.891200	-11.633000	20.996335	0.000915	20.716124
19.000032	-3.006400	3.891800	-11.700000	21.000029	0.000914	20.719819
20.007575	-3.008500	3.889700	-11.700000	21.014226	0.000915	20.719794
21.000692	-3.018800	3.888300	-11.737000	21.008512	0.000915	20.712182
22.000531	-2.984700	3.889500	-11.607000	21.036383	0.000912	20.707816
23.003966	-2.999500	3.887100	-11.658000	21.017571	0.000912	20.709863
24.006242	-3.001900	3.886400	-11.666000	21.037407	0.000910	20.706469
25.000377	-2.985400	3.886200	-11.600000	21.049034	0.000911	20.725686
26.002904	-3.016200	3.884200	-11.714000	21.059862	0.000912	20.729405
27.001412	-2.997400	3.883700	-11.640000	21.056394	0.000911	20.718824
27.999655	-2.989500	3.884700	-11.612000	21.039030	0.000911	20.726112
29.007030	-2.997500	3.882900	-11.638000	21.066725	0.000911	20.744805
30.001997	-2.987900	3.882800	-11.600000	21.057343	0.000910	20.721669
31.002172	-3.009700	3.881000	-11.680000	21.076580	0.000912	20.714357
32.003015	-3.012100	3.881900	-11.692000	21.068821	0.000911	20.736470
33.003171	-2.988100	3.880000	-11.593000	21.107168	0.000909	20.719349
34.003931	-3.004600	3.880300	-11.657000	21.095243	0.000909	20.727810
35.004758	-2.995400	3.881100	-11.624000	21.096591	0.000908	20.746703
36.004481	-3.000500	3.878500	-11.635000	21.082045	0.000909	20.708918
37.005011	-3.001600	3.878500	-11.640000	21.085463	0.000906	20.732727
38.003873	-2.986600	3.877700	-11.578000	21.090578	0.000906	20.710815
39.003399	-2.993800	3.877300	-11.606000	21.083118	0.000908	20.719475
40.003839	-3.010500	3.877000	-11.670000	21.110088	0.000906	20.739815
41.003440	-3.000500	3.877200	-11.633000	21.118022	0.000908	20.712662
42.005538	-2.994400	3.875100	-11.602000	21.125108	0.000905	20.725441
43.006044	-3.020800	3.874000	-11.702000	21.116925	0.000906	20.710142
44.006798	-2.983600	3.875200	-11.560000	21.147312	0.000905	20.708769
45.005051	-2.986100	3.875200	-11.570000	21.157591	0.000904	20.730433
46.005458	-3.003900	3.874500	-11.636000	21.155445	0.000903	20.692247
47.006871	-3.000000	3.873400	-11.619000	21.153125	0.000906	20.704153
48.006038	-2.988200	3.873500	-11.574000	21.157192	0.000905	20.708696
49.006296	-2.995800	3.873100	-11.603000	21.155122	0.000905	20.721324
50.004130	-2.997700	3.872400	-11.608000	21.171737	0.000904	20.724668
51.005227	-2.984400	3.874000	-11.561000	21.183213	0.000905	20.721923
52.007727	-3.022300	3.871600	-11.701000	21.188427	0.000905	20.720026
53.008102	-2.999800	3.871600	-11.613000	21.195438	0.000902	20.725144
54.009206	-3.008800	3.872500	-11.650000	21.209234	0.000904	20.721875
55.007825	-3.005500	3.870800	-11.633000	21.214971	0.000903	20.731408
56.008041	-2.980800	3.871600	-11.540000	21.230313	0.000904	20.720202
57.008178	-2.993300	3.870300	-11.584000	21.226297	0.000902	20.724720
58.012107	-2.996900	3.870300	-11.598000	21.230513	0.000904	20.739370
59.011693	-3.003300	3.870200	-11.622000	21.246479	0.000903	20.715037
60.009546	-3.007000	3.869700	-11.636000	21.272821	0.000900	20.734278
61.010245	-3.006600	3.868200	-11.628000	21.264065	0.000902	20.710344
62.011807	-3.014600	3.867200	-11.656000	21.273371	0.000904	20.719180
63.012576	-3.017600	3.867000	-11.668000	21.276014	0.000902	20.726093
64.010777	-2.987300	3.869500	-11.558000	21.282600	0.000903	20.721775
65.011090	-3.006800	3.867900	-11.627000	21.305674	0.000902	20.727790
66.013824	-3.006200	3.867300	-11.624000	21.308244	0.000902	20.741267
67.011548	-3.013800	3.866500	-11.651000	21.315103	0.000902	20.746233
68.012871	-2.991300	3.867500	-11.568000	21.317173	0.000900	20.719380
69.013921	-2.983600	3.867700	-11.539000	21.328698	0.000904	20.720004
70.016120	-3.004100	3.865900	-11.613000	21.336356	0.000903	20.712492
71.015246	-2.997800	3.866000	-11.588000	21.330643	0.000900	20.719580
72.016003	-3.006500	3.867100	-11.626000	21.352792	0.000901	20.739843
73.015792	-3.018500	3.864600	-11.664000	21.344886	0.000903	20.718182
74.017097	-2.991300	3.866000	-11.563000	21.340795	0.000902	20.729737
75.017262	-3.024800	3.864300	-11.688000	21.372374	0.000900	20.744262
76.016547	-3.002100	3.863600	-11.598000	21.380180	0.000902	20.733105
77.016284	-3.005000	3.864400	-11.611000	21.380953	0.000902	20.743363
78.021029	-3.029900	3.862700	-11.702000	21.383996	0.000902	20.745933
79.017835	-3.015400	3.863000	-11.646000	21.382999	0.000900	20.723123
80.016568	-3.016300	3.863000	-11.651000	21.395445	0.000901	20.739844
81.022662	-2.991000	3.863500	-11.554000	21.374543	0.000901	20.734577
82.019999	-2.972100	3.864700	-11.485000	21.419140	0.000901	20.730834
83.019789	-2.981900	3.862000	-11.515000	21.415424	0.000900	20.739445
84.021392	-2.980400	3.863900	-11.515000	21.435777	0.000902	20.738471
85.019689	-2.988800	3.863500	-11.546000	21.444830	0.000901	20.737573
86.020518	-2.991200	3.862200	-11.552000	21.437921	0.000901	20.738246
87.023397	-2.999700	3.861100	-11.581000	21.428468	0.000900	20.754867
88.020342	-2.987300	3.863000	-11.538000	21.454383	0.000901	20.717258
89.019681	-3.001700	3.862300	-11.592000	21.439618	0.000903	20.751798
90.024738	-2.972700	3.862300	-11.480000	21.468949	0.000901	20.750326
91.026728	-3.007300	3.860700	-11.609000	21.493491	0.000903	20.741217
92.020151	-2.991100	3.861400	-11.548000	21.483639	0.000901	20.735626
93.024121	-2.999100	3.860200	-11.577000	21.508030	0.000900	20.744860
94.020819	-3.018500	3.858700	-11.646000	21.520900	0.000902	20.752996
95.022211	-3.005400	3.859400	-11.598000	21.500748	0.000901	20.735202
96.026076	-2.979000	3.861600	-11.502000	21.514117	0.000903	20.741467
97.021211	-3.054100	3.858800	-11.782000	21.549157	0.000902	20.740968
98.021287	-3.010700	3.859600	-11.618000	21.549730	0.000901	20.752922
99.023602	-3.003400	3.859800	-11.592000	21.552173	0.000901	20.747305
100.023152	-2.987500	3.860300	-11.532000	21.544467	0.000902	20.757613
101.020974	-3.012300	3.857200	-11.617000	21.548932	0.000902	20.754019
102.024721	-2.995900	3.857700	-11.557000	21.561676	0.000903	20.765350
103.023194	-3.006800	3.857700	-11.598000	21.567386	0.000902	20.744510
104.022228	-2.992100	3.858900	-11.544000	21.571327	0.000903	20.752721
105.026070	-2.998100	3.857900	-11.565000	21.570205	0.000904	20.763453
106.023097	-2.977300	3.858000	-11.485000	21.573471	0.000903	20.741116
107.021624	-3.010000	3.856700	-11.607000	21.576913	0.000902	20.764950
108.025238	-3.000100	3.857300	-11.571000	21.569680	0.000903	20.760557
109.022061	-2.993500	3.856600	-11.544000	21.601452	0.000902	20.728812
110.023130	-3.002700	3.856600	-11.579000	21.600205	0.000906	20.769292
111.023871	-2.993100	3.856200	-11.541000	21.625492	0.000902	20.752397
112.024352	-3.014700	3.856200	-11.623000	21.615716	0.000903	20.763477
113.024893	-3.007500	3.855800	-11.594000	21.649382	0.000905	20.767769
114.025887	-3.013200	3.857000	-11.620000	21.634844	0.000902	20.764601
115.024427	-3.001200	3.855100	-11.569000	21.658932	0.000905	20.784914
116.025360	-3.006300	3.856000	-11.592000	21.655716	0.000905	20.776480
117.024389	-3.035100	3.853300	-11.694000	21.670104	0.000905	20.784715
118.027564	-2.995300	3.855400	-11.547000	21.677460	0.000903	20.770265
119.027301	-2.978400	3.854300	-11.479000	21.682822	0.000905	20.757613
120.029410	-2.992300	3.855300	-11.535000	21.680976	0.000905	20.749601
121.028022	-2.979600	3.856600	-11.490000	21.698681	0.000905	20.776803
122.028695	-3.001900	3.854500	-11.569000	21.685092	0.000905	20.766522
123.032944	-3.002100	3.854700	-11.570000	21.698806	0.000906	20.774083
124.030979	-2.991300	3.854000	-11.528000	21.709653	0.000905	20.761231
125.029533	-2.999900	3.853100	-11.558000	21.696586	0.000907	20.756214
126.031608	-2.994500	3.853000	-11.536000	21.707807	0.000908	20.766022
127.029984	-3.009000	3.852900	-11.593000	21.728579	0.000907	20.769267
128.028560	-2.980500	3.854900	-11.489000	21.728853	0.000907	20.765747
129.031680	-3.016100	3.853100	-11.619000	21.733665	0.000905	20.767719
130.031599	-3.015500	3.851900	-11.614000	21.730598	0.000907	20.769865
131.028844	-3.006200	3.852500	-11.580000	21.746607	0.000907	20.768817
132.035398	-3.011300	3.850800	-11.595000	21.743365	0.000908	20.758460
133.031294	-3.001800	3.851500	-11.560000	21.761218	0.000909	20.764948
134.032274	-2.997500	3.851500	-11.545000	21.758425	0.000907	20.772585
135.034759	-2.993200	3.853300	-11.533000	21.768026	0.000909	20.776504
136.033443	-3.007800	3.850500	-11.581000	21.782662	0.000909	20.784989
137.032255	-3.012600	3.850900	-11.599000	21.787225	0.000909	20.767744
138.034133	-2.990200	3.850700	-11.514000	21.786327	0.000909	20.775380
139.032530	-2.994500	3.851300	-11.531000	21.777674	0.000909	20.771461
140.031978	-3.010900	3.850400	-11.592000	21.782013	0.000911	20.788133
141.034866	-3.014200	3.849800	-11.603000	21.792136	0.000910	20.776453
142.032921	-2.987700	3.849000	-11.498000	21.800414	0.000911	20.786634
143.032483	-3.017800	3.849100	-11.614000	21.803879	0.000909	20.788681
144.035992	-2.978900	3.849000	-11.464000	21.800339	0.000909	20.792724
145.033772	-2.996700	3.849200	-11.534000	21.834472	0.000911	20.793696
146.033918	-2.987500	3.848500	-11.497000	21.821283	0.000911	20.775280
147.033459	-3.002600	3.847700	-11.552000	21.848086	0.000909	20.794520
148.038233	-3.018300	3.847400	-11.611000	21.845020	0.000911	20.768692
149.034742	-2.999300	3.849200	-11.543000	21.875486	0.000913	20.792074
150.035583	-3.006200	3.848000	-11.565000	21.860104	0.000912	20.793747
151.035667	-3.006700	3.847300	-11.566000	21.873168	0.000913	20.791650
152.037333	-3.019100	3.847700	-11.616000	21.891667	0.000914	20.793572
153.036990	-2.990200	3.846700	-11.502000	21.896928	0.000915	20.778922
154.036082	-2.995300	3.848600	-11.526000	21.914280	0.000915	20.797240
155.038074	-3.004600	3.846600	-11.555000	21.888427	0.000913	20.796492
156.035199	-2.997800	3.847600	-11.533000	21.890370	0.000914	20.784687
157.036053	-2.984600	3.847400	-11.483000	21.887927	0.000913	20.791725
158.036967	-2.997400	3.847300	-11.531000	21.903559	0.000915	20.801682
159.037115	-3.001900	3.847500	-11.549000	21.916922	0.000916	20.790402
160.035798	-2.986100	3.848100	-11.489000	21.921310	0.000915	20.798113
161.037765	-2.996600	3.847400	-11.527000	21.928391	0.000916	20.805200
162.038291	-3.012000	3.844900	-11.579000	21.942402	0.000917	20.798363
163.040126	-2.998400	3.847000	-11.534000	21.945593	0.000919	20.792074
164.040175	-3.008100	3.846000	-11.567000	21.952474	0.000918	20.800858
165.040914	-3.011400	3.845500	-11.579000	21.968953	0.000918	20.802181
166.043810	-2.984300	3.844800	-11.473000	21.966111	0.000918	20.808345
167.039992	-3.004300	3.844800	-11.550000	21.987650	0.000917	20.818052
168.039824	-2.990000	3.845600	-11.497000	21.991065	0.000918	20.802979
169.040648	-2.991400	3.845100	-11.501000	22.013776	0.000918	20.795368
170.040737	-3.010600	3.843000	-11.568000	22.023298	0.000919	20.810116
171.040178	-2.992100	3.843800	-11.500000	22.040101	0.000922	20.815083
172.040770	-3.003100	3.843200	-11.540000	22.045934	0.000919	20.789154
173.041014	-2.991300	3.843500	-11.496000	22.063608	0.000922	20.802580
174.039479	-2.996700	3.842400	-11.513000	22.068519	0.000921	20.818402
175.044148	-3.000200	3.842300	-11.526000	22.069067	0.000921	20.794769
176.041315	-2.988300	3.842900	-11.484000	22.084921	0.000921	20.796416
177.044339	-3.010900	3.841400	-11.565000	22.057052	0.000921	20.819250
178.043455	-3.010200	3.842300	-11.566000	22.099554	0.000922	20.803953
179.045479	-3.007500	3.842700	-11.556000	22.098682	0.000923	20.812562
180.046824	-2.980600	3.842600	-11.451000	22.108527	0.000924	20.806298
181.047191	-2.997200	3.842600	-11.516000	22.088237	0.000923	20.799736
182.047094	-3.000800	3.840800	-11.524000	22.105561	0.000922	20.795268
183.046896	-3.001500	3.842800	-11.533000	22.110896	0.000925	20.822894
184.058359	-3.007700	3.842000	-11.554000	22.143126	0.000926	20.807272
185.048588	-2.994500	3.841500	-11.502000	22.130913	0.000924	20.800260
186.048433	-3.013600	3.839800	-11.571000	22.164488	0.000925	20.818227
187.053024	-3.003000	3.840200	-11.531000	22.162219	0.000924	20.799835
188.047034	-3.004600	3.840600	-11.538000	22.164663	0.000926	20.828360
189.046590	-2.995600	3.838400	-11.498000	22.158357	0.000927	20.823943
190.052701	-3.013500	3.840000	-11.571000	22.181189	0.000927	20.815035
191.050515	-2.976500	3.841900	-11.433000	22.182185	0.000927	20.801807
192.048657	-2.981500	3.840600	-11.449000	22.166133	0.000928	20.815608
193.047047	-3.015000	3.838400	-11.572000	22.175157	0.000929	20.828909
194.048899	-3.014000	3.839100	-11.570000	22.172290	0.000929	20.819401
195.049352	-3.002800	3.840300	-11.531000	22.231536	0.000929	20.837468
196.050888	-2.987900	3.838200	-11.467000	22.205067	0.000931	20.821872
197.051734	-3.006700	3.838100	-11.539000	22.198737	0.000930	20.822646
198.050939	-3.008400	3.836900	-11.541000	22.184280	0.000930	20.832827
199.055204	-3.014700	3.836700	-11.565000	22.205914	0.000933	20.825090
200.050733	-3.003600	3.837300	-11.525000	22.220995	0.000932	20.816009
201.054317	-2.984200	3.838500	-11.454000	22.211798	0.000931	20.841886
202.056524	-2.985600	3.837800	-11.458000	22.226453	0.000934	20.816258
203.053465	-2.996900	3.836100	-11.495000	22.227725	0.000935	20.841712
204.052294	-2.986300	3.837700	-11.460000	22.239738	0.000933	20.831455
205.059241	-2.970200	3.838000	-11.399000	22.245221	0.000936	20.826040
206.053936	-2.962800	3.837500	-11.367000	22.275229	0.000934	20.829534
207.053626	-3.005100	3.837300	-11.529000	22.283204	0.000935	20.843208
208.061757	-3.026000	3.836100	-11.607000	22.330359	0.000938	20.830208
209.056835	-3.010000	3.835000	-11.541000	22.326096	0.000936	20.851069
210.055244	-3.000400	3.834700	-11.504000	22.313984	0.000937	20.849846
211.058403	-3.004700	3.834600	-11.521000	22.300102	0.000936	20.834524
212.057281	-3.010100	3.835500	-11.544000	22.311018	0.000936	20.847351
213.056038	-3.014300	3.834600	-11.557000	22.298632	0.000939	20.839690
214.065186	-3.013500	3.833600	-11.551000	22.292052	0.000937	20.842110
215.060128	-3.011100	3.832500	-11.539000	22.308874	0.000938	20.837618
216.061441	-2.989900	3.836000	-11.468000	22.326568	0.000939	20.834473
217.057098	-2.984800	3.834200	-11.443000	22.332700	0.000939	20.835397
218.059495	-2.992800	3.834700	-11.474000	22.326819	0.000939	20.835672
219.057335	-2.993600	3.833800	-11.475000	22.345285	0.000939	20.838990
220.059149	-3.001100	3.833400	-11.504000	22.341871	0.000940	20.838416
221.060452	-2.995600	3.833900	-11.483000	22.344238	0.000942	20.847899
222.059649	-2.995200	3.832300	-11.476000	22.367465	0.000941	20.857406
223.059399	-2.999800	3.832700	-11.497000	22.371328	0.000943	20.866015
224.062914	-2.989100	3.832400	-11.455000	22.363303	0.000943	20.838067
225.059819	-3.008300	3.831600	-11.525000	22.374891	0.000944	20.863894
226.060610	-2.997100	3.832500	-11.485000	22.380698	0.000943	20.848373
227.060499	-3.013600	3.831500	-11.546000	22.396423	0.000942	20.845628
228.063219	-3.025900	3.830700	-11.590000	22.414863	0.000942	20.855085
229.063939	-2.997600	3.831100	-11.483000	22.402852	0.000943	20.845428
230.063867	-2.995100	3.831500	-11.475000	22.430040	0.000944	20.857480
231.064043	-2.991800	3.831700	-11.464000	22.418725	0.000946	20.844728
232.064225	-3.013000	3.831200	-11.543000	22.435173	0.000947	20.851716
233.078802	-2.986700	3.830500	-11.439000	22.447284	0.000946	20.861947
234.063851	-2.999300	3.831800	-11.492000	22.465176	0.000949	20.868011
235.067001	-2.995500	3.831300	-11.476000	22.457576	0.000948	20.860400
236.065847	-2.986100	3.830700	-11.437000	22.458073	0.000949	20.863268
237.064966	-3.003000	3.830000	-11.499000	22.460616	0.000947	20.861073
238.066295	-2.973700	3.831500	-11.393000	22.466397	0.000949	20.866862
239.064840	-2.986700	3.831400	-11.441000	22.471504	0.000948	20.874348
240.065714	-2.988800	3.830400	-11.445000	22.468290	0.000949	20.867810
241.065200	-2.986500	3.829700	-11.434000	22.456776	0.000950	20.872875
242.064602	-3.020300	3.829000	-11.564000	22.509655	0.000951	20.848071
243.066321	-2.997200	3.829800	-11.478000	22.475491	0.000953	20.849418
244.065351	-3.015500	3.827100	-11.539000	22.511373	0.000954	20.881558
245.065038	-3.022800	3.826900	-11.567000	22.482593	0.000954	20.883081
246.066286	-2.991100	3.827400	-11.447000	22.505542	0.000953	20.858176
247.064475	-2.997700	3.826800	-11.471000	22.523059	0.000954	20.878089
248.067656	-3.023800	3.825900	-11.568000	22.522387	0.000955	20.859399
249.066693	-3.005000	3.827100	-11.500000	22.552413	0.000953	20.873349
250.066401	-3.002700	3.826500	-11.488000	22.547778	0.000955	20.863018
251.068917	-3.010600	3.826800	-11.520000	22.575136	0.000956	20.888994
252.068830	-2.995200	3.826600	-11.459000	22.592328	0.000955	20.849791
253.065960	-2.999000	3.826300	-11.473000	22.572145	0.000957	20.848069
254.070827	-3.002500	3.827700	-11.492000	22.589164	0.000956	20.862269
255.068913	-3.017200	3.825000	-11.540000	22.596265	0.000956	20.867009
256.069021	-2.990600	3.826000	-11.441000	22.575110	0.000958	20.874270
257.069487	-2.995400	3.825300	-11.457000	22.553109	0.000960	20.850814
258.069538	-3.001100	3.824600	-11.477000	22.553558	0.000958	20.858375
259.069181	-3.002000	3.825200	-11.481000	22.552859	0.000960	20.839185
260.070371	-3.007100	3.825000	-11.500000	22.561258	0.000959	20.871302
261.071222	-3.007000	3.825300	-11.502000	22.566464	0.000961	20.846172
262.072573	-3.015200	3.824900	-11.532000	22.541173	0.000960	20.845024
263.071447	-3.001700	3.824800	-11.479000	22.570800	0.000962	20.859523
264.074099	-2.994100	3.824100	-11.449000	22.574736	0.000962	20.856827
265.070266	-3.000500	3.823000	-11.470000	22.606404	0.000963	20.853458
266.072322	-2.994400	3.824000	-11.449000	22.606256	0.000964	20.854731
267.071476	-2.994900	3.824800	-11.453000	22.587743	0.000963	20.845673
268.071893	-2.995900	3.823000	-11.452000	22.613032	0.000965	20.851561
269.072424	-3.009100	3.821800	-11.500000	22.643081	0.000965	20.859846
270.073422	-3.000300	3.823300	-11.469000	22.636827	0.000964	20.838411
271.074365	-3.006400	3.822200	-11.491000	22.638546	0.000967	20.847718
272.075169	-2.995400	3.822100	-11.447000	22.658901	0.000968	20.843925
273.074350	-3.002400	3.821500	-11.474000	22.677587	0.000967	20.852684
274.073223	-3.000500	3.821300	-11.465000	22.678956	0.000967	20.843150
275.074829	-2.995200	3.822500	-11.448000	22.694503	0.000968	20.831222
276.073397	-2.999100	3.821200	-11.459000	22.711445	0.000967	20.849614
277.073906	-2.986200	3.821700	-11.410000	22.711220	0.000969	20.824734
278.078588	-3.000900	3.819900	-11.462000	22.750782	0.000969	20.834016
279.078510	-2.975000	3.821200	-11.367000	22.712091	0.000968	20.824658
280.076888	-3.016600	3.819900	-11.523000	22.721533	0.000968	20.838383
281.079984	-3.026700	3.818900	-11.558000	22.706436	0.000970	20.847916
282.076996	-2.978500	3.820500	-11.376000	22.746123	0.000971	20.823186
283.079071	-3.020600	3.818200	-11.531000	22.744254	0.000970	20.843125
284.082257	-2.981900	3.821200	-11.394000	22.740566	0.000972	20.822361
285.077817	-3.012500	3.819100	-11.504000	22.726017	0.000970	20.839081
286.079077	-3.012500	3.818100	-11.501000	22.725271	0.000971	20.826954
287.081151	-2.993300	3.818700	-11.430000	22.740516	0.000972	20.840803
288.077899	-3.006500	3.818800	-11.478000	22.755116	0.000973	20.850212
289.077702	-3.018600	3.818800	-11.527000	22.751778	0.000975	20.845920
290.079021	-3.000300	3.817800	-11.454000	22.773526	0.000973	20.851584
291.078116	-3.005600	3.817400	-11.472000	22.769614	0.000973	20.826803
292.080539	-3.023000	3.817400	-11.538000	22.767746	0.000974	20.831570
293.081388	-3.007100	3.818500	-11.481000	22.788200	0.000975	20.856800
294.079575	-3.011000	3.817700	-11.493000	22.800979	0.000977	20.811756
295.079493	-2.992500	3.817600	-11.424000	22.783865	0.000977	20.829699
296.079368	-3.019900	3.816100	-11.523000	22.823325	0.000977	20.828925
297.084867	-2.999800	3.816600	-11.447000	22.795848	0.000978	20.821788
298.083094	-2.972700	3.816800	-11.345000	22.788972	0.000979	20.843349
299.083219	-2.982800	3.816300	-11.382000	22.771260	0.000978	20.817072
300.080384	-3.003800	3.816300	-11.461000	22.779330	0.000979	20.836062
301.081239	-2.993400	3.816300	-11.423000	22.783391	0.000978	20.840604
302.086598	-3.007600	3.814900	-11.472000	22.777737	0.000978	20.819767
303.081278	-2.986300	3.814900	-11.392000	22.777711	0.000982	20.821164
304.085952	-2.999600	3.813500	-11.438000	22.794377	0.000981	20.817470
305.091673	-2.999900	3.814600	-11.441000	22.804267	0.000981	20.803196
306.083618	-2.997000	3.814300	-11.431000	22.800257	0.000982	20.819567
307.082652	-2.968100	3.814200	-11.320000	22.828232	0.000983	20.802074
308.083067	-2.996900	3.814600	-11.431000	22.851374	0.000981	20.802497
309.081625	-2.994300	3.814300	-11.420000	22.851423	0.000982	20.819616
310.081891	-2.971800	3.814000	-11.334000	22.863257	0.000984	20.815350
311.083671	-2.999900	3.813200	-11.439000	22.859918	0.000983	20.806315
312.082129	-2.996200	3.812300	-11.422000	22.828456	0.000983	20.824108
313.095642	-3.002100	3.813100	-11.446000	22.837922	0.000986	20.823160
314.083491	-2.978500	3.812200	-11.354000	22.847165	0.000984	20.814876
315.081918	-2.999900	3.811500	-11.432000	22.854414	0.000986	20.805069
316.084387	-2.996200	3.811000	-11.416000	22.849381	0.000988	20.803346
317.084838	-3.002700	3.810900	-11.441000	22.849930	0.000986	20.820965
318.083017	-2.996500	3.812500	-11.423000	22.867168	0.000986	20.819742
319.082153	-2.987800	3.811900	-11.388000	22.861264	0.000987	20.810983
320.084969	-2.986600	3.810200	-11.379000	22.892402	0.000988	20.805667
321.085017	-3.001800	3.809700	-11.435000	22.905654	0.000990	20.818469
322.086070	-2.999900	3.811500	-11.432000	22.920973	0.000990	20.806316
323.085826	-2.983700	3.811400	-11.370000	22.940626	0.000991	20.806566
324.086857	-2.997300	3.809600	-11.417000	22.960727	0.000990	20.811057
325.086227	-2.995600	3.808900	-11.409000	22.948049	0.000991	20.807365
326.086692	-2.997200	3.809300	-11.416000	22.950839	0.000989	20.809212
327.086208	-2.996800	3.808000	-11.410000	22.952583	0.000990	20.809062
328.085592	-3.021800	3.807900	-11.505000	22.957464	0.000992	20.826281
329.085134	-3.018800	3.809200	-11.498000	22.983842	0.000992	20.831372
330.087051	-3.017600	3.808400	-11.490000	22.944562	0.000992	20.800078
331.091006	-3.000400	3.807100	-11.422000	22.963393	0.000994	20.802349
332.086787	-2.976000	3.808600	-11.332000	22.961524	0.000995	20.816124
333.087306	-2.988500	3.808900	-11.383000	22.956793	0.000993	20.812332
334.088050	-2.981900	3.809400	-11.357000	22.952807	0.000995	20.814503
335.090210	-2.983700	3.808700	-11.363000	22.940827	0.000995	20.818146
336.087499	-3.013700	3.808100	-11.476000	22.969745	0.000995	20.807291
337.090682	-3.009800	3.806700	-11.456000	22.982323	0.000997	20.791444
338.087832	-3.008100	3.806700	-11.449000	23.001103	0.000995	20.793665
339.089165	-3.007700	3.806000	-11.445000	23.006857	0.000996	20.801326
340.087647	-3.021700	3.807400	-11.504000	23.006857	0.000998	20.821240
341.087621	-3.000800	3.805800	-11.419000	23.045115	0.000995	20.802201
342.088526	-2.999500	3.806300	-11.415000	23.024366	0.000997	20.803697
343.088959	-2.983400	3.806100	-11.354000	23.031963	0.000998	20.809412
344.088095	-2.986500	3.806300	-11.367000	23.068003	0.000996	20.801427
345.088022	-2.990200	3.806500	-11.380000	23.049797	0.000998	20.782710
346.090358	-2.987300	3.805700	-11.368000	23.049621	0.000998	20.797233
347.089332	-2.988800	3.805500	-11.372000	23.044418	0.000998	20.799132
348.089643	-3.016000	3.803600	-11.469000	23.044840	0.001000	20.810935
349.089421	-3.002200	3.804500	-11.421000	23.005189	0.000999	20.793017
350.095110	-2.991200	3.805300	-11.382000	22.995823	0.000999	20.788375
351.093836	-2.985300	3.804700	-11.357000	23.004666	0.001000	20.792967
352.090876	-2.998600	3.802900	-11.402000	22.996621	0.000999	20.795337
353.091838	-3.000300	3.802000	-11.406000	23.016496	0.001002	20.795812
354.093723	-2.993700	3.802300	-11.381000	23.029622	0.001002	20.788575
355.089902	-2.980900	3.803500	-11.335000	23.041154	0.001001	20.779740
356.089679	-3.001400	3.802300	-11.411000	23.032637	0.001001	20.808190
357.090964	-3.002600	3.801500	-11.413000	23.017691	0.001002	20.803173
358.090789	-2.992100	3.801100	-11.372000	23.036273	0.001001	20.803299
359.094538	-2.990900	3.800900	-11.367000	23.064341	0.001004	20.801551
360.091807	-2.994000	3.801200	-11.380000	23.056995	0.001003	20.794190
361.091877	-3.004700	3.801600	-11.421000	23.062150	0.001003	20.787502
362.090566	-2.990200	3.801600	-11.367000	23.045712	0.001005	20.794265
363.094839	-3.016800	3.799600	-11.461000	23.029847	0.001004	20.798757
364.095175	-3.000900	3.800900	-11.405000	23.031840	0.001004	20.802177
365.091014	-2.998700	3.799800	-11.393000	23.034280	0.001006	20.783284
366.095559	-3.016100	3.799900	-11.460000	23.012836	0.001006	20.794040
367.095565	-3.003200	3.799400	-11.409000	23.028153	0.001005	20.793266
368.091959	-2.987400	3.798500	-11.346000	23.015427	0.001007	20.780041
369.097038	-3.003000	3.798600	-11.405000	23.005141	0.001007	20.784434
370.098053	-3.002200	3.797600	-11.400000	23.008553	0.001008	20.794016
371.092288	-3.004500	3.798200	-11.411000	22.971790	0.001007	20.782313
372.095918	-2.992500	3.796400	-11.359000	22.980557	0.001007	20.768337
373.096426	-2.999900	3.797100	-11.389000	23.007158	0.001007	20.772704
374.092064	-3.011500	3.798700	-11.438000	23.027682	0.001009	20.765293
375.097122	-3.021600	3.795600	-11.468000	23.026163	0.001008	20.790799
376.097774	-3.022000	3.796600	-11.473000	23.080906	0.001009	20.788752
377.091915	-3.027600	3.796900	-11.493000	23.097817	0.001009	20.784360
378.099672	-2.995000	3.795500	-11.366000	23.115201	0.001009	20.754837
379.096033	-3.010600	3.795500	-11.426000	23.110320	0.001010	20.772232
380.094354	-3.000000	3.794700	-11.383000	23.104567	0.001010	20.781640
381.097031	-2.988300	3.797100	-11.346000	23.101579	0.001012	20.770111
382.095709	-2.978500	3.795400	-11.303000	23.118789	0.001012	20.770286
383.094178	-2.976300	3.796800	-11.299000	23.148374	0.001013	20.770061
384.097717	-3.001800	3.795400	-11.392000	23.168297	0.001012	20.766318
385.096377	-3.002800	3.794200	-11.392000	23.200324	0.001013	20.778971
386.094755	-2.994200	3.795100	-11.363000	23.202714	0.001012	20.778047
387.096258	-2.993400	3.794100	-11.356000	23.227169	0.001011	20.766993
388.101492	-3.016300	3.793000	-11.439000	23.235486	0.001013	20.769163
389.096486	-3.002700	3.793000	-11.388000	23.254560	0.001013	20.765045
390.099473	-3.005300	3.793300	-11.399000	23.262405	0.001015	20.756786
391.101069	-2.978000	3.793600	-11.297000	23.265866	0.001014	20.774954
392.097093	-2.991400	3.791700	-11.341000	23.268880	0.001016	20.763749
393.099655	-3.015700	3.791800	-11.432000	23.276326	0.001015	20.768840
394.100640	-2.984800	3.793300	-11.321000	23.272292	0.001016	20.772385
395.099258	-3.002200	3.790500	-11.379000	23.267909	0.001015	20.777475
396.100439	-2.993900	3.791500	-11.351000	23.296968	0.001015	20.748750
397.101107	-2.989900	3.791800	-11.336000	23.289946	0.001016	20.776327
398.098575	-2.985400	3.791200	-11.318000	23.281206	0.001017	20.743859
399.101682	-3.004800	3.790200	-11.387000	23.277446	0.001016	20.750996
400.106132	-3.006400	3.789400	-11.392000	23.278616	0.001016	20.759282
401.102373	-3.002000	3.789500	-11.374000	23.275081	0.001018	20.759532
402.104890	-2.991300	3.789200	-11.333000	23.300878	0.001017	20.756936
403.105059	-3.000800	3.788200	-11.367000	23.295947	0.001020	20.759107
404.104249	-2.985600	3.788900	-11.310000	23.267012	0.001019	20.752868
405.103896	-2.982800	3.789900	-11.303000	23.267735	0.001019	20.772559
406.105119	-2.991400	3.787500	-11.329000	23.291091	0.001017	20.749498
407.103582	-2.983100	3.789100	-11.301000	23.305135	0.001018	20.750297
408.104204	-2.981700	3.789800	-11.299000	23.322142	0.001020	20.741263
409.104319	-3.016400	3.786000	-11.418000	23.321718	0.001018	20.755537
410.103329	-2.991000	3.786700	-11.325000	23.339223	0.001019	20.773556
411.103759	-3.003700	3.786400	-11.372000	23.348709	0.001020	20.750820
412.104891	-3.001800	3.786300	-11.365000	23.335588	0.001021	20.764697
413.104339	-3.013000	3.787000	-11.410000	23.345945	0.001020	20.742360
414.104906	-3.004800	3.786500	-11.375000	23.327694	0.001021	20.742086
415.105607	-3.015600	3.784900	-11.411000	23.325054	0.001022	20.752716
416.106088	-3.030200	3.784800	-11.468000	23.307798	0.001020	20.757708
417.108327	-2.999400	3.785700	-11.353000	23.330557	0.001020	20.754913
418.107759	-3.002200	3.785200	-11.363000	23.344027	0.001022	20.741860
419.106400	-2.965500	3.784900	-11.222000	23.317434	0.001022	20.750770
420.110206	-3.005200	3.783000	-11.368000	23.332673	0.001020	20.740437
421.108692	-3.030400	3.783200	-11.464000	23.349529	0.001021	20.747375
422.108762	-3.011100	3.782500	-11.389000	23.340317	0.001022	20.762798
423.111165	-2.976300	3.784700	-11.263000	23.363573	0.001022	20.752915
424.112583	-3.015400	3.783900	-11.409000	23.375474	0.001024	20.733549
425.109570	-3.000300	3.782000	-11.346000	23.391061	0.001024	20.742533
426.111735	-3.002800	3.782400	-11.356000	23.404158	0.001025	20.739539
427.116582	-2.993700	3.782300	-11.322000	23.394895	0.001024	20.740687
428.109855	-3.013700	3.782000	-11.397000	23.416307	0.001024	20.749346
429.113537	-2.988700	3.783500	-11.307000	23.406199	0.001023	20.733998
430.115166	-3.007800	3.781900	-11.374000	23.417602	0.001025	20.744480
431.109891	-2.996000	3.782000	-11.329000	23.420316	0.001024	20.757157
432.112124	-3.017000	3.780600	-11.405000	23.401368	0.001026	20.767090
433.112944	-2.989400	3.780300	-11.300000	23.404306	0.001025	20.736368
434.110530	-2.972100	3.781900	-11.239000	23.417577	0.001027	20.734971
435.114730	-3.021500	3.779800	-11.420000	23.399999	0.001027	20.759079
436.115071	-2.992000	3.780100	-11.308000	23.408166	0.001027	20.736918
437.114044	-2.991200	3.781000	-11.308000	23.410380	0.001028	20.769485
438.114459	-2.982000	3.779900	-11.271000	23.414863	0.001029	20.727982
439.119940	-2.977500	3.779400	-11.251000	23.440508	0.001026	20.739937
440.113339	-2.998500	3.779200	-11.331000	23.443072	0.001027	20.722118
441.117612	-2.992000	3.779400	-11.307000	23.430424	0.001028	20.749745
442.119750	-2.993400	3.779500	-11.311000	23.407891	0.001029	20.740436
443.115686	-3.032400	3.777300	-11.453000	23.379806	0.001027	20.745951
444.120754	-3.001300	3.778000	-11.336000	23.376668	0.001027	20.710562
445.119390	-2.965700	3.779900	-11.209000	23.368153	0.001027	20.740910
446.117015	-3.014800	3.776500	-11.383000	23.313150	0.001027	20.715180
447.118632	-3.004800	3.777800	-11.351000	23.324852	0.001028	20.743031
448.118083	-3.002500	3.777900	-11.342000	23.313722	0.001028	20.736143
449.116930	-3.008900	3.774600	-11.357000	23.328986	0.001029	20.732474
450.117416	-2.996600	3.776500	-11.315000	23.353113	0.001031	20.737216
451.118628	-3.003000	3.775500	-11.337000	23.385135	0.001028	20.737067
452.116866	-3.022100	3.774800	-11.407000	23.393126	0.001029	20.722791
453.117731	-3.003200	3.776300	-11.340000	23.399625	0.001030	20.724564
454.118315	-3.004100	3.775400	-11.340000	23.402913	0.001029	20.720272
455.117147	-2.992700	3.774100	-11.294000	23.421188	0.001029	20.731952
456.118619	-2.986900	3.774700	-11.274000	23.418424	0.001028	20.739139
457.118112	-3.003400	3.773600	-11.332000	23.432541	0.001031	20.746652
458.122151	-3.035400	3.772700	-11.450000	23.471979	0.001029	20.730705
459.116977	-2.997700	3.774100	-11.313000	23.488435	0.001031	20.742933
460.117854	-3.008500	3.773700	-11.353000	23.512285	0.001031	20.749296
461.122266	-3.006800	3.772700	-11.344000	23.511240	0.001033	20.737817
462.119400	-2.990200	3.772700	-11.280000	23.499291	0.001033	20.736745
463.121041	-2.985800	3.773900	-11.266000	23.489904	0.001033	20.729706
464.119145	-2.999900	3.771300	-11.313000	23.497598	0.001032	20.724616
465.120770	-2.992400	3.771000	-11.283000	23.521349	0.001032	20.742260
466.121939	-2.994600	3.771900	-11.293000	23.529016	0.001031	20.723867
467.118449	-2.983400	3.771800	-11.252000	23.526055	0.001032	20.715682
468.122962	-2.980800	3.772500	-11.244000	23.538751	0.001034	20.716555
469.122830	-3.001000	3.769500	-11.311000	23.546917	0.001033	20.715258
470.120195	-3.000600	3.769700	-11.310000	23.538303	0.001032	20.744083
471.122598	-3.006500	3.768500	-11.329000	23.525384	0.001034	20.734925
472.120608	-3.007300	3.767500	-11.328000	23.524139	0.001035	20.737470
473.119603	-3.001800	3.769400	-11.314000	23.508953	0.001033	20.723195
474.122604	-2.997900	3.769000	-11.298000	23.524388	0.001032	20.738669
475.121604	-2.986800	3.768300	-11.255000	23.558271	0.001032	20.722846
476.122603	-2.987700	3.769100	-11.260000	23.547815	0.001035	20.722797
477.124605	-3.009700	3.766200	-11.333000	23.545973	0.001034	20.719527
478.121604	-3.003300	3.767900	-11.314000	23.558197	0.001032	20.723247
479.122146	-2.996600	3.766500	-11.286000	23.573631	0.001034	20.735874
480.127685	-2.986600	3.766200	-11.247000	23.567657	0.001035	20.732730
481.124445	-2.999600	3.767200	-11.300000	23.600343	0.001037	20.737048
482.122545	-2.973900	3.766700	-11.201000	23.611447	0.001032	20.735851
483.123819	-3.003300	3.766600	-11.311000	23.589988	0.001035	20.729512
484.124521	-2.972800	3.765800	-11.195000	23.604153	0.001035	20.754144
485.125960	-2.987100	3.765600	-11.247000	23.622475	0.001036	20.731259
486.125336	-2.992900	3.764500	-11.266000	23.637834	0.001038	20.735752
487.126203	-2.987300	3.765100	-11.246000	23.599673	0.001034	20.733057
488.123223	-2.992600	3.765000	-11.266000	23.583392	0.001035	20.739970
489.126886	-3.011900	3.765100	-11.339000	23.547121	0.001037	20.735852
490.128978	-3.002100	3.764300	-11.300000	23.536591	0.001037	20.724347
491.127086	-3.009400	3.763600	-11.325000	23.539901	0.001037	20.731459
492.127066	-3.037100	3.761700	-11.422000	23.550059	0.001038	20.736900
493.151306	-2.990300	3.763800	-11.254000	23.565593	0.001037	20.720703
494.127075	-2.978000	3.763900	-11.207000	23.588346	0.001038	20.718382
495.132366	-2.983500	3.762000	-11.224000	23.587375	0.001038	20.734479
496.128442	-2.989500	3.762200	-11.246000	23.599572	0.001037	20.746707
497.127626	-2.976100	3.764700	-11.202000	23.605025	0.001038	20.754070
498.128407	-2.995600	3.761100	-11.266000	23.619812	0.001038	20.729538
499.142304	-2.990900	3.760900	-11.248000	23.610077	0.001037	20.746332
500.126322	-2.996900	3.761000	-11.270000	23.615206	0.001037	20.739146
501.128288	-2.999400	3.760200	-11.277000	23.580104	0.001038	20.733354
502.141233	-2.975000	3.761400	-11.189000	23.567707	0.001040	20.731832
503.130039	-3.013500	3.761300	-11.334000	23.560710	0.001039	20.736198
504.129918	-2.985100	3.761700	-11.228000	23.558944	0.001037	20.738221
505.131701	-3.019300	3.758700	-11.346000	23.588169	0.001039	20.737646
506.132493	-3.009600	3.759100	-11.312000	23.609577	0.001040	20.745831
507.133261	-2.997100	3.758800	-11.264000	23.602931	0.001038	20.752919
508.130451	-2.984800	3.760000	-11.222000	23.610175	0.001039	20.737896
509.132062	-3.015600	3.758000	-11.331000	23.606614	0.001039	20.747128
510.136426	-2.995000	3.758900	-11.256000	23.625682	0.001041	20.724043
511.130659	-3.018500	3.756300	-11.337000	23.596233	0.001038	20.739566
512.130736	-2.984300	3.758300	-11.215000	23.650899	0.001039	20.751695
513.133536	-2.969500	3.757400	-11.157000	23.613708	0.001039	20.741912
514.132550	-3.002800	3.756900	-11.280000	23.622620	0.001040	20.766968
515.131316	-3.011800	3.756200	-11.311000	23.615475	0.001040	20.744157
516.135826	-3.000100	3.757000	-11.270000	23.640443	0.001041	20.752592
517.133629	-2.988100	3.755800	-11.222000	23.650301	0.001039	20.721222
518.134283	-2.989900	3.756900	-11.232000	23.674844	0.001041	20.723542
519.133926	-2.998100	3.754300	-11.255000	23.679026	0.001040	20.748599
520.133839	-2.980700	3.755600	-11.194000	23.727689	0.001039	20.753765
521.132852	-3.001900	3.754100	-11.269000	23.729331	0.001042	20.757308
522.140337	-3.009400	3.754200	-11.297000	23.733041	0.001040	20.732577
523.139058	-2.983700	3.754400	-11.201000	23.761939	0.001043	20.735947
524.135563	-3.008000	3.753800	-11.291000	23.766567	0.001042	20.752442
525.137051	-3.032000	3.753800	-11.379000	23.784538	0.001041	20.742959
526.139982	-3.008000	3.753100	-11.288000	23.780755	0.001039	20.767615
527.140882	-3.017700	3.753100	-11.324000	23.787799	0.001039	20.729632
528.137045	-3.002500	3.753100	-11.268000	23.798675	0.001040	20.753341
529.136227	-2.997500	3.755000	-11.255000	23.799696	0.001039	20.751045
530.135000	-3.010600	3.751100	-11.291000	23.813983	0.001040	20.750671
531.138175	-3.015400	3.752300	-11.312000	23.807386	0.001039	20.733625
532.135488	-3.015500	3.750300	-11.308000	23.810398	0.001041	20.732377
533.137590	-3.005500	3.750800	-11.272000	23.820478	0.001040	20.762874
534.139841	-2.997500	3.750800	-11.242000	23.819532	0.001042	20.729207
535.138646	-3.013900	3.749900	-11.300000	23.831230	0.001041	20.753740
536.138900	-2.992300	3.749400	-11.218000	23.837178	0.001042	20.755437
537.143631	-2.993800	3.750800	-11.228000	23.829812	0.001042	20.743308
538.137019	-2.989000	3.750400	-11.208000	23.840936	0.001040	20.762998
539.139215	-3.003000	3.748100	-11.255000	23.840663	0.001041	20.746603
540.142115	-2.990100	3.749400	-11.210000	23.826974	0.001041	20.745679
541.138480	-2.988000	3.748300	-11.198000	23.852709	0.001042	20.754414
542.140269	-2.997600	3.748000	-11.235000	23.884540	0.001041	20.775901
543.141467	-3.008000	3.747600	-11.271000	23.879140	0.001040	20.762900
544.142038	-2.985200	3.748500	-11.189000	23.894172	0.001041	20.759480
545.140546	-2.990800	3.747900	-11.208000	23.857836	0.001041	20.774729
546.143343	-3.002700	3.745400	-11.244000	23.867045	0.001041	20.745555
547.142254	-2.994000	3.746100	-11.216000	23.849275	0.001042	20.778946
548.139407	-3.000000	3.745500	-11.236000	23.813137	0.001041	20.748401
549.142961	-3.016400	3.744300	-11.292000	23.813286	0.001041	20.749024
550.140008	-3.003800	3.744300	-11.246000	23.830634	0.001040	20.742236
551.141008	-3.013500	3.745800	-11.286000	23.852934	0.001041	20.766968
552.142934	-3.005300	3.744900	-11.253000	23.860997	0.001041	20.748500
553.139812	-3.007500	3.744800	-11.262000	23.854352	0.001041	20.764123
554.141563	-2.995800	3.745000	-11.217000	23.869136	0.001040	20.753816
555.144660	-2.997900	3.745400	-11.228000	23.896462	0.001042	20.756087
556.142065	-3.025500	3.743400	-11.325000	23.873889	0.001041	20.774230
557.140729	-3.013800	3.745000	-11.286000	23.919507	0.001041	20.778721
558.145237	-3.003700	3.744300	-11.246000	23.930979	0.001040	20.755612
559.143569	-3.022900	3.743300	-11.313000	23.956737	0.001042	20.740663
560.141830	-3.016100	3.742800	-11.288000	23.977840	0.001040	20.765146
561.145867	-2.980900	3.742600	-11.155000	23.959822	0.001040	20.766992
562.145575	-2.979300	3.743500	-11.152000	23.951758	0.001041	20.761750
563.145872	-2.987600	3.742900	-11.181000	23.953799	0.001040	20.766641
564.148796	-2.978400	3.743100	-11.147000	23.957780	0.001040	20.772056
565.146659	-2.983800	3.742400	-11.165000	23.919804	0.001040	20.753889
566.147128	-3.016200	3.740100	-11.280000	23.896435	0.001042	20.765543
567.150380	-3.022000	3.739900	-11.299000	23.912163	0.001042	20.762348
568.148552	-3.011800	3.741600	-11.268000	23.924233	0.001042	20.790573
569.147934	-2.981500	3.741800	-11.155000	23.918061	0.001041	20.796712
570.149368	-3.017300	3.740400	-11.286000	23.931026	0.001040	20.782686
571.149279	-2.991900	3.739900	-11.187000	23.937223	0.001040	20.779417
572.149344	-2.974200	3.739700	-11.121000	23.944589	0.001040	20.771630
573.154092	-2.999400	3.738900	-11.214000	23.940606	0.001041	20.775698
574.152401	-2.978700	3.739500	-11.139000	23.929706	0.001043	20.765715
575.152283	-2.996300	3.738500	-11.201000	23.911912	0.001041	20.779166
576.154015	-3.003200	3.738700	-11.226000	23.959768	0.001040	20.788749
577.151915	-3.009100	3.735700	-11.238000	23.986967	0.001040	20.789472
578.154866	-3.018600	3.736800	-11.278000	23.991943	0.001041	20.767909
579.155349	-3.000500	3.738700	-11.216000	23.980894	0.001042	20.783856
580.153526	-3.040300	3.735800	-11.356000	23.957004	0.001042	20.768907
581.154638	-3.024100	3.735400	-11.295000	23.976838	0.001040	20.779788
582.158897	-2.997700	3.736300	-11.199000	24.017947	0.001038	20.784504
583.154647	-2.996200	3.736700	-11.195000	24.019092	0.001040	20.787075
584.155291	-3.004000	3.734800	-11.219000	24.006252	0.001041	20.782733
585.159241	-2.994900	3.736000	-11.188000	24.014438	0.001040	20.774822
586.156939	-2.991900	3.735700	-11.176000	24.004310	0.001041	20.801174
587.155615	-2.988600	3.735400	-11.162000	24.005381	0.001040	20.786601
588.160679	-3.013100	3.734200	-11.250000	24.015508	0.001041	20.771153
589.159289	-3.005700	3.733900	-11.222000	24.025387	0.001041	20.783430
590.156446	-3.003100	3.733700	-11.211000	24.020211	0.001040	20.791517
591.159127	-3.000000	3.733300	-11.199000	24.024764	0.001040	20.791341
592.158655	-3.017600	3.733200	-11.264000	24.011327	0.001041	20.790193
593.156557	-3.012100	3.732100	-11.241000	24.007868	0.001042	20.775819
594.159407	-2.991000	3.733500	-11.166000	24.016104	0.001041	20.781234
595.157200	-3.003300	3.731900	-11.207000	24.036709	0.001042	20.790992
596.157724	-3.022400	3.730000	-11.272000	24.027028	0.001041	20.798828
597.159704	-3.001000	3.732500	-11.200000	24.060672	0.001041	20.792265
598.157023	-3.051600	3.730000	-11.380000	24.057934	0.001041	20.796157
599.155304	-2.980500	3.730900	-11.119000	24.041611	0.001041	20.783580
600.160881	-2.992600	3.731700	-11.167000	24.047408	0.001040	20.790817
601.157840	-2.998100	3.729700	-11.181000	24.054128	0.001041	20.780012
602.156592	-2.981500	3.730600	-11.122000	24.069979	0.001041	20.790219
603.160656	-3.015200	3.728300	-11.240000	24.071247	0.001042	20.783904
604.157713	-2.986600	3.729700	-11.139000	24.074707	0.001040	20.794012
605.158787	-2.995300	3.729900	-11.171000	24.057089	0.001041	20.800526
606.160519	-3.004700	3.728400	-11.202000	24.041886	0.001040	20.783856
607.159019	-3.010500	3.728400	-11.224000	24.040991	0.001039	20.808088
608.158211	-3.008900	3.727600	-11.216000	24.024417	0.001041	20.809959
609.161336	-2.996000	3.729000	-11.170000	24.045420	0.001038	20.823909
610.160604	-2.998200	3.728300	-11.178000	24.045121	0.001039	20.802747
611.158422	-2.979200	3.729800	-11.111000	24.076027	0.001038	20.795811
612.162484	-2.999600	3.727700	-11.181000	24.101656	0.001040	20.809661
613.157407	-3.000200	3.727400	-11.181000	24.106981	0.001040	20.790819
614.159615	-3.040100	3.725100	-11.323000	24.084263	0.001040	20.802648
615.162093	-3.009400	3.726400	-11.213000	24.126414	0.001039	20.812680
616.161429	-3.006300	3.725300	-11.199000	24.116189	0.001038	20.797683
617.162251	-2.989200	3.726000	-11.137000	24.130746	0.001039	20.800429
618.164494	-2.993000	3.726700	-11.153000	24.137786	0.001037	20.806543
619.162350	-3.021500	3.723300	-11.248000	24.134353	0.001037	20.793616
620.162675	-3.007500	3.725400	-11.203000	24.126167	0.001039	20.819545
621.166131	-2.998100	3.723400	-11.161000	24.126915	0.001037	20.810812
622.163558	-2.999900	3.725200	-11.174000	24.109423	0.001037	20.789475
623.164471	-3.001700	3.723300	-11.175000	24.083720	0.001038	20.809690
624.165656	-3.003000	3.723400	-11.180000	24.061997	0.001038	20.805922
625.164186	-2.971900	3.724400	-11.068000	24.062346	0.001040	20.799159
626.165065	-2.999100	3.723000	-11.165000	24.024224	0.001038	20.809291
627.168450	-3.023700	3.721700	-11.251000	24.039627	0.001037	20.796289
628.164799	-2.991300	3.723600	-11.137000	24.033780	0.001036	20.808444
629.164258	-2.989700	3.724200	-11.133000	24.086583	0.001038	20.813510
630.167376	-3.012200	3.722800	-11.212000	24.062571	0.001037	20.824041
631.164841	-3.007500	3.721500	-11.191000	24.072998	0.001036	20.813635
632.164289	-3.011000	3.721500	-11.203000	24.064338	0.001037	20.820123
633.167567	-3.006900	3.720700	-11.187000	24.081384	0.001037	20.810192
634.163321	-2.998400	3.720200	-11.153000	24.108482	0.001036	20.820773
635.168884	-3.007700	3.721000	-11.191000	24.148666	0.001036	20.809394
636.166066	-2.995600	3.720100	-11.142000	24.123460	0.001037	20.815407
637.165197	-2.987700	3.721600	-11.118000	24.151528	0.001039	20.804678
638.164953	-2.999000	3.719700	-11.155000	24.174816	0.001038	20.825665
639.166715	-3.006400	3.719700	-11.181000	24.166233	0.001034	20.813737
640.163045	-2.986500	3.719500	-11.107000	24.170164	0.001036	20.835697
641.164931	-2.971500	3.720000	-11.053000	24.164467	0.001035	20.804853
642.170665	-2.991100	3.718900	-11.123000	24.171608	0.001037	20.830033
643.163752	-2.996100	3.718900	-11.141000	24.181286	0.001036	20.826464
644.164837	-3.003400	3.717300	-11.163000	24.184794	0.001036	20.807698
645.167549	-2.991100	3.719200	-11.123000	24.217810	0.001034	20.827537
646.166339	-2.995200	3.716900	-11.132000	24.205221	0.001035	20.824393
647.166904	-3.014300	3.717600	-11.205000	24.238012	0.001036	20.822671
648.173427	-2.997100	3.717300	-11.140000	24.214228	0.001035	20.829159
649.165484	-2.982000	3.717100	-11.082000	24.228832	0.001035	20.831480
650.166395	-2.997300	3.716800	-11.139000	24.219179	0.001035	20.820376
651.171694	-3.008300	3.716400	-11.179000	24.218309	0.001034	20.820925
652.165659	-3.005600	3.715400	-11.166000	24.239680	0.001035	20.840465
653.169058	-2.998800	3.715100	-11.140000	24.244806	0.001035	20.828537
654.170950	-3.004400	3.714700	-11.160000	24.291528	0.001035	20.827039
655.166016	-2.996600	3.714900	-11.131000	24.293518	0.001035	20.817656
656.167544	-2.999800	3.714400	-11.141000	24.297524	0.001036	20.826416
657.171215	-3.004700	3.714900	-11.161000	24.304465	0.001035	20.828637
658.168087	-3.010600	3.712900	-11.177000	24.321357	0.001033	20.825194
659.169759	-3.013300	3.712800	-11.186000	24.310312	0.001033	20.840192
660.182669	-3.008300	3.713500	-11.170000	24.312675	0.001034	20.818855
661.169249	-3.015400	3.712100	-11.193000	24.283219	0.001033	20.821550
662.168800	-3.003700	3.714400	-11.156000	24.324442	0.001032	20.825443
663.174524	-2.985800	3.712800	-11.085000	24.303073	0.001033	20.836723
664.171124	-2.996200	3.712100	-11.120000	24.293171	0.001032	20.830584
665.172473	-2.990000	3.713300	-11.102000	24.293644	0.001032	20.837697
666.172295	-2.987600	3.711300	-11.086000	24.291878	0.001032	20.842088
667.170956	-2.985400	3.710900	-11.077000	24.299615	0.001031	20.837048
668.169775	-2.973900	3.711900	-11.038000	24.312029	0.001032	20.837647
669.175810	-3.028500	3.710000	-11.235000	24.316681	0.001029	20.845158
670.170779	-3.007400	3.710000	-11.156000	24.336634	0.001031	20.847155
671.170960	-2.991500	3.710800	-11.100000	24.340440	0.001029	20.839120
672.174790	-2.990300	3.709600	-11.092000	24.354395	0.001033	20.851696
673.171000	-2.991200	3.709600	-11.095000	24.369670	0.001031	20.852321
674.172089	-3.016000	3.709700	-11.187000	24.374248	0.001029	20.836999
675.178031	-2.997000	3.709900	-11.117000	24.382830	0.001033	20.859358
676.174126	-2.999700	3.707900	-11.121000	24.357506	0.001030	20.848653
677.173584	-2.994100	3.708600	-11.103000	24.344819	0.001029	20.876227
678.177087	-2.991500	3.709600	-11.095000	24.357283	0.001030	20.846058
679.177649	-2.992700	3.707100	-11.092000	24.361039	0.001032	20.864050
680.174939	-2.993900	3.707800	-11.100000	24.355268	0.001029	20.851149
681.180686	-2.989900	3.708600	-11.087000	24.367906	0.001031	20.843914
682.174019	-3.000100	3.706900	-11.120000	24.381612	0.001029	20.869990
683.174261	-3.023000	3.706500	-11.203000	24.355294	0.001030	20.854494
684.177919	-2.977500	3.706300	-11.034000	24.390022	0.001028	20.835280
685.173277	-2.974400	3.707200	-11.026000	24.358404	0.001029	20.844812
686.179862	-2.998400	3.706300	-11.112000	24.343553	0.001029	20.855044
687.179784	-3.001500	3.707600	-11.128000	24.327855	0.001028	20.857789
688.176765	-2.983700	3.706600	-11.058000	24.333354	0.001027	20.867097
689.178771	-3.006400	3.705600	-11.140000	24.304621	0.001029	20.859612
690.180375	-3.008300	3.705000	-11.142000	24.290639	0.001027	20.844639
691.178809	-3.019200	3.704000	-11.181000	24.328453	0.001027	20.877828
692.178516	-2.999700	3.704700	-11.112000	24.329598	0.001028	20.857166
693.181651	-2.998700	3.704400	-11.108000	24.346813	0.001029	20.853099
694.181413	-3.003800	3.704300	-11.125000	24.354326	0.001027	20.857791
695.178640	-2.990100	3.703600	-11.073000	24.389427	0.001027	20.867398
696.181811	-3.006400	3.703100	-11.133000	24.403979	0.001027	20.854023
697.183163	-3.003800	3.702500	-11.120000	24.422611	0.001025	20.868447
698.180441	-3.014600	3.701300	-11.156000	24.427040	0.001026	20.846812
699.183025	-3.008000	3.702800	-11.138000	24.438706	0.001028	20.876058
700.186843	-3.013900	3.701800	-11.156000	24.450247	0.001026	20.868671
701.180066	-2.991200	3.702800	-11.075000	24.439850	0.001025	20.865827
702.184007	-2.993800	3.703400	-11.086000	24.474550	0.001027	20.875509
703.181338	-2.991900	3.702200	-11.075000	24.447512	0.001028	20.862135
704.181433	-3.006400	3.701500	-11.127000	24.476391	0.001025	20.858866
705.183411	-3.004200	3.701100	-11.117000	24.483755	0.001026	20.876209
706.183694	-2.973700	3.701300	-11.005000	24.480123	0.001023	20.867350
707.188461	-3.009100	3.700200	-11.132000	24.494177	0.001026	20.871493
708.185255	-3.012700	3.700500	-11.147000	24.480322	0.001027	20.853326
709.186983	-2.987300	3.700100	-11.053000	24.509574	0.001025	20.852803
710.182703	-2.990700	3.699800	-11.064000	24.500619	0.001028	20.861362
711.186348	-2.973200	3.700100	-10.999000	24.504028	0.001026	20.850083
712.186721	-2.984000	3.698700	-11.036000	24.513803	0.001026	20.842822
713.185002	-2.960400	3.699800	-10.952000	24.533999	0.001024	20.851705
714.187096	-2.976100	3.698200	-11.004000	24.522408	0.001025	20.855248
715.186690	-3.009200	3.698600	-11.129000	24.508480	0.001026	20.856921
716.183178	-2.998200	3.696500	-11.082000	24.489676	0.001026	20.848012
717.186164	-3.003000	3.696300	-11.099000	24.503730	0.001024	20.838879
718.187960	-3.040300	3.696200	-11.235000	24.502461	0.001024	20.868899
719.185935	-3.013000	3.695500	-11.132000	24.470299	0.001022	20.866029
720.188968	-3.007100	3.695500	-11.111000	24.482786	0.001025	20.853428
721.186310	-3.002100	3.696900	-11.097000	24.446768	0.001024	20.837207
722.186408	-3.020200	3.695400	-11.160000	24.428685	0.001023	20.834713
723.188122	-2.990800	3.696200	-11.054000	24.434928	0.001022	20.852829
724.188006	-3.018300	3.693800	-11.148000	24.444232	0.001021	20.854576
725.187141	-3.002600	3.694700	-11.092000	24.455102	0.001022	20.846516
726.187648	-3.021700	3.693700	-11.160000	24.465077	0.001023	20.860790
727.186986	-3.016400	3.694800	-11.144000	24.476693	0.001022	20.844944
728.187762	-2.970600	3.695300	-10.976000	24.480923	0.001023	20.837334
729.190654	-2.957800	3.696300	-10.931000	24.485798	0.001020	20.853604
730.188646	-2.990600	3.693200	-11.044000	24.473734	0.001022	20.828700
731.188010	-2.991600	3.693700	-11.049000	24.464556	0.001022	20.854578
732.189331	-2.980500	3.695300	-11.012000	24.441547	0.001022	20.835288
733.189158	-3.019300	3.691400	-11.145000	24.416100	0.001020	20.857647
734.189599	-2.987700	3.694400	-11.036000	24.426000	0.001021	20.852881
735.190376	-2.996200	3.692000	-11.060000	24.424882	0.001021	20.843699
736.190039	-2.994100	3.693100	-11.057000	24.443290	0.001019	20.826605
737.191888	-3.008800	3.691300	-11.105000	24.402445	0.001017	20.842053
738.191882	-2.995700	3.690900	-11.056000	24.425305	0.001019	20.820891
739.194263	-3.016000	3.690800	-11.130000	24.431872	0.001019	20.838384
740.194142	-2.997500	3.689600	-11.057000	24.445057	0.001018	20.817473
741.193341	-3.027000	3.688600	-11.165000	24.500949	0.001018	20.841779
742.194035	-3.001000	3.691300	-11.076000	24.516346	0.001022	20.838261
743.191739	-2.975100	3.691900	-10.982000	24.533458	0.001018	20.826981
744.193042	-2.997200	3.690200	-11.059000	24.515151	0.001016	20.833743
745.195296	-2.995000	3.690500	-11.052000	24.512341	0.001019	20.835192
746.193305	-3.000500	3.689500	-11.070000	24.530275	0.001018	20.828529
747.192507	-2.994800	3.688900	-11.047000	24.529652	0.001018	20.835016
748.192538	-3.001700	3.690000	-11.075000	24.536840	0.001018	20.816624
749.193014	-2.995800	3.687700	-11.046000	24.544700	0.001017	20.831148
750.194239	-2.975200	3.688800	-10.974000	24.568080	0.001014	20.809088
751.192964	-2.982100	3.687700	-10.996000	24.577357	0.001018	20.808914
752.199750	-3.006100	3.688000	-11.085000	24.580565	0.001016	20.839158
753.192760	-2.996500	3.687100	-11.046000	24.546690	0.001015	20.817498
754.196298	-3.002100	3.687000	-11.068000	24.548604	0.001014	20.804720
755.194919	-3.003900	3.686400	-11.073000	24.556514	0.001016	20.815027
756.192900	-2.982200	3.686800	-10.993000	24.579671	0.001016	20.830674
757.194197	-2.994700	3.685000	-11.034000	24.573453	0.001011	20.811160
758.193651	-2.995700	3.685700	-11.040000	24.580640	0.001014	20.811259
759.196294	-3.000800	3.685200	-11.058000	24.570244	0.001014	20.820742
760.196111	-2.985500	3.686200	-11.004000	24.543680	0.001010	20.801202
761.196678	-3.003500	3.686100	-11.070000	24.526594	0.001012	20.828154
762.196339	-3.018400	3.684300	-11.120000	24.520076	0.001013	20.821615
763.202666	-3.004600	3.682500	-11.061000	24.491819	0.001013	20.807490
764.197786	-3.008900	3.684700	-11.085000	24.496942	0.001013	20.813578
765.196974	-3.019400	3.682400	-11.118000	24.510052	0.001011	20.805868
766.201066	-2.985700	3.683400	-10.995000	24.537685	0.001011	20.826007
767.195971	-2.999500	3.683700	-11.049000	24.571709	0.001011	20.825057
768.199103	-3.010100	3.683700	-11.086000	24.581160	0.001010	20.825056
769.199767	-2.998000	3.682500	-11.039000	24.552956	0.001013	20.812405
770.201201	-2.997700	3.682000	-11.036000	24.521416	0.001009	20.808261
771.201838	-2.993900	3.682400	-11.022000	24.497712	0.001010	20.827152
772.204960	-2.990000	3.681800	-11.008000	24.507288	0.001011	20.806889
773.207070	-3.005100	3.682000	-11.062000	24.522859	0.001010	20.809234
774.209197	-3.004700	3.680500	-11.057000	24.546263	0.001010	20.810906
775.206047	-3.004200	3.680800	-11.057000	24.553127	0.001013	20.811629
776.202578	-3.016000	3.679700	-11.096000	24.558922	0.001009	20.810805
777.203411	-3.033900	3.679700	-11.161000	24.603070	0.001009	20.812428
778.205369	-3.009700	3.681500	-11.078000	24.607123	0.001010	20.805590
779.203800	-3.007200	3.679200	-11.063000	24.622767	0.001010	20.811329
780.203543	-3.007700	3.678600	-11.064000	24.615456	0.001010	20.793087
781.206359	-2.981300	3.680900	-10.973000	24.637291	0.001009	20.809781
782.205969	-3.008300	3.680000	-11.069000	24.609113	0.001009	20.805215
783.205598	-3.004800	3.679700	-11.055000	24.624160	0.001007	20.799925
784.207670	-2.979800	3.680500	-10.966000	24.650199	0.001008	20.800923
785.206874	-2.995600	3.679300	-11.020000	24.635127	0.001008	20.816619
786.204787	-2.985700	3.677900	-10.980000	24.642389	0.001009	20.800673
787.207141	-3.007900	3.676700	-11.059000	24.653083	0.001007	20.803342
788.208058	-2.987000	3.677200	-10.983000	24.647886	0.001008	20.801447
789.206446	-3.024300	3.676400	-11.117000	24.683947	0.001007	20.810605
790.213418	-2.995900	3.677600	-11.016000	24.679968	0.001006	20.794759
791.210202	-3.009800	3.676000	-11.062000	24.651891	0.001007	20.800249
792.205827	-2.997300	3.676100	-11.017000	24.641917	0.001006	20.802095
793.207812	-3.001200	3.677100	-11.035000	24.656540	0.001005	20.796855
794.207942	-2.996600	3.675600	-11.014000	24.653979	0.001007	20.799975
795.206872	-2.984100	3.675200	-10.966000	24.670891	0.001005	20.800823
796.212662	-2.997600	3.675800	-11.017000	24.664151	0.001005	20.796430
797.207788	-2.993400	3.675300	-11.000000	24.657634	0.001006	20.814074
798.208434	-2.975000	3.675200	-10.931000	24.680640	0.001005	20.790692
799.209507	-3.012500	3.673700	-11.066000	24.652861	0.001003	20.802171
800.209139	-2.991900	3.674900	-10.993000	24.643410	0.001006	20.777515
801.213141	-3.007200	3.674000	-11.047000	24.643162	0.001001	20.785327
802.212264	-3.016200	3.674000	-11.081000	24.669150	0.001003	20.809507
803.212502	-3.003300	3.673400	-11.031000	24.616077	0.001005	20.820737
804.211362	-2.964700	3.674900	-10.894000	24.647985	0.001002	20.814348
805.212338	-2.984200	3.673000	-10.960000	24.641022	0.001002	20.804517
806.214192	-2.978600	3.672500	-10.937000	24.651494	0.001003	20.802696
807.210934	-2.989100	3.672500	-10.976000	24.618565	0.001001	20.801423
808.213381	-2.975700	3.673900	-10.930000	24.596852	0.001001	20.798129
809.211479	-2.983700	3.671600	-10.954000	24.566162	0.001000	20.794361
810.215815	-2.997100	3.672100	-11.005000	24.569172	0.001001	20.789795
811.215552	-2.991400	3.671400	-10.982000	24.599912	0.001001	20.789819
812.213853	-3.021600	3.669500	-11.087000	24.637691	0.001001	20.795010
813.213462	-2.982700	3.671200	-10.948000	24.640030	0.000998	20.797357
814.216608	-3.006600	3.670300	-11.034000	24.623242	0.001001	20.789046
815.214899	-2.989100	3.672000	-10.974000	24.623068	0.001000	20.793613
816.216092	-3.019800	3.670000	-11.082000	24.603893	0.001002	20.769157
817.214579	-2.989600	3.669100	-10.968000	24.585686	0.000999	20.775070
818.215609	-2.979100	3.670000	-10.933000	24.520621	0.001000	20.792290
819.216577	-3.008300	3.668900	-11.036000	24.527138	0.000999	20.778914
820.217984	-3.006700	3.669000	-11.030000	24.515920	0.000997	20.768133
821.215265	-2.999200	3.668300	-11.001000	24.500075	0.000998	20.775944
822.216094	-2.996300	3.668300	-10.991000	24.542782	0.000998	20.781809
823.218289	-3.016900	3.668000	-11.065000	24.516194	0.000999	20.776943
824.217523	-2.995000	3.668400	-10.986000	24.547359	0.000996	20.758900
825.216999	-3.019200	3.666400	-11.068000	24.576236	0.000999	20.769855
826.219578	-2.989100	3.667300	-10.960000	24.597277	0.000997	20.761571
827.218114	-2.994400	3.667000	-10.980000	24.633141	0.000995	20.782858
828.221036	-2.982000	3.667900	-10.936000	24.641299	0.000996	20.768759
829.219370	-3.004900	3.666500	-11.017000	24.677459	0.000995	20.771379
830.217133	-2.996300	3.666900	-10.985000	24.698302	0.000995	20.742032
831.217641	-2.988200	3.667300	-10.957000	24.683006	0.000994	20.767461
832.221334	-2.990500	3.666400	-10.962000	24.675820	0.000995	20.766888
833.218850	-2.980700	3.665800	-10.924000	24.689025	0.000993	20.763070
834.219568	-3.022200	3.663000	-11.069000	24.711134	0.000993	20.766763
835.220591	-3.016500	3.663300	-11.048000	24.665026	0.000993	20.770756
836.219880	-3.017600	3.664300	-11.057000	24.612874	0.000995	20.775798
837.220018	-2.994500	3.664100	-10.971000	24.604144	0.000993	20.763719
838.222950	-3.010000	3.663800	-11.026000	24.593351	0.000994	20.764743
839.221857	-2.982500	3.663600	-10.926000	24.628543	0.000995	20.774925
840.223512	-2.978300	3.664800	-10.913000	24.632921	0.000993	20.763196
841.223800	-2.989200	3.663200	-10.949000	24.609518	0.000992	20.756309
842.222890	-2.990600	3.663800	-10.956000	24.595143	0.000993	20.772231
843.223308	-3.010500	3.662000	-11.022000	24.623844	0.000992	20.778271
844.224703	-3.009500	3.662800	-11.022000	24.664009	0.000993	20.751718
845.223086	-2.994200	3.661700	-10.961000	24.683607	0.000993	20.762374
846.223577	-3.006300	3.662500	-11.009000	24.703254	0.000992	20.792047
847.222816	-2.997000	3.663800	-10.979000	24.723175	0.000990	20.762251
848.224635	-3.000000	3.661900	-10.985000	24.749186	0.000991	20.763697
849.224473	-2.992800	3.662200	-10.959000	24.747919	0.000991	20.758633
850.226310	-3.028700	3.661500	-11.088000	24.759209	0.000989	20.760480
851.222663	-3.005600	3.661400	-11.004000	24.741379	0.000991	20.766294
852.223763	-3.018100	3.660100	-11.046000	24.733596	0.000990	20.778399
853.224790	-3.010600	3.659700	-11.017000	24.733470	0.000988	20.761203
854.224619	-3.015900	3.659300	-11.035000	24.743618	0.000988	20.751946
855.226070	-3.001700	3.659700	-10.984000	24.784674	0.000987	20.774656
856.228914	-2.993000	3.659000	-10.950000	24.799570	0.000989	20.758784
857.225770	-2.989000	3.659300	-10.937000	24.781491	0.000986	20.758659
858.224201	-2.985600	3.658000	-10.919000	24.773907	0.000987	20.769540
859.228214	-2.995800	3.657700	-10.957000	24.790618	0.000987	20.753119
860.225941	-2.995200	3.658500	-10.957000	24.792732	0.000986	20.750025
861.226536	-2.994400	3.658800	-10.954000	24.776518	0.000987	20.771686
862.228313	-2.990600	3.657300	-10.936000	24.785571	0.000986	20.751373
863.230034	-3.014600	3.656900	-11.023000	24.792633	0.000985	20.739494
864.226871	-2.996300	3.656400	-10.955000	24.781121	0.000985	20.753546
865.227398	-3.008200	3.656500	-10.998000	24.824711	0.000986	20.776903
866.228196	-2.992900	3.657700	-10.946000	24.829958	0.000984	20.735227
867.226690	-3.002700	3.655800	-10.976000	24.822797	0.000983	20.737049
868.230436	-3.016400	3.654900	-11.024000	24.843983	0.000985	20.748355
869.228639	-2.993200	3.656300	-10.942000	24.828143	0.000982	20.766123
870.227637	-3.011600	3.656000	-11.010000	24.835155	0.000982	20.755142
871.229405	-3.017000	3.654400	-11.023000	24.817775	0.000984	20.760933
872.230667	-2.993200	3.655600	-10.941000	24.845575	0.000982	20.731460
873.229486	-2.972800	3.654300	-10.863000	24.852189	0.000982	20.743788
874.230048	-2.978000	3.654900	-10.882000	24.864796	0.000981	20.739371
875.230145	-2.998700	3.652400	-10.951000	24.892420	0.000982	20.761407
876.228988	-2.985700	3.654100	-10.910000	24.866910	0.000980	20.743864
877.233039	-2.986200	3.653700	-10.908000	24.870292	0.000983	20.742042
878.230357	-2.998800	3.652800	-10.953000	24.838488	0.000981	20.747582
879.232265	-3.024000	3.653000	-11.045000	24.822898	0.000982	20.736677
880.233781	-3.007400	3.652600	-10.984000	24.849778	0.000978	20.749430
881.233851	-3.013100	3.652400	-11.004000	24.858780	0.000978	20.743290
882.232255	-3.002400	3.651400	-10.962000	24.830433	0.000979	20.738074
883.233651	-3.002700	3.651800	-10.965000	24.829289	0.000978	20.727443
884.233515	-2.992500	3.652700	-10.929000	24.854752	0.000977	20.736877
885.233095	-3.016200	3.651900	-11.013000	24.843786	0.000979	20.736303
886.244358	-3.004500	3.649400	-10.963000	24.803106	0.000977	20.715863
887.232891	-2.991400	3.650900	-10.919000	24.807334	0.000975	20.724375
888.233080	-3.001100	3.649900	-10.953000	24.830508	0.000977	20.709699
889.235278	-3.013100	3.650100	-10.996000	24.842717	0.000976	20.733808
890.234443	-2.993600	3.648900	-10.922000	24.862735	0.000975	20.749157
891.234167	-3.031000	3.649000	-11.058000	24.872656	0.000977	20.728767
892.235585	-2.991500	3.650000	-10.917000	24.844558	0.000976	20.730439
893.236091	-2.988100	3.649200	-10.902000	24.829142	0.000976	20.742468
894.233661	-2.976500	3.648800	-10.859000	24.848089	0.000975	20.749631
895.237756	-3.004800	3.649000	-10.963000	24.856941	0.000975	20.740023
896.234401	-2.997600	3.648100	-10.933000	24.867361	0.000975	20.728669
897.234902	-3.019500	3.646200	-11.009000	24.862387	0.000976	20.734583
898.234853	-2.997000	3.647400	-10.930000	24.818250	0.000973	20.754772
899.233743	-2.994100	3.648300	-10.923000	24.841849	0.000974	20.737678
900.235898	-2.992900	3.647400	-10.914000	24.849831	0.000971	20.718661
901.235661	-2.999700	3.647200	-10.940000	24.869598	0.000973	20.732811
902.237662	-2.990600	3.647000	-10.906000	24.883275	0.000973	20.734209
903.239657	-3.018900	3.644500	-11.000000	24.859230	0.000971	20.746588
904.237218	-2.969000	3.648800	-10.832000	24.857242	0.000973	20.710451
905.237584	-2.972400	3.648000	-10.842000	24.823722	0.000971	20.723278
906.238020	-2.986400	3.647300	-10.891000	24.827875	0.000971	20.723653
907.237152	-2.991800	3.646500	-10.909000	24.820515	0.000971	20.712947
908.238050	-3.004900	3.645100	-10.953000	24.792168	0.000972	20.739975
909.239502	-2.987400	3.644700	-10.887000	24.769215	0.000970	20.730217
910.240768	-2.980700	3.646400	-10.868000	24.788538	0.000968	20.706459
911.239793	-3.020800	3.643700	-11.006000	24.783886	0.000969	20.735458
912.239799	-3.011100	3.643000	-10.968000	24.796694	0.000970	20.727922
913.239113	-3.015800	3.642600	-10.984000	24.818402	0.000969	20.738803
914.240042	-3.005000	3.643000	-10.946000	24.859007	0.000969	20.734509
915.240703	-2.998700	3.643300	-10.924000	24.878079	0.000970	20.720459
916.241226	-2.991300	3.643400	-10.897000	24.894814	0.000967	20.736782
917.241999	-3.025200	3.642100	-11.017000	24.902620	0.000966	20.734185
918.243203	-3.010000	3.640900	-10.959000	24.887079	0.000967	20.723328
919.244470	-3.015100	3.643000	-10.983000	24.928056	0.000969	20.725576
920.241510	-2.986200	3.642400	-10.876000	24.908836	0.000966	20.722406
921.242191	-3.021200	3.640500	-10.997000	24.884818	0.000965	20.731965
922.241538	-3.025900	3.639900	-11.012000	24.848665	0.000966	20.726026
923.243114	-3.003200	3.640700	-10.931000	24.829616	0.000965	20.727297
924.245203	-2.983400	3.642400	-10.865000	24.808407	0.000965	20.731142
925.244597	-2.986000	3.641500	-10.872000	24.784062	0.000964	20.724728
926.249346	-2.983500	3.640800	-10.861000	24.802190	0.000966	20.721109
927.248480	-3.001200	3.640300	-10.924000	24.830538	0.000967	20.719687
928.245335	-3.013400	3.640000	-10.967000	24.850058	0.000964	20.736433
929.245794	-3.012100	3.640600	-10.964000	24.886162	0.000964	20.714347
930.248516	-2.986700	3.640100	-10.869000	24.905308	0.000964	20.733564
931.246194	-3.002600	3.639200	-10.926000	24.908615	0.000961	20.722184
932.250069	-2.994300	3.638600	-10.894000	24.924006	0.000962	20.728149
933.248164	-2.997400	3.638500	-10.905000	24.958865	0.000964	20.737533
934.246277	-2.993000	3.638500	-10.889000	24.969705	0.000961	20.735137
935.246494	-3.000800	3.638000	-10.915000	24.954192	0.000959	20.748490
936.248326	-2.976500	3.638400	-10.828000	24.923037	0.000961	20.714847
937.245252	-2.989800	3.638500	-10.877000	24.876293	0.000959	20.734314
938.253108	-3.000800	3.637100	-10.913000	24.865675	0.000962	20.733141
939.248429	-3.009700	3.637300	-10.946000	24.805601	0.000958	20.733541
940.246527	-2.977400	3.638600	-10.833000	24.822932	0.000960	20.733865
941.252088	-2.994100	3.635900	-10.885000	24.803487	0.000959	20.714824
942.250151	-3.025500	3.634600	-10.995000	24.815821	0.000958	20.725780
943.248000	-3.018600	3.634000	-10.969000	24.800529	0.000959	20.729873
944.250000	-2.987500	3.635400	-10.860000	24.809928	0.000958	20.718443
945.250851	-2.995900	3.634500	-10.887000	24.758354	0.000957	20.710307
946.249984	-2.980800	3.636100	-10.837000	24.765567	0.000957	20.731771
947.251577	-2.973200	3.634100	-10.803000	24.794785	0.000956	20.730273
948.257704	-2.996400	3.633800	-10.888000	24.821939	0.000957	20.737611
949.252116	-3.005900	3.634600	-10.924000	24.821044	0.000957	20.726280
950.253229	-2.997400	3.632700	-10.888000	24.853991	0.000956	20.715250
951.251841	-3.009000	3.633100	-10.931000	24.878857	0.000958	20.711756
952.251090	-3.013700	3.632000	-10.945000	24.900414	0.000957	20.724384
953.254045	-2.994500	3.632500	-10.876000	24.932488	0.000952	20.731446
954.251713	-3.005700	3.631400	-10.914000	24.946314	0.000954	20.728728
955.252431	-3.004300	3.631800	-10.909000	24.897555	0.000954	20.722463
956.253426	-3.006200	3.630800	-10.915000	24.922096	0.000953	20.737138
957.251626	-2.984700	3.631300	-10.836000	24.891837	0.000954	20.724310
958.252990	-3.007200	3.632100	-10.921000	24.869309	0.000952	20.742004
959.254889	-3.002700	3.631300	-10.903000	24.850038	0.000950	20.722188
960.252212	-2.990800	3.631700	-10.861000	24.819131	0.000952	20.721042
961.252069	-3.009700	3.631100	-10.927000	24.791679	0.000951	20.731424
962.254695	-2.998100	3.630200	-10.883000	24.810503	0.000951	20.737039
963.252609	-3.032100	3.628900	-11.001000	24.816322	0.000951	20.733395
964.251001	-3.003700	3.629300	-10.900000	24.810676	0.000949	20.713029
965.255397	-3.000700	3.630000	-10.891000	24.836263	0.000950	20.729700
966.252898	-3.008400	3.627300	-10.910000	24.816397	0.000950	20.731574
967.253074	-3.003600	3.628900	-10.899000	24.834673	0.000949	20.734269
968.254880	-3.021500	3.628200	-10.960000	24.876372	0.000950	20.751464
969.255935	-2.996900	3.627900	-10.871000	24.887510	0.000949	20.751738
970.255105	-2.984500	3.627800	-10.826000	24.899421	0.000949	20.743303
971.256833	-2.971000	3.628500	-10.778000	24.900912	0.000949	20.745273
972.254170	-3.002800	3.625900	-10.887000	24.918517	0.000948	20.745873
973.253907	-2.968200	3.627000	-10.765000	24.929233	0.000948	20.744301
974.256249	-2.997600	3.627000	-10.871000	24.940049	0.000947	20.749942
975.256628	-2.986700	3.626100	-10.829000	24.962773	0.000948	20.748568
976.255546	-2.996700	3.626600	-10.867000	24.984901	0.000945	20.756080
977.258098	-2.995200	3.626000	-10.859000	25.002254	0.000947	20.732245
978.255770	-2.995500	3.626000	-10.860000	24.988603	0.000944	20.741778
979.256527	-2.996700	3.624100	-10.860000	25.034250	0.000946	20.743500
980.257466	-3.009100	3.626000	-10.910000	25.047103	0.000944	20.770627
981.258172	-2.988500	3.624900	-10.832000	25.045636	0.000944	20.739756
982.259173	-3.007600	3.624600	-10.901000	25.056449	0.000945	20.752508
983.258786	-3.013400	3.623000	-10.915000	25.066643	0.000945	20.745671
984.260031	-2.988000	3.623800	-10.828000	25.072783	0.000945	20.750412
985.260409	-2.991500	3.623600	-10.839000	25.087225	0.000944	20.757798
986.260610	-2.999700	3.623300	-10.867000	25.078277	0.000944	20.766833
987.261095	-3.012800	3.621900	-10.911000	25.064130	0.000943	20.744097
988.260527	-2.972100	3.624000	-10.769000	25.079841	0.000943	20.755127
989.259807	-2.981100	3.623400	-10.799000	25.071016	0.000942	20.746741
990.260108	-2.993300	3.622400	-10.842000	25.084043	0.000941	20.770251
991.260458	-2.996900	3.622800	-10.855000	25.098089	0.000941	20.758746
992.262642	-3.018300	3.621300	-10.927000	25.100177	0.000940	20.761316
993.263166	-2.978300	3.622600	-10.789000	25.126728	0.000942	20.753830
994.261502	-3.029300	3.620300	-10.965000	25.114248	0.000938	20.756949
995.263088	-3.023300	3.620100	-10.943000	25.085635	0.000937	20.772797
996.264776	-2.998900	3.621000	-10.858000	25.081408	0.000940	20.756226
997.265065	-2.980100	3.619900	-10.787000	25.117876	0.000937	20.764859
998.262659	-2.989400	3.618600	-10.816000	25.103259	0.000940	20.782903
999.263604	-2.987200	3.619000	-10.809000	25.082276	0.000938	20.753778
1000.264463	-3.017900	3.620400	-10.925000	25.070841	0.000938	20.761739
1001.266026	-2.998600	3.619100	-10.851000	25.091051	0.000938	20.768751
1002.265666	-3.031200	3.616800	-10.962000	25.076980	0.000937	20.762687
1003.265624	-3.017100	3.617800	-10.914000	25.004063	0.000936	20.771522
1004.267337	-3.011200	3.618500	-10.894000	24.962196	0.000935	20.762214
1005.265008	-3.010500	3.617600	-10.890000	24.912542	0.000937	20.750308
1006.264918	-2.998700	3.618900	-10.851000	24.936287	0.000934	20.774141
1007.266432	-3.001400	3.617600	-10.857000	24.943721	0.000934	20.763111
1008.266975	-2.983600	3.619100	-10.797000	24.948669	0.000934	20.762861
1009.273839	-3.000700	3.616200	-10.850000	24.955655	0.000937	20.759442
1010.266919	-3.002700	3.615400	-10.855000	24.994142	0.000933	20.756821
1011.273806	-2.990400	3.616700	-10.814000	24.996877	0.000932	20.760989
1012.266395	-2.985900	3.615800	-10.796000	25.012192	0.000932	20.776836
1013.266536	-2.995200	3.616800	-10.831000	25.050802	0.000933	20.766280
1014.270829	-2.993700	3.616800	-10.827000	25.079790	0.000932	20.793956
1015.266195	-2.982100	3.615800	-10.780000	25.112904	0.000931	20.773618
1016.265334	-2.999800	3.614700	-10.842000	25.158244	0.000933	20.769349
1017.268716	-3.010700	3.613200	-10.877000	25.154690	0.000930	20.768626
1018.266334	-3.013400	3.614700	-10.891000	25.167170	0.000929	20.774516
1019.265506	-3.002300	3.615200	-10.851000	25.144101	0.000928	20.773642
1020.271535	-3.002800	3.613100	-10.848000	25.119765	0.000930	20.774816
1021.269193	-2.988600	3.613500	-10.798000	25.066415	0.000929	20.781479
1022.270375	-3.016800	3.611600	-10.894000	25.019106	0.000928	20.751059
1023.274835	-3.009600	3.611000	-10.867000	24.982632	0.000927	20.785098
1024.268909	-2.991100	3.613200	-10.807000	24.982210	0.000927	20.761914
1025.268225	-3.000900	3.611300	-10.837000	24.985716	0.000928	20.798624
1026.273552	-3.010300	3.612500	-10.874000	25.021217	0.000926	20.779258
1027.271735	-2.998300	3.610600	-10.824000	25.017290	0.000928	20.796652
1028.271106	-3.013200	3.610700	-10.878000	25.029621	0.000927	20.776313
1029.272906	-3.010900	3.610200	-10.868000	25.041157	0.000927	20.791212
1030.273723	-3.010800	3.610000	-10.868000	25.018956	0.000926	20.798799
1031.271789	-2.994300	3.611500	-10.812000	25.043766	0.000927	20.793831
1032.274474	-3.028000	3.609600	-10.928000	25.022759	0.000927	20.765157
1033.273728	-3.010600	3.608400	-10.862000	25.001876	0.000925	20.788767
1034.275355	-2.990400	3.609800	-10.793000	25.028526	0.000925	20.768576
1035.274018	-3.002600	3.609800	-10.839000	25.004088	0.000925	20.792884
1036.273651	-3.007500	3.607700	-10.849000	24.999513	0.000923	20.793507
1037.274643	-2.990400	3.608300	-10.790000	25.020124	0.000921	20.768677
1038.274285	-2.998800	3.608400	-10.819000	25.002970	0.000924	20.787968
1039.274416	-2.992800	3.608700	-10.799000	24.999016	0.000921	20.760765
1040.273830	-3.000700	3.608300	-10.827000	24.988152	0.000921	20.775465
1041.276891	-3.004000	3.606500	-10.833000	25.015400	0.000922	20.773892
1042.276842	-3.000200	3.608000	-10.825000	25.008861	0.000922	20.799572
1043.276542	-2.995200	3.607300	-10.803000	25.031734	0.000922	20.779382
1044.280680	-3.007800	3.605900	-10.845000	25.074420	0.000920	20.787144
1045.283295	-3.016300	3.605600	-10.875000	25.066615	0.000921	20.798749
1046.277816	-3.015700	3.604800	-10.870000	25.107111	0.000918	20.788666
1047.279258	-3.019800	3.604500	-10.883000	25.142486	0.000919	20.785771
1048.280218	-2.984200	3.606400	-10.761000	25.140845	0.000919	20.800246
1049.277557	-2.994500	3.605000	-10.793000	25.139652	0.000919	20.815169
1050.286037	-3.015800	3.603200	-10.866000	25.121530	0.000918	20.795080
1051.283099	-3.018600	3.602400	-10.874000	25.115117	0.000918	20.802393
1052.280083	-2.981800	3.604400	-10.747000	25.118895	0.000918	20.792910
1053.284523	-2.995700	3.603000	-10.792000	25.143356	0.000918	20.796602
1054.284734	-3.026800	3.603900	-10.908000	25.148079	0.000916	20.812249
1055.280708	-3.019800	3.602200	-10.877000	25.181837	0.000916	20.806310
1056.283266	-2.995000	3.601600	-10.785000	25.176816	0.000914	20.778511
1057.285261	-3.014000	3.602300	-10.855000	25.196080	0.000916	20.814920
1058.284952	-2.996100	3.602500	-10.791000	25.213804	0.000915	20.791462
1059.284943	-2.995900	3.603400	-10.794000	25.218378	0.000914	20.799373
1060.284344	-2.995800	3.600300	-10.784000	25.220789	0.000913	20.789466
1061.280564	-2.985900	3.601800	-10.753000	25.226805	0.000914	20.808782
1062.285089	-2.987500	3.601400	-10.758000	25.221760	0.000912	20.794708
1063.285822	-2.987000	3.601500	-10.757000	25.209330	0.000912	20.809256
1064.281275	-2.977200	3.601000	-10.720000	25.181938	0.000912	20.801196
1065.287547	-3.012500	3.598800	-10.841000	25.153526	0.000912	20.819139
1066.287671	-3.007100	3.599600	-10.824000	25.129960	0.000910	20.801647
1067.282004	-3.010200	3.597300	-10.827000	25.152109	0.000911	20.814398
1068.287558	-3.001800	3.599100	-10.802000	25.160212	0.000910	20.822059
1069.289148	-3.016100	3.598900	-10.854000	25.183456	0.000912	20.815047
1070.284227	-3.005800	3.599600	-10.819000	25.152159	0.000909	20.823932
1071.287002	-2.997800	3.598700	-10.787000	25.190741	0.000910	20.804818
1072.287472	-3.034900	3.596600	-10.913000	25.214504	0.000909	20.815872
1073.283629	-2.982900	3.598600	-10.733000	25.236825	0.000908	20.801298
1074.286283	-3.017600	3.596700	-10.852000	25.240778	0.000907	20.815224
1075.286705	-2.991900	3.596800	-10.761000	25.252262	0.000909	20.801624
1076.284549	-3.006300	3.595400	-10.809000	25.256140	0.000909	20.819267
1077.288526	-2.986300	3.597100	-10.741000	25.246420	0.000907	20.813302
1078.286881	-2.991300	3.596900	-10.759000	25.266529	0.000908	20.823060
1079.284168	-3.009500	3.594300	-10.816000	25.280175	0.000906	20.824433
1080.286393	-2.991100	3.596400	-10.757000	25.248484	0.000905	20.824383
1081.285852	-3.012900	3.595000	-10.830000	25.271500	0.000905	20.807662
1082.285085	-3.037600	3.592600	-10.911000	25.266729	0.000903	20.829899
1083.287457	-2.993500	3.594600	-10.760000	25.301502	0.000904	20.825457
1084.285781	-3.013900	3.594200	-10.832000	25.300209	0.000903	20.819418
1085.286807	-3.012900	3.593500	-10.826000	25.275082	0.000902	20.809836
1086.294461	-3.008700	3.594600	-10.813000	25.288877	0.000902	20.811832
1087.285020	-3.029500	3.591800	-10.880000	25.304461	0.000901	20.805194
1088.289587	-3.010600	3.591500	-10.812000	25.313409	0.000902	20.817497
1089.286314	-2.991700	3.593200	-10.749000	25.308164	0.000901	20.825982
1090.291016	-2.997500	3.592000	-10.766000	25.326085	0.000901	20.824061
1091.285323	-2.974100	3.591900	-10.682000	25.332572	0.000902	20.835790
1092.288244	-2.977300	3.592300	-10.693000	25.328397	0.000899	20.837762
1093.292465	-2.986700	3.591300	-10.725000	25.337195	0.000899	20.834742
1094.287723	-3.021100	3.589800	-10.845000	25.346218	0.000897	20.828629
1095.288005	-3.006500	3.589900	-10.792000	25.341545	0.000899	20.838636
1096.289783	-3.006300	3.589800	-10.791000	25.373632	0.000898	20.837662
1097.285149	-2.996400	3.589900	-10.757000	25.397640	0.000898	20.845174
1098.286067	-3.022600	3.590000	-10.850000	25.399182	0.000897	20.832498
1099.291193	-3.022600	3.587400	-10.842000	25.377012	0.000896	20.850065
1100.286317	-2.989200	3.590300	-10.731000	25.326285	0.000897	20.832796
1101.289225	-3.001500	3.589500	-10.772000	25.307942	0.000896	20.825759
1102.290146	-3.008100	3.587900	-10.792000	25.310006	0.000894	20.837314
1103.286994	-2.986100	3.588700	-10.715000	25.303991	0.000893	20.834119
1104.289209	-3.009800	3.587400	-10.795000	25.306228	0.000893	20.831150
1105.292229	-3.016000	3.587000	-10.818000	25.330959	0.000893	20.846024
1106.286444	-3.012300	3.585900	-10.801000	25.350296	0.000894	20.844576
1107.287406	-3.015700	3.586800	-10.815000	25.370055	0.000894	20.840234
1108.290597	-3.014900	3.585800	-10.811000	25.368489	0.000890	20.847671
1109.285864	-2.988000	3.586400	-10.715000	25.354745	0.000893	20.843354
1110.290652	-2.982600	3.587900	-10.701000	25.344952	0.000892	20.861022
1111.292737	-3.025400	3.585000	-10.845000	25.315699	0.000889	20.848245
1112.286871	-2.998400	3.587200	-10.755000	25.278267	0.000889	20.854758
1113.293363	-3.016100	3.584300	-10.810000	25.251522	0.000889	20.846398
1114.289513	-2.990600	3.584900	-10.720000	25.241481	0.000888	20.860499
1115.286450	-2.998800	3.583800	-10.746000	25.271110	0.000889	20.865116
1116.289439	-3.023900	3.583700	-10.836000	25.305434	0.000888	20.827034
1117.293578	-3.006000	3.581800	-10.764000	25.295418	0.000888	20.840685
1118.288112	-3.010200	3.583000	-10.785000	25.288186	0.000887	20.846225
1119.292027	-2.990500	3.584000	-10.717000	25.322833	0.000887	20.853985
1120.292298	-3.001200	3.583300	-10.752000	25.352510	0.000887	20.846326
1121.289573	-2.985500	3.583900	-10.699000	25.360066	0.000887	20.854860
1122.290786	-2.979600	3.583200	-10.674000	25.369659	0.000885	20.855009
1123.291366	-3.010400	3.581800	-10.782000	25.410840	0.000886	20.885927
1124.290597	-2.968100	3.583900	-10.636000	25.427169	0.000885	20.867237
1125.293331	-2.992500	3.580800	-10.715000	25.432737	0.000884	20.846751
1126.296493	-3.002800	3.580500	-10.750000	25.405548	0.000886	20.851692
1127.291798	-3.023000	3.581000	-10.823000	25.437607	0.000884	20.851641
1128.295464	-3.011800	3.581500	-10.786000	25.413724	0.000883	20.858005
1129.297008	-3.002400	3.580400	-10.749000	25.432389	0.000883	20.862522
1130.292682	-3.000200	3.579800	-10.738000	25.418297	0.000882	20.882036
1131.295887	-3.016200	3.579300	-10.795000	25.444963	0.000883	20.851442
1132.296409	-3.007600	3.580800	-10.768000	25.460271	0.000880	20.849744
1133.292235	-2.999100	3.578500	-10.731000	25.434326	0.000881	20.869683
1134.294385	-2.999300	3.577700	-10.730000	25.460844	0.000881	20.867388
1135.295478	-3.019000	3.577900	-10.800000	25.456047	0.000879	20.868260
1136.292789	-3.005000	3.577700	-10.750000	25.462036	0.000879	20.865740
1137.294156	-2.980700	3.577300	-10.662000	25.466211	0.000879	20.870407
1138.292616	-2.989500	3.578800	-10.697000	25.471926	0.000880	20.864766
1139.295899	-3.009800	3.577400	-10.766000	25.449262	0.000879	20.865241
1140.299467	-3.001300	3.577800	-10.737000	25.435444	0.000879	20.868909
1141.296077	-3.004000	3.577200	-10.744000	25.456866	0.000877	20.875720
1142.295056	-2.999600	3.576400	-10.727000	25.487483	0.000877	20.862370
1143.297819	-2.999200	3.576300	-10.725000	25.483207	0.000876	20.856655
1144.299465	-2.980700	3.575600	-10.656000	25.523663	0.000877	20.856504
1145.296736	-2.996500	3.575100	-10.711000	25.529727	0.000876	20.852637
1146.299705	-2.988900	3.576100	-10.688000	25.534846	0.000874	20.859200
1147.296500	-3.004900	3.574600	-10.741000	25.530173	0.000876	20.863516
1148.300192	-3.004000	3.575000	-10.738000	25.499162	0.000873	20.855133
1149.302253	-3.009100	3.574300	-10.755000	25.484423	0.000874	20.838436
1150.302662	-3.000300	3.572900	-10.719000	25.436809	0.000874	20.857477
1151.301566	-2.990600	3.574600	-10.689000	25.416554	0.000875	20.852312
1152.302532	-2.991900	3.573100	-10.689000	25.455024	0.000872	20.868182
1153.302740	-3.014800	3.572300	-10.767000	25.453359	0.000875	20.869829
1154.302975	-2.979000	3.573600	-10.645000	25.463449	0.000871	20.836815
1155.305390	-3.023600	3.572100	-10.799000	25.488996	0.000872	20.845873
1156.303469	-2.986900	3.571500	-10.666000	25.506714	0.000870	20.844700
1157.303002	-2.976000	3.573200	-10.632000	25.528831	0.000871	20.839884
1158.305663	-2.999400	3.570700	-10.710000	25.516830	0.000870	20.856280
1159.307363	-3.022900	3.571700	-10.796000	25.526422	0.000871	20.855955
1160.305100	-3.002600	3.571100	-10.722000	25.558229	0.000869	20.865138
1161.308505	-3.003800	3.569900	-10.722000	25.550177	0.000869	20.847096
1162.305429	-3.012200	3.569800	-10.751000	25.561733	0.000868	20.841632
1163.304305	-2.976200	3.571100	-10.628000	25.590062	0.000872	20.840685
1164.305830	-3.015800	3.569400	-10.763000	25.594907	0.000867	20.839861
1165.306829	-3.012700	3.569500	-10.753000	25.619655	0.000867	20.847172
1166.308485	-3.028700	3.567600	-10.804000	25.616351	0.000869	20.850018
1167.309087	-3.004200	3.568100	-10.718000	25.603381	0.000864	20.858328
1168.306551	-3.023700	3.567400	-10.785000	25.592995	0.000868	20.849794
1169.308152	-2.998300	3.568500	-10.699000	25.571152	0.000866	20.849194
1170.308866	-2.991500	3.567400	-10.671000	25.553361	0.000866	20.849345
1171.309011	-2.986200	3.567400	-10.651000	25.517255	0.000866	20.833000
1172.308955	-3.013300	3.566800	-10.745000	25.479680	0.000863	20.828932
1173.309346	-3.014800	3.566500	-10.751000	25.442701	0.000864	20.807920
1174.309635	-2.966000	3.566200	-10.576000	25.444889	0.000862	20.821496
1175.310287	-2.993400	3.566900	-10.676000	25.437732	0.000864	20.864568
1176.311053	-3.011000	3.564800	-10.733000	25.435569	0.000862	20.829681
1177.309865	-3.020400	3.564200	-10.764000	25.404330	0.000861	20.831977
1178.313056	-3.005600	3.564400	-10.712000	25.380719	0.000860	20.820124
1179.312626	-3.002400	3.565600	-10.704000	25.371772	0.000860	20.826312
1180.311200	-3.012000	3.562900	-10.731000	25.361681	0.000860	20.837990
1181.311762	-3.017000	3.562000	-10.745000	25.343041	0.000860	20.827809
1182.314147	-2.987700	3.563600	-10.646000	25.386336	0.000858	20.803953
1183.312624	-3.010800	3.562900	-10.726000	25.395084	0.000860	20.821271
1184.313734	-3.030500	3.561100	-10.791000	25.396426	0.000859	20.830205
1185.312230	-2.995600	3.563100	-10.673000	25.393245	0.000858	20.824640
1186.314042	-3.010600	3.561800	-10.723000	25.378358	0.000857	20.837193
1187.311471	-3.002700	3.561600	-10.694000	25.423590	0.000857	20.835670
1188.311852	-3.029600	3.561000	-10.786000	25.429630	0.000856	20.822769
1189.311331	-3.003100	3.560800	-10.691000	25.461714	0.000852	20.811365
1190.314354	-3.004200	3.560500	-10.695000	25.449934	0.000854	20.809493
1191.311739	-3.007900	3.560300	-10.707000	25.444119	0.000856	20.808870
1192.313302	-2.992400	3.561800	-10.656000	25.457365	0.000853	20.831179
1193.311013	-2.996700	3.561500	-10.671000	25.482142	0.000851	20.821448
1194.312476	-3.009400	3.559400	-10.711000	25.484927	0.000851	20.833727
1195.312520	-2.981800	3.560500	-10.616000	25.496979	0.000850	20.816906
1196.313158	-3.010900	3.559800	-10.718000	25.504559	0.000852	20.806027
1197.319959	-3.012000	3.558500	-10.717000	25.507815	0.000852	20.804081
1198.316136	-3.017100	3.557500	-10.732000	25.466787	0.000851	20.843960
1199.313063	-3.002600	3.558100	-10.682000	25.479536	0.000851	20.807925
1200.315196	-3.006600	3.557600	-10.695000	25.485849	0.000847	20.789134
1201.318469	-3.013500	3.557500	-10.720000	25.502772	0.000850	20.817983
1202.314373	-3.015100	3.556100	-10.721000	25.442235	0.000848	20.809823
1203.316523	-3.017200	3.556000	-10.727000	25.457843	0.000847	20.812694
1204.314561	-3.011400	3.556500	-10.709000	25.442137	0.000846	20.815888
1205.315368	-2.992000	3.557400	-10.643000	25.460131	0.000848	20.800292
1206.315046	-3.017700	3.554900	-10.727000	25.473824	0.000847	20.791283
1207.314994	-2.994500	3.556700	-10.650000	25.481106	0.000845	20.819458
1208.314031	-2.979000	3.557900	-10.598000	25.509908	0.000846	20.816139
1209.315479	-3.008100	3.554900	-10.693000	25.530410	0.000845	20.808279
1210.314319	-3.014300	3.553300	-10.708000	25.551310	0.000843	20.803664
1211.315827	-3.005500	3.556300	-10.687000	25.561050	0.000841	20.813446
1212.315974	-2.964700	3.555900	-10.542000	25.578968	0.000844	20.795405
1213.316982	-3.000200	3.553800	-10.660000	25.591790	0.000841	20.810179
1214.315680	-2.975300	3.555300	-10.577000	25.605804	0.000840	20.803391
1215.315818	-3.023300	3.553100	-10.740000	25.621062	0.000842	20.781730
1216.315751	-3.005300	3.552000	-10.673000	25.616763	0.000841	20.783103
1217.316985	-2.999900	3.552500	-10.657000	25.643750	0.000839	20.790766
1218.319845	-2.995300	3.552500	-10.640000	25.629412	0.000840	20.784427
1219.317897	-3.011200	3.550800	-10.691000	25.595593	0.000839	20.804041
1220.320345	-3.002500	3.551700	-10.663000	25.584785	0.000838	20.785126
1221.318339	-2.998700	3.551900	-10.650000	25.573033	0.000838	20.784703
1222.318323	-3.006000	3.551300	-10.674000	25.585532	0.000837	20.794886
1223.318872	-3.026400	3.550500	-10.744000	25.592763	0.000836	20.803570
1224.317623	-3.041300	3.549600	-10.794000	25.563889	0.000836	20.789270
1225.319093	-2.987500	3.550500	-10.606000	25.528330	0.000837	20.782957
1226.318492	-2.987300	3.550900	-10.607000	25.501939	0.000835	20.785852
1227.319297	-3.001700	3.549700	-10.654000	25.494906	0.000834	20.776892
1228.320032	-3.005000	3.549400	-10.665000	25.458053	0.000832	20.794887
1229.319282	-2.993100	3.549700	-10.624000	25.441375	0.000833	20.799951
1230.320110	-3.008900	3.548700	-10.677000	25.446869	0.000834	20.796933
1231.320932	-3.020400	3.547900	-10.715000	25.459071	0.000831	20.782158
1232.319874	-2.980100	3.549900	-10.578000	25.460139	0.000831	20.784653
1233.320534	-2.979200	3.549600	-10.574000	25.508053	0.000832	20.788673
1234.320190	-2.989000	3.549100	-10.607000	25.514415	0.000830	20.799804
1235.320869	-3.006800	3.547400	-10.665000	25.472218	0.000830	20.785404
1236.321252	-2.989200	3.548600	-10.606000	25.482159	0.000830	20.798705
1237.322950	-3.004400	3.548000	-10.658000	25.495828	0.000828	20.769758
1238.320590	-3.003300	3.545700	-10.648000	25.522044	0.000829	20.781860
1239.320837	-2.987400	3.545900	-10.592000	25.518416	0.000826	20.793390
1240.322079	-3.022800	3.544600	-10.714000	25.500375	0.000827	20.780014
1241.325900	-2.983700	3.545600	-10.578000	25.477635	0.000827	20.789421
1242.323593	-2.999800	3.544000	-10.629000	25.462005	0.000826	20.785579
1243.323013	-2.979900	3.546500	-10.566000	25.440782	0.000826	20.786552
1244.322842	-3.004100	3.543300	-10.644000	25.426045	0.000827	20.777918
1245.322945	-3.026000	3.543500	-10.721000	25.420900	0.000825	20.790296
1246.322371	-3.004200	3.543600	-10.644000	25.452736	0.000825	20.776745
1247.322820	-2.990000	3.542500	-10.592000	25.430146	0.000823	20.775398
1248.323740	-2.999100	3.542400	-10.623000	25.465609	0.000822	20.784931
1249.323993	-3.004700	3.543600	-10.647000	25.480943	0.000824	20.778992
1250.326168	-2.983200	3.542800	-10.568000	25.498759	0.000821	20.782184
1251.323665	-2.998400	3.541700	-10.618000	25.492721	0.000823	20.774698
1252.323812	-3.003600	3.541900	-10.637000	25.457009	0.000822	20.779614
1253.327091	-2.973500	3.541200	-10.529000	25.476245	0.000821	20.755781
1254.325174	-3.002800	3.540900	-10.632000	25.485912	0.000820	20.752687
1255.329190	-3.021200	3.540500	-10.695000	25.498040	0.000821	20.779091
1256.326060	-2.995500	3.541400	-10.608000	25.480544	0.000820	20.788074
1257.326441	-3.021100	3.540200	-10.694000	25.494882	0.000819	20.782559
1258.327859	-2.998900	3.540300	-10.617000	25.490285	0.000817	20.768458
1259.329275	-3.007900	3.539200	-10.645000	25.487129	0.000820	20.762919
1260.324458	-2.987900	3.539700	-10.575000	25.506587	0.000819	20.767286
1261.332104	-2.985400	3.538900	-10.563000	25.537203	0.000817	20.775272
1262.328143	-3.025300	3.537900	-10.701000	25.561604	0.000819	20.765638
1263.326723	-2.989700	3.538900	-10.580000	25.597288	0.000817	20.783458
1264.328547	-3.010100	3.536200	-10.643000	25.618706	0.000816	20.766087
1265.329266	-2.983600	3.537800	-10.554000	25.635006	0.000817	20.783407
1266.327035	-3.002900	3.536700	-10.620000	25.607426	0.000815	20.778467
1267.328506	-2.985600	3.536800	-10.558000	25.575371	0.000816	20.768559
1268.330099	-2.991100	3.536700	-10.578000	25.549155	0.000814	20.775421
1269.326638	-2.989100	3.535400	-10.566000	25.535538	0.000815	20.759850
1270.328266	-2.996100	3.535200	-10.591000	25.535091	0.000814	20.761297
1271.331472	-2.988800	3.536200	-10.567000	25.532805	0.000812	20.763743
1272.327371	-2.996300	3.534900	-10.589000	25.516205	0.000814	20.760823
1273.328834	-3.002300	3.534400	-10.610000	25.497194	0.000812	20.774448
1274.330446	-2.994300	3.533600	-10.579000	25.486657	0.000811	20.760074
1275.328147	-2.980100	3.534500	-10.531000	25.480099	0.000811	20.756807
1276.330778	-2.993100	3.535000	-10.579000	25.492945	0.000811	20.779191
1277.329069	-3.007400	3.534000	-10.625000	25.511632	0.000812	20.763817
1278.329185	-3.014200	3.532700	-10.648000	25.515285	0.000809	20.757055
1279.331975	-3.023400	3.532400	-10.679000	25.544036	0.000809	20.742778
1280.330300	-2.992600	3.534400	-10.577000	25.551616	0.000810	20.755133
1281.329949	-2.962000	3.534700	-10.468000	25.596045	0.000807	20.753760
1282.334593	-3.002000	3.531700	-10.602000	25.571695	0.000809	20.750641
1283.329369	-3.027400	3.531900	-10.689000	25.542322	0.000807	20.761921
1284.331834	-2.990100	3.533000	-10.563000	25.522715	0.000804	20.745075
1285.332206	-2.999300	3.530200	-10.587000	25.511035	0.000806	20.751363
1286.330451	-2.982700	3.531000	-10.531000	25.529648	0.000804	20.752512
1287.331715	-2.989700	3.530400	-10.554000	25.507281	0.000805	20.764190
1288.333522	-3.004800	3.529200	-10.604000	25.500397	0.000806	20.755854
1289.331691	-2.997200	3.529600	-10.578000	25.524825	0.000804	20.762842
1290.334444	-2.992800	3.529000	-10.561000	25.547165	0.000802	20.753508
1291.332315	-2.997400	3.528400	-10.576000	25.570075	0.000803	20.748067
1292.330779	-2.993200	3.527800	-10.558000	25.569304	0.000803	20.754405
1293.332210	-3.000500	3.527700	-10.583000	25.573902	0.000802	20.750961
1294.331141	-2.987000	3.530200	-10.543000	25.567639	0.000801	20.747517
1295.334466	-2.993100	3.528000	-10.558000	25.557128	0.000799	20.740279
1296.334326	-3.005300	3.526500	-10.597000	25.576137	0.000800	20.775018
1297.332144	-3.012800	3.527100	-10.625000	25.552554	0.000799	20.739479
1298.333783	-2.997400	3.526600	-10.570000	25.512993	0.000798	20.753330
1299.335523	-3.002600	3.525900	-10.585000	25.510310	0.000798	20.748265
1300.333658	-2.987500	3.526500	-10.534000	25.518186	0.000796	20.746216
1301.332279	-2.989200	3.525700	-10.537000	25.526361	0.000797	20.753478
1302.333835	-3.004700	3.524500	-10.589000	25.539954	0.000798	20.744369
1303.334184	-3.048200	3.524500	-10.742000	25.575390	0.000795	20.743447
1304.332833	-3.002800	3.523900	-10.581000	25.600633	0.000797	20.732288
1305.332984	-3.024000	3.524000	-10.655000	25.615543	0.000794	20.767178
1306.338009	-3.004900	3.524800	-10.590000	25.609032	0.000793	20.760639
1307.333698	-3.011400	3.522400	-10.607000	25.642130	0.000793	20.746939
1308.332034	-2.992900	3.524300	-10.546000	25.646229	0.000792	20.746315
1309.335283	-2.996100	3.523200	-10.554000	25.633383	0.000792	20.748112
1310.333667	-3.003800	3.522000	-10.579000	25.658205	0.000791	20.767352
1311.335358	-2.986600	3.522800	-10.520000	25.696047	0.000792	20.745142
1312.334870	-3.013200	3.521800	-10.611000	25.700246	0.000792	20.719961
1313.336298	-2.990900	3.523200	-10.537000	25.671201	0.000791	20.724927
1314.336912	-3.023100	3.520200	-10.641000	25.624265	0.000789	20.750807
1315.345581	-3.001800	3.520800	-10.568000	25.595888	0.000790	20.725626
1316.335653	-2.976500	3.519800	-10.475000	25.542786	0.000789	20.746739
1317.336761	-2.964900	3.522000	-10.441000	25.540897	0.000788	20.740100
1318.339995	-2.990400	3.518700	-10.521000	25.564530	0.000786	20.726850
1319.334653	-3.000800	3.519000	-10.559000	25.552304	0.000788	20.721683
1320.338308	-3.018900	3.518600	-10.620000	25.579613	0.000786	20.742947
1321.343382	-2.967600	3.519100	-10.443000	25.565523	0.000784	20.758194
1322.339073	-3.004100	3.519200	-10.571000	25.522633	0.000784	20.713697
1323.339115	-2.986700	3.519300	-10.509000	25.509388	0.000786	20.739752
1324.342096	-3.004100	3.519000	-10.569000	25.518756	0.000784	20.742047
1325.339331	-3.012600	3.517200	-10.595000	25.515127	0.000783	20.746938
1326.339910	-3.003900	3.517300	-10.564000	25.557571	0.000782	20.746414
1327.343214	-3.022300	3.517600	-10.630000	25.569573	0.000782	20.719586
1328.342463	-2.973000	3.517500	-10.456000	25.593353	0.000780	20.721183
1329.340471	-3.016600	3.516000	-10.605000	25.622725	0.000781	20.740251
1330.343731	-2.976900	3.517000	-10.469000	25.644291	0.000782	20.744368
1331.340634	-2.996100	3.514500	-10.528000	25.660293	0.000781	20.729619
1332.342453	-3.002800	3.514700	-10.553000	25.657509	0.000780	20.726348
1333.340363	-2.994900	3.514700	-10.524000	25.638774	0.000781	20.733610
1334.344114	-3.014400	3.513600	-10.590000	25.643123	0.000779	20.739875
1335.340719	-3.014600	3.514700	-10.595000	25.632636	0.000779	20.753051
1336.343923	-2.972300	3.513900	-10.442000	25.630698	0.000778	20.740199
1337.347203	-3.003200	3.512700	-10.548000	25.576207	0.000779	20.717239
1338.343444	-3.017200	3.512100	-10.596000	25.546064	0.000778	20.723951
1339.344616	-3.009000	3.513000	-10.570000	25.555582	0.000777	20.739675
1340.345827	-3.023500	3.512800	-10.619000	25.548746	0.000777	20.729017
1341.344520	-3.012600	3.511900	-10.578000	25.572280	0.000776	20.736056
1342.344984	-3.012800	3.511400	-10.578000	25.585027	0.000776	20.730366
1343.348905	-3.017900	3.511200	-10.596000	25.615864	0.000775	20.731463
1344.343954	-3.013500	3.509800	-10.576000	25.608781	0.000774	20.725772
1345.344797	-3.030000	3.510400	-10.636000	25.627342	0.000774	20.719757
1346.343517	-2.985700	3.511400	-10.481000	25.626721	0.000772	20.737627
1347.345931	-3.000200	3.509200	-10.528000	25.601748	0.000773	20.734830
1348.343978	-2.988300	3.508100	-10.482000	25.548944	0.000774	20.727792
1349.344720	-2.999900	3.508600	-10.523000	25.550136	0.000772	20.733731
1350.344658	-2.972500	3.510300	-10.434000	25.564325	0.000772	20.720005
1351.345098	-3.004600	3.507600	-10.537000	25.546707	0.000771	20.715588
1352.343859	-2.968100	3.508300	-10.412000	25.544247	0.000771	20.740146
1353.344084	-2.986900	3.509300	-10.481000	25.534207	0.000768	20.742865
1354.345893	-2.995300	3.507600	-10.505000	25.552571	0.000769	20.720055
1355.344926	-2.987500	3.508100	-10.479000	25.554682	0.000769	20.745884
1356.349755	-3.013000	3.506800	-10.565000	25.552148	0.000768	20.717733
1357.350007	-2.968000	3.507300	-10.408000	25.579656	0.000767	20.741093
1358.345877	-2.987900	3.508200	-10.480000	25.575954	0.000767	20.732159
1359.347185	-2.968400	3.508100	-10.412000	25.577519	0.000766	20.741792
1360.349269	-3.008800	3.504300	-10.542000	25.614568	0.000766	20.736800
1361.345573	-2.989400	3.507400	-10.484000	25.625699	0.000766	20.721426
1362.350082	-3.007900	3.505900	-10.545000	25.636260	0.000768	20.724447
1363.349019	-2.959500	3.506300	-10.375000	25.652485	0.000765	20.717034
1364.348960	-3.019600	3.503300	-10.577000	25.672263	0.000766	20.745909
1365.350606	-3.011300	3.502400	-10.544000	25.649254	0.000763	20.748879
1366.348672	-2.988100	3.504400	-10.471000	25.672040	0.000764	20.716760
1367.348285	-2.999300	3.502700	-10.504000	25.658275	0.000764	20.721902
1368.350032	-3.007800	3.501100	-10.530000	25.656188	0.000763	20.746360
1369.350035	-2.997900	3.502300	-10.499000	25.657207	0.000764	20.731261
1370.349990	-2.960400	3.503300	-10.370000	25.653382	0.000762	20.728841
1371.349918	-2.986300	3.501000	-10.454000	25.694602	0.000763	20.731836
1372.353795	-3.022200	3.499700	-10.575000	25.701658	0.000762	20.736078
1373.353443	-3.019500	3.500100	-10.568000	25.672489	0.000760	20.725747
1374.349610	-3.007800	3.499700	-10.526000	25.646151	0.000763	20.731537
1375.356256	-2.969700	3.500000	-10.393000	25.684366	0.000760	20.726296
1376.350266	-3.007400	3.500100	-10.526000	25.681062	0.000759	20.734358
1377.349137	-3.013000	3.498400	-10.540000	25.675447	0.000758	20.749582
1378.351757	-2.987300	3.500200	-10.455000	25.670975	0.000759	20.728968
1379.350918	-2.982100	3.498800	-10.432000	25.666902	0.000760	20.716816
1380.351716	-2.991700	3.498200	-10.464000	25.713412	0.000758	20.719909
1381.351596	-2.990500	3.498100	-10.460000	25.727823	0.000757	20.721581
1382.352045	-3.031400	3.496500	-10.598000	25.754756	0.000756	20.738204
1383.352498	-3.013200	3.496600	-10.535000	25.756247	0.000756	20.721208
1384.352721	-3.014500	3.497100	-10.542000	25.763775	0.000755	20.715493
1385.357950	-2.991700	3.496800	-10.461000	25.792174	0.000755	20.735486
1386.353041	-3.013500	3.496000	-10.535000	25.783727	0.000752	20.753080
1387.352985	-3.014300	3.496000	-10.537000	25.779429	0.000755	20.730270
1388.352956	-3.002500	3.496100	-10.496000	25.752350	0.000754	20.731045
1389.355868	-2.993300	3.495200	-10.462000	25.710411	0.000754	20.720688
1390.357392	-2.998700	3.493900	-10.476000	25.707630	0.000753	20.710781
1391.353169	-3.008400	3.493600	-10.509000	25.658336	0.000752	20.723386
1392.356380	-2.997900	3.493000	-10.470000	25.686685	0.000751	20.722461
1393.357139	-2.988300	3.494600	-10.442000	25.675406	0.000751	20.728676
1394.354692	-2.989800	3.493600	-10.444000	25.705495	0.000750	20.738510
1395.363422	-3.016900	3.492200	-10.535000	25.735111	0.000749	20.748343
1396.357240	-2.974300	3.493500	-10.389000	25.728651	0.000752	20.735215
1397.355584	-3.033700	3.492100	-10.593000	25.731285	0.000749	20.749241
1398.357030	-2.997700	3.492100	-10.466000	25.669940	0.000749	20.734567
1399.361661	-2.982000	3.491100	-10.409000	25.661170	0.000749	20.726706
1400.359858	-2.994600	3.490000	-10.449000	25.616620	0.000747	20.741707
1401.358861	-3.019100	3.490100	-10.536000	25.569284	0.000745	20.746324
1402.362396	-2.988300	3.490600	-10.430000	25.593114	0.000745	20.744177
1403.360641	-3.027300	3.488600	-10.560000	25.613664	0.000744	20.712657
1404.360912	-2.969400	3.489800	-10.361000	25.621888	0.000746	20.721392
1405.362620	-3.013600	3.489200	-10.514000	25.652899	0.000746	20.740685
1406.361434	-2.994200	3.487700	-10.442000	25.648351	0.000745	20.719521
1407.364605	-2.998900	3.489800	-10.464000	25.640749	0.000743	20.735121
1408.361641	-3.001800	3.488400	-10.470000	25.667931	0.000744	20.721169
1409.360887	-2.993600	3.488100	-10.441000	25.698294	0.000742	20.724165
1410.359478	-2.985700	3.488200	-10.414000	25.715215	0.000744	20.728832
1411.364204	-3.007900	3.486300	-10.485000	25.659585	0.000743	20.732701
1412.361269	-3.027000	3.485400	-10.550000	25.651087	0.000743	20.733649
1413.361533	-3.005500	3.485000	-10.472000	25.676481	0.000742	20.735447
1414.369608	-3.002600	3.486200	-10.467000	25.670295	0.000743	20.746304
1415.364640	-2.956500	3.487100	-10.307000	25.705626	0.000740	20.735796
1416.362797	-3.020800	3.484900	-10.526000	25.723490	0.000741	20.732877
1417.363070	-3.003000	3.485200	-10.464000	25.734547	0.000742	20.741612
1418.363087	-3.012000	3.483500	-10.491000	25.776360	0.000740	20.750421
1419.370079	-3.006700	3.483700	-10.474000	25.775417	0.000740	20.741887
1420.363365	-3.021400	3.484100	-10.525000	25.798125	0.000738	20.752844
1421.367196	-2.992500	3.483900	-10.424000	25.792088	0.000739	20.740615
1422.363241	-3.005500	3.484200	-10.471000	25.790847	0.000738	20.723246
1423.362884	-2.999400	3.484400	-10.450000	25.814696	0.000738	20.749575
1424.367751	-3.013400	3.482300	-10.492000	25.798524	0.000737	20.748503
1425.365991	-2.978400	3.483700	-10.375000	25.808784	0.000737	20.744584
1426.364512	-2.998700	3.481100	-10.437000	25.804311	0.000735	20.756687
1427.375941	-3.002900	3.480500	-10.450000	25.815342	0.000734	20.748802
1428.367157	-2.996100	3.482300	-10.432000	25.812287	0.000733	20.742888
1429.365174	-2.991500	3.481900	-10.413000	25.805282	0.000734	20.740593
1430.368256	-2.996700	3.479900	-10.427000	25.815245	0.000733	20.750126
1431.367361	-3.014000	3.479800	-10.487000	25.827195	0.000732	20.748854
1432.366492	-2.986800	3.481300	-10.395000	25.813084	0.000734	20.751275
1433.371265	-3.006000	3.479200	-10.457000	25.808986	0.000733	20.757115
1434.368982	-3.020300	3.477700	-10.503000	25.799669	0.000732	20.753447
1435.367398	-2.984700	3.480200	-10.385000	25.805011	0.000732	20.743165
1436.371043	-3.008500	3.476400	-10.457000	25.804613	0.000730	20.753672
1437.368388	-3.006200	3.478400	-10.455000	25.817359	0.000730	20.733758
1438.367549	-3.009300	3.477200	-10.464000	25.813956	0.000731	20.748832
1439.368901	-2.984600	3.477300	-10.377000	25.767400	0.000730	20.751852
1440.368787	-3.007100	3.475500	-10.450000	25.737040	0.000729	20.757393
1441.369384	-3.016800	3.474800	-10.481000	25.715251	0.000730	20.742145
1442.369408	-2.974600	3.477800	-10.344000	25.674479	0.000727	20.757144
1443.369390	-3.011900	3.475000	-10.466000	25.663075	0.000730	20.759916
1444.372868	-2.997200	3.475400	-10.415000	25.672640	0.000727	20.738701
1445.368982	-2.995600	3.474900	-10.408000	25.700269	0.000727	20.753651
1446.370142	-3.011400	3.473500	-10.458000	25.689933	0.000727	20.745165
1447.370849	-2.995000	3.474000	-10.403000	25.679349	0.000728	20.755398
1448.368779	-3.002200	3.473000	-10.426000	25.688121	0.000725	20.755199
1449.370110	-3.017300	3.472400	-10.476000	25.698732	0.000723	20.752106
1450.376444	-3.002300	3.471900	-10.422000	25.683824	0.000725	20.755625
1451.370723	-2.989200	3.471700	-10.377000	25.699204	0.000725	20.763960
1452.371584	-3.013900	3.470700	-10.458000	25.734360	0.000724	20.766555
1453.373470	-2.990000	3.471300	-10.377000	25.709739	0.000723	20.757473
1454.372303	-3.010400	3.469200	-10.442000	25.723753	0.000723	20.754953
1455.372102	-2.994800	3.471700	-10.396000	25.710088	0.000722	20.735536
1456.372954	-3.002000	3.471200	-10.420000	25.709293	0.000721	20.770776
1457.372036	-2.999500	3.470300	-10.408000	25.670210	0.000721	20.761392
1458.373087	-3.012300	3.468900	-10.448000	25.622628	0.000721	20.751534
1459.371904	-3.014700	3.468100	-10.455000	25.618056	0.000719	20.759271
1460.372153	-3.027200	3.469200	-10.501000	25.580038	0.000719	20.756650
1461.374005	-2.977400	3.468000	-10.325000	25.533049	0.000719	20.744073
1462.373685	-2.967400	3.468800	-10.293000	25.517990	0.000718	20.774943
1463.372611	-2.988200	3.468700	-10.363000	25.503826	0.000719	20.747443
1464.372381	-2.992400	3.468000	-10.377000	25.521991	0.000720	20.753357
1465.373034	-2.965300	3.468000	-10.283000	25.508175	0.000719	20.772199
1466.372484	-2.997400	3.468700	-10.395000	25.584017	0.000716	20.782932
1467.374967	-3.009900	3.466400	-10.431000	25.626704	0.000717	20.769379
1468.373963	-2.989700	3.465800	-10.361000	25.624890	0.000717	20.768506
1469.377954	-3.012800	3.465200	-10.439000	25.661864	0.000715	20.768656
1470.375178	-2.990800	3.467400	-10.369000	25.657466	0.000716	20.770404
1471.377316	-3.004200	3.463900	-10.405000	25.643576	0.000714	20.746969
1472.377757	-3.002200	3.464300	-10.400000	25.626108	0.000716	20.765936
1473.374282	-2.982500	3.466700	-10.338000	25.606902	0.000714	20.771302
1474.385283	-2.990900	3.465000	-10.362000	25.588316	0.000715	20.763067
1475.378836	-3.019700	3.463400	-10.458000	25.614084	0.000712	20.780412
1476.377369	-3.003400	3.461500	-10.395000	25.644447	0.000714	20.771552
1477.378737	-3.017500	3.461600	-10.443000	25.645715	0.000713	20.765713
1478.376810	-2.980500	3.463400	-10.321000	25.658836	0.000713	20.761821
1479.378621	-2.989400	3.462400	-10.349000	25.694739	0.000712	20.770381
1480.386015	-2.993600	3.461300	-10.361000	25.685520	0.000711	20.772502
1481.383890	-2.996900	3.460800	-10.371000	25.682093	0.000711	20.780914
1482.380599	-3.025100	3.459100	-10.463000	25.710541	0.000711	20.765865
1483.378678	-3.034200	3.459600	-10.496000	25.733375	0.000711	20.769834
1484.382536	-3.003800	3.459600	-10.391000	25.760604	0.000709	20.766838
1485.379832	-2.986900	3.461200	-10.338000	25.796033	0.000708	20.754536
1486.380031	-3.006800	3.457100	-10.393000	25.809771	0.000707	20.783984
1487.384365	-2.998700	3.460100	-10.375000	25.846267	0.000709	20.770384
1488.381492	-3.001000	3.456900	-10.373000	25.864153	0.000707	20.773179
1489.382621	-3.004500	3.458300	-10.389000	25.856999	0.000708	20.775001
1490.383630	-3.022900	3.456400	-10.446000	25.862863	0.000707	20.778995
1491.385189	-3.011100	3.457200	-10.409000	25.861894	0.000708	20.782289
1492.387542	-3.002700	3.456200	-10.376000	25.860080	0.000708	20.776674
1493.385978	-2.988500	3.458500	-10.335000	25.855959	0.000707	20.777275
1494.390531	-3.003500	3.456500	-10.381000	25.890935	0.000707	20.777323
1495.386793	-2.990300	3.455600	-10.332000	25.886588	0.000707	20.792397
1496.386887	-2.984000	3.455400	-10.309000	25.886340	0.000704	20.793571
1497.390244	-2.998500	3.455100	-10.359000	25.896177	0.000705	20.774055
1498.388037	-3.006400	3.455500	-10.387000	25.887285	0.000703	20.772709
1499.392061	-3.014600	3.453400	-10.410000	25.896426	0.000702	20.787108
1500.392448	-3.004100	3.452900	-10.372000	25.849277	0.000704	20.775305
1501.388659	-3.010600	3.453000	-10.395000	25.813751	0.000703	20.787033
1502.390091	-3.003800	3.453000	-10.371000	25.779715	0.000703	20.787458
1503.391121	-3.016900	3.451600	-10.412000	25.764139	0.000702	20.805003
1504.399123	-2.980200	3.452700	-10.288000	25.733606	0.000700	20.784765
1505.388319	-3.018200	3.451200	-10.416000	25.764958	0.000700	20.788281
1506.390586	-2.979900	3.453300	-10.290000	25.748836	0.000698	20.790105
1507.390326	-2.989300	3.452100	-10.318000	25.763768	0.000700	20.804155
1508.391546	-2.982300	3.451300	-10.292000	25.807170	0.000699	20.771888
1509.391681	-2.989100	3.450800	-10.314000	25.790600	0.000699	20.808822
1510.397882	-3.007300	3.451100	-10.377000	25.821927	0.000699	20.787185
1511.393772	-3.014800	3.450700	-10.402000	25.808611	0.000698	20.799414
1512.392344	-3.027600	3.448700	-10.440000	25.825554	0.000698	20.800312
1513.390686	-3.017900	3.448000	-10.404000	25.772265	0.000698	20.781870
1514.395661	-3.000100	3.448600	-10.346000	25.769333	0.000696	20.795521
1515.393377	-3.004500	3.448300	-10.358000	25.773857	0.000696	20.784418
1516.393469	-2.997400	3.448200	-10.334000	25.783099	0.000696	20.801288
1517.397003	-2.998200	3.447600	-10.335000	25.774801	0.000693	20.788685
1518.396596	-3.009200	3.446200	-10.369000	25.812043	0.000694	20.804758
1519.394510	-3.002200	3.447100	-10.348000	25.795672	0.000696	20.792580
1520.396976	-3.002600	3.445500	-10.345000	25.822006	0.000693	20.811921
1521.396126	-3.020900	3.444700	-10.404000	25.831472	0.000695	20.805782
1522.396390	-2.999400	3.444500	-10.331000	25.871618	0.000694	20.794903
1523.400738	-3.002800	3.444300	-10.342000	25.857534	0.000693	20.785022
1524.397382	-2.977400	3.445500	-10.257000	25.897082	0.000693	20.809578
1525.396937	-3.005800	3.444600	-10.352000	25.894673	0.000692	20.794830
1526.396700	-2.993300	3.444300	-10.308000	25.887893	0.000691	20.810778
1527.396401	-2.996200	3.443300	-10.315000	25.884886	0.000693	20.809654
1528.396089	-2.993400	3.444600	-10.311000	25.902922	0.000691	20.804539
1529.398614	-2.985100	3.444500	-10.279000	25.906998	0.000690	20.809108
1530.398821	-3.007300	3.441600	-10.349000	25.913284	0.000691	20.792663
1531.398432	-3.009300	3.442500	-10.358000	25.902230	0.000687	20.812379
1532.399164	-3.004800	3.442200	-10.342000	25.904316	0.000689	20.824905
1533.399496	-3.000400	3.442100	-10.326000	25.882035	0.000688	20.802522
1534.399287	-3.008000	3.440600	-10.349000	25.862708	0.000687	20.797806
1535.399434	-2.975900	3.442600	-10.243000	25.835482	0.000688	20.809810
1536.401572	-3.009500	3.440000	-10.352000	25.851903	0.000689	20.809237
1537.398107	-2.984500	3.440500	-10.267000	25.839358	0.000688	20.811808
1538.400307	-2.998800	3.438500	-10.310000	25.856499	0.000685	20.819069
1539.403096	-2.997500	3.441100	-10.314000	25.883678	0.000684	20.802276
1540.403023	-2.996000	3.440600	-10.306000	25.907824	0.000685	20.826058
1541.400887	-2.970000	3.440100	-10.216000	25.919599	0.000685	20.811335
1542.407028	-3.016700	3.437500	-10.368000	25.933782	0.000682	20.807093
1543.405499	-3.009500	3.438300	-10.347000	25.913563	0.000683	20.813332
1544.402567	-3.002100	3.437800	-10.319000	25.907502	0.000683	20.815304
1545.403355	-2.984100	3.438800	-10.261000	25.901316	0.000683	20.818099
1546.405339	-2.999800	3.437500	-10.311000	25.920419	0.000683	20.810736
1547.403467	-3.025000	3.435100	-10.390000	25.921636	0.000682	20.807692
1548.403050	-2.976800	3.436600	-10.229000	25.905465	0.000683	20.809939
1549.403290	-2.996200	3.435600	-10.293000	25.907899	0.000681	20.819022
1550.408016	-2.992900	3.435400	-10.281000	25.936591	0.000681	20.828880
1551.403762	-3.014300	3.433900	-10.350000	25.918979	0.000681	20.827308
1552.405302	-3.024300	3.433900	-10.384000	25.928219	0.000682	20.827582
1553.405602	-3.004700	3.433700	-10.317000	25.913960	0.000679	20.826532
1554.405498	-2.986400	3.434000	-10.255000	25.893540	0.000679	20.826134
1555.407490	-3.007500	3.431400	-10.318000	25.860327	0.000679	20.815803
1556.407106	-3.014700	3.432100	-10.346000	25.848874	0.000679	20.818996
1557.407889	-2.976300	3.433100	-10.217000	25.847408	0.000678	20.841705
1558.411838	-3.001200	3.431700	-10.299000	25.869743	0.000677	20.830950
1559.409333	-3.009100	3.430700	-10.322000	25.886312	0.000678	20.821517
1560.409662	-2.997700	3.431600	-10.286000	25.880945	0.000676	20.829876
1561.409959	-2.986100	3.432000	-10.245000	25.891354	0.000676	20.838086
1562.410316	-2.997000	3.431300	-10.283000	25.872698	0.000677	20.830601
1563.413709	-3.011000	3.430200	-10.327000	25.855109	0.000675	20.840906
1564.414512	-3.029000	3.428200	-10.384000	25.866662	0.000676	20.836390
1565.415191	-2.988400	3.429300	-10.247000	25.848502	0.000675	20.842330
1566.415819	-3.004300	3.428600	-10.299000	25.909289	0.000675	20.838436
1567.422543	-3.006600	3.428600	-10.307000	25.919051	0.000674	20.830225
1568.416231	-3.010000	3.426900	-10.314000	25.910283	0.000672	20.844175
1569.416498	-2.988000	3.428500	-10.243000	25.943321	0.000673	20.839908
1570.424137	-2.996400	3.428100	-10.271000	25.937955	0.000671	20.838784
1571.416997	-2.985700	3.427500	-10.232000	25.944984	0.000671	20.846320
1572.415403	-2.985900	3.427300	-10.232000	25.918158	0.000671	20.859672
1573.415190	-2.976500	3.426200	-10.197000	25.869243	0.000671	20.830923
1574.415995	-2.982900	3.426600	-10.220000	25.871131	0.000672	20.838509
1575.418190	-2.979600	3.427100	-10.210000	25.866933	0.000671	20.843300
1576.418958	-2.999600	3.425800	-10.276000	25.853693	0.000670	20.839484
1577.417642	-3.022200	3.425000	-10.349000	25.845146	0.000669	20.839906
1578.418450	-2.984600	3.426000	-10.224000	25.856773	0.000670	20.856801
1579.419824	-2.989600	3.424400	-10.236000	25.884000	0.000667	20.839583
1580.423458	-3.013200	3.424200	-10.316000	25.882137	0.000669	20.854306
1581.420837	-2.998400	3.423600	-10.264000	25.856799	0.000668	20.834543
1582.418552	-3.018500	3.423300	-10.332000	25.880076	0.000667	20.846546
1583.422305	-3.013200	3.423600	-10.315000	25.905068	0.000668	20.835617
1584.420249	-3.000800	3.422800	-10.270000	25.936989	0.000666	20.844926
1585.420660	-2.985500	3.423000	-10.218000	25.936790	0.000664	20.842830
1586.424912	-3.011300	3.421200	-10.301000	25.976709	0.000665	20.831252
1587.421960	-2.986500	3.422500	-10.221000	25.978745	0.000663	20.839936
1588.420947	-3.002000	3.421700	-10.271000	25.984831	0.000664	20.845101
1589.423233	-2.975700	3.422300	-10.183000	26.007932	0.000664	20.833223
1590.423783	-2.994500	3.421900	-10.246000	26.015882	0.000664	20.864443
1591.421406	-3.022900	3.418500	-10.333000	26.014019	0.000662	20.846450
1592.424188	-2.994800	3.420100	-10.241000	26.049167	0.000662	20.849048
1593.422068	-3.048700	3.418400	-10.420000	26.051302	0.000662	20.831754
1594.422531	-3.014900	3.418200	-10.304000	26.049538	0.000663	20.863171
1595.422189	-2.985400	3.419800	-10.208000	26.051949	0.000661	20.834300
1596.425893	-2.960000	3.419800	-10.121000	26.086151	0.000661	20.850172
1597.425482	-3.006600	3.417600	-10.274000	26.088759	0.000659	20.849948
1598.427046	-2.998200	3.417300	-10.245000	26.101227	0.000658	20.841138
1599.427325	-2.978000	3.419400	-10.181000	26.081905	0.000659	20.834053
1600.430384	-2.991100	3.418000	-10.223000	26.091269	0.000659	20.851521
1601.426873	-2.995300	3.416400	-10.231000	26.084093	0.000659	20.838621
1602.428029	-2.975500	3.416200	-10.163000	26.101528	0.000658	20.822950
1603.427373	-3.005600	3.415000	-10.263000	26.114220	0.000657	20.838547
1604.428285	-3.006600	3.413200	-10.261000	26.106147	0.000656	20.840392
1605.430120	-2.978600	3.416100	-10.173000	26.089681	0.000657	20.817210
1606.433695	-3.008300	3.414800	-10.271000	26.058832	0.000655	20.835526
1607.428697	-3.029900	3.413700	-10.342000	26.065614	0.000655	20.824797
1608.428459	-3.007600	3.413400	-10.265000	26.072767	0.000655	20.824871
1609.433567	-3.027100	3.413600	-10.331000	26.069962	0.000655	20.833906
1610.428191	-3.001700	3.413800	-10.247000	26.097157	0.000654	20.846058
1611.430474	-2.978100	3.413800	-10.165000	26.131582	0.000653	20.813319
1612.440678	-2.996800	3.413500	-10.229000	26.134115	0.000656	20.809226
1613.432409	-2.996700	3.412800	-10.226000	26.142386	0.000653	20.823700
1614.432048	-3.016100	3.412200	-10.290000	26.140995	0.000651	20.834156
1615.434677	-3.008400	3.410500	-10.259000	26.163396	0.000651	20.826320
1616.432799	-2.998000	3.411300	-10.226000	26.157511	0.000651	20.815665
1617.440960	-3.012500	3.411400	-10.276000	26.163297	0.000651	20.807729
1618.437003	-3.001700	3.410300	-10.236000	26.157735	0.000651	20.827270
1619.437351	-2.991300	3.409400	-10.197000	26.101356	0.000649	20.830837
1620.434451	-2.979400	3.412000	-10.165000	26.103765	0.000649	20.825672
1621.433528	-3.016100	3.408900	-10.281000	26.088019	0.000649	20.826446
1622.433809	-2.986400	3.408900	-10.180000	26.106075	0.000649	20.815191
1623.433902	-3.005800	3.407600	-10.241000	26.109651	0.000651	20.815939
1624.435893	-2.989100	3.409400	-10.190000	26.103467	0.000648	20.811621
1625.435396	-2.988200	3.409300	-10.187000	26.103194	0.000647	20.818934
1626.434687	-3.008200	3.405700	-10.244000	26.078928	0.000649	20.814466
1627.435650	-3.012000	3.406900	-10.261000	26.037871	0.000647	20.798819
1628.438845	-3.004600	3.406800	-10.235000	26.001259	0.000645	20.830312
1629.435904	-3.010600	3.406200	-10.254000	26.004935	0.000646	20.821678
1630.436946	-3.007200	3.406200	-10.242000	26.012065	0.000646	20.798022
1631.437879	-2.988800	3.406100	-10.179000	25.993559	0.000646	20.791283
1632.436477	-3.002100	3.403700	-10.217000	25.998130	0.000646	20.816263
1633.437523	-2.993900	3.404600	-10.192000	25.990851	0.000645	20.785717
1634.438480	-3.017400	3.405500	-10.275000	25.956597	0.000644	20.806779
1635.439283	-2.998700	3.404400	-10.208000	25.923187	0.000645	20.798345
1636.438889	-3.013300	3.404700	-10.258000	25.893999	0.000644	20.786566
1637.439887	-2.994000	3.404600	-10.193000	25.855122	0.000642	20.817686
1638.441430	-3.015500	3.403100	-10.261000	25.821337	0.000640	20.806981
1639.439530	-3.014000	3.401700	-10.251000	25.820937	0.000641	20.813218
1640.442016	-2.995100	3.404000	-10.194000	25.812614	0.000640	20.822401
1641.439534	-3.009200	3.401500	-10.235000	25.764518	0.000639	20.800641
1642.441210	-2.997600	3.402800	-10.198000	25.800069	0.000638	20.801739
1643.441085	-3.007900	3.402000	-10.231000	25.823296	0.000638	20.803734
1644.442567	-2.987700	3.402400	-10.165000	25.852610	0.000638	20.788136
1645.441564	-2.982000	3.401700	-10.143000	25.844288	0.000637	20.792104
1646.443368	-3.024300	3.400800	-10.284000	25.898915	0.000637	20.816161
1647.442755	-3.033300	3.399000	-10.309000	25.915608	0.000638	20.808749
1648.446222	-3.019000	3.399900	-10.263000	25.906616	0.000637	20.787387
1649.445221	-3.006500	3.400100	-10.221000	25.912925	0.000636	20.781871
1650.444738	-2.978700	3.400900	-10.130000	25.917470	0.000636	20.783118
1651.447162	-2.993400	3.399600	-10.176000	25.984589	0.000636	20.785116
1652.444226	-2.991900	3.398400	-10.167000	25.983545	0.000636	20.792127
1653.445760	-2.978400	3.398400	-10.121000	25.984017	0.000636	20.794972
1654.444488	-3.007100	3.397000	-10.213000	25.998248	0.000635	20.810692
1655.445924	-2.999600	3.398600	-10.194000	25.998771	0.000634	20.782294
1656.447519	-3.003500	3.396700	-10.201000	25.961488	0.000633	20.790831
1657.445781	-3.002100	3.395900	-10.194000	25.954407	0.000633	20.782294
1658.446177	-3.020600	3.395800	-10.257000	25.948569	0.000632	20.796818
1659.444957	-2.995000	3.395800	-10.169000	25.968517	0.000633	20.804056
1660.446142	-3.011100	3.395700	-10.223000	25.991147	0.000633	20.791704
1661.444483	-3.011600	3.395700	-10.225000	26.013899	0.000633	20.803183
1662.445828	-2.997900	3.394600	-10.176000	26.021398	0.000632	20.781320
1663.444619	-2.983000	3.394400	-10.125000	26.045418	0.000631	20.789332
1664.445449	-3.031500	3.393700	-10.285000	25.999294	0.000629	20.797044
1665.446654	-2.984500	3.393400	-10.126000	25.983743	0.000630	20.815085
1666.447774	-3.005100	3.394400	-10.200000	25.945613	0.000629	20.793374
1667.448241	-2.992100	3.394300	-10.154000	25.956021	0.000627	20.787235
1668.446458	-3.004700	3.392700	-10.193000	25.952595	0.000628	20.771939
1669.448290	-3.005700	3.392100	-10.195000	25.969710	0.000627	20.791030
1670.446056	-3.004300	3.391800	-10.189000	25.959475	0.000626	20.803033
1671.446240	-3.004400	3.392700	-10.191000	25.976715	0.000627	20.792377
1672.453436	-3.012400	3.390500	-10.213000	25.997007	0.000627	20.783367
1673.451159	-3.000400	3.392300	-10.177000	25.976117	0.000627	20.781820
1674.449653	-3.013200	3.391400	-10.218000	25.972243	0.000624	20.809222
1675.447924	-2.982000	3.390300	-10.107000	25.957413	0.000626	20.770140
1676.449476	-3.000300	3.390500	-10.172000	25.975323	0.000624	20.768220
1677.452040	-3.015100	3.388600	-10.216000	25.983223	0.000624	20.787536
1678.451443	-2.983200	3.390000	-10.112000	25.974082	0.000622	20.785466
1679.448117	-3.010900	3.388800	-10.202000	25.965985	0.000622	20.776382
1680.449273	-2.959800	3.389900	-10.032000	25.952123	0.000624	20.772887
1681.447766	-2.964700	3.391100	-10.053000	25.986352	0.000621	20.771713
1682.450548	-2.992500	3.389000	-10.141000	25.997828	0.000622	20.778977
1683.449319	-3.006000	3.386400	-10.178000	26.012384	0.000619	20.774160
1684.449739	-2.996900	3.387300	-10.150000	26.033248	0.000620	20.766673
1685.448269	-2.988800	3.388100	-10.124000	26.016607	0.000620	20.767497
1686.450111	-3.002400	3.387900	-10.171000	26.005529	0.000620	20.788610
1687.449217	-3.006300	3.386200	-10.179000	26.026244	0.000618	20.789508
1688.451218	-3.005000	3.385100	-10.171000	26.031535	0.000618	20.764004
1689.449211	-2.999300	3.385800	-10.154000	26.048599	0.000618	20.775933
1690.448382	-3.024700	3.385400	-10.239000	26.059427	0.000617	20.767845
1691.448878	-3.006000	3.385200	-10.175000	26.041421	0.000617	20.756866
1692.449519	-2.972500	3.386200	-10.063000	26.016333	0.000615	20.771490
1693.450005	-2.991600	3.385400	-10.127000	26.027237	0.000615	20.762530
1694.448831	-3.021100	3.383800	-10.223000	26.051355	0.000614	20.780598
1695.452522	-3.004800	3.383700	-10.166000	26.043507	0.000614	20.756117
1696.449251	-3.034300	3.383200	-10.264000	26.057315	0.000613	20.774733
1697.450837	-2.981600	3.384100	-10.089000	26.102245	0.000612	20.773884
1698.454017	-2.993400	3.383900	-10.129000	26.107611	0.000611	20.767895
1699.460295	-2.991400	3.381400	-10.113000	26.125021	0.000613	20.777803
1700.458205	-2.995800	3.382100	-10.130000	26.128001	0.000613	20.786961
1701.452043	-3.017700	3.382100	-10.205000	26.118512	0.000613	20.779798
1702.451331	-3.030700	3.380600	-10.244000	26.115681	0.000610	20.747080
1703.453231	-2.994100	3.381400	-10.122000	26.105025	0.000611	20.766720
1704.453211	-2.994700	3.380200	-10.122000	26.116798	0.000609	20.766221
1705.457819	-3.025000	3.378900	-10.220000	26.071943	0.000611	20.781844
1706.454769	-3.004300	3.380000	-10.153000	26.084437	0.000608	20.760732
1707.454505	-3.011800	3.378700	-10.175000	26.071222	0.000610	20.767843
1708.456836	-3.020800	3.379900	-10.209000	26.094693	0.000610	20.766770
1709.455990	-2.991300	3.379500	-10.108000	26.132643	0.000609	20.762701
1710.459215	-3.001000	3.379300	-10.140000	26.136914	0.000608	20.766045
1711.456420	-2.992000	3.379300	-10.109000	26.135226	0.000609	20.771462
1712.457398	-3.022400	3.376800	-10.205000	26.104951	0.000608	20.783715
1713.463462	-3.007200	3.377100	-10.155000	26.101425	0.000607	20.753145
1714.456566	-3.026700	3.377000	-10.220000	26.066552	0.000608	20.757461
1715.464867	-2.978000	3.379000	-10.061000	26.060269	0.000606	20.758734
1716.456670	-2.993600	3.375600	-10.104000	26.049216	0.000607	20.729136
1717.457854	-3.009500	3.376100	-10.159000	26.070997	0.000605	20.769040
1718.459418	-3.004100	3.376100	-10.141000	26.074649	0.000604	20.748052
1719.462622	-3.006500	3.376300	-10.151000	26.067596	0.000606	20.757087
1720.458716	-3.009900	3.374900	-10.157000	26.042211	0.000604	20.766669
1721.459314	-3.009300	3.375000	-10.155000	26.033642	0.000604	20.738144
1722.460918	-3.009200	3.375700	-10.157000	25.983542	0.000602	20.755140
1723.459744	-2.988200	3.375900	-10.087000	25.946531	0.000602	20.764424
1724.462990	-2.985700	3.375000	-10.075000	25.930435	0.000603	20.760581
1725.459219	-3.007400	3.373600	-10.145000	25.960169	0.000604	20.756787
1726.463137	-2.993500	3.374300	-10.100000	25.962702	0.000601	20.749849
1727.458810	-2.991100	3.373500	-10.089000	25.965111	0.000601	20.767443
1728.461898	-3.007400	3.373000	-10.144000	25.944569	0.000599	20.763875
1729.462658	-3.005600	3.372500	-10.136000	25.951573	0.000599	20.757635
1730.463408	-2.992800	3.371400	-10.089000	25.962949	0.000598	20.746305
1731.463683	-3.006500	3.372000	-10.138000	25.961136	0.000598	20.744957
1732.462821	-2.981700	3.372700	-10.055000	25.975519	0.000599	20.757985
1733.462812	-3.002800	3.370800	-10.121000	25.974052	0.000598	20.746553
1734.466734	-3.027400	3.368900	-10.198000	25.953908	0.000596	20.763774
1735.465706	-3.000600	3.369900	-10.111000	25.982276	0.000595	20.760506
1736.461675	-2.999800	3.370400	-10.109000	26.030983	0.000596	20.766768
1737.461264	-2.978600	3.369700	-10.036000	26.049908	0.000596	20.743582
1738.463227	-3.003700	3.370400	-10.122000	26.060044	0.000597	20.753767
1739.464975	-3.005600	3.369600	-10.127000	26.095263	0.000592	20.738418
1740.467189	-3.005000	3.367300	-10.118000	26.109594	0.000593	20.747128
1741.463398	-3.017300	3.368300	-10.163000	26.114561	0.000593	20.738368
1742.466235	-2.990300	3.367600	-10.069000	26.129638	0.000591	20.748776
1743.464653	-2.999000	3.367800	-10.099000	26.112376	0.000590	20.766045
1744.463991	-2.985600	3.368400	-10.056000	26.109868	0.000592	20.769690
1745.466431	-2.988700	3.367300	-10.063000	26.120920	0.000592	20.738593
1746.467215	-3.033600	3.368000	-10.217000	26.136964	0.000589	20.721049
1747.465522	-3.000300	3.366900	-10.100000	26.152710	0.000591	20.751572
1748.465248	-3.002600	3.365400	-10.104000	26.165004	0.000590	20.746855
1749.465993	-3.009200	3.365700	-10.127000	26.153803	0.000588	20.742712
1750.467220	-2.985600	3.367600	-10.053000	26.149953	0.000589	20.748801
1751.468210	-3.007100	3.364400	-10.115000	26.161798	0.000590	20.749798
1752.468045	-2.973600	3.365700	-10.008000	26.166393	0.000586	20.743035
1753.469954	-3.001300	3.364700	-10.098000	26.178962	0.000587	20.759932
1754.467120	-2.989300	3.365500	-10.060000	26.195972	0.000586	20.734351
1755.468592	-3.013000	3.364500	-10.136000	26.163288	0.000585	20.742286
1756.471128	-3.011200	3.363200	-10.126000	26.159863	0.000585	20.749275
1757.470524	-3.026700	3.363000	-10.177000	26.179904	0.000585	20.739542
1758.469867	-3.015200	3.362100	-10.137000	26.161849	0.000585	20.745582
1759.470155	-3.008800	3.362600	-10.116000	26.171237	0.000585	20.732255
1760.470950	-2.999300	3.362900	-10.085000	26.187106	0.000582	20.737769
1761.470626	-3.001900	3.362800	-10.094000	26.141483	0.000584	20.751196
1762.474652	-3.014000	3.362300	-10.133000	26.164110	0.000583	20.719876
1763.470654	-3.001300	3.361200	-10.086000	26.181493	0.000584	20.755838
1764.477052	-2.999800	3.361000	-10.082000	26.158819	0.000580	20.744907
1765.473192	-2.982500	3.360400	-10.022000	26.130283	0.000582	20.741364
1766.472952	-2.984600	3.361000	-10.030000	26.091910	0.000579	20.753542
1767.471782	-3.003000	3.360400	-10.089000	26.084137	0.000580	20.738144
1768.471128	-3.005700	3.359900	-10.098000	26.039975	0.000580	20.745930
1769.472301	-3.001100	3.359700	-10.082000	26.037367	0.000577	20.740465
1770.470838	-3.000500	3.359100	-10.078000	26.035180	0.000578	20.743009
1771.475403	-3.012100	3.358800	-10.116000	26.053636	0.000578	20.746853
1772.473663	-3.015100	3.357300	-10.121000	26.025322	0.000578	20.742113
1773.474034	-3.014100	3.357900	-10.120000	26.045365	0.000576	20.721947
1774.473891	-3.001400	3.358000	-10.077000	26.046037	0.000576	20.723096
1775.474230	-3.005700	3.356500	-10.087000	26.061610	0.000577	20.711716
1776.476120	-3.007200	3.357500	-10.096000	26.077754	0.000575	20.733153
1777.476678	-3.005000	3.357500	-10.087000	26.058181	0.000576	20.715857
1778.474532	-3.013200	3.355800	-10.109000	26.006966	0.000577	20.727937
1779.474037	-2.982900	3.357200	-10.013000	25.994273	0.000577	20.733677
1780.473407	-3.011900	3.354700	-10.102000	25.995663	0.000574	20.731754
1781.474727	-3.012200	3.355400	-10.106000	26.002966	0.000575	20.740041
1782.474569	-3.015200	3.354700	-10.114000	26.029742	0.000576	20.720001
1783.474844	-3.017900	3.354100	-10.121000	26.087217	0.000574	20.727014
1784.476577	-3.011000	3.354400	-10.099000	26.107956	0.000572	20.732205
1785.475160	-3.009900	3.354500	-10.096000	26.141136	0.000573	20.726190
1786.475363	-3.015900	3.353600	-10.113000	26.101348	0.000574	20.734100
1787.477735	-2.985100	3.353600	-10.010000	26.108799	0.000570	20.730207
1788.475761	-2.981700	3.354600	-10.001000	26.115480	0.000571	20.730756
1789.480219	-3.029300	3.351200	-10.150000	26.131425	0.000570	20.722121
1790.477293	-3.011300	3.351400	-10.091000	26.166763	0.000570	20.729656
1791.476743	-3.014400	3.352500	-10.105000	26.181516	0.000570	20.734523
1792.479661	-2.997300	3.352800	-10.049000	26.206177	0.000569	20.710464
1793.476007	-2.992500	3.352800	-10.032000	26.166690	0.000568	20.719625
1794.476254	-2.997500	3.351000	-10.044000	26.178733	0.000567	20.730304
1795.477823	-2.987200	3.350600	-10.008000	26.157054	0.000566	20.708044
1796.475927	-2.996100	3.351300	-10.040000	26.149154	0.000565	20.715280
1797.478526	-2.995400	3.351000	-10.036000	26.131894	0.000567	20.728283
1798.480633	-3.007700	3.350700	-10.076000	26.138500	0.000566	20.712161
1799.476866	-2.967500	3.350800	-9.942600	26.192467	0.000566	20.727983
1800.479513	-2.991100	3.351300	-10.023000	26.206871	0.000566	20.729656
1801.478046	-2.997400	3.348500	-10.036000	26.215736	0.000565	20.746151
1802.477658	-2.964700	3.348600	-9.925600	26.224876	0.000564	20.718824
1803.481562	-3.003300	3.348200	-10.055000	26.190504	0.000564	20.725536
1804.480149	-2.999300	3.348400	-10.042000	26.180645	0.000563	20.732700
1805.482450	-3.002000	3.348200	-10.049000	26.148930	0.000560	20.737815
1806.480566	-3.005200	3.347000	-10.057000	26.124243	0.000562	20.731975
1807.480981	-3.001400	3.346900	-10.045000	26.124047	0.000562	20.711388
1808.484671	-3.002200	3.345600	-10.043000	26.090068	0.000562	20.716601
1809.485192	-2.977400	3.348000	-9.967700	26.091907	0.000561	20.727933
1810.483955	-2.989700	3.347300	-10.006000	26.057210	0.000559	20.712985
1811.486668	-2.990000	3.345800	-10.003000	26.016400	0.000560	20.710863
1812.484228	-3.017900	3.345900	-10.096000	26.001595	0.000558	20.710213
1813.485061	-2.994300	3.345600	-10.016000	26.027403	0.000559	20.715280
1814.486594	-2.991500	3.345200	-10.006000	26.029664	0.000559	20.736992
1815.485266	-3.026300	3.343700	-10.118000	26.052044	0.000557	20.746202
1816.489153	-3.010400	3.345000	-10.068000	26.069752	0.000556	20.735545
1817.488527	-3.016600	3.344300	-10.087000	26.080631	0.000555	20.728457
1818.488091	-3.008700	3.343200	-10.057000	26.108051	0.000554	20.725662
1819.489630	-2.986000	3.344200	-9.984800	26.086196	0.000556	20.733101
1820.487685	-2.990700	3.343700	-9.998900	26.100799	0.000556	20.725962
1821.488502	-2.972000	3.344100	-9.936400	26.074869	0.000552	20.732625
1822.487355	-2.992800	3.342600	-10.002000	26.081078	0.000552	20.718949
1823.488753	-3.006000	3.342100	-10.044000	26.126703	0.000554	20.748198
1824.490702	-3.003200	3.342300	-10.036000	26.153799	0.000555	20.727534
1825.489160	-2.984100	3.342700	-9.974300	26.173568	0.000552	20.753564
1826.487850	-2.971900	3.341800	-9.930900	26.193933	0.000551	20.731353
1827.488206	-3.039300	3.337900	-10.144000	26.240694	0.000551	20.745627
1828.487071	-2.987900	3.338900	-9.975700	26.243774	0.000551	20.717901
1829.489886	-2.994200	3.340300	-10.001000	26.262522	0.000549	20.726784
1830.491275	-2.989800	3.339300	-9.982300	26.281395	0.000551	20.753338
1831.488827	-3.021600	3.339200	-10.089000	26.288522	0.000550	20.753862
1832.492757	-3.004800	3.337500	-10.028000	26.270245	0.000550	20.750667
1833.488253	-2.994400	3.339200	-9.998600	26.248219	0.000548	20.732799
1834.487452	-3.000200	3.338700	-10.016000	26.253383	0.000549	20.745102
1835.491535	-3.015700	3.337900	-10.065000	26.244641	0.000546	20.751490
1836.487497	-3.007100	3.337200	-10.034000	26.236024	0.000548	20.762271
1837.490909	-3.011100	3.335500	-10.043000	26.198251	0.000547	20.758453
1838.487662	-2.993800	3.336600	-9.987900	26.191820	0.000546	20.763845
1839.488915	-2.995500	3.336900	-9.994200	26.204088	0.000547	20.740610
1840.493197	-2.989800	3.336200	-9.973100	26.216604	0.000547	20.744652
1841.489530	-2.976600	3.336100	-9.928800	26.245213	0.000544	20.752065
1842.492046	-3.005000	3.334300	-10.018000	26.246379	0.000545	20.722890
1843.490710	-3.009900	3.334400	-10.035000	26.217226	0.000544	20.741958
1844.490235	-3.010700	3.333600	-10.035000	26.143465	0.000542	20.738014
1845.498600	-3.012200	3.335500	-10.047000	26.151065	0.000542	20.738538
1846.494429	-3.007500	3.334300	-10.026000	26.171951	0.000541	20.761423
1847.491523	-3.008600	3.332700	-10.025000	26.193284	0.000539	20.735917
1848.494702	-3.006900	3.332600	-10.019000	26.234831	0.000541	20.741158
1849.491716	-3.013200	3.332800	-10.041000	26.248937	0.000542	20.759601
1850.492220	-3.017000	3.332000	-10.052000	26.277667	0.000539	20.755282
1851.496039	-3.004900	3.333700	-10.016000	26.259017	0.000537	20.756454
1852.493505	-3.017100	3.329800	-10.044000	26.225394	0.000539	20.746848
1853.497216	-2.988500	3.331300	-9.954900	26.207438	0.000539	20.747770
1854.493322	-2.988900	3.330400	-9.953200	26.187620	0.000537	20.760572
1855.495107	-2.980700	3.331400	-9.928800	26.167876	0.000536	20.764915
1856.499549	-2.978800	3.330900	-9.921300	26.155061	0.000538	20.743976
1857.495304	-2.975600	3.330500	-9.908600	26.122178	0.000535	20.740806
1858.495606	-2.971000	3.330400	-9.893300	26.125929	0.000535	20.745998
1859.494104	-3.000000	3.328900	-9.985800	26.147883	0.000533	20.778016
1860.493993	-2.986000	3.330400	-9.943100	26.153620	0.000533	20.751537
1861.494772	-2.981800	3.329400	-9.926000	26.172420	0.000533	20.752885
1862.500339	-2.997300	3.329500	-9.979200	26.169837	0.000534	20.738434
1863.495284	-2.992100	3.329900	-9.962300	26.161915	0.000533	20.757502
1864.495694	-2.990600	3.328800	-9.954300	26.155332	0.000531	20.760845
1865.494153	-3.015700	3.326100	-10.030000	26.173537	0.000531	20.746421
1866.496925	-3.026300	3.326900	-10.067000	26.185730	0.000532	20.743025
1867.497142	-2.995600	3.327000	-9.965400	26.230208	0.000531	20.748840
1868.496496	-2.996400	3.327600	-9.970200	26.265719	0.000532	20.751335
1869.497696	-2.999000	3.326400	-9.974600	26.295915	0.000533	20.763189
1870.497129	-3.004000	3.326400	-9.990100	26.361820	0.000528	20.751187
1871.497043	-3.038300	3.325400	-10.103000	26.372072	0.000530	20.770027
1872.499512	-3.006500	3.325500	-9.997400	26.369613	0.000531	20.781306
1873.500503	-3.001300	3.324700	-9.976700	26.414681	0.000529	20.779186
1874.504714	-2.979800	3.324700	-9.905600	26.392482	0.000526	20.757349
1875.500871	-2.995100	3.324100	-9.955300	26.373760	0.000527	20.768878
1876.500417	-2.992700	3.324000	-9.946600	26.362660	0.000527	20.771947
1877.506486	-2.974800	3.324700	-9.888500	26.350842	0.000527	20.775717
1878.502062	-2.998500	3.323900	-9.965100	26.362163	0.000527	20.749636
1879.506688	-2.986400	3.322700	-9.922500	26.379372	0.000526	20.766457
1880.504109	-2.994400	3.322900	-9.949100	26.385033	0.000526	20.771673
1881.505067	-2.974300	3.323900	-9.884900	26.450682	0.000526	20.757523
1882.505225	-3.028900	3.320800	-10.057000	26.453412	0.000522	20.755051
1883.510436	-2.988100	3.321800	-9.924700	26.425926	0.000523	20.765358
1884.506342	-3.007300	3.320800	-9.985500	26.398713	0.000523	20.760292
1885.508540	-2.987500	3.322000	-9.924100	26.397149	0.000522	20.757772
1886.512287	-2.991600	3.321300	-9.935100	26.423170	0.000523	20.780606
1887.506618	-3.004300	3.320100	-9.974300	26.431934	0.000522	20.761913
1888.510663	-3.000000	3.319600	-9.957600	26.440650	0.000519	20.774467
1889.508312	-2.970300	3.321300	-9.864600	26.470171	0.000519	20.751034
1890.508676	-3.010700	3.317600	-9.987400	26.482586	0.000520	20.782953
1891.515666	-2.996200	3.319000	-9.943800	26.528045	0.000520	20.773644
1892.511187	-3.012600	3.317400	-9.993200	26.502150	0.000519	20.778436
1893.515282	-3.007200	3.317400	-9.974800	26.532018	0.000521	20.789966
1894.513618	-2.985600	3.318200	-9.905500	26.582539	0.000518	20.778636
1895.513669	-2.994600	3.317200	-9.932800	26.558309	0.000518	20.768979
1896.512936	-3.000300	3.316600	-9.949400	26.582664	0.000516	20.781133
1897.512157	-3.007800	3.316500	-9.974200	26.575217	0.000516	20.780760
1898.514377	-2.992400	3.316300	-9.922000	26.605453	0.000516	20.770851
1899.518342	-2.985300	3.316300	-9.898700	26.611238	0.000515	20.775718
1900.514816	-2.984700	3.314500	-9.892500	26.601333	0.000511	20.780934
1901.515778	-3.018800	3.315400	-10.008000	26.586538	0.000513	20.761319
1902.516335	-2.995800	3.315900	-9.932000	26.616278	0.000513	20.767034
1903.516996	-3.015600	3.314000	-9.992600	26.603866	0.000515	20.778264
1904.520375	-3.019200	3.313000	-10.002000	26.607639	0.000514	20.785851
1905.518371	-3.012100	3.314400	-9.982500	26.581027	0.000511	20.780436
1906.518631	-3.021000	3.312200	-10.006000	26.565884	0.000512	20.792240
1907.519327	-3.012900	3.312400	-9.979100	26.557047	0.000511	20.778141
1908.520106	-2.973600	3.314600	-9.855100	26.571669	0.000512	20.763442
1909.523088	-2.999100	3.312800	-9.934200	26.567896	0.000512	20.794263
1910.520550	-2.999200	3.313000	-9.936000	26.618614	0.000511	20.771753
1911.524724	-3.006100	3.311300	-9.952700	26.594806	0.000509	20.771528
1912.525627	-2.992700	3.311300	-9.909100	26.605978	0.000508	20.801725
1913.520578	-3.009100	3.310400	-9.959700	26.551661	0.000509	20.786004
1914.521947	-3.002200	3.310300	-9.937400	26.510126	0.000507	20.776971
1915.518937	-3.012400	3.310000	-9.970000	26.485645	0.000507	20.789347
1916.524435	-2.981700	3.310800	-9.871500	26.491381	0.000505	20.789897
1917.520698	-3.005300	3.308500	-9.942500	26.532371	0.000507	20.791744
1918.523602	-2.975700	3.310700	-9.850500	26.541434	0.000504	20.795164
1919.522022	-3.002700	3.309200	-9.935900	26.546473	0.000505	20.804022
1920.522710	-2.977100	3.310800	-9.855800	26.553499	0.000507	20.794964
1921.521078	-2.991800	3.307900	-9.895400	26.582496	0.000503	20.803250
1922.524482	-2.991300	3.308600	-9.895900	26.581403	0.000501	20.805470
1923.522442	-3.007100	3.307300	-9.944300	26.567128	0.000503	20.807716
1924.522806	-3.009700	3.307300	-9.952800	26.563355	0.000502	20.797285
1925.522782	-3.000800	3.306400	-9.921200	26.600842	0.000502	20.806045
1926.522173	-2.981100	3.306500	-9.855700	26.587559	0.000500	20.803598
1927.525939	-3.000600	3.307300	-9.922900	26.595528	0.000500	20.818721
1928.523311	-2.996800	3.307300	-9.910100	26.556576	0.000500	20.802325
1929.524127	-3.004300	3.306300	-9.931800	26.516458	0.000500	20.806569
1930.527667	-2.986600	3.306200	-9.873500	26.482369	0.000498	20.796011
1931.524103	-3.016200	3.304600	-9.966800	26.527555	0.000499	20.791170
1932.524601	-2.997800	3.304800	-9.906000	26.554318	0.000498	20.810486
1933.524018	-2.999900	3.306000	-9.916900	26.597613	0.000496	20.800902
1934.526503	-2.990700	3.305700	-9.885200	26.578249	0.000498	20.812257
1935.525838	-3.005600	3.303400	-9.926600	26.559456	0.000498	20.792891
1936.529237	-2.982600	3.303200	-9.850900	26.560772	0.000496	20.796111
1937.526312	-2.989900	3.302800	-9.873500	26.580384	0.000496	20.794488
1938.527957	-3.007500	3.302900	-9.933000	26.585796	0.000492	20.799455
1939.524726	-2.999100	3.303900	-9.907300	26.606898	0.000493	20.796011
1940.526515	-3.002200	3.301600	-9.910600	26.628196	0.000494	20.798455
1941.532826	-2.992900	3.302100	-9.881900	26.607965	0.000494	20.815102
1942.534434	-3.010100	3.301400	-9.935400	26.632194	0.000493	20.813379
1943.526312	-3.023700	3.300600	-9.979400	26.619706	0.000491	20.812206
1944.528259	-3.004100	3.300000	-9.912400	26.637283	0.000492	20.810435
1945.528238	-3.020200	3.299400	-9.963000	26.649223	0.000492	20.829550
1946.528206	-3.000700	3.299800	-9.899000	26.666052	0.000490	20.836512
1947.530901	-2.996800	3.299000	-9.886200	26.690479	0.000490	20.842102
1948.527003	-3.014500	3.300700	-9.948700	26.671318	0.000488	20.829477
1949.528565	-3.021500	3.297400	-9.962100	26.691721	0.000489	20.805418
1950.528141	-3.019100	3.298600	-9.957300	26.703064	0.000488	20.825357
1951.527511	-2.980400	3.299600	-9.833800	26.703785	0.000486	20.815177
1952.533851	-2.996500	3.298100	-9.880600	26.686135	0.000487	20.822562
1953.530140	-2.983300	3.297600	-9.836100	26.629934	0.000486	20.813479
1954.531535	-2.973200	3.299100	-9.807700	26.604068	0.000485	20.823512
1955.531755	-2.975900	3.299000	-9.816100	26.625915	0.000483	20.830775
1956.531378	-3.008100	3.296000	-9.913800	26.640113	0.000484	20.813754
1957.532232	-2.995900	3.297000	-9.876500	26.642695	0.000482	20.827730
1958.532359	-2.975300	3.296700	-9.807100	26.682487	0.000485	20.817947
1959.530660	-3.003200	3.295000	-9.895300	26.682885	0.000483	20.821665
1960.530655	-2.981500	3.295500	-9.824800	26.641902	0.000480	20.800854
1961.531723	-2.995900	3.296000	-9.872900	26.615934	0.000484	20.818845
1962.532150	-3.007100	3.293400	-9.902200	26.624251	0.000482	20.823413
1963.531639	-2.989000	3.294200	-9.845900	26.620253	0.000481	20.818446
1964.531333	-2.967600	3.294600	-9.775500	26.636043	0.000480	20.833369
1965.533882	-2.989000	3.294000	-9.843600	26.621147	0.000479	20.832146
1966.531958	-2.974800	3.294000	-9.798700	26.613675	0.000479	20.828428
1967.530731	-2.976100	3.294200	-9.801400	26.616928	0.000480	20.832172
1968.534294	-2.997800	3.292800	-9.869200	26.637557	0.000479	20.838685
1969.533513	-2.993600	3.291900	-9.852800	26.624747	0.000478	20.822963
1970.531366	-2.998100	3.290400	-9.863100	26.581998	0.000475	20.824560
1971.533039	-2.967700	3.291500	-9.767100	26.520902	0.000475	20.835690
1972.533667	-2.995600	3.290800	-9.857100	26.505335	0.000476	20.835216
1973.534411	-2.977300	3.291200	-9.797300	26.461962	0.000476	20.833346
1974.535305	-3.009300	3.289500	-9.898100	26.472240	0.000476	20.837038
1975.538947	-3.004600	3.289700	-9.883400	26.475244	0.000478	20.841480
1976.532340	-3.014600	3.288300	-9.912000	26.518518	0.000473	20.847045
1977.532565	-2.985500	3.289400	-9.819000	26.555361	0.000473	20.834767
1978.535732	-3.020700	3.287700	-9.929100	26.599003	0.000474	20.855404
1979.538697	-2.992000	3.287900	-9.837000	26.614148	0.000474	20.856403
1980.536152	-2.991200	3.289900	-9.839300	26.681371	0.000474	20.841005
1981.535898	-3.019400	3.286000	-9.919400	26.711728	0.000474	20.843076
1982.535394	-3.002800	3.288300	-9.872500	26.711580	0.000471	20.842453
1983.534872	-3.033500	3.287100	-9.970600	26.671814	0.000471	20.851312
1984.536007	-3.002800	3.287000	-9.868800	26.659502	0.000470	20.849840
1985.536887	-2.993600	3.286300	-9.836300	26.643414	0.000468	20.845521
1986.535888	-2.999600	3.286300	-9.857100	26.628816	0.000469	20.856450
1987.536910	-3.023800	3.285500	-9.933100	26.637207	0.000469	20.841652
1988.535487	-3.019600	3.285400	-9.918100	26.663620	0.000468	20.861092
1989.535685	-3.006600	3.283900	-9.872600	26.673549	0.000469	20.862539
1990.541934	-2.976400	3.286000	-9.779800	26.702542	0.000469	20.856125
1991.538152	-3.008000	3.284400	-9.878900	26.680251	0.000465	20.893456
1992.536696	-2.975200	3.284000	-9.769400	26.636388	0.000465	20.842251
1993.540072	-2.991500	3.285200	-9.826600	26.667070	0.000464	20.865508
1994.540688	-3.005200	3.283100	-9.864200	26.655501	0.000466	20.870473
1995.538069	-2.992000	3.283700	-9.824200	26.664611	0.000464	20.877260
1996.541296	-2.988800	3.283100	-9.812400	26.652347	0.000464	20.864458
1997.540230	-3.016000	3.283000	-9.900400	26.663122	0.000463	20.863910
1998.538217	-3.013900	3.282300	-9.891600	26.683675	0.000462	20.861813
1999.542092	-3.025800	3.281800	-9.928700	26.688392	0.000463	20.861813
2000.540077	-2.991300	3.282400	-9.817300	26.632240	0.000462	20.869849
2001.540336	-2.985500	3.282100	-9.796500	26.601509	0.000461	20.867405
2002.538787	-2.984900	3.282100	-9.795600	26.596792	0.000458	20.885421
2003.541417	-3.006800	3.280800	-9.863600	26.593812	0.000461	20.876736
2004.539525	-3.001100	3.280800	-9.845400	26.574648	0.000459	20.883076
2005.543036	-3.007600	3.278800	-9.860600	26.580928	0.000460	20.864260
2006.539652	-3.013300	3.279500	-9.879500	26.622164	0.000459	20.894330
2007.542534	-2.991400	3.279400	-9.809300	26.675957	0.000456	20.867804
2008.539282	-2.998900	3.278900	-9.831500	26.697504	0.000457	20.877137
2009.539972	-3.008600	3.279300	-9.865500	26.739652	0.000456	20.858821
2010.545354	-3.007100	3.277900	-9.855300	26.785572	0.000457	20.866582
2011.538871	-3.001400	3.277100	-9.834200	26.788253	0.000454	20.862166
2012.540979	-3.006000	3.276300	-9.846600	26.790265	0.000456	20.877464
2013.541611	-3.003200	3.277000	-9.839000	26.776117	0.000452	20.874145
2014.540784	-2.981900	3.278600	-9.775200	26.784036	0.000454	20.873572
2015.544474	-3.004200	3.275800	-9.840100	26.819579	0.000452	20.876591
2016.542864	-2.999600	3.275100	-9.822700	26.815036	0.000452	20.872024
2017.541831	-3.012800	3.274300	-9.863100	26.824072	0.000452	20.876842
2018.542067	-2.997400	3.274000	-9.812000	26.863064	0.000450	20.877641
2019.542251	-2.999800	3.274700	-9.821400	26.857380	0.000450	20.877142
2020.545182	-3.021400	3.272800	-9.887500	26.858895	0.000447	20.875820
2021.544902	-3.005200	3.274800	-9.840200	26.884532	0.000448	20.868882
2022.543403	-2.992000	3.274400	-9.795700	26.913869	0.000446	20.863294
2023.544433	-3.014600	3.273100	-9.866300	26.949459	0.000447	20.846452
2024.544254	-3.001600	3.273000	-9.822800	26.963877	0.000447	20.850993
2025.547378	-3.006400	3.270700	-9.831300	26.975317	0.000445	20.856807
2026.544858	-3.012200	3.272100	-9.854900	26.974524	0.000444	20.868811
2027.543227	-2.979300	3.272700	-9.749100	26.921690	0.000443	20.846977
2028.549560	-3.013200	3.271300	-9.855800	26.880317	0.000445	20.853739
2029.544131	-2.987700	3.272500	-9.776200	26.842592	0.000444	20.856584
2030.546467	-2.981300	3.271300	-9.751800	26.844182	0.000444	20.861027
2031.547913	-3.006200	3.269900	-9.828500	26.820628	0.000442	20.875276
2032.544602	-3.003000	3.270900	-9.821200	26.850090	0.000441	20.865544
2033.544368	-3.025500	3.271500	-9.896700	26.856197	0.000442	20.843711
2034.544842	-2.995700	3.269800	-9.793800	26.860739	0.000441	20.857287
2035.545678	-3.009600	3.268600	-9.836300	26.900919	0.000440	20.841738
2036.543740	-3.016900	3.267000	-9.854300	26.924893	0.000440	20.835026
2037.546466	-3.003100	3.268700	-9.815200	26.951473	0.000438	20.855589
2038.544741	-3.024600	3.265900	-9.876900	26.952541	0.000438	20.842913
2039.546793	-3.021800	3.266900	-9.870800	26.958001	0.000437	20.860257
2040.545307	-3.022500	3.265500	-9.869000	26.996169	0.000435	20.822301
2041.545807	-2.987700	3.268700	-9.765200	26.973835	0.000438	20.849627
2042.550159	-2.996000	3.267900	-9.789400	26.946884	0.000434	20.864725
2043.546212	-2.979900	3.267300	-9.735300	26.945917	0.000436	20.850950
2044.546180	-2.979700	3.265800	-9.729700	26.941623	0.000433	20.851849
2045.545491	-2.977700	3.265500	-9.722600	26.968028	0.000435	20.830987
2046.546085	-3.011100	3.263200	-9.823400	26.960163	0.000432	20.844413
2047.548298	-3.015000	3.266400	-9.846500	26.951128	0.000433	20.830113
2048.548226	-3.017900	3.264800	-9.851500	26.960235	0.000433	20.856340
2049.548498	-3.018000	3.263900	-9.849400	26.957754	0.000432	20.829190
2050.547975	-3.017700	3.263400	-9.847700	26.959368	0.000432	20.835080
2051.548502	-3.010200	3.264300	-9.823900	26.972496	0.000430	20.834531
2052.547264	-3.038500	3.262400	-9.911500	27.010340	0.000430	20.838448
2053.549562	-2.982700	3.262500	-9.730000	26.986170	0.000427	20.837376
2054.548591	-2.994300	3.262200	-9.766600	26.978130	0.000428	20.833558
2055.549165	-3.000700	3.261600	-9.786400	26.984830	0.000428	20.816588
2056.548865	-3.004400	3.261900	-9.799300	26.965697	0.000425	20.820582
2057.548722	-2.986300	3.260300	-9.736100	26.955423	0.000425	20.824475
2058.552959	-2.996300	3.260900	-9.769400	26.935693	0.000425	20.820282
2059.550671	-3.016600	3.260000	-9.831600	26.954056	0.000426	20.838273
2060.550882	-2.997300	3.260500	-9.772100	26.965844	0.000423	20.815988
2061.549749	-3.015300	3.258900	-9.825200	26.997263	0.000425	20.826721
2062.552163	-2.968500	3.259100	-9.673600	27.013118	0.000423	20.839346
2063.555835	-2.986800	3.259700	-9.735500	27.030441	0.000423	20.828792
2064.551170	-2.985900	3.258900	-9.729600	27.046000	0.000421	20.843490
2065.553597	-2.999600	3.258900	-9.774400	27.069226	0.000420	20.817062
2066.553816	-3.013300	3.257100	-9.813500	27.030317	0.000419	20.840521
2067.552225	-3.006500	3.256500	-9.789100	26.990414	0.000420	20.825996
2068.553867	-2.987100	3.256600	-9.725700	26.947356	0.000419	20.828691
2069.551939	-3.007000	3.255600	-9.788800	26.893652	0.000416	20.810724
2070.552075	-2.986900	3.256600	-9.726200	26.857739	0.000418	20.813495
2071.553211	-3.000500	3.255400	-9.766500	26.867841	0.000417	20.828868
2072.553013	-2.995000	3.256400	-9.752200	26.875509	0.000416	20.825197
2073.553869	-3.039200	3.253300	-9.886800	26.905613	0.000414	20.822752
2074.556712	-2.992400	3.255000	-9.737900	26.914698	0.000413	20.817662
2075.554598	-3.014700	3.253300	-9.806400	26.906631	0.000415	20.821404
2076.559837	-2.999400	3.254200	-9.759500	26.918569	0.000414	20.838150
2077.556598	-3.022500	3.251800	-9.827700	26.949342	0.000414	20.824524
2078.556760	-3.009800	3.251800	-9.785400	26.986493	0.000412	20.815890
2079.558882	-2.994900	3.253500	-9.743500	27.012821	0.000411	20.814392
2080.555056	-2.997200	3.251600	-9.743500	27.039696	0.000409	20.827194
2081.559265	-3.004600	3.251600	-9.769400	27.065900	0.000410	20.801863
2082.557264	-2.997300	3.251100	-9.743500	27.064289	0.000409	20.821106
2083.557847	-3.012900	3.251200	-9.795300	27.058085	0.000409	20.801591
2084.557779	-3.020100	3.250000	-9.813900	27.064910	0.000409	20.807032
2085.562568	-2.992200	3.250300	-9.724500	27.046720	0.000406	20.803912
2086.558833	-3.029000	3.250000	-9.843600	27.028356	0.000406	20.802039
2087.559513	-2.999700	3.249400	-9.745500	27.056274	0.000408	20.816838
2088.558050	-2.992600	3.249900	-9.724800	27.048755	0.000405	20.819234
2089.558955	-2.970400	3.250600	-9.654600	27.074437	0.000403	20.804285
2090.562750	-2.997300	3.248300	-9.735700	27.075555	0.000404	20.810625
2091.559020	-3.009000	3.248600	-9.774200	27.100666	0.000402	20.817861
2092.562868	-3.001600	3.248000	-9.747800	27.100890	0.000403	20.805759
2093.559214	-2.995000	3.248300	-9.727100	27.099649	0.000400	20.821106
2094.560211	-3.005900	3.246800	-9.757500	27.088879	0.000400	20.820232
2095.563555	-2.989700	3.246800	-9.705700	27.106274	0.000398	20.804536
2096.559520	-3.011500	3.246100	-9.773500	27.113717	0.000399	20.800641
2097.561280	-2.998700	3.245900	-9.731200	27.077614	0.000397	20.820756
2098.560435	-3.031200	3.243800	-9.829800	27.080691	0.000398	20.807730
2099.559950	-3.017600	3.244200	-9.788600	27.065380	0.000398	20.802763
2100.562055	-3.009900	3.244300	-9.764000	27.112699	0.000396	20.810524
2101.561985	-3.001300	3.244800	-9.737900	27.136718	0.000396	20.804809
2102.559615	-2.985600	3.243400	-9.682200	27.162573	0.000394	20.812795
2103.561676	-2.973100	3.243800	-9.641900	27.190137	0.000393	20.815388
2104.560477	-2.993800	3.243100	-9.708000	27.189741	0.000391	20.814990
2105.561436	-2.974600	3.242100	-9.643300	27.185124	0.000394	20.808450
2106.563537	-2.980400	3.241800	-9.661000	27.191080	0.000394	20.804483
2107.561598	-2.999600	3.240900	-9.720200	27.155077	0.000391	20.787238
2108.565654	-3.006100	3.242300	-9.745300	27.138875	0.000389	20.800814
2109.563070	-3.017300	3.240800	-9.777100	27.167458	0.000389	20.804432
2110.563110	-3.001300	3.240500	-9.724600	27.119569	0.000388	20.805105
2111.572445	-3.010800	3.239400	-9.752300	27.128897	0.000386	20.815435
2112.564567	-2.988500	3.241100	-9.684800	27.179365	0.000387	20.805029
2113.562574	-3.021900	3.237600	-9.783000	27.170110	0.000387	20.799513
2114.562047	-3.012500	3.238500	-9.755400	27.187454	0.000388	20.799414
2115.563801	-3.003400	3.237000	-9.720400	27.198272	0.000386	20.802708
2116.563848	-3.001700	3.238200	-9.718900	27.207825	0.000386	20.778652
2117.567213	-3.007800	3.237600	-9.737800	27.218813	0.000384	20.777850
2118.565899	-3.020900	3.237400	-9.777200	27.250721	0.000383	20.802358
2119.573449	-2.988300	3.236700	-9.670800	27.240374	0.000383	20.810916
2120.567136	-2.983300	3.236300	-9.653600	27.278755	0.000383	20.778874
2121.566657	-2.980300	3.235600	-9.642100	27.285107	0.000383	20.791902
2122.566463	-2.987500	3.235700	-9.664700	27.278755	0.000380	20.798789
2123.566864	-2.984300	3.236600	-9.657400	27.238242	0.000379	20.781271
2124.567230	-2.991300	3.235400	-9.676700	27.232559	0.000379	20.793573
2125.568886	-2.990900	3.234300	-9.673000	27.239755	0.000378	20.795596
2126.568033	-2.991700	3.236800	-9.682000	27.205045	0.000377	20.804304
2127.569959	-3.014000	3.233500	-9.744800	27.169762	0.000376	20.799638
2128.571425	-2.983200	3.232900	-9.641800	27.154354	0.000376	20.802632
2129.570675	-2.992500	3.233600	-9.675000	27.182938	0.000375	20.778276
2130.571221	-2.992400	3.232400	-9.670500	27.183931	0.000375	20.798241
2131.570189	-3.015300	3.231500	-9.741400	27.159491	0.000374	20.789781
2132.570922	-2.984300	3.232000	-9.644300	27.175273	0.000373	20.778627
2133.574786	-3.010400	3.230700	-9.724500	27.188471	0.000371	20.781470
2134.576166	-2.991000	3.231500	-9.665000	27.227476	0.000374	20.788934
2135.575543	-2.991100	3.231700	-9.665000	27.280518	0.000371	20.796295
2136.574537	-2.990000	3.230300	-9.657000	27.286523	0.000371	20.790955
2137.576046	-3.000600	3.228800	-9.687200	27.282826	0.000372	20.791978
2138.576992	-3.009300	3.227900	-9.713300	27.318651	0.000368	20.788186
2139.580534	-3.019600	3.226200	-9.739300	27.363627	0.000369	20.781273
2140.578441	-2.975900	3.229200	-9.609500	27.359286	0.000368	20.787811
2141.578229	-3.018200	3.227700	-9.740700	27.339193	0.000368	20.775185
2142.576880	-3.001900	3.227600	-9.688500	27.341921	0.000366	20.771290
2143.577240	-3.004300	3.228000	-9.696300	27.321927	0.000367	20.784369
2144.579420	-3.003600	3.226500	-9.689700	27.317164	0.000366	20.769621
2145.577299	-2.986400	3.227500	-9.637800	27.337655	0.000365	20.784069
2146.582245	-2.983600	3.225700	-9.622400	27.336144	0.000364	20.767850
2147.576512	-3.001200	3.224700	-9.677400	27.317736	0.000364	20.784895
2148.578540	-3.014100	3.223000	-9.713300	27.287865	0.000364	20.779029
2149.582180	-2.979600	3.223500	-9.604500	27.256159	0.000364	20.778905
2150.577682	-2.999800	3.224200	-9.671000	27.232690	0.000362	20.772367
2151.579121	-3.014700	3.222800	-9.713700	27.218472	0.000362	20.762808
2152.577831	-2.970700	3.223900	-9.576000	27.153491	0.000360	20.774263
2153.578341	-2.999500	3.222800	-9.665600	27.145476	0.000360	20.782798
2154.578121	-3.008100	3.222000	-9.691300	27.154784	0.000358	20.775564
2155.583086	-3.007800	3.221100	-9.687200	27.181133	0.000359	20.763658
2156.580486	-2.996800	3.221200	-9.652100	27.215249	0.000358	20.769524
2157.579707	-2.979700	3.220800	-9.596200	27.247278	0.000356	20.758592
2158.579795	-2.996700	3.219800	-9.647900	27.286304	0.000357	20.759441
2159.581219	-2.998300	3.219200	-9.651400	27.290075	0.000356	20.781252
2160.582987	-3.002600	3.219100	-9.663500	27.329050	0.000354	20.775887
2161.582513	-3.015400	3.219800	-9.707800	27.356166	0.000354	20.781353
2162.586294	-2.979800	3.219300	-9.591800	27.383083	0.000353	20.766705
2163.585957	-2.986600	3.219700	-9.613300	27.422227	0.000352	20.763411
2164.584537	-2.981700	3.218400	-9.595400	27.445395	0.000354	20.772021
2165.587164	-3.004800	3.216200	-9.663300	27.452043	0.000350	20.742198
2166.586291	-2.992100	3.217400	-9.625900	27.432795	0.000352	20.765982
2167.586409	-3.005200	3.215000	-9.660900	27.415655	0.000353	20.763912
2168.587249	-2.983600	3.216000	-9.594100	27.463778	0.000351	20.758745
2169.584091	-3.014500	3.216300	-9.694700	27.456311	0.000348	20.757872
2170.585743	-3.028900	3.214000	-9.732700	27.443067	0.000348	20.768255
2171.584010	-3.019000	3.214400	-9.702900	27.467896	0.000349	20.747715
2172.586204	-3.003700	3.214800	-9.655100	27.445819	0.000347	20.745893
2173.585708	-2.982200	3.214100	-9.584200	27.472857	0.000346	20.776890
2174.586454	-3.011600	3.213400	-9.676900	27.453386	0.000347	20.750187
2175.585942	-3.021700	3.212200	-9.705400	27.434062	0.000345	20.767731
2176.591414	-2.992200	3.212700	-9.611500	27.420394	0.000343	20.759670
2177.592608	-3.013600	3.211600	-9.677800	27.419204	0.000345	20.749938
2178.591655	-3.013500	3.210400	-9.673200	27.436892	0.000343	20.748292
2179.589499	-2.997700	3.213300	-9.631300	27.438703	0.000341	20.759597
2180.589539	-3.004600	3.210600	-9.645400	27.473182	0.000341	20.758249
2181.593439	-2.990600	3.209600	-9.597400	27.480946	0.000339	20.760846
2182.598801	-3.010900	3.210100	-9.664500	27.470281	0.000339	20.750115
2183.591238	-3.009200	3.209800	-9.657800	27.406134	0.000338	20.768558
2184.592147	-3.001100	3.210300	-9.633100	27.349773	0.000338	20.764965
2185.593886	-3.002300	3.208300	-9.631500	27.331292	0.000337	20.749218
2186.594018	-3.017600	3.206800	-9.676200	27.293706	0.000337	20.761197
2187.594765	-2.992100	3.208400	-9.599100	27.280360	0.000336	20.750616
2188.596366	-3.015900	3.206500	-9.669900	27.292170	0.000336	20.761074
2189.595453	-2.990300	3.207900	-9.592000	27.325167	0.000336	20.747799
2190.594278	-3.016300	3.206200	-9.670000	27.321841	0.000332	20.756781
2191.594030	-2.982100	3.206300	-9.560600	27.298026	0.000332	20.730453
2192.597616	-2.983300	3.204900	-9.559700	27.283687	0.000331	20.731677
2193.594769	-2.997400	3.205700	-9.607800	27.282421	0.000331	20.746999
2194.595374	-2.991300	3.204700	-9.585500	27.308373	0.000330	20.747500
2195.595611	-2.970000	3.204600	-9.517400	27.306561	0.000329	20.724814
2196.594525	-2.991300	3.202000	-9.577000	27.291481	0.000329	20.734775
2197.598150	-3.000300	3.204700	-9.614500	27.269722	0.000329	20.729957
2198.598279	-3.004800	3.203200	-9.624300	27.250370	0.000328	20.746528
2199.598905	-3.003400	3.200800	-9.611800	27.288156	0.000328	20.735224
2200.598173	-3.005700	3.201400	-9.621800	27.274386	0.000328	20.746029
2201.597559	-2.995100	3.202200	-9.587800	27.324277	0.000327	20.756386
2202.600999	-2.987900	3.200500	-9.562800	27.348167	0.000326	20.713087
2203.600546	-2.983200	3.201800	-9.551000	27.394111	0.000326	20.741289
2204.597816	-2.987800	3.200200	-9.560300	27.392152	0.000323	20.735998
2205.598735	-2.957100	3.199800	-9.461400	27.392005	0.000324	20.733006
2206.599393	-2.994900	3.197700	-9.574700	27.366998	0.000323	20.740566
2207.600097	-3.002900	3.199900	-9.608300	27.354547	0.000322	20.727566
2208.602683	-3.018000	3.197800	-9.649900	27.384810	0.000321	20.719603
2209.601765	-2.998600	3.197000	-9.585800	27.422069	0.000323	20.729585
2210.606675	-2.985600	3.198100	-9.547500	27.430404	0.000321	20.755041
2211.600239	-2.981700	3.196600	-9.530400	27.415719	0.000320	20.720826
2212.601118	-2.991500	3.195600	-9.558300	27.418522	0.000320	20.753994
2213.603510	-3.001100	3.195300	-9.588200	27.454838	0.000318	20.733629
2214.605567	-2.996500	3.195200	-9.572200	27.460220	0.000319	20.721025
2215.603052	-3.007000	3.194400	-9.604100	27.507299	0.000318	20.734252
2216.608998	-3.002300	3.196100	-9.594400	27.548052	0.000317	20.745384
2217.602945	-3.005500	3.192600	-9.595200	27.563875	0.000315	20.730958
2218.605452	-2.985700	3.194000	-9.535800	27.542123	0.000316	20.739893
2219.602687	-3.025000	3.192000	-9.655000	27.524785	0.000317	20.721025
2220.604441	-3.005300	3.194800	-9.600300	27.512359	0.000316	20.725119
2221.613083	-2.997900	3.191500	-9.567000	27.500378	0.000315	20.742937
2222.631256	-3.006200	3.191100	-9.591600	27.485048	0.000313	20.722771
2223.603342	-3.027900	3.192000	-9.663600	27.405670	0.000312	20.733477
2224.605980	-3.008200	3.190900	-9.597600	27.321648	0.000311	20.733827
2225.605406	-2.982600	3.190200	-9.513900	27.304804	0.000310	20.723046
2226.604202	-2.996200	3.188700	-9.553200	27.332962	0.000311	20.710119
2227.609659	-3.018500	3.187400	-9.620500	27.316934	0.000310	20.729559
2228.604507	-2.999100	3.187900	-9.559300	27.317679	0.000310	20.710867
2229.605207	-2.998600	3.187500	-9.556600	27.316588	0.000310	20.738694
2230.603920	-3.011900	3.188200	-9.601000	27.349384	0.000308	20.729484
2231.607863	-3.001300	3.185600	-9.559800	27.354295	0.000309	20.714984
2232.605694	-3.033900	3.186600	-9.666600	27.404704	0.000307	20.740092
2233.604550	-3.018500	3.186700	-9.618700	27.469522	0.000309	20.738445
2234.609038	-3.026400	3.185800	-9.640000	27.533217	0.000305	20.726190
2235.604510	-3.016600	3.185300	-9.608100	27.550110	0.000307	20.717107
2236.606119	-2.996300	3.185100	-9.541400	27.525232	0.000306	20.725742
2237.608696	-3.005700	3.185800	-9.574100	27.560847	0.000304	20.719376
2238.607539	-2.976800	3.183500	-9.475500	27.578881	0.000301	20.733254
2239.609977	-2.990300	3.183400	-9.517400	27.551002	0.000304	20.738868
2240.614812	-3.004700	3.183900	-9.565600	27.517492	0.000303	20.710368
2241.612378	-2.998600	3.182400	-9.542200	27.482939	0.000300	20.734874
2242.612906	-3.007000	3.181400	-9.564100	27.491424	0.000303	20.717331
2243.612898	-3.005000	3.181000	-9.557800	27.552266	0.000300	20.732079
2244.610719	-2.996400	3.181900	-9.530600	27.594604	0.000298	20.726788
2245.613269	-3.001100	3.181500	-9.546800	27.592223	0.000298	20.722970
2246.611274	-3.017800	3.179300	-9.593300	27.556134	0.000298	20.725540
2247.618163	-2.990200	3.179700	-9.507200	27.560152	0.000297	20.727686
2248.612101	-2.993300	3.179800	-9.517000	27.593711	0.000296	20.701706
2249.611935	-2.992500	3.178800	-9.511800	27.621861	0.000296	20.720549
2250.616718	-2.998000	3.180200	-9.532700	27.619330	0.000296	20.706622
2251.617810	-2.996800	3.177300	-9.520300	27.618040	0.000295	20.728085
2252.613562	-3.012100	3.176800	-9.567800	27.610028	0.000294	20.737567
2253.613257	-3.000700	3.175900	-9.528000	27.628083	0.000295	20.722543
2254.613716	-3.010600	3.175600	-9.559700	27.676222	0.000292	20.733051
2255.620433	-3.004300	3.174100	-9.534600	27.676889	0.000292	20.739887
2256.611661	-3.001500	3.174300	-9.527500	27.681404	0.000293	20.732101
2257.612444	-2.977200	3.173400	-9.447300	27.710395	0.000294	20.726187
2258.614141	-3.003200	3.174600	-9.532200	27.692266	0.000294	20.734023
2259.613466	-2.994700	3.173900	-9.503800	27.663920	0.000291	20.726835
2260.613950	-3.023500	3.171100	-9.586800	27.659331	0.000288	20.744504
2261.619251	-2.994000	3.172100	-9.496200	27.653650	0.000290	20.732149
2262.617587	-2.995600	3.171600	-9.499600	27.667192	0.000291	20.718274
2263.616435	-3.009700	3.168800	-9.536200	27.690206	0.000288	20.736218
2264.617065	-2.985800	3.170500	-9.466100	27.713196	0.000288	20.743231
2265.621148	-3.002900	3.169100	-9.515300	27.751162	0.000287	20.751566
2266.620218	-3.016700	3.169600	-9.560800	27.772662	0.000288	20.733847
2267.618073	-3.017400	3.167500	-9.557000	27.738045	0.000288	20.745477
2268.628274	-2.990300	3.167800	-9.471900	27.709774	0.000286	20.720820
2269.618822	-3.008500	3.166600	-9.525300	27.695961	0.000286	20.733948
2270.618415	-2.996400	3.168700	-9.492700	27.692613	0.000284	20.724415
2271.620166	-2.996700	3.166400	-9.487200	27.655561	0.000283	20.728856
2272.618157	-3.008900	3.165600	-9.524400	27.613325	0.000285	20.738514
2273.618831	-3.004200	3.163800	-9.503200	27.547997	0.000284	20.720197
2274.618093	-3.007400	3.164000	-9.513400	27.531774	0.000282	20.747499
2275.618641	-3.017400	3.164900	-9.547300	27.520316	0.000284	20.718424
2276.619234	-3.007900	3.162500	-9.511600	27.532743	0.000279	20.751792
2277.620139	-3.003300	3.163000	-9.498900	27.529891	0.000281	20.742284
2278.623131	-2.981300	3.162700	-9.427700	27.503796	0.000279	20.729306
2279.619560	-3.002000	3.160600	-9.487600	27.516399	0.000280	20.744831
2280.621566	-2.985600	3.162100	-9.439800	27.553305	0.000280	20.734548
2281.621194	-3.012200	3.160100	-9.518000	27.596808	0.000279	20.740387
2282.623581	-2.988700	3.161100	-9.446500	27.640013	0.000278	20.732177
2283.624063	-3.010400	3.161800	-9.516800	27.681281	0.000277	20.740039
2284.625223	-3.008100	3.156700	-9.494600	27.726293	0.000275	20.741238
2285.622783	-2.970800	3.159500	-9.384800	27.740750	0.000275	20.740139
2286.625824	-3.019600	3.156600	-9.531000	27.721904	0.000275	20.733502
2287.627854	-2.989500	3.158500	-9.440200	27.669403	0.000274	20.738517
2288.631129	-2.995500	3.157300	-9.456800	27.657151	0.000273	20.746104
2289.626523	-3.018200	3.153700	-9.516800	27.654820	0.000274	20.741861
2290.628170	-3.005700	3.153500	-9.477700	27.679273	0.000272	20.751295
2291.625771	-3.000400	3.156700	-9.470600	27.703452	0.000274	20.744332
2292.624877	-3.021100	3.152400	-9.522600	27.731822	0.000273	20.727361
2293.627781	-3.005300	3.152800	-9.474500	27.721061	0.000274	20.730756
2294.626451	-2.985700	3.153200	-9.413500	27.663872	0.000272	20.749073
2295.630588	-3.005200	3.153100	-9.475500	27.606582	0.000272	20.750222
2296.625981	-3.008800	3.153000	-9.485400	27.607698	0.000270	20.739964
2297.626109	-3.033900	3.150100	-9.555000	27.602961	0.000270	20.736620
2298.631469	-3.015800	3.151300	-9.502900	27.627837	0.000269	20.740314
2299.625320	-3.010900	3.149500	-9.481800	27.638502	0.000269	20.732079
2300.626186	-2.989000	3.150100	-9.415200	27.680141	0.000269	20.740314
2301.625638	-2.984600	3.149900	-9.400100	27.704073	0.000267	20.732154
2302.627044	-3.003000	3.147200	-9.449900	27.669775	0.000268	20.745530
2303.630040	-2.997300	3.147100	-9.430800	27.669651	0.000267	20.729284
2304.635955	-3.001700	3.146100	-9.442300	27.599636	0.000268	20.737542
2305.629111	-3.000700	3.145900	-9.439400	27.578581	0.000264	20.744333
2306.632235	-2.984500	3.146000	-9.388200	27.590409	0.000264	20.749122
2307.633117	-2.996800	3.145500	-9.424700	27.573371	0.000264	20.743358
2308.633729	-2.990400	3.144900	-9.403400	27.538894	0.000264	20.754188
2309.637705	-3.013700	3.142100	-9.468200	27.553554	0.000262	20.735272
2310.634646	-2.991400	3.142200	-9.397900	27.622032	0.000263	20.751544
2311.635309	-3.019500	3.142300	-9.487000	27.655042	0.000262	20.751569
2312.637019	-2.997400	3.141700	-9.416000	27.655092	0.000262	20.737393
2313.635298	-3.006300	3.141000	-9.441700	27.609159	0.000262	20.769885
2314.637863	-3.001900	3.139800	-9.424500	27.596637	0.000260	20.760130
2315.638352	-2.984600	3.139200	-9.368000	27.604968	0.000260	20.751917
2316.637467	-2.991900	3.138400	-9.388900	27.657794	0.000260	20.757182
2317.638433	-2.993600	3.136500	-9.388100	27.681552	0.000260	20.753588
2318.641831	-3.020500	3.136600	-9.473200	27.714016	0.000258	20.760652
2319.642403	-3.001700	3.136900	-9.415200	27.735689	0.000260	20.762073
2320.640880	-3.021900	3.136300	-9.475400	27.741717	0.000257	20.759130
2321.641185	-2.989500	3.136100	-9.373400	27.770112	0.000257	20.750247
2322.638649	-2.996100	3.135500	-9.393000	27.772715	0.000256	20.756186
2323.637981	-3.018000	3.134200	-9.458000	27.719646	0.000257	20.774378
2324.640261	-2.974800	3.134400	-9.323300	27.661590	0.000257	20.757683
2325.639791	-2.996300	3.133300	-9.386300	27.635996	0.000258	20.760853
2326.641733	-2.993100	3.133200	-9.376600	27.641850	0.000255	20.751096
2327.641713	-2.995300	3.131500	-9.379100	27.651273	0.000255	20.763423
2328.642921	-2.991600	3.130400	-9.364800	27.706551	0.000256	20.762624
2329.644792	-2.993600	3.130200	-9.368300	27.747619	0.000254	20.747052
2330.644239	-2.996200	3.128300	-9.371700	27.711637	0.000254	20.769164
2331.643188	-2.998600	3.128000	-9.378600	27.685324	0.000253	20.779196
2332.643677	-3.005300	3.128100	-9.399500	27.684878	0.000253	20.752193
2333.644348	-3.013700	3.126000	-9.420200	27.678306	0.000255	20.761228
2334.643836	-3.015500	3.127600	-9.429600	27.694873	0.000255	20.748501
2335.644891	-3.011100	3.125100	-9.409100	27.702760	0.000254	20.757386
2336.645752	-3.009600	3.123100	-9.397700	27.688749	0.000251	20.768418
2337.654422	-2.998600	3.123800	-9.366500	27.694801	0.000251	20.772136
2338.645342	-2.981500	3.122900	-9.309800	27.712755	0.000251	20.771238
2339.645786	-2.994100	3.122500	-9.348100	27.719724	0.000250	20.776354
2340.647958	-2.984400	3.121700	-9.315600	27.696241	0.000251	20.765050
2341.647615	-3.013200	3.120900	-9.402800	27.691132	0.000251	20.785040
2342.648345	-2.998700	3.120200	-9.355800	27.714668	0.000251	20.776481
2343.646876	-2.987100	3.121300	-9.322300	27.763075	0.000251	20.759761
2344.646136	-2.991900	3.119700	-9.331900	27.801263	0.000250	20.769744
2345.647307	-2.993100	3.118500	-9.332900	27.807315	0.000248	20.769196
2346.651571	-2.985400	3.118400	-9.308800	27.835608	0.000250	20.782498
2347.648560	-2.974900	3.116400	-9.269200	27.853636	0.000249	20.777882
2348.649879	-2.991900	3.114900	-9.318400	27.853191	0.000249	20.772219
2349.649858	-3.002500	3.115800	-9.354900	27.894078	0.000247	20.761212
2350.650038	-2.991400	3.114800	-9.316400	27.934396	0.000249	20.773343
2351.651562	-2.968700	3.115700	-9.248300	27.967396	0.000246	20.765307
2352.649724	-3.023300	3.111800	-9.406000	27.987652	0.000246	20.756772
2353.653945	-3.012100	3.110100	-9.366300	28.017503	0.000246	20.762637
2354.648177	-3.021300	3.109800	-9.393200	28.066018	0.000248	20.775912
2355.648213	-2.996200	3.110200	-9.317700	28.048295	0.000246	20.786047
2356.652595	-3.028300	3.107800	-9.410100	28.011852	0.000246	20.769751
2357.649232	-2.985100	3.109700	-9.282000	28.022289	0.000244	20.773619
2358.650095	-2.989900	3.107800	-9.291400	28.027446	0.000246	20.802992
2359.649080	-2.997400	3.105500	-9.308100	28.035627	0.000244	20.771398
2360.651071	-2.991100	3.105000	-9.286500	28.037786	0.000244	20.803917
2361.652356	-3.000700	3.105300	-9.317500	28.029579	0.000244	20.771948
2362.652428	-2.998900	3.103300	-9.305400	27.994027	0.000244	20.773147
2363.657342	-3.002100	3.103100	-9.314800	27.968737	0.000242	20.767130
2364.655282	-3.013100	3.102800	-9.348100	27.931375	0.000242	20.781207
2365.653862	-2.992000	3.102700	-9.280900	27.888778	0.000242	20.781008
2366.653786	-2.994500	3.101500	-9.286000	27.896390	0.000241	20.779186
2367.659817	-2.983000	3.101900	-9.252600	27.905838	0.000240	20.778264
2368.654974	-2.990500	3.099700	-9.269600	27.861602	0.000241	20.786848
2369.656562	-2.965900	3.101400	-9.196700	27.812257	0.000239	20.784127
2370.658646	-3.008500	3.097200	-9.317300	27.806406	0.000239	20.787247
2371.654966	-3.005100	3.097400	-9.305600	27.800827	0.000240	20.800125
2372.658816	-2.996400	3.095100	-9.272400	27.807298	0.000240	20.785301
2373.656562	-2.965900	3.096400	-9.181800	27.811738	0.000240	20.775070
2374.653618	-3.010300	3.094400	-9.313400	27.784461	0.000240	20.779387
2375.657085	-2.994700	3.095000	-9.267100	27.813673	0.000240	20.791242
2376.655830	-3.003000	3.092900	-9.287000	27.852678	0.000240	20.783082
2377.653861	-3.018900	3.091800	-9.332500	27.913056	0.000238	20.794538
2378.658829	-2.999000	3.090000	-9.264500	27.935718	0.000238	20.799804
2379.658059	-2.996300	3.091100	-9.261400	27.997330	0.000238	20.800652
2380.657908	-2.996200	3.089900	-9.257400	28.043145	0.000239	20.790345
2381.657962	-2.979100	3.089200	-9.202300	28.090397	0.000239	20.790496
2382.657309	-3.026400	3.086100	-9.338300	28.118212	0.000236	20.796685
2383.661397	-2.977100	3.086400	-9.187000	28.133086	0.000238	20.787951
2384.656083	-3.032900	3.085200	-9.356400	28.131798	0.000238	20.808940
2385.657997	-3.019400	3.083800	-9.310200	28.112387	0.000237	20.793192
2386.656421	-3.018000	3.082900	-9.302400	28.137103	0.000237	20.796262
2387.656877	-2.991700	3.081900	-9.219500	28.104379	0.000237	20.808365
2388.657245	-3.007900	3.082100	-9.269700	28.103241	0.000237	20.801529
2389.659275	-2.996000	3.080100	-9.227000	28.107258	0.000238	20.821220
2390.660138	-3.004900	3.079500	-9.252800	28.085269	0.000235	20.799084
2391.657962	-3.000900	3.078500	-9.238000	28.098729	0.000235	20.798409
2392.658226	-3.007500	3.078900	-9.258200	28.130138	0.000235	20.812959
2393.660117	-2.978800	3.077300	-9.164700	28.125305	0.000235	20.810463
2394.660649	-3.011200	3.075000	-9.259000	28.157209	0.000237	20.810339
2395.658003	-3.013200	3.073900	-9.260600	28.185392	0.000234	20.809315
2396.660349	-2.997600	3.074200	-9.214100	28.204455	0.000234	20.810962
2397.660110	-3.018900	3.072700	-9.275700	28.203564	0.000234	20.809591
2398.660650	-3.006700	3.072300	-9.235700	28.176619	0.000234	20.816130
2399.667367	-3.006500	3.070800	-9.230500	28.129445	0.000233	20.819847
2400.660378	-3.024100	3.069900	-9.282300	28.078626	0.000233	20.814683
2401.666280	-3.010300	3.068000	-9.235400	28.040150	0.000234	20.814358
2402.664026	-2.997200	3.068100	-9.194300	28.032961	0.000234	20.799535
2403.664492	-3.032400	3.065700	-9.294900	28.051480	0.000235	20.831452
2404.666212	-3.015200	3.065700	-9.243100	28.061670	0.000232	20.825588
2405.663110	-2.992700	3.065000	-9.172000	28.041315	0.000233	20.816952
2406.664688	-2.983700	3.065000	-9.144900	28.064595	0.000233	20.820472
2407.664529	-2.997000	3.062400	-9.177200	28.028748	0.000232	20.815682
2408.665041	-3.013300	3.061700	-9.224700	28.025449	0.000233	20.820896
2409.664890	-2.990900	3.060700	-9.154200	28.042927	0.000232	20.833748
2410.672559	-2.977900	3.059700	-9.110000	28.039034	0.000231	20.806596
2411.665555	-3.012200	3.058400	-9.211400	28.044762	0.000231	20.834646
2412.666488	-2.976500	3.059300	-9.105700	28.071337	0.000231	20.815405
2413.672938	-2.976600	3.057000	-9.096900	28.096723	0.000231	20.829580
2414.665379	-3.012100	3.054200	-9.198500	28.129942	0.000232	20.837891
2415.670659	-2.997600	3.054300	-9.153900	28.142287	0.000230	20.813809
2416.666047	-2.992900	3.054800	-9.141800	28.125627	0.000231	20.826435
2417.669267	-2.999100	3.052900	-9.155200	28.108548	0.000232	20.836742
2418.669254	-2.982800	3.050500	-9.098700	28.096822	0.000230	20.831576
2419.670187	-2.979700	3.051400	-9.091800	28.075478	0.000230	20.818625
2420.670996	-2.971000	3.051300	-9.065100	28.096375	0.000230	20.819273
2421.669281	-2.972000	3.049000	-9.060300	28.134204	0.000231	20.822267
2422.670046	-2.996900	3.046700	-9.129500	28.145409	0.000228	20.824064
2423.669257	-3.020000	3.047100	-9.199800	28.168117	0.000229	20.834597
2424.669584	-2.970700	3.046700	-9.049300	28.214742	0.000228	20.820845
2425.671478	-2.977900	3.045100	-9.067500	28.256113	0.000227	20.829781
2426.672015	-2.994000	3.042900	-9.109900	28.307023	0.000230	20.839787
2427.671880	-3.002000	3.042300	-9.131700	28.304742	0.000226	20.832276
2428.676037	-3.002400	3.041400	-9.130200	28.307469	0.000227	20.837392
2429.672571	-2.998400	3.040000	-9.114300	28.305016	0.000227	20.856257
2430.672482	-2.989100	3.038300	-9.080900	28.306453	0.000228	20.843007
2431.680609	-2.990100	3.038300	-9.082600	28.321574	0.000228	20.835472
2432.672533	-2.999600	3.037100	-9.108000	28.367176	0.000228	20.840137
2433.677907	-2.980300	3.035700	-9.045900	28.371514	0.000227	20.842135
2434.671494	-2.995700	3.033500	-9.085600	28.383731	0.000228	20.825513
2435.672481	-2.995400	3.033600	-9.085700	28.374413	0.000230	20.834149
2436.673723	-2.999700	3.031300	-9.091900	28.346160	0.000228	20.840313
2437.675868	-3.015400	3.029300	-9.133900	28.322640	0.000226	20.834175
2438.671479	-3.009700	3.028900	-9.115500	28.254629	0.000228	20.851045
2439.671442	-3.009900	3.027500	-9.111400	28.178012	0.000226	20.838394
2440.674480	-2.995800	3.027900	-9.069600	28.168120	0.000228	20.837919
2441.675462	-3.028400	3.025600	-9.162200	28.133344	0.000227	20.864074
2442.675706	-3.014900	3.024600	-9.117500	28.120551	0.000227	20.853567
2443.675726	-3.016000	3.024700	-9.121700	28.167577	0.000227	20.843535
2444.674593	-2.991000	3.022700	-9.039300	28.187384	0.000226	20.839769
2445.675783	-2.967700	3.023300	-8.971500	28.240975	0.000227	20.849626
2446.675130	-3.035800	3.018700	-9.163100	28.252350	0.000228	20.840690
2447.679578	-2.967800	3.018900	-8.958200	28.308789	0.000226	20.848678
2448.674572	-2.996600	3.016500	-9.038100	28.322248	0.000227	20.831410
2449.675951	-3.019300	3.017000	-9.108700	28.362845	0.000227	20.855216
2450.676850	-2.998000	3.014900	-9.037000	28.301726	0.000225	20.848204
2451.676472	-2.992600	3.014300	-9.019500	28.274561	0.000225	20.855466
2452.680658	-3.011500	3.012400	-9.070900	28.239191	0.000226	20.848305
2453.676652	-2.974700	3.011900	-8.958400	28.224444	0.000227	20.851949
2454.675862	-2.985100	3.010800	-8.986300	28.269455	0.000225	20.846058
2455.676026	-2.989900	3.008400	-8.993400	28.320317	0.000224	20.856017
2456.679222	-2.996100	3.008300	-9.012500	28.333924	0.000225	20.850752
2457.678739	-3.022100	3.005500	-9.082100	28.339922	0.000225	20.878127
2458.681310	-3.003200	3.005000	-9.023700	28.374049	0.000225	20.866971
2459.677747	-3.020900	3.003700	-9.072300	28.402775	0.000225	20.840896
2460.677001	-3.000400	3.002600	-9.008100	28.424782	0.000227	20.845987
2461.681795	-3.023300	3.000800	-9.071300	28.427757	0.000224	20.847560
2462.678005	-3.016700	3.000300	-9.050400	28.399133	0.000225	20.863780
2463.680304	-2.984400	2.998400	-8.947000	28.416456	0.000225	20.879801
2464.681218	-3.008600	2.997700	-9.016600	28.433210	0.000225	20.863956
2465.680483	-2.974400	2.997200	-8.913500	28.433136	0.000224	20.870519
2466.681586	-3.009600	2.993900	-9.009100	28.386075	0.000224	20.869123
2467.684447	-2.991800	2.992800	-8.952900	28.358169	0.000224	20.868525
2468.682842	-2.993400	2.992300	-8.955900	28.323669	0.000225	20.865081
2469.684475	-3.024400	2.990500	-9.044500	28.302206	0.000224	20.866230
2470.684128	-3.000700	2.989300	-8.968900	28.332320	0.000226	20.865731
2471.683019	-3.010100	2.988000	-8.993700	28.390933	0.000225	20.869748
2472.686318	-3.009000	2.987700	-8.987900	28.354504	0.000226	20.867679
2473.683462	-3.053800	2.983400	-9.108600	28.330510	0.000224	20.872443
2474.686899	-3.004000	2.984300	-8.964000	28.359585	0.000224	20.888441
2475.684210	-2.972100	2.983800	-8.867300	28.405830	0.000224	20.875265
2476.685147	-2.971500	2.983400	-8.863600	28.391307	0.000225	20.858745
2477.688537	-2.991600	2.979500	-8.912600	28.407641	0.000225	20.866658
2478.686854	-2.979700	2.979700	-8.877600	28.411754	0.000224	20.872695
2479.684602	-2.999400	2.977000	-8.927800	28.429351	0.000224	20.870975
2480.684947	-2.985200	2.975900	-8.882400	28.431555	0.000224	20.842850
2481.685295	-2.986100	2.976900	-8.888400	28.451356	0.000227	20.853780
2482.684919	-2.999900	2.974300	-8.921700	28.456412	0.000224	20.872147
2483.689361	-3.042900	2.970400	-9.037700	28.458468	0.000226	20.858097
2484.687282	-2.988800	2.971200	-8.879500	28.450663	0.000224	20.860668
2485.690249	-2.981800	2.969800	-8.854300	28.429647	0.000225	20.851834
2486.688655	-2.975800	2.967700	-8.830100	28.399487	0.000226	20.866981
2487.687863	-3.000000	2.965000	-8.893500	28.409449	0.000225	20.867530
2488.690110	-2.990500	2.965700	-8.867800	28.363971	0.000224	20.868203
2489.689711	-3.044600	2.962100	-9.016700	28.364144	0.000225	20.861739
2490.691846	-3.003900	2.961600	-8.895300	28.384542	0.000225	20.858097
2491.692570	-2.982200	2.960500	-8.827700	28.392769	0.000223	20.862114
2492.691882	-2.998600	2.958500	-8.870300	28.396414	0.000225	20.848716
2493.691593	-2.997000	2.956100	-8.858000	28.416288	0.000224	20.871097
2494.695909	-3.011300	2.955900	-8.899600	28.420131	0.000224	20.854105
2495.694218	-2.993500	2.953800	-8.841100	28.452051	0.000223	20.872022
2496.692630	-3.002000	2.952800	-8.863000	28.472522	0.000225	20.843800
2497.694055	-3.014300	2.950500	-8.892600	28.479731	0.000224	20.855327
2498.692362	-2.997500	2.948600	-8.837300	28.518413	0.000224	20.857298
2499.695182	-2.992400	2.948500	-8.822300	28.555015	0.000223	20.845796
2500.694579	-3.005800	2.945200	-8.850600	28.563661	0.000224	20.849762
2501.694567	-2.961500	2.946200	-8.724000	28.534645	0.000223	20.863687
2502.694242	-2.992300	2.944500	-8.810100	28.460426	0.000223	20.855801
2503.694688	-2.983600	2.942300	-8.777500	28.397007	0.000224	20.836985
2504.695679	-3.016400	2.939100	-8.864300	28.310189	0.000224	20.828276
2505.696014	-2.995200	2.939600	-8.803400	28.262947	0.000222	20.850886
2506.696336	-3.036500	2.936400	-8.915400	28.231914	0.000224	20.845246
2507.695861	-3.012100	2.936100	-8.842200	28.258485	0.000222	20.854927
2508.696426	-3.000100	2.933200	-8.799300	28.299927	0.000225	20.837859
2509.695491	-2.994400	2.932700	-8.780200	28.346549	0.000224	20.839283
2510.695175	-2.984800	2.932300	-8.751900	28.407714	0.000223	20.856300
2511.695909	-3.003500	2.930200	-8.800100	28.452224	0.000224	20.838059
2512.696210	-3.018600	2.927600	-8.836400	28.502876	0.000226	20.845445
2513.696559	-2.982100	2.927900	-8.730500	28.543168	0.000224	20.834339
2514.695556	-2.997800	2.924200	-8.765300	28.507808	0.000223	20.834291
2515.695375	-2.979300	2.924600	-8.712700	28.490287	0.000223	20.819966
2516.694816	-2.988800	2.923000	-8.734600	28.459038	0.000225	20.838757
2517.698370	-3.013700	2.919500	-8.796600	28.475442	0.000224	20.831095
2518.698048	-3.016000	2.917400	-8.797400	28.479211	0.000221	20.834889
2519.697059	-3.014700	2.915600	-8.787600	28.473213	0.000224	20.829798
2520.698727	-3.011500	2.915600	-8.779000	28.508625	0.000223	20.841751
2521.704412	-2.967800	2.913800	-8.646500	28.530507	0.000225	20.844347
2522.698771	-2.997200	2.911700	-8.725200	28.547680	0.000223	20.828452
2523.696639	-2.996700	2.909900	-8.719000	28.556204	0.000222	20.838459
2524.696078	-2.993000	2.908300	-8.702600	28.567999	0.000223	20.829475
2525.697683	-2.995100	2.905300	-8.700100	28.597834	0.000223	20.835340
2526.698852	-3.002000	2.905200	-8.720500	28.613840	0.000224	20.840556
2527.699595	-3.014200	2.901400	-8.744900	28.608364	0.000221	20.830773
2528.698817	-2.981500	2.901400	-8.649900	28.558881	0.000223	20.821715
2529.696939	-2.986200	2.900300	-8.660100	28.534100	0.000221	20.813354
2530.698508	-2.990700	2.898900	-8.668700	28.517722	0.000223	20.824835
2531.703768	-2.993300	2.896700	-8.669700	28.511576	0.000222	20.821017
2532.700400	-2.976200	2.894800	-8.615100	28.521612	0.000221	20.824011
2533.706191	-2.981700	2.893500	-8.626100	28.564283	0.000221	20.820518
2534.701141	-2.982700	2.890500	-8.620700	28.583907	0.000221	20.814677
2535.700560	-2.991300	2.888100	-8.638200	28.610222	0.000223	20.837386
2536.700586	-3.015600	2.886600	-8.703400	28.589680	0.000223	20.832819
2537.705238	-2.985600	2.885900	-8.614900	28.602194	0.000222	20.825982
2538.703042	-2.995800	2.883000	-8.635900	28.620703	0.000221	20.823760
2539.702950	-2.980400	2.882900	-8.591000	28.614484	0.000224	20.819394
2540.703397	-3.013500	2.879300	-8.675900	28.634156	0.000221	20.824508
2541.704040	-2.982400	2.878100	-8.583000	28.669910	0.000222	20.828750
2542.708403	-3.019600	2.876500	-8.684700	28.642085	0.000221	20.811631
2543.705782	-2.981500	2.874300	-8.569100	28.613070	0.000222	20.793314
2544.706313	-2.988100	2.872400	-8.582400	28.655339	0.000221	20.834463
2545.704866	-2.974400	2.870000	-8.535200	28.642530	0.000222	20.807338
2546.706495	-3.014900	2.867500	-8.644300	28.663862	0.000221	20.801323
2547.706530	-3.005100	2.866200	-8.612600	28.641313	0.000221	20.814647
2548.705274	-3.024200	2.863400	-8.658900	28.599860	0.000223	20.810355
2549.706722	-2.991600	2.862200	-8.561500	28.582762	0.000222	20.827748
2550.706295	-2.990900	2.860000	-8.553000	28.606252	0.000222	20.810629
2551.706652	-3.004500	2.857700	-8.584300	28.642155	0.000220	20.795580
2552.708765	-2.999300	2.855300	-8.562800	28.634100	0.000222	20.794106
2553.712684	-2.995200	2.854600	-8.549100	28.574534	0.000222	20.807134
2554.712052	-3.010400	2.851100	-8.581800	28.547176	0.000221	20.814195
2555.708907	-3.012000	2.850300	-8.583800	28.529010	0.000221	20.813444
2556.708294	-3.008600	2.847700	-8.566300	28.504478	0.000223	20.797273
2557.709990	-2.989800	2.846200	-8.508400	28.501131	0.000222	20.798170
2558.713398	-3.000400	2.844700	-8.532100	28.484578	0.000221	20.817535
2559.711174	-2.988600	2.841900	-8.492600	28.483881	0.000222	20.809722
2560.710829	-3.005000	2.839200	-8.529800	28.468516	0.000225	20.817008
2561.711802	-3.010400	2.837400	-8.539900	28.499345	0.000223	20.813915
2562.712248	-2.991100	2.835500	-8.480300	28.520457	0.000222	20.814787
2563.710046	-2.987300	2.834000	-8.464900	28.568677	0.000220	20.802184
2564.711421	-2.987500	2.830800	-8.455400	28.571774	0.000222	20.822846
2565.711903	-3.010200	2.828200	-8.511100	28.571972	0.000221	20.832527
2566.713905	-2.993800	2.827300	-8.463300	28.522883	0.000222	20.828610
2567.714514	-2.974700	2.825100	-8.402600	28.508013	0.000223	20.806997
2568.716512	-2.994300	2.822300	-8.448800	28.495101	0.000221	20.796839
2569.714655	-2.995100	2.820500	-8.447000	28.529151	0.000223	20.809792
2570.714979	-2.994100	2.817800	-8.436500	28.535247	0.000224	20.792223
2571.714499	-2.998300	2.814700	-8.438100	28.564040	0.000220	20.821221
2572.714108	-2.966800	2.814500	-8.349200	28.549692	0.000222	20.813884
2573.717662	-3.005700	2.810400	-8.445900	28.582945	0.000222	20.804699
2574.714889	-3.020100	2.808700	-8.482000	28.591321	0.000221	20.832100
2575.716811	-3.018300	2.804300	-8.463100	28.601081	0.000221	20.808265
2576.714328	-3.018200	2.801700	-8.455600	28.611390	0.000219	20.798734
2577.713243	-3.017400	2.798800	-8.443700	28.633961	0.000219	20.801553
2578.716166	-2.993000	2.797400	-8.370700	28.670831	0.000220	20.801703
2579.717485	-2.979000	2.796300	-8.329000	28.749443	0.000223	20.820194
2580.717642	-3.015300	2.790900	-8.413600	28.763194	0.000221	20.794691
2581.714699	-2.998300	2.790500	-8.366300	28.808802	0.000221	20.783734
2582.714015	-3.009300	2.788800	-8.391100	28.834986	0.000220	20.814852
2583.713940	-3.009200	2.784400	-8.377600	28.851610	0.000220	20.810261
2584.723139	-3.019200	2.782200	-8.399200	28.875886	0.000219	20.809113
2585.714908	-2.998600	2.780700	-8.335600	28.839422	0.000220	20.795138
2586.713339	-3.013100	2.776200	-8.364400	28.853861	0.000222	20.790244
2587.713729	-3.033700	2.773700	-8.413700	28.894117	0.000222	20.808987
2588.713805	-3.021300	2.771100	-8.371300	28.893671	0.000221	20.797632
2589.718907	-3.012200	2.768300	-8.338100	28.920498	0.000220	20.806167
2590.716619	-2.989600	2.765700	-8.267100	28.959214	0.000222	20.806765
2591.716299	-3.000700	2.764100	-8.292900	28.975860	0.000221	20.779914
2592.718497	-3.005600	2.760900	-8.297700	28.994015	0.000221	20.798680
2593.717394	-3.016000	2.755800	-8.310700	28.979153	0.000222	20.805043
2594.720266	-2.989200	2.755700	-8.236200	28.943212	0.000223	20.784480
2595.718119	-2.970200	2.752100	-8.172800	28.899962	0.000220	20.802073
2596.721953	-2.972900	2.747800	-8.168200	28.840236	0.000221	20.792166
2597.717891	-2.989700	2.746200	-8.208600	28.846678	0.000220	20.810034
2598.720102	-3.006500	2.742700	-8.245600	28.868824	0.000220	20.800102
2599.723048	-2.988400	2.739400	-8.185700	28.867239	0.000219	20.781910
2600.721084	-3.020100	2.734800	-8.258300	28.854482	0.000219	20.795137
2601.719429	-3.020600	2.732100	-8.250900	28.821162	0.000219	20.793814
2602.720651	-3.021500	2.727200	-8.239000	28.855201	0.000221	20.796335
2603.720770	-3.006500	2.726200	-8.195200	28.912423	0.000220	20.786652
2604.721151	-2.976600	2.723400	-8.105500	28.935932	0.000220	20.799431
2605.722675	-2.996700	2.719800	-8.149600	28.983713	0.000219	20.803947
2606.719481	-3.010800	2.713100	-8.167300	28.981805	0.000219	20.796809
2607.722599	-2.997800	2.710800	-8.124600	29.048408	0.000219	20.779040
2608.719490	-3.002800	2.708000	-8.130300	29.069337	0.000221	20.784481
2609.720251	-2.981400	2.707300	-8.070300	29.035206	0.000220	20.802249
2610.725791	-3.022300	2.700500	-8.161000	28.978485	0.000220	20.789671
2611.721694	-3.012200	2.698200	-8.126600	28.950148	0.000220	20.785304
2612.723327	-2.998900	2.695400	-8.081700	28.898351	0.000221	20.802347
2613.726647	-2.960100	2.692300	-7.966900	28.825571	0.000220	20.770754
2614.721326	-2.982800	2.686500	-8.012500	28.757962	0.000220	20.794162
2615.724459	-2.982800	2.683900	-8.005100	28.749613	0.000218	20.791441
2616.724519	-3.010300	2.679900	-8.066500	28.774686	0.000219	20.777343
2617.721152	-3.006000	2.675600	-8.041500	28.826909	0.000220	20.788698
2618.721373	-3.006700	2.671900	-8.032900	28.887575	0.000219	20.782956
2619.721560	-2.952400	2.669200	-7.879300	28.959658	0.000221	20.774970
2620.721771	-3.016900	2.662800	-8.032500	28.985195	0.000222	20.788845
2621.728060	-3.017200	2.659500	-8.023200	29.006720	0.000221	20.782557
2622.721219	-3.020400	2.654500	-8.015800	29.042685	0.000219	20.780861
2623.725224	-3.004800	2.650900	-7.964600	29.086648	0.000221	20.766836
2624.724032	-3.003800	2.648300	-7.952700	29.113097	0.000220	20.785901
2625.722663	-2.979300	2.643900	-7.875800	29.146706	0.000218	20.787050
2626.726269	-3.024900	2.637300	-7.977000	29.165205	0.000221	20.787199
2627.723938	-2.978200	2.635000	-7.846600	29.159881	0.000218	20.777566
2628.722659	-3.010100	2.629900	-7.915100	29.116095	0.000220	20.779438
2629.722672	-2.969700	2.626900	-7.800100	29.081620	0.000221	20.771727
2630.724141	-3.019800	2.620400	-7.911800	29.090339	0.000221	20.784306
2631.724645	-2.994300	2.617100	-7.835500	29.123278	0.000220	20.762494
2632.726251	-3.019100	2.609500	-7.876700	29.167683	0.000221	20.784480
2633.725519	-3.013300	2.605200	-7.849900	29.206045	0.000219	20.775248
2634.727488	-3.020400	2.599000	-7.848800	29.219962	0.000222	20.792118
2635.726351	-3.021300	2.594800	-7.838000	29.180117	0.000221	20.759077
2636.725618	-2.992300	2.589000	-7.745500	29.178457	0.000220	20.780638
2637.728278	-2.981500	2.585000	-7.706100	29.210528	0.000219	20.781189
2638.726233	-2.973300	2.580200	-7.669800	29.238562	0.000219	20.783361
2639.727494	-2.983700	2.573700	-7.677900	29.228086	0.000220	20.775648
2640.727075	-3.033600	2.567100	-7.786400	29.230960	0.000219	20.775699
2641.728165	-2.976400	2.563600	-7.629600	29.235243	0.000220	20.763421
2642.727854	-3.014500	2.556300	-7.705000	29.259685	0.000220	20.763870
2643.731951	-2.989800	2.550700	-7.624700	29.275657	0.000222	20.770958
2644.730164	-3.019800	2.545000	-7.685000	29.291851	0.000221	20.762622
2645.729146	-3.005900	2.539600	-7.632800	29.342588	0.000222	20.762547
2646.727395	-3.009600	2.532100	-7.620300	29.401468	0.000221	20.752190
2647.730169	-2.989700	2.526700	-7.552900	29.403201	0.000220	20.772904
2648.729773	-3.018200	2.519200	-7.602100	29.381041	0.000220	20.773329
2649.726466	-3.033000	2.512000	-7.617700	29.321688	0.000220	20.750966
2650.727829	-2.988500	2.509300	-7.496600	29.318247	0.000223	20.758878
2651.727843	-3.010700	2.503300	-7.535600	29.349049	0.000221	20.765266
2652.729175	-2.991900	2.497800	-7.472400	29.362322	0.000218	20.752565
