LabVIEW Measurement	
Writer_Version	2
Reader_Version	2
Separator	Tab
Decimal_Separator	.
Multi_Headings	No
X_Columns	One
Time_Pref	Absolute
Operator	admin
Description	Clolumns are: time, Current, Voltage, Power, Battery Temp, and Chamber Temp
Date	2024/08/16
Time	13:06:06.104549407958984375
***End_of_Header***	
	
Channels	6						
Samples	1	1	1	1	1	1	
Date	2024/09/06	2024/09/06	2024/09/06	2024/09/06	2024/09/06	2024/09/06	
Time	15:00:58.2608199119567871094	15:00:58.2670497894287109375	15:00:58.2740430831909179688	15:00:58.2450289726257324219	15:00:58.2450289726257324219	15:00:58.2450289726257324219	
X_Dimension	Time	Time	Time	Time	Time	Time	
X0	0.0000000000000000E+0	0.0000000000000000E+0	0.0000000000000000E+0	0.0000000000000000E+0	0.0000000000000000E+0	0.0000000000000000E+0	
Delta_X	1.000000	1.000000	1.000000	1.000000	1.000000	1.000000	
***End_of_Header***							
X_Value	Untitled	Untitled 1	Untitled 2	Untitled 3	Untitled 4	Untitled 5	Comment
0.000000	-0.001698	4.101700	-0.006957	21.053497	0.000920	20.851061
1.003221	-2.999000	3.930500	-11.785000	21.021661	0.000921	20.856202
1.999947	-3.012600	3.923500	-11.818000	21.022613	0.000922	20.853835
3.001827	-3.012100	3.917400	-11.799000	21.032313	0.000920	20.879182
4.002802	-2.979200	3.914800	-11.662000	21.063708	0.000919	20.861747
5.002225	-2.995800	3.910700	-11.715000	21.050834	0.000918	20.855983
6.002325	-2.998100	3.907800	-11.715000	21.059965	0.000917	20.869382
7.003902	-2.992300	3.904800	-11.682000	21.043999	0.000918	20.870009
8.004571	-2.999300	3.902700	-11.704000	21.051209	0.000917	20.862048
9.001256	-3.000900	3.900400	-11.704000	21.047569	0.000917	20.880217
10.004919	-3.004900	3.899300	-11.716000	21.059919	0.000917	20.867915
11.003911	-3.006400	3.897200	-11.715000	21.072690	0.000914	20.896333
12.003090	-2.981300	3.896100	-11.614000	21.053081	0.000912	20.865816
13.005170	-3.009500	3.893100	-11.716000	21.062013	0.000913	20.875699
14.006197	-2.984600	3.893500	-11.619000	21.072389	0.000913	20.867111
15.005531	-2.985800	3.891900	-11.620000	21.074631	0.000913	20.869828
16.006622	-3.006700	3.890800	-11.698000	21.074829	0.000912	20.878086
17.006021	-2.986400	3.890500	-11.617000	21.098003	0.000911	20.861912
18.004790	-3.010200	3.888000	-11.702000	21.096952	0.000913	20.880300
19.005758	-3.027500	3.886400	-11.764000	21.080134	0.000910	20.856367
20.005781	-2.982700	3.886700	-11.592000	21.098943	0.000911	20.857163
21.006209	-3.004300	3.885000	-11.670000	21.105728	0.000909	20.883388
22.010705	-2.963100	3.885000	-11.511000	21.112859	0.000909	20.880564
23.005854	-2.960800	3.885500	-11.503000	21.108090	0.000907	20.890492
24.006654	-2.997500	3.884100	-11.642000	21.113696	0.000909	20.874289
25.006220	-3.027800	3.882200	-11.753000	21.108107	0.000906	20.866802
26.008759	-2.997700	3.883200	-11.640000	21.116388	0.000907	20.874137
27.009468	-3.012600	3.881100	-11.691000	21.139759	0.000907	20.857213
28.009428	-3.013400	3.880600	-11.693000	21.145023	0.000907	20.873382
29.012117	-2.993700	3.880300	-11.615000	21.129372	0.000909	20.847297
30.010198	-3.006400	3.880000	-11.663000	21.150151	0.000904	20.881356
31.013820	-2.995600	3.878100	-11.616000	21.141169	0.000905	20.843925
32.013889	-3.003000	3.878200	-11.646000	21.144430	0.000905	20.880849
33.010668	-3.036500	3.875700	-11.767000	21.151511	0.000906	20.874183
34.012142	-3.013200	3.876700	-11.680000	21.175558	0.000903	20.848452
35.014225	-3.001800	3.876000	-11.634000	21.143894	0.000904	20.863245
36.012796	-2.992500	3.876300	-11.598000	21.167739	0.000906	20.878562
37.012320	-3.003200	3.874400	-11.635000	21.186019	0.000903	20.871244
38.015819	-3.031500	3.873800	-11.743000	21.176910	0.000903	20.879675
39.011529	-3.001100	3.873600	-11.623000	21.189074	0.000903	20.856757
40.013098	-3.016000	3.874700	-11.684000	21.193839	0.000902	20.861523
41.015833	-3.011700	3.874000	-11.667000	21.211719	0.000901	20.855228
42.014819	-2.988700	3.874800	-11.579000	21.220148	0.000903	20.862237
43.015207	-2.995900	3.871900	-11.599000	21.235134	0.000903	20.877702
44.014852	-2.982100	3.873200	-11.548000	21.216043	0.000901	20.859554
45.015908	-2.987700	3.872000	-11.568000	21.234104	0.000901	20.859129
46.015359	-2.988700	3.872100	-11.571000	21.251608	0.000901	20.854355
47.016232	-3.010700	3.870300	-11.651000	21.240105	0.000902	20.841426
48.017121	-2.996000	3.870400	-11.594000	21.271453	0.000898	20.872311
49.017842	-3.021700	3.869400	-11.691000	21.261925	0.000901	20.858986
50.017509	-2.995900	3.870200	-11.593000	21.258649	0.000900	20.856183
51.017241	-2.999200	3.869600	-11.605000	21.261740	0.000901	20.868283
52.019719	-2.997000	3.869300	-11.596000	21.295811	0.000899	20.862066
53.020667	-3.000600	3.869100	-11.608000	21.280064	0.000898	20.845365
54.018839	-3.006600	3.868500	-11.630000	21.303783	0.000897	20.854394
55.017654	-2.994000	3.868900	-11.583000	21.291955	0.000897	20.857260
56.024523	-2.984100	3.869300	-11.545000	21.301080	0.000898	20.858802
57.020539	-3.011200	3.865900	-11.640000	21.305395	0.000897	20.854585
58.021106	-3.013000	3.866200	-11.648000	21.297758	0.000896	20.852161
59.023202	-2.994000	3.866000	-11.573000	21.320532	0.000896	20.866409
60.024679	-2.993800	3.867600	-11.578000	21.336716	0.000896	20.830920
61.023184	-3.016800	3.866400	-11.662000	21.334219	0.000896	20.847861
62.025006	-2.994600	3.867500	-11.580000	21.324189	0.000897	20.852524
63.025857	-3.015200	3.865100	-11.653000	21.338506	0.000897	20.852623
64.022157	-2.985100	3.866200	-11.540000	21.336111	0.000897	20.845486
65.026779	-2.993100	3.864100	-11.564000	21.351924	0.000898	20.835229
66.024787	-2.997600	3.863800	-11.581000	21.370205	0.000895	20.837398
67.022874	-3.000700	3.863700	-11.592000	21.364840	0.000897	20.839142
68.025710	-3.011000	3.863200	-11.631000	21.369950	0.000895	20.830030
69.026348	-3.003700	3.862500	-11.600000	21.374368	0.000893	20.855312
70.025442	-3.011700	3.862200	-11.631000	21.352543	0.000895	20.851020
71.026273	-2.989900	3.863700	-11.551000	21.406639	0.000895	20.848720
72.020291	-3.015300	3.862100	-11.645000	21.386707	0.000894	20.829251
73.024107	-3.010600	3.861000	-11.622000	21.429135	0.000895	20.850839
74.022686	-3.001500	3.860900	-11.587000	21.428364	0.000893	20.853861
75.023733	-2.979900	3.862000	-11.507000	21.426086	0.000893	20.831194
76.023314	-2.972600	3.862600	-11.480000	21.420853	0.000893	20.840181
77.024804	-2.991500	3.861000	-11.549000	21.434521	0.000894	20.833943
78.023073	-2.994600	3.860600	-11.560000	21.427735	0.000893	20.854653
79.024175	-3.011000	3.862300	-11.627000	21.444922	0.000892	20.851462
80.024693	-2.992600	3.860700	-11.552000	21.433153	0.000894	20.844902
81.023125	-2.985500	3.860100	-11.523000	21.453526	0.000894	20.863863
82.024261	-3.004900	3.859300	-11.594000	21.455125	0.000894	20.839385
83.025283	-3.005800	3.859100	-11.598000	21.471587	0.000894	20.855856
84.025031	-3.013500	3.859100	-11.628000	21.457099	0.000894	20.847050
85.025433	-2.989200	3.860000	-11.537000	21.482338	0.000895	20.834372
86.026066	-3.011500	3.859500	-11.622000	21.462385	0.000894	20.850917
87.024205	-3.001200	3.858500	-11.580000	21.480043	0.000894	20.851515
88.025116	-2.983700	3.859500	-11.515000	21.520848	0.000894	20.829758
89.022974	-3.028400	3.856500	-11.677000	21.508853	0.000893	20.851420
90.025471	-3.005000	3.858300	-11.593000	21.507485	0.000895	20.842465
91.024868	-2.991200	3.859000	-11.543000	21.523419	0.000893	20.846081
92.024002	-2.984600	3.857900	-11.513000	21.505215	0.000897	20.814589
93.026336	-3.006600	3.856600	-11.594000	21.526365	0.000892	20.848554
94.028061	-3.011700	3.856900	-11.615000	21.539163	0.000894	20.842394
95.028049	-2.994500	3.856700	-11.548000	21.555847	0.000895	20.823528
96.028646	-3.001500	3.856300	-11.573000	21.542703	0.000894	20.835031
97.027694	-2.992500	3.855800	-11.537000	21.580815	0.000896	20.846616
98.028894	-2.988300	3.856700	-11.524000	21.582657	0.000895	20.830916
99.032568	-3.020800	3.854900	-11.644000	21.593061	0.000896	20.827102
100.028980	-3.009100	3.855200	-11.600000	21.605607	0.000895	20.829699
101.028346	-2.979100	3.857400	-11.488000	21.599769	0.000894	20.819116
102.030166	-2.993000	3.855600	-11.538000	21.621292	0.000894	20.815998
103.031782	-2.973500	3.855400	-11.462000	21.605656	0.000896	20.819792
104.030219	-2.980100	3.857600	-11.494000	21.601396	0.000895	20.816951
105.031836	-2.977300	3.854800	-11.476000	21.598425	0.000895	20.841478
106.032596	-3.019500	3.854700	-11.639000	21.597753	0.000897	20.805720
107.032441	-2.985700	3.855600	-11.510000	21.616056	0.000897	20.815974
108.032341	-3.002200	3.854100	-11.569000	21.619174	0.000897	20.820517
109.031123	-2.996100	3.853100	-11.543000	21.625783	0.000900	20.806268
110.032215	-2.986900	3.853400	-11.509000	21.635952	0.000899	20.814073
111.033495	-2.993300	3.855100	-11.537000	21.663061	0.000900	20.832194
112.034108	-3.007700	3.853200	-11.589000	21.639944	0.000900	20.792464
113.036486	-3.009100	3.851700	-11.589000	21.628573	0.000899	20.819965
114.033506	-2.989900	3.852100	-11.516000	21.656227	0.000899	20.820612
115.032080	-2.993600	3.853200	-11.534000	21.670593	0.000898	20.834041
116.033389	-3.016300	3.852300	-11.618000	21.689194	0.000899	20.819940
117.033523	-2.989800	3.853300	-11.520000	21.686051	0.000900	20.827700
118.034926	-2.997500	3.851200	-11.543000	21.708644	0.000899	20.838456
119.032940	-2.990800	3.852500	-11.521000	21.704677	0.000901	20.826426
120.038358	-2.980800	3.851800	-11.480000	21.717119	0.000901	20.817067
121.035740	-3.007200	3.850400	-11.577000	21.713353	0.000901	20.809505
122.035047	-2.985700	3.851200	-11.497000	21.750060	0.000900	20.822534
123.037795	-3.021500	3.850500	-11.633000	21.759535	0.000898	20.800723
124.036743	-3.006900	3.851200	-11.578000	21.750530	0.000902	20.825849
125.038305	-3.000100	3.849300	-11.547000	21.755543	0.000900	20.817590
126.040308	-2.978200	3.851000	-11.468000	21.746591	0.000900	20.818588
127.039517	-3.005700	3.848600	-11.566000	21.766514	0.000901	20.824303
128.036586	-3.012900	3.848900	-11.595000	21.769855	0.000902	20.808681
129.039904	-3.005200	3.848600	-11.565000	21.779557	0.000899	20.809855
130.042047	-2.992300	3.849000	-11.516000	21.786090	0.000901	20.796006
131.039625	-3.010700	3.848200	-11.585000	21.789802	0.000901	20.828644
132.045507	-2.988400	3.849200	-11.502000	21.797138	0.000902	20.791891
133.043921	-2.984200	3.849900	-11.487000	21.803417	0.000902	20.816667
134.040650	-2.983800	3.851000	-11.489000	21.814886	0.000902	20.836206
135.044475	-3.006100	3.848700	-11.569000	21.814136	0.000904	20.800369
136.047118	-3.012400	3.848600	-11.591000	21.819672	0.000903	20.820608
137.041033	-2.995800	3.847600	-11.526000	21.847445	0.000903	20.791034
138.044971	-3.024400	3.847500	-11.636000	21.823713	0.000903	20.821808
139.045616	-3.003700	3.847000	-11.554000	21.847573	0.000902	20.802541
140.042337	-3.011400	3.846700	-11.583000	21.862608	0.000901	20.799573
141.044363	-3.005400	3.846000	-11.559000	21.860964	0.000904	20.806462
142.047347	-2.999900	3.848000	-11.543000	21.882084	0.000906	20.802945
143.041669	-2.987400	3.847300	-11.493000	21.894499	0.000904	20.811105
144.045446	-2.995900	3.846800	-11.524000	21.865458	0.000906	20.794365
145.047894	-3.001400	3.845600	-11.541000	21.886404	0.000906	20.804899
146.043110	-3.000200	3.846400	-11.539000	21.901538	0.000907	20.806297
147.045453	-2.977000	3.847000	-11.452000	21.911712	0.000905	20.795618
148.044999	-3.004800	3.845200	-11.553000	21.914526	0.000906	20.805546
149.044076	-3.013800	3.845000	-11.586000	21.892414	0.000908	20.785310
150.043447	-3.004200	3.845200	-11.551000	21.916477	0.000908	20.781422
151.045559	-3.025900	3.843100	-11.627000	21.922261	0.000907	20.785314
152.043066	-3.015400	3.844000	-11.590000	21.894758	0.000908	20.800932
153.046923	-3.001900	3.843400	-11.536000	21.922487	0.000909	20.785066
154.046511	-2.988500	3.844400	-11.488000	21.920197	0.000908	20.812171
155.045383	-2.977500	3.845600	-11.449000	21.914838	0.000908	20.789263
156.049175	-3.007800	3.845800	-11.566000	21.923912	0.000911	20.824425
157.045494	-3.010100	3.842400	-11.564000	21.929794	0.000908	20.791906
158.046277	-3.006500	3.842800	-11.551000	21.931071	0.000909	20.789391
159.049153	-3.007200	3.842500	-11.554000	21.934114	0.000912	20.787696
160.046477	-3.003700	3.842000	-11.539000	21.950669	0.000911	20.795732
161.046257	-3.010800	3.841700	-11.565000	21.950199	0.000911	20.794788
162.051495	-2.974500	3.844000	-11.432000	21.950096	0.000910	20.784253
163.049195	-3.006900	3.841700	-11.551000	21.973310	0.000912	20.784731
164.049183	-2.999700	3.842300	-11.525000	21.995000	0.000910	20.790322
165.048308	-3.008900	3.840400	-11.555000	21.982639	0.000912	20.808769
166.049676	-3.012900	3.841600	-11.574000	22.026417	0.000912	20.781470
167.049539	-2.993500	3.842800	-11.502000	22.026792	0.000911	20.774258
168.047930	-2.983900	3.841900	-11.463000	22.040577	0.000913	20.777627
169.052422	-2.992500	3.841600	-11.494000	22.032129	0.000912	20.773912
170.047521	-2.973300	3.841900	-11.422000	22.039337	0.000911	20.787765
171.049501	-3.010400	3.840900	-11.562000	22.040860	0.000914	20.794506
172.050260	-3.012400	3.841300	-11.570000	22.030419	0.000913	20.774571
173.050378	-3.007900	3.840600	-11.551000	22.055399	0.000915	20.789146
174.050540	-2.999600	3.839800	-11.515000	22.058916	0.000913	20.765166
175.049628	-2.999500	3.840100	-11.517000	22.041519	0.000913	20.780941
176.053886	-2.999200	3.838200	-11.509000	22.052816	0.000915	20.763801
177.049891	-2.986500	3.840000	-11.467000	22.046362	0.000913	20.771564
178.051163	-2.987800	3.839800	-11.471000	22.068199	0.000914	20.764501
179.049962	-2.989900	3.839200	-11.478000	22.082835	0.000917	20.767775
180.051974	-3.001100	3.839300	-11.521000	22.072593	0.000915	20.782651
181.054471	-3.003300	3.839000	-11.529000	22.108616	0.000918	20.768455
182.051550	-3.030600	3.837800	-11.629000	22.119839	0.000917	20.767362
183.052709	-2.993500	3.837400	-11.486000	22.128590	0.000917	20.776124
184.057823	-3.023800	3.837300	-11.602000	22.151199	0.000919	20.776948
185.053423	-2.974700	3.837900	-11.415000	22.123586	0.000918	20.759734
186.053877	-2.970300	3.837800	-11.398000	22.135006	0.000920	20.760261
187.056796	-2.997300	3.837000	-11.499000	22.128602	0.000920	20.768075
188.052310	-2.974000	3.838600	-11.415000	22.119134	0.000921	20.758121
189.056932	-2.984000	3.837100	-11.449000	22.128186	0.000922	20.768606
190.062171	-3.011400	3.836200	-11.551000	22.103307	0.000921	20.763613
191.054029	-2.990900	3.836300	-11.472000	22.110695	0.000924	20.745405
192.055281	-3.005700	3.835800	-11.528000	22.122214	0.000923	20.761205
193.058496	-3.001300	3.836200	-11.511000	22.146890	0.000922	20.760780
194.053615	-3.009900	3.833900	-11.538000	22.150860	0.000923	20.765229
195.055457	-3.011900	3.836400	-11.554000	22.179527	0.000923	20.757419
196.058143	-3.014800	3.834800	-11.560000	22.167563	0.000923	20.757770
197.055548	-3.007900	3.834400	-11.531000	22.157074	0.000926	20.755803
198.055664	-3.014100	3.833900	-11.554000	22.168440	0.000924	20.764338
199.059253	-3.009700	3.835400	-11.542000	22.179308	0.000926	20.745821
200.055807	-3.001700	3.833700	-11.507000	22.196085	0.000928	20.758825
201.057876	-2.986100	3.834700	-11.450000	22.187861	0.000927	20.751539
202.058825	-2.995200	3.833500	-11.480000	22.211141	0.000929	20.761097
203.055586	-2.982200	3.833900	-11.432000	22.204391	0.000929	20.763822
204.055482	-2.977000	3.834000	-11.413000	22.208480	0.000928	20.749424
205.055299	-2.982400	3.834700	-11.436000	22.243672	0.000929	20.733925
206.055395	-3.003800	3.833800	-11.515000	22.230515	0.000930	20.743037
207.057223	-3.001500	3.832300	-11.500000	22.234378	0.000930	20.750224
208.062004	-3.010500	3.833200	-11.537000	22.246015	0.000929	20.759031
209.057549	-3.013600	3.832900	-11.549000	22.273831	0.000930	20.744682
210.057182	-3.005300	3.832500	-11.517000	22.260123	0.000932	20.747552
211.058175	-2.996700	3.831300	-11.479000	22.267354	0.000933	20.749102
212.059597	-2.993400	3.832200	-11.469000	22.270442	0.000932	20.753617
213.059086	-2.980000	3.831900	-11.417000	22.280914	0.000931	20.754619
214.066016	-2.991300	3.832500	-11.463000	22.305534	0.000932	20.747503
215.058021	-2.982600	3.832900	-11.430000	22.304212	0.000932	20.768465
216.059391	-3.002800	3.830600	-11.501000	22.293674	0.000933	20.737524
217.061787	-2.993400	3.832300	-11.471000	22.280490	0.000937	20.758936
218.059720	-3.013400	3.830400	-11.541000	22.297586	0.000933	20.747131
219.059964	-3.005600	3.829500	-11.509000	22.279019	0.000934	20.745136
220.065617	-2.996700	3.829800	-11.475000	22.331009	0.000935	20.747408
221.060956	-2.996300	3.829700	-11.472000	22.310722	0.000935	20.750327
222.067370	-2.995800	3.828900	-11.469000	22.339487	0.000934	20.738353
223.065750	-3.021600	3.827800	-11.565000	22.341332	0.000939	20.729294
224.063313	-3.011500	3.828500	-11.528000	22.335826	0.000936	20.742748
225.059557	-2.993800	3.828800	-11.461000	22.373329	0.000937	20.751852
226.064723	-3.002200	3.828500	-11.492000	22.386315	0.000937	20.745890
227.063756	-3.003900	3.827200	-11.495000	22.409022	0.000937	20.742550
228.061237	-3.006000	3.828800	-11.508000	22.380011	0.000939	20.741474
229.066837	-3.014000	3.827500	-11.534000	22.380163	0.000938	20.736885
230.062671	-3.013500	3.828000	-11.534000	22.394771	0.000939	20.722115
231.062128	-2.987100	3.829500	-11.438000	22.409573	0.000940	20.740732
232.065268	-2.994100	3.827000	-11.458000	22.415852	0.000941	20.734691
233.071093	-3.001100	3.826200	-11.482000	22.410248	0.000940	20.745201
234.065236	-3.007600	3.827400	-11.510000	22.414810	0.000941	20.738864
235.068837	-2.991600	3.826600	-11.447000	22.410578	0.000939	20.740315
236.068286	-3.009700	3.825600	-11.512000	22.390296	0.000941	20.738022
237.065227	-2.998400	3.827400	-11.475000	22.389773	0.000941	20.720428
238.067836	-2.977400	3.828000	-11.396000	22.381748	0.000942	20.722350
239.067389	-3.012900	3.825200	-11.524000	22.408469	0.000942	20.730143
240.067806	-2.993700	3.825700	-11.452000	22.406695	0.000944	20.735953
241.066655	-2.992000	3.824700	-11.442000	22.427582	0.000944	20.723203
242.067626	-2.992600	3.825200	-11.445000	22.384375	0.000944	20.735412
243.068830	-2.986300	3.824400	-11.419000	22.396163	0.000946	20.734414
244.069574	-3.006300	3.825100	-11.497000	22.427561	0.000946	20.750211
245.071083	-3.017100	3.823100	-11.534000	22.425795	0.000946	20.751761
246.070260	-2.992600	3.823500	-11.441000	22.441691	0.000945	20.738282
247.069097	-2.981600	3.824000	-11.400000	22.457818	0.000947	20.712231
248.070585	-3.006400	3.822900	-11.492000	22.458044	0.000947	20.729054
249.071253	-3.005500	3.822300	-11.486000	22.454285	0.000948	20.712012
250.069978	-2.982600	3.822700	-11.401000	22.461663	0.000948	20.710392
251.070693	-2.998900	3.823900	-11.466000	22.477860	0.000948	20.738467
252.071351	-3.014300	3.822100	-11.518000	22.465455	0.000950	20.734105
253.075391	-3.001400	3.823100	-11.474000	22.495135	0.000950	20.751027
254.073883	-3.001600	3.820300	-11.466000	22.494315	0.000952	20.724126
255.075604	-2.985600	3.823000	-11.413000	22.482977	0.000951	20.719409
256.074920	-2.980500	3.822200	-11.391000	22.513080	0.000950	20.724427
257.074004	-2.997300	3.820900	-11.451000	22.503735	0.000952	20.729293
258.075082	-3.000900	3.821700	-11.468000	22.511335	0.000953	20.721257
259.076187	-3.012000	3.821000	-11.508000	22.514723	0.000955	20.730340
260.076240	-2.991700	3.821600	-11.432000	22.508222	0.000956	20.739952
261.078084	-2.986000	3.820500	-11.406000	22.546768	0.000956	20.723079
262.079909	-3.003200	3.821500	-11.476000	22.562218	0.000957	20.718164
263.078730	-3.001800	3.819800	-11.466000	22.550506	0.000958	20.731565
264.079871	-3.002700	3.819200	-11.467000	22.582897	0.000958	20.713270
265.080385	-3.010800	3.818300	-11.495000	22.606987	0.000959	20.708948
266.086034	-3.005200	3.819900	-11.477000	22.581122	0.000960	20.728563
267.080246	-2.988500	3.819400	-11.413000	22.594234	0.000958	20.741222
268.080707	-2.988000	3.818700	-11.409000	22.568488	0.000959	20.741040
269.082963	-3.009500	3.817000	-11.486000	22.583560	0.000962	20.726262
270.081548	-2.999000	3.818600	-11.452000	22.576952	0.000961	20.748569
271.082852	-3.006300	3.817800	-11.476000	22.585523	0.000961	20.742455
272.084831	-3.025300	3.815900	-11.542000	22.594242	0.000964	20.729850
273.081862	-2.990100	3.819000	-11.417000	22.582156	0.000962	20.733392
274.082103	-3.006500	3.816500	-11.473000	22.568443	0.000963	20.730563
275.083078	-3.004400	3.817200	-11.466000	22.580876	0.000964	20.731635
276.083928	-2.993300	3.816700	-11.424000	22.596671	0.000964	20.735128
277.083266	-3.004500	3.817900	-11.469000	22.611792	0.000965	20.750273
278.083983	-2.969000	3.817500	-11.332000	22.616698	0.000965	20.741437
279.082932	-2.986900	3.816800	-11.399000	22.635330	0.000965	20.747770
280.080714	-2.993100	3.816900	-11.423000	22.614871	0.000964	20.728700
281.084081	-2.990900	3.816200	-11.412000	22.629423	0.000967	20.750388
282.082564	-2.987300	3.815800	-11.398000	22.607218	0.000967	20.773668
283.084160	-2.978000	3.816600	-11.364000	22.598759	0.000969	20.729632
284.084778	-3.008800	3.815100	-11.477000	22.616728	0.000967	20.733405
285.083591	-3.017200	3.815500	-11.512000	22.618366	0.000968	20.752117
286.083930	-2.998600	3.815100	-11.439000	22.625566	0.000967	20.740835
287.085001	-2.998000	3.815300	-11.437000	22.629576	0.000969	20.725410
288.087165	-3.001400	3.813700	-11.446000	22.649108	0.000969	20.749243
289.085546	-2.999800	3.813900	-11.440000	22.663528	0.000968	20.735710
290.085881	-2.982000	3.815200	-11.376000	22.693503	0.000968	20.750562
291.085689	-2.999600	3.813700	-11.439000	22.715821	0.000969	20.751107
292.086372	-3.008100	3.813900	-11.471000	22.739513	0.000969	20.735958
293.086441	-2.997600	3.812800	-11.429000	22.719258	0.000968	20.766404
294.088410	-3.025400	3.811500	-11.530000	22.758299	0.000970	20.744345
295.088293	-3.011200	3.811000	-11.475000	22.756727	0.000970	20.751305
296.088954	-2.998600	3.811700	-11.429000	22.755982	0.000970	20.741549
297.092538	-3.018300	3.811900	-11.504000	22.772022	0.000970	20.749556
298.090700	-2.979100	3.812500	-11.357000	22.781311	0.000972	20.751276
299.093175	-2.982600	3.812100	-11.368000	22.790778	0.000973	20.763130
300.090155	-2.999800	3.812300	-11.435000	22.763152	0.000976	20.766750
301.092223	-3.008500	3.811900	-11.465000	22.788560	0.000974	20.749528
302.095432	-3.008400	3.811800	-11.467000	22.802813	0.000974	20.762384
303.093185	-3.006700	3.811000	-11.456000	22.790305	0.000973	20.740370
304.091471	-3.002400	3.810300	-11.439000	22.812876	0.000973	20.736902
305.097952	-2.997700	3.811000	-11.423000	22.795215	0.000975	20.746237
306.093551	-2.984100	3.810100	-11.369000	22.824483	0.000976	20.768919
307.093486	-2.989600	3.808500	-11.384000	22.804406	0.000977	20.762083
308.095050	-2.978200	3.809900	-11.346000	22.809287	0.000977	20.746110
309.093834	-3.001800	3.810300	-11.435000	22.792873	0.000978	20.758590
310.094569	-3.007900	3.808600	-11.455000	22.803385	0.000981	20.752999
311.096036	-3.019200	3.807300	-11.494000	22.831907	0.000980	20.750278
312.095183	-2.974500	3.810400	-11.333000	22.848469	0.000980	20.774931
313.095859	-2.998600	3.808100	-11.418000	22.865413	0.000982	20.748757
314.097294	-3.014300	3.807400	-11.475000	22.871908	0.000981	20.762850
315.095730	-3.016100	3.806900	-11.481000	22.873476	0.000982	20.772008
316.098491	-2.990400	3.809000	-11.389000	22.853770	0.000982	20.771707
317.101285	-3.014800	3.806600	-11.473000	22.865446	0.000984	20.762541
318.097768	-2.991200	3.807100	-11.384000	22.844695	0.000984	20.763564
319.097601	-2.992200	3.806900	-11.389000	22.873665	0.000982	20.780258
320.097579	-2.993900	3.805700	-11.392000	22.871171	0.000986	20.761164
321.102513	-3.003400	3.805900	-11.430000	22.875777	0.000984	20.753450
322.098616	-2.999400	3.805200	-11.412000	22.912413	0.000985	20.781145
323.104366	-2.974900	3.806700	-11.323000	22.926558	0.000986	20.753116
324.101144	-3.012700	3.805900	-11.464000	22.922620	0.000986	20.784259
325.101289	-3.004300	3.805400	-11.432000	22.945333	0.000987	20.767185
326.104148	-2.990700	3.804600	-11.378000	22.933748	0.000986	20.760320
327.101198	-2.997500	3.804300	-11.402000	22.977580	0.000986	20.768200
328.102005	-3.015600	3.804900	-11.472000	22.939193	0.000986	20.774784
329.103570	-2.991400	3.803600	-11.377000	22.952148	0.000987	20.775910
330.100800	-3.003200	3.804100	-11.424000	22.957774	0.000988	20.781546
331.099868	-3.020000	3.803000	-11.482000	22.981881	0.000990	20.792898
332.105447	-2.986000	3.802600	-11.354000	22.979264	0.000988	20.764671
333.101603	-2.993500	3.804100	-11.386000	22.995379	0.000988	20.780343
334.101974	-2.977500	3.803000	-11.323000	23.007580	0.000990	20.774076
335.106691	-2.995400	3.803800	-11.393000	23.032834	0.000989	20.773301
336.104708	-2.995300	3.802700	-11.389000	23.042768	0.000990	20.783728
337.103638	-2.983300	3.803100	-11.345000	23.029419	0.000990	20.790268
338.106579	-2.992000	3.801400	-11.373000	23.026576	0.000990	20.786470
339.106046	-2.992500	3.802400	-11.377000	23.017531	0.000990	20.809651
340.105641	-2.995500	3.800900	-11.385000	23.014593	0.000990	20.770671
341.108447	-2.980300	3.803400	-11.333000	22.999400	0.000992	20.775363
342.105470	-2.996500	3.802000	-11.392000	22.977108	0.000991	20.796176
343.106537	-3.011300	3.799700	-11.440000	22.970709	0.000991	20.780756
344.112218	-2.997100	3.800800	-11.391000	22.958676	0.000990	20.771071
345.108938	-3.010700	3.798700	-11.435000	22.979499	0.000992	20.788615
346.107091	-2.980100	3.800200	-11.324000	22.977857	0.000993	20.777960
347.112404	-3.008100	3.798200	-11.424000	22.988046	0.000992	20.801445
348.107677	-2.978700	3.799900	-11.316000	22.986051	0.000992	20.802291
349.108516	-2.983900	3.799100	-11.336000	23.000198	0.000993	20.782327
350.116222	-3.000900	3.797600	-11.395000	22.990635	0.000995	20.786495
351.108050	-2.994100	3.798300	-11.371000	23.003144	0.000994	20.800451
352.109502	-2.988700	3.799400	-11.354000	23.004959	0.000993	20.794683
353.108127	-2.997900	3.798300	-11.386000	23.007729	0.000996	20.797932
354.109118	-2.996300	3.798900	-11.382000	23.001128	0.000996	20.789896
355.107761	-2.986100	3.798400	-11.342000	22.994478	0.000994	20.782285
356.112586	-2.986600	3.798800	-11.345000	23.007033	0.000994	20.781114
357.109174	-2.988900	3.797200	-11.349000	23.015749	0.000994	20.785579
358.109658	-3.021800	3.796700	-11.471000	23.066613	0.000996	20.799086
359.113958	-2.990000	3.796000	-11.350000	23.064593	0.000996	20.815080
360.113998	-2.980000	3.796200	-11.312000	23.077003	0.000997	20.808074
361.112477	-3.006000	3.795400	-11.407000	23.119990	0.000997	20.790456
362.114540	-3.008500	3.794200	-11.414000	23.131272	0.000996	20.781373
363.112881	-3.016700	3.793000	-11.441000	23.151323	0.000998	20.812370
364.109667	-3.001900	3.794000	-11.388000	23.127367	0.001001	20.792633
365.114699	-2.993500	3.795000	-11.358000	23.139296	0.000999	20.793680
366.112659	-2.998300	3.795300	-11.379000	23.168459	0.001000	20.796826
367.111602	-2.991400	3.795100	-11.351000	23.152923	0.000999	20.805439
368.111709	-3.001800	3.793600	-11.385000	23.172471	0.001001	20.818390
369.111270	-3.011200	3.793000	-11.421000	23.161316	0.001001	20.796307
370.110348	-3.000100	3.793900	-11.380000	23.168591	0.001003	20.784630
371.113091	-2.999600	3.792300	-11.374000	23.187793	0.001001	20.802924
372.112541	-2.991400	3.792500	-11.343000	23.215631	0.001003	20.804268
373.115122	-3.007200	3.792100	-11.402000	23.223921	0.001003	20.806412
374.112701	-3.000100	3.791800	-11.374000	23.225147	0.001003	20.798632
375.113846	-3.009900	3.791700	-11.411000	23.217700	0.001003	20.805394
376.115900	-2.972700	3.792300	-11.271000	23.230528	0.001004	20.821094
377.116988	-2.976600	3.791700	-11.286000	23.220469	0.001004	20.800108
378.114566	-2.999300	3.790200	-11.367000	23.226937	0.001005	20.818443
379.114298	-3.001600	3.791400	-11.378000	23.233268	0.001005	20.829055
380.115230	-2.995000	3.792100	-11.355000	23.230656	0.001005	20.806523
381.113925	-3.001200	3.789700	-11.373000	23.218280	0.001007	20.802656
382.116079	-3.015000	3.789300	-11.424000	23.208344	0.001007	20.816406
383.122828	-2.998400	3.789100	-11.360000	23.203913	0.001005	20.810069
384.117994	-3.012300	3.788800	-11.412000	23.204262	0.001007	20.809945
385.118411	-3.011200	3.789700	-11.411000	23.220424	0.001008	20.802433
386.121772	-3.028500	3.789000	-11.474000	23.204888	0.001007	20.808675
387.119690	-3.017900	3.788100	-11.430000	23.220251	0.001007	20.820751
388.118235	-3.003100	3.787300	-11.373000	23.230088	0.001007	20.808325
389.119966	-3.015700	3.787300	-11.420000	23.254193	0.001006	20.825369
390.120603	-3.005300	3.787900	-11.382000	23.265799	0.001009	20.813767
391.121392	-2.985900	3.788800	-11.312000	23.273422	0.001008	20.818088
392.122090	-2.972700	3.788600	-11.262000	23.297128	0.001009	20.818137
393.120842	-2.989700	3.786700	-11.321000	23.286616	0.001008	20.805232
394.121267	-2.996000	3.785800	-11.341000	23.291323	0.001010	20.819906
395.125215	-3.008300	3.786300	-11.388000	23.293396	0.001010	20.821510
396.122467	-2.996400	3.785200	-11.340000	23.306837	0.001011	20.822652
397.123967	-3.007000	3.786300	-11.383000	23.304278	0.001012	20.828622
398.125989	-3.009400	3.786200	-11.394000	23.304475	0.001010	20.826923
399.124453	-2.991700	3.784800	-11.322000	23.317204	0.001010	20.827352
400.125227	-2.998600	3.784900	-11.348000	23.312469	0.001011	20.823555
401.126406	-2.987500	3.786500	-11.311000	23.325715	0.001012	20.843943
402.125510	-3.005200	3.784100	-11.369000	23.344939	0.001011	20.843769
403.126115	-3.001800	3.784200	-11.358000	23.332042	0.001013	20.825154
404.126166	-2.985800	3.785700	-11.302000	23.328752	0.001015	20.808580
405.125737	-2.977300	3.785000	-11.268000	23.342825	0.001012	20.808934
406.125887	-2.976300	3.785600	-11.266000	23.351415	0.001013	20.845518
407.127227	-2.976900	3.783600	-11.262000	23.400582	0.001013	20.824623
408.127107	-2.981100	3.783500	-11.278000	23.372325	0.001013	20.819535
409.128941	-2.986400	3.782700	-11.294000	23.377257	0.001016	20.832064
410.128808	-2.992400	3.782200	-11.317000	23.386419	0.001014	20.845988
411.126422	-2.980600	3.783100	-11.275000	23.390627	0.001014	20.822231
412.127468	-2.978600	3.782800	-11.267000	23.420631	0.001014	20.831916
413.127493	-2.993000	3.781000	-11.316000	23.430862	0.001014	20.826523
414.127308	-2.983500	3.781300	-11.281000	23.459845	0.001016	20.844194
415.126660	-2.999100	3.780200	-11.337000	23.426485	0.001015	20.838257
416.129101	-2.994400	3.780800	-11.320000	23.434922	0.001016	20.840549
417.126942	-2.995700	3.780200	-11.323000	23.462108	0.001016	20.819436
418.129463	-2.989800	3.780300	-11.302000	23.428649	0.001017	20.822883
419.132063	-3.007300	3.780100	-11.366000	23.427855	0.001018	20.835363
420.127954	-3.003000	3.779900	-11.350000	23.430940	0.001016	20.856946
421.128509	-2.980700	3.779300	-11.264000	23.453745	0.001017	20.836657
422.130960	-2.991500	3.779800	-11.307000	23.466443	0.001017	20.820462
423.128823	-2.992400	3.779200	-11.308000	23.459125	0.001015	20.832567
424.127802	-2.987400	3.778600	-11.288000	23.464699	0.001018	20.840999
425.129339	-3.018400	3.776400	-11.397000	23.451779	0.001018	20.840376
426.129098	-3.003500	3.777900	-11.346000	23.461614	0.001018	20.848812
427.128879	-2.980600	3.777600	-11.260000	23.475184	0.001019	20.852930
428.131255	-3.014500	3.776100	-11.382000	23.461935	0.001018	20.851504
429.129551	-2.998400	3.777300	-11.325000	23.464354	0.001019	20.856773
430.131207	-2.989200	3.776500	-11.288000	23.476550	0.001020	20.850032
431.130410	-2.981900	3.777600	-11.262000	23.480412	0.001020	20.851533
432.129825	-2.990900	3.775700	-11.292000	23.501077	0.001021	20.849014
433.129326	-2.990100	3.775300	-11.287000	23.507971	0.001022	20.845493
434.135579	-3.015400	3.775900	-11.384000	23.521318	0.001022	20.846070
435.132722	-3.006600	3.775700	-11.351000	23.540136	0.001023	20.842174
436.130117	-3.007000	3.774300	-11.347000	23.549625	0.001023	20.842677
437.131879	-3.006800	3.773900	-11.347000	23.534411	0.001023	20.843073
438.129375	-2.978200	3.775100	-11.241000	23.508773	0.001021	20.864788
439.134816	-3.011100	3.773600	-11.362000	23.498437	0.001022	20.858220
440.132332	-3.008200	3.773100	-11.349000	23.499510	0.001022	20.839382
441.130780	-3.003900	3.774000	-11.335000	23.481358	0.001026	20.861964
442.132225	-3.008000	3.773900	-11.351000	23.516687	0.001024	20.867031
443.134011	-3.003200	3.773400	-11.331000	23.525123	0.001024	20.854625
444.131414	-2.996600	3.773000	-11.305000	23.544891	0.001024	20.848362
445.132026	-2.998300	3.772500	-11.310000	23.529282	0.001025	20.859267
446.139709	-3.021300	3.772300	-11.396000	23.578840	0.001025	20.866272
447.131807	-2.998800	3.771600	-11.309000	23.584668	0.001025	20.866899
448.132360	-2.992900	3.772000	-11.287000	23.611600	0.001026	20.844112
449.134867	-3.010600	3.771200	-11.353000	23.607199	0.001026	20.868148
450.134425	-3.001800	3.770800	-11.318000	23.632785	0.001025	20.844961
451.132743	-2.998800	3.770900	-11.307000	23.620290	0.001025	20.879849
452.134648	-3.014900	3.770500	-11.366000	23.648791	0.001028	20.861956
453.133076	-3.006500	3.769400	-11.332000	23.658843	0.001026	20.858282
454.135505	-3.010100	3.770600	-11.349000	23.661014	0.001026	20.849080
455.133366	-3.016000	3.769000	-11.366000	23.648389	0.001027	20.855862
456.133148	-2.997600	3.769000	-11.296000	23.650284	0.001027	20.872935
457.135358	-2.994500	3.769600	-11.288000	23.603534	0.001028	20.881069
458.136353	-3.009400	3.767300	-11.336000	23.615062	0.001026	20.876505
459.133976	-2.999100	3.769300	-11.304000	23.596859	0.001029	20.883860
460.134459	-2.983100	3.770600	-11.247000	23.623576	0.001027	20.879350
461.138199	-2.997900	3.767000	-11.292000	23.618250	0.001027	20.861683
462.134948	-3.008900	3.767100	-11.334000	23.613100	0.001027	20.881176
463.134527	-2.990000	3.766400	-11.261000	23.635976	0.001028	20.867126
464.138235	-2.995400	3.767200	-11.283000	23.612253	0.001025	20.871318
465.132787	-3.003100	3.765600	-11.307000	23.656786	0.001025	20.874237
466.135104	-3.016700	3.766000	-11.360000	23.679167	0.001028	20.868226
467.139408	-3.002800	3.766600	-11.308000	23.696543	0.001027	20.870947
468.137745	-3.017400	3.765100	-11.360000	23.694079	0.001028	20.881753
469.136575	-2.987000	3.766100	-11.248000	23.690941	0.001026	20.850160
470.143318	-3.004500	3.764800	-11.311000	23.679451	0.001029	20.882260
471.138077	-2.979700	3.765900	-11.221000	23.688461	0.001029	20.889396
472.139429	-2.993700	3.764600	-11.267000	23.690353	0.001026	20.888922
473.143126	-2.975700	3.764800	-11.201000	23.703102	0.001027	20.876574
474.138454	-2.993500	3.763100	-11.264000	23.738173	0.001027	20.862425
475.138229	-3.006300	3.762600	-11.310000	23.714135	0.001027	20.876257
476.154768	-3.013000	3.764700	-11.342000	23.723767	0.001028	20.877378
477.138293	-2.986100	3.762400	-11.234000	23.730935	0.001028	20.885987
478.140426	-3.000200	3.762900	-11.289000	23.743313	0.001031	20.884646
479.140334	-2.987800	3.762600	-11.241000	23.753540	0.001030	20.875461
480.139767	-3.000100	3.761100	-11.282000	23.762653	0.001031	20.880804
481.140611	-2.999700	3.762300	-11.285000	23.765021	0.001029	20.870851
482.141431	-3.006400	3.762000	-11.309000	23.774808	0.001029	20.891094
483.140440	-3.031200	3.760600	-11.398000	23.740158	0.001031	20.881958
484.142619	-3.001700	3.761300	-11.290000	23.717635	0.001031	20.864119
485.145275	-2.987400	3.762000	-11.238000	23.728265	0.001032	20.870035
486.146570	-2.997300	3.760100	-11.268000	23.701958	0.001031	20.846032
487.143067	-2.989800	3.758800	-11.237000	23.703450	0.001032	20.863174
488.145209	-3.007500	3.758300	-11.302000	23.736408	0.001033	20.858759
489.145798	-3.003300	3.758600	-11.288000	23.738525	0.001032	20.878425
490.146624	-3.025200	3.757300	-11.365000	23.760777	0.001033	20.853321
491.149729	-2.994500	3.758900	-11.255000	23.770260	0.001034	20.859983
492.147944	-2.997800	3.758600	-11.267000	23.765774	0.001034	20.873502
493.149329	-3.016600	3.757400	-11.334000	23.762471	0.001033	20.853123
494.150152	-3.016400	3.757700	-11.334000	23.786310	0.001034	20.852368
495.148922	-3.019400	3.755700	-11.338000	23.785241	0.001036	20.870736
496.148361	-3.029300	3.756000	-11.377000	23.748153	0.001034	20.861999
497.149880	-2.996600	3.757800	-11.259000	23.751237	0.001034	20.861299
498.152296	-3.020800	3.755900	-11.345000	23.753918	0.001035	20.865409
499.148279	-3.012000	3.757300	-11.315000	23.774755	0.001036	20.841732
500.153072	-2.999700	3.755600	-11.265000	23.769673	0.001036	20.869351
501.149063	-2.994000	3.756200	-11.244000	23.772584	0.001036	20.851882
502.151460	-2.993900	3.755700	-11.242000	23.773793	0.001038	20.859733
503.154870	-2.996300	3.753700	-11.246000	23.769286	0.001035	20.844783
504.150210	-3.002300	3.753100	-11.267000	23.794026	0.001036	20.843035
505.150799	-2.986700	3.755300	-11.215000	23.751061	0.001038	20.854010
506.150890	-3.008500	3.754300	-11.293000	23.779189	0.001036	20.857082
507.150235	-2.974000	3.754300	-11.165000	23.762650	0.001039	20.852827
508.150619	-2.987700	3.753900	-11.212000	23.779749	0.001037	20.840574
509.153527	-3.008800	3.752400	-11.288000	23.801025	0.001036	20.849579
510.151120	-2.982900	3.754000	-11.197000	23.819785	0.001038	20.864595
511.150886	-2.997800	3.752700	-11.249000	23.799076	0.001037	20.867064
512.154538	-2.998600	3.752700	-11.251000	23.774251	0.001038	20.854976
513.151401	-2.979300	3.753000	-11.181000	23.784503	0.001038	20.824479
514.151092	-3.010500	3.751100	-11.292000	23.795549	0.001036	20.839821
515.152436	-3.009700	3.751200	-11.290000	23.788229	0.001036	20.845758
516.150227	-2.986100	3.752500	-11.204000	23.810127	0.001036	20.855385
517.151595	-2.998500	3.750400	-11.244000	23.794863	0.001037	20.866633
518.152942	-3.014700	3.750300	-11.305000	23.803248	0.001036	20.864609
519.151630	-2.975100	3.749800	-11.155000	23.783033	0.001036	20.838177
520.150715	-3.029500	3.748200	-11.354000	23.821506	0.001036	20.852571
521.156124	-3.022000	3.749200	-11.329000	23.829093	0.001037	20.836471
522.153269	-2.982700	3.750300	-11.184000	23.843946	0.001036	20.847096
523.154321	-3.007500	3.749100	-11.273000	23.862532	0.001034	20.845344
524.155874	-2.999200	3.748100	-11.239000	23.872833	0.001036	20.833388
525.153606	-2.995700	3.747500	-11.225000	23.886024	0.001035	20.849933
526.154462	-3.019200	3.746500	-11.310000	23.899313	0.001035	20.840974
527.154721	-2.979500	3.748400	-11.167000	23.885543	0.001035	20.856089
528.154857	-2.981400	3.747600	-11.172000	23.890268	0.001035	20.849447
529.154785	-3.009300	3.747900	-11.276000	23.881460	0.001035	20.840616
530.156193	-3.008800	3.747200	-11.273000	23.859080	0.001034	20.836192
531.153065	-3.004600	3.746600	-11.256000	23.855692	0.001033	20.842278
532.154512	-2.987200	3.745900	-11.189000	23.848923	0.001032	20.844500
533.158010	-3.006300	3.744300	-11.255000	23.854170	0.001034	20.861615
534.157113	-3.003200	3.745500	-11.246000	23.856407	0.001033	20.840625
535.156334	-2.988300	3.744900	-11.190000	23.858768	0.001033	20.845363
536.157938	-2.987400	3.745500	-11.188000	23.857999	0.001035	20.827523
537.155662	-2.985800	3.745300	-11.181000	23.874620	0.001034	20.828067
538.158401	-3.015300	3.744000	-11.288000	23.871161	0.001034	20.819858
539.161976	-2.994200	3.744700	-11.211000	23.903739	0.001033	20.830240
540.158457	-3.010100	3.742600	-11.265000	23.891692	0.001034	20.846134
541.159733	-3.014600	3.743400	-11.283000	23.900125	0.001035	20.839892
542.161382	-3.013100	3.741300	-11.271000	23.895397	0.001032	20.848426
543.160997	-3.004000	3.742100	-11.240000	23.897934	0.001033	20.832953
544.160590	-2.989800	3.742400	-11.188000	23.875985	0.001032	20.840341
545.162298	-2.997600	3.741500	-11.215000	23.885611	0.001034	20.841459
546.160264	-3.001700	3.741400	-11.229000	23.905771	0.001033	20.832277
547.161309	-2.977900	3.742500	-11.143000	23.920203	0.001033	20.840111
548.161446	-3.027100	3.739900	-11.319000	23.876129	0.001033	20.831477
549.161279	-3.006700	3.740100	-11.244000	23.884316	0.001035	20.838738
550.161138	-2.998800	3.741200	-11.218000	23.898481	0.001031	20.826864
551.159533	-2.973200	3.741900	-11.124000	23.884916	0.001034	20.835073
552.163315	-2.976400	3.740200	-11.130000	23.871598	0.001032	20.846374
553.161912	-3.001300	3.740000	-11.223000	23.858531	0.001033	20.835642
554.164316	-3.001400	3.739400	-11.223000	23.873790	0.001033	20.819649
555.164046	-3.015500	3.738800	-11.274000	23.906643	0.001033	20.840263
556.164577	-3.014900	3.738800	-11.272000	23.897207	0.001034	20.832224
557.162867	-2.998200	3.738000	-11.206000	23.914879	0.001034	20.808694
558.164831	-2.989300	3.738000	-11.173000	23.927123	0.001033	20.820972
559.164136	-2.964800	3.739100	-11.084000	23.949396	0.001033	20.823866
560.164953	-2.995700	3.736500	-11.193000	23.969555	0.001033	20.821322
561.165218	-2.996200	3.737000	-11.195000	23.968782	0.001034	20.815806
562.165911	-3.008400	3.737500	-11.243000	23.962088	0.001035	20.816206
563.165742	-3.021500	3.736400	-11.289000	23.980508	0.001033	20.827090
564.165967	-3.029300	3.734700	-11.313000	23.957392	0.001033	20.807704
565.166857	-2.999500	3.736000	-11.205000	23.918270	0.001035	20.825371
566.167390	-2.982500	3.735500	-11.141000	23.952068	0.001032	20.796674
567.168911	-3.004000	3.735400	-11.220000	23.952862	0.001034	20.818807
568.167488	-3.002400	3.735200	-11.214000	23.966553	0.001033	20.813096
569.167583	-3.007300	3.735100	-11.231000	23.982234	0.001031	20.818864
570.168196	-3.011000	3.734000	-11.242000	23.982435	0.001032	20.823333
571.168803	-3.012600	3.734200	-11.248000	24.014660	0.001031	20.816770
572.168511	-2.984800	3.734200	-11.144000	24.015684	0.001032	20.822063
573.169021	-3.004900	3.734100	-11.219000	23.998243	0.001032	20.808366
574.168104	-2.993200	3.733700	-11.175000	23.972489	0.001033	20.799609
575.173316	-2.989300	3.734400	-11.162000	23.962411	0.001034	20.827435
576.169792	-2.990700	3.732300	-11.160000	23.951063	0.001033	20.805150
577.171021	-3.021200	3.731000	-11.270000	23.973167	0.001034	20.806453
578.171334	-3.019400	3.731300	-11.265000	23.973336	0.001031	20.806148
579.174769	-3.002700	3.731100	-11.202000	23.973195	0.001032	20.817387
580.172032	-2.991900	3.732100	-11.166000	23.947938	0.001034	20.811499
581.171207	-3.002100	3.731200	-11.201000	23.961128	0.001034	20.797225
582.171570	-2.984100	3.732200	-11.135000	23.985172	0.001032	20.799525
583.172765	-2.996200	3.732400	-11.181000	23.971238	0.001034	20.816846
584.172503	-3.020700	3.729400	-11.264000	24.007048	0.001035	20.808662
585.171914	-3.008000	3.730700	-11.221000	24.024468	0.001034	20.791518
586.173680	-2.993400	3.729300	-11.162000	24.015965	0.001033	20.803854
587.174907	-3.004600	3.729500	-11.205000	24.038582	0.001033	20.816578
588.178223	-3.007200	3.728700	-11.211000	24.054262	0.001033	20.814285
589.176698	-3.001000	3.728100	-11.187000	24.049855	0.001035	20.780942
590.174688	-3.004600	3.728500	-11.201000	24.032739	0.001033	20.812615
591.177740	-3.019200	3.728300	-11.256000	24.042117	0.001034	20.800209
592.177295	-2.999300	3.728000	-11.180000	24.058044	0.001034	20.801957
593.176404	-3.006800	3.726800	-11.205000	24.065785	0.001033	20.783642
594.177615	-3.015100	3.727400	-11.238000	24.076532	0.001033	20.779247
595.177324	-2.979600	3.727300	-11.105000	24.066830	0.001036	20.795121
596.177222	-2.990300	3.727000	-11.144000	24.069366	0.001033	20.771112
597.176273	-2.980800	3.726600	-11.107000	24.071705	0.001033	20.795270
598.177985	-2.983800	3.726200	-11.117000	24.066032	0.001033	20.789106
599.179624	-3.014500	3.725800	-11.230000	24.073843	0.001032	20.791250
600.179383	-2.989400	3.726500	-11.139000	24.062299	0.001032	20.777775
601.180309	-3.006200	3.724600	-11.196000	24.061452	0.001032	20.793047
602.176466	-2.996100	3.725700	-11.162000	24.081807	0.001032	20.770313
603.178714	-3.016300	3.723600	-11.230000	24.077252	0.001032	20.781866
604.179857	-3.010200	3.724200	-11.209000	24.112088	0.001028	20.790726
605.181127	-2.995500	3.723000	-11.150000	24.137194	0.001031	20.790301
606.194542	-2.994200	3.724000	-11.149000	24.138386	0.001031	20.797187
607.178623	-3.016200	3.722600	-11.227000	24.147348	0.001031	20.800011
608.179355	-3.007600	3.722700	-11.195000	24.150131	0.001031	20.782888
609.181755	-3.023200	3.722600	-11.252000	24.190642	0.001031	20.780847
610.181900	-2.998200	3.722400	-11.160000	24.216342	0.001030	20.790029
611.180233	-2.993400	3.722600	-11.142000	24.231045	0.001030	20.789605
612.183078	-2.949700	3.723800	-10.983000	24.209473	0.001031	20.786459
613.182461	-2.984000	3.722500	-11.107000	24.233984	0.001033	20.762680
614.183427	-3.002700	3.722100	-11.175000	24.240278	0.001032	20.790330
615.184570	-3.008200	3.721000	-11.192000	24.231600	0.001032	20.791109
616.183208	-3.008200	3.719300	-11.187000	24.219034	0.001031	20.782298
617.186040	-2.991200	3.721100	-11.130000	24.185795	0.001030	20.789262
618.186199	-2.975700	3.721200	-11.072000	24.170446	0.001031	20.772444
619.183455	-3.012500	3.718500	-11.201000	24.177713	0.001031	20.781630
620.184491	-2.992200	3.719800	-11.130000	24.179177	0.001031	20.783098
621.191233	-3.019100	3.719100	-11.227000	24.177936	0.001030	20.775214
622.187102	-2.983500	3.719900	-11.096000	24.194830	0.001033	20.768452
623.185275	-3.013600	3.719000	-11.206000	24.217451	0.001031	20.761269
624.187720	-3.008600	3.718500	-11.186000	24.191098	0.001032	20.784623
625.188261	-2.975300	3.718900	-11.064000	24.214265	0.001032	20.779886
626.187143	-2.989500	3.719000	-11.118000	24.192319	0.001031	20.772571
627.190142	-3.007000	3.717200	-11.176000	24.190185	0.001031	20.779914
628.187607	-3.007000	3.716600	-11.174000	24.182223	0.001030	20.771454
629.187750	-2.996300	3.718600	-11.140000	24.169780	0.001030	20.767982
630.189770	-3.023800	3.715600	-11.234000	24.162692	0.001032	20.766089
631.188777	-3.011900	3.715800	-11.189000	24.171695	0.001030	20.773223
632.188210	-3.011000	3.716300	-11.188000	24.168834	0.001029	20.750912
633.192490	-2.969200	3.716700	-11.034000	24.165225	0.001029	20.761991
634.187334	-2.980900	3.716600	-11.078000	24.135442	0.001029	20.771474
635.189551	-2.995000	3.714400	-11.124000	24.152683	0.001029	20.761740
636.192529	-2.994300	3.715400	-11.124000	24.153982	0.001028	20.767310
637.187991	-3.010300	3.714000	-11.180000	24.169159	0.001028	20.747918
638.188149	-3.020700	3.713400	-11.215000	24.188097	0.001028	20.756482
639.190295	-3.002500	3.713200	-11.148000	24.189688	0.001028	20.751914
640.188853	-3.007700	3.711600	-11.162000	24.196182	0.001027	20.772653
641.189133	-3.013400	3.712300	-11.186000	24.175361	0.001028	20.774055
642.192010	-2.968100	3.714300	-11.024000	24.141225	0.001027	20.778223
643.190924	-2.994100	3.713500	-11.117000	24.152172	0.001028	20.760754
644.193692	-3.004500	3.712300	-11.152000	24.156645	0.001026	20.774249
645.193226	-2.999800	3.712300	-11.136000	24.172550	0.001028	20.781192
646.189229	-3.013000	3.711300	-11.180000	24.188820	0.001026	20.768114
647.197420	-3.005200	3.710700	-11.150000	24.208329	0.001029	20.753542
648.191253	-3.000800	3.710500	-11.133000	24.210171	0.001027	20.760605
649.190562	-2.985900	3.710700	-11.078000	24.199647	0.001027	20.749575
650.191315	-3.000900	3.709700	-11.131000	24.209575	0.001028	20.753369
651.190918	-2.994200	3.711300	-11.111000	24.208407	0.001026	20.759310
652.194860	-3.009800	3.709800	-11.165000	24.224705	0.001027	20.739147
653.191263	-3.004100	3.709500	-11.143000	24.225947	0.001028	20.772162
654.191332	-2.988400	3.709500	-11.085000	24.241801	0.001025	20.740648
655.192410	-3.013600	3.708300	-11.174000	24.236223	0.001027	20.742166
656.191340	-3.003600	3.709100	-11.139000	24.266406	0.001026	20.755372
657.196064	-3.002800	3.709000	-11.136000	24.241476	0.001026	20.748858
658.193473	-2.996500	3.709500	-11.114000	24.256656	0.001025	20.747489
659.192385	-2.987300	3.708900	-11.079000	24.253343	0.001024	20.763606
660.194298	-3.005900	3.706900	-11.141000	24.279892	0.001024	20.769375
661.194347	-2.986100	3.706800	-11.067000	24.286908	0.001025	20.753653
662.195562	-2.982700	3.708300	-11.059000	24.324945	0.001022	20.751505
663.193876	-3.008000	3.706300	-11.148000	24.315491	0.001023	20.749134
664.196451	-3.018300	3.704700	-11.181000	24.315989	0.001023	20.729717
665.195941	-3.005300	3.705500	-11.135000	24.285293	0.001023	20.743971
666.196423	-3.004300	3.706800	-11.136000	24.292482	0.001024	20.748338
667.197131	-3.008000	3.704600	-11.142000	24.290291	0.001022	20.739028
668.196175	-2.988900	3.705500	-11.074000	24.276213	0.001024	20.735337
669.197330	-2.998100	3.705300	-11.108000	24.278079	0.001024	20.739580
670.198972	-3.001700	3.704800	-11.120000	24.279547	0.001021	20.730146
671.207273	-3.005800	3.704000	-11.132000	24.283530	0.001021	20.740780
672.199228	-3.005100	3.703700	-11.128000	24.272707	0.001021	20.739407
673.198970	-3.005700	3.704300	-11.133000	24.279921	0.001022	20.744746
674.199634	-2.971700	3.704500	-11.008000	24.292716	0.001020	20.735770
675.199919	-2.987000	3.703900	-11.062000	24.323436	0.001020	20.739085
676.198617	-3.017100	3.702500	-11.170000	24.349511	0.001020	20.736792
677.198177	-2.981700	3.703900	-11.042000	24.356300	0.001020	20.732224
678.200578	-2.995500	3.702000	-11.087000	24.370706	0.001021	20.736244
679.199481	-2.999400	3.703000	-11.105000	24.297471	0.001020	20.745756
680.200815	-3.015500	3.701600	-11.161000	24.284857	0.001021	20.744956
681.200366	-3.015500	3.699700	-11.155000	24.274930	0.001022	20.727886
682.200249	-2.993800	3.699000	-11.073000	24.275333	0.001020	20.741567
683.200251	-2.972600	3.701400	-11.002000	24.282275	0.001021	20.751376
684.200934	-3.011700	3.701000	-11.145000	24.289464	0.001021	20.730611
685.200062	-2.993400	3.699500	-11.074000	24.260161	0.001020	20.738676
686.201207	-2.989600	3.701000	-11.063000	24.226722	0.001019	20.723152
687.201958	-3.007100	3.700300	-11.126000	24.202318	0.001021	20.717165
688.201486	-2.985900	3.701200	-11.049000	24.223294	0.001020	20.736783
689.203220	-3.000500	3.699300	-11.099000	24.244340	0.001017	20.725176
690.201944	-2.986300	3.699300	-11.046000	24.264448	0.001019	20.726854
691.202903	-2.993800	3.700000	-11.076000	24.293134	0.001019	20.720067
692.202775	-2.993100	3.698700	-11.070000	24.293406	0.001019	20.726504
693.203826	-3.000600	3.698000	-11.096000	24.325449	0.001018	20.725931
694.208119	-2.992700	3.698500	-11.067000	24.348441	0.001018	20.725761
695.205373	-3.017600	3.696400	-11.152000	24.366007	0.001017	20.750023
696.202750	-3.009300	3.697500	-11.125000	24.357943	0.001018	20.726759
697.205836	-3.007000	3.696400	-11.114000	24.327845	0.001018	20.743034
698.203148	-3.019200	3.695800	-11.157000	24.363771	0.001015	20.731183
699.202410	-3.024300	3.695600	-11.174000	24.358971	0.001018	20.710719
700.205650	-3.000000	3.696000	-11.087000	24.377108	0.001017	20.723225
701.208827	-3.003400	3.695200	-11.097000	24.378826	0.001016	20.725897
702.206065	-3.007100	3.695200	-11.110000	24.355395	0.001016	20.733212
703.207100	-2.999300	3.695000	-11.081000	24.364030	0.001017	20.733814
704.211315	-2.995600	3.695900	-11.070000	24.383355	0.001015	20.727122
705.205215	-3.000200	3.693900	-11.081000	24.370869	0.001016	20.730717
706.207439	-3.000400	3.694200	-11.083000	24.355748	0.001014	20.738782
707.202691	-3.030000	3.692800	-11.187000	24.331843	0.001016	20.720965
708.206801	-3.011600	3.693600	-11.122000	24.328732	0.001014	20.724483
709.205464	-3.008800	3.692200	-11.108000	24.355205	0.001015	20.738712
710.203321	-2.989200	3.691800	-11.034000	24.378665	0.001014	20.736168
711.205956	-3.006000	3.692800	-11.100000	24.367872	0.001014	20.730082
712.214830	-3.003900	3.692400	-11.090000	24.389984	0.001016	20.731401
713.205394	-3.010300	3.691600	-11.111000	24.398796	0.001014	20.712739
714.212142	-2.983400	3.693400	-11.018000	24.397201	0.001012	20.728684
715.211804	-2.992500	3.690500	-11.042000	24.405363	0.001013	20.711267
716.207111	-2.982200	3.692100	-11.009000	24.437029	0.001012	20.743985
717.208714	-2.997700	3.691100	-11.063000	24.431066	0.001013	20.738951
718.211574	-3.015900	3.691000	-11.130000	24.422333	0.001013	20.727344
719.210335	-3.006600	3.690700	-11.096000	24.401491	0.001012	20.735359
720.211837	-2.995900	3.689800	-11.054000	24.378731	0.001009	20.716318
721.211206	-2.989800	3.690400	-11.033000	24.369701	0.001011	20.742348
722.212534	-2.982300	3.690500	-11.006000	24.373955	0.001013	20.718639
723.212233	-2.999600	3.689900	-11.068000	24.355250	0.001011	20.732592
724.214553	-2.995100	3.690300	-11.051000	24.350848	0.001012	20.713951
725.215758	-3.012400	3.687700	-11.108000	24.381250	0.001012	20.744925
726.216036	-3.001000	3.688800	-11.069000	24.398290	0.001010	20.731199
727.219398	-2.992700	3.687900	-11.035000	24.416151	0.001010	20.735841
728.216996	-2.995700	3.688200	-11.048000	24.393567	0.001011	20.744005
729.218070	-3.013600	3.687500	-11.111000	24.424687	0.001011	20.726861
730.216857	-2.989400	3.688600	-11.026000	24.419616	0.001007	20.723669
731.216998	-3.025200	3.687000	-11.152000	24.438249	0.001011	20.750425
732.216430	-2.987000	3.686500	-11.011000	24.456579	0.001011	20.727088
733.218007	-3.019500	3.686300	-11.130000	24.466528	0.001009	20.747502
734.217226	-3.005100	3.686100	-11.076000	24.476954	0.001008	20.733780
735.217178	-3.002400	3.686300	-11.066000	24.505536	0.001009	20.743964
736.217900	-2.992000	3.685800	-11.027000	24.484446	0.001008	20.746038
737.218335	-2.990200	3.684800	-11.017000	24.508474	0.001008	20.726522
738.219910	-3.004400	3.685400	-11.072000	24.460844	0.001007	20.739903
739.217173	-2.983900	3.686700	-10.999000	24.507653	0.001007	20.738501
740.218884	-3.022500	3.684900	-11.137000	24.514667	0.001007	20.728469
741.217433	-3.005100	3.684900	-11.072000	24.523926	0.001007	20.733965
742.217026	-2.997900	3.685700	-11.048000	24.524797	0.001006	20.734365
743.221242	-3.000100	3.684700	-11.053000	24.519743	0.001007	20.751105
744.218071	-3.011700	3.682300	-11.088000	24.497116	0.001005	20.742154
745.219440	-2.997500	3.682600	-11.038000	24.514926	0.001007	20.750540
746.218806	-2.964800	3.684600	-10.922000	24.506892	0.001005	20.750066
747.220070	-2.993900	3.684300	-11.029000	24.510172	0.001006	20.740080
748.220286	-2.989700	3.682700	-11.009000	24.532412	0.001007	20.747695
749.221502	-2.991900	3.682200	-11.016000	24.555116	0.001005	20.731120
750.221951	-2.978900	3.683100	-10.970000	24.594787	0.001004	20.734889
751.221543	-3.020100	3.679400	-11.110000	24.595785	0.001003	20.747271
752.220873	-2.996800	3.680700	-11.029000	24.569149	0.001005	20.739036
753.221809	-2.993600	3.681100	-11.019000	24.559673	0.001005	20.754659
754.220917	-3.007600	3.680700	-11.069000	24.526544	0.001006	20.723314
755.222738	-2.997400	3.680500	-11.030000	24.528606	0.001003	20.745300
756.225911	-3.012200	3.680500	-11.085000	24.518210	0.001003	20.753361
757.222604	-3.007600	3.678100	-11.061000	24.500900	0.001003	20.737890
758.220447	-3.018600	3.677900	-11.102000	24.483509	0.001004	20.748891
759.220551	-3.008600	3.678500	-11.066000	24.490129	0.001004	20.737515
760.225268	-3.002200	3.679200	-11.044000	24.490027	0.001003	20.743102
761.220960	-2.988100	3.678300	-10.989000	24.489431	0.001002	20.760523
762.222083	-2.993600	3.679200	-11.012000	24.516097	0.001003	20.752190
763.224639	-3.034900	3.677100	-11.158000	24.538535	0.001003	20.762374
764.223952	-2.973800	3.677900	-10.936000	24.535354	0.001001	20.761553
765.224322	-2.985600	3.677000	-10.977000	24.560770	0.001003	20.744380
766.230118	-3.021900	3.675900	-11.107000	24.570222	0.001002	20.760976
767.224995	-2.996100	3.677800	-11.018000	24.582734	0.001004	20.754565
768.224149	-3.020400	3.676900	-11.105000	24.565101	0.001002	20.746355
769.226308	-3.014000	3.675800	-11.078000	24.560080	0.001002	20.759809
770.225395	-2.967700	3.677400	-10.912000	24.518090	0.001002	20.769363
771.225389	-3.020000	3.675800	-11.099000	24.514363	0.001001	20.744759
772.227770	-3.002800	3.675100	-11.034000	24.533792	0.001000	20.741494
773.230361	-2.970000	3.675700	-10.916000	24.573340	0.000999	20.759838
774.227475	-2.984800	3.677300	-10.975000	24.585652	0.001001	20.766027
775.230038	-3.003000	3.674200	-11.033000	24.588388	0.001001	20.741745
776.231794	-3.000500	3.675100	-11.026000	24.599413	0.000998	20.763714
777.227481	-2.998500	3.674100	-11.015000	24.600358	0.000998	20.756601
778.231421	-3.009900	3.673500	-11.056000	24.587649	0.000997	20.751909
779.229540	-3.004300	3.673400	-11.033000	24.566733	0.000998	20.744673
780.229962	-2.984500	3.674000	-10.964000	24.561510	0.000998	20.775469
781.230475	-2.990500	3.673000	-10.982000	24.541715	0.000998	20.743753
782.231577	-2.997300	3.672300	-11.006000	24.557413	0.000997	20.765668
783.231486	-3.014100	3.672000	-11.066000	24.580519	0.000998	20.768464
784.231751	-2.987300	3.672400	-10.969000	24.612677	0.000997	20.769911
785.231842	-3.000200	3.671100	-11.013000	24.629841	0.000996	20.766744
786.230558	-3.002300	3.670700	-11.019000	24.651352	0.000996	20.766517
787.233278	-3.008700	3.671300	-11.045000	24.667845	0.000998	20.783068
788.231384	-3.012300	3.670700	-11.056000	24.680480	0.000996	20.750701
789.232522	-2.991600	3.670800	-10.979000	24.711024	0.000995	20.761912
790.231286	-3.002100	3.670000	-11.017000	24.724949	0.000994	20.758341
791.232084	-3.011700	3.669600	-11.051000	24.735048	0.000996	20.774166
792.234900	-2.983300	3.669800	-10.946000	24.733906	0.000995	20.766855
793.237610	-3.015000	3.669900	-11.063000	24.732188	0.000995	20.775089
794.235551	-2.991000	3.668900	-10.972000	24.686035	0.000994	20.756275
795.242749	-3.027000	3.668200	-11.102000	24.661911	0.000994	20.768579
796.234984	-2.992400	3.668700	-10.977000	24.660724	0.000993	20.768336
797.236544	-3.002500	3.669400	-11.017000	24.631378	0.000994	20.768286
798.235673	-3.007400	3.668500	-11.032000	24.645106	0.000993	20.756931
799.234802	-2.980400	3.668600	-10.932000	24.642994	0.000995	20.752915
800.234522	-2.991200	3.668200	-10.970000	24.607730	0.000993	20.777275
801.234633	-2.981100	3.667200	-10.932000	24.589226	0.000993	20.766295
802.237348	-3.011900	3.665900	-11.040000	24.582763	0.000993	20.775456
803.237258	-2.991600	3.667500	-10.970000	24.582167	0.000993	20.790032
804.237868	-2.992700	3.667100	-10.973000	24.606045	0.000993	20.783645
805.236518	-3.011300	3.666100	-11.038000	24.637903	0.000993	20.776730
806.239603	-3.010400	3.665600	-11.034000	24.663345	0.000992	20.757215
807.236491	-3.000600	3.666800	-11.002000	24.662199	0.000993	20.763178
808.236705	-2.991400	3.667200	-10.969000	24.724349	0.000991	20.770542
809.237222	-3.014100	3.664000	-11.043000	24.694980	0.000992	20.761932
810.235854	-3.011000	3.665600	-11.036000	24.703756	0.000992	20.778326
811.238111	-3.022900	3.663000	-11.072000	24.669533	0.000990	20.771012
812.236451	-2.987400	3.663900	-10.945000	24.695148	0.000991	20.763050
813.238167	-2.987800	3.664200	-10.947000	24.695197	0.000991	20.779221
814.238179	-3.009100	3.662800	-11.021000	24.714747	0.000992	20.794571
815.238466	-3.028500	3.662000	-11.090000	24.714315	0.000990	20.788923
816.239258	-3.033400	3.661700	-11.106000	24.705888	0.000991	20.783311
817.240038	-3.004400	3.663200	-11.005000	24.718794	0.000991	20.780140
818.240105	-2.988400	3.663200	-10.945000	24.714114	0.000992	20.784453
819.241183	-3.000600	3.662000	-10.987000	24.706205	0.000991	20.781732
820.240540	-2.987100	3.663200	-10.942000	24.726892	0.000990	20.800595
821.241622	-2.999000	3.662300	-10.982000	24.748356	0.000990	20.790366
822.242218	-3.003800	3.662600	-11.001000	24.756877	0.000988	20.798443
823.249158	-2.991100	3.662200	-10.952000	24.779654	0.000988	20.774360
824.244160	-2.988700	3.661900	-10.943000	24.764231	0.000990	20.775951
825.243270	-2.995200	3.662300	-10.968000	24.780645	0.000989	20.795268
826.242484	-3.006000	3.660400	-11.002000	24.797670	0.000991	20.794336
827.244140	-2.999500	3.660300	-10.978000	24.822813	0.000989	20.808190
828.243574	-3.028500	3.659200	-11.080000	24.820796	0.000988	20.796208
829.244952	-3.016300	3.659000	-11.034000	24.800706	0.000988	20.789323
830.242373	-2.990300	3.659100	-10.941000	24.789289	0.000987	20.785451
831.243627	-3.012600	3.658300	-11.020000	24.796943	0.000986	20.816366
832.247346	-3.018000	3.657100	-11.036000	24.816437	0.000986	20.793256
833.243697	-2.975800	3.658100	-10.885000	24.824042	0.000985	20.800888
834.243245	-2.989700	3.658300	-10.936000	24.809100	0.000985	20.802014
835.246251	-3.011700	3.656800	-11.012000	24.819913	0.000986	20.807650
836.245329	-2.997300	3.657900	-10.963000	24.783656	0.000985	20.799239
837.246716	-3.022100	3.657400	-11.052000	24.759958	0.000985	20.785888
838.248418	-3.004000	3.657900	-10.987000	24.769954	0.000982	20.815834
839.246261	-3.002400	3.656700	-10.978000	24.770772	0.000983	20.821870
840.247046	-2.993900	3.656700	-10.947000	24.762888	0.000983	20.812062
841.247000	-2.989400	3.655100	-10.926000	24.755751	0.000982	20.794943
842.249111	-2.974400	3.658300	-10.880000	24.724518	0.000984	20.780668
843.248415	-3.010900	3.656600	-11.009000	24.698201	0.000982	20.802150
844.248298	-3.002700	3.655200	-10.974000	24.714221	0.000981	20.824389
845.248755	-2.990900	3.655500	-10.932000	24.721132	0.000980	20.806669
846.248269	-2.991200	3.656600	-10.936000	24.736051	0.000982	20.822113
847.249268	-2.996800	3.656200	-10.956000	24.765969	0.000980	20.798559
848.250169	-3.009600	3.655200	-11.000000	24.747641	0.000980	20.817624
849.250032	-2.995700	3.655800	-10.950000	24.744284	0.000981	20.818048
850.251367	-2.973900	3.655100	-10.867000	24.722048	0.000979	20.810907
851.252474	-2.996400	3.654500	-10.949000	24.705782	0.000979	20.802170
852.253586	-2.996000	3.654100	-10.946000	24.703645	0.000981	20.811406
853.253061	-3.002200	3.653500	-10.967000	24.702150	0.000980	20.812750
854.254230	-3.026200	3.652200	-11.051000	24.725454	0.000982	20.811480
855.253801	-3.002900	3.651900	-10.966000	24.766832	0.000980	20.809856
856.254732	-2.984400	3.653600	-10.902000	24.785062	0.000981	20.825779
857.252881	-3.019000	3.651400	-11.022000	24.814531	0.000982	20.832120
858.255818	-3.008100	3.651900	-10.985000	24.828627	0.000978	20.811653
859.255472	-2.969800	3.652700	-10.847000	24.843519	0.000978	20.794831
860.255090	-3.026600	3.650900	-11.048000	24.828397	0.000977	20.798147
861.256351	-3.010900	3.651300	-10.992000	24.832004	0.000978	20.810301
862.258706	-3.001200	3.651400	-10.958000	24.835434	0.000978	20.827020
863.256523	-3.001800	3.650100	-10.956000	24.859402	0.000980	20.826892
864.255807	-2.991300	3.650800	-10.920000	24.899801	0.000978	20.840886
865.257514	-3.001300	3.650700	-10.956000	24.899480	0.000978	20.819702
866.256026	-2.984100	3.648900	-10.886000	24.927994	0.000975	20.825087
867.256286	-3.001900	3.647600	-10.949000	24.930130	0.000976	20.848567
868.256433	-3.003400	3.647800	-10.955000	24.923738	0.000975	20.827453
869.258150	-3.001800	3.648000	-10.950000	24.886388	0.000977	20.809881
870.257228	-2.989000	3.648800	-10.905000	24.879799	0.000975	20.847363
871.260212	-2.989000	3.648500	-10.905000	24.847599	0.000976	20.836384
872.259710	-2.998700	3.648400	-10.940000	24.853112	0.000976	20.851399
873.260844	-2.993600	3.647100	-10.917000	24.844658	0.000977	20.835802
874.260169	-3.006400	3.647600	-10.966000	24.863375	0.000975	20.852216
875.260834	-2.994400	3.646600	-10.918000	24.858104	0.000974	20.840763
876.263515	-2.991500	3.646900	-10.909000	24.882371	0.000975	20.832875
877.268200	-2.966400	3.649000	-10.823000	24.876895	0.000972	20.834492
878.263941	-2.983600	3.647400	-10.882000	24.890292	0.000972	20.838454
879.264250	-2.991600	3.646300	-10.907000	24.908864	0.000972	20.850930
880.266288	-2.984700	3.646900	-10.882000	24.917515	0.000973	20.851553
881.264010	-2.983500	3.646200	-10.877000	24.913486	0.000970	20.836603
882.265271	-2.994200	3.646100	-10.915000	24.912036	0.000971	20.857906
883.268151	-3.009000	3.645400	-10.968000	24.928052	0.000973	20.838421
884.265314	-2.990200	3.643900	-10.894000	24.943063	0.000969	20.845901
885.267953	-3.013500	3.643300	-10.978000	24.926151	0.000971	20.866857
886.269387	-2.998800	3.644200	-10.927000	24.936018	0.000970	20.844046
887.266882	-2.985100	3.643600	-10.876000	24.948597	0.000970	20.835808
888.266268	-2.987800	3.643400	-10.884000	24.965447	0.000971	20.869789
889.269421	-2.999600	3.644000	-10.929000	25.001570	0.000970	20.837771
890.269017	-3.001800	3.643400	-10.934000	25.009896	0.000969	20.878843
891.267607	-3.001100	3.644700	-10.938000	25.010608	0.000970	20.848264
892.268305	-3.010900	3.640800	-10.962000	24.996535	0.000969	20.858320
893.273311	-2.992500	3.643500	-10.902000	25.016268	0.000968	20.849679
894.273179	-3.013300	3.641700	-10.973000	25.027580	0.000968	20.845861
895.271377	-2.990700	3.642300	-10.891000	25.029215	0.000968	20.847028
896.267502	-2.999400	3.640900	-10.919000	24.994630	0.000967	20.855934
897.268261	-2.995500	3.640400	-10.904000	25.004969	0.000967	20.848294
898.270482	-3.020200	3.639100	-10.990000	24.963194	0.000966	20.849511
899.272328	-3.009600	3.638800	-10.951000	24.948792	0.000964	20.855918
900.269419	-2.997800	3.641100	-10.914000	24.934793	0.000966	20.864626
901.272461	-3.003100	3.639200	-10.929000	24.937676	0.000965	20.872261
902.270668	-2.980700	3.639000	-10.846000	24.926253	0.000964	20.881658
903.272119	-3.021400	3.639100	-10.995000	24.945449	0.000963	20.878166
904.272751	-2.977300	3.639700	-10.836000	24.965536	0.000963	20.874146
905.272915	-3.017400	3.637200	-10.974000	24.954273	0.000961	20.869479
906.273798	-2.989200	3.637500	-10.871000	25.004765	0.000964	20.890287
907.274492	-2.985800	3.638200	-10.862000	25.009288	0.000962	20.869698
908.274876	-2.971700	3.640200	-10.816000	25.057494	0.000964	20.864033
909.273545	-2.972600	3.639000	-10.817000	25.028926	0.000961	20.885616
910.274395	-3.012000	3.636200	-10.950000	25.043418	0.000962	20.874559
911.273475	-3.016500	3.637700	-10.972000	25.012763	0.000960	20.873660
912.274340	-3.001200	3.636400	-10.913000	25.014554	0.000961	20.874509
913.279998	-3.005100	3.636000	-10.925000	25.000358	0.000960	20.874011
914.275706	-3.004700	3.636300	-10.925000	24.992603	0.000961	20.888036
915.275922	-3.038200	3.634100	-11.039000	24.985788	0.000958	20.888783
916.282630	-3.012300	3.635800	-10.952000	24.977856	0.000958	20.877503
917.278502	-3.001900	3.635800	-10.913000	25.010648	0.000957	20.875330
918.278652	-3.024000	3.633500	-10.986000	25.014821	0.000961	20.893743
919.280117	-2.995500	3.635700	-10.888000	25.034686	0.000960	20.887130
920.277915	-2.986900	3.635500	-10.857000	25.034813	0.000959	20.897688
921.279527	-2.986800	3.634600	-10.853000	25.028471	0.000959	20.907442
922.282245	-3.006300	3.635100	-10.927000	24.996941	0.000958	20.883857
923.281604	-3.017300	3.633400	-10.962000	25.008028	0.000957	20.898777
924.282877	-3.027900	3.632000	-10.997000	25.032221	0.000960	20.881812
925.284751	-3.008900	3.634200	-10.934000	25.031992	0.000957	20.884900
926.283068	-2.982100	3.634200	-10.837000	25.061253	0.000955	20.899099
927.284280	-3.004700	3.633300	-10.915000	25.068384	0.000956	20.899144
928.282543	-2.988600	3.632500	-10.855000	25.065423	0.000955	20.889060
929.283505	-2.989700	3.632700	-10.860000	25.083791	0.000955	20.902282
930.284250	-3.002000	3.633300	-10.906000	25.090827	0.000955	20.900336
931.283288	-3.004300	3.630300	-10.905000	25.081175	0.000954	20.897760
932.284137	-2.973100	3.631500	-10.796000	25.088059	0.000956	20.902773
933.284284	-3.003800	3.630700	-10.904000	25.075380	0.000954	20.911382
934.284819	-2.994200	3.631000	-10.870000	25.037884	0.000954	20.900296
935.285773	-2.980400	3.631600	-10.821000	25.039198	0.000952	20.905408
936.290973	-3.008800	3.629300	-10.919000	25.065622	0.000954	20.894949
937.286700	-3.008300	3.630000	-10.919000	25.082277	0.000953	20.894599
938.285860	-3.007700	3.629700	-10.915000	25.083493	0.000953	20.901509
939.287486	-2.999500	3.630300	-10.888000	25.102584	0.000953	20.906448
940.287076	-3.005400	3.628800	-10.905000	25.105217	0.000951	20.905298
941.285368	-2.999300	3.628900	-10.883000	25.081970	0.000950	20.901402
942.284671	-2.987300	3.629700	-10.841000	25.073714	0.000952	20.894538
943.288444	-2.984100	3.629700	-10.830000	25.094222	0.000949	20.895684
944.287135	-2.984300	3.627900	-10.825000	25.091754	0.000949	20.906957
945.287757	-3.000400	3.628700	-10.886000	25.096506	0.000950	20.906511
946.287671	-2.987500	3.627200	-10.835000	25.104659	0.000950	20.894308
947.287477	-2.995500	3.628100	-10.866000	25.092403	0.000949	20.893858
948.288284	-2.998400	3.626400	-10.871000	25.108385	0.000949	20.877186
949.288435	-3.014000	3.625800	-10.927000	25.124296	0.000946	20.898847
950.288712	-2.987700	3.626700	-10.834000	25.149850	0.000949	20.878036
951.291504	-2.990500	3.626400	-10.844000	25.175922	0.000949	20.882872
952.289417	-2.988700	3.625700	-10.835000	25.150594	0.000949	20.865981
953.291020	-2.999500	3.626100	-10.876000	25.151613	0.000948	20.880753
954.292048	-3.008700	3.623800	-10.902000	25.158595	0.000948	20.892977
955.291191	-3.024600	3.624500	-10.961000	25.102984	0.000948	20.875084
956.292181	-2.987600	3.625000	-10.829000	25.072056	0.000946	20.894297
957.295211	-2.960800	3.625100	-10.732000	25.044385	0.000946	20.879323
958.292102	-2.999500	3.624700	-10.871000	25.008111	0.000943	20.871362
959.294327	-3.006400	3.624100	-10.895000	25.038614	0.000945	20.876375
960.292022	-2.985100	3.624600	-10.818000	24.995452	0.000943	20.881414
961.292703	-2.980200	3.623600	-10.798000	25.007952	0.000943	20.894908
962.293764	-3.006800	3.621900	-10.889000	24.990647	0.000943	20.863315
963.294817	-2.980100	3.623000	-10.796000	24.973641	0.000943	20.890340
964.292099	-3.000500	3.622200	-10.868000	24.988605	0.000944	20.885921
965.296630	-3.001700	3.620800	-10.866000	24.995564	0.000942	20.879155
966.294670	-3.003200	3.621000	-10.873000	25.008167	0.000942	20.890382
967.294628	-2.976200	3.621700	-10.778000	24.996706	0.000941	20.879354
968.296155	-2.991300	3.621600	-10.832000	25.025144	0.000939	20.857165
969.299331	-2.997800	3.621200	-10.855000	25.030685	0.000939	20.868416
970.294104	-3.001600	3.619300	-10.862000	25.069693	0.000940	20.875804
971.299279	-3.016700	3.619000	-10.916000	25.087343	0.000938	20.872185
972.298687	-3.011000	3.619300	-10.897000	25.071899	0.000941	20.870433
973.295384	-2.998200	3.620300	-10.853000	25.034583	0.000937	20.866166
974.295897	-3.018900	3.619700	-10.926000	25.002089	0.000938	20.861050
975.297812	-3.025400	3.618300	-10.945000	24.960741	0.000938	20.857005
976.296389	-3.031800	3.618200	-10.968000	24.955573	0.000937	20.875525
977.300257	-2.992000	3.619500	-10.828000	24.921080	0.000938	20.885474
978.299449	-3.003100	3.618300	-10.865000	24.901065	0.000936	20.863491
979.298603	-3.013000	3.618200	-10.901000	24.893806	0.000937	20.860947
980.305662	-2.985700	3.617100	-10.798000	24.876224	0.000935	20.884550
981.304302	-3.003800	3.618100	-10.866000	24.898206	0.000934	20.830277
982.300346	-2.993100	3.617000	-10.825000	24.912826	0.000937	20.850640
983.303518	-2.977300	3.617000	-10.768000	24.920332	0.000935	20.846793
984.305735	-2.994200	3.617500	-10.831000	24.939824	0.000934	20.847391
985.300479	-2.994000	3.617300	-10.829000	24.995788	0.000936	20.869424
986.303146	-2.997900	3.616900	-10.842000	25.011677	0.000935	20.857872
987.307719	-2.977800	3.616700	-10.769000	25.042261	0.000932	20.862493
988.300851	-2.992200	3.614900	-10.815000	25.027067	0.000932	20.859570
989.304898	-3.021200	3.614500	-10.919000	25.047901	0.000932	20.854878
990.303702	-2.998200	3.616000	-10.840000	25.063538	0.000933	20.860143
991.302635	-2.997800	3.615000	-10.837000	25.098943	0.000931	20.836416
992.308195	-3.004400	3.614300	-10.856000	25.102820	0.000931	20.845997
993.303925	-2.991400	3.614100	-10.810000	25.124498	0.000931	20.863017
994.301932	-3.000600	3.614900	-10.846000	25.136457	0.000931	20.846574
995.307307	-3.003100	3.613500	-10.850000	25.157958	0.000932	20.842555
996.309756	-3.006800	3.613000	-10.861000	25.164944	0.000930	20.853835
997.304858	-2.998500	3.613100	-10.833000	25.155646	0.000930	20.858725
998.308930	-2.996400	3.613500	-10.827000	25.166139	0.000932	20.839388
999.308215	-3.009700	3.611800	-10.869000	25.182025	0.000929	20.840637
1000.308906	-2.972800	3.613400	-10.741000	25.167778	0.000929	20.836292
1001.310754	-3.011100	3.610200	-10.869000	25.170193	0.000930	20.835871
1002.308813	-2.992800	3.610900	-10.805000	25.166632	0.000927	20.849840
1003.307239	-3.000200	3.611200	-10.833000	25.158825	0.000928	20.870450
1004.309636	-2.979600	3.611200	-10.759000	25.169167	0.000928	20.840057
1005.312472	-3.005300	3.610300	-10.849000	25.157531	0.000929	20.832169
1006.310131	-2.993600	3.610300	-10.806000	25.158969	0.000926	20.838828
1007.310236	-2.979200	3.611100	-10.756000	25.183431	0.000926	20.850109
1008.313023	-2.995500	3.609300	-10.811000	25.197948	0.000926	20.843347
1009.313292	-3.013200	3.609000	-10.873000	25.237867	0.000926	20.842172
1010.314917	-2.987400	3.609500	-10.781000	25.236820	0.000925	20.836380
1011.313568	-3.007500	3.607800	-10.849000	25.244873	0.000926	20.832137
1012.310345	-3.002200	3.609100	-10.834000	25.266643	0.000926	20.869639
1013.314032	-3.000400	3.608300	-10.825000	25.266093	0.000924	20.824045
1014.312700	-2.985100	3.608500	-10.771000	25.295993	0.000924	20.840314
1015.313810	-3.020300	3.607000	-10.893000	25.284081	0.000922	20.856328
1016.312779	-2.994600	3.607000	-10.801000	25.265469	0.000923	20.847599
1017.313716	-3.001700	3.606700	-10.825000	25.263474	0.000923	20.828053
1018.317767	-3.010800	3.606500	-10.858000	25.256883	0.000923	20.843721
1019.315800	-3.000200	3.607200	-10.820000	25.272317	0.000923	20.842146
1020.316008	-3.009800	3.606200	-10.853000	25.275820	0.000922	20.834758
1021.317087	-3.007600	3.605200	-10.842000	25.263090	0.000922	20.841417
1022.318249	-2.985400	3.604700	-10.761000	25.286998	0.000920	20.825119
1023.317070	-3.011500	3.605000	-10.855000	25.270688	0.000921	20.839089
1024.321092	-3.005700	3.604800	-10.834000	25.291939	0.000919	20.835770
1025.320247	-3.010900	3.604400	-10.851000	25.296260	0.000918	20.832995
1026.324978	-3.003300	3.604200	-10.823000	25.270733	0.000916	20.852884
1027.318380	-2.975500	3.604200	-10.723000	25.268915	0.000918	20.828300
1028.325341	-2.989400	3.603200	-10.771000	25.272668	0.000919	20.833491
1029.323045	-2.994100	3.604800	-10.791000	25.263018	0.000916	20.828544
1030.321791	-3.002500	3.602000	-10.813000	25.240275	0.000916	20.847909
1031.321087	-2.985100	3.602500	-10.752000	25.225857	0.000917	20.819210
1032.322995	-2.999100	3.600900	-10.798000	25.205795	0.000917	20.826569
1033.321074	-3.002800	3.602100	-10.816000	25.173803	0.000917	20.828116
1034.323594	-3.013400	3.600000	-10.846000	25.194904	0.000916	20.822748
1035.323477	-3.001000	3.601300	-10.807000	25.221275	0.000915	20.827886
1036.322550	-2.987500	3.602200	-10.760000	25.229702	0.000915	20.817854
1037.324301	-2.985400	3.601300	-10.750000	25.238671	0.000915	20.814532
1038.326254	-2.980200	3.601900	-10.733000	25.271628	0.000916	20.827231
1039.324804	-3.007700	3.601200	-10.829000	25.264195	0.000913	20.826406
1040.329020	-3.006100	3.599500	-10.820000	25.278162	0.000915	20.840903
1041.327370	-2.981100	3.600000	-10.731000	25.264269	0.000914	20.835489
1042.330389	-2.986800	3.599600	-10.750000	25.268988	0.000913	20.825055
1043.329966	-2.983700	3.599200	-10.737000	25.287427	0.000913	20.839300
1044.328218	-2.994400	3.599000	-10.775000	25.264681	0.000912	20.827369
1045.328918	-2.994800	3.597800	-10.774000	25.281753	0.000911	20.824594
1046.333800	-3.020700	3.597400	-10.866000	25.286595	0.000913	20.835620
1047.331511	-3.006600	3.598300	-10.817000	25.293901	0.000910	20.836791
1048.328844	-3.033300	3.595800	-10.905000	25.303466	0.000908	20.821265
1049.332490	-3.007800	3.596000	-10.815000	25.275279	0.000908	20.844646
1050.331569	-3.010800	3.596300	-10.827000	25.266499	0.000909	20.837728
1051.330434	-3.009200	3.596000	-10.821000	25.265530	0.000909	20.842445
1052.335337	-3.003500	3.596300	-10.800000	25.249991	0.000910	20.817836
1053.338532	-2.997900	3.596200	-10.781000	25.297562	0.000908	20.812019
1054.334235	-3.017600	3.594600	-10.846000	25.311353	0.000910	20.828235
1055.339926	-3.015800	3.594400	-10.839000	25.261163	0.000908	20.827630
1056.340893	-2.994600	3.594600	-10.763000	25.242371	0.000908	20.829151
1057.332129	-3.003500	3.593600	-10.792000	25.247164	0.000906	20.812627
1058.333384	-3.011400	3.593700	-10.821000	25.240200	0.000906	20.837403
1059.340071	-2.978100	3.594700	-10.704000	25.239999	0.000905	20.813968
1060.332147	-2.985700	3.594100	-10.729000	25.261051	0.000903	20.822775
1061.339787	-2.984300	3.593500	-10.723000	25.235618	0.000904	20.829010
1062.339194	-2.975600	3.594300	-10.694000	25.230945	0.000904	20.807249
1063.333914	-3.025900	3.593000	-10.871000	25.249635	0.000902	20.827435
1064.341603	-3.016200	3.592000	-10.831000	25.269241	0.000901	20.828628
1065.338946	-2.986400	3.592400	-10.727000	25.252391	0.000901	20.826883
1066.333714	-3.003500	3.591900	-10.787000	25.243168	0.000901	20.824735
1067.336793	-2.994300	3.592800	-10.756000	25.277365	0.000900	20.817344
1068.337108	-2.983700	3.593700	-10.722000	25.259743	0.000898	20.813876
1069.339614	-2.986400	3.591000	-10.724000	25.287057	0.000898	20.828971
1070.336557	-2.964800	3.594000	-10.654000	25.331099	0.000898	20.812974
1071.336030	-3.006700	3.589900	-10.793000	25.351524	0.000898	20.819258
1072.333805	-2.994900	3.591500	-10.753000	25.366537	0.000897	20.827219
1073.336480	-3.003200	3.590400	-10.781000	25.400539	0.000897	20.812524
1074.335575	-2.992600	3.591500	-10.747000	25.398746	0.000897	20.823051
1075.334463	-3.022700	3.588100	-10.845000	25.424047	0.000896	20.808155
1076.337158	-3.024600	3.589100	-10.855000	25.431081	0.000895	20.806683
1077.340071	-2.993400	3.588700	-10.742000	25.421464	0.000894	20.833061
1078.333731	-2.985400	3.589300	-10.715000	25.398150	0.000894	20.804910
1079.339133	-2.980400	3.587500	-10.691000	25.361864	0.000893	20.832010
1080.339568	-3.002900	3.586300	-10.768000	25.332388	0.000893	20.821381
1081.335875	-3.002800	3.586800	-10.769000	25.306539	0.000892	20.818660
1082.339586	-2.984100	3.587600	-10.705000	25.262422	0.000891	20.805186
1083.340246	-3.008600	3.585300	-10.785000	25.274700	0.000890	20.815617
1084.337052	-2.973400	3.586800	-10.664000	25.300128	0.000891	20.807008
1085.339494	-2.976700	3.585600	-10.671000	25.272364	0.000890	20.825125
1086.339654	-2.985600	3.585600	-10.704000	25.248525	0.000889	20.827269
1087.338799	-3.003300	3.585900	-10.768000	25.263017	0.000889	20.800094
1088.338220	-3.006200	3.585000	-10.776000	25.247432	0.000888	20.801516
1089.341431	-2.998300	3.584600	-10.747000	25.233761	0.000890	20.811972
1090.339773	-3.014200	3.584000	-10.802000	25.244028	0.000887	20.799047
1091.340919	-3.013200	3.584100	-10.798000	25.275596	0.000886	20.803714
1092.347673	-2.997800	3.584700	-10.744000	25.292597	0.000887	20.805610
1093.340365	-2.997500	3.583300	-10.739000	25.324286	0.000886	20.787642
1094.340178	-2.996800	3.582800	-10.736000	25.349861	0.000887	20.808105
1095.340556	-2.989300	3.583200	-10.709000	25.345537	0.000885	20.808031
1096.340771	-3.001300	3.581700	-10.748000	25.337336	0.000884	20.798848
1097.342751	-3.008800	3.582000	-10.777000	25.281689	0.000884	20.792288
1098.343146	-3.018100	3.579800	-10.803000	25.239925	0.000884	20.794454
1099.343791	-3.011800	3.580400	-10.782000	25.234903	0.000882	20.807903
1100.344014	-2.992200	3.581900	-10.717000	25.263067	0.000882	20.798247
1101.344083	-3.018900	3.580400	-10.807000	25.266675	0.000881	20.804715
1102.344846	-2.985500	3.580900	-10.690000	25.300505	0.000880	20.808809
1103.345801	-3.005600	3.580100	-10.760000	25.298193	0.000879	20.816919
1104.345129	-2.982300	3.580100	-10.676000	25.324589	0.000879	20.784627
1105.351330	-2.979100	3.578800	-10.661000	25.288872	0.000877	20.783852
1106.347189	-2.964900	3.580800	-10.616000	25.322256	0.000880	20.776595
1107.344780	-3.019300	3.578400	-10.804000	25.323226	0.000877	20.766662
1108.346758	-2.991400	3.578400	-10.704000	25.355383	0.000876	20.787097
1109.352031	-2.981400	3.579100	-10.668000	25.355260	0.000878	20.763739
1110.348294	-2.989400	3.578500	-10.696000	25.414039	0.000877	20.789571
1111.350214	-3.003700	3.578000	-10.746000	25.393587	0.000876	20.781361
1112.350221	-3.008200	3.577100	-10.759000	25.397340	0.000876	20.783707
1113.347195	-3.006700	3.576900	-10.754000	25.370825	0.000875	20.784111
1114.349312	-3.000900	3.577400	-10.734000	25.346143	0.000874	20.777345
1115.353401	-2.995600	3.576800	-10.714000	25.302873	0.000873	20.779893
1116.347693	-2.988800	3.578000	-10.693000	25.270059	0.000872	20.780137
1117.351709	-3.008900	3.575500	-10.757000	25.233669	0.000871	20.771577
1118.351320	-3.004500	3.576200	-10.743000	25.235809	0.000872	20.787002
1119.347396	-3.019600	3.573800	-10.791000	25.227706	0.000872	20.775073
1120.349289	-2.979000	3.575500	-10.650000	25.257163	0.000872	20.784259
1121.355888	-2.979300	3.574400	-10.648000	25.276427	0.000871	20.772780
1122.355446	-3.015900	3.573500	-10.777000	25.298602	0.000870	20.779397
1123.350897	-3.007700	3.573700	-10.748000	25.274521	0.000869	20.767073
1124.355747	-3.000200	3.574300	-10.722000	25.275860	0.000869	20.758934
1125.351702	-3.008500	3.574200	-10.752000	25.245360	0.000867	20.758184
1126.356451	-3.013000	3.571800	-10.761000	25.256923	0.000867	20.783070
1127.355062	-2.982700	3.573400	-10.656000	25.254016	0.000868	20.778729
1128.353935	-2.988500	3.572900	-10.676000	25.224238	0.000867	20.791980
1129.364499	-3.000200	3.572400	-10.717000	25.243802	0.000867	20.766577
1130.357145	-3.043500	3.570700	-10.866000	25.272117	0.000866	20.766082
1131.360034	-2.990900	3.573000	-10.685000	25.255908	0.000866	20.746489
1132.357767	-3.002300	3.571800	-10.723000	25.248631	0.000865	20.777589
1133.361744	-3.002500	3.571500	-10.721000	25.262749	0.000867	20.759521
1134.354808	-2.995500	3.571400	-10.696000	25.260416	0.000864	20.772826
1135.353122	-2.955800	3.571400	-10.555000	25.241430	0.000864	20.762773
1136.359403	-2.991300	3.570600	-10.680000	25.290345	0.000864	20.759252
1137.354043	-2.966100	3.571600	-10.593000	25.305390	0.000865	20.743538
1138.356972	-3.016700	3.568200	-10.763000	25.367351	0.000863	20.765923
1139.358527	-3.002400	3.568000	-10.711000	25.370212	0.000862	20.765477
1140.354383	-3.011500	3.568600	-10.746000	25.374688	0.000860	20.765703
1141.359028	-3.031800	3.567200	-10.814000	25.382296	0.000861	20.741100
1142.358061	-3.000200	3.568900	-10.706000	25.376083	0.000860	20.757621
1143.363775	-3.006500	3.566900	-10.723000	25.336124	0.000857	20.760173
1144.360106	-3.012400	3.568000	-10.748000	25.306821	0.000859	20.772476
1145.360521	-3.018900	3.567000	-10.768000	25.320149	0.000856	20.746029
1146.358021	-3.010400	3.566100	-10.733000	25.323406	0.000859	20.762576
1147.361501	-2.995700	3.567100	-10.685000	25.376968	0.000858	20.756139
1148.360326	-3.001000	3.566400	-10.702000	25.397922	0.000857	20.745410
1149.361095	-2.991000	3.567100	-10.668000	25.420316	0.000857	20.739447
1150.361899	-2.995200	3.565800	-10.679000	25.452675	0.000857	20.767201
1151.360916	-3.000900	3.564900	-10.697000	25.438985	0.000857	20.751082
1152.361559	-3.006100	3.565000	-10.716000	25.477982	0.000857	20.742827
1153.359469	-3.002000	3.565400	-10.702000	25.432826	0.000855	20.754381
1154.364500	-3.007600	3.565200	-10.721000	25.440585	0.000854	20.736093
1155.361835	-3.021000	3.563800	-10.765000	25.453112	0.000854	20.736819
1156.360351	-2.975200	3.563900	-10.601000	25.463056	0.000852	20.752495
1157.359324	-3.008700	3.563600	-10.721000	25.469519	0.000853	20.746656
1158.363663	-2.998200	3.564300	-10.686000	25.462263	0.000853	20.743638
1159.360723	-2.989400	3.563800	-10.653000	25.408959	0.000852	20.738949
1160.359321	-2.978800	3.563400	-10.614000	25.420838	0.000853	20.756094
1161.361071	-2.984100	3.563500	-10.632000	25.440103	0.000852	20.725177
1162.360618	-2.990200	3.562300	-10.650000	25.435959	0.000850	20.732870
1163.361490	-3.016100	3.561100	-10.739000	25.397387	0.000851	20.730648
1164.361219	-3.015800	3.561400	-10.738000	25.411852	0.000850	20.742803
1165.367792	-3.009900	3.560500	-10.716000	25.399357	0.000849	20.733574
1166.362390	-3.014500	3.560900	-10.732000	25.432062	0.000847	20.719947
1167.360970	-2.997000	3.560900	-10.671000	25.432485	0.000849	20.727010
1168.362401	-3.015700	3.561000	-10.737000	25.405097	0.000848	20.713733
1169.364854	-3.003100	3.558200	-10.685000	25.428144	0.000847	20.750627
1170.366508	-2.994400	3.559200	-10.656000	25.400732	0.000848	20.742067
1171.363072	-3.005000	3.559300	-10.694000	25.406324	0.000847	20.717810
1172.370125	-3.002200	3.559200	-10.683000	25.382217	0.000846	20.740072
1173.369129	-3.003500	3.557900	-10.686000	25.371434	0.000845	20.733511
1174.368838	-2.989300	3.558200	-10.636000	25.364329	0.000845	20.711678
1175.366461	-3.020500	3.558200	-10.747000	25.365323	0.000844	20.734488
1176.376957	-2.980800	3.558700	-10.607000	25.361253	0.000842	20.751739
1177.369380	-3.023700	3.556400	-10.752000	25.344824	0.000844	20.745200
1178.374175	-3.019700	3.556600	-10.740000	25.350244	0.000842	20.732623
1179.369158	-3.010500	3.556200	-10.703000	25.326185	0.000842	20.731226
1180.371823	-2.991700	3.557200	-10.641000	25.376244	0.000842	20.737868
1181.368751	-2.987000	3.557400	-10.625000	25.386263	0.000842	20.732755
1182.368374	-2.992200	3.556700	-10.641000	25.366138	0.000838	20.750480
1183.369039	-3.013700	3.555200	-10.714000	25.370758	0.000839	20.711494
1184.368006	-3.009600	3.554200	-10.696000	25.374543	0.000842	20.741375
1185.368307	-3.045100	3.553300	-10.819000	25.352074	0.000839	20.732564
1186.371043	-3.004600	3.554200	-10.679000	25.377827	0.000838	20.730922
1187.375635	-3.020500	3.553400	-10.732000	25.378846	0.000836	20.720090
1188.377357	-2.991400	3.553600	-10.629000	25.415008	0.000839	20.739808
1189.377271	-2.999600	3.553100	-10.657000	25.425351	0.000837	20.725537
1190.379242	-3.005900	3.553000	-10.679000	25.414519	0.000838	20.719875
1191.372120	-3.012100	3.552900	-10.701000	25.348709	0.000835	20.732979
1192.377846	-3.007600	3.550600	-10.677000	25.349206	0.000835	20.730632
1193.371643	-3.017500	3.552100	-10.717000	25.324653	0.000834	20.734904
1194.376906	-3.003800	3.551600	-10.667000	25.306363	0.000835	20.728393
1195.374984	-2.992400	3.552400	-10.628000	25.358591	0.000835	20.741953
1196.374170	-3.012700	3.550400	-10.695000	25.367736	0.000835	20.749714
1197.372952	-2.995700	3.551800	-10.638000	25.421021	0.000834	20.743001
1198.376131	-2.996000	3.550200	-10.634000	25.437576	0.000834	20.756780
1199.372894	-2.993200	3.548900	-10.621000	25.463345	0.000833	20.722912
1200.373530	-2.986600	3.549700	-10.601000	25.462084	0.000833	20.724965
1201.377290	-2.990500	3.547900	-10.610000	25.442203	0.000833	20.744357
1202.373685	-2.980200	3.550200	-10.580000	25.444864	0.000833	20.727587
1203.377041	-2.979100	3.551100	-10.578000	25.455752	0.000833	20.720977
1204.377051	-3.021600	3.547300	-10.718000	25.479735	0.000831	20.729887
1205.378503	-2.980400	3.547400	-10.571000	25.457275	0.000830	20.721558
1206.375869	-2.992500	3.547200	-10.613000	25.426107	0.000831	20.739099
1207.378292	-2.976100	3.547500	-10.556000	25.408640	0.000829	20.728670
1208.378139	-2.984600	3.548100	-10.589000	25.380903	0.000829	20.729743
1209.378894	-2.982800	3.547300	-10.581000	25.365496	0.000827	20.740352
1210.378547	-2.980800	3.547900	-10.573000	25.359357	0.000827	20.746042
1211.376623	-3.026100	3.544700	-10.726000	25.362687	0.000827	20.731367
1212.380758	-2.984100	3.546900	-10.582000	25.376061	0.000828	20.745270
1213.380567	-3.010200	3.544300	-10.667000	25.403425	0.000825	20.750462
1214.383733	-3.001600	3.545900	-10.642000	25.453921	0.000823	20.728621
1215.381009	-3.024700	3.543500	-10.717000	25.473780	0.000825	20.751410
1216.382007	-2.980100	3.545300	-10.564000	25.490930	0.000827	20.753933
1217.382657	-3.011300	3.545200	-10.675000	25.524654	0.000822	20.728530
1218.383407	-3.005900	3.543900	-10.650000	25.551866	0.000821	20.734521
1219.383518	-3.029500	3.543300	-10.734000	25.565160	0.000820	20.743130
1220.379100	-3.012200	3.543700	-10.673000	25.575550	0.000822	20.745030
1221.383463	-3.013400	3.543200	-10.674000	25.572968	0.000821	20.738169
1222.383396	-3.017900	3.542700	-10.689000	25.579701	0.000820	20.768640
1223.380255	-2.998900	3.542800	-10.623000	25.541684	0.000822	20.724768
1224.384014	-2.983700	3.542600	-10.568000	25.528316	0.000820	20.754019
1225.385095	-2.985500	3.542700	-10.576000	25.477048	0.000819	20.744733
1226.380726	-3.006500	3.541400	-10.646000	25.478020	0.000818	20.740969
1227.387123	-2.967200	3.542200	-10.509000	25.460025	0.000818	20.739493
1228.388072	-2.985700	3.541300	-10.572000	25.461519	0.000817	20.742416
1229.387782	-2.995300	3.540300	-10.604000	25.496386	0.000816	20.739497
1230.386874	-3.006100	3.540200	-10.640000	25.472309	0.000815	20.735707
1231.388458	-3.031400	3.538600	-10.725000	25.457918	0.000814	20.743067
1232.387570	-3.004600	3.539500	-10.634000	25.456579	0.000815	20.738403
1233.385340	-2.991800	3.539100	-10.587000	25.444278	0.000814	20.729843
1234.392426	-3.004500	3.537600	-10.628000	25.439158	0.000815	20.737979
1235.388203	-2.988900	3.539000	-10.577000	25.393453	0.000813	20.744242
1236.389332	-3.008700	3.536900	-10.641000	25.381775	0.000814	20.733938
1237.387295	-2.991500	3.538400	-10.585000	25.362985	0.000810	20.751581
1238.388655	-2.966000	3.539100	-10.496000	25.368553	0.000812	20.775665
1239.387739	-2.964700	3.538100	-10.488000	25.334105	0.000811	20.754352
1240.386665	-2.999000	3.535200	-10.602000	25.330729	0.000811	20.722986
1241.390675	-3.006800	3.536700	-10.634000	25.315047	0.000810	20.747070
1242.390532	-3.013100	3.537200	-10.657000	25.315766	0.000809	20.740679
1243.388444	-3.015000	3.536400	-10.661000	25.329686	0.000810	20.747070
1244.388268	-2.984800	3.535700	-10.553000	25.336696	0.000809	20.747944
1245.391990	-2.999600	3.536200	-10.607000	25.350390	0.000810	20.754108
1246.387493	-3.000800	3.534500	-10.605000	25.382251	0.000808	20.749589
1247.389214	-3.014300	3.534100	-10.652000	25.367041	0.000806	20.742852
1248.394736	-2.988700	3.534700	-10.562000	25.408772	0.000808	20.766263
1249.389158	-2.996400	3.533400	-10.586000	25.414812	0.000808	20.749094
1250.388470	-3.003500	3.531800	-10.606000	25.447048	0.000808	20.747325
1251.395017	-2.993900	3.533200	-10.576000	25.467130	0.000807	20.764173
1252.394233	-2.973700	3.533200	-10.505000	25.507736	0.000806	20.753741
1253.388409	-3.007800	3.532700	-10.625000	25.519766	0.000807	20.786685
1254.395292	-3.004900	3.531600	-10.611000	25.546157	0.000805	20.756289
1255.388291	-3.024600	3.530900	-10.679000	25.531175	0.000804	20.759736
1256.397761	-2.999500	3.533300	-10.597000	25.534603	0.000805	20.749428
1257.396645	-3.027300	3.529700	-10.683000	25.521683	0.000804	20.770592
1258.389875	-2.991100	3.531400	-10.561000	25.493008	0.000804	20.750804
1259.398127	-2.994600	3.531400	-10.573000	25.467983	0.000802	20.762659
1260.391562	-2.975900	3.531200	-10.507000	25.480929	0.000803	20.768547
1261.390356	-2.995000	3.529200	-10.569000	25.490771	0.000803	20.758989
1262.395113	-2.995700	3.529200	-10.572000	25.512519	0.000801	20.764234
1263.390492	-2.991700	3.530100	-10.560000	25.528198	0.000801	20.756746
1264.393319	-2.986300	3.529800	-10.540000	25.536253	0.000799	20.769103
1265.390141	-3.017600	3.527800	-10.645000	25.574172	0.000800	20.764510
1266.394382	-2.973900	3.529600	-10.495000	25.584263	0.000800	20.745720
1267.395055	-2.994200	3.528800	-10.564000	25.608345	0.000798	20.748095
1268.390578	-2.997800	3.526700	-10.571000	25.610377	0.000798	20.749662
1269.392344	-3.008400	3.528000	-10.612000	25.626084	0.000799	20.786300
1270.391810	-3.015100	3.527500	-10.635000	25.637291	0.000798	20.743976
1271.395150	-3.012200	3.526700	-10.622000	25.652025	0.000797	20.773947
1272.391823	-2.993000	3.527500	-10.556000	25.646290	0.000797	20.748746
1273.394275	-3.015000	3.525400	-10.628000	25.680949	0.000797	20.753686
1274.393410	-3.016400	3.526000	-10.634000	25.664673	0.000797	20.769581
1275.394497	-2.992500	3.525700	-10.550000	25.693544	0.000795	20.754482
1276.395538	-2.997800	3.525000	-10.566000	25.710936	0.000794	20.766262
1277.394368	-3.026500	3.524700	-10.667000	25.666610	0.000794	20.765363
1278.392286	-2.993600	3.524900	-10.551000	25.656175	0.000792	20.784754
1279.396122	-3.020200	3.524600	-10.644000	25.673166	0.000793	20.768154
1280.397556	-2.977000	3.524600	-10.491000	25.688375	0.000793	20.763990
1281.393758	-2.995500	3.522700	-10.551000	25.659406	0.000791	20.769032
1282.398959	-2.988300	3.522700	-10.525000	25.636269	0.000790	20.777563
1283.392977	-2.987400	3.523900	-10.526000	25.637932	0.000791	20.772595
1284.394654	-3.005100	3.523700	-10.588000	25.649312	0.000792	20.780231
1285.396098	-3.020100	3.521900	-10.635000	25.621901	0.000790	20.765504
1286.393279	-3.024400	3.520700	-10.647000	25.656886	0.000788	20.773614
1287.394964	-3.011100	3.520800	-10.600000	25.681332	0.000789	20.771140
1288.402347	-2.992200	3.521600	-10.536000	25.700983	0.000787	20.784240
1289.401972	-2.987600	3.521100	-10.519000	25.708762	0.000787	20.762655
1290.393628	-3.014000	3.519400	-10.606000	25.733161	0.000787	20.774835
1291.397684	-3.000300	3.520700	-10.562000	25.747167	0.000786	20.783213
1292.401427	-2.995500	3.518800	-10.540000	25.742816	0.000787	20.763196
1293.397151	-2.998500	3.518800	-10.550000	25.731881	0.000783	20.784455
1294.399542	-2.997900	3.518000	-10.545000	25.700873	0.000785	20.765163
1295.395810	-2.997400	3.519100	-10.547000	25.678037	0.000785	20.782530
1296.394773	-2.997300	3.518700	-10.546000	25.681317	0.000787	20.791040
1297.400758	-2.982100	3.519100	-10.493000	25.706107	0.000784	20.784645
1298.404356	-3.006600	3.518400	-10.577000	25.733163	0.000784	20.784794
1299.395619	-2.989900	3.517500	-10.516000	25.732740	0.000783	20.786266
1300.402300	-2.987900	3.517100	-10.508000	25.762131	0.000782	20.792079
1301.403097	-3.000500	3.517200	-10.553000	25.757403	0.000783	20.790649
1302.398251	-3.009100	3.516000	-10.579000	25.746887	0.000782	20.778664
1303.403187	-2.995600	3.517200	-10.534000	25.693219	0.000782	20.788296
1304.401858	-2.995800	3.515400	-10.530000	25.684123	0.000782	20.802393
1305.402838	-3.012200	3.513800	-10.584000	25.658331	0.000781	20.799721
1306.401847	-2.993700	3.514400	-10.519000	25.653011	0.000780	20.790111
1307.400934	-3.001100	3.513600	-10.544000	25.630174	0.000779	20.803684
1308.405772	-2.992500	3.514600	-10.517000	25.631237	0.000780	20.793373
1309.402407	-3.003800	3.513600	-10.554000	25.636029	0.000778	20.797711
1310.405682	-2.985300	3.513200	-10.487000	25.666912	0.000778	20.791270
1311.399310	-2.999900	3.512000	-10.535000	25.668772	0.000778	20.800725
1312.403519	-2.993500	3.513100	-10.515000	25.688324	0.000775	20.792862
1313.402118	-3.016800	3.512000	-10.594000	25.699601	0.000775	20.800396
1314.398829	-3.004600	3.511900	-10.551000	25.685143	0.000775	20.797728
1315.404202	-2.989500	3.511800	-10.498000	25.644318	0.000776	20.775690
1316.414610	-2.994300	3.510900	-10.511000	25.625508	0.000774	20.803739
1317.399366	-2.989600	3.510400	-10.493000	25.624585	0.000774	20.785743
1318.404323	-3.001800	3.510400	-10.537000	25.646227	0.000773	20.795626
1319.404716	-3.016900	3.509600	-10.587000	25.628657	0.000771	20.819704
1320.401376	-2.987800	3.510800	-10.489000	25.669110	0.000772	20.813866
1321.402842	-3.011100	3.509800	-10.567000	25.663018	0.000773	20.805377
1322.404912	-3.008100	3.509400	-10.555000	25.681757	0.000770	20.810922
1323.406999	-3.017200	3.507100	-10.579000	25.661056	0.000770	20.810993
1324.404387	-3.015000	3.508400	-10.576000	25.685086	0.000770	20.803835
1325.404618	-3.020100	3.509200	-10.597000	25.711100	0.000769	20.809100
1326.401159	-2.992700	3.507900	-10.497000	25.724219	0.000769	20.808527
1327.405246	-2.997400	3.507400	-10.512000	25.734928	0.000768	20.808378
1328.404409	-2.984300	3.507600	-10.467000	25.761384	0.000765	20.840167
1329.407745	-2.991800	3.505500	-10.486000	25.766654	0.000766	20.823176
1330.404449	-3.005900	3.505900	-10.537000	25.795921	0.000766	20.808477
1331.411132	-3.012000	3.505500	-10.557000	25.797185	0.000767	20.815437
1332.403819	-3.006500	3.505700	-10.539000	25.818131	0.000764	20.833157
1333.407041	-2.992800	3.505900	-10.492000	25.791401	0.000766	20.811050
1334.406487	-2.998300	3.504700	-10.507000	25.788069	0.000765	20.839470
1335.411526	-2.999600	3.503700	-10.509000	25.780840	0.000765	20.806605
1336.406885	-3.009100	3.503000	-10.540000	25.763325	0.000765	20.823625
1337.420531	-3.001600	3.503100	-10.512000	25.733685	0.000766	20.800491
1338.404926	-2.997400	3.502800	-10.498000	25.701535	0.000764	20.823675
1339.408128	-3.002200	3.502400	-10.514000	25.703423	0.000764	20.818459
1340.407346	-2.998700	3.501900	-10.500000	25.664857	0.000765	20.817656
1341.406134	-3.001600	3.501500	-10.509000	25.680263	0.000763	20.818431
1342.411349	-3.029700	3.501300	-10.606000	25.675218	0.000763	20.823321
1343.408138	-3.006400	3.502500	-10.528000	25.705477	0.000764	20.823840
1344.407449	-3.001600	3.501000	-10.507000	25.696282	0.000763	20.827881
1345.412979	-2.985100	3.503000	-10.456000	25.668827	0.000758	20.817850
1346.412004	-3.016400	3.502000	-10.563000	25.666065	0.000763	20.815550
1347.412835	-3.036100	3.499200	-10.622000	25.650010	0.000759	20.835934
1348.413167	-3.001400	3.500300	-10.506000	25.692646	0.000761	20.811427
1349.412545	-3.010600	3.499000	-10.533000	25.699205	0.000762	20.839826
1350.410252	-2.992500	3.499800	-10.472000	25.689707	0.000760	20.842140
1351.413792	-3.004900	3.498600	-10.512000	25.694999	0.000758	20.811894
1352.412434	-2.989100	3.499400	-10.459000	25.698472	0.000758	20.834822
1353.409577	-2.991000	3.498400	-10.462000	25.734768	0.000757	20.838562
1354.413683	-3.005600	3.497500	-10.510000	25.762320	0.000759	20.836365
1355.411894	-2.997000	3.497000	-10.480000	25.799833	0.000755	20.844648
1356.414930	-2.984300	3.496800	-10.434000	25.817220	0.000754	20.850734
1357.415828	-2.974400	3.496800	-10.400000	25.809340	0.000756	20.839500
1358.413877	-2.988100	3.496100	-10.446000	25.824941	0.000753	20.855171
1359.412077	-3.013300	3.495900	-10.532000	25.835346	0.000753	20.842390
1360.415025	-2.986600	3.495400	-10.439000	25.814623	0.000753	20.852867
1361.414570	-3.000600	3.494500	-10.484000	25.828488	0.000752	20.826966
1362.414038	-2.996200	3.495800	-10.473000	25.807145	0.000753	20.834924
1363.411541	-3.010700	3.493900	-10.519000	25.801456	0.000752	20.847701
1364.412282	-2.993900	3.494900	-10.462000	25.811717	0.000748	20.858956
1365.410331	-3.003100	3.492400	-10.487000	25.803242	0.000749	20.850917
1366.414634	-3.007200	3.493100	-10.503000	25.787566	0.000750	20.864568
1367.412129	-2.996900	3.494200	-10.470000	25.797975	0.000748	20.857481
1368.414121	-3.009600	3.493600	-10.512000	25.774793	0.000749	20.846048
1369.414342	-3.019000	3.491900	-10.540000	25.803784	0.000748	20.850514
1370.412503	-3.000500	3.490100	-10.471000	25.813774	0.000749	20.868609
1371.410271	-3.035000	3.489100	-10.587000	25.830172	0.000746	20.851890
1372.415846	-2.997600	3.490300	-10.461000	25.846643	0.000749	20.864168
1373.412777	-3.010200	3.491000	-10.508000	25.862018	0.000749	20.859699
1374.415487	-3.001300	3.489800	-10.473000	25.880701	0.000745	20.843855
1375.413958	-3.014300	3.489300	-10.517000	25.885843	0.000746	20.879365
1376.415704	-2.981500	3.492100	-10.409000	25.915032	0.000745	20.865067
1377.417327	-2.992700	3.489800	-10.442000	25.916547	0.000745	20.868485
1378.425259	-3.000700	3.488400	-10.467000	25.908745	0.000743	20.846898
1379.414900	-3.006700	3.487700	-10.485000	25.924373	0.000744	20.869235
1380.419342	-2.998100	3.487400	-10.454000	25.883533	0.000745	20.853812
1381.416405	-2.981100	3.489000	-10.400000	25.875607	0.000744	20.859600
1382.417950	-3.017800	3.486300	-10.520000	25.848700	0.000742	20.867657
1383.415277	-2.997400	3.486000	-10.447000	25.833521	0.000743	20.880384
1384.418919	-2.993600	3.486000	-10.435000	25.811439	0.000742	20.858677
1385.418444	-3.001600	3.487100	-10.466000	25.820678	0.000740	20.867009
1386.415678	-3.013900	3.485600	-10.503000	25.831013	0.000738	20.867908
1387.420780	-2.983500	3.484800	-10.395000	25.829918	0.000738	20.880083
1388.419036	-3.020700	3.484500	-10.524000	25.809276	0.000739	20.858401
1389.418611	-2.986100	3.484900	-10.405000	25.808804	0.000739	20.870728
1390.417975	-3.000000	3.484900	-10.454000	25.817226	0.000737	20.891515
1391.417846	-2.993400	3.483800	-10.428000	25.846089	0.000737	20.874991
1392.417367	-3.004200	3.483000	-10.463000	25.816849	0.000735	20.885921
1393.417721	-2.974800	3.483200	-10.361000	25.785100	0.000737	20.851660
1394.419865	-3.003800	3.482900	-10.461000	25.771016	0.000735	20.869281
1395.418518	-2.990900	3.483000	-10.417000	25.738019	0.000735	20.880706
1396.419545	-2.985800	3.481700	-10.394000	25.752906	0.000735	20.868633
1397.418252	-3.000100	3.480900	-10.442000	25.759589	0.000733	20.861596
1398.419455	-2.995300	3.481500	-10.427000	25.822066	0.000733	20.880256
1399.424708	-3.012500	3.480500	-10.483000	25.821922	0.000733	20.878689
1400.420900	-2.975600	3.481800	-10.360000	25.768008	0.000733	20.889965
1401.419204	-3.002700	3.480900	-10.450000	25.762417	0.000730	20.856377
1402.420664	-3.004900	3.479400	-10.454000	25.730572	0.000732	20.856632
1403.419231	-2.998700	3.479100	-10.432000	25.746643	0.000733	20.882255
1404.421788	-3.021000	3.477000	-10.503000	25.748407	0.000731	20.882132
1405.419987	-2.991700	3.477300	-10.402000	25.754224	0.000731	20.875172
1406.424325	-2.965600	3.479600	-10.317000	25.766028	0.000727	20.878020
1407.419429	-3.011900	3.477500	-10.473000	25.791096	0.000729	20.886604
1408.420918	-2.993300	3.478200	-10.410000	25.828312	0.000728	20.874677
1409.424720	-3.006800	3.476700	-10.451000	25.862624	0.000728	20.866472
1410.420058	-2.987800	3.478500	-10.392000	25.869302	0.000728	20.889300
1411.422126	-2.996900	3.476700	-10.419000	25.901874	0.000726	20.869865
1412.423450	-2.985800	3.476700	-10.380000	25.887341	0.000726	20.872335
1413.419599	-2.986900	3.475500	-10.379000	25.865608	0.000726	20.868046
1414.419935	-2.980800	3.475600	-10.358000	25.905276	0.000727	20.862852
1415.419307	-3.000900	3.475400	-10.428000	25.897207	0.000725	20.849531
1416.422402	-2.984100	3.475200	-10.369000	25.875671	0.000724	20.868673
1417.421978	-2.993700	3.474800	-10.402000	25.862579	0.000725	20.860736
1418.420296	-2.965700	3.475300	-10.305000	25.823508	0.000725	20.858946
1419.422836	-3.000200	3.472900	-10.418000	25.815508	0.000724	20.877462
1420.422309	-2.999600	3.473200	-10.417000	25.832772	0.000725	20.866355
1421.421164	-3.025700	3.471400	-10.502000	25.841694	0.000722	20.856353
1422.420069	-2.990900	3.473700	-10.388000	25.828355	0.000721	20.866660
1423.421399	-3.018200	3.470800	-10.474000	25.850962	0.000723	20.850490
1424.421849	-3.012600	3.470300	-10.454000	25.843114	0.000721	20.864891
1425.421653	-3.005000	3.470700	-10.428000	25.844604	0.000720	20.854534
1426.427471	-3.042700	3.469300	-10.555000	25.865823	0.000721	20.864944
1427.423267	-2.980800	3.471600	-10.347000	25.853727	0.000719	20.872233
1428.424050	-3.027000	3.468800	-10.499000	25.877750	0.000718	20.837572
1429.428053	-2.987300	3.470600	-10.366000	25.877479	0.000720	20.845360
1430.424991	-3.002700	3.469400	-10.417000	25.891171	0.000720	20.853424
1431.424721	-2.994100	3.469600	-10.387000	25.906647	0.000718	20.826299
1432.427413	-2.983200	3.468800	-10.346000	25.934149	0.000717	20.829746
1433.424464	-3.005600	3.467400	-10.419000	25.940580	0.000718	20.853749
1434.426353	-2.987800	3.467000	-10.358000	25.927094	0.000716	20.836882
1435.428183	-3.003700	3.467300	-10.413000	25.930426	0.000715	20.826480
1436.427289	-3.004800	3.465600	-10.413000	25.942923	0.000715	20.835241
1437.427954	-3.017700	3.465900	-10.458000	25.928866	0.000714	20.824913
1438.432210	-3.009400	3.466100	-10.430000	25.940116	0.000714	20.843326
1439.432764	-2.989100	3.466300	-10.359000	25.941839	0.000713	20.839841
1440.430906	-3.000700	3.465000	-10.396000	25.920579	0.000713	20.844087
1441.432633	-2.989700	3.465100	-10.359000	25.911361	0.000712	20.837672
1442.428257	-3.022500	3.463900	-10.467000	25.959904	0.000713	20.835231
1443.430248	-2.979900	3.465700	-10.326000	25.927958	0.000712	20.840121
1444.430332	-2.986900	3.464000	-10.345000	25.936630	0.000712	20.819436
1445.434526	-3.007600	3.463100	-10.415000	25.947017	0.000713	20.822284
1446.430957	-2.962600	3.463800	-10.259000	25.963859	0.000711	20.822610
1447.431621	-2.975400	3.463600	-10.305000	25.972133	0.000710	20.809111
1448.433503	-2.997500	3.464500	-10.383000	25.966991	0.000709	20.831920
1449.430923	-2.984000	3.461800	-10.329000	25.999062	0.000710	20.830950
1450.431190	-2.988200	3.461000	-10.342000	25.994667	0.000708	20.817526
1451.434437	-3.015600	3.461100	-10.436000	25.982129	0.000710	20.826266
1452.431974	-3.002900	3.461700	-10.393000	25.976240	0.000706	20.820350
1453.433622	-2.987600	3.461300	-10.339000	25.944048	0.000707	20.815509
1454.436321	-3.023100	3.459900	-10.459000	25.899937	0.000706	20.820032
1455.432925	-3.001900	3.458900	-10.382000	25.864385	0.000707	20.810396
1456.434506	-2.989500	3.460100	-10.342000	25.829042	0.000706	20.794806
1457.436915	-2.991800	3.459500	-10.349000	25.814655	0.000705	20.812598
1458.432865	-3.001000	3.458600	-10.378000	25.840123	0.000705	20.800249
1459.433150	-3.004500	3.458700	-10.391000	25.813444	0.000705	20.813751
1460.437458	-3.041500	3.456200	-10.511000	25.775759	0.000703	20.824735
1461.434553	-3.009400	3.457300	-10.403000	25.725155	0.000702	20.812786
1462.434652	-3.012200	3.456500	-10.411000	25.703190	0.000703	20.789301
1463.434975	-3.004600	3.456000	-10.383000	25.697282	0.000701	20.817506
1464.435721	-2.999600	3.457200	-10.369000	25.660735	0.000703	20.800713
1465.436559	-2.982900	3.456200	-10.308000	25.636933	0.000703	20.798144
1466.437658	-3.003800	3.455200	-10.378000	25.632885	0.000701	20.790286
1467.437924	-3.008400	3.455000	-10.392000	25.660816	0.000701	20.808382
1468.437601	-2.988700	3.455800	-10.326000	25.705167	0.000701	20.772795
1469.439265	-3.007600	3.453900	-10.387000	25.766637	0.000701	20.811779
1470.442863	-3.015500	3.452900	-10.412000	25.764974	0.000699	20.811531
1471.439209	-3.006200	3.452700	-10.379000	25.800874	0.000699	20.786426
1472.438599	-2.985100	3.453000	-10.306000	25.792808	0.000698	20.795867
1473.438951	-3.017800	3.451600	-10.415000	25.831091	0.000697	20.819624
1474.440012	-2.980900	3.452800	-10.291000	25.851637	0.000697	20.791900
1475.438940	-3.017200	3.451200	-10.411000	25.878792	0.000698	20.811118
1476.440466	-2.995100	3.451700	-10.337000	25.905297	0.000695	20.802183
1477.441637	-2.981700	3.451600	-10.290000	25.925296	0.000695	20.783868
1478.440832	-2.995500	3.450600	-10.335000	25.912307	0.000697	20.793578
1479.440523	-2.994600	3.450200	-10.330000	25.898651	0.000695	20.801671
1480.441228	-2.998800	3.450100	-10.345000	25.907862	0.000695	20.805234
1481.441332	-3.006200	3.450100	-10.370000	25.935064	0.000696	20.785620
1482.442756	-3.009400	3.448600	-10.376000	25.917182	0.000694	20.805588
1483.439526	-3.016300	3.447700	-10.398000	25.925628	0.000693	20.784676
1484.450498	-3.027500	3.447700	-10.437000	25.888493	0.000694	20.799053
1485.438783	-2.993200	3.448200	-10.320000	25.851727	0.000692	20.800525
1486.440453	-2.996200	3.448900	-10.333000	25.857267	0.000694	20.794237
1487.440267	-2.990200	3.446200	-10.303000	25.868571	0.000691	20.794212
1488.440614	-3.000000	3.446200	-10.338000	25.846936	0.000690	20.772479
1489.440267	-2.987900	3.446900	-10.298000	25.891103	0.000691	20.781760
1490.449411	-2.996400	3.446000	-10.324000	25.875133	0.000692	20.783735
1491.439651	-3.004400	3.446100	-10.352000	25.856200	0.000691	20.794587
1492.442256	-2.975400	3.446000	-10.251000	25.799907	0.000688	20.778816
1493.439800	-3.024300	3.444900	-10.416000	25.754497	0.000689	20.783937
1494.438673	-2.986500	3.445400	-10.289000	25.759936	0.000689	20.774227
1495.440037	-2.987300	3.445700	-10.292000	25.789522	0.000687	20.790196
1496.439962	-2.982200	3.443700	-10.270000	25.804980	0.000689	20.782490
1497.441865	-3.005900	3.443500	-10.349000	25.826890	0.000686	20.796913
1498.441333	-2.998800	3.443400	-10.325000	25.835214	0.000688	20.792946
1499.442906	-2.983100	3.443700	-10.272000	25.868673	0.000686	20.788151
1500.441719	-3.001500	3.441700	-10.329000	25.867458	0.000686	20.773180
1501.444187	-2.994300	3.441800	-10.305000	25.889215	0.000688	20.774174
1502.442314	-2.992000	3.442100	-10.298000	25.905936	0.000685	20.774376
1503.442345	-2.983400	3.442300	-10.269000	25.910229	0.000687	20.770154
1504.445277	-3.013500	3.439700	-10.365000	25.935346	0.000686	20.775947
1505.442362	-3.003300	3.441500	-10.334000	25.933458	0.000686	20.764093
1506.442736	-3.018900	3.439400	-10.383000	25.925230	0.000685	20.776215
1507.442095	-3.001400	3.439200	-10.321000	25.945102	0.000685	20.791438
1508.443521	-3.008600	3.440400	-10.350000	25.942865	0.000684	20.779708
1509.443108	-3.006800	3.438300	-10.337000	25.950339	0.000683	20.793380
1510.448722	-3.000400	3.439100	-10.318000	25.935265	0.000685	20.764485
1511.445373	-3.007400	3.436800	-10.334000	25.920355	0.000683	20.786965
1512.446681	-2.987400	3.438700	-10.271000	25.949810	0.000682	20.764399
1513.446658	-3.015000	3.438000	-10.364000	25.942357	0.000683	20.787732
1514.449304	-3.025200	3.435600	-10.392000	25.960489	0.000683	20.781766
1515.448291	-3.033700	3.436900	-10.425000	25.923060	0.000683	20.765974
1516.445205	-2.982500	3.438400	-10.254000	25.888305	0.000680	20.778950
1517.448794	-3.000700	3.436700	-10.310000	25.876674	0.000679	20.767739
1518.446365	-2.989800	3.435400	-10.269000	25.867210	0.000678	20.783362
1519.446531	-3.023900	3.433400	-10.381000	25.901292	0.000678	20.773029
1520.451278	-3.004900	3.435000	-10.321000	25.906734	0.000678	20.763797
1521.446568	-3.007100	3.435200	-10.329000	25.884202	0.000679	20.750644
1522.445795	-3.013300	3.433600	-10.345000	25.891774	0.000677	20.759200
1523.449755	-3.006100	3.433300	-10.320000	25.899083	0.000676	20.762750
1524.448025	-2.997800	3.433700	-10.292000	25.919153	0.000678	20.777222
1525.448060	-2.993800	3.432500	-10.275000	25.883504	0.000677	20.774600
1526.450480	-3.002000	3.430600	-10.297000	25.927722	0.000676	20.746476
1527.450083	-3.005400	3.432200	-10.313000	25.915353	0.000677	20.766766
1528.448949	-3.003000	3.432100	-10.305000	25.909041	0.000674	20.771805
1529.454244	-3.022900	3.431500	-10.372000	25.918755	0.000675	20.774926
1530.449398	-2.996100	3.430700	-10.276000	25.923971	0.000673	20.764519
1531.450047	-2.985400	3.433200	-10.247000	25.971865	0.000674	20.765694
1532.457133	-2.973800	3.430800	-10.201000	25.948715	0.000673	20.766618
1533.449350	-3.013900	3.429400	-10.334000	25.949113	0.000672	20.777923
1534.450576	-2.985800	3.431900	-10.245000	25.929019	0.000670	20.781918
1535.453871	-3.004800	3.430300	-10.307000	25.920298	0.000671	20.777424
1536.451494	-3.004200	3.430400	-10.305000	25.937067	0.000670	20.754916
1537.448655	-3.005500	3.429400	-10.306000	25.972242	0.000669	20.760857
1538.449421	-3.012800	3.428700	-10.330000	25.964445	0.000668	20.762980
1539.449766	-3.004200	3.428300	-10.298000	26.029397	0.000667	20.756639
1540.450431	-2.998800	3.427900	-10.278000	26.037046	0.000667	20.743461
1541.457142	-2.976400	3.428200	-10.201000	26.039607	0.000668	20.740818
1542.452130	-3.001800	3.427300	-10.287000	26.068693	0.000666	20.763405
1543.451187	-3.004400	3.426100	-10.292000	26.047580	0.000668	20.748830
1544.451099	-3.015600	3.425800	-10.330000	26.065513	0.000665	20.763529
1545.454301	-3.002100	3.426100	-10.284000	26.044256	0.000665	20.770146
1546.450907	-2.976600	3.425300	-10.194000	26.032306	0.000666	20.745337
1547.453154	-3.010000	3.424000	-10.306000	25.966287	0.000665	20.770521
1548.454154	-2.984400	3.425300	-10.221000	25.997260	0.000665	20.775086
1549.453435	-3.006300	3.423200	-10.291000	25.960451	0.000665	20.749959
1550.454086	-2.973300	3.425500	-10.183000	25.975377	0.000665	20.747411
1551.456770	-2.993800	3.423600	-10.249000	25.987328	0.000664	20.775065
1552.454838	-2.981700	3.423100	-10.206000	26.016560	0.000662	20.730464
1553.453824	-3.013700	3.422200	-10.313000	26.023569	0.000661	20.747938
1554.458829	-3.024600	3.421400	-10.346000	26.005709	0.000663	20.739952
1555.454659	-2.979600	3.422400	-10.195000	26.013531	0.000662	20.738327
1556.456158	-3.001900	3.421700	-10.271000	25.977840	0.000660	20.770274
1557.456722	-3.000700	3.420600	-10.264000	25.954393	0.000660	20.738657
1558.459882	-2.980400	3.422100	-10.199000	25.942520	0.000660	20.742376
1559.458488	-3.018600	3.420300	-10.323000	25.963016	0.000659	20.751587
1560.459320	-2.980400	3.419500	-10.190000	25.970415	0.000660	20.742900
1561.460865	-3.002600	3.420500	-10.269000	25.998039	0.000656	20.749315
1562.458474	-3.003200	3.420200	-10.271000	26.021164	0.000658	20.735564
1563.457689	-2.995700	3.419100	-10.241000	26.006985	0.000659	20.743604
1564.461016	-2.999800	3.420200	-10.259000	25.980978	0.000657	20.727433
1565.459521	-2.959100	3.419000	-10.116000	25.993594	0.000657	20.748169
1566.456663	-3.001700	3.417700	-10.258000	26.034332	0.000656	20.732673
1567.457979	-3.008400	3.417200	-10.280000	26.049060	0.000658	20.720444
1568.463704	-2.996600	3.416300	-10.236000	26.074745	0.000657	20.745303
1569.458471	-2.978600	3.418000	-10.180000	26.088631	0.000658	20.738866
1570.459713	-2.971200	3.416800	-10.151000	26.077654	0.000657	20.732578
1571.460842	-2.992500	3.415800	-10.221000	26.080756	0.000655	20.739489
1572.459689	-2.993200	3.416400	-10.225000	26.046458	0.000656	20.734426
1573.461271	-3.011200	3.414800	-10.281000	26.037336	0.000656	20.748020
1574.462600	-3.007700	3.413300	-10.265000	25.971666	0.000656	20.721870
1575.462022	-3.002000	3.415000	-10.251000	25.912547	0.000655	20.735498
1576.462120	-2.991900	3.414500	-10.215000	25.902086	0.000655	20.727833
1577.464785	-3.014900	3.412000	-10.285000	25.870188	0.000654	20.737040
1578.465601	-2.999500	3.414900	-10.240000	25.859233	0.000654	20.747373
1579.464884	-2.990100	3.412700	-10.204000	25.890410	0.000654	20.739811
1580.464126	-3.004300	3.413100	-10.254000	25.906978	0.000654	20.731325
1581.466778	-3.013400	3.411100	-10.278000	25.907520	0.000652	20.749888
1582.469226	-3.000600	3.412900	-10.239000	25.882378	0.000650	20.738381
1583.464047	-2.982900	3.412000	-10.177000	25.876348	0.000649	20.730901
1584.468088	-3.002000	3.410600	-10.238000	25.893406	0.000650	20.745667
1585.468068	-3.002500	3.410800	-10.240000	25.921356	0.000651	20.744347
1586.463825	-2.991700	3.410900	-10.204000	25.915392	0.000650	20.728398
1587.466383	-2.987500	3.410800	-10.189000	25.906449	0.000649	20.743597
1588.465994	-2.999400	3.408600	-10.223000	25.874301	0.000649	20.729792
1589.466087	-3.006900	3.409000	-10.250000	25.834177	0.000646	20.722676
1590.472631	-3.009800	3.408300	-10.257000	25.834226	0.000647	20.732683
1591.466679	-2.992900	3.408900	-10.201000	25.833430	0.000647	20.738047
1592.464927	-2.982200	3.409000	-10.165000	25.847241	0.000646	20.729636
1593.469288	-3.018100	3.406800	-10.281000	25.872254	0.000645	20.738167
1594.466738	-3.004200	3.408800	-10.240000	25.912545	0.000646	20.735970
1595.467644	-2.999000	3.407100	-10.217000	25.922108	0.000644	20.725662
1596.472832	-3.004400	3.405900	-10.231000	25.956459	0.000644	20.730775
1597.471136	-2.979200	3.406900	-10.149000	25.946306	0.000644	20.748550
1598.468621	-2.996000	3.406200	-10.203000	25.907227	0.000644	20.745800
1599.471731	-2.966000	3.406500	-10.102000	25.880175	0.000645	20.750867
1600.471532	-2.995700	3.406500	-10.204000	25.860746	0.000643	20.731822
1601.468679	-2.995600	3.404200	-10.196000	25.918304	0.000644	20.737962
1602.473194	-2.984400	3.405200	-10.161000	25.928909	0.000643	20.739607
1603.469155	-3.000800	3.404200	-10.215000	25.974936	0.000641	20.736535
1604.469538	-2.986000	3.405200	-10.167000	26.001484	0.000640	20.738552
1605.483100	-3.005300	3.403000	-10.225000	26.030572	0.000639	20.719411
1606.468791	-2.985500	3.403000	-10.158000	26.057369	0.000640	20.729741
1607.470515	-2.994000	3.403600	-10.190000	26.056577	0.000639	20.733212
1608.470649	-2.996900	3.402100	-10.194000	26.010599	0.000638	20.738701
1609.469306	-2.996900	3.403000	-10.197000	25.949569	0.000638	20.739974
1610.470221	-3.008300	3.402300	-10.233000	25.923386	0.000636	20.725522
1611.472324	-3.001000	3.401700	-10.208000	25.877304	0.000638	20.734231
1612.469985	-3.009400	3.400300	-10.232000	25.831893	0.000636	20.719907
1613.471219	-3.023500	3.400100	-10.279000	25.844559	0.000637	20.730735
1614.472009	-3.025400	3.401000	-10.288000	25.814301	0.000635	20.724995
1615.472986	-3.007100	3.400800	-10.226000	25.865997	0.000635	20.710543
1616.472228	-2.987900	3.400900	-10.161000	25.896959	0.000635	20.732165
1617.470602	-2.997500	3.401400	-10.193000	25.898589	0.000633	20.757985
1618.472209	-2.999600	3.398600	-10.194000	25.925619	0.000635	20.721127
1619.471786	-3.016000	3.399700	-10.253000	25.911512	0.000631	20.717387
1620.471179	-2.998800	3.399600	-10.192000	25.896655	0.000633	20.749405
1621.471912	-2.971400	3.398700	-10.097000	25.870745	0.000632	20.725745
1622.474512	-2.997400	3.398800	-10.186000	25.855243	0.000632	20.752848
1623.471741	-3.002100	3.397300	-10.198000	25.862573	0.000632	20.725597
1624.474274	-2.989600	3.396900	-10.154000	25.897328	0.000633	20.736330
1625.472058	-2.988600	3.396600	-10.149000	25.929197	0.000629	20.717136
1626.471830	-2.991900	3.396300	-10.161000	25.891118	0.000627	20.720607
1627.475902	-2.998900	3.397000	-10.186000	25.878576	0.000630	20.730767
1628.472639	-3.023600	3.394800	-10.263000	25.854126	0.000629	20.727543
1629.471533	-2.986200	3.396100	-10.140000	25.876708	0.000626	20.727469
1630.473238	-3.019300	3.394200	-10.247000	25.873552	0.000626	20.730462
1631.474106	-2.996100	3.393600	-10.167000	25.916285	0.000626	20.714595
1632.475177	-3.008300	3.394600	-10.211000	25.932903	0.000626	20.747413
1633.474913	-2.979800	3.395200	-10.116000	25.937175	0.000626	20.737954
1634.475772	-3.012700	3.393900	-10.223000	25.950690	0.000626	20.737307
1635.475928	-2.981700	3.392300	-10.113000	25.982881	0.000625	20.735509
1636.477199	-3.003000	3.392800	-10.188000	26.003618	0.000624	20.723152
1637.476985	-3.028200	3.391600	-10.269000	25.986009	0.000623	20.739125
1638.477859	-3.029000	3.391000	-10.270000	25.996642	0.000623	20.724203
1639.477873	-2.994000	3.391400	-10.152000	25.979852	0.000624	20.719189
1640.478282	-2.991400	3.391200	-10.144000	25.988816	0.000623	20.744316
1641.479355	-3.002300	3.390100	-10.177000	26.013804	0.000625	20.729592
1642.479998	-2.999400	3.391600	-10.172000	26.050934	0.000624	20.726595
1643.482055	-3.004700	3.391700	-10.189000	26.046712	0.000623	20.727568
1644.479908	-2.993700	3.390800	-10.150000	26.060869	0.000621	20.737526
1645.480774	-2.989300	3.389900	-10.131000	26.090821	0.000620	20.738697
1646.483698	-2.988500	3.391400	-10.134000	26.116398	0.000620	20.723618
1647.481041	-2.977900	3.390100	-10.095000	26.111831	0.000620	20.743686
1648.480707	-3.016700	3.389000	-10.223000	26.144490	0.000621	20.755165
1649.482384	-3.003700	3.388100	-10.176000	26.156956	0.000619	20.732603
1650.483695	-3.002500	3.387800	-10.171000	26.157202	0.000618	20.745653
1651.480369	-3.015400	3.387200	-10.213000	26.164305	0.000619	20.737143
1652.482296	-2.997700	3.387100	-10.152000	26.190729	0.000616	20.706321
1653.484426	-2.998600	3.386500	-10.154000	26.200113	0.000618	20.722864
1654.483318	-2.985000	3.387700	-10.111000	26.192514	0.000617	20.718547
1655.484162	-2.977400	3.387500	-10.085000	26.185383	0.000617	20.750738
1656.484723	-2.998700	3.385600	-10.152000	26.186573	0.000617	20.731544
1657.484208	-2.996800	3.385500	-10.145000	26.190246	0.000616	20.738080
1658.483523	-3.009100	3.384700	-10.183000	26.161934	0.000614	20.736657
1659.484828	-3.009100	3.385200	-10.186000	26.156694	0.000616	20.747514
1660.485785	-3.051800	3.382100	-10.320000	26.157807	0.000616	20.734406
1661.486489	-3.017700	3.382700	-10.207000	26.199007	0.000615	20.747358
1662.490047	-3.007500	3.383200	-10.174000	26.187830	0.000613	20.750825
1663.486878	-3.028800	3.383300	-10.246000	26.183009	0.000616	20.735075
1664.488297	-3.000600	3.383000	-10.150000	26.170039	0.000611	20.761872
1665.487350	-3.017900	3.382300	-10.206000	26.168698	0.000612	20.748196
1666.487571	-2.997900	3.382100	-10.138000	26.120587	0.000613	20.732095
1667.486322	-2.995500	3.381500	-10.129000	26.128482	0.000613	20.740502
1668.487151	-3.004300	3.380800	-10.155000	26.137596	0.000612	20.742548
1669.490550	-2.989300	3.381100	-10.106000	26.182645	0.000610	20.774540
1670.489061	-3.007800	3.379500	-10.164000	26.158027	0.000612	20.739370
1671.489534	-2.982300	3.381400	-10.083000	26.154724	0.000610	20.736524
1672.490188	-2.986000	3.380900	-10.094000	26.136391	0.000610	20.745604
1673.488491	-2.998100	3.379700	-10.131000	26.137310	0.000608	20.762650
1674.489330	-3.018900	3.378800	-10.198000	26.156030	0.000610	20.746846
1675.493188	-3.000000	3.378700	-10.135000	26.184338	0.000608	20.764861
1676.489854	-2.991200	3.379100	-10.107000	26.180137	0.000606	20.766329
1677.490962	-3.032100	3.378400	-10.243000	26.212966	0.000606	20.765653
1678.497908	-3.009200	3.377200	-10.161000	26.177101	0.000606	20.748105
1679.492430	-3.026200	3.376500	-10.216000	26.143598	0.000606	20.736251
1680.491394	-3.004000	3.376600	-10.142000	26.103706	0.000604	20.739315
1681.492954	-2.990400	3.378300	-10.102000	26.082569	0.000603	20.746527
1682.491591	-3.012900	3.376700	-10.172000	26.106657	0.000602	20.767885
1683.491588	-3.016500	3.374500	-10.179000	26.098311	0.000602	20.753335
1684.491891	-3.020000	3.375200	-10.192000	26.118676	0.000602	20.772376
1685.493178	-3.015100	3.375200	-10.176000	26.137347	0.000602	20.770748
1686.491230	-3.001700	3.375400	-10.130000	26.169385	0.000601	20.770224
1687.490292	-2.981700	3.377000	-10.068000	26.175787	0.000599	20.745836
1688.495489	-3.010500	3.375200	-10.160000	26.211578	0.000599	20.769948
1689.490963	-2.993700	3.375900	-10.106000	26.227937	0.000599	20.773111
1690.492744	-2.998500	3.374200	-10.117000	26.243905	0.000599	20.757864
1691.495761	-2.991300	3.374600	-10.093000	26.228458	0.000600	20.763677
1692.492659	-2.997400	3.374200	-10.113000	26.244972	0.000597	20.763203
1693.493689	-3.014400	3.373400	-10.168000	26.234715	0.000596	20.760956
1694.497566	-3.010700	3.373200	-10.155000	26.224236	0.000599	20.759435
1695.499420	-3.024400	3.372000	-10.196000	26.181864	0.000596	20.757633
1696.494669	-3.005000	3.372800	-10.135000	26.202876	0.000595	20.761678
1697.496444	-3.017900	3.372000	-10.175000	26.218070	0.000595	20.770308
1698.497437	-3.012200	3.370800	-10.152000	26.208140	0.000595	20.776451
1699.497520	-3.036300	3.369100	-10.228000	26.212165	0.000595	20.765797
1700.503359	-3.001300	3.370300	-10.114000	26.220384	0.000594	20.782591
1701.500343	-3.020400	3.369300	-10.176000	26.218148	0.000594	20.780818
1702.498034	-3.019900	3.370000	-10.176000	26.237226	0.000591	20.778653
1703.499643	-3.006200	3.368300	-10.124000	26.215193	0.000592	20.775004
1704.499305	-3.014400	3.369600	-10.157000	26.229275	0.000591	20.784887
1705.501479	-3.024400	3.367800	-10.184000	26.233997	0.000592	20.782046
1706.500314	-2.999500	3.367500	-10.099000	26.237571	0.000591	20.771887
1707.501012	-2.999400	3.368100	-10.101000	26.213507	0.000591	20.789431
1708.501023	-2.996100	3.367000	-10.087000	26.207602	0.000591	20.763108
1709.500982	-2.989400	3.368200	-10.068000	26.221159	0.000589	20.777205
1710.505272	-3.004200	3.366600	-10.113000	26.229676	0.000590	20.779127
1711.502518	-2.976800	3.369400	-10.029000	26.230148	0.000589	20.785291
1712.502645	-3.013200	3.367900	-10.147000	26.191929	0.000590	20.780549
1713.503752	-2.982800	3.367300	-10.044000	26.141738	0.000588	20.782273
1714.503358	-3.010500	3.364700	-10.129000	26.107833	0.000590	20.762428
1715.502432	-2.994400	3.366200	-10.079000	26.045766	0.000588	20.778776
1716.503886	-3.016100	3.363900	-10.144000	26.027062	0.000588	20.769467
1717.502460	-3.008200	3.365400	-10.123000	26.016376	0.000588	20.783861
1718.502471	-3.021000	3.364700	-10.163000	26.007783	0.000588	20.775701
1719.504263	-3.020000	3.365000	-10.161000	26.002591	0.000585	20.782814
1720.502404	-3.015200	3.364000	-10.142000	26.011456	0.000584	20.776073
1721.503772	-3.013100	3.363000	-10.133000	26.015256	0.000586	20.775149
1722.504961	-3.012600	3.362900	-10.130000	26.071661	0.000585	20.800053
1723.504194	-2.988400	3.363400	-10.050000	26.069971	0.000584	20.790768
1724.503924	-3.015200	3.363400	-10.140000	26.125729	0.000581	20.786101
1725.503839	-2.994300	3.361100	-10.063000	26.144875	0.000581	20.782106
1726.506495	-2.997500	3.363100	-10.080000	26.143160	0.000583	20.792710
1727.509216	-3.021600	3.360300	-10.152000	26.135684	0.000582	20.793259
1728.504786	-3.004000	3.360200	-10.093000	26.152992	0.000580	20.791210
1729.506726	-2.983600	3.362100	-10.029000	26.116287	0.000579	20.780407
1730.504194	-2.959100	3.361600	-9.946100	26.138688	0.000580	20.808605
1731.502976	-3.014800	3.359500	-10.128000	26.171493	0.000580	20.784197
1732.506430	-3.021800	3.358800	-10.149000	26.185896	0.000577	20.819057
1733.503806	-3.005200	3.359700	-10.094000	26.189030	0.000577	20.797551
1734.502625	-2.999700	3.359900	-10.078000	26.199703	0.000577	20.783620
1735.504594	-2.993300	3.358700	-10.053000	26.176011	0.000575	20.797746
1736.509770	-2.993800	3.359100	-10.056000	26.170300	0.000575	20.788687
1737.505298	-2.993100	3.358700	-10.052000	26.182420	0.000575	20.802763
1738.506000	-2.994800	3.358500	-10.058000	26.192400	0.000575	20.814687
1739.510312	-2.997300	3.356500	-10.060000	26.180582	0.000574	20.782898
1740.509817	-2.995500	3.357400	-10.056000	26.120305	0.000576	20.802936
1741.509593	-3.015500	3.356200	-10.120000	26.072422	0.000573	20.808877
1742.510811	-3.012300	3.356100	-10.109000	26.067949	0.000574	20.812444
1743.508564	-3.010500	3.355000	-10.099000	26.027290	0.000572	20.800990
1744.508063	-3.019600	3.355400	-10.131000	26.012952	0.000573	20.802706
1745.508407	-3.021300	3.354800	-10.135000	26.034193	0.000572	20.793701
1746.509807	-3.023000	3.354100	-10.138000	26.058535	0.000571	20.794925
1747.508000	-3.005300	3.354500	-10.080000	26.086279	0.000570	20.811422
1748.508528	-3.013300	3.354500	-10.107000	26.160239	0.000569	20.795647
1749.511344	-3.012300	3.354900	-10.105000	26.174124	0.000570	20.802487
1750.510865	-3.042300	3.352800	-10.199000	26.174567	0.000568	20.797717
1751.510252	-3.023000	3.351300	-10.130000	26.178145	0.000568	20.804631
1752.511539	-3.004800	3.353800	-10.077000	26.212689	0.000567	20.794299
1753.508447	-2.999500	3.353200	-10.057000	26.198661	0.000568	20.820030
1754.510344	-2.981500	3.353100	-9.996800	26.171838	0.000569	20.808251
1755.512849	-2.990700	3.352600	-10.026000	26.150601	0.000566	20.821049
1756.511311	-2.984600	3.352000	-10.004000	26.131905	0.000566	20.813644
1757.512904	-2.993000	3.351600	-10.030000	26.133071	0.000565	20.811496
1758.511521	-2.971300	3.352700	-9.960800	26.063804	0.000562	20.810650
1759.511147	-2.998600	3.350700	-10.047000	26.091474	0.000564	20.803365
1760.514009	-2.983500	3.351200	-9.998100	26.079849	0.000563	20.795477
1761.512750	-2.996400	3.350000	-10.036000	26.098651	0.000563	20.804412
1762.515790	-2.992300	3.349500	-10.021000	26.073866	0.000564	20.837354
1763.513759	-2.983400	3.349900	-9.992900	26.121999	0.000564	20.807483
1764.515438	-3.012800	3.347900	-10.086000	26.165761	0.000562	20.808308
1765.518081	-3.002400	3.348800	-10.053000	26.215654	0.000564	20.816719
1766.515603	-3.012300	3.347400	-10.082000	26.246451	0.000563	20.831545
1767.515527	-2.981800	3.349600	-9.987300	26.270813	0.000560	20.817147
1768.514545	-2.990100	3.348700	-10.012000	26.288616	0.000563	20.810382
1769.515967	-3.014200	3.349200	-10.094000	26.316083	0.000560	20.810010
1770.515073	-3.028200	3.346700	-10.133000	26.308858	0.000561	20.816500
1771.514494	-3.007800	3.345600	-10.061000	26.297214	0.000562	20.841307
1772.519458	-2.980700	3.348100	-9.978300	26.295996	0.000561	20.806893
1773.516983	-3.012800	3.345300	-10.077000	26.270370	0.000559	20.803899
1774.517058	-3.006300	3.346600	-10.060000	26.243623	0.000559	20.828229
1775.519824	-3.020300	3.344500	-10.100000	26.213626	0.000560	20.838388
1776.519744	-3.018600	3.345300	-10.097000	26.185886	0.000558	20.822840
1777.517491	-3.014200	3.344800	-10.080000	26.150475	0.000558	20.812862
1778.519811	-3.013100	3.344700	-10.076000	26.189044	0.000557	20.816532
1779.519806	-2.991000	3.344100	-10.001000	26.215739	0.000557	20.831028
1780.520350	-3.014000	3.344700	-10.079000	26.247131	0.000557	20.827486
1781.519544	-2.980800	3.344300	-9.967900	26.210725	0.000556	20.824567
1782.520027	-2.999200	3.343000	-10.025000	26.264514	0.000558	20.848274
1783.517403	-2.993800	3.342300	-10.005000	26.304196	0.000556	20.839789
1784.519396	-2.995800	3.342000	-10.011000	26.314309	0.000556	20.826719
1785.518696	-3.000400	3.342400	-10.027000	26.328410	0.000555	20.841838
1786.519863	-3.008200	3.341000	-10.050000	26.285993	0.000554	20.824341
1787.519491	-2.993800	3.341300	-10.002000	26.245592	0.000554	20.842061
1788.519858	-2.988000	3.341600	-9.984100	26.232233	0.000553	20.847128
1789.519548	-3.016500	3.341300	-10.078000	26.261884	0.000553	20.845157
1790.526311	-3.003900	3.339700	-10.031000	26.290641	0.000553	20.837546
1791.520854	-2.997700	3.340000	-10.011000	26.313411	0.000554	20.855213
1792.521146	-2.987800	3.339700	-9.978000	26.317879	0.000550	20.858755
1793.519588	-2.996200	3.339100	-10.003000	26.340623	0.000552	20.812388
1794.523572	-2.978400	3.339300	-9.944300	26.356115	0.000550	20.842181
1795.519648	-2.990400	3.337900	-9.981100	26.361576	0.000551	20.829178
1796.521223	-3.003700	3.338000	-10.025000	26.369223	0.000550	20.845397
1797.523183	-2.981000	3.337400	-9.946700	26.384467	0.000549	20.853606
1798.523958	-2.996300	3.339400	-10.005000	26.408150	0.000549	20.829995
1799.521631	-2.993700	3.337300	-9.990000	26.400430	0.000551	20.832192
1800.522469	-2.993300	3.336000	-9.985200	26.341130	0.000551	20.837553
1801.527954	-2.994500	3.336200	-9.988800	26.297900	0.000551	20.852428
1802.521117	-3.012500	3.335400	-10.047000	26.253271	0.000548	20.846458
1803.524259	-3.001200	3.335500	-10.009000	26.249119	0.000547	20.839442
1804.521289	-2.991100	3.335100	-9.974800	26.268760	0.000546	20.845903
1805.525270	-3.001900	3.334100	-10.008000	26.301012	0.000547	20.854607
1806.523715	-2.985300	3.336000	-9.958200	26.355589	0.000545	20.851136
1807.523112	-3.001500	3.334200	-10.007000	26.338077	0.000544	20.857717
1808.522597	-3.025600	3.332600	-10.081000	26.354561	0.000545	20.847257
1809.522511	-2.988500	3.334200	-9.963600	26.372440	0.000544	20.846260
1810.524804	-2.998300	3.334300	-9.994800	26.364018	0.000544	20.858184
1811.523764	-3.008500	3.332900	-10.025000	26.331063	0.000540	20.865840
1812.525832	-3.029000	3.331500	-10.090000	26.320356	0.000540	20.873097
1813.525017	-3.017800	3.333000	-10.057000	26.328648	0.000540	20.871947
1814.523484	-3.009400	3.332500	-10.027000	26.361222	0.000542	20.859641
1815.524625	-3.005700	3.331000	-10.009000	26.407033	0.000539	20.868699
1816.524610	-2.982300	3.332200	-9.937500	26.421207	0.000541	20.857815
1817.526630	-2.986700	3.331600	-9.949300	26.439954	0.000537	20.852476
1818.524641	-2.999000	3.330400	-9.986300	26.452885	0.000538	20.881592
1819.525620	-2.997500	3.331300	-9.985000	26.429248	0.000538	20.847406
1820.527585	-2.998700	3.330000	-9.984700	26.481185	0.000536	20.879692
1821.525589	-3.005500	3.329800	-10.007000	26.484713	0.000535	20.860006
1822.526229	-3.010700	3.328900	-10.021000	26.466435	0.000535	20.870082
1823.529532	-3.014900	3.328400	-10.033000	26.445875	0.000535	20.877392
1824.528114	-3.012300	3.329200	-10.028000	26.404136	0.000532	20.856304
1825.527495	-2.981500	3.329800	-9.927100	26.401925	0.000534	20.864513
1826.531388	-3.005900	3.329500	-10.007000	26.415282	0.000534	20.869877
1827.526491	-3.001000	3.327800	-9.985700	26.443341	0.000533	20.875793
1828.527785	-3.004500	3.328100	-9.997900	26.406146	0.000532	20.875393
1829.534499	-2.993300	3.327500	-9.959500	26.448502	0.000532	20.870075
1830.528808	-2.990400	3.325400	-9.942900	26.464889	0.000532	20.872322
1831.530490	-3.006300	3.326100	-9.998200	26.483833	0.000531	20.878560
1832.529910	-3.023000	3.324900	-10.049000	26.501909	0.000530	20.889143
1833.530055	-2.989100	3.326500	-9.941700	26.480981	0.000529	20.875220
1834.532788	-3.003000	3.324000	-9.980300	26.481696	0.000528	20.877835
1835.528608	-3.006500	3.325000	-9.995600	26.449797	0.000530	20.879437
1836.531607	-2.988500	3.324600	-9.935200	26.458486	0.000527	20.863515
1837.530269	-3.004900	3.323600	-9.985500	26.460299	0.000527	20.900422
1838.529288	-2.998800	3.322900	-9.963800	26.461865	0.000526	20.869757
1839.530214	-2.989800	3.323700	-9.936900	26.482446	0.000525	20.877640
1840.533126	-2.993200	3.323900	-9.948000	26.497442	0.000526	20.883705
1841.531646	-3.024300	3.322300	-10.047000	26.495633	0.000524	20.866240
1842.534259	-3.016800	3.322400	-10.022000	26.498688	0.000525	20.897284
1843.530619	-3.013700	3.322600	-10.013000	26.561672	0.000523	20.907014
1844.530999	-3.004500	3.321600	-9.978900	26.570708	0.000524	20.886227
1845.531764	-2.976600	3.322500	-9.888600	26.569096	0.000523	20.876547
1846.529974	-3.006900	3.320800	-9.983900	26.599037	0.000523	20.864920
1847.531961	-2.996400	3.320200	-9.946800	26.601646	0.000521	20.882240
1848.532220	-3.012100	3.320800	-10.002000	26.600878	0.000519	20.885261
1849.532178	-2.980600	3.321300	-9.897800	26.630217	0.000520	20.884409
1850.531778	-2.981800	3.321900	-9.903700	26.618232	0.000518	20.887059
1851.531935	-2.991600	3.319800	-9.930600	26.620192	0.000519	20.906098
1852.532241	-2.981100	3.319300	-9.893800	26.603187	0.000518	20.900384
1853.532372	-3.002400	3.318600	-9.963000	26.606218	0.000518	20.894896
1854.535805	-2.978900	3.319300	-9.886600	26.592092	0.000518	20.890654
1855.533513	-3.006300	3.318800	-9.976100	26.561510	0.000518	20.890257
1856.530929	-3.010300	3.317900	-9.986400	26.572905	0.000517	20.887013
1857.535207	-3.009100	3.318000	-9.982800	26.588896	0.000516	20.882700
1858.537029	-3.000700	3.318500	-9.956500	26.592124	0.000516	20.890211
1859.537743	-2.998800	3.317100	-9.945500	26.630949	0.000515	20.906480
1860.533190	-3.005000	3.316500	-9.964800	26.604363	0.000515	20.899195
1861.539840	-3.001100	3.316600	-9.951800	26.566854	0.000516	20.887568
1862.536940	-2.981100	3.316500	-9.886000	26.554667	0.000513	20.898077
1863.535021	-3.003700	3.315600	-9.957900	26.549007	0.000512	20.888120
1864.538379	-2.994500	3.316200	-9.928500	26.544072	0.000513	20.884582
1865.538740	-2.999100	3.315600	-9.942500	26.493447	0.000510	20.897231
1866.535971	-3.001400	3.314800	-9.947800	26.489304	0.000510	20.891170
1867.539466	-2.995800	3.313800	-9.926500	26.507750	0.000512	20.883160
1868.537001	-3.013000	3.312600	-9.980400	26.505789	0.000511	20.871707
1869.539813	-3.001500	3.313900	-9.945400	26.522553	0.000511	20.868169
1870.541187	-3.021800	3.312400	-10.007000	26.539682	0.000512	20.864050
1871.539002	-3.004900	3.312900	-9.954300	26.583229	0.000509	20.886012
1872.538950	-2.993400	3.311500	-9.911400	26.579607	0.000508	20.873363
1873.539826	-2.994000	3.312500	-9.916700	26.614938	0.000508	20.860516
1874.542323	-2.999300	3.311700	-9.930900	26.581498	0.000509	20.875737
1875.544027	-3.000500	3.311400	-9.934100	26.575295	0.000508	20.858124
1876.540532	-3.003000	3.310700	-9.941600	26.583166	0.000505	20.867932
1877.543577	-2.989200	3.311100	-9.895000	26.585254	0.000508	20.864815
1878.542309	-2.987500	3.310400	-9.888200	26.606955	0.000504	20.879516
1879.544620	-2.983600	3.310800	-9.876900	26.646574	0.000505	20.870982
1880.542899	-2.986300	3.309900	-9.883300	26.642530	0.000504	20.857908
1881.542897	-2.962900	3.311600	-9.809500	26.628310	0.000502	20.885337
1882.541574	-2.986300	3.309500	-9.882500	26.579330	0.000503	20.851274
1883.542559	-3.012500	3.308000	-9.964300	26.540306	0.000503	20.861832
1884.543686	-3.014900	3.307700	-9.971200	26.503959	0.000502	20.862282
1885.542748	-2.997800	3.307600	-9.914000	26.522036	0.000503	20.860537
1886.543670	-3.006000	3.307000	-9.940000	26.532213	0.000500	20.847060
1887.543549	-3.004700	3.307600	-9.936900	26.538824	0.000500	20.862239
1888.541573	-3.008500	3.306100	-9.944800	26.518692	0.000500	20.854332
1889.543401	-3.014700	3.306300	-9.965200	26.495504	0.000501	20.859473
1890.540569	-3.016200	3.305300	-9.968000	26.471270	0.000500	20.864511
1891.542879	-3.018600	3.305000	-9.975600	26.489893	0.000500	20.888444
1892.542552	-2.997600	3.305500	-9.907300	26.515587	0.000498	20.862590
1893.542459	-3.006300	3.303800	-9.930500	26.523811	0.000499	20.859950
1894.545330	-3.033100	3.303500	-10.019000	26.512740	0.000498	20.842185
1895.543679	-3.004000	3.304400	-9.925300	26.487513	0.000498	20.841484
1896.543685	-3.002200	3.304500	-9.919800	26.494568	0.000497	20.845730
1897.544044	-3.006800	3.303100	-9.930700	26.520636	0.000496	20.872405
1898.546763	-3.009000	3.303800	-9.939800	26.531538	0.000498	20.853967
1899.545491	-3.006300	3.302500	-9.927300	26.528978	0.000496	20.849499
1900.546688	-2.997400	3.301000	-9.893100	26.501073	0.000497	20.857484
1901.546775	-3.021100	3.300700	-9.970800	26.527067	0.000495	20.854689
1902.548246	-3.013300	3.301100	-9.946000	26.552789	0.000496	20.840716
1903.549691	-3.029600	3.301500	-10.002000	26.587662	0.000495	20.839736
1904.548389	-3.004900	3.301100	-9.918400	26.568647	0.000494	20.842432
1905.552289	-2.993300	3.300700	-9.879200	26.581632	0.000493	20.832253
1906.549555	-2.977200	3.302200	-9.830700	26.577855	0.000493	20.834146
1907.552122	-3.014100	3.300000	-9.945400	26.599032	0.000492	20.846898
1908.548686	-2.999900	3.300200	-9.898600	26.619359	0.000493	20.837461
1909.553507	-2.989400	3.299400	-9.861000	26.648902	0.000494	20.835865
1910.551157	-2.989200	3.299000	-9.860600	26.671365	0.000490	20.854653
1911.551028	-2.982100	3.299800	-9.838400	26.684891	0.000489	20.835062
1912.553910	-2.992200	3.298600	-9.869200	26.651179	0.000490	20.827249
1913.551685	-2.985800	3.299100	-9.850100	26.612900	0.000488	20.839028
1914.551555	-2.998900	3.297700	-9.887200	26.605230	0.000488	20.829896
1915.551359	-2.966600	3.299400	-9.786700	26.574046	0.000488	20.837429
1916.551725	-2.985200	3.297900	-9.844400	26.557234	0.000486	20.841866
1917.550150	-3.017400	3.295400	-9.942800	26.530696	0.000486	20.844587
1918.551672	-2.997700	3.295600	-9.878600	26.534843	0.000484	20.825996
1919.551459	-2.965600	3.298200	-9.780100	26.533899	0.000484	20.825522
1920.552279	-2.990400	3.296800	-9.858100	26.523247	0.000484	20.842315
1921.552884	-2.969000	3.296400	-9.785800	26.529506	0.000483	20.818736
1922.552503	-2.981800	3.294200	-9.821800	26.532579	0.000483	20.838893
1923.554705	-3.010500	3.295200	-9.919200	26.574141	0.000484	20.828516
1924.569860	-2.984500	3.293500	-9.828200	26.581065	0.000483	20.853967
1925.555886	-3.000600	3.295000	-9.886100	26.569125	0.000484	20.845284
1926.553587	-3.004400	3.294500	-9.896800	26.597873	0.000482	20.849052
1927.555728	-3.012900	3.292800	-9.919800	26.614181	0.000484	20.840790
1928.557512	-3.001900	3.292400	-9.880600	26.651098	0.000481	20.839969
1929.554533	-2.981800	3.292900	-9.816600	26.662466	0.000479	20.821527
1930.552877	-2.988600	3.293000	-9.840200	26.673737	0.000478	20.838073
1931.556293	-2.976000	3.292100	-9.795600	26.687714	0.000478	20.810399
1932.553697	-3.013800	3.291500	-9.919300	26.687562	0.000478	20.838221
1933.554551	-2.974800	3.291700	-9.791100	26.718070	0.000477	20.815314
1934.557721	-2.992900	3.289800	-9.845000	26.709208	0.000478	20.844335
1935.553918	-2.986600	3.290000	-9.823700	26.678478	0.000476	20.832882
1936.555847	-2.999800	3.291000	-9.870900	26.667552	0.000476	20.841813
1937.558344	-2.998900	3.291000	-9.868100	26.670558	0.000476	20.840093
1938.555911	-2.982200	3.289800	-9.810000	26.686918	0.000473	20.829987
1939.555030	-2.988300	3.289500	-9.828200	26.685774	0.000474	20.826941
1940.559632	-3.003100	3.289400	-9.877200	26.671576	0.000474	20.840641
1941.556775	-2.998200	3.290400	-9.864900	26.669939	0.000471	20.813867
1942.556708	-2.981000	3.290400	-9.806700	26.695358	0.000469	20.821878
1943.559362	-3.010200	3.287000	-9.894000	26.694784	0.000471	20.827465
1944.558394	-3.027800	3.286300	-9.947600	26.677591	0.000470	20.825352
1945.559733	-3.002300	3.286300	-9.864100	26.639486	0.000469	20.832564
1946.561598	-2.987900	3.287300	-9.821000	26.612699	0.000471	20.826025
1947.561678	-2.984800	3.287100	-9.809600	26.613270	0.000469	20.819960
1948.559521	-2.994900	3.285500	-9.838700	26.659816	0.000470	20.820285
1949.565575	-3.007600	3.285300	-9.879800	26.703306	0.000467	20.834609
1950.563226	-3.007000	3.284800	-9.875700	26.732522	0.000465	20.814670
1951.562144	-2.996100	3.286400	-9.844900	26.760199	0.000464	20.823056
1952.562232	-3.001900	3.285100	-9.861300	26.755012	0.000465	20.808832
1953.564835	-3.008800	3.282800	-9.875400	26.788340	0.000462	20.800615
1954.562203	-3.024800	3.283100	-9.929700	26.817906	0.000464	20.815643
1955.562913	-3.010400	3.282200	-9.879600	26.832082	0.000462	20.813301
1956.563993	-2.996300	3.283300	-9.835900	26.860949	0.000462	20.815300
1957.561903	-3.004600	3.281400	-9.858000	26.868565	0.000463	20.823905
1958.563127	-2.994000	3.283000	-9.827200	26.844913	0.000462	20.805339
1959.564113	-2.990600	3.282500	-9.816100	26.802844	0.000461	20.817568
1960.563063	-3.010500	3.280700	-9.876100	26.752386	0.000460	20.821839
1961.563217	-2.998400	3.281000	-9.835900	26.786887	0.000460	20.810534
1962.565895	-2.992000	3.281700	-9.818100	26.751271	0.000461	20.802226
1963.561865	-3.010300	3.280400	-9.874000	26.775544	0.000457	20.820940
1964.562533	-3.005900	3.280900	-9.861000	26.763902	0.000458	20.812080
1965.570043	-2.984700	3.279600	-9.788000	26.737221	0.000457	20.813704
1966.564323	-3.002800	3.279800	-9.847600	26.726743	0.000457	20.809334
1967.563052	-3.007400	3.279200	-9.859900	26.715875	0.000457	20.816899
1968.564421	-2.984000	3.279500	-9.785200	26.725479	0.000455	20.790520
1969.563950	-3.005000	3.279000	-9.852800	26.749286	0.000454	20.822041
1970.562519	-2.993600	3.277300	-9.809800	26.762667	0.000453	20.786656
1971.565002	-2.991200	3.277600	-9.802700	26.762888	0.000453	20.796837
1972.563742	-2.993500	3.278000	-9.811500	26.774063	0.000451	20.791002
1973.565457	-3.002300	3.276200	-9.834600	26.784410	0.000452	20.790025
1974.565858	-2.990800	3.277100	-9.800700	26.814345	0.000452	20.807321
1975.566598	-2.998500	3.276300	-9.821900	26.823231	0.000450	20.803454
1976.564152	-2.984100	3.277600	-9.779700	26.839391	0.000447	20.805952
1977.562792	-2.996900	3.277300	-9.820500	26.872971	0.000448	20.810792
1978.562755	-2.986100	3.276100	-9.781700	26.843833	0.000447	20.802357
1979.564593	-2.990900	3.276300	-9.796600	26.834602	0.000447	20.803981
1980.567075	-3.018700	3.275500	-9.887000	26.809636	0.000447	20.822975
1981.565467	-2.976600	3.275500	-9.747900	26.792335	0.000446	20.790882
1982.569395	-3.012700	3.274900	-9.865600	26.803383	0.000446	20.787764
1983.571576	-3.000100	3.273100	-9.818300	26.825276	0.000444	20.800768
1984.566920	-3.034600	3.271900	-9.927800	26.855957	0.000444	20.806487
1985.568586	-2.983400	3.273600	-9.764400	26.822971	0.000445	20.792287
1986.571854	-3.010100	3.271600	-9.846600	26.798646	0.000444	20.803864
1987.571875	-3.010600	3.273100	-9.851400	26.783706	0.000442	20.806387
1988.569176	-3.021800	3.270800	-9.881700	26.790907	0.000444	20.790868
1989.568631	-3.015600	3.271300	-9.863700	26.789144	0.000443	20.801897
1990.568187	-3.020000	3.270400	-9.875100	26.828732	0.000441	20.796657
1991.570582	-2.994700	3.269900	-9.791700	26.836433	0.000441	20.806770
1992.571034	-3.020100	3.270000	-9.874700	26.809676	0.000441	20.771806
1993.570095	-2.991400	3.269600	-9.779700	26.761028	0.000439	20.792595
1994.571666	-2.991300	3.271000	-9.783800	26.760260	0.000441	20.788030
1995.570192	-3.000200	3.270200	-9.809900	26.794490	0.000438	20.791151
1996.571248	-2.988500	3.269800	-9.770800	26.831221	0.000435	20.796788
1997.571574	-3.008400	3.268400	-9.831500	26.847603	0.000436	20.786233
1998.572294	-3.006600	3.269500	-9.828900	26.885778	0.000435	20.800911
1999.572858	-3.025600	3.267300	-9.883500	26.921362	0.000435	20.792595
2000.572585	-3.013200	3.268000	-9.846100	26.940107	0.000434	20.784892
2001.573127	-3.011600	3.266000	-9.835500	26.931620	0.000434	20.773512
2002.573533	-2.986600	3.266800	-9.754900	26.970457	0.000435	20.780798
2003.571840	-3.000600	3.266400	-9.800400	26.949738	0.000432	20.792206
2004.575570	-2.981700	3.268600	-9.743500	26.921270	0.000431	20.795348
2005.573187	-3.004200	3.266400	-9.811600	26.918392	0.000431	20.791505
2006.572207	-2.979900	3.265700	-9.729700	26.887246	0.000431	20.790532
2007.573382	-3.003900	3.264200	-9.804000	26.874640	0.000430	20.784496
2008.573138	-3.008100	3.264200	-9.818100	26.864266	0.000428	20.791134
2009.576077	-2.996200	3.264900	-9.781000	26.863918	0.000428	20.790784
2010.573263	-2.983200	3.266000	-9.742500	26.798787	0.000430	20.803058
2011.572056	-2.982100	3.263200	-9.729400	26.769728	0.000428	20.780954
2012.574297	-3.019200	3.262900	-9.850700	26.746816	0.000426	20.775936
2013.574567	-3.010000	3.262400	-9.819200	26.704990	0.000427	20.794103
2014.576943	-2.990800	3.262300	-9.755800	26.712487	0.000425	20.782199
2015.576526	-3.019400	3.260500	-9.843200	26.685403	0.000424	20.778204
2016.577206	-3.000000	3.263600	-9.789500	26.697595	0.000424	20.762486
2017.575184	-2.991100	3.261700	-9.755400	26.729617	0.000424	20.779032
2018.578348	-2.983300	3.261400	-9.728400	26.764192	0.000421	20.776336
2019.578427	-2.997700	3.259700	-9.770500	26.757643	0.000421	20.775441
2020.574975	-3.003000	3.260100	-9.787900	26.804425	0.000421	20.774114
2021.577407	-3.015300	3.259100	-9.825200	26.846150	0.000420	20.797100
2022.579721	-2.977800	3.259900	-9.706600	26.881443	0.000421	20.770473
2023.578546	-3.019900	3.259000	-9.840900	26.914377	0.000421	20.768502
2024.579318	-3.000900	3.259200	-9.779800	26.929216	0.000421	20.760664
2025.582417	-2.981300	3.259500	-9.716600	26.912216	0.000417	20.770597
2026.579909	-3.011200	3.259300	-9.813200	26.863101	0.000417	20.777161
2027.579358	-2.987500	3.258500	-9.733200	26.824433	0.000415	20.758194
2028.580894	-2.997500	3.257000	-9.762100	26.783429	0.000416	20.768650
2029.582582	-3.007400	3.256400	-9.792200	26.755805	0.000417	20.770275
2030.580889	-2.998900	3.258100	-9.769500	26.751786	0.000416	20.763389
2031.584719	-2.987000	3.257800	-9.729500	26.773008	0.000416	20.765760
2032.582043	-2.993100	3.255500	-9.742300	26.780628	0.000416	20.773421
2033.582694	-2.980500	3.255000	-9.700600	26.771368	0.000414	20.768852
2034.585606	-2.997800	3.254700	-9.755300	26.766111	0.000413	20.758824
2035.583193	-3.023700	3.253900	-9.838000	26.757023	0.000412	20.769128
2036.583000	-3.001100	3.254800	-9.767600	26.735780	0.000410	20.771478
2037.586487	-2.995800	3.255400	-9.751900	26.776986	0.000411	20.764543
2038.583169	-2.997200	3.252800	-9.748800	26.836747	0.000411	20.775791
2039.582880	-2.987100	3.253500	-9.717800	26.870970	0.000410	20.757571
2040.585849	-2.986700	3.253700	-9.716400	26.914504	0.000409	20.743498
2041.582959	-3.029300	3.250600	-9.845800	26.934382	0.000410	20.757324
2042.582887	-2.975900	3.251800	-9.675700	26.990690	0.000410	20.748512
2043.588179	-3.000900	3.252000	-9.757400	27.022727	0.000407	20.768877
2044.583530	-2.990700	3.252700	-9.726900	27.071261	0.000408	20.745614
2045.583817	-2.986200	3.249600	-9.703500	27.109376	0.000407	20.773042
2046.588303	-3.012800	3.249800	-9.789000	27.115898	0.000408	20.747833
2047.583169	-2.997400	3.250000	-9.740700	27.106174	0.000405	20.763657
2048.583039	-3.009900	3.248700	-9.777300	27.134654	0.000403	20.764800
2049.585970	-2.988300	3.248300	-9.706400	27.153881	0.000404	20.772758
2050.585337	-3.043800	3.247800	-9.884000	27.161821	0.000403	20.764149
2051.586329	-3.009800	3.247400	-9.773100	27.147752	0.000401	20.775603
2052.587359	-2.998900	3.249000	-9.742100	27.180974	0.000404	20.746428
2053.588003	-2.991300	3.248400	-9.716300	27.140677	0.000399	20.753788
2054.592148	-3.003800	3.247500	-9.753100	27.136061	0.000399	20.753413
2055.586275	-2.986700	3.248300	-9.700600	27.144096	0.000400	20.760072
2056.591195	-2.986400	3.246900	-9.695500	27.094418	0.000398	20.767956
2057.589797	-3.010200	3.246400	-9.770900	27.089130	0.000395	20.771172
2058.586177	-3.002400	3.245700	-9.744200	27.055536	0.000396	20.760146
2059.587903	-3.018100	3.245000	-9.792900	27.066134	0.000394	20.746622
2060.586149	-3.005600	3.245300	-9.752800	27.046898	0.000395	20.752882
2061.587740	-2.988300	3.244800	-9.695200	27.042282	0.000395	20.764361
2062.595478	-2.999600	3.245100	-9.733200	27.104364	0.000394	20.747138
2063.590810	-3.014200	3.243500	-9.774900	27.123251	0.000393	20.742425
2064.590046	-2.955100	3.246000	-9.590000	27.111612	0.000391	20.776714
2065.591684	-2.973800	3.244400	-9.646900	27.117840	0.000389	20.754527
2066.590607	-2.999700	3.241700	-9.723400	27.114339	0.000391	20.746264
2067.590947	-2.991800	3.241500	-9.697100	27.136550	0.000389	20.760068
2068.591536	-3.008500	3.242400	-9.753400	27.159351	0.000388	20.754552
2069.593975	-3.014400	3.241000	-9.769000	27.140743	0.000387	20.747691
2070.592910	-2.972900	3.240600	-9.632700	27.154566	0.000388	20.745946
2071.591432	-3.003000	3.239600	-9.727100	27.165705	0.000387	20.766633
2072.593747	-3.010500	3.238600	-9.748600	27.162827	0.000388	20.751884
2073.596202	-3.018400	3.238600	-9.774600	27.188583	0.000388	20.740330
2074.592433	-2.999600	3.238100	-9.712300	27.175186	0.000385	20.758625
2075.592927	-2.995800	3.238400	-9.701200	27.131322	0.000384	20.763346
2076.592182	-2.996200	3.238600	-9.701500	27.138316	0.000384	20.749042
2077.593692	-2.988600	3.237500	-9.674500	27.134548	0.000384	20.760900
2078.594250	-3.015100	3.238400	-9.762700	27.167774	0.000383	20.749747
2079.595185	-2.997500	3.237900	-9.703400	27.164421	0.000381	20.755384
2080.593754	-2.998600	3.236200	-9.703600	27.111595	0.000381	20.769110
2081.594192	-2.992100	3.236300	-9.683000	27.075718	0.000380	20.736346
2082.599450	-2.983600	3.237500	-9.657400	27.079642	0.000378	20.748353
2083.595181	-2.997700	3.236600	-9.701500	27.093638	0.000378	20.751049
2084.595801	-3.000200	3.234500	-9.702700	27.099492	0.000377	20.746031
2085.599313	-3.012900	3.234000	-9.742900	27.098852	0.000377	20.763406
2086.596599	-2.996300	3.234400	-9.689700	27.119846	0.000376	20.745639
2087.598607	-2.984100	3.235600	-9.654400	27.136470	0.000375	20.735331
2088.598314	-2.998900	3.234200	-9.697700	27.100963	0.000373	20.760788
2089.597077	-3.015600	3.233200	-9.748400	27.072405	0.000375	20.751980
2090.597769	-3.013700	3.232200	-9.738300	27.122629	0.000372	20.738955
2091.597471	-3.007900	3.231700	-9.719500	27.164738	0.000372	20.732943
2092.602259	-3.013100	3.230100	-9.731600	27.165583	0.000372	20.733318
2093.600932	-2.981500	3.232200	-9.635800	27.186178	0.000370	20.740282
2094.598654	-3.008100	3.230900	-9.717500	27.205735	0.000369	20.714432
2095.601827	-2.979500	3.232700	-9.629800	27.178663	0.000369	20.742681
2096.598412	-3.003500	3.230500	-9.701300	27.196109	0.000368	20.754539
2097.600458	-2.999400	3.230900	-9.689900	27.224767	0.000367	20.749699
2098.601861	-2.976000	3.229900	-9.611300	27.254690	0.000366	20.743287
2099.600114	-3.001000	3.229100	-9.689000	27.234448	0.000365	20.741419
2100.598063	-2.993900	3.228800	-9.665700	27.196687	0.000365	20.747533
2101.599667	-2.990600	3.228700	-9.654800	27.190144	0.000366	20.752806
2102.601173	-3.026900	3.228200	-9.770300	27.218182	0.000364	20.738333
2103.599661	-3.012000	3.226000	-9.716300	27.256020	0.000365	20.726132
2104.600636	-2.995700	3.227100	-9.665300	27.263489	0.000362	20.743128
2105.604858	-3.017600	3.226500	-9.734900	27.282147	0.000361	20.733447
2106.600780	-2.990100	3.226600	-9.646400	27.303433	0.000360	20.739211
2107.601051	-3.004900	3.226100	-9.692400	27.296239	0.000360	20.764218
2108.602524	-3.047900	3.223700	-9.825000	27.317876	0.000359	20.750422
2109.601243	-2.978100	3.224000	-9.599900	27.311777	0.000357	20.746183
2110.602383	-2.965300	3.225500	-9.563800	27.268066	0.000360	20.752000
2111.604510	-3.001500	3.223100	-9.673200	27.257671	0.000357	20.726370
2112.599811	-2.983900	3.223700	-9.617900	27.262188	0.000359	20.739449
2113.603599	-2.979700	3.222700	-9.601400	27.240807	0.000357	20.743547
2114.601463	-2.986500	3.222600	-9.622900	27.295586	0.000356	20.732740
2115.601874	-3.010500	3.220500	-9.693900	27.281497	0.000354	20.748441
2116.601617	-3.018600	3.221800	-9.723000	27.270357	0.000355	20.754305
2117.604498	-3.000600	3.220900	-9.663200	27.269049	0.000354	20.752514
2118.601614	-3.025900	3.218900	-9.738900	27.306734	0.000353	20.733523
2119.603659	-2.986800	3.221300	-9.620500	27.316038	0.000352	20.728183
2120.605134	-3.008100	3.220300	-9.685300	27.330429	0.000351	20.739815
2121.602581	-2.983300	3.221100	-9.608200	27.375157	0.000351	20.750197
2122.602670	-2.991300	3.219500	-9.628900	27.379923	0.000349	20.736025
2123.605481	-2.995800	3.218500	-9.641000	27.398903	0.000351	20.760335
2124.603612	-2.985800	3.220300	-9.613700	27.372185	0.000349	20.755268
2125.605195	-2.997300	3.217600	-9.642900	27.389727	0.000349	20.754423
2126.602998	-3.013700	3.216400	-9.691700	27.349245	0.000349	20.724603
2127.605011	-2.991800	3.216500	-9.622000	27.330665	0.000348	20.733888
2128.606055	-2.994300	3.215800	-9.627900	27.314266	0.000348	20.736832
2129.606930	-2.991400	3.216000	-9.619200	27.281123	0.000347	20.740951
2130.607014	-2.994400	3.216000	-9.628900	27.241871	0.000348	20.738927
2131.607927	-3.010100	3.213700	-9.673300	27.240682	0.000346	20.748163
2132.608056	-3.012300	3.213100	-9.677100	27.262718	0.000345	20.726231
2133.607308	-2.996900	3.214200	-9.630100	27.268420	0.000345	20.748563
2134.605148	-2.988100	3.213900	-9.603100	27.259541	0.000343	20.729200
2135.607894	-3.000400	3.212800	-9.638300	27.246216	0.000341	20.745194
2136.607396	-3.005100	3.210500	-9.646100	27.217042	0.000342	20.750938
2137.609279	-3.058400	3.211100	-9.819000	27.210467	0.000340	20.748117
2138.609492	-3.003100	3.213400	-9.649300	27.225650	0.000340	20.742526
2139.611629	-2.972900	3.212300	-9.548600	27.271748	0.000341	20.736263
2140.610932	-3.023500	3.209500	-9.703400	27.292116	0.000338	20.734465
2141.614319	-2.999100	3.211100	-9.629800	27.320197	0.000339	20.742324
2142.610589	-3.020700	3.209800	-9.694800	27.357782	0.000339	20.772547
2143.612209	-2.991400	3.208800	-9.597900	27.369516	0.000338	20.749738
2144.611530	-2.982700	3.209700	-9.572800	27.399977	0.000338	20.770898
2145.608821	-3.002700	3.210200	-9.638000	27.413972	0.000337	20.739458
2146.614616	-2.993700	3.209000	-9.605300	27.391939	0.000336	20.767554
2147.612831	-3.001500	3.207300	-9.625500	27.323201	0.000336	20.765262
2148.611670	-2.961800	3.208400	-9.501600	27.248347	0.000334	20.765357
2149.610187	-2.999200	3.207200	-9.617800	27.188926	0.000334	20.755849
2150.612153	-2.996900	3.205900	-9.607000	27.167265	0.000336	20.770099
2151.612308	-3.000200	3.206800	-9.619100	27.211877	0.000330	20.773719
2152.612327	-2.994400	3.206700	-9.601500	27.260825	0.000331	20.755622
2153.612579	-3.011400	3.204200	-9.648100	27.296375	0.000331	20.752975
2154.613270	-3.003300	3.204600	-9.622600	27.326644	0.000331	20.775838
2155.613386	-2.998300	3.204600	-9.607100	27.366505	0.000332	20.768046
2156.616239	-2.981400	3.203300	-9.548100	27.433412	0.000330	20.768499
2157.612899	-2.987300	3.203900	-9.569900	27.449506	0.000331	20.770940
2158.614145	-3.032600	3.201500	-9.708100	27.463420	0.000331	20.773559
2159.617372	-3.018100	3.203300	-9.666400	27.487796	0.000328	20.761573
2160.616858	-2.997000	3.202900	-9.598000	27.470137	0.000327	20.768937
2161.615227	-2.999600	3.201100	-9.601300	27.474129	0.000327	20.762047
2162.620793	-2.989700	3.201000	-9.569400	27.444876	0.000327	20.771972
2163.618789	-2.995100	3.201100	-9.587000	27.428905	0.000325	20.782457
2164.616857	-3.004700	3.200800	-9.616800	27.457081	0.000326	20.765285
2165.619421	-3.015600	3.198600	-9.644700	27.486121	0.000324	20.764155
2166.616078	-3.001500	3.200400	-9.605400	27.516206	0.000324	20.766448
2167.617495	-3.007200	3.198100	-9.615300	27.507301	0.000323	20.790680
2168.617101	-2.990200	3.198300	-9.562400	27.510001	0.000322	20.782492
2169.620273	-2.992600	3.197900	-9.568700	27.528054	0.000324	20.771731
2170.616371	-3.027100	3.195700	-9.672500	27.519567	0.000321	20.767934
2171.619071	-3.015500	3.196900	-9.639400	27.499791	0.000319	20.760364
2172.618141	-2.993800	3.194600	-9.562000	27.488230	0.000319	20.795675
2173.619014	-2.994600	3.195300	-9.567900	27.491722	0.000320	20.778800
2174.618307	-2.994000	3.195400	-9.566000	27.440499	0.000320	20.775629
2175.618655	-2.969000	3.196100	-9.488000	27.424647	0.000319	20.787182
2176.618060	-2.975900	3.196000	-9.509100	27.417070	0.000318	20.784776
2177.617535	-3.005600	3.192900	-9.595600	27.421459	0.000317	20.780183
2178.618483	-2.990700	3.192700	-9.547100	27.469701	0.000317	20.807853
2179.622867	-3.001600	3.192200	-9.580800	27.442411	0.000316	20.783243
2180.620581	-2.987500	3.192800	-9.537600	27.457985	0.000315	20.783738
2181.617917	-2.994700	3.191700	-9.556400	27.466219	0.000314	20.800557
2182.619576	-2.999200	3.191600	-9.571700	27.436445	0.000314	20.788147
2183.623111	-2.997300	3.191800	-9.566100	27.466285	0.000312	20.783554
2184.621721	-2.996600	3.191400	-9.562800	27.505542	0.000314	20.792704
2185.620686	-3.009800	3.190300	-9.601000	27.537437	0.000312	20.798242
2186.625371	-2.991600	3.189700	-9.541200	27.575035	0.000311	20.772060
2187.620620	-3.001400	3.188000	-9.567600	27.579322	0.000310	20.801504
2188.620490	-3.000000	3.188600	-9.564100	27.584481	0.000310	20.799108
2189.621777	-3.008500	3.187700	-9.589300	27.548163	0.000309	20.794335
2190.623130	-2.995400	3.187100	-9.545200	27.533178	0.000308	20.794430
2191.623544	-3.014800	3.186100	-9.604200	27.491234	0.000308	20.793008
2192.623015	-2.995100	3.187400	-9.545000	27.536195	0.000308	20.813587
2193.622974	-2.981100	3.186200	-9.496600	27.541850	0.000308	20.814535
2194.624815	-2.998200	3.186100	-9.550200	27.555238	0.000304	20.800031
2195.625515	-3.006700	3.184300	-9.573600	27.565627	0.000307	20.804320
2196.628090	-2.992900	3.184800	-9.530600	27.606548	0.000304	20.795233
2197.625554	-3.011700	3.182900	-9.585000	27.630749	0.000303	20.826222
2198.623587	-2.985400	3.184200	-9.505200	27.601132	0.000303	20.781248
2199.625731	-2.980600	3.184200	-9.489500	27.580717	0.000301	20.799114
2200.625702	-3.000000	3.183600	-9.550000	27.559409	0.000300	20.818452
2201.625194	-3.010800	3.183800	-9.584300	27.586615	0.000301	20.820221
2202.625226	-2.992700	3.180800	-9.518000	27.580633	0.000301	20.829374
2203.626759	-2.984600	3.181300	-9.493000	27.546896	0.000299	20.787370
2204.631966	-3.020400	3.179700	-9.602900	27.550691	0.000299	20.802567
2205.626245	-3.010500	3.180700	-9.575200	27.526702	0.000298	20.812096
2206.628700	-3.006400	3.179000	-9.556400	27.505888	0.000297	20.817708
2207.628609	-3.004100	3.180600	-9.553900	27.533943	0.000296	20.834555
2208.627531	-3.025200	3.179400	-9.617700	27.534309	0.000294	20.830655
2209.629601	-3.017800	3.176800	-9.586300	27.530584	0.000294	20.817425
2210.628201	-2.978600	3.178500	-9.466500	27.523839	0.000293	20.829130
2211.628291	-2.979900	3.178200	-9.469700	27.572920	0.000293	20.815925
2212.630968	-2.975400	3.176600	-9.450800	27.571056	0.000291	20.820213
2213.629858	-2.997100	3.176000	-9.518100	27.581990	0.000290	20.817938
2214.629275	-2.989000	3.177600	-9.495700	27.541761	0.000291	20.850954
2215.632476	-2.999000	3.174400	-9.518900	27.557312	0.000290	20.824877
2216.631566	-2.990300	3.174900	-9.492900	27.535631	0.000289	20.826296
2217.630819	-3.021400	3.172900	-9.585100	27.488205	0.000287	20.846383
2218.629730	-3.022100	3.172500	-9.586600	27.431797	0.000288	20.845109
2219.630610	-3.011200	3.172500	-9.551600	27.418428	0.000288	20.822177
2220.634325	-2.981200	3.171800	-9.454700	27.434326	0.000287	20.840541
2221.629554	-2.985200	3.174600	-9.476000	27.499171	0.000288	20.846036
2222.628985	-2.992300	3.173100	-9.494500	27.548200	0.000286	20.836097
2223.635139	-2.979900	3.172700	-9.453900	27.590838	0.000286	20.801711
2224.630667	-3.029900	3.169400	-9.601600	27.617772	0.000285	20.846829
2225.632954	-3.004000	3.171500	-9.526600	27.620177	0.000284	20.829335
2226.632905	-3.001300	3.169200	-9.510300	27.600681	0.000283	20.839589
2227.636468	-3.010800	3.167800	-9.536900	27.569604	0.000283	20.843881
2228.636932	-2.996100	3.168000	-9.491100	27.549737	0.000282	20.839540
2229.637547	-3.012100	3.166800	-9.537100	27.568563	0.000282	20.836670
2230.634417	-2.968500	3.169200	-9.406900	27.580397	0.000281	20.836723
2231.633750	-2.983800	3.168500	-9.453600	27.580991	0.000280	20.841114
2232.633511	-3.007100	3.165500	-9.517900	27.616879	0.000281	20.842137
2233.634871	-2.975900	3.165500	-9.419200	27.641185	0.000279	20.840991
2234.639762	-3.014500	3.163900	-9.536300	27.612391	0.000278	20.838096
2235.637361	-2.984800	3.163500	-9.440100	27.620673	0.000279	20.816558
2236.638868	-2.977000	3.165200	-9.421200	27.597632	0.000280	20.850746
2237.636750	-2.987000	3.162600	-9.445900	27.584863	0.000278	20.847381
2238.636625	-2.986800	3.164000	-9.449300	27.592920	0.000277	20.846478
2239.637709	-3.010000	3.161700	-9.515800	27.608892	0.000277	20.843110
2240.637253	-3.016700	3.160100	-9.532000	27.629007	0.000277	20.852918
2241.637200	-3.007300	3.161000	-9.503600	27.704843	0.000275	20.829657
2242.636841	-3.048600	3.158700	-9.628100	27.742467	0.000273	20.861828
2243.638351	-2.983000	3.161600	-9.430300	27.777632	0.000272	20.851697
2244.638735	-3.001400	3.160200	-9.484400	27.801584	0.000273	20.851620
2245.637987	-3.012200	3.158500	-9.513400	27.832162	0.000271	20.845410
2246.640637	-2.998700	3.157600	-9.467700	27.870671	0.000272	20.842441
2247.641322	-3.007900	3.156400	-9.492700	27.896631	0.000270	20.850551
2248.640907	-3.012500	3.156900	-9.508500	27.870425	0.000270	20.859736
2249.640877	-2.978100	3.157100	-9.400900	27.837569	0.000267	20.858438
2250.641745	-3.010500	3.155500	-9.498400	27.858696	0.000267	20.867846
2251.641082	-3.013700	3.155200	-9.507900	27.853936	0.000267	20.852150
2252.641140	-2.984900	3.154400	-9.414900	27.881605	0.000266	20.858187
2253.644583	-2.979700	3.155500	-9.400100	27.903427	0.000266	20.843167
2254.641832	-3.007400	3.153700	-9.482800	27.884214	0.000269	20.861286
2255.640568	-2.979600	3.154000	-9.396700	27.893140	0.000266	20.852727
2256.643724	-3.009100	3.151800	-9.483400	27.886794	0.000267	20.870995
2257.646986	-3.011400	3.150300	-9.486300	27.944735	0.000264	20.845389
2258.641984	-3.012400	3.150200	-9.488600	27.943277	0.000265	20.843920
2259.646107	-3.019400	3.149800	-9.509600	27.930926	0.000261	20.846188
2260.642259	-2.989000	3.151800	-9.419300	27.948856	0.000264	20.867078
2261.643306	-3.015000	3.148000	-9.488200	27.978087	0.000261	20.869474
2262.644307	-2.973000	3.148700	-9.359600	27.944219	0.000261	20.872842
2263.648873	-2.996400	3.148200	-9.432600	27.889920	0.000264	20.875563
2264.645537	-3.019100	3.146600	-9.499500	27.828572	0.000261	20.876409
2265.645190	-3.011700	3.146600	-9.475400	27.747137	0.000260	20.860363
2266.650308	-2.993700	3.146000	-9.416900	27.702203	0.000261	20.880103
2267.648430	-2.990300	3.145500	-9.405200	27.651415	0.000260	20.853180
2268.651187	-2.976800	3.145300	-9.361600	27.679684	0.000260	20.858392
2269.651286	-2.995700	3.144400	-9.418500	27.693820	0.000259	20.863133
2270.648681	-3.000000	3.143300	-9.427200	27.723082	0.000259	20.874088
2271.650812	-2.989700	3.144100	-9.398500	27.719907	0.000258	20.877530
2272.652781	-2.982500	3.142700	-9.371600	27.670059	0.000257	20.875733
2273.650426	-2.993900	3.140600	-9.401000	27.620680	0.000259	20.880099
2274.651261	-2.998700	3.140700	-9.416600	27.658722	0.000256	20.858162
2275.657720	-2.999900	3.139400	-9.416700	27.694235	0.000258	20.873981
2276.653224	-2.969500	3.140500	-9.324900	27.752288	0.000257	20.871236
2277.653819	-2.985900	3.139200	-9.372000	27.769964	0.000256	20.877169
2278.652983	-3.040400	3.137200	-9.536600	27.812617	0.000256	20.863671
2279.655281	-3.003100	3.135900	-9.415900	27.806021	0.000253	20.881214
2280.653017	-2.974600	3.136300	-9.327500	27.826101	0.000254	20.868706
2281.655528	-2.995700	3.135700	-9.392600	27.808419	0.000251	20.860395
2282.657378	-3.005500	3.134600	-9.419300	27.819083	0.000253	20.877290
2283.656411	-2.974300	3.135200	-9.323800	27.859846	0.000252	20.877063
2284.654438	-2.992600	3.134200	-9.378000	27.897651	0.000255	20.876232
2285.654869	-2.972000	3.133300	-9.311100	27.873079	0.000251	20.883269
2286.654715	-3.036100	3.131100	-9.504000	27.898769	0.000252	20.870245
2287.657342	-2.991500	3.132200	-9.368600	27.915823	0.000251	20.879349
2288.654263	-3.000600	3.130300	-9.391700	27.943909	0.000250	20.882487
2289.655797	-3.017900	3.129900	-9.444900	27.950431	0.000250	20.880991
2290.657652	-2.999400	3.129200	-9.384400	27.979904	0.000249	20.886475
2291.656993	-3.013400	3.129300	-9.427900	28.006337	0.000249	20.887950
2292.660772	-3.016200	3.127400	-9.431200	28.002167	0.000247	20.886125
2293.656430	-3.012700	3.127900	-9.422700	27.950990	0.000247	20.899096
2294.657663	-3.014000	3.126900	-9.424300	27.954407	0.000248	20.894001
2295.662066	-3.019200	3.126600	-9.439300	27.961522	0.000246	20.890257
2296.657451	-3.015800	3.125800	-9.425300	27.947439	0.000248	20.910694
2297.657874	-3.010300	3.125300	-9.405200	27.905410	0.000246	20.884041
2298.665179	-3.011200	3.123900	-9.405400	27.851008	0.000247	20.896616
2299.662529	-3.002800	3.123400	-9.377300	27.887428	0.000245	20.895813
2300.659491	-3.007200	3.121000	-9.384200	27.907115	0.000246	20.893343
2301.660816	-3.010100	3.121200	-9.393900	27.932400	0.000247	20.910255
2302.660891	-2.993300	3.121300	-9.342100	27.971179	0.000245	20.909459
2303.658926	-2.994100	3.120200	-9.341100	28.007620	0.000245	20.908681
2304.661753	-2.990800	3.118700	-9.326000	28.021404	0.000243	20.906908
2305.658646	-3.004700	3.118200	-9.367900	28.060922	0.000243	20.898325
2306.660425	-2.999900	3.117800	-9.351100	28.077752	0.000245	20.907680
2307.658433	-2.972200	3.117700	-9.264800	28.107697	0.000243	20.916960
2308.659746	-2.985000	3.117000	-9.302300	28.140646	0.000244	20.914568
2309.659847	-2.998100	3.116900	-9.342300	28.131665	0.000242	20.893676
2310.660471	-3.019200	3.115600	-9.405700	28.135753	0.000241	20.935719
2311.662462	-2.991600	3.115900	-9.319800	28.068522	0.000243	20.898389
2312.662404	-3.041100	3.111500	-9.461900	28.005522	0.000242	20.903250
2313.662397	-2.991900	3.112300	-9.310600	27.958095	0.000243	20.923315
2314.664324	-2.986500	3.112900	-9.294900	27.959853	0.000241	20.910387
2315.661489	-2.999100	3.111000	-9.328000	27.981744	0.000242	20.908713
2316.664056	-2.990500	3.109800	-9.299600	27.973880	0.000241	20.908858
2317.664868	-3.009400	3.110400	-9.359000	27.980521	0.000239	20.900845
2318.663362	-3.025700	3.107200	-9.399700	27.982004	0.000240	20.903760
2319.664556	-3.016100	3.107900	-9.372200	28.032484	0.000240	20.920432
2320.665079	-3.002900	3.106600	-9.326900	28.049857	0.000240	20.911841
2321.668156	-2.994700	3.105700	-9.300000	28.099388	0.000239	20.913338
2322.668372	-3.007600	3.103600	-9.333300	28.080671	0.000238	20.894023
2323.668742	-2.980300	3.105300	-9.253500	28.068248	0.000238	20.909018
2324.668559	-3.019100	3.103500	-9.368300	28.065197	0.000238	20.912111
2325.669215	-2.998700	3.104400	-9.307600	28.073377	0.000239	20.905172
2326.670545	-3.034400	3.100900	-9.408400	28.107512	0.000239	20.910610
2327.668365	-3.014600	3.101600	-9.348600	28.122725	0.000237	20.903167
2328.668453	-3.018400	3.098900	-9.351700	28.150415	0.000237	20.898326
2329.670151	-2.986500	3.099800	-9.256500	28.157283	0.000237	20.901921
2330.669853	-2.986400	3.098300	-9.251600	28.132960	0.000237	20.905884
2331.669677	-3.006100	3.098700	-9.314100	28.185215	0.000236	20.905385
2332.669034	-2.994300	3.097300	-9.273200	28.177602	0.000235	20.916212
2333.671817	-2.990200	3.096900	-9.259000	28.190393	0.000236	20.925768
2334.667499	-2.991700	3.094700	-9.257000	28.192298	0.000237	20.877430
2335.670738	-2.998600	3.094900	-9.279600	28.208261	0.000235	20.918154
2336.672402	-2.999000	3.095600	-9.283200	28.208754	0.000235	20.890203
2337.669075	-2.997800	3.094100	-9.273400	28.180344	0.000234	20.905697
2338.669806	-3.003600	3.092100	-9.286500	28.152852	0.000234	20.883711
2339.672729	-3.008700	3.091800	-9.301300	28.172359	0.000235	20.903822
2340.669498	-3.004400	3.091300	-9.286600	28.204259	0.000235	20.911755
2341.671214	-2.990700	3.090900	-9.243200	28.218233	0.000235	20.911599
2342.673421	-2.967700	3.089300	-9.166800	28.190000	0.000232	20.913046
2343.672266	-2.992300	3.088500	-9.240900	28.147362	0.000233	20.892408
2344.674058	-2.992800	3.086400	-9.236500	28.089822	0.000231	20.869573
2345.676447	-3.041700	3.083700	-9.377700	28.063888	0.000231	20.879027
2346.673893	-2.996200	3.084300	-9.238700	28.084093	0.000230	20.891779
2347.674273	-3.035200	3.083100	-9.356200	28.095271	0.000230	20.895445
2348.673278	-3.000900	3.083200	-9.251200	28.120632	0.000229	20.881621
2349.681884	-2.983900	3.083700	-9.200300	28.125542	0.000228	20.887512
2350.674823	-2.989000	3.081700	-9.209500	28.094129	0.000230	20.886235
2351.673380	-2.998000	3.080400	-9.233700	28.048907	0.000228	20.894766
2352.678593	-3.023400	3.078900	-9.307700	28.042070	0.000230	20.878875
2353.674798	-3.015300	3.078100	-9.279500	28.085943	0.000227	20.889374
2354.677218	-3.006100	3.077200	-9.249500	28.107563	0.000227	20.904499
2355.678032	-3.008700	3.078500	-9.261400	28.169612	0.000227	20.883514
2356.676626	-2.988700	3.077700	-9.197900	28.208207	0.000227	20.894868
2357.676777	-3.000600	3.075000	-9.224800	28.236538	0.000227	20.865073
2358.680672	-3.031000	3.072800	-9.312700	28.191793	0.000225	20.867440
2359.680354	-3.010700	3.073100	-9.252100	28.121328	0.000226	20.894648
2360.676955	-2.982800	3.073000	-9.165200	28.088624	0.000227	20.867893
2361.683313	-2.976600	3.072600	-9.144900	28.062303	0.000227	20.857992
2362.678277	-2.995300	3.070400	-9.196300	28.047199	0.000226	20.856539
2363.677938	-3.001800	3.068700	-9.210300	28.050696	0.000225	20.866223
2364.681370	-3.003100	3.069100	-9.216000	28.051469	0.000225	20.883595
2365.677481	-3.000900	3.067900	-9.206000	28.094529	0.000226	20.839225
2366.678041	-2.998700	3.066100	-9.193200	28.136895	0.000225	20.879501
2367.679300	-2.990800	3.064700	-9.164300	28.140491	0.000223	20.876009
2368.679239	-3.004800	3.064700	-9.207200	28.116842	0.000223	20.887289
2369.680998	-3.000200	3.063600	-9.190600	28.110498	0.000224	20.878532
2370.681652	-2.990800	3.063100	-9.160400	28.085485	0.000224	20.882275
2371.682623	-3.012500	3.062100	-9.224100	28.074827	0.000223	20.865858
2372.682470	-3.021600	3.059800	-9.244100	28.020215	0.000224	20.871575
2373.679446	-2.984300	3.059900	-9.129100	28.006776	0.000224	20.856626
2374.684614	-3.043800	3.057800	-9.305600	28.031643	0.000223	20.851312
2375.679266	-3.016700	3.058000	-9.224200	28.056161	0.000221	20.870776
2376.682353	-2.985800	3.056200	-9.123800	28.112114	0.000222	20.858349
2377.681318	-3.008500	3.055900	-9.192200	28.121380	0.000225	20.848237
2378.680489	-2.999700	3.054600	-9.162000	28.161372	0.000222	20.867634
2379.684827	-2.991800	3.052500	-9.131400	28.215977	0.000223	20.852433
2380.682294	-3.002100	3.053300	-9.164800	28.275988	0.000223	20.863540
2381.684910	-3.021200	3.049800	-9.212900	28.319011	0.000223	20.867029
2382.682434	-3.001400	3.048500	-9.148500	28.310488	0.000222	20.847544
2383.683127	-2.985800	3.048100	-9.099800	28.317925	0.000223	20.844125
2384.686085	-3.028000	3.046600	-9.224500	28.307906	0.000223	20.863908
2385.685247	-3.002300	3.047100	-9.146600	28.317078	0.000221	20.837583
2386.682676	-3.042800	3.044000	-9.260800	28.328081	0.000223	20.862412
2387.684921	-3.006000	3.043900	-9.149600	28.335443	0.000223	20.862712
2388.684850	-3.010600	3.043900	-9.163000	28.353531	0.000222	20.836830
2389.687917	-2.994600	3.041100	-9.105600	28.329146	0.000221	20.850208
2390.690586	-3.012800	3.040600	-9.159400	28.299327	0.000221	20.843892
2391.684881	-3.010500	3.040300	-9.151400	28.260163	0.000221	20.844763
2392.690706	-3.013400	3.038600	-9.155100	28.209395	0.000221	20.842014
2393.689097	-3.005900	3.038000	-9.129700	28.194447	0.000221	20.844034
2394.686412	-2.975200	3.037300	-9.036400	28.143258	0.000221	20.850347
2395.687859	-3.001600	3.035100	-9.109700	28.135873	0.000222	20.842439
2396.688871	-3.004000	3.033500	-9.111200	28.107261	0.000219	20.862473
2397.687694	-2.996100	3.032500	-9.085300	28.094569	0.000219	20.829308
2398.689875	-3.013100	3.030500	-9.130400	28.119655	0.000218	20.847449
2399.687346	-3.000400	3.030400	-9.090700	28.164048	0.000217	20.814854
2400.690433	-3.012800	3.028400	-9.122600	28.218808	0.000220	20.828257
2401.690888	-2.998300	3.028400	-9.078600	28.260571	0.000219	20.828105
2402.690607	-3.027200	3.025200	-9.157400	28.237815	0.000219	20.837436
2403.692581	-3.009600	3.024600	-9.102300	28.259281	0.000218	20.838186
2404.689994	-2.993700	3.025000	-9.055100	28.253876	0.000215	20.841753
2405.692367	-3.001300	3.023800	-9.074500	28.279876	0.000216	20.847067
2406.691077	-2.971300	3.023300	-8.981300	28.256551	0.000217	20.839704
2407.692682	-3.014100	3.019900	-9.101100	28.243512	0.000216	20.831793
2408.708977	-3.022200	3.019700	-9.125700	28.211238	0.000216	20.838654
2409.713299	-2.984900	3.020400	-9.014500	28.268620	0.000217	20.836209
2410.691592	-3.010800	3.016600	-9.081600	28.291825	0.000216	20.829227
2411.693263	-3.014800	3.016400	-9.093200	28.297498	0.000216	20.828774
2412.696143	-3.001900	3.015900	-9.052400	28.316408	0.000217	20.840702
2413.692295	-2.995100	3.013200	-9.023900	28.276970	0.000217	20.856469
2414.695619	-3.008800	3.012400	-9.062100	28.305703	0.000216	20.840355
2415.693110	-2.968600	3.012400	-8.941600	28.315393	0.000219	20.838731
2416.693178	-2.982100	3.011200	-8.978800	28.320548	0.000215	20.832069
2417.695297	-2.984700	3.009300	-8.980400	28.379534	0.000216	20.841201
2418.693681	-2.983200	3.008000	-8.972400	28.412394	0.000217	20.838254
2419.713350	-2.990000	3.006900	-8.989700	28.366770	0.000215	20.816022
2420.710062	-2.972400	3.005600	-8.932700	28.314349	0.000218	20.845267
2421.713914	-2.975400	3.005100	-8.940500	28.292785	0.000214	20.834461
2422.717183	-2.986300	3.002900	-8.966600	28.313804	0.000217	20.833813
2423.720447	-2.991600	3.001000	-8.977000	28.339307	0.000217	20.838155
2424.697056	-3.048500	2.998600	-9.138800	28.340123	0.000214	20.837553
2425.697100	-2.980600	2.999900	-8.940400	28.349664	0.000217	20.817289
2426.694521	-2.970200	2.998900	-8.906100	28.368623	0.000216	20.807930
2427.697670	-2.992000	2.996800	-8.965500	28.385895	0.000216	20.840494
2428.703033	-3.015600	2.993800	-9.027700	28.427655	0.000218	20.834656
2429.698066	-3.012100	2.993600	-9.015800	28.412855	0.000215	20.821175
2430.697771	-3.012700	2.992900	-9.015300	28.460935	0.000217	20.824073
2431.700435	-2.997800	2.991400	-8.966500	28.464228	0.000217	20.832130
2432.698977	-3.003000	2.990200	-8.977400	28.417388	0.000216	20.839015
2433.703955	-3.003200	2.987100	-8.969500	28.364350	0.000218	20.833025
2434.699762	-2.999600	2.987600	-8.960400	28.390295	0.000218	20.825485
2435.724353	-3.000900	2.984800	-8.956300	28.381767	0.000217	20.813105
2436.725252	-3.002600	2.984100	-8.958900	28.389199	0.000216	20.828175
2437.718022	-2.987700	2.983400	-8.913000	28.400350	0.000214	20.814747
2438.723183	-2.990500	2.981500	-8.914900	28.382554	0.000218	20.819587
2439.715705	-2.978700	2.980200	-8.875800	28.411721	0.000216	20.812921
2440.739385	-3.016700	2.977800	-8.981800	28.454841	0.000217	20.827892
2441.717390	-3.014900	2.977400	-8.975200	28.492083	0.000217	20.833628
2442.715523	-2.995800	2.976700	-8.916800	28.507224	0.000216	20.804780
2443.700514	-3.010500	2.973200	-8.949000	28.472526	0.000216	20.825314
2444.722067	-2.977600	2.973700	-8.852800	28.474434	0.000215	20.825812
2445.724452	-3.003000	2.971600	-8.922700	28.451581	0.000215	20.829351
2446.723802	-2.994900	2.971000	-8.896500	28.391036	0.000214	20.812955
2447.701975	-2.971200	2.969300	-8.821300	28.376185	0.000215	20.843519
2448.701507	-2.982000	2.966900	-8.845900	28.377746	0.000217	20.827073
2449.709400	-2.992300	2.967600	-8.878800	28.400988	0.000215	20.819657
2450.702570	-2.995300	2.964800	-8.880200	28.444610	0.000215	20.843194
2451.708420	-3.004700	2.962500	-8.900400	28.424433	0.000216	20.819084
2452.704128	-2.975900	2.962600	-8.815100	28.447183	0.000214	20.827293
2453.726173	-3.002800	2.960100	-8.888000	28.452387	0.000216	20.808826
2454.723719	-3.009700	2.957200	-8.898300	28.493741	0.000217	20.824392
2455.728698	-3.002300	2.956000	-8.873800	28.497686	0.000215	20.813193
2456.720115	-3.004600	2.957500	-8.885200	28.547120	0.000214	20.804181
2457.726127	-2.977700	2.954500	-8.796500	28.553933	0.000215	20.813887
2458.703521	-2.983100	2.953900	-8.810600	28.528635	0.000215	20.815436
2459.720336	-3.013000	2.950200	-8.888300	28.530220	0.000215	20.799489
2460.723770	-2.973900	2.950600	-8.772200	28.538663	0.000215	20.808940
2461.736020	-3.008900	2.947300	-8.867600	28.525160	0.000213	20.798187
2462.732209	-2.999300	2.945600	-8.834200	28.526720	0.000212	20.813508
2463.705996	-3.007500	2.945400	-8.857200	28.504195	0.000215	20.802677
2464.706133	-3.003800	2.943500	-8.840600	28.503299	0.000213	20.808414
2465.729199	-2.983500	2.942200	-8.776200	28.510881	0.000214	20.802773
2466.721841	-2.991500	2.940300	-8.795100	28.544015	0.000212	20.815278
2467.704710	-2.975200	2.938200	-8.741000	28.501465	0.000212	20.817946
2468.721892	-3.010200	2.936100	-8.837500	28.492941	0.000214	20.817896
2469.721388	-2.987700	2.935300	-8.769600	28.463573	0.000212	20.804444
2470.705954	-3.007100	2.932700	-8.817400	28.493141	0.000215	20.816676
2471.709154	-3.013200	2.931600	-8.832900	28.520344	0.000214	20.804242
2472.711695	-3.008500	2.931300	-8.817700	28.555209	0.000214	20.810905
2473.710460	-3.029000	2.927700	-8.866800	28.537715	0.000211	20.810831
2474.727637	-3.010900	2.927900	-8.814300	28.551418	0.000213	20.808984
2475.725288	-2.996100	2.925000	-8.762100	28.571392	0.000213	20.788322
2476.712973	-2.997800	2.923400	-8.762900	28.597360	0.000213	20.783181
2477.709496	-2.974100	2.925100	-8.698000	28.642924	0.000213	20.793510
2478.710535	-3.016900	2.920900	-8.809900	28.673847	0.000211	20.790042
2479.710705	-2.993300	2.920000	-8.739800	28.664776	0.000213	20.798924
2480.709471	-2.992500	2.917600	-8.729600	28.646936	0.000213	20.794706
2481.711399	-3.023100	2.916200	-8.813900	28.639801	0.000214	20.806960
2482.712355	-2.996200	2.914500	-8.731300	28.640742	0.000212	20.789890
2483.712088	-3.001000	2.912800	-8.740000	28.681699	0.000211	20.790839
2484.711181	-3.003300	2.911300	-8.742800	28.683606	0.000214	20.794657
2485.731323	-2.981200	2.909800	-8.673800	28.687446	0.000213	20.807533
2486.729339	-2.993100	2.906300	-8.697900	28.697332	0.000212	20.796154
2487.737128	-2.990400	2.905600	-8.688300	28.660367	0.000211	20.785948
2488.738216	-2.980700	2.904000	-8.654700	28.655410	0.000210	20.805612
2489.738572	-3.025100	2.899400	-8.769800	28.681899	0.000212	20.788195
2490.733223	-2.960700	2.901900	-8.590800	28.725752	0.000212	20.796804
2491.713698	-3.001400	2.899000	-8.699400	28.696741	0.000212	20.805990
2492.715767	-2.995300	2.899200	-8.683300	28.678628	0.000212	20.794858
2493.715538	-2.990400	2.895900	-8.658800	28.717279	0.000214	20.786373
2494.714993	-3.014900	2.893400	-8.722900	28.752808	0.000212	20.783280
2495.738918	-2.979400	2.891900	-8.615000	28.764228	0.000212	20.790516
2496.715674	-2.979300	2.892000	-8.615400	28.799387	0.000208	20.786104
2497.719626	-2.980600	2.888900	-8.610000	28.826294	0.000210	20.789026
2498.719868	-2.993700	2.886700	-8.639600	28.803897	0.000210	20.784483
2499.720825	-3.008100	2.884500	-8.675800	28.786804	0.000212	20.786231
2500.720904	-3.011300	2.882600	-8.679000	28.810810	0.000211	20.788127
2501.719710	-2.974300	2.881900	-8.570500	28.811955	0.000212	20.801608
2502.723652	-2.999300	2.878000	-8.631300	28.807841	0.000212	20.785137
2503.722209	-3.010500	2.877200	-8.660600	28.806106	0.000209	20.789553
2504.718998	-2.984200	2.875900	-8.581400	28.840941	0.000211	20.798565
2505.745461	-3.026300	2.872500	-8.692200	28.840375	0.000210	20.773339
2506.739581	-3.028900	2.870200	-8.691800	28.759663	0.000211	20.759365
2507.737226	-2.993500	2.868600	-8.585200	28.741800	0.000211	20.782150
2508.744393	-3.002700	2.865900	-8.603200	28.724903	0.000210	20.802114
2509.745792	-3.019400	2.864500	-8.647600	28.748191	0.000211	20.791431
2510.737330	-3.021500	2.863200	-8.650200	28.728725	0.000212	20.776091
2511.719314	-2.992600	2.860900	-8.560200	28.681974	0.000210	20.782581
2512.719928	-3.005300	2.858500	-8.589800	28.633805	0.000212	20.762040
2513.723726	-3.020100	2.856500	-8.625700	28.653180	0.000212	20.784400
2514.721901	-2.999000	2.854900	-8.561500	28.663639	0.000213	20.779761
2515.721305	-3.019200	2.851600	-8.608700	28.675085	0.000212	20.805039
2516.721719	-3.002600	2.850400	-8.557300	28.716289	0.000212	20.788695
2517.721337	-3.012900	2.849900	-8.584800	28.700530	0.000211	20.788943
2518.722120	-2.962100	2.847800	-8.434300	28.714185	0.000212	20.766187
2519.723859	-3.003000	2.844100	-8.539600	28.721393	0.000212	20.751162
2520.721691	-3.019200	2.842200	-8.580000	28.715470	0.000212	20.760369
2521.722178	-2.999100	2.841800	-8.522000	28.692278	0.000213	20.788218
2522.724675	-2.999500	2.837700	-8.510000	28.717772	0.000212	20.774542
2523.723501	-2.992300	2.838600	-8.492200	28.726814	0.000213	20.786969
2524.725830	-2.992400	2.835500	-8.483600	28.716236	0.000212	20.771098
2525.723409	-3.010100	2.832400	-8.524300	28.668838	0.000212	20.768402
2526.748055	-3.009900	2.829100	-8.514000	28.629365	0.000211	20.777482
2527.726733	-2.989800	2.828600	-8.456400	28.654389	0.000213	20.792730
2528.724463	-2.967900	2.825900	-8.386300	28.655134	0.000211	20.783997
2529.728985	-2.968900	2.823300	-8.380800	28.649974	0.000211	20.766471
2530.726058	-2.968500	2.821900	-8.374900	28.612093	0.000209	20.773364
2531.729379	-3.019800	2.817700	-8.507300	28.611573	0.000211	20.759089
2532.729166	-3.003100	2.817000	-8.459000	28.643288	0.000211	20.746934
2533.726843	-2.995700	2.813300	-8.425200	28.624924	0.000210	20.760208
2534.728182	-2.980200	2.814000	-8.385500	28.581412	0.000210	20.775179
2535.726765	-2.973100	2.811100	-8.357000	28.563820	0.000211	20.775480
2536.729671	-3.002500	2.806300	-8.424200	28.594991	0.000210	20.780321
2537.728547	-2.996000	2.804000	-8.400200	28.620733	0.000211	20.783014
2538.728622	-2.977800	2.802500	-8.344800	28.667146	0.000210	20.765749
2539.729028	-2.985500	2.798800	-8.355100	28.686044	0.000211	20.774352
2540.735289	-2.999600	2.798100	-8.391900	28.688004	0.000209	20.764946
2541.729220	-2.996600	2.794500	-8.372900	28.741348	0.000210	20.780745
2542.732915	-3.005600	2.790800	-8.386900	28.765527	0.000209	20.740615
2543.731671	-2.999400	2.790100	-8.367000	28.755544	0.000209	20.770388
2544.733911	-3.001400	2.785900	-8.359800	28.775264	0.000210	20.781719
2545.735237	-2.997000	2.784400	-8.343500	28.753710	0.000208	20.767593
2546.731146	-2.983600	2.781700	-8.298900	28.700148	0.000211	20.780023
2547.733851	-3.001000	2.777100	-8.333300	28.676783	0.000209	20.781145
2548.732959	-3.023800	2.774500	-8.388200	28.612610	0.000210	20.762978
2549.732917	-2.995500	2.773300	-8.306200	28.588523	0.000212	20.778548
2550.733204	-3.000800	2.770300	-8.311700	28.588923	0.000210	20.776106
2551.738173	-2.998800	2.766100	-8.293700	28.634937	0.000210	20.758912
2552.734012	-2.999300	2.764600	-8.290600	28.661149	0.000211	20.761605
2553.734177	-2.994200	2.760900	-8.265900	28.667838	0.000211	20.763127
2554.733829	-2.985500	2.758900	-8.234700	28.680598	0.000210	20.763651
2555.760058	-2.981100	2.756200	-8.216100	28.689419	0.000208	20.763053
2556.766631	-2.986000	2.752200	-8.215800	28.678515	0.000210	20.762501
2557.764336	-2.983000	2.750700	-8.203200	28.727152	0.000210	20.774981
2558.760711	-3.009200	2.745900	-8.260900	28.779178	0.000209	20.763849
2559.752993	-3.008800	2.742700	-8.252000	28.786038	0.000210	20.770286
2560.753536	-3.010500	2.740100	-8.247300	28.786140	0.000210	20.786036
2561.736624	-2.998000	2.736800	-8.203800	28.736539	0.000210	20.741761
2562.734746	-3.000400	2.733800	-8.201600	28.721180	0.000208	20.777975
2563.736225	-2.995500	2.729700	-8.175800	28.764983	0.000209	20.768991
2564.734169	-2.998500	2.727000	-8.175700	28.814108	0.000209	20.780544
2565.738002	-3.003700	2.723700	-8.180200	28.842574	0.000208	20.760381
2566.736335	-3.000900	2.720900	-8.164500	28.885381	0.000209	20.770788
2567.742113	-3.008600	2.717000	-8.173500	28.930764	0.000211	20.774309
2568.741961	-3.008300	2.713900	-8.163000	28.963136	0.000209	20.768042
2569.737516	-3.014000	2.710900	-8.169400	28.934332	0.000208	20.776007
2570.738564	-2.987200	2.707000	-8.085800	28.935944	0.000209	20.770519
2571.738413	-2.992500	2.701900	-8.084300	28.888531	0.000209	20.780600
2572.760657	-2.984700	2.698600	-8.054000	28.818028	0.000210	20.771216
2573.759346	-2.991000	2.694900	-8.059700	28.825116	0.000208	20.760812
2574.761376	-2.997900	2.692700	-8.070200	28.849841	0.000209	20.761538
2575.759130	-2.989500	2.688000	-8.034500	28.836588	0.000206	20.781852
2576.740740	-2.987100	2.685100	-8.019700	28.841495	0.000208	20.779683
2577.754773	-2.990400	2.680500	-8.013800	28.875534	0.000207	20.769877
2578.758172	-3.003400	2.678200	-8.042400	28.935581	0.000210	20.786749
2579.757463	-2.984400	2.672800	-7.975300	28.970436	0.000207	20.794363
2580.761127	-3.008600	2.669800	-8.030400	29.022674	0.000208	20.759276
2581.781549	-2.996200	2.665900	-7.987000	29.066642	0.000210	20.776550
2582.756942	-3.016500	2.660400	-8.023200	29.106244	0.000208	20.774254
2583.761227	-3.012400	2.657700	-8.005100	29.149508	0.000209	20.786554
2584.756670	-2.994800	2.652600	-7.943900	29.160586	0.000208	20.801510
2585.765178	-2.988200	2.649300	-7.916000	29.125193	0.000208	20.772484
2586.761806	-3.024700	2.643000	-7.993400	29.096316	0.000209	20.792700
2587.756530	-2.998900	2.640900	-7.919300	29.087699	0.000210	20.782120
2588.774709	-3.026300	2.633400	-7.967800	29.075067	0.000208	20.786935
2589.744023	-3.001500	2.632600	-7.900400	29.116902	0.000209	20.766974
2590.742973	-3.020700	2.625900	-7.930800	29.098623	0.000208	20.763255
2591.743513	-2.980100	2.623200	-7.816000	29.060138	0.000208	20.785169
2592.743874	-3.009900	2.618000	-7.877500	29.047533	0.000208	20.791436
2593.745012	-2.985300	2.613700	-7.801400	29.087607	0.000208	20.773966
2594.746092	-2.989200	2.607400	-7.792600	29.098184	0.000208	20.773718
2595.768519	-3.001900	2.602200	-7.809900	29.090876	0.000210	20.775364
2596.747946	-2.976800	2.599600	-7.736900	29.084017	0.000210	20.784574
2597.743959	-2.990600	2.593200	-7.754500	29.098085	0.000208	20.783102
2598.763335	-2.974400	2.586900	-7.693000	29.109776	0.000207	20.792985
2599.765484	-2.974000	2.581400	-7.676200	29.157256	0.000209	20.775869
2600.760564	-2.978700	2.576400	-7.672700	29.190116	0.000209	20.789068
2601.759854	-3.017200	2.570400	-7.753700	29.195467	0.000208	20.796831
2602.763886	-2.963800	2.565600	-7.601900	29.213645	0.000207	20.789071
2603.761447	-3.010700	2.559300	-7.702600	29.243288	0.000208	20.781959
2604.769974	-2.962700	2.555000	-7.568800	29.289245	0.000207	20.784652
2605.768438	-3.001100	2.546700	-7.642300	29.238709	0.000208	20.775922
2606.744472	-2.985500	2.541800	-7.588000	29.178261	0.000209	20.786131
2607.760136	-2.964000	2.536600	-7.517400	29.116149	0.000209	20.780915
2608.768114	-3.014700	2.529000	-7.623800	29.071568	0.000211	20.790996
2609.764052	-2.992800	2.523800	-7.552300	28.993058	0.000207	20.795819
2610.773492	-3.029800	2.517700	-7.627400	28.955261	0.000209	20.789506
2611.766540	-2.981500	2.511500	-7.487100	28.922688	0.000209	20.773760
2612.773013	-2.991800	2.504300	-7.491200	28.944984	0.000207	20.791480
2613.765018	-2.993500	2.498800	-7.479200	29.011464	0.000209	20.793975
