LabVIEW Measurement	
Writer_Version	2
Reader_Version	2
Separator	Tab
Decimal_Separator	.
Multi_Headings	No
X_Columns	One
Time_Pref	Absolute
Operator	admin
Description	Clolumns are: time, Current, Voltage, Power, Battery Temp, and Chamber Temp
Date	2024/08/16
Time	13:06:06.104549407958984375
***End_of_Header***	
	
Channels	6						
Samples	1	1	1	1	1	1	
Date	2024/08/22	2024/08/22	2024/08/22	2024/08/22	2024/08/22	2024/08/22	
Time	06:45:47.6715950965881347656	06:45:47.6774854660034179687	06:45:47.6836657524108886719	06:45:47.6517744064331054687	06:45:47.6517744064331054687	06:45:47.6517744064331054687	
X_Dimension	Time	Time	Time	Time	Time	Time	
X0	0.0000000000000000E+0	0.0000000000000000E+0	0.0000000000000000E+0	0.0000000000000000E+0	0.0000000000000000E+0	0.0000000000000000E+0	
Delta_X	1.000000	1.000000	1.000000	1.000000	1.000000	1.000000	
***End_of_Header***							
X_Value	Untitled	Untitled 1	Untitled 2	Untitled 3	Untitled 4	Untitled 5	Comment
0.000000	0.015069	4.111800	0.061913	20.931496	0.000985	20.694897
0.995341	-3.002900	3.957400	-11.882000	20.926730	0.000984	20.690604
1.996301	-3.001300	3.951000	-11.856000	20.924485	0.000982	20.696894
2.995849	-3.009400	3.944200	-11.868000	20.924586	0.000982	20.690830
3.999290	-3.014200	3.941800	-11.879000	20.928703	0.000980	20.710597
4.994302	-2.981600	3.938600	-11.742000	20.909688	0.000982	20.717659
5.997103	-2.997600	3.933300	-11.789000	20.924587	0.000978	20.709799
6.996860	-2.982200	3.932800	-11.727000	20.931698	0.000978	20.696996
7.996027	-2.981600	3.929900	-11.717000	20.934519	0.000976	20.699343
9.000303	-2.993900	3.927600	-11.757000	20.937164	0.000977	20.681124
9.998542	-3.006400	3.926500	-11.803000	20.943178	0.000975	20.680026
11.000533	-2.986300	3.924700	-11.719000	20.938039	0.000976	20.686266
11.996627	-2.997000	3.923100	-11.755000	20.945151	0.000976	20.684845
12.998165	-2.980900	3.921900	-11.688000	20.958751	0.000972	20.700819
13.998683	-2.987300	3.920000	-11.709000	20.943580	0.000973	20.685170
14.997279	-3.004500	3.918500	-11.773000	20.962795	0.000974	20.689689
15.997651	-3.019200	3.917400	-11.827000	20.947824	0.000973	20.677086
16.996758	-2.988200	3.916900	-11.703000	20.944930	0.000972	20.677510
17.997182	-3.001200	3.915700	-11.750000	20.968784	0.000973	20.684774
18.997568	-3.002900	3.913900	-11.752000	20.966415	0.000971	20.681455
20.001563	-3.002900	3.912900	-11.749000	20.969435	0.000971	20.683053
20.998183	-3.007200	3.913700	-11.767000	20.978167	0.000970	20.669027
21.998833	-2.996500	3.911600	-11.720000	20.963846	0.000967	20.687422
23.003007	-2.988500	3.910600	-11.686000	20.978843	0.000969	20.681557
24.001611	-2.998800	3.910000	-11.724000	20.972107	0.000967	20.703746
25.003715	-3.009600	3.908300	-11.762000	21.009385	0.000967	20.680810
26.000854	-3.000800	3.908000	-11.727000	20.981190	0.000966	20.674895
27.000646	-2.995300	3.907700	-11.703000	20.986481	0.000966	20.697258
28.001459	-3.017900	3.906200	-11.788000	21.004123	0.000965	20.703050
29.001631	-3.017400	3.905900	-11.784000	21.006941	0.000966	20.685953
30.002559	-3.000200	3.905500	-11.716000	21.026030	0.000964	20.687977
31.000861	-2.990900	3.904400	-11.677000	21.021765	0.000964	20.677071
32.006200	-2.980900	3.905200	-11.639000	21.009814	0.000962	20.672229
33.002718	-2.994600	3.903400	-11.688000	21.024684	0.000961	20.687104
34.004195	-2.988900	3.903200	-11.665000	21.043075	0.000964	20.690800
35.005822	-3.012600	3.903100	-11.757000	21.035516	0.000962	20.669487
36.002344	-3.005900	3.902700	-11.730000	21.046395	0.000962	20.696966
37.003398	-3.003700	3.900600	-11.714000	21.060218	0.000960	20.675229
38.002283	-2.997400	3.902200	-11.695000	21.065358	0.000959	20.701235
39.003862	-2.996800	3.901000	-11.690000	21.054581	0.000960	20.697568
40.003891	-3.009300	3.900000	-11.735000	21.066658	0.000959	20.684990
41.008594	-2.992000	3.899200	-11.665000	21.060123	0.000959	20.687463
42.006038	-2.977900	3.899700	-11.612000	21.085271	0.000957	20.688909
43.005504	-3.014400	3.899100	-11.753000	21.094203	0.000959	20.687886
44.007151	-3.010100	3.897400	-11.730000	21.074121	0.000959	20.662107
45.007109	-2.999000	3.897100	-11.687000	21.096676	0.000957	20.687515
46.011666	-2.982300	3.897700	-11.624000	21.093782	0.000958	20.708804
47.007544	-2.996100	3.897800	-11.677000	21.102216	0.000957	20.689263
48.010547	-2.981900	3.896600	-11.619000	21.109676	0.000955	20.697200
49.006933	-3.015400	3.895300	-11.746000	21.105885	0.000956	20.693408
50.008121	-3.002400	3.894800	-11.693000	21.129287	0.000954	20.675563
51.009718	-3.010800	3.895500	-11.728000	21.141088	0.000956	20.684049
52.009385	-3.019300	3.894400	-11.758000	21.137145	0.000956	20.695754
53.008909	-3.011800	3.894400	-11.728000	21.151390	0.000956	20.676811
54.010465	-3.014300	3.893100	-11.734000	21.152764	0.000954	20.686720
55.011415	-3.006100	3.894500	-11.706000	21.164116	0.000955	20.685748
56.011051	-2.989100	3.892300	-11.632000	21.159251	0.000956	20.699375
57.012372	-2.995900	3.893100	-11.663000	21.173272	0.000953	20.690640
58.011277	-2.982100	3.893600	-11.609000	21.182428	0.000953	20.689367
59.013431	-2.991000	3.892600	-11.641000	21.170703	0.000954	20.685699
60.013550	-2.996600	3.892600	-11.664000	21.200141	0.000953	20.688594
61.012663	-2.988700	3.892100	-11.631000	21.193679	0.000953	20.676439
62.015177	-3.016500	3.891000	-11.736000	21.209995	0.000954	20.684227
63.012720	-3.009100	3.890000	-11.704000	21.215509	0.000952	20.687372
64.016121	-2.995900	3.889800	-11.652000	21.234817	0.000952	20.671599
65.014506	-3.004700	3.891600	-11.692000	21.215559	0.000955	20.674619
66.015779	-2.999700	3.890600	-11.670000	21.245269	0.000952	20.683479
67.016835	-2.986700	3.890100	-11.618000	21.233795	0.000951	20.683853
68.019710	-2.987800	3.889700	-11.621000	21.229479	0.000953	20.672897
69.014834	-3.007600	3.888400	-11.694000	21.257369	0.000950	20.697955
70.016519	-2.990200	3.888000	-11.624000	21.254026	0.000953	20.679436
71.016443	-3.003200	3.887400	-11.672000	21.265676	0.000950	20.697730
72.017639	-3.014600	3.887300	-11.717000	21.256646	0.000951	20.703870
73.021069	-3.013700	3.887300	-11.714000	21.272986	0.000950	20.679437
74.019279	-2.989600	3.889000	-11.626000	21.276602	0.000952	20.679262
75.020903	-2.999100	3.886900	-11.656000	21.276327	0.000950	20.686574
76.019624	-3.001600	3.887800	-11.669000	21.286207	0.000948	20.681758
77.021955	-3.016400	3.887700	-11.725000	21.306761	0.000951	20.698055
78.023054	-3.003400	3.886700	-11.672000	21.288601	0.000949	20.686051
79.021373	-3.013500	3.885400	-11.707000	21.329136	0.000949	20.698630
80.022447	-2.993500	3.887600	-11.635000	21.299628	0.000949	20.686177
81.024010	-3.005700	3.885800	-11.679000	21.303070	0.000948	20.690569
82.023725	-3.008000	3.886000	-11.687000	21.318136	0.000950	20.682408
83.024503	-2.983900	3.886600	-11.596000	21.332205	0.000949	20.707865
84.025555	-3.001200	3.886100	-11.663000	21.356500	0.000950	20.710360
85.024577	-2.976100	3.884800	-11.561000	21.340386	0.000951	20.702773
86.025544	-2.984100	3.885000	-11.592000	21.362038	0.000948	20.710685
87.025036	-2.998300	3.884500	-11.647000	21.353782	0.000948	20.719496
88.025633	-3.010800	3.883800	-11.692000	21.357373	0.000949	20.684205
89.029306	-2.994800	3.883700	-11.630000	21.381768	0.000948	20.716675
90.026818	-2.973700	3.884300	-11.550000	21.377851	0.000949	20.692840
91.028615	-3.003500	3.883600	-11.664000	21.393866	0.000948	20.706968
92.026909	-2.999200	3.882700	-11.644000	21.377105	0.000947	20.704896
93.026199	-2.999200	3.883300	-11.646000	21.392469	0.000949	20.713157
94.028172	-2.997200	3.883500	-11.639000	21.394240	0.000948	20.703549
95.030439	-2.988300	3.882700	-11.602000	21.412849	0.000949	20.724065
96.027043	-2.999500	3.882800	-11.646000	21.425096	0.000949	20.717826
97.025829	-2.997300	3.883200	-11.639000	21.410130	0.000949	20.711861
98.027195	-2.997200	3.883000	-11.637000	21.431082	0.000947	20.704849
99.027539	-3.006600	3.882500	-11.673000	21.441733	0.000948	20.703177
100.030456	-3.001800	3.881600	-11.651000	21.452135	0.000948	20.702205
101.027701	-3.012400	3.881800	-11.692000	21.459267	0.000948	20.697487
102.030773	-3.022300	3.880000	-11.726000	21.454056	0.000950	20.678521
103.028121	-2.989600	3.880900	-11.601000	21.451612	0.000950	20.721124
104.028494	-2.995100	3.881200	-11.623000	21.496106	0.000948	20.694044
105.031475	-2.992700	3.881900	-11.616000	21.492042	0.000947	20.698988
106.027959	-2.987000	3.881900	-11.595000	21.500398	0.000947	20.699762
107.027936	-3.011000	3.880000	-11.682000	21.490372	0.000948	20.710593
108.028262	-3.008500	3.879300	-11.669000	21.524916	0.000948	20.696320
109.028594	-3.004500	3.879200	-11.652000	21.519529	0.000948	20.730286
110.028352	-2.992400	3.879000	-11.606000	21.521948	0.000947	20.717533
111.030478	-3.017200	3.879300	-11.704000	21.509779	0.000947	20.695872
112.028006	-3.003300	3.878800	-11.649000	21.523447	0.000949	20.719982
113.029374	-3.002200	3.878700	-11.644000	21.550905	0.000949	20.721853
114.029109	-2.995200	3.878400	-11.616000	21.543474	0.000948	20.694500
115.029251	-3.012300	3.878800	-11.682000	21.559884	0.000949	20.704284
116.032700	-2.979700	3.878900	-11.555000	21.565995	0.000950	20.714668
117.029884	-3.004000	3.878000	-11.649000	21.576269	0.000949	20.718311
118.031744	-3.031500	3.877100	-11.753000	21.581034	0.000948	20.709801
119.033047	-2.998200	3.878700	-11.628000	21.598093	0.000948	20.719761
120.030629	-3.003300	3.877000	-11.642000	21.598666	0.000949	20.714170
121.030173	-3.015700	3.877700	-11.692000	21.585998	0.000947	20.718089
122.030847	-3.004400	3.877000	-11.647000	21.585899	0.000948	20.728421
123.030476	-2.998400	3.876900	-11.623000	21.576299	0.000949	20.718340
124.028919	-3.001300	3.876600	-11.635000	21.572782	0.000949	20.728098
125.029272	-2.994900	3.875800	-11.606000	21.590590	0.000949	20.712726
126.031834	-3.018800	3.876900	-11.701000	21.608744	0.000949	20.709556
127.033597	-3.004200	3.877600	-11.648000	21.619342	0.000951	20.722059
128.031535	-3.017800	3.876100	-11.695000	21.599965	0.000949	20.716419
129.034531	-2.991700	3.876500	-11.596000	21.633084	0.000949	20.712102
130.031559	-3.002800	3.875500	-11.636000	21.651637	0.000949	20.724032
131.030985	-2.997300	3.875400	-11.613000	21.635153	0.000950	20.729821
132.034687	-3.006900	3.875000	-11.651000	21.663656	0.000953	20.714248
133.030515	-2.999600	3.875400	-11.624000	21.638695	0.000953	20.715821
134.033340	-3.006700	3.874400	-11.648000	21.633758	0.000952	20.713251
135.031239	-3.010400	3.874000	-11.662000	21.650714	0.000953	20.726428
136.032754	-2.991200	3.875300	-11.592000	21.654880	0.000952	20.721113
137.035911	-3.012000	3.874800	-11.669000	21.686075	0.000951	20.738108
138.032083	-3.001100	3.874100	-11.626000	21.649817	0.000952	20.732642
139.033303	-2.993300	3.873000	-11.592000	21.668295	0.000952	20.726477
140.031921	-2.986900	3.873200	-11.567000	21.667024	0.000951	20.732792
141.031729	-2.988000	3.872800	-11.572000	21.679892	0.000952	20.735713
142.033452	-3.000700	3.874600	-11.626000	21.684231	0.000950	20.713975
143.037189	-2.996400	3.873200	-11.604000	21.706174	0.000953	20.714125
144.035519	-3.012600	3.872100	-11.664000	21.717146	0.000952	20.721786
145.035638	-3.002900	3.870900	-11.622000	21.733030	0.000953	20.746220
146.036125	-3.001500	3.874100	-11.627000	21.747342	0.000954	20.727352
147.037714	-3.029900	3.870100	-11.725000	21.740860	0.000953	20.739831
148.040380	-2.984800	3.872400	-11.557000	21.738964	0.000954	20.732243
149.037910	-2.992600	3.873000	-11.589000	21.738016	0.000954	20.738882
150.039389	-2.999800	3.871900	-11.614000	21.752180	0.000953	20.728400
151.040387	-3.009000	3.871500	-11.649000	21.760384	0.000953	20.742302
152.040243	-3.003800	3.871500	-11.629000	21.766593	0.000955	20.716272
153.041349	-2.997400	3.871600	-11.602000	21.762953	0.000955	20.735864
154.040758	-3.016100	3.871700	-11.676000	21.776294	0.000953	20.737836
155.039581	-3.006900	3.871500	-11.639000	21.769188	0.000955	20.747794
156.040829	-3.010300	3.870100	-11.649000	21.793423	0.000953	20.728427
157.041683	-2.997600	3.869200	-11.598000	21.796789	0.000955	20.725158
158.042855	-2.987200	3.871500	-11.564000	21.807411	0.000954	20.734841
159.043108	-2.960700	3.872400	-11.463000	21.791852	0.000955	20.751511
160.042289	-2.986700	3.870100	-11.557000	21.813047	0.000955	20.731947
161.045843	-3.020200	3.870100	-11.688000	21.820029	0.000954	20.740832
162.045129	-3.006800	3.868200	-11.630000	21.821824	0.000955	20.764441
163.043584	-3.002200	3.869000	-11.614000	21.824716	0.000955	20.744576
164.046391	-3.001500	3.870100	-11.615000	21.831199	0.000954	20.767661
165.044042	-2.991200	3.869500	-11.573000	21.838730	0.000956	20.737739
166.047705	-3.004000	3.869000	-11.621000	21.875953	0.000956	20.749392
167.045315	-2.996300	3.869700	-11.592000	21.874482	0.000956	20.762619
168.044874	-2.984600	3.869900	-11.549000	21.878447	0.000958	20.758527
169.049544	-3.017100	3.869000	-11.673000	21.890240	0.000958	20.731449
170.050084	-3.006700	3.869000	-11.631000	21.872113	0.000959	20.747445
171.049165	-2.977800	3.868700	-11.519000	21.912378	0.000958	20.760248
172.049265	-2.995300	3.867700	-11.584000	21.919184	0.000958	20.754258
173.048894	-2.999700	3.867800	-11.601000	21.916068	0.000958	20.754933
174.049562	-3.002400	3.867700	-11.611000	21.917314	0.000958	20.781310
175.051559	-2.991600	3.867200	-11.568000	21.940150	0.000958	20.743477
176.048926	-2.989900	3.867800	-11.563000	21.933070	0.000958	20.742553
177.049936	-3.009700	3.866900	-11.637000	21.927386	0.000959	20.755830
178.050232	-2.997100	3.867200	-11.590000	21.945734	0.000959	20.772300
179.050491	-3.030400	3.865800	-11.715000	21.946531	0.000961	20.745122
180.051523	-3.009000	3.865700	-11.632000	21.971261	0.000962	20.740954
181.051646	-3.008800	3.866000	-11.630000	21.960018	0.000962	20.769055
182.053589	-2.981200	3.865200	-11.520000	21.974727	0.000961	20.769555
183.053442	-3.006400	3.865800	-11.621000	21.997312	0.000964	20.763239
184.052906	-3.003900	3.866100	-11.611000	21.969689	0.000963	20.753605
185.053822	-2.998300	3.866900	-11.593000	21.997411	0.000962	20.762864
186.056194	-2.993300	3.865000	-11.568000	21.993945	0.000962	20.758920
187.054030	-3.000800	3.864400	-11.594000	22.020695	0.000962	20.773845
188.054007	-2.991700	3.865900	-11.564000	22.038891	0.000963	20.755076
189.054214	-2.992900	3.865800	-11.569000	22.023062	0.000963	20.766257
190.054598	-2.985800	3.864500	-11.538000	22.016555	0.000963	20.764959
191.055885	-3.013500	3.864100	-11.644000	22.018301	0.000964	20.776189
192.055842	-3.013500	3.865000	-11.646000	21.998233	0.000965	20.779334
193.056012	-2.981800	3.865800	-11.525000	22.036249	0.000964	20.759544
194.056256	-3.025600	3.861400	-11.681000	22.030890	0.000965	20.775516
195.057767	-3.025500	3.863800	-11.689000	22.031364	0.000964	20.777413
196.059519	-3.001900	3.865200	-11.602000	22.073493	0.000965	20.789242
197.060251	-2.997800	3.863300	-11.581000	22.066040	0.000965	20.795057
198.056034	-3.011000	3.862400	-11.628000	22.076834	0.000965	20.773621
199.057952	-3.000400	3.863000	-11.589000	22.069879	0.000966	20.798426
200.057870	-3.009300	3.861900	-11.621000	22.082319	0.000966	20.783379
201.057605	-2.993400	3.863200	-11.563000	22.086657	0.000966	20.754057
202.060671	-2.999600	3.862400	-11.585000	22.067213	0.000966	20.783904
203.059467	-2.973200	3.863600	-11.486000	22.076836	0.000965	20.790693
204.061722	-2.971400	3.862500	-11.475000	22.071827	0.000967	20.779513
205.061246	-2.976500	3.862300	-11.496000	22.099944	0.000966	20.795335
206.061459	-3.001600	3.862900	-11.593000	22.104334	0.000969	20.776021
207.065225	-2.979400	3.860100	-11.498000	22.104059	0.000969	20.786178
208.061768	-3.001700	3.861200	-11.589000	22.103062	0.000967	20.784231
209.060869	-2.986600	3.861600	-11.531000	22.100147	0.000970	20.775149
210.061257	-2.986100	3.862200	-11.530000	22.129461	0.000971	20.751865
211.061070	-2.982900	3.860800	-11.515000	22.116575	0.000970	20.793019
212.062063	-2.991200	3.859700	-11.544000	22.114531	0.000970	20.770583
213.066151	-3.011500	3.858500	-11.619000	22.101619	0.000971	20.773303
214.061915	-2.999600	3.861600	-11.583000	22.117274	0.000973	20.785657
215.061557	-2.982500	3.860400	-11.512000	22.127120	0.000972	20.775126
216.062095	-2.985800	3.860400	-11.526000	22.134448	0.000973	20.803326
217.062936	-2.993600	3.860900	-11.558000	22.159051	0.000971	20.778172
218.067811	-3.009200	3.858400	-11.609000	22.174855	0.000972	20.784985
219.063466	-2.996600	3.859300	-11.563000	22.176700	0.000975	20.788729
220.065032	-3.001300	3.859200	-11.581000	22.187120	0.000972	20.785411
221.063875	-2.997200	3.859800	-11.567000	22.191907	0.000974	20.790204
222.066233	-3.002200	3.858700	-11.583000	22.195048	0.000974	20.796667
223.068879	-2.983000	3.858200	-11.507000	22.185925	0.000974	20.799388
224.065376	-2.996100	3.859100	-11.561000	22.201678	0.000976	20.787659
225.064860	-3.027800	3.857600	-11.679000	22.217779	0.000976	20.779598
226.066370	-3.009300	3.858600	-11.610000	22.231762	0.000976	20.784590
227.066809	-3.022300	3.856200	-11.654000	22.226204	0.000977	20.798465
228.064839	-3.015700	3.857100	-11.631000	22.250081	0.000976	20.788232
229.067573	-3.004400	3.857600	-11.589000	22.250879	0.000978	20.795195
230.067963	-2.996800	3.858700	-11.562000	22.268626	0.000978	20.812017
231.069664	-2.992100	3.857400	-11.539000	22.257011	0.000979	20.809396
232.067840	-2.990300	3.857600	-11.534000	22.265187	0.000976	20.792452
233.068133	-3.002800	3.857500	-11.582000	22.257935	0.000979	20.803209
234.071974	-2.979300	3.857300	-11.491000	22.252601	0.000979	20.810670
235.068067	-2.980500	3.856900	-11.494000	22.285176	0.000981	20.799191
236.070797	-2.999600	3.855700	-11.564000	22.275058	0.000978	20.804233
237.068147	-2.999600	3.855300	-11.563000	22.278124	0.000980	20.792604
238.069456	-2.992200	3.856400	-11.538000	22.280641	0.000980	20.801762
239.073107	-3.010300	3.855800	-11.606000	22.284855	0.000981	20.815464
240.072570	-3.002900	3.855400	-11.576000	22.311198	0.000981	20.800117
241.069783	-3.012000	3.855600	-11.612000	22.308034	0.000983	20.813070
242.070470	-2.991000	3.854900	-11.527000	22.326303	0.000982	20.819983
243.070572	-2.986200	3.854900	-11.510000	22.330763	0.000984	20.794578
244.070975	-3.006800	3.855300	-11.591000	22.322192	0.000984	20.811599
245.072746	-3.001700	3.854900	-11.569000	22.352248	0.000985	20.818936
246.070826	-3.006700	3.851900	-11.581000	22.356685	0.000986	20.818164
247.070667	-2.991400	3.854600	-11.530000	22.337844	0.000984	20.805461
248.071748	-3.013600	3.852400	-11.608000	22.348112	0.000986	20.793458
249.071331	-3.011500	3.853200	-11.603000	22.359402	0.000985	20.844591
250.072203	-2.993600	3.853400	-11.535000	22.360847	0.000986	20.792934
251.071853	-3.007700	3.853200	-11.589000	22.339689	0.000986	20.806835
252.072409	-3.012300	3.850500	-11.598000	22.366107	0.000988	20.812899
253.071249	-3.023500	3.852200	-11.646000	22.355640	0.000988	20.800048
254.070637	-3.013300	3.851400	-11.604000	22.347068	0.000988	20.807111
255.072456	-2.997100	3.853800	-11.549000	22.350083	0.000988	20.816294
256.071149	-2.995600	3.852200	-11.537000	22.354446	0.000990	20.825878
257.071602	-3.002500	3.852100	-11.565000	22.369697	0.000990	20.810331
258.071701	-3.007200	3.853300	-11.586000	22.367306	0.000991	20.841601
259.072618	-2.983600	3.852800	-11.495000	22.382731	0.000992	20.826228
260.072031	-2.994300	3.851400	-11.532000	22.382558	0.000991	20.820364
261.075608	-2.984900	3.852000	-11.497000	22.380639	0.000992	20.809908
262.073578	-2.992600	3.852100	-11.527000	22.411790	0.000992	20.823558
263.073901	-3.010600	3.849000	-11.586000	22.433471	0.000992	20.821088
264.076142	-3.023500	3.849800	-11.638000	22.424724	0.000992	20.812330
265.073957	-3.013500	3.849800	-11.600000	22.425122	0.000994	20.821262
266.077725	-2.999900	3.849400	-11.547000	22.436685	0.000994	20.844221
267.076992	-3.013400	3.848800	-11.596000	22.463748	0.000996	20.828650
268.074550	-3.012800	3.849700	-11.597000	22.448698	0.000993	20.834440
269.074709	-3.001400	3.850700	-11.556000	22.464022	0.000995	20.836985
270.073997	-2.996700	3.849200	-11.532000	22.477554	0.000995	20.839631
271.075460	-3.010500	3.848100	-11.583000	22.466315	0.000996	20.810358
272.075114	-2.996800	3.850100	-11.537000	22.484107	0.000998	20.825805
273.075358	-2.991800	3.848500	-11.514000	22.480567	0.000998	20.822735
274.075791	-2.991500	3.848500	-11.511000	22.473043	0.000999	20.823260
275.076755	-3.009200	3.849000	-11.581000	22.473169	0.000999	20.838084
276.077048	-3.030800	3.848400	-11.663000	22.476880	0.000999	20.837534
277.077835	-3.002300	3.849000	-11.555000	22.492604	0.001001	20.825780
278.078719	-2.983300	3.848300	-11.479000	22.515230	0.000997	20.822835
279.080553	-3.005200	3.847800	-11.561000	22.524671	0.001001	20.820911
280.077414	-2.985700	3.848500	-11.490000	22.489686	0.001000	20.840875
281.079472	-3.003000	3.847100	-11.552000	22.532147	0.001003	20.835036
282.084694	-3.015400	3.846700	-11.598000	22.521381	0.001002	20.840375
283.081503	-3.005200	3.846800	-11.559000	22.527810	0.001002	20.836857
284.081872	-3.001300	3.846100	-11.543000	22.541140	0.001003	20.849732
285.080206	-3.004900	3.847200	-11.559000	22.560524	0.001002	20.861559
286.080094	-2.993600	3.846300	-11.513000	22.564886	0.001005	20.846962
287.082817	-3.000700	3.845500	-11.539000	22.602683	0.001005	20.864903
288.084514	-3.013300	3.845500	-11.586000	22.579385	0.001006	20.850104
289.081687	-2.999000	3.846500	-11.534000	22.587060	0.001006	20.836455
290.081380	-3.005000	3.846800	-11.559000	22.577068	0.001006	20.845886
291.083586	-3.008200	3.845000	-11.566000	22.581328	0.001007	20.854895
292.081985	-3.010000	3.845700	-11.575000	22.586235	0.001006	20.834206
293.084763	-3.013200	3.844500	-11.583000	22.595180	0.001006	20.849328
294.081582	-3.000500	3.845200	-11.536000	22.625202	0.001007	20.861380
295.085675	-3.004300	3.845100	-11.551000	22.636987	0.001008	20.855640
296.084229	-2.983600	3.844900	-11.471000	22.627245	0.001008	20.843512
297.084539	-2.994900	3.844400	-11.512000	22.616729	0.001011	20.858583
298.084931	-2.997800	3.843400	-11.521000	22.615682	0.001010	20.851845
299.084108	-2.994300	3.844100	-11.509000	22.640548	0.001009	20.856836
300.084299	-3.004200	3.843500	-11.545000	22.660455	0.001010	20.845482
301.084332	-3.021200	3.843100	-11.609000	22.660230	0.001011	20.850946
302.086886	-2.976400	3.843600	-11.438000	22.674955	0.001012	20.823496
303.087485	-2.994600	3.842800	-11.506000	22.666383	0.001013	20.850945
304.088491	-2.990200	3.842900	-11.490000	22.682453	0.001011	20.828636
305.086535	-3.006900	3.841700	-11.549000	22.652207	0.001013	20.846229
306.089087	-3.027800	3.842000	-11.632000	22.685019	0.001014	20.810817
307.088514	-2.987100	3.842100	-11.476000	22.659781	0.001013	20.840539
308.087711	-3.002700	3.841500	-11.533000	22.683400	0.001013	20.848549
309.089401	-2.993700	3.843300	-11.505000	22.680584	0.001015	20.837195
310.087823	-2.996700	3.842000	-11.511000	22.723311	0.001015	20.836371
311.090562	-3.018500	3.840300	-11.590000	22.696279	0.001016	20.845803
312.087955	-3.018800	3.839500	-11.590000	22.703480	0.001015	20.848749
313.087757	-3.016900	3.839200	-11.581000	22.709685	0.001016	20.841688
314.091984	-3.020300	3.838800	-11.593000	22.704677	0.001018	20.849473
315.090136	-3.003500	3.840900	-11.536000	22.732654	0.001017	20.832454
316.089891	-3.009500	3.837600	-11.547000	22.695931	0.001017	20.838342
317.089073	-3.010800	3.840700	-11.563000	22.704276	0.001017	20.826788
318.089433	-3.014500	3.840500	-11.576000	22.737163	0.001019	20.861151
319.089438	-3.000000	3.839800	-11.517000	22.745633	0.001022	20.844980
320.089470	-3.021600	3.839100	-11.599000	22.744910	0.001019	20.821497
321.091535	-2.992800	3.839000	-11.488000	22.744389	0.001018	20.820501
322.095074	-2.994900	3.838200	-11.495000	22.736540	0.001021	20.825441
323.091942	-3.001500	3.838600	-11.520000	22.728318	0.001022	20.840912
324.091607	-2.981500	3.838700	-11.444000	22.723262	0.001021	20.825416
325.096157	-2.996000	3.839100	-11.502000	22.733899	0.001023	20.837494
326.091692	-2.987400	3.838500	-11.467000	22.739081	0.001021	20.835572
327.091486	-2.994900	3.837900	-11.493000	22.713868	0.001022	20.842559
328.092152	-2.999700	3.837100	-11.509000	22.733825	0.001024	20.822721
329.091654	-2.985300	3.838400	-11.457000	22.731831	0.001024	20.838267
330.091737	-2.988200	3.836800	-11.464000	22.736116	0.001024	20.823119
331.095755	-2.984200	3.837900	-11.451000	22.723808	0.001024	20.815059
332.092613	-2.979300	3.837400	-11.432000	22.745532	0.001026	20.821646
333.091691	-2.991000	3.836200	-11.473000	22.747548	0.001028	20.817976
334.092219	-2.976200	3.836500	-11.417000	22.741619	0.001027	20.846649
335.092018	-3.021000	3.834800	-11.584000	22.743013	0.001027	20.827183
336.095793	-2.989400	3.837300	-11.470000	22.754946	0.001029	20.814955
337.095140	-2.998800	3.834800	-11.498000	22.750064	0.001029	20.824289
338.097706	-2.996500	3.835700	-11.493000	22.787954	0.001027	20.828106
339.096458	-3.009500	3.835400	-11.541000	22.792612	0.001030	20.823288
340.097197	-3.003000	3.835300	-11.516000	22.806264	0.001030	20.838386
341.097979	-2.997200	3.836200	-11.496000	22.808479	0.001030	20.842027
342.096546	-3.009200	3.834400	-11.537000	22.802077	0.001033	20.830873
343.097923	-2.985900	3.835400	-11.450000	22.798714	0.001032	20.820867
344.099542	-2.992900	3.836200	-11.480000	22.780252	0.001032	20.831769
345.097804	-3.001400	3.832800	-11.502000	22.778857	0.001035	20.807613
346.098166	-3.003200	3.833400	-11.511000	22.790691	0.001032	20.814726
347.101559	-2.977700	3.835300	-11.420000	22.792284	0.001035	20.806365
348.099314	-2.984300	3.833700	-11.440000	22.791238	0.001033	20.818593
349.101345	-3.006400	3.832100	-11.520000	22.773874	0.001036	20.829648
350.100303	-2.993200	3.834000	-11.475000	22.753370	0.001036	20.826178
351.098654	-2.986400	3.832400	-11.444000	22.757480	0.001036	20.835510
352.099031	-2.985000	3.832400	-11.438000	22.760867	0.001038	20.826101
353.101377	-2.990400	3.832600	-11.460000	22.779675	0.001037	20.823131
354.099189	-2.994800	3.832000	-11.475000	22.781419	0.001038	20.833412
355.099611	-2.992700	3.832100	-11.467000	22.800351	0.001038	20.818713
356.099186	-2.993200	3.831400	-11.467000	22.816170	0.001039	20.821758
357.100027	-2.982100	3.831900	-11.426000	22.822795	0.001040	20.824127
358.099222	-3.012700	3.830600	-11.540000	22.835002	0.001039	20.822605
359.099623	-3.011300	3.831200	-11.536000	22.827727	0.001040	20.802516
360.099383	-3.006400	3.830200	-11.514000	22.822321	0.001042	20.821281
361.100654	-2.997800	3.831600	-11.486000	22.820752	0.001043	20.808804
362.103584	-3.004100	3.831100	-11.508000	22.833780	0.001042	20.833235
363.100280	-3.001500	3.829000	-11.492000	22.838438	0.001041	20.804237
364.101562	-3.013100	3.829400	-11.537000	22.828224	0.001042	20.825299
365.099649	-2.999100	3.830500	-11.487000	22.836171	0.001044	20.803862
366.101147	-2.982100	3.830900	-11.423000	22.850471	0.001043	20.812972
367.104317	-2.949200	3.830800	-11.296000	22.861405	0.001043	20.814443
368.102858	-2.986500	3.829800	-11.436000	22.884124	0.001045	20.810651
369.100462	-2.981800	3.830100	-11.418000	22.860285	0.001044	20.808105
370.101390	-3.012000	3.828900	-11.531000	22.892793	0.001044	20.816016
371.103309	-2.990100	3.828500	-11.446000	22.870524	0.001047	20.799397
372.101354	-3.005800	3.828700	-11.507000	22.874683	0.001045	20.814469
373.104022	-3.013700	3.827100	-11.533000	22.885944	0.001046	20.801569
374.102108	-3.020300	3.828300	-11.562000	22.893542	0.001046	20.799697
375.103209	-3.013900	3.826400	-11.531000	22.882806	0.001046	20.801270
376.103604	-2.998200	3.826900	-11.471000	22.878846	0.001046	20.793983
377.103785	-2.981300	3.827700	-11.410000	22.866641	0.001046	20.810680
378.106427	-2.977600	3.828100	-11.397000	22.884401	0.001048	20.809506
379.103228	-2.986000	3.826500	-11.425000	22.884626	0.001049	20.802145
380.107156	-3.016600	3.825400	-11.539000	22.900919	0.001048	20.805191
381.103732	-2.979500	3.826500	-11.401000	22.891852	0.001051	20.788047
382.104802	-2.997700	3.826300	-11.470000	22.916138	0.001050	20.827077
383.106985	-3.000800	3.825000	-11.477000	22.914520	0.001049	20.824033
384.105064	-3.000500	3.824200	-11.474000	22.916115	0.001051	20.805242
385.105618	-2.998400	3.825100	-11.468000	22.933452	0.001051	20.793688
386.107202	-3.004000	3.824700	-11.489000	22.926876	0.001052	20.795161
387.109599	-3.017500	3.823500	-11.537000	22.946927	0.001052	20.781110
388.108119	-2.989800	3.824100	-11.432000	22.938259	0.001053	20.776693
389.109058	-3.001500	3.824100	-11.478000	22.916515	0.001052	20.784780
390.108532	-2.993800	3.823900	-11.447000	22.928346	0.001053	20.786677
391.114114	-3.011200	3.824100	-11.514000	22.924984	0.001054	20.807016
392.110151	-2.990800	3.822500	-11.431000	22.930091	0.001055	20.780839
393.111581	-3.005600	3.822900	-11.489000	22.942645	0.001052	20.797209
394.114584	-3.002000	3.822000	-11.473000	22.956295	0.001054	20.793815
395.111729	-3.001200	3.822300	-11.470000	22.962073	0.001054	20.807665
396.111109	-2.978900	3.822300	-11.385000	22.973830	0.001055	20.803797
397.111551	-3.007600	3.822100	-11.495000	23.013010	0.001056	20.795637
398.111718	-3.022700	3.820900	-11.549000	23.019535	0.001056	20.784158
399.111602	-3.009300	3.822600	-11.502000	22.996398	0.001057	20.794640
400.116018	-3.009500	3.820700	-11.498000	23.010994	0.001055	20.795514
401.111868	-3.003400	3.822000	-11.478000	23.008105	0.001057	20.790723
402.113113	-3.000900	3.821200	-11.466000	23.036199	0.001057	20.794690
403.113602	-3.007100	3.820200	-11.487000	23.039412	0.001058	20.787004
404.114532	-2.983800	3.820700	-11.400000	23.041381	0.001057	20.789451
405.116825	-2.986100	3.820000	-11.406000	23.043896	0.001059	20.783436
406.117209	-3.005400	3.818400	-11.475000	23.043274	0.001060	20.785183
407.116261	-3.017800	3.819200	-11.524000	23.049849	0.001058	20.792720
408.115582	-2.998300	3.819000	-11.448000	23.070745	0.001060	20.802278
409.115280	-2.994100	3.818800	-11.432000	23.058691	0.001060	20.787355
410.117899	-3.000500	3.819000	-11.458000	23.067406	0.001061	20.776173
411.116874	-2.998500	3.819800	-11.452000	23.070920	0.001061	20.775426
412.117563	-3.024800	3.818200	-11.549000	23.053586	0.001059	20.775128
413.116830	-2.998200	3.818700	-11.448000	23.034282	0.001061	20.797511
414.117011	-3.026000	3.817900	-11.552000	23.023001	0.001062	20.802329
415.117858	-3.020500	3.817900	-11.530000	23.041406	0.001062	20.776673
416.120663	-2.999300	3.816300	-11.446000	22.998567	0.001062	20.770734
417.119267	-2.977800	3.817400	-11.366000	23.013113	0.001062	20.782464
418.121011	-2.998500	3.816300	-11.442000	23.051394	0.001062	20.770086
419.118301	-3.002500	3.817000	-11.458000	23.045441	0.001063	20.763647
420.118886	-2.999600	3.817400	-11.450000	23.071843	0.001062	20.779196
421.122458	-2.996800	3.816700	-11.437000	23.065116	0.001063	20.777671
422.118849	-3.001500	3.815500	-11.451000	23.081480	0.001063	20.781266
423.120425	-3.001900	3.815000	-11.452000	23.097393	0.001063	20.771133
424.120990	-2.983300	3.815300	-11.381000	23.114180	0.001065	20.775151
425.121426	-2.996500	3.814700	-11.430000	23.117393	0.001066	20.772681
426.125125	-2.978400	3.815500	-11.362000	23.112485	0.001064	20.783884
427.122881	-3.005300	3.814300	-11.462000	23.118488	0.001065	20.784684
428.125264	-2.987500	3.814600	-11.395000	23.113955	0.001066	20.769710
429.122653	-3.003700	3.813300	-11.452000	23.127800	0.001066	20.765092
430.125179	-3.015900	3.814600	-11.502000	23.123892	0.001068	20.783935
431.127897	-3.018700	3.813700	-11.512000	23.115896	0.001068	20.766914
432.124749	-2.990000	3.814600	-11.405000	23.128199	0.001067	20.774500
433.124230	-3.008400	3.813300	-11.471000	23.143366	0.001067	20.762197
434.124098	-3.011800	3.812000	-11.479000	23.150339	0.001070	20.782936
435.125946	-2.980100	3.812600	-11.361000	23.139754	0.001069	20.764268
436.124934	-3.005500	3.811100	-11.453000	23.138161	0.001068	20.759826
437.126188	-2.967100	3.812900	-11.312000	23.118585	0.001070	20.771031
438.125859	-2.992300	3.810800	-11.402000	23.111513	0.001071	20.763944
439.127222	-2.976800	3.813300	-11.350000	23.107304	0.001070	20.786280
440.125100	-3.025600	3.810200	-11.527000	23.106159	0.001072	20.764743
441.125346	-2.979700	3.812100	-11.358000	23.118362	0.001071	20.768436
442.129042	-3.005200	3.809900	-11.448000	23.156191	0.001071	20.765566
443.125575	-2.976100	3.811400	-11.342000	23.136169	0.001071	20.768736
444.125012	-2.993100	3.811200	-11.407000	23.187521	0.001070	20.746226
445.125646	-2.976200	3.811600	-11.343000	23.150912	0.001072	20.775449
446.125850	-2.989200	3.811000	-11.391000	23.164359	0.001071	20.765216
447.128400	-2.992900	3.810000	-11.402000	23.164908	0.001071	20.755335
448.127179	-2.991200	3.809700	-11.394000	23.159354	0.001074	20.754511
449.128490	-3.000400	3.808200	-11.425000	23.157885	0.001074	20.765841
450.126268	-3.000200	3.808500	-11.425000	23.138484	0.001073	20.764891
451.127611	-3.005900	3.807200	-11.443000	23.138882	0.001074	20.737315
452.129901	-2.997900	3.808000	-11.414000	23.160275	0.001075	20.745001
453.131130	-3.020300	3.807800	-11.500000	23.161720	0.001076	20.768262
454.131690	-2.993800	3.808700	-11.401000	23.195712	0.001075	20.768660
455.130099	-3.020300	3.807100	-11.498000	23.180845	0.001075	20.772254
456.131094	-2.985400	3.807600	-11.366000	23.203532	0.001077	20.749469
457.129333	-3.019900	3.806100	-11.493000	23.214140	0.001077	20.764367
458.129913	-2.996800	3.806900	-11.408000	23.220116	0.001077	20.750441
459.129682	-2.996900	3.806600	-11.407000	23.238419	0.001078	20.755033
460.135672	-3.020600	3.804900	-11.491000	23.237523	0.001078	20.750342
461.130063	-3.019500	3.805100	-11.488000	23.228782	0.001078	20.744900
462.131588	-2.991200	3.804900	-11.380000	23.234858	0.001078	20.762844
463.136785	-3.024400	3.803500	-11.502000	23.217374	0.001076	20.740106
464.131981	-2.994700	3.804500	-11.393000	23.205472	0.001078	20.755681
465.132642	-3.003900	3.803900	-11.425000	23.231494	0.001077	20.764689
466.136454	-3.013300	3.804200	-11.462000	23.205621	0.001078	20.751088
467.133471	-2.987300	3.803100	-11.360000	23.233212	0.001078	20.739383
468.134550	-3.012800	3.804100	-11.458000	23.220311	0.001079	20.734515
469.138123	-2.995000	3.803900	-11.391000	23.222255	0.001078	20.749265
470.135212	-3.010100	3.802600	-11.444000	23.208109	0.001079	20.737933
471.135145	-3.007900	3.802600	-11.437000	23.224593	0.001079	20.740703
472.134803	-2.991600	3.802000	-11.373000	23.239959	0.001078	20.733342
473.134946	-2.982400	3.804200	-11.345000	23.235526	0.001078	20.749289
474.137887	-2.990800	3.803800	-11.375000	23.269266	0.001079	20.746592
475.135162	-2.999900	3.800700	-11.401000	23.285352	0.001079	20.747540
476.136919	-3.003300	3.801400	-11.416000	23.293968	0.001078	20.733889
477.136395	-3.008300	3.802000	-11.435000	23.289958	0.001081	20.745044
478.136513	-3.003800	3.801500	-11.418000	23.293195	0.001080	20.733589
479.139159	-3.035800	3.800300	-11.536000	23.307489	0.001082	20.735112
480.136463	-3.006200	3.800200	-11.423000	23.312443	0.001081	20.726326
481.137641	-2.995400	3.799700	-11.380000	23.317523	0.001081	20.731417
482.138008	-2.972700	3.801400	-11.299000	23.289659	0.001081	20.738580
483.138660	-2.985800	3.801000	-11.348000	23.300938	0.001082	20.738030
484.137447	-3.017900	3.799300	-11.465000	23.303229	0.001082	20.719936
485.139433	-3.005600	3.798600	-11.416000	23.328279	0.001082	20.734611
486.137484	-3.003200	3.798500	-11.406000	23.296232	0.001082	20.735684
487.141507	-2.999400	3.799300	-11.395000	23.291201	0.001081	20.742496
488.138176	-2.988400	3.798200	-11.349000	23.283133	0.001082	20.741997
489.138830	-2.982400	3.798900	-11.329000	23.283880	0.001082	20.743219
490.143342	-2.993200	3.798300	-11.368000	23.285823	0.001084	20.729993
491.140452	-3.018700	3.797700	-11.463000	23.302033	0.001082	20.720634
492.141671	-2.989700	3.799100	-11.357000	23.321257	0.001083	20.728521
493.139342	-2.976500	3.798800	-11.306000	23.332934	0.001083	20.743070
494.138990	-3.012900	3.797300	-11.440000	23.311021	0.001083	20.742445
495.143315	-3.009200	3.795400	-11.419000	23.329996	0.001082	20.737280
496.143882	-2.992400	3.797100	-11.362000	23.345608	0.001087	20.737280
497.139990	-2.985000	3.795900	-11.329000	23.360571	0.001084	20.745165
498.140544	-2.991300	3.796200	-11.355000	23.371278	0.001083	20.738352
499.143396	-2.994200	3.795400	-11.363000	23.353126	0.001086	20.725374
500.142411	-2.986600	3.795800	-11.335000	23.355218	0.001086	20.735058
501.146226	-3.000900	3.796100	-11.389000	23.346577	0.001086	20.722603
502.143717	-3.000400	3.793700	-11.382000	23.359225	0.001086	20.708726
503.146667	-2.994400	3.795300	-11.363000	23.398365	0.001086	20.724249
504.143991	-3.000600	3.794600	-11.385000	23.350136	0.001086	20.724274
505.144234	-2.999400	3.793300	-11.377000	23.368288	0.001090	20.700740
506.145885	-3.002900	3.793600	-11.390000	23.387757	0.001087	20.720255
507.145563	-2.982300	3.794900	-11.316000	23.392763	0.001089	20.721004
508.145627	-3.019900	3.793200	-11.454000	23.389498	0.001086	20.727690
509.147125	-2.995400	3.792800	-11.359000	23.398587	0.001089	20.713565
510.146875	-3.013400	3.792000	-11.426000	23.404190	0.001088	20.734829
511.146147	-3.000400	3.792100	-11.377000	23.412305	0.001088	20.713564
512.148721	-3.004500	3.792700	-11.394000	23.398486	0.001089	20.734328
513.147377	-2.986100	3.792300	-11.324000	23.398186	0.001087	20.720276
514.147298	-3.008200	3.791300	-11.404000	23.431175	0.001088	20.721573
515.147226	-2.993900	3.791800	-11.350000	23.421887	0.001089	20.727437
516.146949	-3.023500	3.788900	-11.454000	23.445640	0.001090	20.707622
517.150630	-2.995700	3.791000	-11.356000	23.426393	0.001089	20.739066
518.149254	-2.991600	3.790200	-11.338000	23.464535	0.001087	20.718975
519.151350	-2.983100	3.791400	-11.308000	23.473248	0.001090	20.723442
520.147963	-3.005100	3.789300	-11.385000	23.480043	0.001089	20.753014
521.149287	-2.996500	3.788500	-11.350000	23.487339	0.001088	20.718125
522.150844	-3.014800	3.788500	-11.421000	23.509022	0.001089	20.711885
523.153461	-2.977500	3.789200	-11.282000	23.498441	0.001090	20.732574
524.150570	-2.985900	3.788700	-11.311000	23.508274	0.001091	20.719196
525.151323	-3.025000	3.786900	-11.455000	23.500083	0.001090	20.727582
526.150970	-3.014200	3.786200	-11.411000	23.477751	0.001089	20.685278
527.153449	-2.999300	3.786500	-11.356000	23.467867	0.001088	20.737014
528.154250	-2.984700	3.787100	-11.303000	23.476531	0.001088	20.720568
529.152908	-2.998600	3.786500	-11.352000	23.488830	0.001089	20.712033
530.155603	-2.999800	3.786000	-11.356000	23.503243	0.001091	20.712730
531.154723	-3.011800	3.786500	-11.403000	23.512107	0.001092	20.694587
532.154395	-3.006300	3.785800	-11.378000	23.519425	0.001089	20.713304
533.158421	-2.982200	3.785200	-11.286000	23.532944	0.001090	20.725908
534.153672	-2.997600	3.785100	-11.346000	23.524529	0.001091	20.718895
535.154339	-3.019200	3.784300	-11.423000	23.519699	0.001093	20.723062
536.154042	-3.011400	3.785400	-11.397000	23.498239	0.001090	20.705342
537.154862	-3.013000	3.784000	-11.399000	23.499483	0.001091	20.717970
538.154966	-3.006700	3.782700	-11.373000	23.519873	0.001092	20.702846
539.157281	-2.992700	3.783000	-11.321000	23.498413	0.001091	20.709784
540.155832	-3.010900	3.783500	-11.390000	23.537872	0.001092	20.728003
541.154973	-2.986400	3.784800	-11.301000	23.531848	0.001090	20.708687
542.156512	-3.008900	3.783100	-11.382000	23.528587	0.001092	20.733394
543.155598	-2.985900	3.783300	-11.296000	23.546885	0.001092	20.714752
544.158610	-2.987700	3.783400	-11.303000	23.555847	0.001093	20.712356
545.155591	-3.018400	3.781700	-11.414000	23.552313	0.001093	20.693638
546.158094	-3.009100	3.781800	-11.379000	23.546188	0.001096	20.706466
547.156023	-2.993200	3.782000	-11.319000	23.536727	0.001093	20.719268
548.156609	-3.016400	3.780300	-11.401000	23.544320	0.001095	20.705542
549.157939	-3.002100	3.780100	-11.348000	23.542278	0.001093	20.729100
550.158768	-2.993200	3.781000	-11.316000	23.539017	0.001093	20.729150
551.156015	-2.989900	3.780400	-11.302000	23.539117	0.001093	20.715500
552.157104	-2.982300	3.779600	-11.270000	23.536801	0.001095	20.726929
553.156683	-3.009500	3.780000	-11.374000	23.549845	0.001093	20.731944
554.156296	-3.000200	3.780300	-11.340000	23.571105	0.001094	20.717694
555.157884	-3.019200	3.777100	-11.402000	23.582007	0.001092	20.712975
556.155881	-3.004400	3.778200	-11.350000	23.590869	0.001092	20.727550
557.159807	-2.999600	3.778900	-11.334000	23.574167	0.001094	20.721712
558.158883	-3.007400	3.777800	-11.360000	23.595998	0.001093	20.727001
559.159011	-3.014100	3.776700	-11.382000	23.584522	0.001094	20.727825
560.160339	-2.997700	3.777800	-11.324000	23.609888	0.001093	20.724805
561.159390	-3.001600	3.777900	-11.339000	23.618401	0.001096	20.726701
562.159922	-3.008900	3.777100	-11.364000	23.613050	0.001097	20.721336
563.160322	-3.004200	3.776800	-11.345000	23.596147	0.001093	20.720038
564.159843	-3.015900	3.775900	-11.386000	23.582206	0.001094	20.724081
565.160616	-3.008400	3.775400	-11.357000	23.569709	0.001093	20.728623
566.163342	-3.013700	3.775700	-11.378000	23.571252	0.001092	20.727799
567.161309	-2.986100	3.775100	-11.272000	23.566199	0.001094	20.718940
568.162331	-2.995600	3.775000	-11.307000	23.586214	0.001095	20.724306
569.162619	-3.018300	3.775500	-11.395000	23.605606	0.001094	20.725728
570.162855	-3.005100	3.773900	-11.340000	23.609764	0.001096	20.737009
571.166458	-3.003100	3.774200	-11.334000	23.622483	0.001095	20.725103
572.161128	-3.009300	3.774900	-11.359000	23.629753	0.001095	20.735237
573.165604	-3.007700	3.773000	-11.346000	23.656786	0.001096	20.712551
574.163517	-3.007600	3.772800	-11.346000	23.648521	0.001094	20.732241
575.165349	-2.988600	3.774200	-11.279000	23.635702	0.001094	20.710379
576.165598	-2.988700	3.772500	-11.273000	23.647949	0.001094	20.720761
577.164521	-3.000400	3.772800	-11.318000	23.649269	0.001093	20.730145
578.164345	-3.013300	3.771600	-11.364000	23.636473	0.001096	20.728697
579.168438	-3.012100	3.771800	-11.360000	23.625546	0.001096	20.735761
580.165571	-3.019400	3.771800	-11.388000	23.637669	0.001098	20.716145
581.164551	-2.995500	3.770400	-11.293000	23.642871	0.001097	20.727998
582.166826	-3.009400	3.769500	-11.343000	23.638215	0.001096	20.733763
583.165779	-3.001800	3.770700	-11.317000	23.644812	0.001096	20.727574
584.165715	-2.982100	3.773400	-11.251000	23.651309	0.001096	20.717492
585.165498	-3.021900	3.769100	-11.388000	23.649269	0.001096	20.705488
586.166124	-3.013900	3.768700	-11.358000	23.656612	0.001097	20.721860
587.168547	-2.994300	3.769600	-11.287000	23.654845	0.001097	20.731468
588.165176	-2.992200	3.770400	-11.281000	23.663631	0.001094	20.734587
589.167161	-3.004200	3.767500	-11.318000	23.648695	0.001096	20.742373
590.166016	-2.979700	3.769100	-11.230000	23.662636	0.001097	20.728847
591.166710	-3.009600	3.767800	-11.337000	23.676550	0.001095	20.732840
592.170672	-3.016200	3.768600	-11.366000	23.678790	0.001095	20.737457
593.172713	-2.972300	3.769000	-11.202000	23.682200	0.001096	20.720960
594.170493	-3.015700	3.766500	-11.356000	23.694148	0.001097	20.748113
595.167367	-3.026200	3.766800	-11.398000	23.709209	0.001096	20.741401
596.168254	-3.011400	3.767000	-11.343000	23.702911	0.001097	20.719438
597.170127	-3.013700	3.766500	-11.350000	23.692480	0.001095	20.736009
598.169030	-2.992000	3.765200	-11.264000	23.707614	0.001095	20.726051
599.170749	-2.997500	3.765900	-11.287000	23.740495	0.001094	20.753328
600.171543	-3.001000	3.764800	-11.297000	23.737508	0.001098	20.740850
601.171084	-2.996000	3.765700	-11.281000	23.737682	0.001097	20.746240
602.171105	-2.991900	3.765700	-11.265000	23.713961	0.001096	20.747588
603.170858	-2.998300	3.763900	-11.285000	23.702312	0.001097	20.738280
604.172250	-2.988500	3.765500	-11.252000	23.719635	0.001096	20.732413
605.171641	-3.001000	3.763700	-11.294000	23.712989	0.001096	20.763684
606.171013	-2.991600	3.763900	-11.259000	23.740145	0.001098	20.724526
607.171335	-3.004700	3.762400	-11.304000	23.740866	0.001096	20.741372
608.175434	-2.994400	3.763100	-11.267000	23.747113	0.001099	20.745739
609.171094	-3.005200	3.761900	-11.305000	23.760156	0.001096	20.737953
610.170082	-3.020400	3.762500	-11.362000	23.759757	0.001096	20.720482
611.172655	-2.967200	3.763500	-11.166000	23.787261	0.001097	20.745215
612.171687	-2.994800	3.762500	-11.267000	23.765581	0.001095	20.749082
613.173782	-2.999100	3.760500	-11.277000	23.743852	0.001097	20.750055
614.171183	-2.999900	3.761800	-11.284000	23.742730	0.001097	20.738024
615.173545	-2.995500	3.760800	-11.264000	23.728493	0.001096	20.755046
616.171531	-2.980900	3.760200	-11.208000	23.736183	0.001097	20.750902
617.171742	-2.982000	3.759800	-11.211000	23.711467	0.001096	20.751252
618.172410	-2.987600	3.760800	-11.235000	23.722990	0.001096	20.769917
619.173122	-2.997900	3.758700	-11.268000	23.736232	0.001095	20.738622
620.172265	-2.985500	3.759500	-11.223000	23.741509	0.001095	20.737274
621.170996	-2.983800	3.759000	-11.215000	23.768490	0.001095	20.746783
622.172504	-2.999300	3.757600	-11.268000	23.767021	0.001096	20.752423
623.171103	-3.000300	3.758100	-11.274000	23.754003	0.001097	20.737948
624.174728	-2.998400	3.758600	-11.268000	23.746561	0.001097	20.747082
625.173606	-3.019300	3.756700	-11.341000	23.724258	0.001096	20.757438
626.177506	-2.980600	3.758900	-11.202000	23.731501	0.001096	20.741465
627.172740	-3.012100	3.757500	-11.316000	23.744519	0.001095	20.746457
628.172629	-3.006400	3.757700	-11.296000	23.762316	0.001095	20.757189
629.175178	-3.025000	3.754400	-11.356000	23.759552	0.001096	20.777651
630.174350	-2.991700	3.756600	-11.238000	23.778893	0.001095	20.770016
631.175100	-2.977200	3.756900	-11.184000	23.785364	0.001096	20.745210
632.177942	-3.013800	3.755300	-11.317000	23.797584	0.001094	20.758411
633.176536	-3.001700	3.756600	-11.274000	23.816500	0.001097	20.770739
634.176033	-2.984900	3.756900	-11.213000	23.794124	0.001097	20.765847
635.178932	-2.987600	3.755600	-11.219000	23.817744	0.001096	20.755865
636.178091	-3.003200	3.753900	-11.273000	23.854031	0.001098	20.748153
637.178249	-2.995200	3.755000	-11.246000	23.890517	0.001094	20.744909
638.176784	-3.000000	3.755600	-11.265000	23.880461	0.001096	20.757586
639.177419	-2.997300	3.753700	-11.250000	23.904005	0.001094	20.763651
640.181596	-3.030600	3.753600	-11.373000	23.871950	0.001096	20.763750
641.178459	-2.973500	3.754800	-11.164000	23.877798	0.001096	20.763924
642.180582	-3.005200	3.752600	-11.276000	23.880461	0.001094	20.758534
643.179817	-2.996000	3.752900	-11.243000	23.891536	0.001092	20.761104
644.180523	-2.991000	3.753100	-11.225000	23.861224	0.001095	20.746830
645.180030	-3.006000	3.751600	-11.275000	23.835115	0.001095	20.762377
646.180738	-3.020200	3.752800	-11.332000	23.830312	0.001095	20.770364
647.180779	-3.002400	3.751300	-11.262000	23.821403	0.001094	20.771388
648.182642	-3.026200	3.750300	-11.349000	23.842632	0.001094	20.770388
649.182727	-3.016700	3.750100	-11.313000	23.828445	0.001094	20.753793
650.182629	-2.980900	3.751100	-11.181000	23.857316	0.001094	20.757137
651.184242	-2.987800	3.749500	-11.201000	23.856719	0.001094	20.774556
652.182930	-2.999300	3.750900	-11.248000	23.850720	0.001095	20.773757
653.183450	-3.003100	3.748700	-11.257000	23.865727	0.001093	20.761778
654.185247	-2.977700	3.750000	-11.166000	23.870308	0.001094	20.772535
655.185366	-2.979300	3.749300	-11.169000	23.877300	0.001095	20.768167
656.186672	-2.995000	3.749800	-11.230000	23.866424	0.001093	20.775754
657.186911	-3.019100	3.748300	-11.315000	23.893949	0.001096	20.770162
658.189641	-2.986300	3.748700	-11.193000	23.891759	0.001094	20.766070
659.187761	-3.010300	3.746900	-11.279000	23.897806	0.001094	20.779246
660.186067	-3.016500	3.747600	-11.303000	23.911120	0.001096	20.777424
661.188296	-3.013600	3.747100	-11.292000	23.922244	0.001095	20.776251
662.190953	-2.994700	3.748400	-11.225000	23.907910	0.001093	20.768989
663.186936	-3.021900	3.745700	-11.318000	23.923438	0.001093	20.763223
664.187228	-3.014200	3.746300	-11.291000	23.911269	0.001095	20.762400
665.186069	-2.988000	3.747900	-11.197000	23.899347	0.001093	20.781739
666.186694	-2.995600	3.746200	-11.222000	23.885013	0.001093	20.770685
667.191234	-2.995700	3.746900	-11.224000	23.882001	0.001093	20.778097
668.188174	-2.993600	3.745900	-11.212000	23.881926	0.001093	20.774228
669.188766	-2.986300	3.745700	-11.185000	23.896360	0.001094	20.774002
670.189123	-2.996700	3.745200	-11.221000	23.891084	0.001093	20.773928
671.191058	-2.999600	3.744600	-11.231000	23.867665	0.001094	20.768937
672.187537	-2.997900	3.743200	-11.221000	23.884837	0.001092	20.799433
673.191050	-2.991000	3.743900	-11.197000	23.877571	0.001092	20.785035
674.189922	-2.987800	3.744900	-11.187000	23.877596	0.001092	20.765145
675.190001	-2.989600	3.743600	-11.191000	23.876027	0.001093	20.786805
676.192539	-3.004300	3.742600	-11.243000	23.875231	0.001090	20.782214
677.190450	-3.010200	3.742900	-11.266000	23.907634	0.001091	20.777721
678.193291	-3.012800	3.742500	-11.274000	23.913658	0.001090	20.791348
679.190261	-2.995800	3.741400	-11.208000	23.956511	0.001090	20.786905
680.190902	-3.011500	3.742000	-11.269000	23.949965	0.001090	20.777022
681.192208	-3.014400	3.741900	-11.279000	23.946481	0.001091	20.773054
682.190653	-3.032400	3.739700	-11.339000	23.948298	0.001091	20.797636
683.190490	-3.008000	3.740100	-11.250000	23.929982	0.001091	20.773578
684.190872	-2.995200	3.739900	-11.201000	23.954071	0.001090	20.770234
685.191552	-2.999900	3.740900	-11.220000	23.948297	0.001089	20.776772
686.190198	-2.964100	3.741100	-11.087000	23.966962	0.001089	20.793592
687.191858	-2.984000	3.740700	-11.161000	23.978210	0.001090	20.788277
688.191543	-2.992100	3.740200	-11.190000	23.982341	0.001090	20.781039
689.195333	-3.009500	3.739900	-11.254000	23.990155	0.001089	20.769435
690.193231	-2.990400	3.739700	-11.182000	24.015138	0.001091	20.793542
691.192931	-3.020700	3.738500	-11.290000	24.013346	0.001090	20.796486
692.197698	-3.006900	3.737800	-11.238000	24.021060	0.001091	20.786204
693.192407	-2.977100	3.738800	-11.130000	24.023202	0.001089	20.803999
694.193511	-3.003200	3.737400	-11.223000	24.028178	0.001090	20.787178
695.192338	-2.982400	3.738300	-11.147000	23.998415	0.001088	20.767762
696.192762	-3.023100	3.736700	-11.294000	23.957355	0.001088	20.783959
697.192866	-3.016400	3.736900	-11.271000	23.975869	0.001091	20.790671
698.196992	-2.984200	3.737300	-11.151000	23.965890	0.001089	20.790621
699.194649	-3.007700	3.735800	-11.235000	23.967781	0.001086	20.787302
700.194122	-3.001700	3.735400	-11.212000	23.940283	0.001087	20.787227
701.194520	-2.990700	3.736000	-11.172000	23.943791	0.001088	20.796909
702.196514	-3.010800	3.733900	-11.241000	23.971214	0.001086	20.799279
703.199774	-3.013500	3.734500	-11.253000	23.989505	0.001087	20.792017
704.195344	-2.995200	3.735500	-11.188000	24.001798	0.001088	20.792017
705.198091	-3.001500	3.734700	-11.209000	24.010185	0.001086	20.803273
706.196990	-3.011200	3.734200	-11.243000	24.018247	0.001085	20.802349
707.198134	-2.997400	3.734000	-11.191000	24.025862	0.001087	20.799554
708.201116	-3.001400	3.733800	-11.205000	24.032656	0.001085	20.811109
709.199296	-2.993000	3.733500	-11.173000	24.056021	0.001088	20.825533
710.199624	-2.997500	3.732300	-11.187000	24.056369	0.001087	20.800751
711.201196	-3.013400	3.732200	-11.245000	24.049627	0.001086	20.818171
712.202010	-3.007300	3.732900	-11.226000	24.064083	0.001085	20.799954
713.202209	-2.990700	3.731500	-11.159000	24.082745	0.001085	20.799229
714.204697	-3.031600	3.731100	-11.310000	24.077944	0.001084	20.791095
715.201753	-3.019600	3.731600	-11.266000	24.095958	0.001084	20.830972
716.202732	-3.008400	3.730300	-11.221000	24.106010	0.001085	20.801700
717.201560	-3.011500	3.731400	-11.236000	24.063636	0.001084	20.806618
718.204099	-2.987400	3.732100	-11.149000	24.052389	0.001087	20.803398
719.206332	-2.997600	3.731400	-11.185000	24.030815	0.001083	20.803099
720.203792	-3.007900	3.730200	-11.219000	24.035245	0.001084	20.806120
721.206584	-2.979600	3.730500	-11.115000	24.040447	0.001085	20.782887
722.203901	-2.997000	3.730200	-11.179000	24.020639	0.001083	20.815653
723.204146	-2.976800	3.730200	-11.103000	24.006852	0.001084	20.815578
724.207464	-3.008800	3.729000	-11.218000	24.010735	0.001082	20.803824
725.207847	-2.968100	3.729500	-11.068000	23.994959	0.001083	20.811237
726.205863	-3.010600	3.728200	-11.222000	23.992992	0.001084	20.805945
727.205533	-3.000200	3.727600	-11.181000	23.995805	0.001083	20.828206
728.206446	-2.987600	3.728300	-11.138000	24.007874	0.001083	20.821818
729.206423	-3.020200	3.727800	-11.257000	24.044156	0.001084	20.822642
730.208829	-2.989100	3.727700	-11.141000	24.002898	0.001081	20.802129
731.208683	-2.996900	3.727500	-11.171000	24.010164	0.001083	20.841657
732.210187	-2.965800	3.728000	-11.056000	24.015141	0.001084	20.797812
733.208602	-2.993300	3.727600	-11.157000	24.025594	0.001082	20.815406
734.208722	-2.993500	3.726900	-11.155000	24.018651	0.001081	20.830728
735.208191	-2.996300	3.726200	-11.164000	24.038633	0.001081	20.809517
736.209188	-2.994000	3.725800	-11.154000	24.040549	0.001080	20.826611
737.208923	-3.000500	3.724900	-11.175000	24.039056	0.001081	20.827959
738.208417	-2.988300	3.726000	-11.133000	24.051847	0.001083	20.809492
739.207585	-2.990700	3.724500	-11.137000	24.055530	0.001082	20.819350
740.210742	-2.991400	3.726400	-11.145000	24.090167	0.001081	20.821845
741.208459	-2.977900	3.725600	-11.094000	24.091287	0.001081	20.834822
742.208617	-2.985000	3.725200	-11.119000	24.158940	0.001079	20.821595
743.210584	-2.982100	3.724500	-11.105000	24.138787	0.001080	20.826986
744.208930	-2.973300	3.725700	-11.077000	24.165335	0.001082	20.834173
745.212161	-3.004200	3.723600	-11.185000	24.176556	0.001082	20.812238
746.210094	-3.036800	3.721500	-11.300000	24.177800	0.001081	20.838614
747.210950	-3.004400	3.722700	-11.183000	24.203303	0.001080	20.831004
748.214710	-3.009100	3.721900	-11.199000	24.197929	0.001082	20.832251
749.211402	-2.973500	3.724100	-11.073000	24.203328	0.001080	20.840512
750.213615	-2.999700	3.721200	-11.161000	24.230174	0.001080	20.838516
751.211491	-2.994500	3.722200	-11.146000	24.220994	0.001078	20.834998
752.213053	-2.991700	3.721100	-11.131000	24.251296	0.001080	20.825089
753.211251	-3.004600	3.720700	-11.177000	24.215868	0.001080	20.827012
754.212972	-3.014400	3.720100	-11.213000	24.217561	0.001081	20.844356
755.218534	-2.996300	3.722400	-11.152000	24.197631	0.001077	20.826737
756.211953	-3.008700	3.720600	-11.193000	24.219999	0.001078	20.817404
757.215921	-3.002900	3.718900	-11.166000	24.211888	0.001079	20.840089
758.214375	-2.992900	3.720100	-11.133000	24.185017	0.001079	20.832577
759.214882	-3.000000	3.719500	-11.158000	24.184595	0.001079	20.835473
760.216640	-2.997900	3.720100	-11.151000	24.157126	0.001077	20.823094
761.217822	-3.005400	3.719900	-11.179000	24.170959	0.001079	20.828908
762.213110	-3.010200	3.719200	-11.195000	24.174518	0.001079	20.843383
763.213542	-3.002700	3.717700	-11.162000	24.177105	0.001078	20.826538
764.214432	-3.006300	3.717900	-11.176000	24.149761	0.001078	20.839415
765.215973	-3.001300	3.719000	-11.161000	24.162674	0.001077	20.819651
766.214257	-3.002700	3.717500	-11.162000	24.165785	0.001078	20.846003
767.214606	-3.024300	3.716800	-11.240000	24.165114	0.001075	20.846752
768.214061	-3.000100	3.717100	-11.151000	24.173871	0.001077	20.850320
769.216078	-3.019300	3.716400	-11.220000	24.184346	0.001077	20.839964
770.216152	-2.993100	3.717400	-11.125000	24.198503	0.001076	20.857956
771.218119	-2.968600	3.717300	-11.034000	24.207334	0.001078	20.829358
772.216325	-2.978900	3.716300	-11.070000	24.220223	0.001077	20.868836
773.216065	-3.001600	3.716200	-11.153000	24.232067	0.001077	20.839940
774.217575	-2.993600	3.716500	-11.125000	24.220945	0.001075	20.854388
775.217510	-2.995200	3.715800	-11.127000	24.203380	0.001075	20.839141
776.219885	-2.974500	3.716500	-11.052000	24.203081	0.001076	20.857333
777.218857	-2.993400	3.716000	-11.122000	24.235674	0.001074	20.869161
778.220015	-3.000700	3.714300	-11.145000	24.224030	0.001073	20.854637
779.220582	-3.007200	3.714600	-11.170000	24.205370	0.001075	20.846353
780.219017	-3.017100	3.714400	-11.204000	24.223482	0.001076	20.842235
781.221443	-3.008000	3.713900	-11.170000	24.231295	0.001073	20.870459
782.220985	-3.022700	3.714100	-11.225000	24.232389	0.001073	20.853540
783.219722	-2.999000	3.713800	-11.137000	24.228657	0.001077	20.842210
784.220097	-3.009100	3.713000	-11.172000	24.252443	0.001072	20.851843
785.221972	-3.025700	3.712700	-11.231000	24.234903	0.001073	20.873603
786.220333	-3.021800	3.711400	-11.214000	24.275430	0.001072	20.850720
787.222845	-2.999600	3.713500	-11.138000	24.264609	0.001073	20.861675
788.223619	-3.013900	3.711100	-11.184000	24.246943	0.001072	20.849646
789.225327	-2.986600	3.712200	-11.086000	24.218407	0.001073	20.867488
790.223555	-2.988300	3.712300	-11.091000	24.265155	0.001074	20.859379
791.223141	-2.980500	3.711100	-11.060000	24.231692	0.001072	20.891244
792.225238	-2.989200	3.711400	-11.093000	24.209325	0.001072	20.846052
793.223465	-3.008300	3.709400	-11.158000	24.239180	0.001072	20.874100
794.224301	-3.007700	3.710000	-11.157000	24.199472	0.001073	20.859402
795.224594	-3.014400	3.709600	-11.182000	24.181508	0.001069	20.861299
796.224866	-3.004700	3.709500	-11.144000	24.198626	0.001072	20.857605
797.224635	-2.988000	3.710500	-11.085000	24.209299	0.001069	20.841285
798.226802	-3.000100	3.709400	-11.127000	24.203502	0.001071	20.844479
799.226790	-2.999200	3.708900	-11.120000	24.175262	0.001070	20.859776
800.224600	-3.014200	3.708100	-11.175000	24.206214	0.001068	20.853837
801.226012	-3.003500	3.708800	-11.138000	24.190962	0.001069	20.845177
802.226934	-2.981400	3.708900	-11.057000	24.193749	0.001066	20.853188
803.226670	-2.995900	3.709700	-11.111000	24.191608	0.001068	20.856731
804.227434	-2.995600	3.707500	-11.104000	24.192652	0.001069	20.845450
805.227246	-3.017800	3.706500	-11.185000	24.220345	0.001066	20.864217
806.228456	-2.986300	3.707000	-11.070000	24.191110	0.001068	20.855757
807.229153	-2.987400	3.708200	-11.077000	24.204745	0.001068	20.855209
808.228288	-3.006600	3.706000	-11.141000	24.235943	0.001068	20.860896
809.230174	-2.998600	3.706200	-11.111000	24.248682	0.001067	20.851864
810.228646	-3.035000	3.705300	-11.244000	24.245000	0.001067	20.825886
811.229900	-3.015400	3.705700	-11.173000	24.238132	0.001068	20.846972
812.232307	-3.017100	3.706400	-11.182000	24.237535	0.001068	20.847795
813.229133	-3.015600	3.706800	-11.177000	24.257662	0.001066	20.848544
814.231680	-3.008000	3.704000	-11.141000	24.285750	0.001065	20.834519
815.229784	-3.038100	3.703500	-11.250000	24.326027	0.001067	20.833671
816.229542	-2.999600	3.705100	-11.113000	24.312071	0.001066	20.849542
817.232339	-2.982000	3.704600	-11.045000	24.328240	0.001066	20.843951
818.232251	-3.001400	3.704300	-11.116000	24.311424	0.001065	20.832298
819.230134	-2.989000	3.704500	-11.072000	24.306571	0.001066	20.835965
820.231387	-2.966200	3.704300	-10.987000	24.333291	0.001065	20.848069
821.230604	-2.999700	3.704700	-11.111000	24.350604	0.001066	20.831773
822.230861	-3.006200	3.703100	-11.131000	24.338390	0.001065	20.843227
823.234227	-2.983800	3.703400	-11.049000	24.336176	0.001065	20.829628
824.229858	-2.986900	3.703600	-11.062000	24.324907	0.001066	20.832547
825.231700	-2.970300	3.701500	-10.994000	24.327718	0.001063	20.823514
826.230091	-3.006300	3.701700	-11.128000	24.315627	0.001064	20.830351
827.231448	-2.996300	3.702300	-11.093000	24.295899	0.001062	20.857027
828.232746	-3.011100	3.702000	-11.146000	24.307666	0.001063	20.827106
829.231367	-2.995800	3.701500	-11.088000	24.328786	0.001064	20.831223
830.231153	-2.994200	3.702400	-11.085000	24.339558	0.001064	20.835865
831.231246	-3.017000	3.700400	-11.163000	24.344336	0.001062	20.826433
832.230805	-3.007000	3.700600	-11.126000	24.355256	0.001064	20.830749
833.231359	-3.012200	3.701200	-11.148000	24.330055	0.001064	20.829651
834.233764	-3.007000	3.699700	-11.124000	24.314034	0.001062	20.813106
835.231846	-2.996800	3.699700	-11.087000	24.299678	0.001063	20.838059
836.233835	-3.008900	3.699300	-11.130000	24.272288	0.001062	20.812008
837.232908	-2.990300	3.699800	-11.063000	24.292066	0.001062	20.822363
838.233825	-3.000800	3.698100	-11.095000	24.308036	0.001063	20.843599
839.235423	-2.998000	3.698600	-11.087000	24.305076	0.001059	20.821190
840.233325	-3.027900	3.697300	-11.194000	24.299603	0.001062	20.823760
841.232494	-2.989900	3.698700	-11.057000	24.282710	0.001061	20.830048
842.237012	-3.006500	3.699100	-11.119000	24.283979	0.001060	20.823261
843.235620	-2.991300	3.696900	-11.058000	24.277785	0.001058	20.825107
844.236582	-3.002200	3.696600	-11.096000	24.302388	0.001059	20.824183
845.236599	-3.001100	3.697200	-11.095000	24.324677	0.001059	20.810981
846.242796	-3.007500	3.696000	-11.115000	24.336695	0.001057	20.813553
847.238629	-2.990200	3.696200	-11.052000	24.307961	0.001058	20.810333
848.239495	-2.996500	3.696400	-11.074000	24.323285	0.001056	20.806265
849.243806	-2.980400	3.696800	-11.017000	24.332216	0.001057	20.816172
850.238104	-2.991800	3.695800	-11.057000	24.318782	0.001058	20.822610
851.239174	-3.002600	3.695100	-11.094000	24.275121	0.001058	20.819591
852.239389	-3.005100	3.696300	-11.106000	24.269250	0.001056	20.809435
853.239355	-2.998500	3.695700	-11.080000	24.279948	0.001057	20.805467
854.239856	-2.992800	3.696200	-11.059000	24.270022	0.001056	20.807838
855.242977	-2.999500	3.694300	-11.081000	24.282013	0.001056	20.787149
856.238028	-2.994600	3.694300	-11.062000	24.317439	0.001053	20.807513
857.239971	-2.992600	3.695100	-11.057000	24.324505	0.001053	20.823135
858.240244	-2.995900	3.694400	-11.066000	24.344107	0.001054	20.823359
859.240770	-2.998500	3.694200	-11.076000	24.341993	0.001056	20.795634
860.244903	-3.013400	3.692400	-11.125000	24.377145	0.001052	20.811931
861.239994	-3.009300	3.693200	-11.114000	24.377467	0.001053	20.817944
862.242343	-2.985200	3.694900	-11.029000	24.390005	0.001052	20.799228
863.241562	-2.995000	3.692900	-11.059000	24.416149	0.001055	20.806964
864.241796	-3.016600	3.691600	-11.136000	24.388364	0.001053	20.809910
865.243614	-3.012200	3.691000	-11.117000	24.370230	0.001052	20.786976
866.243087	-3.003500	3.691900	-11.087000	24.371424	0.001050	20.798606
867.246932	-2.985900	3.692200	-11.024000	24.363637	0.001050	20.814502
868.243383	-2.994600	3.690800	-11.051000	24.377318	0.001049	20.805467
869.244151	-2.997300	3.692700	-11.066000	24.411598	0.001050	20.807614
870.244456	-3.013100	3.689600	-11.116000	24.376200	0.001050	20.798656
871.243547	-2.986200	3.690200	-11.019000	24.384160	0.001048	20.795261
872.243714	-2.992800	3.690400	-11.044000	24.348637	0.001050	20.786652
873.243529	-2.986600	3.690100	-11.019000	24.343860	0.001049	20.785653
874.244500	-2.984900	3.691100	-11.015000	24.327666	0.001049	20.791694
875.248785	-3.014700	3.688900	-11.120000	24.309779	0.001047	20.782759
876.244160	-2.969700	3.691100	-10.961000	24.332889	0.001048	20.780812
877.247026	-3.030900	3.687300	-11.174000	24.331471	0.001049	20.802623
878.245300	-2.998100	3.688400	-11.057000	24.335676	0.001050	20.790720
879.246451	-2.997300	3.688200	-11.053000	24.336398	0.001049	20.776745
880.248109	-2.996800	3.688100	-11.051000	24.352718	0.001047	20.790745
881.249230	-3.011400	3.688000	-11.105000	24.358041	0.001049	20.794189
882.248151	-3.001100	3.687900	-11.067000	24.363214	0.001048	20.790370
883.249218	-2.990000	3.688700	-11.028000	24.389584	0.001046	20.778417
884.250418	-3.035700	3.686900	-11.190000	24.374484	0.001046	20.792193
885.249267	-3.013800	3.686800	-11.110000	24.394957	0.001046	20.772902
886.250596	-3.004300	3.686700	-11.076000	24.397097	0.001045	20.789273
887.249320	-3.009800	3.687400	-11.098000	24.423167	0.001045	20.803099
888.255411	-3.024600	3.684000	-11.141000	24.440555	0.001047	20.798258
889.249933	-3.004400	3.685800	-11.073000	24.445853	0.001045	20.782236
890.250890	-3.001900	3.686500	-11.066000	24.476872	0.001044	20.789175
891.252948	-3.008700	3.684000	-11.083000	24.490653	0.001043	20.773603
892.250747	-3.010000	3.685800	-11.093000	24.504781	0.001045	20.795364
893.249427	-3.009900	3.684900	-11.090000	24.519133	0.001044	20.792221
894.249869	-3.000200	3.685100	-11.054000	24.491995	0.001045	20.767837
895.251029	-3.012800	3.683900	-11.097000	24.508537	0.001042	20.784908
896.249418	-3.009600	3.683800	-11.085000	24.519880	0.001044	20.769736
897.253091	-3.007000	3.683700	-11.076000	24.506945	0.001043	20.767664
898.251256	-3.022500	3.683200	-11.131000	24.491275	0.001043	20.769486
899.250696	-3.026900	3.682500	-11.146000	24.460283	0.001041	20.770634
900.251157	-3.019300	3.681800	-11.116000	24.482869	0.001041	20.782863
901.253022	-2.996300	3.683000	-11.034000	24.464313	0.001043	20.783687
902.255971	-3.020500	3.681400	-11.118000	24.507991	0.001041	20.768239
903.252361	-3.001100	3.682500	-11.050000	24.484858	0.001041	20.765419
904.254550	-3.006600	3.681200	-11.065000	24.473542	0.001041	20.762125
905.254568	-2.998800	3.682900	-11.043000	24.470283	0.001040	20.764072
906.254894	-3.001300	3.681200	-11.047000	24.501401	0.001039	20.768740
907.256719	-2.983500	3.682700	-10.986000	24.479414	0.001041	20.777974
908.256843	-2.978500	3.682400	-10.967000	24.507272	0.001040	20.773682
909.257524	-3.006400	3.680400	-11.064000	24.525380	0.001040	20.776203
910.257298	-3.006700	3.680900	-11.066000	24.529410	0.001037	20.758435
911.257166	-3.012200	3.681200	-11.087000	24.532097	0.001038	20.778674
912.257000	-3.019600	3.679600	-11.110000	24.553437	0.001039	20.781594
913.257946	-2.993400	3.679000	-11.012000	24.575102	0.001039	20.780572
914.257832	-3.013500	3.679100	-11.086000	24.553413	0.001039	20.749801
915.260253	-3.014600	3.678700	-11.087000	24.517796	0.001037	20.760533
916.257631	-3.014100	3.679700	-11.090000	24.520184	0.001038	20.782369
917.259230	-2.985200	3.679500	-10.982000	24.504814	0.001036	20.764103
918.261978	-3.010500	3.678000	-11.070000	24.489043	0.001038	20.764876
919.258118	-2.992500	3.679400	-11.010000	24.522896	0.001037	20.754744
920.262233	-2.994300	3.678100	-11.012000	24.542422	0.001035	20.766749
921.261135	-2.972100	3.679300	-10.934000	24.517203	0.001036	20.763256
922.259456	-2.993700	3.677700	-11.009000	24.524813	0.001038	20.764728
923.260633	-2.984700	3.677400	-10.975000	24.524739	0.001038	20.776508
924.265055	-3.010400	3.676700	-11.067000	24.538667	0.001036	20.753498
925.261930	-2.989800	3.678000	-10.996000	24.573713	0.001035	20.759738
926.261713	-2.966900	3.678200	-10.912000	24.599057	0.001035	20.756243
927.261544	-3.012800	3.676300	-11.074000	24.561750	0.001034	20.767175
928.261787	-2.990600	3.676800	-10.995000	24.536132	0.001033	20.754273
929.264779	-3.023700	3.674800	-11.110000	24.521159	0.001033	20.746363
930.263744	-2.981400	3.675300	-10.956000	24.535287	0.001032	20.751054
931.262543	-3.001700	3.676100	-11.033000	24.570506	0.001032	20.759839
932.262362	-3.014600	3.674600	-11.077000	24.555409	0.001032	20.752278
933.262243	-2.990500	3.674700	-10.988000	24.546456	0.001031	20.759416
934.268613	-3.015600	3.673800	-11.078000	24.544168	0.001031	20.748111
935.263928	-3.005300	3.673200	-11.038000	24.526608	0.001030	20.735708
936.264151	-3.001500	3.673900	-11.026000	24.525911	0.001030	20.735957
937.263772	-3.013400	3.673000	-11.068000	24.540512	0.001031	20.752978
938.265436	-3.007300	3.675200	-11.051000	24.525439	0.001028	20.739751
939.266496	-2.983700	3.674000	-10.960000	24.530539	0.001028	20.737281
940.268939	-3.001800	3.673700	-11.026000	24.533250	0.001027	20.745217
941.265051	-3.004700	3.672000	-11.033000	24.489846	0.001030	20.731541
942.266014	-3.000100	3.671400	-11.014000	24.467311	0.001027	20.747813
943.265715	-2.996600	3.673000	-11.004000	24.486264	0.001026	20.756871
944.266965	-2.985500	3.671700	-10.961000	24.487184	0.001026	20.738828
945.269186	-3.008500	3.671400	-11.044000	24.526558	0.001028	20.754625
946.265133	-3.003100	3.671800	-11.026000	24.519246	0.001026	20.752030
947.268854	-2.989600	3.671100	-10.974000	24.512630	0.001024	20.768626
948.268276	-2.984600	3.672100	-10.958000	24.505391	0.001025	20.747138
949.267985	-2.994300	3.670100	-10.989000	24.516261	0.001025	20.736706
950.269988	-3.002800	3.670600	-11.021000	24.512156	0.001024	20.738278
951.268126	-2.973800	3.671700	-10.918000	24.492132	0.001025	20.723877
952.268219	-2.987100	3.672000	-10.967000	24.447036	0.001025	20.730316
953.268960	-2.974100	3.670700	-10.915000	24.442535	0.001025	20.709678
954.268397	-2.997400	3.670400	-11.001000	24.465667	0.001023	20.730990
955.268965	-2.967800	3.669600	-10.890000	24.461089	0.001023	20.727820
956.269643	-3.016500	3.669800	-11.069000	24.443527	0.001021	20.733434
957.269683	-2.978000	3.668800	-10.924000	24.403429	0.001024	20.728294
958.271063	-2.995900	3.669300	-10.992000	24.394299	0.001023	20.721505
959.270311	-3.008900	3.667200	-11.033000	24.400418	0.001021	20.741395
960.269794	-3.008000	3.667000	-11.028000	24.424846	0.001021	20.726071
961.273191	-3.032300	3.666700	-11.117000	24.418105	0.001020	20.730215
962.271747	-2.985700	3.668200	-10.951000	24.457158	0.001022	20.734307
963.269526	-2.995600	3.666800	-10.983000	24.475266	0.001022	20.737775
964.270486	-2.987200	3.666700	-10.952000	24.516630	0.001020	20.710048
965.271519	-2.983500	3.666600	-10.937000	24.528694	0.001020	20.718833
966.272858	-2.979900	3.666500	-10.925000	24.526057	0.001019	20.744164
967.274297	-2.984800	3.667900	-10.947000	24.521057	0.001019	20.732509
968.273230	-3.004800	3.665500	-11.013000	24.520210	0.001018	20.744936
969.273749	-2.986400	3.666700	-10.949000	24.512499	0.001020	20.720129
970.273365	-2.987300	3.665800	-10.951000	24.505584	0.001018	20.739745
971.273272	-2.993200	3.666400	-10.973000	24.533095	0.001020	20.735578
972.276876	-3.009700	3.665100	-11.030000	24.502549	0.001018	20.724845
973.273216	-3.010900	3.664700	-11.033000	24.490858	0.001019	20.742514
974.275196	-3.012300	3.664800	-11.039000	24.489814	0.001017	20.706851
975.275448	-2.991200	3.665700	-10.964000	24.530953	0.001017	20.721100
976.278119	-3.012400	3.663400	-11.034000	24.543988	0.001016	20.736076
977.275958	-2.995500	3.665300	-10.978000	24.548141	0.001014	20.715111
978.273974	-2.994200	3.662400	-10.964000	24.539659	0.001015	20.716559
979.274933	-3.000000	3.663500	-10.988000	24.520953	0.001016	20.737621
980.275006	-2.992900	3.662900	-10.961000	24.487524	0.001014	20.714986
981.275057	-3.023500	3.662000	-11.069000	24.499786	0.001016	20.718279
982.276498	-3.011400	3.663000	-11.030000	24.516526	0.001013	20.738395
983.275733	-2.993500	3.662600	-10.964000	24.528713	0.001015	20.731656
984.279341	-2.994900	3.660700	-10.961000	24.556247	0.001013	20.740790
985.276446	-3.020900	3.660100	-11.055000	24.568186	0.001012	20.724319
986.277001	-2.985000	3.660600	-10.926000	24.594500	0.001012	20.710417
987.278321	-2.995200	3.660600	-10.964000	24.578309	0.001012	20.715509
988.277159	-2.988700	3.659900	-10.938000	24.593406	0.001009	20.711216
989.279978	-3.009200	3.660500	-11.013000	24.603752	0.001010	20.710218
990.276628	-2.997000	3.660200	-10.969000	24.619769	0.001010	20.717281
991.277267	-2.981000	3.661100	-10.913000	24.618103	0.001010	20.707074
992.282392	-2.976700	3.660200	-10.894000	24.642675	0.001008	20.719403
993.282480	-3.010700	3.657900	-11.010000	24.641855	0.001010	20.733280
994.279318	-2.991000	3.658700	-10.942000	24.658268	0.001009	20.729360
995.279645	-2.985800	3.659300	-10.925000	24.633921	0.001008	20.729112
996.280320	-3.008800	3.657300	-11.003000	24.615666	0.001009	20.736399
997.279291	-2.975300	3.658800	-10.885000	24.581842	0.001008	20.722848
998.281706	-3.012900	3.657300	-11.018000	24.585921	0.001008	20.726467
999.280437	-2.997500	3.657200	-10.961000	24.562790	0.001008	20.715585
1000.284323	-3.027300	3.656100	-11.067000	24.585498	0.001007	20.720352
1001.282009	-2.997100	3.657000	-10.959000	24.593533	0.001007	20.723198
1002.280622	-3.017500	3.656100	-11.031000	24.629795	0.001004	20.733506
1003.283330	-3.009900	3.655300	-11.001000	24.627308	0.001008	20.703982
1004.282547	-2.990600	3.656900	-10.936000	24.650437	0.001006	20.741417
1005.282569	-2.986500	3.657700	-10.923000	24.660261	0.001005	20.732783
1006.283354	-2.976800	3.656700	-10.884000	24.665011	0.001004	20.712892
1007.281968	-2.995000	3.656500	-10.949000	24.644345	0.001004	20.731985
1008.281610	-3.010700	3.654700	-11.002000	24.632681	0.001004	20.697044
1009.286755	-2.997200	3.654500	-10.953000	24.600250	0.001007	20.701013
1010.283577	-3.022500	3.654600	-11.045000	24.569161	0.001003	20.719607
1011.283440	-2.988100	3.655500	-10.921000	24.566798	0.001005	20.731936
1012.284587	-3.002000	3.653700	-10.967000	24.585949	0.001003	20.723650
1013.285658	-2.991000	3.653900	-10.928000	24.594804	0.001002	20.710722
1014.288107	-2.993800	3.653000	-10.936000	24.598036	0.001002	20.716811
1015.285905	-2.986200	3.654700	-10.913000	24.616866	0.001001	20.712945
1016.287215	-2.999100	3.651600	-10.950000	24.620422	0.001003	20.708452
1017.288014	-3.013400	3.651700	-11.003000	24.651660	0.001001	20.718461
1018.288211	-2.985400	3.653800	-10.908000	24.637259	0.001003	20.715390
1019.288456	-3.039600	3.650600	-11.095000	24.635842	0.001001	20.715390
1020.289509	-2.999100	3.652000	-10.951000	24.577570	0.001000	20.713345
1021.289834	-2.995900	3.652600	-10.942000	24.564164	0.001001	20.734982
1022.290144	-2.997400	3.651700	-10.945000	24.558767	0.000998	20.712496
1023.290999	-2.989400	3.653000	-10.919000	24.532899	0.000999	20.724950
1024.293046	-2.964000	3.652900	-10.826000	24.544193	0.001001	20.730591
1025.294510	-3.010700	3.651200	-10.992000	24.545735	0.000998	20.739252
1026.293339	-3.012700	3.648700	-10.991000	24.577347	0.000997	20.715018
1027.294374	-2.995000	3.649100	-10.927000	24.604357	0.000998	20.732637
1028.294793	-3.012500	3.650400	-10.996000	24.612588	0.000998	20.722878
1029.297266	-2.999100	3.650200	-10.946000	24.597693	0.000997	20.717415
1030.292287	-2.999000	3.650800	-10.948000	24.589982	0.000995	20.715842
1031.293892	-3.008600	3.650600	-10.983000	24.594980	0.000995	20.733660
1032.296402	-2.982700	3.650300	-10.887000	24.583839	0.000996	20.723903
1033.293130	-2.995200	3.649400	-10.929000	24.589559	0.000994	20.727272
1034.298642	-3.001100	3.648600	-10.948000	24.586076	0.000993	20.730416
1035.298965	-3.000500	3.649300	-10.948000	24.588315	0.000996	20.723179
1036.295786	-2.995700	3.648100	-10.927000	24.591298	0.000996	20.727120
1037.294140	-3.024600	3.647200	-11.030000	24.627137	0.000994	20.729417
1038.296826	-3.000600	3.647200	-10.943000	24.646711	0.000994	20.731039
1039.298242	-3.000900	3.647500	-10.945000	24.662951	0.000994	20.740697
1040.297671	-3.018400	3.647800	-11.010000	24.663672	0.000993	20.705858
1041.298680	-2.986800	3.646600	-10.891000	24.657107	0.000993	20.715866
1042.297234	-3.011900	3.644300	-10.974000	24.711695	0.000991	20.726074
1043.298170	-3.000200	3.646200	-10.938000	24.723209	0.000991	20.731464
1044.300568	-2.990800	3.646500	-10.905000	24.750962	0.000991	20.715217
1045.297302	-3.008400	3.645700	-10.967000	24.730893	0.000991	20.733485
1046.297179	-2.996100	3.645700	-10.921000	24.707964	0.000991	20.722329
1047.300875	-2.991000	3.645000	-10.901000	24.742033	0.000989	20.726646
1048.301034	-2.997700	3.644300	-10.923000	24.749144	0.000991	20.765552
1049.298494	-2.997800	3.643900	-10.922000	24.754467	0.000990	20.739599
1050.299771	-2.978700	3.644900	-10.855000	24.760036	0.000989	20.743765
1051.300703	-3.022300	3.642700	-11.008000	24.747055	0.000989	20.740695
1052.302678	-2.996900	3.644500	-10.921000	24.709628	0.000988	20.726370
1053.308774	-2.980400	3.643900	-10.859000	24.700750	0.000988	20.739747
1054.301729	-3.021400	3.641600	-11.001000	24.735689	0.000987	20.725970
1055.304278	-2.992600	3.643100	-10.901000	24.737231	0.000988	20.734629
1056.304773	-2.998100	3.641900	-10.917000	24.721837	0.000986	20.737200
1057.302941	-2.985600	3.642900	-10.875000	24.763316	0.000985	20.758437
1058.301938	-2.984600	3.642200	-10.869000	24.756055	0.000987	20.754943
1059.306479	-3.004900	3.642100	-10.943000	24.725989	0.000987	20.738047
1060.306499	-2.999400	3.641500	-10.922000	24.711540	0.000986	20.738721
1061.302849	-3.011700	3.642200	-10.969000	24.673341	0.000986	20.729786
1062.303404	-3.025400	3.640500	-11.012000	24.653445	0.000985	20.723572
1063.305739	-3.023800	3.640200	-11.006000	24.665059	0.000986	20.746606
1064.306098	-2.991100	3.641200	-10.890000	24.678861	0.000984	20.749551
1065.304607	-3.004500	3.639700	-10.934000	24.705893	0.000984	20.740640
1066.303678	-3.013800	3.640000	-10.969000	24.712657	0.000984	20.751696
1067.303887	-2.986900	3.639900	-10.870000	24.722181	0.000981	20.741813
1068.305521	-3.008900	3.638500	-10.947000	24.734790	0.000985	20.755889
1069.304489	-2.987100	3.639300	-10.870000	24.720441	0.000982	20.735799
1070.305219	-3.000500	3.638800	-10.917000	24.733893	0.000983	20.758308
1071.307208	-2.999200	3.638600	-10.912000	24.738768	0.000983	20.729060
1072.306741	-2.997600	3.637800	-10.904000	24.725139	0.000981	20.735298
1073.306719	-3.027600	3.637700	-11.013000	24.732052	0.000981	20.737967
1074.306271	-2.981800	3.638900	-10.849000	24.741627	0.000981	20.745206
1075.311996	-2.988200	3.636300	-10.865000	24.762888	0.000980	20.747101
1076.306030	-3.008500	3.637200	-10.942000	24.777660	0.000979	20.745330
1077.308974	-2.986700	3.637200	-10.862000	24.803271	0.000980	20.744480
1078.306325	-3.003700	3.635500	-10.919000	24.824854	0.000979	20.749546
1079.305901	-3.015400	3.637100	-10.966000	24.866230	0.000980	20.757407
1080.304574	-2.987500	3.636800	-10.863000	24.853575	0.000977	20.763197
1081.306619	-2.990600	3.636000	-10.873000	24.895820	0.000977	20.730678
1082.308681	-2.993300	3.635400	-10.881000	24.910290	0.000977	20.738564
1083.309138	-3.011900	3.635000	-10.947000	24.884979	0.000977	20.759154
1084.309474	-3.023000	3.633500	-10.982000	24.874560	0.000975	20.743955
1085.307434	-2.982900	3.635800	-10.845000	24.820153	0.000975	20.752414
1086.309363	-2.995500	3.633200	-10.882000	24.839101	0.000975	20.752939
1087.307541	-3.004100	3.635500	-10.920000	24.842234	0.000976	20.740435
1088.306691	-3.010500	3.633500	-10.937000	24.850961	0.000977	20.730701
1089.308351	-2.988800	3.632900	-10.857000	24.845516	0.000973	20.740410
1090.309985	-3.011200	3.633400	-10.940000	24.857278	0.000975	20.750318
1091.309455	-2.994800	3.632900	-10.879000	24.867844	0.000973	20.755233
1092.305731	-2.994200	3.634000	-10.880000	24.822117	0.000971	20.758653
1093.307851	-3.001900	3.632600	-10.903000	24.819506	0.000972	20.737539
1094.307827	-2.991700	3.631600	-10.863000	24.737394	0.000971	20.764192
1095.310580	-2.980800	3.633500	-10.829000	24.739533	0.000971	20.772503
1096.307057	-3.011400	3.632600	-10.938000	24.733142	0.000971	20.758028
1097.310275	-3.026600	3.631400	-10.990000	24.725955	0.000971	20.772628
1098.311072	-2.986400	3.630800	-10.842000	24.757935	0.000970	20.766787
1099.311658	-2.999400	3.630500	-10.888000	24.792799	0.000972	20.764791
1100.311887	-3.010800	3.629600	-10.927000	24.812741	0.000970	20.764891
1101.311579	-2.964200	3.631800	-10.765000	24.840268	0.000970	20.763119
1102.312955	-2.996000	3.630400	-10.876000	24.844644	0.000969	20.764666
1103.310533	-2.986000	3.630400	-10.839000	24.860756	0.000969	20.765664
1104.313319	-2.977500	3.630000	-10.807000	24.867792	0.000969	20.766087
1105.310459	-3.028000	3.628600	-10.986000	24.897929	0.000969	20.765987
1106.313691	-2.998500	3.627600	-10.877000	24.897829	0.000968	20.767310
1107.313231	-2.989900	3.628900	-10.849000	24.921972	0.000968	20.762144
1108.313694	-3.013700	3.628100	-10.932000	24.945469	0.000968	20.768658
1109.314644	-2.986500	3.628500	-10.836000	24.964439	0.000968	20.775845
1110.318131	-2.987300	3.628100	-10.836000	24.952679	0.000966	20.773998
1111.317111	-2.998600	3.627400	-10.876000	24.981395	0.000967	20.762993
1112.313155	-2.998900	3.627100	-10.877000	24.992062	0.000965	20.754259
1113.316119	-2.989800	3.629100	-10.849000	24.981968	0.000964	20.757404
1114.314382	-3.023900	3.625300	-10.961000	24.983509	0.000964	20.764641
1115.315261	-2.976100	3.626700	-10.793000	24.976101	0.000965	20.770007
1116.317093	-2.995200	3.626200	-10.860000	25.005437	0.000965	20.767685
1117.319859	-2.992700	3.626100	-10.851000	25.038952	0.000965	20.759600
1118.315612	-3.025000	3.626300	-10.967000	25.021126	0.000966	20.759250
1119.315757	-3.005100	3.625300	-10.893000	25.002405	0.000965	20.765590
1120.317544	-2.990500	3.625000	-10.838000	25.004916	0.000964	20.772852
1121.319098	-3.006000	3.625000	-10.896000	25.004147	0.000962	20.765442
1122.320016	-3.009400	3.623900	-10.905000	24.993978	0.000962	20.799331
1123.319919	-2.983200	3.625400	-10.815000	24.969265	0.000960	20.787328
1124.323340	-3.004100	3.622900	-10.882000	24.974860	0.000963	20.780142
1125.321111	-2.997500	3.623300	-10.860000	24.994252	0.000962	20.790123
1126.324086	-3.006500	3.623400	-10.892000	25.003826	0.000961	20.783611
1127.320840	-3.020200	3.622100	-10.938000	24.962180	0.000962	20.779268
1128.320399	-3.018000	3.622200	-10.931000	24.933265	0.000959	20.754513
1129.322993	-2.997300	3.622900	-10.857000	24.928964	0.000961	20.782913
1130.321627	-2.997500	3.621300	-10.853000	24.884631	0.000960	20.776823
1131.326421	-2.974700	3.622900	-10.777000	24.885577	0.000958	20.771135
1132.325716	-2.970700	3.622700	-10.760000	24.842337	0.000960	20.766618
1133.322799	-2.985100	3.621800	-10.811000	24.845271	0.000959	20.782839
1134.324672	-3.002200	3.620800	-10.870000	24.834081	0.000956	20.796265
1135.321694	-2.990500	3.622200	-10.830000	24.847063	0.000958	20.780370
1136.322487	-3.014800	3.620200	-10.913000	24.875806	0.000957	20.777923
1137.325714	-3.001800	3.619700	-10.865000	24.907310	0.000956	20.771610
1138.325832	-2.998900	3.619500	-10.854000	24.923943	0.000955	20.799685
1139.327157	-2.995200	3.619500	-10.839000	24.942666	0.000955	20.775802
1140.323170	-3.010100	3.618200	-10.891000	24.961960	0.000955	20.785211
1141.324571	-3.001300	3.618800	-10.861000	24.973868	0.000955	20.784361
1142.324069	-3.013000	3.618300	-10.901000	24.962184	0.000953	20.784488
1143.326832	-2.999200	3.618200	-10.850000	24.957659	0.000952	20.787532
1144.327970	-2.993300	3.618100	-10.830000	24.956638	0.000952	20.769438
1145.328351	-2.992900	3.618300	-10.829000	24.965167	0.000953	20.785111
1146.326367	-2.987800	3.618300	-10.811000	24.974367	0.000951	20.771112
1147.327623	-3.008900	3.617100	-10.883000	24.943089	0.000952	20.795193
1148.328556	-3.018800	3.615400	-10.912000	24.934734	0.000950	20.803403
1149.329116	-3.000700	3.617500	-10.854000	24.925783	0.000948	20.792523
1150.327173	-3.010400	3.615700	-10.883000	24.921657	0.000949	20.785536
1151.328647	-2.986700	3.617500	-10.803000	24.960294	0.000949	20.786858
1152.330181	-3.006000	3.616500	-10.870000	24.957608	0.000947	20.780369
1153.332652	-3.002400	3.615300	-10.853000	24.968276	0.000947	20.792024
1154.332192	-3.008100	3.616300	-10.877000	24.985928	0.000948	20.795518
1155.330743	-3.019600	3.614800	-10.914000	24.985828	0.000944	20.790203
1156.330693	-3.004100	3.615100	-10.859000	25.007259	0.000944	20.791799
1157.330670	-3.029400	3.614900	-10.950000	24.982373	0.000945	20.788631
1158.332129	-2.988800	3.614400	-10.801000	24.953556	0.000944	20.796216
1159.333618	-3.009600	3.615300	-10.879000	24.954576	0.000944	20.780171
1160.334163	-3.008800	3.612900	-10.869000	24.975610	0.000942	20.783739
1161.333810	-3.000300	3.612700	-10.837000	24.948808	0.000943	20.803779
1162.331372	-3.003600	3.613500	-10.853000	24.949330	0.000944	20.783440
1163.333266	-3.010200	3.613000	-10.874000	24.950549	0.000944	20.802207
1164.333866	-2.994900	3.612600	-10.818000	24.963602	0.000943	20.818628
1165.335221	-2.992300	3.613200	-10.811000	24.963477	0.000942	20.805700
1166.331113	-2.976800	3.612600	-10.753000	24.978993	0.000941	20.785712
1167.335999	-3.010200	3.610700	-10.867000	24.995825	0.000940	20.775580
1168.333016	-3.023600	3.609300	-10.911000	25.009474	0.000941	20.797816
1169.334251	-2.997300	3.611300	-10.823000	25.041944	0.000940	20.792476
1170.333722	-3.000800	3.610400	-10.834000	25.010321	0.000939	20.808149
1171.332603	-2.992900	3.610200	-10.804000	25.064369	0.000940	20.799339
1172.336471	-2.976300	3.611300	-10.747000	25.043312	0.000939	20.808074
1173.332746	-3.017500	3.608600	-10.888000	25.025189	0.000938	20.802684
1174.332702	-3.002700	3.610100	-10.839000	25.048086	0.000939	20.792952
1175.333419	-2.989200	3.610300	-10.791000	25.040256	0.000937	20.806903
1176.338148	-3.010400	3.609400	-10.865000	25.052486	0.000937	20.797843
1177.335798	-3.029500	3.607500	-10.926000	25.041424	0.000937	20.800963
1178.336088	-3.025600	3.607100	-10.912000	25.064321	0.000938	20.812568
1179.337546	-3.006900	3.607600	-10.847000	25.065465	0.000938	20.799017
1180.338402	-2.971800	3.607600	-10.720000	25.066559	0.000937	20.829038
1181.337379	-3.011900	3.606400	-10.860000	25.060842	0.000935	20.813343
1182.334679	-2.973400	3.610100	-10.733000	25.062283	0.000934	20.803409
1183.336616	-3.006600	3.606600	-10.842000	25.027304	0.000934	20.809075
1184.337122	-3.004300	3.607200	-10.836000	25.006222	0.000934	20.818259
1185.339424	-3.017600	3.605100	-10.877000	24.973553	0.000932	20.806330
1186.336811	-3.007800	3.605800	-10.845000	24.963161	0.000934	20.817711
1187.337510	-3.015800	3.606300	-10.875000	24.925469	0.000931	20.822078
1188.339645	-2.965900	3.605600	-10.693000	24.940538	0.000931	20.822030
1189.337859	-3.023000	3.603100	-10.892000	24.953466	0.000933	20.811773
1190.337335	-3.017500	3.603300	-10.872000	24.954560	0.000931	20.827095
1191.339027	-2.989200	3.605100	-10.775000	24.937505	0.000930	20.823253
1192.341342	-2.981400	3.605300	-10.748000	24.973830	0.000929	20.806608
1193.338584	-2.981000	3.605200	-10.746000	25.001999	0.000929	20.813546
1194.338511	-2.984800	3.603700	-10.755000	25.006201	0.000927	20.825824
1195.340885	-2.992900	3.604600	-10.788000	25.031634	0.000928	20.828120
1196.339759	-2.977300	3.603800	-10.729000	25.056620	0.000927	20.843243
1197.342851	-2.986300	3.603100	-10.759000	25.087695	0.000927	20.836031
1198.342850	-3.013400	3.602300	-10.854000	25.088019	0.000927	20.822131
1199.341806	-3.023700	3.601000	-10.887000	25.109772	0.000925	20.821209
1200.340398	-3.024400	3.601900	-10.892000	25.113475	0.000926	20.827297
1201.340584	-2.981100	3.602400	-10.738000	25.115665	0.000926	20.835184
1202.341249	-3.009200	3.601500	-10.837000	25.151436	0.000927	20.835059
1203.342434	-3.007400	3.602200	-10.832000	25.143532	0.000925	20.821908
1204.343354	-3.025900	3.600000	-10.892000	25.139928	0.000924	20.817817
1205.344394	-3.006400	3.599900	-10.822000	25.129064	0.000924	20.820187
1206.342941	-2.986400	3.600200	-10.750000	25.111314	0.000925	20.840774
1207.346606	-3.006500	3.599000	-10.820000	25.099035	0.000924	20.826077
1208.341458	-3.021100	3.598700	-10.871000	25.125411	0.000923	20.825528
1209.341743	-2.973700	3.600900	-10.707000	25.113505	0.000921	20.837283
1210.343195	-3.028500	3.598300	-10.897000	25.071241	0.000921	20.833264
1211.343276	-2.998000	3.599200	-10.788000	25.037380	0.000921	20.841000
1212.343931	-3.016600	3.597300	-10.850000	25.011401	0.000923	20.814449
1213.344584	-3.014300	3.597100	-10.842000	24.993799	0.000920	20.838031
1214.345076	-3.008900	3.596300	-10.819000	24.986937	0.000921	20.838730
1215.343746	-3.019200	3.596900	-10.859000	24.976247	0.000920	20.829896
1216.344720	-3.010300	3.596900	-10.825000	24.961852	0.000920	20.850534
1217.345876	-3.013000	3.595400	-10.832000	25.003819	0.000919	20.855675
1218.344916	-2.983900	3.596600	-10.731000	24.988330	0.000916	20.828749
1219.347591	-2.988000	3.595900	-10.743000	25.011402	0.000919	20.841002
1220.347534	-2.964700	3.596800	-10.662000	25.055954	0.000919	20.857747
1221.347517	-3.011200	3.594600	-10.823000	25.027514	0.000916	20.839630
1222.345219	-2.983100	3.595500	-10.725000	24.982638	0.000919	20.854328
1223.349168	-2.979000	3.594600	-10.706000	24.956856	0.000916	20.846468
1224.348773	-3.004000	3.594200	-10.796000	24.967671	0.000917	20.853056
1225.349903	-3.007400	3.594600	-10.810000	24.956930	0.000914	20.852233
1226.348118	-3.006000	3.592300	-10.796000	24.978536	0.000914	20.855427
1227.348481	-3.001200	3.593300	-10.783000	25.004195	0.000913	20.848466
1228.348126	-2.994700	3.592200	-10.757000	25.022792	0.000913	20.856701
1229.350884	-2.985000	3.591600	-10.720000	25.039125	0.000914	20.863139
1230.350211	-3.015900	3.592300	-10.832000	25.073508	0.000915	20.856876
1231.348381	-2.997600	3.592200	-10.766000	25.110400	0.000911	20.848391
1232.354444	-2.999500	3.591800	-10.773000	25.136925	0.000912	20.853681
1233.349837	-2.974400	3.593200	-10.686000	25.149528	0.000910	20.853532
1234.352043	-3.015100	3.591400	-10.826000	25.149503	0.000911	20.873420
1235.350974	-2.980800	3.591000	-10.702000	25.185101	0.000911	20.869803
1236.352870	-3.000500	3.592100	-10.777000	25.156215	0.000909	20.873994
1237.350618	-2.994600	3.590900	-10.752000	25.145551	0.000909	20.848117
1238.352122	-2.986500	3.592200	-10.726000	25.150598	0.000909	20.874993
1239.350678	-3.002800	3.590100	-10.778000	25.158850	0.000909	20.869528
1240.353170	-3.018800	3.588400	-10.831000	25.156066	0.000907	20.852035
1241.353920	-2.996400	3.590900	-10.759000	25.138118	0.000906	20.864836
1242.352319	-2.985300	3.589500	-10.715000	25.149081	0.000906	20.864936
1243.355359	-2.992000	3.589500	-10.739000	25.143860	0.000907	20.852109
1244.353403	-3.006400	3.587500	-10.784000	25.171527	0.000905	20.848116
1245.354074	-3.012200	3.587700	-10.806000	25.118056	0.000903	20.860344
1246.356586	-2.993400	3.588000	-10.739000	25.103911	0.000904	20.856576
1247.354714	-2.980500	3.589700	-10.698000	25.108486	0.000906	20.864486
1248.354834	-3.001300	3.587800	-10.766000	25.089220	0.000903	20.835665
1249.352887	-2.994400	3.586900	-10.739000	25.078455	0.000902	20.858048
1250.353337	-3.004800	3.586700	-10.776000	25.109182	0.000903	20.850014
1251.358487	-2.999100	3.587000	-10.756000	25.116094	0.000903	20.874494
1252.359794	-3.004300	3.586200	-10.772000	25.079226	0.000900	20.840331
1253.359373	-3.003900	3.585600	-10.770000	25.077362	0.000900	20.846995
1254.358363	-2.999300	3.585800	-10.754000	25.127206	0.000902	20.854357
1255.360856	-3.015100	3.584500	-10.806000	25.148536	0.000898	20.841157
1256.360902	-3.003600	3.583800	-10.763000	25.150549	0.000900	20.865936
1257.361115	-3.016600	3.584300	-10.811000	25.199198	0.000898	20.838912
1258.359279	-2.997400	3.584200	-10.743000	25.191741	0.000900	20.837116
1259.362655	-2.987100	3.584800	-10.708000	25.210932	0.000898	20.847372
1260.359880	-3.013600	3.582900	-10.797000	25.203823	0.000898	20.842132
1261.361340	-3.009000	3.582600	-10.779000	25.172775	0.000897	20.837515
1262.362476	-2.991800	3.583900	-10.721000	25.168377	0.000897	20.853013
1263.363317	-3.001500	3.582600	-10.752000	25.197859	0.000897	20.829981
1264.360821	-2.999900	3.582800	-10.747000	25.203701	0.000896	20.826363
1265.361687	-3.007800	3.581200	-10.770000	25.219187	0.000894	20.848074
1266.361464	-3.003200	3.581200	-10.753000	25.217423	0.000897	20.840613
1267.360821	-2.989200	3.580900	-10.702000	25.226742	0.000897	20.856133
1268.362463	-3.005000	3.580800	-10.759000	25.236438	0.000896	20.827462
1269.360133	-3.001500	3.581100	-10.747000	25.189831	0.000894	20.826663
1270.363755	-2.988800	3.581000	-10.702000	25.172256	0.000896	20.845055
1271.362948	-2.998000	3.581400	-10.737000	25.161990	0.000893	20.825740
1272.364635	-2.998200	3.579800	-10.732000	25.177055	0.000892	20.834700
1273.363032	-3.000300	3.579600	-10.738000	25.152619	0.000893	20.845255
1274.363164	-3.004100	3.578800	-10.751000	25.132508	0.000892	20.823644
1275.365087	-3.011200	3.579900	-10.779000	25.174767	0.000891	20.826713
1276.361132	-2.979300	3.580200	-10.666000	25.162414	0.000892	20.821898
1277.360372	-2.981400	3.579300	-10.671000	25.196119	0.000890	20.818278
1278.365336	-3.002800	3.578400	-10.743000	25.183717	0.000891	20.836172
1279.364569	-2.970600	3.579800	-10.632000	25.228435	0.000889	20.830807
1280.364614	-3.015000	3.576800	-10.782000	25.221326	0.000891	20.824144
1281.363158	-3.014800	3.578300	-10.787000	25.235992	0.000889	20.821324
1282.361686	-2.987300	3.577200	-10.686000	25.230176	0.000889	20.815011
1283.368458	-3.006900	3.576300	-10.751000	25.238676	0.000887	20.808846
1284.365707	-3.015000	3.576800	-10.783000	25.252894	0.000887	20.823121
1285.365514	-3.004900	3.576100	-10.745000	25.246430	0.000886	20.826114
1286.365977	-2.997200	3.575100	-10.715000	25.280483	0.000888	20.811466
1287.367092	-2.981600	3.575400	-10.659000	25.261667	0.000886	20.814385
1288.365837	-2.982600	3.577300	-10.669000	25.260425	0.000885	20.829733
1289.366925	-2.991000	3.574900	-10.691000	25.239571	0.000884	20.819702
1290.368458	-2.988300	3.574800	-10.682000	25.244492	0.000886	20.818478
1291.371789	-2.978200	3.575600	-10.648000	25.227217	0.000886	20.809196
1292.370883	-2.982400	3.575400	-10.663000	25.237680	0.000883	20.814485
1293.368465	-2.998100	3.573800	-10.713000	25.245984	0.000883	20.823296
1294.370706	-3.020900	3.573400	-10.793000	25.219933	0.000882	20.806625
1295.369818	-3.008100	3.573500	-10.749000	25.212824	0.000883	20.833152
1296.368724	-2.992700	3.572500	-10.690000	25.205641	0.000882	20.820725
1297.371757	-3.016000	3.572800	-10.775000	25.192019	0.000881	20.809894
1298.368832	-3.016300	3.571100	-10.769000	25.150855	0.000880	20.780897
1299.371465	-2.988800	3.572500	-10.677000	25.177304	0.000881	20.811717
1300.375049	-2.994900	3.573000	-10.699000	25.204896	0.000880	20.810968
1301.368635	-3.007000	3.571100	-10.737000	25.166341	0.000879	20.831056
1302.372994	-3.024000	3.569600	-10.794000	25.127561	0.000878	20.820575
1303.369382	-3.041800	3.570400	-10.860000	25.109339	0.000879	20.811766
1304.371157	-2.988800	3.571700	-10.675000	25.058725	0.000877	20.819278
1305.372807	-3.006900	3.570200	-10.734000	25.047810	0.000879	20.796468
1306.368827	-2.969400	3.570700	-10.602000	25.046791	0.000876	20.820575
1307.370581	-2.989900	3.571100	-10.676000	25.095966	0.000875	20.822523
1308.372991	-2.994400	3.569600	-10.687000	25.094498	0.000876	20.817730
1309.371466	-2.995400	3.569400	-10.691000	25.123634	0.000875	20.817107
1310.373418	-2.974700	3.570700	-10.621000	25.126692	0.000875	20.806427
1311.373214	-3.005000	3.568700	-10.722000	25.178448	0.000876	20.797693
1312.371639	-3.002500	3.568000	-10.712000	25.180661	0.000875	20.805604
1313.372861	-3.006300	3.567800	-10.725000	25.153913	0.000875	20.800088
1314.373106	-3.014200	3.567100	-10.750000	25.093556	0.000875	20.813939
1315.373063	-3.000400	3.566700	-10.700000	25.119011	0.000873	20.825742
1316.376211	-2.985600	3.567000	-10.649000	25.101237	0.000874	20.813590
1317.375839	-2.994200	3.566200	-10.677000	25.132684	0.000871	20.797742
1318.378271	-3.006700	3.566700	-10.723000	25.153466	0.000869	20.790156
1319.375589	-2.981600	3.567600	-10.636000	25.191400	0.000873	20.788410
1320.374055	-2.994800	3.566600	-10.680000	25.201914	0.000870	20.815561
1321.378442	-2.991000	3.565000	-10.661000	25.249042	0.000868	20.813564
1322.377354	-2.989900	3.564100	-10.656000	25.237459	0.000869	20.819479
1323.377101	-2.975300	3.566100	-10.609000	25.272084	0.000870	20.812990
1324.380206	-2.975800	3.565300	-10.609000	25.255903	0.000870	20.787735
1325.378006	-2.973600	3.565700	-10.601000	25.257941	0.000868	20.792626
1326.382390	-3.016400	3.563000	-10.746000	25.223987	0.000867	20.792676
1327.382678	-2.997400	3.563800	-10.680000	25.175215	0.000868	20.811042
1328.379607	-2.999700	3.562800	-10.686000	25.196991	0.000866	20.793074
1329.380200	-2.982200	3.562800	-10.622000	25.209568	0.000865	20.800486
1330.380054	-3.009600	3.562300	-10.720000	25.213719	0.000866	20.796593
1331.381444	-2.987800	3.561800	-10.640000	25.242254	0.000864	20.812439
1332.383157	-2.990000	3.561200	-10.647000	25.267683	0.000863	20.809520
1333.382873	-2.968300	3.562500	-10.573000	25.273898	0.000863	20.793475
1334.380778	-3.006600	3.561000	-10.705000	25.279490	0.000861	20.779649
1335.379495	-2.997000	3.561000	-10.671000	25.257964	0.000861	20.804030
1336.379852	-2.997400	3.561000	-10.673000	25.236912	0.000861	20.786212
1337.379810	-3.009700	3.560400	-10.715000	25.222370	0.000863	20.805278
1338.383071	-3.011500	3.559800	-10.720000	25.244344	0.000860	20.782294
1339.382243	-3.006600	3.559200	-10.700000	25.266391	0.000858	20.773609
1340.383445	-3.030900	3.558500	-10.783000	25.262017	0.000860	20.783917
1341.379653	-3.021800	3.559300	-10.753000	25.267809	0.000859	20.780723
1342.383566	-3.011400	3.559100	-10.716000	25.259208	0.000857	20.781096
1343.381866	-3.013200	3.558100	-10.720000	25.288314	0.000857	20.794672
1344.379594	-3.029100	3.558100	-10.776000	25.291620	0.000858	20.784715
1345.385509	-2.992000	3.557400	-10.642000	25.286896	0.000855	20.777127
1346.379893	-3.028600	3.556900	-10.771000	25.298033	0.000857	20.803482
1347.379867	-3.006200	3.557700	-10.694000	25.269474	0.000854	20.796146
1348.382360	-2.976800	3.558000	-10.590000	25.300419	0.000856	20.771264
1349.385898	-3.008100	3.556400	-10.696000	25.311479	0.000854	20.776679
1350.384938	-3.021100	3.554700	-10.738000	25.305465	0.000854	20.806677
1351.387277	-2.982400	3.557100	-10.608000	25.290177	0.000854	20.780422
1352.385270	-2.978700	3.555800	-10.590000	25.285233	0.000853	20.777828
1353.388019	-3.008200	3.556100	-10.696000	25.252944	0.000854	20.784291
1354.386810	-2.984300	3.555300	-10.608000	25.244692	0.000851	20.790231
1355.385353	-2.998500	3.554500	-10.656000	25.266963	0.000852	20.779874
1356.385718	-3.001800	3.553400	-10.665000	25.290477	0.000850	20.777404
1357.384782	-2.971300	3.554800	-10.560000	25.285604	0.000848	20.775356
1358.387417	-2.976300	3.555800	-10.582000	25.322364	0.000849	20.792824
1359.389434	-3.028800	3.552700	-10.759000	25.329772	0.000851	20.775132
1360.390461	-2.998600	3.552900	-10.652000	25.355944	0.000850	20.773436
1361.387729	-3.004000	3.552300	-10.669000	25.366406	0.000851	20.785363
1362.386168	-2.990100	3.553400	-10.624000	25.373838	0.000847	20.782868
1363.387339	-2.990500	3.552200	-10.622000	25.364468	0.000849	20.781046
1364.389314	-3.014600	3.550800	-10.703000	25.381118	0.000848	20.765996
1365.387667	-2.987000	3.550700	-10.605000	25.386812	0.000846	20.778352
1366.385861	-3.016400	3.549700	-10.706000	25.409378	0.000848	20.784415
1367.387274	-3.022300	3.550500	-10.729000	25.392502	0.000846	20.798290
1368.386319	-3.023400	3.550000	-10.732000	25.370757	0.000844	20.762704
1369.387939	-3.011000	3.548100	-10.682000	25.351520	0.000843	20.786063
1370.387775	-3.004600	3.548700	-10.662000	25.318388	0.000844	20.789780
1371.389618	-3.016000	3.549600	-10.705000	25.306857	0.000840	20.779151
1372.388799	-2.990500	3.551000	-10.618000	25.318563	0.000842	20.767196
1373.386191	-3.023800	3.548100	-10.729000	25.348389	0.000842	20.754469
1374.386784	-2.999200	3.549400	-10.644000	25.332556	0.000841	20.768918
1375.390586	-2.997700	3.549100	-10.638000	25.332483	0.000841	20.769319
1376.391103	-3.009100	3.547900	-10.674000	25.301141	0.000840	20.761084
1377.386921	-3.012400	3.547100	-10.685000	25.270346	0.000842	20.760036
1378.390133	-3.015800	3.546700	-10.696000	25.282524	0.000838	20.762780
1379.387905	-3.009200	3.546700	-10.672000	25.302012	0.000841	20.764328
1380.393455	-2.995600	3.548400	-10.628000	25.312153	0.000839	20.750803
1381.393158	-2.988400	3.546500	-10.597000	25.328184	0.000840	20.783969
1382.390644	-3.012800	3.547200	-10.686000	25.283047	0.000838	20.752874
1383.391487	-2.983500	3.546300	-10.580000	25.309791	0.000838	20.779252
1384.394350	-2.985500	3.546500	-10.587000	25.286752	0.000836	20.763706
1385.394749	-2.987000	3.546400	-10.591000	25.302137	0.000838	20.776308
1386.393652	-2.984600	3.546800	-10.585000	25.317323	0.000837	20.769270
1387.393398	-2.990100	3.545100	-10.600000	25.316976	0.000836	20.780776
1388.392745	-3.014800	3.545700	-10.688000	25.350876	0.000835	20.758864
1389.391343	-2.980600	3.545400	-10.567000	25.331267	0.000835	20.777581
1390.393003	-2.985100	3.544800	-10.580000	25.322442	0.000834	20.768246
1391.396912	-3.000200	3.542800	-10.628000	25.320802	0.000834	20.747159
1392.395245	-3.021200	3.543900	-10.705000	25.288092	0.000835	20.766948
1393.397602	-3.013800	3.543300	-10.677000	25.266021	0.000834	20.756168
1394.396957	-2.993600	3.543600	-10.607000	25.272707	0.000832	20.765726
1395.394922	-3.005000	3.542100	-10.643000	25.253766	0.000832	20.752398
1396.399954	-2.996400	3.542700	-10.614000	25.286800	0.000832	20.761858
1397.397650	-2.994900	3.542700	-10.609000	25.300545	0.000832	20.755269
1398.394691	-2.981100	3.542700	-10.559000	25.294406	0.000831	20.744838
1399.397095	-2.998800	3.540900	-10.618000	25.293410	0.000831	20.745734
1400.398676	-2.990900	3.540900	-10.589000	25.284142	0.000830	20.745437
1401.394654	-2.984700	3.540900	-10.568000	25.321423	0.000831	20.771965
1402.399658	-3.000400	3.539700	-10.620000	25.341109	0.000829	20.738150
1403.397526	-3.000300	3.541500	-10.625000	25.331987	0.000828	20.747483
1404.394570	-2.998300	3.539400	-10.611000	25.338076	0.000829	20.740795
1405.395119	-2.998300	3.539900	-10.611000	25.346429	0.000828	20.733060
1406.396142	-2.993800	3.539500	-10.597000	25.366583	0.000827	20.753298
1407.397347	-3.001800	3.538100	-10.619000	25.359376	0.000825	20.745113
1408.398148	-3.014000	3.538400	-10.664000	25.349932	0.000823	20.774511
1409.395598	-3.014100	3.538600	-10.665000	25.333778	0.000824	20.759713
1410.397591	-3.020500	3.537900	-10.685000	25.299355	0.000824	20.755497
1411.398172	-3.001200	3.537400	-10.616000	25.286778	0.000822	20.756620
1412.398502	-3.007500	3.536700	-10.635000	25.274127	0.000823	20.732537
1413.399087	-3.003500	3.536000	-10.619000	25.257871	0.000823	20.736605
1414.399353	-3.005300	3.536000	-10.625000	25.255436	0.000823	20.751705
1415.398135	-3.008300	3.536600	-10.638000	25.251285	0.000822	20.762236
1416.397014	-2.995300	3.537200	-10.593000	25.260185	0.000820	20.738928
1417.398780	-3.002200	3.536200	-10.616000	25.281039	0.000822	20.747064
1418.400800	-3.010700	3.534500	-10.640000	25.264858	0.000819	20.727498
1419.401750	-3.000600	3.535900	-10.608000	25.255538	0.000820	20.742797
1420.400556	-2.992700	3.536300	-10.582000	25.253700	0.000819	20.736210
1421.405698	-3.011800	3.534500	-10.643000	25.260409	0.000819	20.730618
1422.399263	-3.016100	3.534600	-10.659000	25.253674	0.000819	20.714371
1423.400836	-2.988400	3.533600	-10.559000	25.252880	0.000819	20.721162
1424.399416	-3.000900	3.534600	-10.606000	25.221089	0.000819	20.721487
1425.402813	-2.968000	3.534400	-10.488000	25.210125	0.000817	20.732291
1426.405033	-3.008500	3.533400	-10.629000	25.231081	0.000819	20.738632
1427.399443	-2.986600	3.533200	-10.551000	25.249748	0.000816	20.733191
1428.402956	-2.984300	3.532200	-10.540000	25.285019	0.000815	20.745370
1429.402762	-2.982600	3.532300	-10.534000	25.284023	0.000814	20.726826
1430.403432	-3.008800	3.531700	-10.626000	25.336269	0.000815	20.742299
1431.399024	-2.991400	3.532700	-10.567000	25.363062	0.000815	20.727475
1432.401147	-3.016200	3.530700	-10.648000	25.357469	0.000815	20.720912
1433.400500	-3.010000	3.530100	-10.623000	25.339401	0.000815	20.739280
1434.404503	-2.977900	3.530500	-10.513000	25.327247	0.000815	20.735611
1435.402759	-2.989800	3.530100	-10.553000	25.306767	0.000814	20.708883
1436.399216	-3.016300	3.529400	-10.645000	25.329483	0.000813	20.716044
1437.404541	-2.987000	3.529900	-10.543000	25.354660	0.000811	20.734687
1438.400849	-3.003400	3.528500	-10.596000	25.332168	0.000812	20.716843
1439.403994	-2.999500	3.529600	-10.586000	25.341762	0.000811	20.716045
1440.403456	-2.968900	3.530300	-10.479000	25.356424	0.000810	20.720335
1441.403451	-2.999800	3.528800	-10.585000	25.341041	0.000811	20.723382
1442.402735	-3.005500	3.528200	-10.602000	25.355604	0.000812	20.712400
1443.402950	-2.989700	3.528300	-10.548000	25.332143	0.000809	20.729621
1444.399723	-2.992000	3.527300	-10.553000	25.349465	0.000808	20.719513
1445.401498	-2.997600	3.526100	-10.569000	25.372703	0.000808	20.724828
1446.405133	-2.991000	3.527100	-10.549000	25.383987	0.000807	20.712450
1447.401009	-2.991400	3.527100	-10.551000	25.401284	0.000807	20.732190
1448.404354	-3.006200	3.526900	-10.602000	25.398127	0.000807	20.712424
1449.402322	-2.990300	3.526000	-10.543000	25.383142	0.000807	20.737681
1450.403382	-2.997400	3.523500	-10.560000	25.390945	0.000805	20.731766
1451.403611	-3.003600	3.524900	-10.586000	25.337410	0.000805	20.725901
1452.401602	-2.982600	3.524800	-10.512000	25.321901	0.000803	20.741624
1453.402968	-2.985600	3.524700	-10.522000	25.318471	0.000804	20.726800
1454.406209	-3.002000	3.523900	-10.578000	25.307087	0.000804	20.735758
1455.404280	-2.990800	3.522500	-10.534000	25.293840	0.000806	20.727673
1456.407103	-3.012200	3.522800	-10.610000	25.294909	0.000803	20.724479
1457.404356	-2.993700	3.523600	-10.548000	25.275472	0.000803	20.725826
1458.405740	-2.958900	3.523500	-10.423000	25.227051	0.000801	20.713248
1459.403035	-2.994800	3.523800	-10.552000	25.222005	0.000801	20.702965
1460.403563	-3.007700	3.522700	-10.594000	25.237615	0.000802	20.736657
1461.408163	-2.999500	3.521300	-10.561000	25.249820	0.000801	20.725676
1462.407054	-3.012600	3.522300	-10.610000	25.239156	0.000800	20.739626
1463.404926	-2.990400	3.522200	-10.532000	25.264411	0.000800	20.715668
1464.405893	-2.993200	3.520500	-10.536000	25.277509	0.000799	20.721233
1465.406599	-2.977800	3.521600	-10.486000	25.286333	0.000797	20.715393
1466.405303	-2.988400	3.519900	-10.518000	25.291079	0.000797	20.712098
1467.407001	-3.004100	3.519900	-10.574000	25.299033	0.000796	20.704910
1468.406775	-3.036500	3.517800	-10.680000	25.284617	0.000797	20.716042
1469.409248	-3.023800	3.517700	-10.636000	25.283995	0.000796	20.720633
1470.404445	-3.006400	3.518500	-10.577000	25.277136	0.000796	20.716116
1471.405809	-2.992100	3.519000	-10.528000	25.249571	0.000794	20.722581
1472.408648	-2.995100	3.517700	-10.535000	25.219817	0.000794	20.719736
1473.408747	-3.005000	3.517800	-10.569000	25.253945	0.000792	20.726499
1474.409246	-3.011400	3.516900	-10.590000	25.265653	0.000794	20.720709
1475.411770	-3.017700	3.515800	-10.609000	25.283225	0.000792	20.728395
1476.409497	-2.994200	3.517100	-10.530000	25.315736	0.000792	20.710302
1477.414583	-2.971100	3.516500	-10.447000	25.304501	0.000791	20.722730
1478.411870	-2.998700	3.515000	-10.540000	25.261850	0.000793	20.736806
1479.408744	-2.991900	3.515800	-10.517000	25.237515	0.000790	20.719011
1480.413580	-3.018000	3.514100	-10.605000	25.200328	0.000790	20.703013
1481.408045	-3.013100	3.514300	-10.588000	25.210545	0.000790	20.727023
1482.408031	-2.989200	3.515300	-10.507000	25.228989	0.000789	20.725151
1483.409991	-3.010100	3.514700	-10.579000	25.242386	0.000790	20.711574
1484.411304	-3.014600	3.514500	-10.593000	25.270275	0.000788	20.710176
1485.410128	-2.962500	3.513500	-10.407000	25.276836	0.000788	20.730041
1486.412795	-2.978100	3.514100	-10.465000	25.301169	0.000788	20.713693
1487.412298	-3.000900	3.512600	-10.539000	25.337483	0.000787	20.729767
1488.412685	-3.045300	3.511200	-10.692000	25.340067	0.000785	20.716714
1489.410446	-3.002000	3.512100	-10.543000	25.360074	0.000786	20.738226
1490.411002	-2.997200	3.511900	-10.525000	25.347497	0.000785	20.712795
1491.412463	-2.997800	3.511200	-10.525000	25.322146	0.000786	20.730489
1492.408804	-3.012400	3.510200	-10.572000	25.304522	0.000784	20.708051
1493.412324	-3.007000	3.509800	-10.552000	25.313122	0.000784	20.713367
1494.412637	-2.972000	3.512100	-10.437000	25.323338	0.000783	20.711296
1495.415162	-3.013600	3.508900	-10.573000	25.347371	0.000782	20.707926
1496.412844	-2.996200	3.510800	-10.519000	25.298605	0.000783	20.712542
1497.412680	-2.990100	3.510200	-10.494000	25.322690	0.000782	20.717758
1498.413890	-2.991700	3.510200	-10.500000	25.334420	0.000781	20.729063
1499.413595	-3.010500	3.508400	-10.561000	25.340386	0.000780	20.709447
1500.414660	-2.988400	3.510200	-10.489000	25.345729	0.000780	20.736151
1501.413548	-2.988700	3.508500	-10.485000	25.369091	0.000779	20.721201
1502.417960	-3.010900	3.508600	-10.563000	25.370159	0.000779	20.724645
1503.415615	-2.997100	3.507400	-10.511000	25.419293	0.000780	20.721823
1504.421250	-3.004500	3.505600	-10.531000	25.407613	0.000777	20.742813
1505.417531	-2.974900	3.507700	-10.433000	25.387481	0.000778	20.722123
1506.417000	-2.990400	3.507800	-10.489000	25.363697	0.000778	20.714362
1507.417442	-3.014100	3.506100	-10.566000	25.352039	0.000778	20.738694
1508.418196	-3.017600	3.504900	-10.576000	25.342570	0.000777	20.720650
1509.418828	-2.976900	3.505000	-10.432000	25.334119	0.000776	20.723545
1510.422047	-3.015400	3.505300	-10.568000	25.347266	0.000776	20.742910
1511.419309	-3.033900	3.502600	-10.625000	25.313514	0.000777	20.729409
1512.416286	-3.001000	3.505100	-10.517000	25.290797	0.000774	20.731256
1513.417150	-2.999300	3.503500	-10.507000	25.288757	0.000774	20.725414
1514.417515	-2.954300	3.505600	-10.355000	25.312917	0.000775	20.725964
1515.419034	-3.017900	3.502500	-10.569000	25.361780	0.000772	20.742310
1516.422806	-3.029900	3.502600	-10.611000	25.340530	0.000773	20.731879
1517.419535	-3.021600	3.501700	-10.579000	25.343215	0.000772	20.736471
1518.423304	-2.981300	3.502500	-10.441000	25.349627	0.000771	20.728211
1519.420303	-3.016500	3.501300	-10.560000	25.343812	0.000772	20.732329
1520.425372	-2.984900	3.501500	-10.451000	25.359991	0.000773	20.742411
1521.425380	-3.010200	3.501400	-10.538000	25.339114	0.000772	20.718603
1522.425467	-3.006200	3.501100	-10.524000	25.339611	0.000771	20.750872
1523.423695	-2.997000	3.501200	-10.492000	25.318808	0.000770	20.735199
1524.421810	-2.968000	3.502000	-10.394000	25.323481	0.000769	20.733252
1525.428707	-2.997100	3.500300	-10.490000	25.307152	0.000771	20.740091
1526.426152	-2.990700	3.499900	-10.466000	25.337524	0.000769	20.753992
1527.427726	-2.979100	3.501600	-10.431000	25.338891	0.000768	20.738768
1528.425468	-2.992400	3.501000	-10.476000	25.319579	0.000767	20.744508
1529.428616	-2.991300	3.499100	-10.466000	25.293283	0.000767	20.729485
1530.429123	-2.974500	3.500600	-10.412000	25.322415	0.000767	20.724595
1531.430579	-2.991600	3.498000	-10.463000	25.350526	0.000765	20.728164
1532.426686	-3.000600	3.498200	-10.496000	25.361561	0.000766	20.744462
1533.424714	-2.999500	3.496300	-10.486000	25.392205	0.000765	20.720702
1534.429456	-2.997300	3.498900	-10.487000	25.404731	0.000763	20.729487
1535.425340	-2.986700	3.498800	-10.448000	25.403689	0.000766	20.741718
1536.428292	-2.983700	3.497700	-10.436000	25.393997	0.000763	20.754271
1537.430451	-3.016200	3.494800	-10.538000	25.415246	0.000763	20.743365
1538.429993	-2.998100	3.496300	-10.480000	25.418254	0.000763	20.731686
1539.428695	-2.988700	3.496000	-10.447000	25.434384	0.000760	20.732236
1540.425963	-2.998400	3.495400	-10.480000	25.438808	0.000761	20.739050
1541.428645	-2.982200	3.495500	-10.424000	25.486174	0.000760	20.736829
1542.430944	-2.997300	3.495000	-10.475000	25.468232	0.000760	20.757692
1543.431440	-2.999400	3.493700	-10.478000	25.447259	0.000759	20.748011
1544.430601	-3.006300	3.492300	-10.498000	25.445819	0.000760	20.731865
1545.429757	-3.007900	3.492200	-10.502000	25.479419	0.000759	20.741425
1546.435056	-3.006000	3.493200	-10.500000	25.465925	0.000759	20.734512
1547.432200	-3.000700	3.491300	-10.476000	25.412768	0.000760	20.734713
1548.431802	-3.009300	3.492300	-10.507000	25.368654	0.000761	20.742574
1549.433901	-2.979800	3.492300	-10.406000	25.369798	0.000758	20.747042
1550.433829	-3.006900	3.492900	-10.502000	25.317780	0.000759	20.740805
1551.433436	-3.001600	3.490700	-10.477000	25.303837	0.000757	20.739607
1552.432866	-2.997700	3.490900	-10.464000	25.297823	0.000756	20.754432
1553.432744	-3.003300	3.490100	-10.481000	25.322630	0.000755	20.727182
1554.434093	-2.999800	3.490900	-10.471000	25.344974	0.000754	20.741557
1555.431078	-3.006200	3.490300	-10.491000	25.354097	0.000755	20.739811
1556.436153	-2.996900	3.490200	-10.459000	25.353178	0.000756	20.743631
1557.437489	-3.005600	3.488500	-10.483000	25.367370	0.000756	20.733698
1558.438795	-2.997800	3.489300	-10.459000	25.390734	0.000755	20.740563
1559.435148	-3.010100	3.488000	-10.498000	25.394511	0.000753	20.752891
1560.435921	-2.988800	3.488800	-10.427000	25.386138	0.000752	20.726939
1561.436656	-2.980000	3.488200	-10.395000	25.415713	0.000752	20.734351
1562.433709	-3.000600	3.487200	-10.463000	25.421108	0.000753	20.745459
1563.432872	-2.996700	3.486300	-10.445000	25.413155	0.000753	20.724196
1564.437927	-2.996200	3.485900	-10.444000	25.453913	0.000751	20.733830
1565.436931	-3.004400	3.485800	-10.472000	25.454932	0.000752	20.756665
1566.438570	-2.991600	3.485700	-10.427000	25.473074	0.000750	20.749279
1567.436644	-3.011300	3.485300	-10.494000	25.491913	0.000749	20.733582
1568.436896	-3.010600	3.484400	-10.489000	25.502226	0.000749	20.732559
1569.438649	-3.002900	3.484600	-10.463000	25.510503	0.000749	20.735181
1570.437453	-3.002500	3.486300	-10.467000	25.532942	0.000748	20.727369
1571.435466	-3.015300	3.482900	-10.500000	25.498426	0.000748	20.766203
1572.439758	-2.993700	3.485300	-10.432000	25.499868	0.000749	20.740149
1573.434577	-3.017300	3.483900	-10.511000	25.484187	0.000750	20.739575
1574.439496	-2.997000	3.483700	-10.440000	25.459336	0.000748	20.755871
1575.439562	-3.000500	3.483700	-10.451000	25.480560	0.000747	20.756796
1576.439415	-3.013800	3.481900	-10.493000	25.495519	0.000748	20.756645
1577.438605	-3.014300	3.481600	-10.494000	25.453621	0.000746	20.748236
1578.438679	-2.984800	3.482300	-10.393000	25.419275	0.000748	20.752153
1579.441191	-3.000800	3.481000	-10.444000	25.366862	0.000745	20.745990
1580.438298	-2.999600	3.481400	-10.442000	25.348047	0.000744	20.746065
1581.443534	-3.028200	3.480000	-10.536000	25.352994	0.000745	20.750558
1582.440644	-3.015800	3.479400	-10.492000	25.388062	0.000745	20.747363
1583.443982	-2.980600	3.480900	-10.373000	25.378617	0.000745	20.779607
1584.440454	-2.992600	3.478800	-10.409000	25.358834	0.000741	20.745042
1585.441104	-3.009000	3.479500	-10.468000	25.353888	0.000744	20.762362
1586.442877	-2.999100	3.479400	-10.434000	25.339548	0.000744	20.736109
1587.438351	-3.011300	3.479400	-10.476000	25.364875	0.000742	20.751108
1588.438278	-2.991900	3.478900	-10.407000	25.380483	0.000741	20.762987
1589.443367	-2.994800	3.477700	-10.414000	25.389430	0.000742	20.747315
1590.439565	-3.007200	3.478500	-10.460000	25.422138	0.000740	20.773047
1591.443715	-2.990700	3.477100	-10.398000	25.460882	0.000739	20.769753
1592.440906	-3.010600	3.476300	-10.465000	25.464263	0.000739	20.756078
1593.441054	-2.976800	3.475600	-10.345000	25.460684	0.000740	20.758173
1594.440630	-2.987700	3.475500	-10.383000	25.485536	0.000740	20.759896
1595.440475	-3.021000	3.475400	-10.496000	25.490034	0.000738	20.764888
1596.443542	-2.984400	3.475300	-10.370000	25.505567	0.000737	20.758201
1597.444849	-2.987500	3.474500	-10.378000	25.555143	0.000736	20.754408
1598.444730	-2.996800	3.474800	-10.412000	25.529175	0.000737	20.762943
1599.444407	-3.003600	3.474500	-10.435000	25.530096	0.000735	20.754384
1600.442524	-3.017500	3.472700	-10.478000	25.519162	0.000735	20.745300
1601.445150	-2.989000	3.472900	-10.378000	25.496648	0.000733	20.755408
1602.444874	-2.979800	3.474600	-10.352000	25.512728	0.000733	20.762073
1603.446337	-2.983600	3.473200	-10.360000	25.517152	0.000732	20.763197
1604.447243	-3.023300	3.472200	-10.496000	25.508256	0.000734	20.758056
1605.446490	-3.011600	3.472400	-10.456000	25.525578	0.000731	20.774977
1606.446487	-3.013700	3.471800	-10.461000	25.532163	0.000731	20.777798
1607.448272	-3.009200	3.472100	-10.448000	25.578085	0.000732	20.768914
1608.449838	-2.949000	3.473200	-10.241000	25.554877	0.000732	20.762201
1609.446668	-2.989700	3.470300	-10.374000	25.566805	0.000730	20.754266
1610.449526	-2.989800	3.471300	-10.377000	25.576820	0.000731	20.773334
1611.448586	-2.970300	3.470900	-10.308000	25.554755	0.000728	20.752122
1612.448530	-3.000500	3.468100	-10.405000	25.582661	0.000728	20.748378
1613.451114	-2.968200	3.470600	-10.300000	25.583831	0.000729	20.773262
1614.448496	-3.009300	3.468000	-10.436000	25.533237	0.000729	20.778401
1615.450199	-2.999000	3.468800	-10.402000	25.543401	0.000727	20.773436
1616.448042	-3.017600	3.468600	-10.464000	25.547602	0.000727	20.773387
1617.453042	-2.999600	3.467700	-10.400000	25.553616	0.000725	20.782746
1618.452285	-3.012600	3.467400	-10.444000	25.581971	0.000725	20.767601
1619.451485	-3.014500	3.466900	-10.450000	25.592307	0.000725	20.787464
1620.452747	-3.010100	3.467100	-10.435000	25.589426	0.000726	20.786468
1621.450439	-3.022400	3.465900	-10.473000	25.570143	0.000723	20.764731
1622.450429	-3.019200	3.464600	-10.460000	25.551880	0.000725	20.762036
1623.451270	-3.001400	3.463900	-10.394000	25.494898	0.000723	20.765505
1624.456405	-3.006800	3.465400	-10.418000	25.487245	0.000724	20.787217
1625.450419	-2.994100	3.464900	-10.373000	25.478199	0.000723	20.760589
1626.455053	-3.000500	3.464000	-10.392000	25.523279	0.000723	20.777410
1627.454704	-3.000600	3.463100	-10.390000	25.529640	0.000722	20.787591
1628.456213	-3.006200	3.463500	-10.411000	25.490924	0.000723	20.785696
1629.452379	-3.021800	3.464100	-10.466000	25.498654	0.000723	20.791087
1630.452120	-3.012500	3.463200	-10.432000	25.486353	0.000721	20.783476
1631.458181	-3.012100	3.463800	-10.432000	25.503971	0.000722	20.783151
1632.451401	-3.006400	3.463300	-10.411000	25.516795	0.000720	20.771373
1633.452103	-2.997200	3.463700	-10.380000	25.536850	0.000721	20.777763
1634.453808	-2.993300	3.462600	-10.363000	25.533147	0.000720	20.788743
1635.454724	-2.987900	3.461300	-10.341000	25.553201	0.000719	20.782330
1636.456991	-2.971800	3.462000	-10.287000	25.498682	0.000720	20.775469
1637.456177	-2.989500	3.461000	-10.345000	25.491725	0.000718	20.782233
1638.452931	-2.992900	3.460000	-10.353000	25.482901	0.000718	20.757250
1639.455826	-2.998900	3.460300	-10.375000	25.509669	0.000717	20.784605
1640.455980	-2.993600	3.459900	-10.356000	25.511260	0.000717	20.779091
1641.456059	-3.007800	3.458700	-10.403000	25.522941	0.000717	20.774226
1642.461439	-3.002300	3.458800	-10.383000	25.513077	0.000715	20.794192
1643.456423	-3.003700	3.457900	-10.385000	25.519365	0.000714	20.776325
1644.460414	-2.982900	3.460000	-10.320000	25.533581	0.000715	20.784437
1645.462475	-3.004000	3.458300	-10.388000	25.519840	0.000716	20.770638
1646.461547	-2.970400	3.458600	-10.273000	25.552095	0.000714	20.773158
1647.459544	-3.000100	3.457100	-10.370000	25.557488	0.000714	20.791851
1648.462174	-2.995400	3.457000	-10.354000	25.560720	0.000715	20.792252
1649.459642	-3.002100	3.456600	-10.376000	25.574986	0.000714	20.792828
1650.460518	-3.003100	3.456400	-10.379000	25.552001	0.000716	20.802462
1651.459781	-3.017000	3.456000	-10.425000	25.548399	0.000714	20.800267
1652.460567	-3.000400	3.455200	-10.366000	25.561396	0.000712	20.787241
1653.461626	-2.983300	3.454900	-10.306000	25.540920	0.000713	20.775687
1654.462141	-3.027000	3.452900	-10.451000	25.497955	0.000712	20.783273
1655.463415	-3.036000	3.454500	-10.486000	25.482249	0.000711	20.817762
1656.463240	-3.026400	3.451800	-10.445000	25.463314	0.000711	20.770298
1657.466540	-3.003700	3.452400	-10.369000	25.483619	0.000710	20.792585
1658.466012	-2.993800	3.454900	-10.342000	25.499797	0.000711	20.784649
1659.460323	-2.977500	3.454100	-10.283000	25.514881	0.000709	20.799797
1660.462755	-3.001000	3.452900	-10.361000	25.536453	0.000710	20.806287
1661.462194	-3.012800	3.453100	-10.403000	25.542889	0.000708	20.793311
1662.464835	-2.988600	3.453200	-10.319000	25.564806	0.000709	20.794932
1663.461594	-3.011800	3.452200	-10.396000	25.598627	0.000709	20.792863
1664.464180	-3.013200	3.450200	-10.395000	25.601582	0.000707	20.798202
1665.464469	-3.011500	3.450800	-10.391000	25.628393	0.000708	20.797154
1666.465040	-2.979600	3.451300	-10.282000	25.650829	0.000705	20.796929
1667.464818	-3.016200	3.449900	-10.405000	25.607820	0.000707	20.809682
1668.465677	-2.991400	3.450200	-10.320000	25.589407	0.000706	20.803993
1669.464411	-3.002300	3.449600	-10.356000	25.567440	0.000707	20.815596
1670.464691	-3.017700	3.448100	-10.404000	25.547288	0.000705	20.803419
1671.464475	-2.977700	3.450300	-10.272000	25.499700	0.000703	20.803518
1672.466202	-3.021800	3.448200	-10.418000	25.506385	0.000706	20.818766
1673.466830	-2.985700	3.448400	-10.295000	25.496643	0.000704	20.817043
1674.468503	-3.001700	3.447800	-10.348000	25.505739	0.000703	20.815273
1675.467979	-2.997600	3.449100	-10.338000	25.511828	0.000704	20.812378
1676.467680	-2.990300	3.447500	-10.309000	25.535163	0.000704	20.820165
1677.469200	-3.008800	3.447500	-10.372000	25.586351	0.000700	20.810407
1678.467826	-3.007100	3.446200	-10.362000	25.574002	0.000702	20.804168
1679.466417	-2.989300	3.447400	-10.304000	25.606207	0.000702	20.811381
1680.468799	-3.027600	3.446100	-10.432000	25.580663	0.000700	20.809435
1681.470518	-3.019900	3.445500	-10.404000	25.576339	0.000703	20.832593
1682.468002	-3.006700	3.444900	-10.357000	25.537598	0.000701	20.820714
1683.471751	-3.013900	3.445400	-10.383000	25.563418	0.000702	20.830997
1684.471376	-3.003700	3.445300	-10.346000	25.556833	0.000701	20.829125
1685.475400	-2.981100	3.444300	-10.267000	25.585559	0.000699	20.801076
1686.469518	-3.002500	3.443900	-10.339000	25.542098	0.000697	20.799154
1687.473423	-3.012800	3.443500	-10.373000	25.515134	0.000699	20.815698
1688.471705	-2.994400	3.442800	-10.308000	25.508252	0.000698	20.802149
1689.471796	-3.010600	3.443100	-10.365000	25.532927	0.000696	20.816972
1690.470181	-2.990300	3.442500	-10.294000	25.547293	0.000696	20.814803
1691.469944	-2.986000	3.443600	-10.282000	25.573011	0.000699	20.816449
1692.469186	-3.004200	3.440800	-10.335000	25.617141	0.000694	20.824734
1693.475656	-2.996400	3.440800	-10.309000	25.564462	0.000696	20.820191
1694.474174	-2.995800	3.441900	-10.310000	25.560959	0.000694	20.822837
1695.474678	-2.985000	3.440300	-10.269000	25.564039	0.000694	20.818818
1696.474789	-2.995600	3.440800	-10.307000	25.551739	0.000694	20.842975
1697.471247	-2.992300	3.440400	-10.294000	25.586254	0.000693	20.839705
1698.474652	-3.003100	3.440500	-10.331000	25.580664	0.000692	20.838833
1699.476686	-2.986500	3.439700	-10.272000	25.563019	0.000692	20.845294
1700.476715	-2.974800	3.440100	-10.233000	25.568859	0.000693	20.836461
1701.475602	-2.993400	3.438100	-10.290000	25.556658	0.000692	20.828950
1702.477139	-3.004900	3.438300	-10.330000	25.564211	0.000690	20.855026
1703.474779	-2.993000	3.438400	-10.290000	25.581158	0.000690	20.831269
1704.476638	-2.976900	3.438300	-10.235000	25.629984	0.000690	20.822934
1705.480883	-2.991400	3.436100	-10.277000	25.635550	0.000689	20.837532
1706.478039	-3.023600	3.435000	-10.385000	25.629263	0.000690	20.837382
1707.479833	-3.010000	3.436200	-10.341000	25.632965	0.000689	20.835885
1708.477587	-2.992300	3.435900	-10.280000	25.633439	0.000690	20.827352
1709.480604	-3.016000	3.434300	-10.356000	25.641191	0.000686	20.822335
1710.479890	-3.003700	3.435300	-10.317000	25.591619	0.000687	20.827076
1711.478553	-3.007600	3.435700	-10.333000	25.604913	0.000688	20.832367
1712.478881	-3.001400	3.434200	-10.306000	25.555391	0.000685	20.849961
1713.477993	-2.999100	3.433900	-10.297000	25.566720	0.000687	20.849959
1714.479262	-2.993900	3.435000	-10.281000	25.585505	0.000686	20.844169
1715.482504	-2.996200	3.433000	-10.285000	25.617585	0.000685	20.845568
1716.480381	-2.976500	3.434400	-10.221000	25.604366	0.000684	20.862636
1717.485233	-3.014800	3.433400	-10.350000	25.634755	0.000685	20.841475
1718.480845	-2.981500	3.433000	-10.235000	25.608913	0.000684	20.833539
1719.483590	-2.986400	3.433000	-10.251000	25.609309	0.000683	20.842945
1720.482767	-3.020500	3.431000	-10.362000	25.606428	0.000682	20.866604
1721.483573	-3.015100	3.432500	-10.348000	25.599967	0.000683	20.858219
1722.481280	-3.019600	3.430800	-10.359000	25.582471	0.000684	20.866725
1723.483239	-3.013000	3.431600	-10.339000	25.565202	0.000682	20.858391
1724.484718	-3.010900	3.430200	-10.327000	25.564854	0.000681	20.831016
1725.485266	-2.984800	3.430300	-10.238000	25.580632	0.000683	20.888584
1726.485166	-3.019800	3.428700	-10.353000	25.608438	0.000682	20.852975
1727.485990	-3.003500	3.429500	-10.300000	25.646653	0.000681	20.851054
1728.484729	-3.001400	3.429800	-10.293000	25.651150	0.000680	20.866949
1729.482677	-3.005800	3.429400	-10.307000	25.664741	0.000681	20.856893
1730.483055	-2.991100	3.428900	-10.254000	25.670679	0.000681	20.855270
1731.486617	-2.971000	3.429200	-10.187000	25.672344	0.000680	20.853150
1732.485887	-3.000400	3.427400	-10.283000	25.685686	0.000679	20.857067
1733.483784	-3.014100	3.426700	-10.326000	25.662056	0.000678	20.843765
1734.484435	-2.991700	3.426200	-10.249000	25.650876	0.000679	20.847235
1735.484974	-3.010400	3.427000	-10.316000	25.605105	0.000678	20.842043
1736.485809	-2.996400	3.426900	-10.267000	25.652415	0.000681	20.844987
1737.484227	-2.981800	3.426800	-10.217000	25.646277	0.000679	20.848780
1738.485832	-2.972000	3.426500	-10.183000	25.668514	0.000676	20.869690
1739.487179	-3.019600	3.424300	-10.339000	25.667941	0.000678	20.863425
1740.487546	-2.974100	3.427200	-10.192000	25.676090	0.000676	20.846955
1741.487828	-2.991300	3.426200	-10.247000	25.710428	0.000678	20.842089
1742.489442	-3.012200	3.424500	-10.314000	25.731074	0.000675	20.845283
1743.489234	-3.007700	3.424300	-10.298000	25.721681	0.000674	20.834426
1744.483920	-2.982200	3.424100	-10.210000	25.720512	0.000675	20.825666
1745.488232	-2.980600	3.423800	-10.203000	25.739071	0.000674	20.861849
1746.485495	-3.001800	3.424400	-10.278000	25.727195	0.000673	20.829534
1747.489109	-2.997200	3.423700	-10.260000	25.729604	0.000672	20.838116
1748.491043	-3.003000	3.423400	-10.278000	25.740310	0.000672	20.864042
1749.486026	-3.001400	3.423000	-10.273000	25.709180	0.000672	20.828034
1750.489465	-3.010700	3.422500	-10.303000	25.708807	0.000673	20.830504
1751.487221	-3.018900	3.421500	-10.329000	25.698991	0.000673	20.834869
1752.492935	-2.969100	3.422400	-10.160000	25.739438	0.000671	20.841831
1753.489734	-3.016400	3.421200	-10.318000	25.748282	0.000671	20.841231
1754.491817	-2.985800	3.421300	-10.215000	25.752953	0.000669	20.831224
1755.488093	-3.005100	3.421000	-10.279000	25.753724	0.000670	20.843378
1756.489261	-3.010400	3.419700	-10.294000	25.719485	0.000668	20.841704
1757.488937	-3.015600	3.419900	-10.313000	25.700553	0.000671	20.820317
1758.490948	-2.991400	3.421100	-10.233000	25.699210	0.000669	20.838882
1759.490897	-3.009900	3.419100	-10.291000	25.655380	0.000669	20.842276
1760.490506	-2.998500	3.419500	-10.252000	25.653566	0.000666	20.839980
1761.492280	-3.020800	3.417600	-10.323000	25.612617	0.000667	20.851009
1762.491520	-2.982200	3.419400	-10.196000	25.606255	0.000666	20.817120
1763.495248	-3.021700	3.416900	-10.324000	25.667254	0.000666	20.841399
1764.489784	-3.008300	3.417300	-10.278000	25.660944	0.000668	20.822734
1765.492006	-3.003200	3.417400	-10.262000	25.665838	0.000668	20.813899
1766.493142	-3.002300	3.417000	-10.258000	25.649934	0.000664	20.821633
1767.491464	-3.012300	3.415600	-10.288000	25.654630	0.000666	20.820660
1768.497018	-2.993200	3.418600	-10.231000	25.661140	0.000666	20.829569
1769.495885	-2.990000	3.415900	-10.212000	25.686433	0.000663	20.829369
1770.493835	-2.986100	3.414800	-10.196000	25.662854	0.000665	20.844566
1771.497564	-2.995600	3.415900	-10.230000	25.659723	0.000665	20.845689
1772.495139	-2.995700	3.415100	-10.229000	25.664568	0.000663	20.819736
1773.494978	-3.002800	3.415100	-10.254000	25.691005	0.000662	20.831590
1774.496100	-3.001100	3.413500	-10.243000	25.705788	0.000663	20.832214
1775.498820	-2.964700	3.414200	-10.121000	25.699651	0.000662	20.818464
1776.495210	-3.011400	3.412900	-10.277000	25.696024	0.000662	20.842320
1777.498128	-2.986100	3.414800	-10.196000	25.650330	0.000663	20.818713
1778.494715	-2.982800	3.412500	-10.178000	25.617334	0.000662	20.840574
1779.497733	-2.988300	3.413000	-10.198000	25.618228	0.000660	20.818713
1780.498618	-2.998500	3.412400	-10.231000	25.619894	0.000660	20.830818
1781.499253	-2.985400	3.411800	-10.185000	25.647425	0.000658	20.802518
1782.498641	-2.990700	3.411900	-10.203000	25.654556	0.000660	20.834810
1783.498436	-2.995600	3.411100	-10.217000	25.660495	0.000659	20.821809
1784.498247	-2.985000	3.411400	-10.182000	25.634678	0.000658	20.826226
1785.498588	-3.015700	3.409700	-10.282000	25.623496	0.000656	20.806461
1786.501057	-2.986100	3.410600	-10.183000	25.638556	0.000658	20.823956
1787.500682	-3.000100	3.409800	-10.229000	25.668248	0.000657	20.822484
1788.501993	-2.978400	3.409100	-10.152000	25.646507	0.000655	20.822459
1789.499150	-3.001000	3.409600	-10.231000	25.672398	0.000656	20.807211
1790.500739	-3.028800	3.407800	-10.319000	25.689518	0.000655	20.803544
1791.500145	-2.978200	3.409400	-10.152000	25.711456	0.000655	20.827949
1792.500119	-2.982200	3.410600	-10.170000	25.720275	0.000652	20.819264
1793.501291	-2.995500	3.408500	-10.210000	25.748052	0.000654	20.810655
1794.497804	-2.979800	3.409400	-10.158000	25.767904	0.000653	20.838655
1795.504023	-2.993500	3.407000	-10.197000	25.740872	0.000652	20.815297
1796.503527	-3.002600	3.406300	-10.227000	25.773843	0.000651	20.804792
1797.502959	-2.991800	3.407500	-10.193000	25.769321	0.000653	20.803569
1798.501243	-3.000000	3.405100	-10.214000	25.787060	0.000650	20.824232
1799.498699	-2.991200	3.406500	-10.188000	25.775509	0.000651	20.807889
1800.499863	-2.988900	3.407300	-10.183000	25.790787	0.000650	20.796682
1801.502191	-3.016700	3.404100	-10.267000	25.783707	0.000650	20.811382
1802.502382	-2.980700	3.406100	-10.152000	25.791755	0.000648	20.822311
1803.499994	-2.997000	3.404300	-10.202000	25.797718	0.000648	20.790843
1804.502029	-3.007300	3.403300	-10.234000	25.822612	0.000648	20.805417
1805.506941	-2.998000	3.403900	-10.204000	25.813072	0.000647	20.810059
1806.506174	-2.997200	3.403900	-10.201000	25.779882	0.000646	20.807539
1807.505722	-3.013800	3.403700	-10.256000	25.799234	0.000647	20.789994
1808.504182	-2.997300	3.402400	-10.197000	25.806961	0.000647	20.785428
1809.508018	-2.998700	3.402900	-10.203000	25.822463	0.000646	20.807639
1810.501915	-2.994900	3.401100	-10.184000	25.793818	0.000644	20.828176
1811.504493	-2.981800	3.402200	-10.143000	25.801619	0.000643	20.795709
1812.505047	-3.000400	3.402800	-10.208000	25.822438	0.000643	20.795760
1813.506608	-3.004500	3.401900	-10.219000	25.819829	0.000643	20.817321
1814.505616	-2.998400	3.400400	-10.195000	25.811532	0.000642	20.802822
1815.510331	-2.993300	3.399700	-10.175000	25.830512	0.000642	20.803870
1816.506886	-2.992300	3.399600	-10.171000	25.835703	0.000640	20.791541
1817.508955	-2.997900	3.401100	-10.195000	25.798563	0.000642	20.799752
1818.509989	-3.003000	3.400700	-10.212000	25.808674	0.000640	20.801848
1819.509734	-2.999400	3.399100	-10.195000	25.789644	0.000642	20.817820
1820.510155	-3.015300	3.398400	-10.246000	25.756279	0.000638	20.799004
1821.509519	-3.029500	3.397800	-10.293000	25.732629	0.000640	20.798956
1822.511567	-3.005100	3.398000	-10.210000	25.734789	0.000637	20.786902
1823.515115	-2.991400	3.398700	-10.166000	25.724777	0.000638	20.810510
1824.511044	-2.988400	3.398200	-10.154000	25.748007	0.000638	20.778367
1825.512590	-3.011200	3.396200	-10.226000	25.755013	0.000638	20.789672
1826.510162	-2.982700	3.398000	-10.133000	25.770168	0.000638	20.809636
1827.511451	-2.997600	3.396700	-10.180000	25.776131	0.000637	20.772004
1828.514930	-2.995600	3.395800	-10.171000	25.765847	0.000638	20.793916
1829.513708	-3.009700	3.395800	-10.219000	25.728358	0.000637	20.798460
1830.512456	-2.996000	3.396800	-10.175000	25.710270	0.000636	20.803525
1831.514401	-2.978300	3.396400	-10.114000	25.691935	0.000635	20.785109
1832.512046	-2.992500	3.395600	-10.161000	25.682767	0.000635	20.796764
1833.516877	-3.022100	3.395300	-10.260000	25.707340	0.000635	20.758856
1834.516245	-2.987700	3.394700	-10.140000	25.731292	0.000633	20.778647
1835.519379	-3.005600	3.396400	-10.205000	25.715840	0.000632	20.783989
1836.517918	-2.980800	3.394500	-10.117000	25.723914	0.000633	20.801583
1837.516915	-3.016200	3.393100	-10.233000	25.720039	0.000632	20.781568
1838.515387	-2.993900	3.393400	-10.158000	25.745010	0.000632	20.779623
1839.518987	-2.992400	3.393800	-10.154000	25.733033	0.000632	20.777551
1840.518109	-2.992400	3.394000	-10.156000	25.720213	0.000632	20.770838
1841.516205	-2.989600	3.391900	-10.140000	25.713010	0.000631	20.782569
1842.516829	-3.024300	3.393000	-10.260000	25.768067	0.000630	20.769119
1843.517460	-2.992700	3.392400	-10.151000	25.748490	0.000631	20.795922
1844.519987	-2.978800	3.392400	-10.104000	25.762604	0.000629	20.766001
1845.519192	-2.986800	3.391700	-10.129000	25.749262	0.000629	20.785318
1846.519248	-3.007300	3.391100	-10.196000	25.754654	0.000631	20.775087
1847.522506	-2.992400	3.390500	-10.144000	25.747649	0.000628	20.780853
1848.519591	-2.992700	3.390600	-10.147000	25.761687	0.000627	20.770771
1849.524178	-2.981200	3.389000	-10.102000	25.740098	0.000629	20.781328
1850.522606	-2.997200	3.389600	-10.158000	25.741589	0.000627	20.784722
1851.526232	-2.991500	3.388500	-10.136000	25.742732	0.000628	20.768801
1852.522483	-2.989900	3.388100	-10.130000	25.783901	0.000628	20.785498
1853.522223	-3.007500	3.387500	-10.186000	25.768548	0.000628	20.765334
1854.522901	-3.002900	3.388000	-10.173000	25.809738	0.000626	20.778261
1855.522716	-3.002400	3.388100	-10.172000	25.826558	0.000625	20.772397
1856.525828	-2.987900	3.388300	-10.123000	25.790237	0.000624	20.765783
1857.521877	-2.999400	3.386600	-10.157000	25.789194	0.000624	20.764261
1858.525275	-3.004300	3.388200	-10.178000	25.746810	0.000624	20.778113
1859.522298	-3.029200	3.385900	-10.256000	25.732576	0.000625	20.770453
1860.525906	-3.011000	3.387500	-10.198000	25.730762	0.000623	20.751087
1861.523178	-3.004100	3.386500	-10.171000	25.733617	0.000623	20.750636
1862.525123	-2.991700	3.387200	-10.132000	25.769470	0.000624	20.780485
1863.523914	-2.996900	3.387000	-10.150000	25.787906	0.000622	20.770080
1864.523715	-2.976800	3.386000	-10.079000	25.779955	0.000624	20.762568
1865.526715	-2.985000	3.385000	-10.104000	25.795036	0.000623	20.759698
1866.529767	-3.016300	3.384900	-10.208000	25.816402	0.000620	20.744176
1867.526878	-3.005800	3.384600	-10.172000	25.838714	0.000621	20.763271
1868.528608	-2.987900	3.385000	-10.113000	25.829148	0.000619	20.739910
1869.525463	-3.000300	3.385500	-10.157000	25.855208	0.000622	20.743803
1870.526447	-3.003700	3.384500	-10.165000	25.868399	0.000620	20.759900
1871.528101	-3.008600	3.383200	-10.177000	25.903651	0.000620	20.764968
1872.528186	-3.004600	3.384300	-10.168000	25.901590	0.000620	20.749146
1873.525993	-3.000700	3.383200	-10.151000	25.907402	0.000619	20.762572
1874.527123	-2.987800	3.382300	-10.105000	25.917489	0.000616	20.761800
1875.529879	-2.986200	3.382600	-10.100000	25.895631	0.000617	20.742211
1876.532420	-3.004600	3.381300	-10.158000	25.823985	0.000616	20.763174
1877.529685	-3.006500	3.381200	-10.165000	25.835340	0.000616	20.764623
1878.532298	-2.971600	3.381900	-10.049000	25.830521	0.000615	20.743660
1879.532116	-2.979700	3.381100	-10.074000	25.818547	0.000615	20.745857
1880.528295	-3.008200	3.380600	-10.168000	25.850867	0.000613	20.754616
1881.528659	-3.020000	3.379200	-10.203000	25.873399	0.000612	20.763975
1882.527517	-3.024100	3.378400	-10.215000	25.842595	0.000612	20.766221
1883.532133	-2.991100	3.378900	-10.105000	25.833006	0.000612	20.752321
1884.528560	-3.003300	3.378200	-10.144000	25.800337	0.000609	20.741315
1885.532275	-3.022000	3.377300	-10.205000	25.781879	0.000610	20.755491
1886.529662	-2.994600	3.377800	-10.114000	25.753407	0.000610	20.750126
1887.533134	-3.005300	3.378900	-10.154000	25.696562	0.000610	20.743288
1888.530147	-2.997100	3.378400	-10.125000	25.662348	0.000611	20.722199
1889.529790	-2.988900	3.377500	-10.094000	25.634122	0.000610	20.740319
1890.530775	-2.997000	3.376300	-10.118000	25.613001	0.000608	20.728114
1891.531217	-3.005000	3.377000	-10.147000	25.604726	0.000607	20.753470
1892.532573	-2.992100	3.377500	-10.105000	25.608008	0.000608	20.740644
1893.534875	-3.000300	3.375900	-10.127000	25.614816	0.000608	20.738946
1894.535231	-2.994400	3.376800	-10.112000	25.642396	0.000607	20.729661
1895.530280	-2.983000	3.376000	-10.070000	25.695345	0.000607	20.745385
1896.533424	-2.982100	3.375800	-10.066000	25.705606	0.000605	20.731983
1897.531604	-3.000600	3.374400	-10.124000	25.748066	0.000606	20.746657
1898.534603	-3.009800	3.374900	-10.157000	25.750550	0.000605	20.743462
1899.533019	-2.968100	3.375900	-10.019000	25.759693	0.000604	20.743636
1900.531074	-2.974700	3.375000	-10.039000	25.746228	0.000604	20.722524
1901.533318	-2.996800	3.373800	-10.110000	25.750798	0.000603	20.742763
1902.530589	-2.986700	3.373000	-10.073000	25.743443	0.000602	20.717830
1903.533629	-3.020000	3.373100	-10.186000	25.717605	0.000602	20.729337
1904.536320	-3.003400	3.373300	-10.131000	25.652931	0.000601	20.730285
1905.535940	-3.014900	3.373500	-10.169000	25.613919	0.000601	20.737098
1906.533584	-3.010500	3.371500	-10.149000	25.604078	0.000600	20.723894
1907.533203	-2.994900	3.372300	-10.099000	25.605022	0.000603	20.723419
1908.532672	-2.999400	3.372400	-10.114000	25.583405	0.000600	20.734427
1909.535728	-3.002300	3.371700	-10.122000	25.591654	0.000599	20.731331
1910.535072	-2.995600	3.371900	-10.100000	25.602886	0.000600	20.736448
1911.535477	-3.002600	3.371300	-10.122000	25.630466	0.000601	20.742811
1912.534003	-2.994500	3.370800	-10.093000	25.680581	0.000598	20.737194
1913.534497	-3.003900	3.371500	-10.126000	25.704980	0.000598	20.744632
1914.540666	-3.024000	3.370300	-10.190000	25.730470	0.000596	20.735147
1915.538055	-2.992600	3.371200	-10.088000	25.747912	0.000597	20.714258
1916.536354	-2.979800	3.370400	-10.042000	25.746024	0.000596	20.734648
1917.538751	-3.031900	3.368300	-10.211000	25.720334	0.000597	20.727336
1918.535796	-3.003400	3.369200	-10.117000	25.723614	0.000596	20.713560
1919.536483	-2.985800	3.369200	-10.059000	25.727886	0.000594	20.735870
1920.538338	-2.991200	3.368200	-10.074000	25.759612	0.000594	20.744978
1921.541239	-2.996300	3.368600	-10.092000	25.782866	0.000593	20.729455
1922.538630	-3.013200	3.367400	-10.146000	25.814791	0.000593	20.732600
1923.537816	-3.009900	3.367500	-10.135000	25.829322	0.000592	20.732023
1924.539874	-3.030200	3.367100	-10.201000	25.834167	0.000593	20.716975
1925.543092	-2.989200	3.367200	-10.063000	25.870039	0.000591	20.730253
1926.542738	-3.045800	3.364800	-10.247000	25.886907	0.000592	20.726335
1927.541608	-2.992500	3.366400	-10.073000	25.876672	0.000592	20.725536
1928.541120	-2.986700	3.367000	-10.056000	25.880374	0.000590	20.719297
1929.539184	-3.003600	3.365700	-10.108000	25.847433	0.000589	20.702325
1930.543213	-2.975700	3.367400	-10.019000	25.782541	0.000589	20.721542
1931.542165	-3.023500	3.364000	-10.170000	25.790936	0.000588	20.729026
1932.543758	-3.005300	3.365200	-10.113000	25.801895	0.000590	20.714429
1933.543936	-3.003700	3.363700	-10.103000	25.809546	0.000588	20.732547
1934.541231	-2.993300	3.364300	-10.070000	25.852301	0.000587	20.740409
1935.541630	-2.982900	3.365800	-10.038000	25.854860	0.000588	20.712157
1936.544870	-2.972600	3.364800	-10.000000	25.874510	0.000587	20.725735
1937.543219	-2.991700	3.364600	-10.065000	25.871005	0.000586	20.717946
1938.541032	-3.000000	3.363500	-10.089000	25.884993	0.000584	20.725834
1939.547475	-2.988300	3.364100	-10.051000	25.817495	0.000584	20.723936
1940.541807	-3.015400	3.362500	-10.138000	25.794191	0.000584	20.724234
1941.542737	-3.016300	3.361200	-10.137000	25.738514	0.000582	20.728053
1942.544307	-3.018000	3.360700	-10.142000	25.722192	0.000584	20.723512
1943.544618	-3.001800	3.362800	-10.094000	25.714340	0.000584	20.736014
1944.546775	-3.012700	3.361200	-10.126000	25.700228	0.000583	20.719942
1945.542574	-3.006800	3.360800	-10.104000	25.675158	0.000582	20.713254
1946.543890	-2.991700	3.360900	-10.054000	25.627328	0.000582	20.733968
1947.548795	-2.990000	3.361000	-10.047000	25.655056	0.000583	20.722462
1948.547335	-2.987400	3.362000	-10.042000	25.679903	0.000584	20.718020
1949.543581	-3.023100	3.358700	-10.151000	25.701794	0.000583	20.693538
1950.545763	-3.015000	3.359000	-10.126000	25.686960	0.000579	20.721789
1951.543450	-2.991500	3.359700	-10.050000	25.693892	0.000581	20.723062
1952.546173	-2.998500	3.358600	-10.070000	25.680026	0.000583	20.714824
1953.549705	-3.007500	3.357900	-10.099000	25.675975	0.000580	20.709333
1954.545328	-3.004800	3.358300	-10.091000	25.708004	0.000581	20.725382
1955.547218	-2.998000	3.359100	-10.068000	25.737271	0.000579	20.692189
1956.546491	-2.996400	3.358700	-10.062000	25.746415	0.000579	20.724609
1957.548727	-3.011300	3.356500	-10.106000	25.763457	0.000579	20.708535
1958.551011	-2.984700	3.357300	-10.020000	25.761767	0.000580	20.708734
1959.550477	-2.998800	3.357200	-10.066000	25.791009	0.000578	20.723409
1960.548310	-2.982200	3.355600	-10.005000	25.790738	0.000578	20.707014
1961.548247	-3.015600	3.355600	-10.118000	25.764028	0.000577	20.702944
1962.547528	-2.996800	3.355600	-10.054000	25.740401	0.000574	20.721413
1963.550542	-2.985100	3.355400	-10.015000	25.694586	0.000575	20.727078
1964.550626	-2.993900	3.354900	-10.044000	25.677418	0.000574	20.716472
1965.547544	-2.994900	3.353300	-10.041000	25.690362	0.000574	20.730896
1966.549911	-2.993900	3.353600	-10.039000	25.706587	0.000573	20.707837
1967.547241	-2.980300	3.354600	-9.997000	25.740427	0.000573	20.712430
1968.548267	-3.005200	3.354400	-10.080000	25.776103	0.000570	20.728351
1969.548738	-2.982000	3.353500	-9.999100	25.792004	0.000572	20.728676
1970.550854	-3.006200	3.352300	-10.077000	25.829244	0.000572	20.727204
1971.550611	-3.005100	3.352500	-10.074000	25.867526	0.000570	20.713502
1972.550426	-2.987900	3.353200	-10.018000	25.879549	0.000570	20.719417
1973.552362	-2.990300	3.353200	-10.026000	25.901086	0.000566	20.714973
1974.552362	-2.999400	3.353700	-10.057000	25.880866	0.000567	20.710782
1975.556735	-3.006200	3.352300	-10.077000	25.893263	0.000570	20.721340
1976.553476	-3.031600	3.350900	-10.158000	25.922128	0.000568	20.703395
1977.556827	-2.996900	3.351300	-10.043000	25.945181	0.000568	20.714701
1978.552773	-3.031500	3.350900	-10.157000	25.899795	0.000568	20.718893
1979.559990	-2.997300	3.350800	-10.041000	25.934250	0.000568	20.717470
1980.559209	-2.999900	3.350800	-10.052000	25.932263	0.000566	20.719267
1981.555379	-2.978200	3.351500	-9.980900	25.929205	0.000565	20.721886
1982.557565	-3.000400	3.349800	-10.050000	25.921033	0.000564	20.715572
1983.556058	-2.999600	3.347800	-10.041000	25.928611	0.000564	20.721763
1984.559134	-3.014300	3.348300	-10.091000	25.929852	0.000565	20.729174
1985.561652	-2.998400	3.348600	-10.039000	25.917109	0.000566	20.707836
1986.559865	-3.014800	3.348600	-10.094000	25.920734	0.000564	20.718591
1987.559072	-2.990800	3.348400	-10.013000	25.931094	0.000562	20.731845
1988.558408	-3.012000	3.347300	-10.081000	25.942148	0.000564	20.734889
1989.558279	-2.983000	3.347900	-9.985900	25.943489	0.000562	20.737659
1990.561559	-3.014900	3.347300	-10.091000	25.937824	0.000559	20.720587
1991.562191	-3.004800	3.347100	-10.056000	25.951041	0.000560	20.733392
1992.559006	-3.015200	3.346200	-10.089000	25.969074	0.000561	20.720214
1993.565786	-3.000800	3.344500	-10.035000	25.969050	0.000560	20.725405
1994.558111	-2.981600	3.346200	-9.975800	26.022602	0.000561	20.732742
1995.562314	-2.991900	3.346900	-10.013000	26.020863	0.000560	20.725779
1996.561971	-3.026300	3.345100	-10.123000	26.026650	0.000560	20.725903
1997.561279	-3.002400	3.344300	-10.040000	26.051116	0.000559	20.714922
1998.564371	-2.985300	3.346100	-9.987800	26.061496	0.000560	20.716817
1999.557984	-3.006400	3.343100	-10.050000	26.057845	0.000560	20.733064
2000.558915	-3.007200	3.344300	-10.056000	26.091748	0.000558	20.744370
2001.563578	-3.002300	3.345700	-10.044000	26.084396	0.000559	20.733188
2002.559350	-2.985600	3.345300	-9.987000	26.082209	0.000556	20.723879
2003.558899	-2.989800	3.345100	-9.999700	26.092293	0.000557	20.731166
2004.563596	-3.003300	3.343800	-10.041000	26.116458	0.000556	20.728420
2005.560675	-3.007700	3.341500	-10.049000	26.102252	0.000559	20.738328
2006.562789	-2.998600	3.341200	-10.018000	26.093981	0.000556	20.729543
2007.562343	-3.007600	3.342900	-10.053000	26.081711	0.000557	20.728594
2008.560769	-3.001700	3.342200	-10.032000	26.112309	0.000555	20.733734
2009.563301	-2.995400	3.341200	-10.008000	26.096811	0.000555	20.744241
2010.561282	-2.994900	3.340700	-10.004000	26.093433	0.000554	20.747011
2011.564563	-2.992400	3.339800	-9.992700	26.087100	0.000552	20.730690
2012.566529	-2.957300	3.340500	-9.877500	26.082678	0.000552	20.749482
2013.566178	-2.991600	3.341000	-9.993400	26.070559	0.000553	20.757219
2014.564639	-3.009900	3.339300	-10.050000	26.061840	0.000551	20.757468
2015.564569	-3.000400	3.340500	-10.022000	26.060398	0.000551	20.741320
2016.562165	-2.999100	3.340500	-10.018000	26.076791	0.000549	20.717486
2017.564693	-3.005700	3.338900	-10.034000	26.086427	0.000549	20.751826
2018.568279	-2.993000	3.338800	-9.991700	26.108633	0.000550	20.725299
2019.563155	-3.014200	3.337800	-10.059000	26.105627	0.000549	20.729391
2020.567389	-3.003700	3.336900	-10.022000	26.093334	0.000546	20.746437
2021.562649	-3.004200	3.336600	-10.024000	26.074430	0.000549	20.736452
2022.570983	-2.994400	3.337600	-9.992300	26.019316	0.000546	20.748882
2023.566638	-2.978800	3.337200	-9.939500	25.989361	0.000546	20.737752
2024.562849	-3.002000	3.335700	-10.013000	25.997109	0.000546	20.739846
2025.566508	-2.996600	3.336500	-9.996800	26.024705	0.000547	20.743391
2026.564885	-2.976100	3.337300	-9.931600	26.036477	0.000546	20.731984
2027.565719	-3.013100	3.335800	-10.050000	26.050734	0.000546	20.735403
2028.571448	-2.972700	3.337900	-9.920800	26.035235	0.000543	20.737848
2029.566478	-3.009300	3.335100	-10.036000	26.076912	0.000544	20.761232
2030.566927	-3.010200	3.334400	-10.035000	26.093030	0.000544	20.736174
2031.566069	-3.008000	3.334100	-10.028000	26.102568	0.000542	20.746707
2032.566387	-2.984700	3.334000	-9.949900	26.125391	0.000541	20.736922
2033.571172	-3.014500	3.333600	-10.048000	26.130184	0.000540	20.735100
2034.569735	-3.000600	3.335300	-10.006000	26.119902	0.000540	20.740890
2035.568318	-3.003500	3.333100	-10.009000	26.138825	0.000541	20.757534
2036.568627	-2.988100	3.332700	-9.958000	26.149579	0.000541	20.749374
2037.566298	-2.994100	3.333400	-9.980000	26.189190	0.000541	20.757408
2038.570438	-2.997100	3.332800	-9.987700	26.181666	0.000539	20.762176
2039.568565	-3.003300	3.332200	-10.007000	26.146002	0.000539	20.757633
2040.568985	-2.985700	3.331800	-9.947200	26.079215	0.000539	20.754537
2041.567011	-3.004900	3.332100	-10.011000	26.059271	0.000538	20.758680
2042.566600	-2.983200	3.331500	-9.937800	26.023357	0.000539	20.785185
2043.567216	-2.993400	3.331700	-9.971400	26.031032	0.000538	20.737418
2044.570198	-3.011500	3.329500	-10.025000	26.019258	0.000536	20.757833
2045.568692	-3.011300	3.330200	-10.028000	26.027926	0.000537	20.758007
2046.567743	-3.005000	3.330500	-10.007000	26.021344	0.000537	20.752816
2047.571243	-3.011700	3.331300	-10.032000	26.024425	0.000535	20.763972
2048.568740	-2.995700	3.330900	-9.977900	26.072163	0.000537	20.757882
2049.571747	-3.002000	3.328400	-9.991300	26.115154	0.000534	20.739912
2050.570750	-3.008300	3.329600	-10.015000	26.133583	0.000534	20.758905
2051.570395	-2.999000	3.328600	-9.981600	26.148309	0.000535	20.785082
2052.570279	-2.986200	3.328700	-9.939400	26.147567	0.000532	20.762999
2053.566989	-2.994100	3.328600	-9.964100	26.173817	0.000533	20.759978
2054.567226	-3.003400	3.327400	-9.990500	26.173046	0.000532	20.775325
2055.574718	-3.010400	3.327400	-10.016000	26.174686	0.000531	20.771758
2056.570888	-3.039600	3.326200	-10.109000	26.179578	0.000531	20.767190
2057.569632	-2.995100	3.326800	-9.962900	26.164130	0.000531	20.752141
2058.568824	-3.006400	3.325000	-9.995700	26.209477	0.000531	20.759302
2059.571503	-3.027900	3.325600	-10.069000	26.221472	0.000533	20.766141
2060.571293	-2.996400	3.325000	-9.962600	26.239699	0.000530	20.780190
2061.572771	-3.013100	3.325200	-10.018000	26.245389	0.000530	20.765519
2062.567441	-2.992000	3.324600	-9.946100	26.213700	0.000527	20.784883
2063.570459	-3.011000	3.324100	-10.008000	26.221423	0.000530	20.766565
2064.568376	-2.999100	3.324600	-9.969500	26.185339	0.000528	20.765393
2065.569165	-3.008900	3.323200	-9.998000	26.184173	0.000527	20.777971
2066.571934	-3.001200	3.322900	-9.971700	26.189563	0.000526	20.789078
2067.573725	-2.983700	3.324100	-9.916500	26.223015	0.000526	20.789028
2068.570715	-3.014500	3.323100	-10.016000	26.212212	0.000525	20.775801
2069.568637	-3.011400	3.322600	-10.005000	26.185714	0.000526	20.782365
2070.570173	-3.003000	3.322500	-9.976400	26.142551	0.000525	20.776451
2071.574161	-2.997300	3.322700	-9.957900	26.141458	0.000523	20.781043
2072.571396	-3.021000	3.320900	-10.032000	26.129612	0.000523	20.776252
2073.571255	-3.012100	3.322000	-10.005000	26.104354	0.000522	20.779796
2074.575151	-3.023200	3.320500	-10.038000	26.098170	0.000522	20.766944
2075.573799	-3.002600	3.320600	-9.969600	26.084584	0.000520	20.765147
2076.571967	-2.988300	3.320000	-9.920000	26.097003	0.000520	20.768617
2077.571868	-3.016500	3.320200	-10.015000	26.104752	0.000520	20.773083
2078.570160	-3.009600	3.319700	-9.989800	26.142527	0.000520	20.747503
2079.571649	-2.997500	3.318900	-9.946900	26.178637	0.000518	20.774779
2080.569849	-3.011900	3.318800	-9.994900	26.186063	0.000518	20.760430
2081.569263	-3.003000	3.319000	-9.966200	26.193391	0.000519	20.792451
2082.574556	-3.013500	3.318900	-10.001000	26.172752	0.000518	20.791151
2083.574423	-2.976100	3.318300	-9.874900	26.168505	0.000516	20.786410
2084.572949	-3.002100	3.317600	-9.959200	26.199772	0.000516	20.784163
2085.573704	-2.998500	3.317600	-9.946800	26.180948	0.000517	20.781844
2086.572046	-3.008300	3.317000	-9.976600	26.171633	0.000516	20.763948
2087.576645	-2.974100	3.317200	-9.864300	26.132643	0.000518	20.778823
2088.575372	-3.018100	3.316400	-10.009000	26.116226	0.000515	20.769913
2089.574148	-2.983500	3.317300	-9.895300	26.125241	0.000514	20.790826
2090.576119	-2.987300	3.316900	-9.907100	26.156408	0.000515	20.777573
2091.571993	-2.978000	3.317100	-9.877000	26.166220	0.000512	20.792648
2092.574867	-2.990000	3.314600	-9.909700	26.208364	0.000513	20.784737
2093.576919	-2.988700	3.315900	-9.908900	26.230343	0.000512	20.808720
2094.577575	-2.989700	3.315700	-9.912200	26.258131	0.000511	20.777376
2095.577370	-3.019000	3.312600	-9.999500	26.245615	0.000511	20.777600
2096.578203	-3.007100	3.313500	-9.963000	26.230664	0.000510	20.769214
2097.575594	-2.977300	3.314400	-9.866500	26.267169	0.000510	20.796415
2098.575436	-3.003800	3.313600	-9.952500	26.292673	0.000511	20.780794
2099.578893	-3.011400	3.312400	-9.974200	26.278469	0.000510	20.785486
2100.579387	-3.001000	3.311700	-9.937000	26.308167	0.000510	20.797788
2101.578565	-3.000300	3.311700	-9.935500	26.298979	0.000509	20.786183
2102.579032	-3.009000	3.312000	-9.965000	26.298012	0.000509	20.803229
2103.579441	-3.011000	3.310800	-9.967600	26.295305	0.000508	20.798612
2104.579997	-2.996000	3.310600	-9.916800	26.258803	0.000506	20.787059
2105.578743	-2.988200	3.312800	-9.897000	26.309856	0.000508	20.806124
2106.580569	-3.022000	3.310100	-10.002000	26.301017	0.000505	20.808620
2107.579078	-2.980000	3.311500	-9.868000	26.326419	0.000505	20.817079
2108.581240	-2.986000	3.310500	-9.884600	26.331038	0.000504	20.817927
2109.582674	-2.996000	3.310000	-9.915600	26.327786	0.000504	20.795694
2110.584088	-3.004900	3.309100	-9.943000	26.336948	0.000504	20.803953
2111.580770	-2.988900	3.309500	-9.891100	26.335235	0.000503	20.815033
2112.582092	-3.010000	3.306300	-9.950800	26.337346	0.000504	20.812887
2113.580962	-2.998300	3.307700	-9.915800	26.338115	0.000504	20.786159
2114.585463	-3.007600	3.309000	-9.951500	26.295156	0.000503	20.812687
2115.585771	-2.992800	3.308600	-9.901300	26.302829	0.000501	20.788630
2116.582629	-2.985700	3.307900	-9.875400	26.307796	0.000500	20.801682
2117.584950	-2.991800	3.307500	-9.894900	26.316264	0.000502	20.804502
2118.579983	-2.998700	3.306600	-9.914500	26.353413	0.000498	20.787784
2119.583087	-2.989200	3.307000	-9.882900	26.340351	0.000497	20.810692
2120.582498	-2.988900	3.306400	-9.881300	26.327116	0.000498	20.814461
2121.582067	-2.988100	3.305500	-9.876100	26.293444	0.000498	20.809544
2122.584035	-2.986300	3.305100	-9.868600	26.257760	0.000497	20.809719
2123.580538	-3.013200	3.306300	-9.961300	26.263496	0.000496	20.809320
2124.580854	-2.989500	3.305500	-9.880800	26.301789	0.000498	20.809396
2125.586119	-3.013400	3.303000	-9.952900	26.305316	0.000497	20.829061
2126.583315	-3.019800	3.302000	-9.971200	26.355649	0.000495	20.821325
2127.583124	-2.985800	3.305300	-9.868300	26.331763	0.000495	20.801113
2128.584629	-2.991300	3.304100	-9.883100	26.313760	0.000494	20.815737
2129.582785	-2.984400	3.304300	-9.860000	26.338021	0.000494	20.809773
2130.587005	-3.016300	3.303300	-9.963100	26.345743	0.000490	20.823223
2131.585206	-2.984100	3.301200	-9.850200	26.359948	0.000492	20.826119
2132.586832	-2.999200	3.303100	-9.905300	26.409758	0.000488	20.800316
2133.587254	-2.994000	3.301700	-9.883800	26.368615	0.000491	20.815390
2134.584455	-2.994600	3.301700	-9.886500	26.366854	0.000489	20.825000
2135.581897	-3.006200	3.301800	-9.924800	26.398090	0.000490	20.826522
2136.586283	-2.991100	3.301400	-9.874200	26.423118	0.000486	20.817538
2137.586969	-2.998300	3.300200	-9.894100	26.440052	0.000490	20.824126
2138.582894	-2.994900	3.300300	-9.882900	26.445987	0.000488	20.820608
2139.585863	-2.992300	3.298800	-9.869600	26.453584	0.000486	20.822555
2140.583147	-2.971600	3.299600	-9.803800	26.468904	0.000485	20.827995
2141.586360	-3.021000	3.299000	-9.965200	26.434963	0.000483	20.808106
2142.587277	-3.018100	3.298500	-9.952800	26.444399	0.000483	20.842246
2143.585287	-3.017000	3.298200	-9.950000	26.481294	0.000484	20.839975
2144.586250	-2.996800	3.299000	-9.885300	26.461630	0.000482	20.827322
2145.585145	-2.985800	3.298400	-9.847700	26.451601	0.000483	20.802544
2146.588219	-2.993300	3.298300	-9.871700	26.453165	0.000481	20.824504
2147.589231	-3.007500	3.296400	-9.912300	26.437747	0.000481	20.823232
2148.588113	-2.983000	3.298200	-9.836100	26.464636	0.000480	20.833189
2149.586865	-3.002600	3.296600	-9.897400	26.436434	0.000481	20.835662
2150.584984	-2.990100	3.296400	-9.854700	26.473625	0.000479	20.829896
2151.585975	-3.000000	3.295900	-9.886500	26.435441	0.000479	20.837035
2152.588246	-2.990800	3.295900	-9.856100	26.465807	0.000479	20.839581
2153.592378	-3.013000	3.295500	-9.928800	26.466255	0.000479	20.814428
2154.584895	-3.005100	3.295700	-9.903000	26.475939	0.000477	20.838386
2155.593039	-2.995300	3.295000	-9.868800	26.445548	0.000477	20.821590
2156.590335	-3.010800	3.293300	-9.914900	26.456649	0.000478	20.819471
2157.591627	-3.010000	3.293100	-9.912000	26.464047	0.000475	20.819795
2158.591015	-3.004000	3.295600	-9.898900	26.441926	0.000475	20.843079
2159.592531	-2.994000	3.293700	-9.860700	26.480857	0.000474	20.813932
2160.591343	-3.004100	3.293000	-9.891300	26.490142	0.000474	20.828954
2161.588648	-3.007800	3.292500	-9.901900	26.502482	0.000473	20.814806
2162.589259	-3.020500	3.291500	-9.940900	26.460175	0.000472	20.852412
2163.592836	-2.996400	3.291200	-9.861100	26.506703	0.000470	20.842281
2164.591515	-3.005200	3.289900	-9.886200	26.481951	0.000471	20.844902
2165.590472	-2.999200	3.292400	-9.873500	26.460325	0.000470	20.842606
2166.592363	-2.992900	3.291600	-9.850600	26.420896	0.000470	20.816727
2167.590428	-3.018200	3.290600	-9.930900	26.417795	0.000470	20.826412
2168.594750	-2.997500	3.291000	-9.863700	26.406671	0.000468	20.819973
2169.596776	-3.003500	3.289300	-9.878700	26.367316	0.000468	20.836843
2170.592306	-3.028900	3.288300	-9.958900	26.379881	0.000468	20.843781
2171.594866	-2.985700	3.288700	-9.817500	26.366846	0.000467	20.845853
2172.594133	-2.989000	3.288700	-9.828400	26.372035	0.000466	20.846327
2173.599963	-3.008600	3.287300	-9.888900	26.376654	0.000466	20.834849
2174.595030	-3.017600	3.287400	-9.917700	26.374097	0.000466	20.845555
2175.594545	-3.001300	3.287900	-9.867600	26.367319	0.000467	20.832105
2176.593009	-2.979600	3.288600	-9.797400	26.383980	0.000463	20.841737
2177.594931	-2.984000	3.287700	-9.809400	26.393291	0.000466	20.846354
2178.594007	-2.988100	3.285800	-9.818200	26.417153	0.000464	20.860853
2179.596816	-2.980400	3.287500	-9.797200	26.440269	0.000462	20.848525
2180.600755	-3.007300	3.285700	-9.880200	26.437140	0.000463	20.844907
2181.595336	-3.017100	3.285300	-9.911500	26.450497	0.000460	20.854064
2182.595790	-2.988600	3.286100	-9.817900	26.468425	0.000462	20.851695
2183.595862	-2.979600	3.285400	-9.788200	26.471702	0.000460	20.854989
2184.597739	-2.999800	3.284400	-9.851000	26.446651	0.000460	20.856836
2185.597754	-3.021100	3.283800	-9.919900	26.411889	0.000460	20.862201
2186.599304	-2.997800	3.284100	-9.843900	26.403969	0.000459	20.844757
2187.598845	-3.015600	3.284300	-9.903200	26.415913	0.000458	20.834477
2188.597322	-2.990400	3.282800	-9.816400	26.406030	0.000459	20.871484
2189.599385	-2.996000	3.283600	-9.836000	26.401611	0.000456	20.856612
2190.601046	-2.997200	3.282800	-9.838400	26.434486	0.000457	20.842239
2191.601190	-3.008300	3.283900	-9.877600	26.441164	0.000454	20.863175
2192.599447	-3.014000	3.282800	-9.893600	26.444293	0.000453	20.870587
2193.599826	-3.002300	3.282200	-9.853200	26.458173	0.000456	20.858460
2194.597594	-3.013700	3.282300	-9.890500	26.483697	0.000455	20.862303
2195.600223	-3.017800	3.279100	-9.894900	26.470787	0.000455	20.854069
2196.602743	-3.015900	3.279800	-9.891000	26.469274	0.000452	20.859660
2197.601536	-3.008800	3.279700	-9.867200	26.449014	0.000454	20.846884
2198.601829	-2.993600	3.281200	-9.821500	26.478907	0.000452	20.839946
2199.597947	-2.998700	3.279900	-9.834300	26.481836	0.000453	20.844787
2200.599231	-3.008400	3.278400	-9.861900	26.527222	0.000451	20.854370
2201.599637	-2.999300	3.278400	-9.831900	26.530400	0.000451	20.839548
2202.603839	-2.997400	3.277800	-9.824000	26.550708	0.000448	20.820607
2203.601972	-3.002800	3.277800	-9.840500	26.565779	0.000448	20.830067
2204.599957	-2.999500	3.278300	-9.833100	26.586757	0.000450	20.834085
2205.599487	-3.019200	3.276600	-9.892200	26.610541	0.000450	20.832863
2206.601002	-2.991700	3.278000	-9.805600	26.660390	0.000447	20.841724
2207.605362	-3.007400	3.277000	-9.852500	26.673446	0.000448	20.842522
2208.600236	-2.978300	3.278200	-9.761600	26.695192	0.000447	20.835461
2209.603384	-3.000000	3.274800	-9.823400	26.704551	0.000446	20.826852
2210.603392	-3.002800	3.276300	-9.835800	26.683230	0.000447	20.848564
2211.605819	-2.991300	3.274700	-9.795200	26.683553	0.000445	20.852208
2212.605633	-2.996900	3.274900	-9.813600	26.687526	0.000445	20.835340
2213.603225	-3.021400	3.274600	-9.892900	26.693807	0.000444	20.829801
2214.603825	-2.982000	3.275500	-9.766400	26.706416	0.000443	20.825882
2215.606021	-2.978200	3.274000	-9.749200	26.696414	0.000442	20.829577
2216.605150	-2.986000	3.273500	-9.773600	26.734269	0.000442	20.810263
2217.605414	-2.999000	3.273400	-9.816400	26.740921	0.000441	20.833072
2218.603297	-2.985600	3.273200	-9.771700	26.745713	0.000440	20.838837
2219.607335	-2.995400	3.273500	-9.803700	26.763041	0.000440	20.818801
2220.604256	-3.009300	3.271600	-9.843900	26.727447	0.000439	20.819525
2221.606173	-2.999100	3.272900	-9.815100	26.747629	0.000439	20.808522
2222.607361	-3.012400	3.271300	-9.853400	26.763664	0.000439	20.813263
2223.606053	-3.022200	3.270300	-9.883000	26.766197	0.000437	20.817706
2224.606419	-3.003400	3.270700	-9.822200	26.748327	0.000438	20.827241
2225.604426	-3.006800	3.270100	-9.831400	26.726238	0.000437	20.830163
2226.605098	-3.017200	3.270000	-9.864400	26.728471	0.000438	20.818184
2227.605227	-3.021700	3.268800	-9.875800	26.674136	0.000436	20.801491
2228.609576	-2.980100	3.269500	-9.742400	26.636504	0.000436	20.797324
2229.608204	-2.996700	3.268400	-9.793200	26.583926	0.000436	20.807532
2230.610994	-3.020900	3.268800	-9.873800	26.566698	0.000436	20.805861
2231.605567	-2.975800	3.270500	-9.731800	26.537950	0.000432	20.796404
2232.608080	-2.999800	3.268500	-9.804200	26.507860	0.000432	20.806461
2233.607461	-2.999000	3.267800	-9.798600	26.496217	0.000433	20.805189
2234.607559	-2.994500	3.267500	-9.783600	26.496788	0.000432	20.801495
2235.605940	-3.022500	3.266300	-9.871200	26.506969	0.000433	20.793237
2236.610497	-2.993000	3.267700	-9.779800	26.526483	0.000432	20.795308
2237.607793	-3.007700	3.266500	-9.823500	26.572637	0.000431	20.798080
2238.612121	-3.003500	3.266400	-9.809400	26.607863	0.000428	20.801248
2239.609622	-3.008200	3.265500	-9.822400	26.646218	0.000429	20.793813
2240.609150	-3.013000	3.265300	-9.837000	26.641974	0.000428	20.810884
2241.611311	-2.998800	3.265500	-9.791300	26.640981	0.000429	20.799929
2242.610546	-3.017500	3.263100	-9.845200	26.638127	0.000428	20.800378
2243.608739	-3.002600	3.264900	-9.802100	26.672907	0.000427	20.814480
2244.613345	-3.014400	3.263100	-9.835000	26.677500	0.000426	20.787329
2245.609290	-3.012400	3.264000	-9.831600	26.645253	0.000425	20.798058
2246.611257	-2.983200	3.263900	-9.735900	26.621150	0.000423	20.793743
2247.610914	-3.050900	3.260500	-9.945300	26.571848	0.000424	20.804874
2248.608584	-3.009800	3.262900	-9.819300	26.574480	0.000425	20.789502
2249.614752	-2.996000	3.260700	-9.767600	26.562167	0.000423	20.787082
2250.614384	-3.018200	3.258900	-9.834200	26.561646	0.000425	20.805050
2251.609834	-2.998400	3.260600	-9.775700	26.584462	0.000422	20.796217
2252.612740	-3.008800	3.260700	-9.810000	26.642156	0.000420	20.795419
2253.610812	-3.003000	3.261200	-9.791900	26.635033	0.000422	20.784940
2254.612891	-3.009700	3.259600	-9.808700	26.677505	0.000421	20.786385
2255.614347	-3.036900	3.258200	-9.893200	26.705109	0.000421	20.800860
2256.612846	-3.005400	3.258900	-9.793400	26.709777	0.000419	20.787536
2257.615516	-2.980700	3.258300	-9.711500	26.677457	0.000419	20.791553
2258.612930	-2.996300	3.260000	-9.766200	26.647496	0.000417	20.802684
2259.610863	-3.003600	3.258600	-9.786100	26.669737	0.000418	20.784741
2260.613360	-2.986300	3.259400	-9.733100	26.660603	0.000417	20.799265
2261.613223	-2.987200	3.258000	-9.731600	26.696547	0.000416	20.779924
2262.611624	-2.983900	3.258600	-9.722200	26.710771	0.000417	20.777630
2263.615192	-2.984600	3.256000	-9.717400	26.714221	0.000414	20.780624
2264.612347	-2.981700	3.257300	-9.711700	26.748824	0.000414	20.794550
2265.616522	-3.000100	3.255600	-9.765700	26.740586	0.000415	20.795751
2266.617245	-3.008300	3.253800	-9.787200	26.725296	0.000410	20.766154
2267.614452	-2.990300	3.255300	-9.732500	26.695907	0.000412	20.779755
2268.617064	-3.019700	3.254400	-9.826200	26.682330	0.000411	20.768002
2269.617033	-3.007600	3.252700	-9.781200	26.682058	0.000411	20.785273
2270.620392	-2.987100	3.253500	-9.715800	26.668355	0.000411	20.779084
2271.622187	-2.999700	3.253700	-9.758400	26.676152	0.000412	20.776965
2272.619977	-2.975100	3.254800	-9.682100	26.672503	0.000409	20.782305
2273.616772	-2.994800	3.252500	-9.739200	26.659795	0.000408	20.773323
2274.617729	-2.999400	3.252100	-9.754400	26.660542	0.000406	20.776445
2275.617804	-2.987400	3.253000	-9.717300	26.656993	0.000407	20.788050
2276.623678	-2.985500	3.250600	-9.703800	26.685514	0.000407	20.760298
2277.624032	-2.999400	3.250500	-9.748900	26.681397	0.000405	20.772280
2278.620202	-3.014800	3.250000	-9.796400	26.706445	0.000407	20.763322
2279.624511	-3.018500	3.249000	-9.805400	26.757254	0.000405	20.765567
2280.622655	-2.978300	3.250600	-9.680700	26.750577	0.000405	20.761225
2281.623919	-3.015200	3.247800	-9.790400	26.748219	0.000404	20.775924
2282.624762	-2.987300	3.248900	-9.704700	26.800396	0.000403	20.758682
2283.623586	-2.987700	3.248700	-9.705800	26.796598	0.000402	20.759605
2284.624568	-3.007100	3.248400	-9.766700	26.840777	0.000403	20.731004
2285.621000	-2.992300	3.246700	-9.713700	26.837279	0.000401	20.770637
2286.626195	-2.988800	3.247700	-9.706000	26.865499	0.000401	20.758708
2287.625173	-2.990500	3.248300	-9.713200	26.864929	0.000399	20.751496
2288.623109	-3.003800	3.246700	-9.751600	26.881608	0.000398	20.725118
2289.624146	-3.021000	3.245300	-9.802700	26.915807	0.000399	20.761878
2290.623164	-3.008800	3.245900	-9.765600	26.883371	0.000396	20.770989
2291.623717	-2.985800	3.245400	-9.689100	26.875676	0.000397	20.783166
2292.627128	-3.002600	3.244400	-9.740500	26.849816	0.000398	20.755267
2293.625241	-2.976800	3.244500	-9.656000	26.828348	0.000398	20.761182
2294.625583	-3.010300	3.243700	-9.764000	26.805117	0.000395	20.756316
2295.627780	-2.994800	3.243200	-9.711600	26.807202	0.000393	20.751775
2296.625610	-2.994300	3.243600	-9.711900	26.787945	0.000395	20.762285
2297.628246	-2.977300	3.244300	-9.658000	26.773968	0.000394	20.757241
2298.630069	-2.995400	3.241400	-9.708600	26.759200	0.000393	20.768946
2299.630379	-2.971500	3.241500	-9.631000	26.794620	0.000391	20.759039
2300.628542	-2.984700	3.242400	-9.676900	26.823662	0.000392	20.765480
2301.626543	-3.001700	3.240000	-9.724600	26.836393	0.000392	20.760262
2302.626174	-2.990700	3.241100	-9.692000	26.889310	0.000391	20.750882
2303.627487	-2.990700	3.239900	-9.687900	26.880303	0.000388	20.756998
2304.629840	-3.014700	3.237900	-9.760300	26.871267	0.000388	20.752180
2305.626573	-2.990200	3.241100	-9.690600	26.827910	0.000389	20.743197
2306.632187	-2.989900	3.240700	-9.688600	26.816963	0.000388	20.748312
2307.629952	-3.021400	3.237800	-9.781400	26.845955	0.000388	20.756126
2308.634397	-2.978100	3.239300	-9.644300	26.869162	0.000386	20.761443
2309.628692	-2.995400	3.237700	-9.696800	26.852484	0.000385	20.757476
2310.626907	-3.008200	3.237400	-9.737700	26.873307	0.000384	20.740006
2311.628573	-2.970800	3.237900	-9.617300	26.886885	0.000383	20.749392
2312.629301	-3.006700	3.236400	-9.729600	26.879068	0.000383	20.743902
2313.630098	-2.992900	3.234700	-9.680400	26.880409	0.000384	20.746199
2314.631762	-2.997500	3.235400	-9.697600	26.872493	0.000383	20.752464
2315.628845	-3.013900	3.235800	-9.751500	26.896270	0.000382	20.735594
2316.633011	-3.003200	3.234400	-9.711900	26.850356	0.000382	20.745378
2317.629994	-3.019400	3.234500	-9.764700	26.851598	0.000382	20.729556
2318.631341	-3.007100	3.234000	-9.724400	26.852565	0.000382	20.736220
2319.632860	-3.017400	3.232000	-9.751500	26.895677	0.000381	20.740214
2320.635303	-2.983300	3.233800	-9.646000	26.862346	0.000381	20.741313
2321.631215	-2.997300	3.232300	-9.687300	26.881705	0.000379	20.738967
2322.631867	-3.021900	3.232400	-9.766800	26.901734	0.000377	20.751521
2323.631367	-2.997900	3.230000	-9.681600	26.891385	0.000377	20.719302
2324.631626	-3.006500	3.231800	-9.714800	26.903845	0.000378	20.730409
2325.632686	-3.001000	3.231200	-9.695100	26.920748	0.000376	20.749303
2326.633386	-2.984300	3.229900	-9.637700	26.892478	0.000375	20.744110
2327.631471	-3.018600	3.229800	-9.749000	26.860513	0.000373	20.718606
2328.633130	-3.001200	3.230100	-9.692200	26.839095	0.000374	20.740693
2329.631898	-2.999100	3.230200	-9.685300	26.843563	0.000372	20.735229
2330.631679	-2.986700	3.228500	-9.640700	26.872851	0.000373	20.743341
2331.635893	-2.978500	3.228300	-9.613800	26.879480	0.000372	20.728668
2332.631783	-2.990200	3.226800	-9.647300	26.902112	0.000372	20.739573
2333.635719	-3.005900	3.228000	-9.701900	26.910476	0.000372	20.730913
2334.635045	-3.010200	3.227300	-9.713800	26.905763	0.000371	20.729018
2335.636576	-2.995000	3.225800	-9.660600	26.946986	0.000369	20.736332
2336.636730	-2.996900	3.225800	-9.666400	26.966541	0.000369	20.726598
2337.634512	-3.026700	3.225400	-9.762200	26.983293	0.000371	20.714993
2338.635699	-2.994200	3.222900	-9.648100	26.997685	0.000369	20.746064
2339.636165	-2.999700	3.225700	-9.674900	27.018332	0.000367	20.734584
2340.638456	-2.975800	3.225000	-9.596200	27.030988	0.000368	20.740674
2341.641811	-2.982000	3.222700	-9.608800	27.012700	0.000365	20.749784
2342.641975	-2.987600	3.223700	-9.629700	27.005305	0.000366	20.745192
2343.638583	-2.969700	3.223900	-9.573200	27.015902	0.000364	20.743521
2344.639831	-2.976700	3.222000	-9.590300	27.016499	0.000365	20.724680
2345.638757	-3.012800	3.221500	-9.705000	27.039748	0.000365	20.730517
2346.640343	-2.972700	3.222000	-9.577300	27.048311	0.000364	20.741025
2347.641979	-3.003800	3.220800	-9.673500	27.062258	0.000362	20.710005
2348.640787	-3.012100	3.220200	-9.698400	27.048832	0.000361	20.726376
2349.647016	-2.990500	3.219600	-9.627900	26.982201	0.000362	20.720534
2350.641390	-2.996400	3.221300	-9.651400	26.938426	0.000361	20.716343
2351.645424	-3.011500	3.219500	-9.694800	26.892440	0.000361	20.760193
2352.644479	-3.001200	3.219600	-9.662200	26.916363	0.000359	20.725452
2353.644617	-2.994100	3.219200	-9.637300	26.940808	0.000360	20.751931
2354.642920	-3.001900	3.218900	-9.662100	26.969274	0.000358	20.721760
2355.642713	-3.020200	3.217700	-9.717200	27.005406	0.000357	20.730119
2356.640747	-3.008400	3.216600	-9.675700	27.024166	0.000359	20.736184
2357.643588	-3.011000	3.216100	-9.682400	27.013246	0.000358	20.721882
2358.645257	-2.984300	3.216400	-9.597800	26.982228	0.000356	20.732890
2359.642112	-2.995100	3.215100	-9.629000	26.985553	0.000355	20.723431
2360.642713	-3.000500	3.215400	-9.647000	26.959348	0.000355	20.727899
2361.644463	-3.004800	3.214300	-9.657700	26.961405	0.000356	20.710527
2362.647163	-2.980000	3.213800	-9.576500	26.976345	0.000354	20.724129
2363.644086	-3.023000	3.212200	-9.709900	26.979745	0.000353	20.718064
2364.644179	-3.002400	3.214300	-9.649400	26.942645	0.000354	20.726276
2365.644903	-2.982600	3.212600	-9.580500	26.964459	0.000354	20.715968
2366.645252	-2.995200	3.211000	-9.616500	27.009575	0.000354	20.716293
2367.647605	-3.003700	3.212100	-9.647000	27.019524	0.000353	20.738154
2368.647150	-2.993500	3.211700	-9.612900	26.996544	0.000351	20.720733
2369.648858	-2.997000	3.212200	-9.625400	26.988479	0.000351	20.716416
2370.648248	-3.017500	3.208700	-9.681200	26.983591	0.000350	20.733313
2371.648555	-3.000900	3.209800	-9.631700	26.918494	0.000350	20.719060
2372.647839	-2.995600	3.208600	-9.610600	26.887969	0.000350	20.723454
2373.652559	-3.004700	3.209000	-9.641000	26.887274	0.000349	20.739351
2374.648898	-2.992000	3.208400	-9.598900	26.932393	0.000348	20.727821
2375.648269	-2.964900	3.209500	-9.514400	26.914526	0.000348	20.743521
2376.646767	-3.000600	3.209100	-9.628500	26.937282	0.000347	20.722305
2377.649292	-3.000800	3.208500	-9.627300	26.907252	0.000347	20.707754
2378.649522	-3.026600	3.205000	-9.699000	26.935869	0.000348	20.714720
2379.651339	-2.994400	3.206600	-9.601500	26.909585	0.000347	20.711997
2380.647266	-2.974700	3.206900	-9.539300	26.911421	0.000344	20.705783
2381.651197	-2.985400	3.205400	-9.567900	26.882336	0.000347	20.715418
2382.647695	-2.988100	3.205000	-9.575600	26.905141	0.000345	20.719384
2383.649158	-3.016600	3.205400	-9.668200	26.909708	0.000344	20.717338
2384.651635	-2.997700	3.204200	-9.603500	26.959044	0.000344	20.718584
2385.652562	-3.000400	3.204200	-9.612500	26.988352	0.000344	20.712969
2386.650863	-3.009200	3.203500	-9.638800	27.013514	0.000342	20.723101
2387.652958	-2.996600	3.202300	-9.595100	27.024408	0.000342	20.716038
2388.651223	-3.012600	3.201900	-9.646100	27.004952	0.000342	20.716386
2389.656213	-3.019200	3.199500	-9.658700	26.966364	0.000341	20.723575
2390.656496	-3.006300	3.202100	-9.625000	26.940455	0.000342	20.708426
2391.653381	-2.988300	3.199800	-9.560800	26.901316	0.000339	20.704156
2392.660735	-3.007800	3.199800	-9.623600	26.878630	0.000338	20.710743
2393.653682	-2.981600	3.199400	-9.538200	26.876619	0.000339	20.723894
2394.652330	-2.988600	3.199200	-9.559800	26.874610	0.000338	20.710495
2395.655331	-2.992700	3.198700	-9.570700	26.880218	0.000338	20.712340
2396.655230	-3.012000	3.198100	-9.631600	26.888335	0.000336	20.703906
2397.654168	-3.004400	3.198900	-9.608600	26.933972	0.000336	20.720399
2398.656529	-2.958500	3.198100	-9.461300	26.944024	0.000337	20.709644
2399.654755	-2.993400	3.197800	-9.569700	26.966037	0.000336	20.714237
2400.658250	-3.025500	3.197300	-9.672600	26.998197	0.000336	20.733776
2401.658257	-3.002300	3.196800	-9.596000	27.052964	0.000338	20.714409
2402.655018	-3.004000	3.194800	-9.596300	27.062068	0.000334	20.725463
2403.658034	-3.006200	3.194000	-9.601300	27.113931	0.000334	20.713610
2404.655687	-3.009600	3.194200	-9.610900	27.099462	0.000335	20.724663
2405.657638	-2.991200	3.195000	-9.555600	27.091298	0.000334	20.712658
2406.658859	-2.977300	3.194800	-9.510900	27.096137	0.000333	20.704723
2407.656942	-3.017100	3.191900	-9.629400	27.114100	0.000335	20.714729
2408.655752	-3.011400	3.192100	-9.612300	27.105268	0.000334	20.724813
2409.655017	-2.993600	3.191300	-9.552600	27.092685	0.000334	20.712157
2410.654492	-2.982500	3.191000	-9.516300	27.123554	0.000331	20.723289
2411.658216	-2.984000	3.191400	-9.521500	27.131616	0.000331	20.727604
2412.661070	-3.006000	3.189800	-9.587400	27.153129	0.000330	20.710834
2413.655694	-3.011700	3.188900	-9.603300	27.164965	0.000329	20.718945
2414.657934	-2.998900	3.189100	-9.563200	27.129259	0.000329	20.738985
2415.658082	-2.990400	3.189500	-9.536400	27.117074	0.000329	20.714874
2416.657786	-3.023800	3.187000	-9.636000	27.134692	0.000328	20.733069
2417.658399	-3.026100	3.187200	-9.644400	27.142705	0.000327	20.715523
2418.655292	-3.006500	3.186600	-9.579500	27.151913	0.000327	20.698230
2419.658265	-3.012400	3.185200	-9.593600	27.185185	0.000326	20.735015
2420.655047	-2.997600	3.186500	-9.551000	27.194712	0.000326	20.712354
2421.656712	-2.985300	3.185100	-9.507300	27.203047	0.000326	20.731171
2422.660121	-2.998100	3.185000	-9.547500	27.253164	0.000324	20.735113
2423.656547	-3.020200	3.184100	-9.615000	27.265992	0.000325	20.707712
2424.659017	-3.000400	3.183800	-9.552200	27.263437	0.000326	20.716048
2425.656505	-3.019900	3.183800	-9.613200	27.284425	0.000325	20.712503
2426.656925	-3.032600	3.181600	-9.647100	27.304694	0.000324	20.734316
2427.662117	-2.996900	3.183600	-9.539200	27.311194	0.000324	20.715249
2428.660984	-3.012100	3.181400	-9.581700	27.329154	0.000323	20.720039
2429.659453	-2.997200	3.180500	-9.531600	27.343419	0.000323	20.717320
2430.660540	-3.004600	3.182000	-9.559700	27.310673	0.000324	20.729899
2431.659536	-3.014800	3.182700	-9.593900	27.247682	0.000325	20.708735
2432.663019	-2.986400	3.180700	-9.496900	27.231356	0.000323	20.720763
2433.661811	-2.990600	3.180200	-9.509600	27.230685	0.000322	20.716295
2434.662553	-3.006500	3.180900	-9.562400	27.245796	0.000323	20.712054
2435.664082	-3.019900	3.177600	-9.595300	27.283682	0.000322	20.718394
2436.659097	-2.968500	3.179000	-9.435900	27.331042	0.000323	20.722887
2437.660048	-3.001200	3.175100	-9.528500	27.340319	0.000322	20.727478
2438.661412	-3.003900	3.176200	-9.539600	27.367931	0.000322	20.729650
2439.663642	-3.021500	3.176000	-9.594800	27.351831	0.000321	20.722463
2440.659410	-2.993500	3.174800	-9.502900	27.359076	0.000321	20.721690
2441.662823	-3.008600	3.174400	-9.549600	27.356248	0.000320	20.722165
2442.661321	-2.977900	3.173700	-9.449700	27.336353	0.000319	20.729178
2443.663131	-2.995400	3.173900	-9.506300	27.323774	0.000319	20.754933
2444.664835	-3.004800	3.172300	-9.531100	27.336328	0.000317	20.718247
2445.661063	-3.007900	3.171200	-9.537000	27.329680	0.000317	20.750441
2446.662575	-2.980700	3.171400	-9.452000	27.363170	0.000316	20.720119
2447.661630	-2.992800	3.172500	-9.493000	27.390260	0.000314	20.726034
2448.665627	-2.985000	3.170900	-9.464800	27.397058	0.000318	20.722442
2449.666574	-2.997100	3.170900	-9.502500	27.414548	0.000315	20.730554
2450.666180	-3.025400	3.168900	-9.586000	27.393909	0.000316	20.728757
2451.665246	-2.995200	3.168500	-9.489800	27.408174	0.000316	20.731254
2452.666448	-2.996700	3.169000	-9.495000	27.406538	0.000313	20.739091
2453.666061	-3.027000	3.166700	-9.584400	27.400312	0.000315	20.720025
2454.670146	-2.988400	3.167700	-9.464700	27.359927	0.000314	20.731556
2455.668973	-2.993500	3.168300	-9.483400	27.290562	0.000314	20.737170
2456.667868	-2.980400	3.167500	-9.440200	27.250471	0.000314	20.731931
2457.670197	-2.987000	3.164400	-9.450700	27.251488	0.000315	20.728686
2458.667571	-2.969900	3.164900	-9.397900	27.263621	0.000314	20.733303
2459.668879	-3.003700	3.164400	-9.504400	27.258833	0.000312	20.723745
2460.671017	-3.007700	3.163500	-9.512600	27.220080	0.000312	20.739768
2461.670185	-2.995500	3.163400	-9.474400	27.245138	0.000310	20.728462
2462.667083	-2.995800	3.162300	-9.472100	27.225886	0.000310	20.736600
2463.669669	-3.007800	3.160700	-9.505300	27.216261	0.000311	20.715063
2464.669014	-3.006000	3.160600	-9.499000	27.215168	0.000311	20.747630
2465.672028	-2.999300	3.159600	-9.475500	27.182543	0.000309	20.737575
2466.673003	-2.990200	3.159500	-9.446300	27.124310	0.000312	20.740645
2467.671530	-3.014600	3.158600	-9.520000	27.107338	0.000310	20.739697
2468.672302	-2.997000	3.158100	-9.463800	27.120662	0.000310	20.733657
2469.671231	-2.999500	3.157900	-9.470900	27.150908	0.000309	20.720929
2470.673747	-3.035200	3.157300	-9.581900	27.165300	0.000308	20.738250
2471.673563	-3.011100	3.155100	-9.499000	27.226708	0.000307	20.759712
2472.673067	-3.002300	3.155700	-9.473200	27.269034	0.000308	20.757241
2473.676301	-2.993100	3.155700	-9.444400	27.277445	0.000305	20.730139
2474.672957	-2.988100	3.154800	-9.425600	27.251988	0.000307	20.739146
2475.672160	-2.986100	3.154100	-9.417000	27.214997	0.000307	20.748406
2476.676953	-3.022500	3.152600	-9.526900	27.222415	0.000305	20.742592
2477.673315	-2.978400	3.154200	-9.392300	27.229637	0.000306	20.740372
2478.674178	-3.011500	3.152400	-9.492500	27.237004	0.000303	20.747783
2479.676778	-3.001200	3.153100	-9.462100	27.277865	0.000304	20.758064
2480.673532	-3.030300	3.151200	-9.547800	27.282156	0.000304	20.732508
2481.676777	-2.957700	3.152600	-9.323200	27.296347	0.000304	20.751525
2482.677921	-2.989200	3.150500	-9.416600	27.311283	0.000304	20.752324
2483.673130	-3.018700	3.148500	-9.503000	27.319915	0.000303	20.742990
2484.674471	-3.016200	3.146200	-9.488300	27.337279	0.000302	20.759983
2485.674341	-2.989000	3.148100	-9.407700	27.359978	0.000303	20.742039
2486.674624	-2.989900	3.148600	-9.413600	27.373375	0.000303	20.731808
2487.677656	-3.027500	3.144100	-9.517500	27.390417	0.000301	20.739944
2488.677730	-3.007700	3.144600	-9.457700	27.394783	0.000303	20.743387
2489.675223	-3.033200	3.143600	-9.534200	27.405697	0.000300	20.734927
2490.674458	-2.996900	3.143900	-9.420400	27.400688	0.000301	20.735577
2491.674880	-2.991200	3.142900	-9.399300	27.412047	0.000303	20.737996
2492.677324	-3.014000	3.143700	-9.473700	27.409343	0.000302	20.755664
2493.677951	-2.994000	3.143000	-9.409200	27.438961	0.000299	20.748003
2494.675056	-2.989400	3.141400	-9.389900	27.469151	0.000301	20.741865
2495.679322	-3.030300	3.138500	-9.509500	27.505438	0.000300	20.753244
2496.675286	-2.998400	3.139700	-9.413100	27.552392	0.000299	20.756863
2497.678563	-2.990000	3.139300	-9.384800	27.558246	0.000298	20.757064
2498.679564	-2.995400	3.138000	-9.398700	27.560029	0.000297	20.772608
2499.677077	-2.967700	3.138500	-9.313200	27.571065	0.000297	20.760479
2500.679483	-3.025200	3.135900	-9.483800	27.573796	0.000296	20.758010
2501.677474	-3.013100	3.135000	-9.445000	27.563453	0.000298	20.745707
2502.674963	-2.993700	3.135100	-9.384600	27.545745	0.000296	20.761555
2503.681174	-2.995600	3.134500	-9.389100	27.526695	0.000298	20.767518
2504.678520	-2.991500	3.134500	-9.375800	27.499163	0.000295	20.752620
2505.678865	-2.959700	3.134300	-9.275300	27.523842	0.000295	20.753269
2506.676567	-2.982100	3.132700	-9.340400	27.537684	0.000296	20.756289
2507.676379	-3.020300	3.131400	-9.456500	27.494103	0.000296	20.742787
2508.678748	-2.991800	3.131400	-9.368600	27.489167	0.000296	20.764849
2509.681038	-3.008600	3.128700	-9.411800	27.522356	0.000296	20.759360
2510.676739	-3.023900	3.128000	-9.457600	27.491474	0.000296	20.765274
2511.680574	-2.992300	3.127900	-9.357500	27.456673	0.000293	20.765348
2512.678548	-2.985100	3.128400	-9.337900	27.466893	0.000294	20.755242
2513.678734	-2.989000	3.126600	-9.343800	27.446405	0.000293	20.751699
2514.678257	-2.961300	3.127300	-9.258700	27.443254	0.000293	20.751374
2515.678099	-3.002300	3.124200	-9.378500	27.481454	0.000293	20.768469
2516.681748	-2.982600	3.125200	-9.320200	27.466494	0.000293	20.752469
2517.677321	-3.003100	3.123900	-9.380500	27.463298	0.000293	20.755892
2518.678714	-3.006900	3.120800	-9.382300	27.440154	0.000293	20.759635
2519.683701	-3.017200	3.121500	-9.416900	27.397613	0.000293	20.758563
2520.680491	-2.989500	3.121100	-9.329700	27.395826	0.000293	20.777155
2521.680721	-3.002600	3.119700	-9.365900	27.421872	0.000292	20.781546
2522.682465	-2.997600	3.118400	-9.346700	27.432787	0.000291	20.769293
2523.681000	-3.029700	3.117400	-9.444200	27.441817	0.000292	20.799715
2524.685368	-2.993500	3.118000	-9.333100	27.468161	0.000292	20.769319
2525.683698	-2.979400	3.117200	-9.286700	27.506310	0.000292	20.774984
2526.679710	-2.981300	3.117000	-9.291700	27.521069	0.000294	20.748582
2527.684274	-3.009700	3.115100	-9.374200	27.543863	0.000291	20.784793
2528.680626	-2.989000	3.114600	-9.308400	27.579308	0.000291	20.784894
2529.686203	-3.014100	3.113600	-9.383200	27.609068	0.000290	20.765526
2530.686435	-3.001300	3.112600	-9.341400	27.626355	0.000291	20.790033
2531.684014	-3.002400	3.112600	-9.344500	27.646819	0.000292	20.771743
2532.682636	-2.999000	3.111500	-9.331200	27.629779	0.000290	20.790633
2533.682951	-3.001800	3.109900	-9.333700	27.614500	0.000291	20.771941
2534.684487	-3.019000	3.107800	-9.381100	27.598454	0.000291	20.764803
2535.685874	-3.001500	3.108400	-9.328700	27.600017	0.000291	20.767799
2536.685456	-2.996400	3.107600	-9.310700	27.593223	0.000290	20.796050
2537.685787	-3.004500	3.106200	-9.331000	27.614004	0.000287	20.786615
2538.687216	-2.992300	3.105700	-9.291600	27.595007	0.000292	20.780776
2539.687309	-3.015800	3.104200	-9.360700	27.551726	0.000289	20.769470
2540.688530	-3.018300	3.101300	-9.360000	27.523428	0.000289	20.796474
2541.694449	-2.988700	3.103200	-9.273100	27.506684	0.000287	20.779154
2542.689066	-2.989000	3.101900	-9.270200	27.533645	0.000288	20.787314
2543.690989	-2.982700	3.100800	-9.247400	27.555299	0.000289	20.772591
2544.687927	-2.992200	3.099500	-9.273900	27.557284	0.000286	20.792132
2545.691797	-3.016900	3.099300	-9.348800	27.611105	0.000286	20.791758
2546.689424	-2.984400	3.099800	-9.250000	27.642454	0.000290	20.804336
2547.689645	-3.004700	3.097000	-9.304800	27.615519	0.000288	20.789561
2548.691553	-2.995900	3.097500	-9.278900	27.632806	0.000287	20.780403
2549.689870	-3.025600	3.094200	-9.360900	27.662169	0.000286	20.792406
2550.693977	-2.994600	3.095500	-9.268400	27.668145	0.000286	20.807902
2551.693818	-3.024700	3.093400	-9.356100	27.613411	0.000286	20.787440
2552.694959	-3.015800	3.092900	-9.326600	27.606664	0.000286	20.795824
2553.695354	-2.987000	3.092500	-9.236400	27.557408	0.000287	20.784670
2554.693737	-3.013100	3.089400	-9.307500	27.528511	0.000287	20.793528
2555.696181	-2.983000	3.089600	-9.215200	27.527097	0.000286	20.796847
2556.699435	-2.980100	3.089700	-9.206100	27.542824	0.000284	20.789911
2557.697155	-3.005600	3.088800	-9.282700	27.575315	0.000287	20.795102
2558.695576	-3.022400	3.087300	-9.329900	27.596297	0.000286	20.793928
2559.698434	-3.018200	3.084600	-9.309300	27.664846	0.000286	20.807902
2560.695602	-3.013700	3.084600	-9.295300	27.681464	0.000286	20.805183
2561.695812	-3.004200	3.083400	-9.261000	27.682680	0.000286	20.789337
2562.698253	-2.995600	3.082100	-9.232100	27.657134	0.000285	20.817211
2563.698474	-3.008200	3.081700	-9.269300	27.619138	0.000288	20.801264
2564.702348	-3.007700	3.080200	-9.263600	27.585261	0.000286	20.801315
2565.697116	-3.007700	3.078800	-9.258400	27.573107	0.000286	20.801889
2566.695827	-3.000300	3.078800	-9.236100	27.578838	0.000286	20.810974
2567.695024	-2.990100	3.077600	-9.201500	27.605649	0.000285	20.811873
2568.698664	-3.008700	3.076500	-9.254400	27.648854	0.000284	20.818836
2569.695183	-2.985500	3.077000	-9.185400	27.674918	0.000283	20.817088
2570.699395	-2.985400	3.076000	-9.182100	27.654932	0.000285	20.814995
2571.697438	-2.997000	3.074400	-9.213200	27.666961	0.000284	20.814297
2572.701466	-3.009900	3.073100	-9.248600	27.632363	0.000285	20.810303
2573.700046	-3.004900	3.072700	-9.231800	27.620506	0.000283	20.824925
2574.698578	-2.998700	3.072200	-9.211400	27.652353	0.000284	20.803391
2575.701493	-3.025500	3.069600	-9.286000	27.649450	0.000284	20.817065
2576.698136	-2.980500	3.071300	-9.153500	27.677476	0.000285	20.807808
2577.698996	-2.999500	3.068400	-9.202500	27.716187	0.000284	20.816417
2578.699519	-2.992600	3.068200	-9.180200	27.747359	0.000285	20.815069
2579.699848	-2.993200	3.065800	-9.176300	27.744186	0.000284	20.802867
2580.696668	-2.968200	3.066200	-9.098200	27.753486	0.000285	20.810804
2581.698267	-2.985900	3.063800	-9.147000	27.765810	0.000284	20.809930
2582.698452	-3.001900	3.062100	-9.190600	27.782696	0.000282	20.826923
2583.698891	-3.026300	3.060700	-9.260800	27.838538	0.000284	20.807257
2584.697232	-2.998200	3.061400	-9.177900	27.840050	0.000283	20.808779
2585.695984	-2.991800	3.060900	-9.157300	27.874592	0.000285	20.810827
2586.699963	-3.008500	3.059000	-9.201800	27.865293	0.000284	20.806210
2587.697547	-3.001300	3.058700	-9.179200	27.894872	0.000284	20.827919
2588.697514	-3.012900	3.055600	-9.205300	27.905981	0.000284	20.825824
2589.704941	-3.011000	3.054800	-9.197000	27.878311	0.000286	20.840174
2590.697406	-2.985100	3.054900	-9.118900	27.887038	0.000283	20.845164
2591.700520	-3.013300	3.052600	-9.197100	27.890433	0.000282	20.824399
2592.698087	-3.006200	3.051500	-9.172000	27.889567	0.000284	20.828743
2593.698075	-2.989300	3.051400	-9.120200	27.887187	0.000282	20.830615
2594.704564	-3.018500	3.049000	-9.202700	27.880692	0.000283	20.817440
2595.703478	-3.004900	3.047300	-9.155600	27.888005	0.000282	20.827171
2596.699543	-2.971000	3.048100	-9.055200	27.868317	0.000282	20.836754
2597.703029	-2.998600	3.045800	-9.132800	27.879351	0.000283	20.840746
2598.701122	-2.963800	3.046300	-9.027100	27.847689	0.000284	20.830691
2599.701519	-2.995300	3.045000	-9.119100	27.817238	0.000282	20.825650
2600.702269	-3.001200	3.042800	-9.131200	27.814634	0.000283	20.824925
2601.700604	-2.976200	3.043400	-9.056600	27.835390	0.000283	20.833012
2602.702929	-2.997800	3.042300	-9.119100	27.793879	0.000283	20.836279
2603.700017	-2.998900	3.041400	-9.120200	27.735257	0.000282	20.838925
2604.701882	-3.008500	3.039100	-9.141500	27.739771	0.000282	20.847735
2605.703290	-3.007500	3.038300	-9.136400	27.776719	0.000281	20.824227
2606.709341	-3.003500	3.035700	-9.116600	27.820760	0.000284	20.832039
2607.702523	-3.004600	3.035000	-9.118400	27.850145	0.000281	20.829844
2608.706851	-3.006200	3.033800	-9.119700	27.875139	0.000282	20.842196
2609.703053	-2.991400	3.033500	-9.073800	27.922299	0.000281	20.824703
2610.704076	-2.987800	3.032300	-9.059000	27.934201	0.000283	20.856122
2611.703795	-2.993700	3.031100	-9.073300	27.920093	0.000283	20.852354
2612.703742	-2.988900	3.030200	-9.056100	27.890167	0.000281	20.849261
2613.705466	-2.990700	3.029000	-9.057800	27.878811	0.000284	20.853004
2614.705618	-3.015600	3.026300	-9.125100	27.890119	0.000283	20.853006
2615.705404	-3.025900	3.025600	-9.152300	27.874968	0.000283	20.848188
2616.710673	-3.005500	3.025100	-9.091000	27.900533	0.000281	20.839306
2617.706964	-3.000000	3.023800	-9.071000	27.932072	0.000281	20.845919
2618.708522	-3.007300	3.022100	-9.087000	27.947743	0.000283	20.844622
2619.708018	-3.015000	3.021700	-9.108900	28.000404	0.000281	20.856376
2620.706030	-2.983500	3.020400	-9.010400	28.003106	0.000281	20.852933
2621.711506	-2.966100	3.020600	-8.958400	28.023709	0.000283	20.849016
2622.710464	-3.020700	3.017600	-9.114000	28.013990	0.000282	20.850138
2623.705815	-3.008100	3.016800	-9.074100	27.961432	0.000281	20.837065
2624.706541	-3.019400	3.015600	-9.104300	27.945811	0.000281	20.858324
2625.705842	-2.977900	3.014700	-8.975300	27.918763	0.000280	20.851489
2626.707534	-2.983700	3.013900	-8.991500	27.938399	0.000281	20.878364
2627.709338	-3.005500	3.011500	-9.050200	27.961977	0.000281	20.856105
2628.712003	-3.003600	3.010300	-9.039300	27.984589	0.000279	20.853734
2629.708567	-3.021800	3.009300	-9.092200	28.003456	0.000281	20.851862
2630.708315	-3.010800	3.008700	-9.057600	28.009927	0.000282	20.861221
2631.712136	-2.977300	3.007100	-8.951900	28.030233	0.000279	20.881659
2632.708218	-2.977200	3.005900	-8.948200	28.041835	0.000280	20.874372
2633.710339	-3.017800	3.002800	-9.060900	28.064148	0.000278	20.849419
2634.711571	-3.005400	3.003100	-9.024500	28.073048	0.000279	20.859326
2635.711566	-3.019600	3.001100	-9.061000	28.047662	0.000281	20.863643
2636.709808	-2.985500	3.000400	-8.955800	28.052123	0.000281	20.852962
2637.710996	-3.027200	2.999800	-9.080100	28.067694	0.000280	20.861997
2638.710189	-3.024800	2.997400	-9.065200	28.035713	0.000282	20.849719
2639.709243	-3.009700	2.998200	-9.022200	28.059536	0.000281	20.881759
2640.708562	-3.004600	2.996000	-9.001000	28.056686	0.000282	20.885527
2641.709118	-3.011700	2.993200	-9.013200	28.095311	0.000281	20.871779
2642.713305	-3.022900	2.993100	-9.046600	28.098806	0.000277	20.867237
2643.715949	-2.979600	2.992500	-8.915500	28.130512	0.000280	20.880661
2644.713298	-2.996000	2.989900	-8.956700	28.128677	0.000278	20.867910
2645.715636	-3.005500	2.988700	-8.981700	28.089410	0.000279	20.862521
2646.713151	-2.999500	2.987800	-8.960300	28.068685	0.000280	20.879589
2647.714341	-3.005200	2.986700	-8.974100	28.082567	0.000280	20.867960
2648.716791	-3.014000	2.985100	-8.996300	28.074064	0.000280	20.868883
2649.717742	-2.989400	2.985200	-8.922900	28.084377	0.000280	20.870730
2650.713859	-3.005600	2.982400	-8.963400	28.074659	0.000281	20.875171
2651.713181	-2.997200	2.981800	-8.936600	28.061643	0.000281	20.867759
2652.715222	-2.999800	2.979900	-8.937600	28.048950	0.000280	20.873947
2653.718616	-2.990100	2.978900	-8.906500	27.998597	0.000281	20.874945
2654.715934	-3.012400	2.976500	-8.965400	27.982581	0.000279	20.865463
2655.717002	-2.997000	2.975600	-8.916500	27.991455	0.000280	20.866809
2656.716870	-3.012200	2.974600	-8.959600	28.008092	0.000281	20.884976
2657.714758	-3.004300	2.973700	-8.932300	28.021305	0.000281	20.876465
2658.716835	-2.961700	2.972500	-8.802300	28.037073	0.000280	20.850140
2659.718903	-2.999000	2.969700	-8.905300	28.045799	0.000278	20.889741
2660.715446	-3.018400	2.967200	-8.954500	28.065930	0.000278	20.874445
2661.715508	-3.018400	2.968000	-8.957700	28.107182	0.000279	20.864763
2662.717547	-3.016000	2.966300	-8.945800	28.116328	0.000279	20.866384
2663.717419	-2.993900	2.963400	-8.870700	28.130012	0.000280	20.855978
2664.721607	-3.001700	2.963000	-8.892900	28.128079	0.000280	20.878687
2665.719569	-2.995800	2.962300	-8.872800	28.140895	0.000279	20.862666
2666.719461	-2.999300	2.961100	-8.880300	28.122277	0.000280	20.866209
2667.719876	-3.004600	2.958600	-8.888800	28.120171	0.000279	20.874045
2668.717714	-3.008500	2.957400	-8.897100	28.137151	0.000280	20.851786
2669.720211	-2.996400	2.955800	-8.855800	28.148083	0.000279	20.877014
2670.723077	-2.995800	2.954300	-8.849700	28.117073	0.000281	20.853858
2671.720292	-3.003100	2.953700	-8.869200	28.141489	0.000279	20.857575
2672.720782	-2.986600	2.951900	-8.815200	28.163354	0.000279	20.853034
2673.718400	-2.998400	2.950000	-8.843500	28.178277	0.000278	20.872798
2674.717883	-2.984700	2.949900	-8.803800	28.195553	0.000278	20.836614
2675.721562	-3.008900	2.946500	-8.864800	28.171930	0.000279	20.855030
2676.724735	-2.983800	2.946300	-8.789400	28.138887	0.000278	20.851637
2677.719015	-3.007200	2.943300	-8.850000	28.134523	0.000279	20.846295
2678.722064	-2.978200	2.943600	-8.765000	28.138391	0.000280	20.843552
2679.718927	-3.010200	2.940300	-8.849700	28.137524	0.000279	20.883927
2680.720599	-2.993400	2.941300	-8.803600	28.094909	0.000279	20.840082
2681.723320	-2.989400	2.938000	-8.781700	28.112634	0.000278	20.847968
2682.723856	-3.019000	2.935100	-8.860300	28.114990	0.000278	20.853183
2683.721792	-2.967600	2.936100	-8.711900	28.171038	0.000279	20.848916
2684.719974	-3.009200	2.933700	-8.826800	28.167346	0.000278	20.865587
2685.720365	-3.002200	2.931200	-8.798300	28.129319	0.000280	20.842953
2686.721840	-3.026500	2.928400	-8.861500	28.108595	0.000279	20.846272
2687.724465	-3.033500	2.926900	-8.877700	28.083830	0.000276	20.835568
2688.722394	-3.006400	2.926800	-8.798400	28.075103	0.000277	20.856179
2689.723977	-2.993600	2.926600	-8.759400	28.048082	0.000279	20.842255
2690.720413	-3.013300	2.923100	-8.806600	28.070270	0.000278	20.849417
2691.727084	-3.006200	2.922800	-8.784500	28.064642	0.000279	20.831899
2692.724905	-2.994100	2.920400	-8.743400	28.085616	0.000277	20.845899
2693.722841	-2.998900	2.919200	-8.753500	28.102747	0.000276	20.842756
2694.724244	-2.970900	2.917900	-8.667600	28.108027	0.000276	20.851864
2695.726525	-3.010900	2.916400	-8.780100	28.155845	0.000277	20.837415
2696.728174	-3.054100	2.913200	-8.895200	28.150814	0.000279	20.844203
2697.726789	-3.014000	2.912200	-8.776600	28.162317	0.000276	20.838240
2698.724995	-3.005800	2.910700	-8.747100	28.166455	0.000276	20.849518
2699.726552	-3.035400	2.908600	-8.827700	28.148185	0.000277	20.839661
2700.724536	-2.961700	2.909300	-8.615200	28.161597	0.000278	20.826611
2701.725186	-2.989700	2.907300	-8.691300	28.188616	0.000277	20.858078
2702.726418	-3.017600	2.905600	-8.766700	28.210899	0.000277	20.844003
2703.728634	-2.989900	2.901800	-8.675000	28.162860	0.000277	20.818399
2704.725089	-2.980400	2.901200	-8.644900	28.185864	0.000279	20.848670
2705.722524	-2.990100	2.900300	-8.671300	28.146797	0.000278	20.839212
2706.727993	-2.963900	2.899200	-8.590900	28.105125	0.000277	20.834719
2707.726240	-2.991500	2.895400	-8.661300	28.114520	0.000278	20.834694
2708.729475	-2.997500	2.894500	-8.674100	28.103290	0.000277	20.820544
2709.727928	-3.005100	2.891100	-8.686500	28.123916	0.000280	20.839885
2710.729759	-3.019400	2.888200	-8.719200	28.146996	0.000279	20.824240
2711.726194	-3.001300	2.888100	-8.667300	28.182071	0.000276	20.822567
2712.726821	-3.012000	2.887400	-8.694600	28.217022	0.000279	20.838313
2713.729871	-2.970100	2.886300	-8.571100	28.177559	0.000279	20.849318
2714.731514	-2.993800	2.883900	-8.632900	28.182168	0.000278	20.821716
2715.728106	-2.993500	2.881600	-8.625500	28.147268	0.000280	20.834470
2716.727043	-2.989600	2.878600	-8.604500	28.147667	0.000278	20.823018
2717.726710	-2.987800	2.878200	-8.598300	28.165986	0.000279	20.828658
2718.731565	-3.015000	2.875300	-8.667900	28.186286	0.000280	20.830603
2719.731173	-3.014000	2.873600	-8.660200	28.134874	0.000277	20.831950
2720.731167	-3.012200	2.871600	-8.648200	28.077413	0.000278	20.823418
2721.731449	-3.019500	2.868100	-8.658300	28.049842	0.000278	20.817950
2722.729436	-3.042500	2.866800	-8.721800	28.070146	0.000277	20.816577
2723.733796	-2.998500	2.865600	-8.591800	28.094219	0.000278	20.834646
2724.730522	-3.022800	2.863300	-8.654500	28.099475	0.000278	20.840885
2725.730279	-2.963800	2.863500	-8.486000	28.111176	0.000279	20.836069
2726.733627	-2.984900	2.861100	-8.539200	28.104135	0.000279	20.821395
2727.730695	-2.976100	2.858800	-8.507100	28.085046	0.000279	20.818300
2728.731617	-2.972800	2.856700	-8.491700	28.072007	0.000281	20.833149
2729.732309	-3.023700	2.853100	-8.625400	28.036406	0.000282	20.819124
2730.731894	-2.980500	2.851500	-8.498300	28.086087	0.000279	20.807494
2731.732808	-2.988000	2.850600	-8.517000	28.135218	0.000279	20.840831
2732.731182	-3.001200	2.847200	-8.544500	28.190298	0.000278	20.825634
2733.732069	-2.994300	2.846400	-8.521600	28.191838	0.000280	20.824339
2734.731984	-2.997700	2.843700	-8.523800	28.237917	0.000278	20.820470
2735.730229	-3.014100	2.841500	-8.563100	28.243171	0.000279	20.822441
2736.734989	-2.996900	2.841100	-8.513000	28.192182	0.000278	20.823263
2737.731744	-3.003100	2.836700	-8.518200	28.222075	0.000279	20.821116
2738.735800	-2.975500	2.835700	-8.437200	28.250830	0.000278	20.826833
2739.733184	-3.010300	2.833700	-8.529600	28.269221	0.000277	20.824487
2740.738422	-2.983000	2.830800	-8.442700	28.232387	0.000277	20.825808
2741.735720	-2.986500	2.828200	-8.445900	28.231992	0.000277	20.823988
2742.733671	-2.982000	2.827300	-8.429600	28.249394	0.000277	20.819697
2743.732231	-3.021600	2.822200	-8.526500	28.284044	0.000277	20.818074
2744.735435	-3.024200	2.820800	-8.529200	28.290636	0.000277	20.798632
2745.737750	-3.003900	2.819800	-8.469500	28.272693	0.000277	20.800481
2746.735043	-3.034000	2.815400	-8.541200	28.277822	0.000279	20.824611
2747.739809	-3.022900	2.813800	-8.504500	28.290637	0.000277	20.806695
2748.736544	-3.007100	2.811600	-8.452700	28.322364	0.000275	20.833423
2749.737218	-3.016500	2.808100	-8.469500	28.368883	0.000279	20.821468
2750.737831	-3.036400	2.806700	-8.520900	28.384918	0.000276	20.840458
2751.737005	-2.994200	2.805900	-8.400800	28.345040	0.000276	20.812159
2752.737517	-3.015000	2.802100	-8.447500	28.320902	0.000277	20.818674
2753.736419	-2.997200	2.799400	-8.388400	28.330937	0.000275	20.802701
2754.740778	-3.018200	2.796200	-8.437700	28.355948	0.000277	20.826461
2755.737426	-2.971200	2.796300	-8.307000	28.372849	0.000278	20.812186
2756.737445	-2.998000	2.793000	-8.372500	28.367347	0.000276	20.809490
2757.740536	-2.992900	2.790500	-8.350200	28.395478	0.000276	20.806048
2758.741217	-3.002500	2.787300	-8.368600	28.425367	0.000275	20.805800
2759.738973	-3.015700	2.784300	-8.394600	28.406136	0.000276	20.800185
2760.741105	-3.026000	2.781300	-8.415200	28.430796	0.000277	20.771437
2761.742634	-3.024600	2.778500	-8.401900	28.450422	0.000277	20.798787
2762.742771	-2.996800	2.775300	-8.315900	28.462096	0.000275	20.815759
2763.741011	-3.022000	2.772700	-8.378100	28.469556	0.000275	20.802882
2764.743062	-2.976800	2.772100	-8.250900	28.497311	0.000276	20.793374
2765.741731	-3.012500	2.766100	-8.331400	28.540008	0.000277	20.816933
2766.743142	-3.002300	2.766000	-8.303100	28.558744	0.000278	20.784593
2767.746435	-2.996300	2.761800	-8.273700	28.608050	0.000276	20.811017
2768.745877	-2.974700	2.759200	-8.206100	28.603741	0.000277	20.806677
2769.743240	-3.000600	2.754500	-8.264000	28.584512	0.000276	20.793950
2770.748162	-2.979500	2.753800	-8.202900	28.589198	0.000276	20.820005
2771.745598	-3.007700	2.750100	-8.270100	28.594726	0.000276	20.815141
2772.747468	-2.962500	2.748900	-8.142400	28.618833	0.000276	20.785841
2773.746908	-2.996300	2.743800	-8.220400	28.641604	0.000278	20.786491
2774.751000	-2.996500	2.739700	-8.208500	28.667447	0.000276	20.794502
2775.746445	-2.975700	2.737000	-8.143600	28.684123	0.000276	20.790436
2776.749345	-3.018600	2.733900	-8.251500	28.721957	0.000276	20.787292
2777.745924	-3.000900	2.732000	-8.197500	28.736550	0.000276	20.786344
2778.745757	-2.955000	2.728300	-8.060700	28.731472	0.000276	20.798773
2779.749508	-2.998600	2.724500	-8.167700	28.736947	0.000277	20.785321
2780.748575	-2.969500	2.720400	-8.077300	28.735834	0.000275	20.799848
2781.749307	-2.968200	2.717200	-8.064200	28.719829	0.000273	20.794632
2782.745850	-2.983500	2.714300	-8.097000	28.647013	0.000275	20.809956
2783.752437	-2.988800	2.709700	-8.097700	28.576716	0.000275	20.775192
2784.748775	-2.996100	2.706300	-8.107800	28.513653	0.000277	20.785176
2785.747816	-2.998200	2.703300	-8.103500	28.500174	0.000276	20.805740
2786.748628	-3.012000	2.697800	-8.124200	28.504140	0.000276	20.782707
2787.752798	-3.022600	2.694900	-8.143900	28.464541	0.000276	20.784082
2788.751339	-3.004500	2.693300	-8.090500	28.456263	0.000276	20.799454
2789.753096	-3.002000	2.689300	-8.072200	28.443873	0.000277	20.789348
2790.751078	-2.963400	2.686600	-7.960700	28.505803	0.000275	20.777744
2791.751074	-2.993700	2.680200	-8.023100	28.518616	0.000276	20.777845
2792.749590	-3.022600	2.675300	-8.084800	28.527658	0.000276	20.789797
2793.749825	-3.015100	2.671900	-8.055500	28.518392	0.000275	20.783784
2794.750637	-2.994400	2.667700	-7.987600	28.520077	0.000278	20.771731
2795.755422	-3.010100	2.663900	-8.017600	28.534848	0.000276	20.773329
2796.751822	-2.973500	2.660800	-7.911200	28.557866	0.000276	20.779916
2797.749622	-3.004800	2.656300	-7.980100	28.584653	0.000276	20.782237
2798.750421	-2.989400	2.654400	-7.933800	28.627918	0.000278	20.773654
2799.753164	-3.005300	2.647400	-7.956000	28.644294	0.000276	20.778295
2800.756414	-3.004200	2.643500	-7.940800	28.640874	0.000276	20.790971
2801.752182	-2.975100	2.641100	-7.855600	28.615996	0.000278	20.778243
2802.752548	-3.010100	2.634300	-7.927800	28.568869	0.000275	20.775350
2803.749896	-3.000400	2.629700	-7.888900	28.570703	0.000275	20.771033
2804.750986	-3.045200	2.624200	-7.989400	28.596721	0.000276	20.777321
2805.753499	-3.011200	2.620000	-7.887900	28.641544	0.000274	20.780266
2806.753583	-3.019900	2.614900	-7.895300	28.676429	0.000276	20.776048
2807.751403	-2.962200	2.611400	-7.734300	28.682623	0.000276	20.785606
2808.751708	-3.034400	2.605000	-7.903600	28.643203	0.000276	20.762022
2809.752010	-2.994300	2.600400	-7.784800	28.645061	0.000276	20.771480
2810.754650	-2.996300	2.595400	-7.775800	28.629007	0.000278	20.778545
2811.752898	-2.988000	2.590500	-7.738700	28.652199	0.000276	20.766815
2812.754838	-3.002200	2.584700	-7.758000	28.681164	0.000276	20.787929
2813.758166	-2.990800	2.580100	-7.714700	28.663001	0.000276	20.762049
2814.752975	-2.986800	2.575400	-7.690900	28.645435	0.000277	20.773280
2815.752850	-2.972300	2.570100	-7.637900	28.648806	0.000276	20.784736
2816.755973	-3.011800	2.562000	-7.715600	28.691520	0.000278	20.758531
2817.757530	-2.990200	2.557600	-7.646400	28.716373	0.000275	20.757485
2818.755538	-2.993500	2.552500	-7.639000	28.722367	0.000275	20.768265
2819.756591	-3.003100	2.547000	-7.647600	28.689316	0.000277	20.777174
2820.756433	-3.005900	2.539500	-7.632700	28.643231	0.000277	20.764896
2821.759966	-2.990100	2.535100	-7.579200	28.577224	0.000277	20.774756
2822.758466	-2.984200	2.527700	-7.542300	28.584383	0.000277	20.751619
2823.757510	-2.997700	2.522600	-7.560700	28.597913	0.000278	20.760030
2824.759440	-3.010500	2.515500	-7.571700	28.640532	0.000277	20.752219
2825.756114	-3.014600	2.510100	-7.565900	28.700045	0.000277	20.752418
2826.755457	-3.024700	2.503900	-7.572600	28.796568	0.000278	20.778522
2827.760699	-2.979700	2.498300	-7.443300	28.820278	0.000278	20.776327
