LabVIEW Measurement	
Writer_Version	2
Reader_Version	2
Separator	Tab
Decimal_Separator	.
Multi_Headings	No
X_Columns	One
Time_Pref	Absolute
Operator	admin
Description	Clolumns are: time, Current, Voltage, Power, Battery Temp, and Chamber Temp
Date	2024/08/16
Time	13:06:06.104549407958984375
***End_of_Header***	
	
Channels	6						
Samples	1	1	1	1	1	1	
Date	2024/09/14	2024/09/14	2024/09/14	2024/09/14	2024/09/14	2024/09/14	
Time	08:54:37.1173377037048339844	08:54:37.1243920326232910156	08:54:37.1313648223876953125	08:54:37.0992016792297363281	08:54:37.0992016792297363281	08:54:37.0992016792297363281	
X_Dimension	Time	Time	Time	Time	Time	Time	
X0	0.0000000000000000E+0	0.0000000000000000E+0	0.0000000000000000E+0	0.0000000000000000E+0	0.0000000000000000E+0	0.0000000000000000E+0	
Delta_X	1.000000	1.000000	1.000000	1.000000	1.000000	1.000000	
***End_of_Header***							
X_Value	Untitled	Untitled 1	Untitled 2	Untitled 3	Untitled 4	Untitled 5	Comment
0.000000	0.046973	4.091500	0.192400	20.994606	0.000922	20.728621
1.001216	-3.007800	3.912700	-11.768000	21.008215	0.000922	20.709988
2.000781	-3.027800	3.905400	-11.824000	20.981986	0.000921	20.717420
2.997974	-3.028900	3.899500	-11.809000	20.990699	0.000920	20.695313
4.000281	-3.010400	3.896700	-11.730000	21.012260	0.000919	20.732054
4.998893	-3.016300	3.893100	-11.742000	20.995717	0.000918	20.707920
6.002263	-2.996800	3.890100	-11.656000	21.006351	0.000918	20.699588
6.998625	-3.011100	3.887400	-11.705000	20.993828	0.000917	20.714092
7.998289	-3.013100	3.884100	-11.702000	21.014295	0.000916	20.677186
9.002617	-2.984200	3.883600	-11.588000	21.014867	0.000916	20.695778
10.001965	-2.995300	3.881100	-11.624000	21.006439	0.000914	20.710583
10.999950	-2.995300	3.881200	-11.624000	21.020318	0.000915	20.705023
11.999479	-3.000900	3.877700	-11.635000	21.017555	0.000915	20.688508
13.000698	-2.988600	3.877300	-11.587000	21.019075	0.000913	20.714687
14.001433	-3.003100	3.876100	-11.639000	21.026709	0.000912	20.702407
15.005026	-3.008700	3.875200	-11.658000	21.038691	0.000913	20.684044
16.000558	-3.018800	3.874000	-11.694000	21.037399	0.000911	20.684648
17.001143	-3.011600	3.873100	-11.662000	21.053811	0.000912	20.702014
18.000373	-3.003100	3.872100	-11.628000	21.056762	0.000908	20.720613
19.001110	-3.000700	3.870200	-11.612000	21.051506	0.000908	20.708243
20.005382	-3.015100	3.869800	-11.666000	21.049585	0.000910	20.704899
21.002154	-2.987900	3.869800	-11.561000	21.052952	0.000908	20.716803
22.002909	-2.980000	3.870000	-11.531000	21.062580	0.000908	20.703199
23.000594	-2.968000	3.867900	-11.478000	21.057194	0.000907	20.717252
24.002784	-2.993200	3.865700	-11.569000	21.048212	0.000908	20.691197
25.004498	-2.998700	3.867500	-11.597000	21.093482	0.000907	20.713246
26.003248	-2.994900	3.864000	-11.572000	21.093310	0.000906	20.690312
27.004252	-2.998000	3.864400	-11.584000	21.089714	0.000907	20.691932
28.004227	-2.997600	3.864800	-11.583000	21.078745	0.000907	20.701349
29.007772	-3.010700	3.862600	-11.627000	21.105161	0.000907	20.691735
30.005510	-3.016500	3.863100	-11.651000	21.113995	0.000904	20.675915
31.007825	-3.011200	3.860900	-11.623000	21.114968	0.000905	20.701072
32.009014	-3.002900	3.860400	-11.591000	21.115892	0.000903	20.700573
33.005037	-2.993100	3.859200	-11.550000	21.122601	0.000904	20.699224
34.004606	-3.004100	3.858900	-11.592000	21.135007	0.000905	20.671802
35.004958	-2.993900	3.859800	-11.554000	21.159729	0.000906	20.701276
36.007736	-3.005100	3.859400	-11.597000	21.148484	0.000903	20.681490
37.005099	-2.995800	3.856600	-11.552000	21.162075	0.000904	20.695087
38.007902	-3.002900	3.858200	-11.584000	21.145640	0.000903	20.692396
39.006790	-2.982800	3.856600	-11.503000	21.175035	0.000903	20.680075
40.005273	-2.996800	3.855000	-11.551000	21.157539	0.000903	20.679168
41.008832	-2.998300	3.856500	-11.562000	21.170860	0.000903	20.681114
42.009542	-2.972400	3.855700	-11.459000	21.187622	0.000904	20.681760
43.005870	-2.989600	3.855500	-11.525000	21.177594	0.000904	20.686903
44.005531	-2.992700	3.853900	-11.533000	21.198728	0.000903	20.680067
45.005693	-3.009000	3.854300	-11.596000	21.216764	0.000901	20.667763
46.006614	-3.014300	3.853400	-11.613000	21.217188	0.000903	20.676249
47.009086	-2.990500	3.853900	-11.525000	21.218569	0.000903	20.676682
48.005427	-3.019900	3.852800	-11.634000	21.240185	0.000902	20.687401
49.009238	-2.986400	3.852600	-11.504000	21.230541	0.000903	20.674908
50.006668	-3.010500	3.851100	-11.592000	21.253888	0.000903	20.690679
51.005950	-3.007200	3.850400	-11.578000	21.254583	0.000904	20.695168
52.009753	-3.005400	3.852100	-11.576000	21.279401	0.000902	20.679691
53.007657	-2.994700	3.850500	-11.529000	21.256830	0.000903	20.675129
54.007777	-2.997700	3.850200	-11.541000	21.277309	0.000901	20.686608
55.008494	-3.007600	3.850300	-11.579000	21.271393	0.000902	20.684482
56.008333	-3.006700	3.850100	-11.574000	21.271687	0.000902	20.680035
57.009038	-3.007400	3.848800	-11.572000	21.301122	0.000903	20.666332
58.010565	-2.989700	3.849500	-11.507000	21.308631	0.000902	20.662465
59.007864	-2.989500	3.849600	-11.506000	21.317260	0.000902	20.674893
60.009051	-2.984700	3.849400	-11.488000	21.316779	0.000900	20.671091
61.008217	-3.013700	3.847400	-11.594000	21.323438	0.000901	20.670642
62.011991	-2.992900	3.847900	-11.515000	21.322417	0.000902	20.683371
63.014212	-3.006500	3.849000	-11.570000	21.334216	0.000902	20.682374
64.009898	-2.989000	3.848200	-11.502000	21.346890	0.000903	20.666128
65.012300	-3.012500	3.846600	-11.587000	21.345689	0.000900	20.658288
66.010484	-3.001600	3.846200	-11.544000	21.387688	0.000901	20.671860
67.010766	-2.995800	3.847300	-11.525000	21.397395	0.000899	20.663079
68.013096	-3.014400	3.844400	-11.587000	21.400656	0.000902	20.687206
69.013574	-2.989100	3.845800	-11.494000	21.416621	0.000901	20.663823
70.011662	-3.003700	3.843700	-11.544000	21.413483	0.000902	20.674909
71.011445	-3.014100	3.844200	-11.585000	21.430642	0.000901	20.679750
72.011402	-3.007700	3.845200	-11.564000	21.434114	0.000903	20.676585
73.010815	-3.007300	3.845100	-11.561000	21.420477	0.000902	20.680485
74.012719	-3.011500	3.843900	-11.574000	21.410190	0.000903	20.685841
75.011037	-2.991700	3.843800	-11.499000	21.428778	0.000903	20.676462
76.015119	-2.994700	3.844500	-11.512000	21.460431	0.000904	20.680632
77.010740	-3.020200	3.841900	-11.603000	21.454523	0.000901	20.658598
78.011773	-3.008400	3.842800	-11.560000	21.428614	0.000903	20.673927
79.014981	-3.001600	3.843000	-11.533000	21.476550	0.000901	20.679691
80.012883	-2.998600	3.842400	-11.521000	21.486796	0.000902	20.675718
81.012767	-2.986700	3.842800	-11.477000	21.465626	0.000903	20.701480
82.012781	-3.013500	3.841600	-11.576000	21.492645	0.000903	20.684416
83.017556	-2.994500	3.842600	-11.504000	21.486411	0.000902	20.690507
84.014152	-3.004100	3.842000	-11.540000	21.480879	0.000902	20.677385
85.017840	-2.982500	3.840900	-11.454000	21.502979	0.000902	20.693810
86.013327	-3.011900	3.840600	-11.566000	21.486647	0.000904	20.676043
87.013186	-2.987200	3.842400	-11.477000	21.514850	0.000903	20.681031
88.013727	-3.000400	3.839900	-11.520000	21.505585	0.000905	20.678872
89.016009	-2.979300	3.840300	-11.440000	21.519906	0.000904	20.687987
90.014246	-2.997200	3.840600	-11.510000	21.546540	0.000904	20.674808
91.015687	-3.003000	3.840100	-11.531000	21.533108	0.000904	20.672747
92.014971	-2.984300	3.839900	-11.458000	21.533207	0.000901	20.673319
93.017174	-2.988900	3.838500	-11.471000	21.549807	0.000905	20.701312
94.017252	-3.003800	3.838800	-11.530000	21.562225	0.000904	20.699988
95.017281	-3.012700	3.839300	-11.566000	21.578131	0.000905	20.704526
96.016695	-2.985400	3.838000	-11.456000	21.577714	0.000905	20.682295
97.016928	-3.021800	3.837200	-11.594000	21.591112	0.000906	20.679106
98.016775	-3.009300	3.837000	-11.545000	21.597173	0.000906	20.695131
99.026330	-2.974600	3.837500	-11.414000	21.580066	0.000907	20.684175
100.019107	-2.983800	3.837900	-11.451000	21.611452	0.000906	20.687608
101.021247	-2.978400	3.837200	-11.427000	21.632472	0.000906	20.671657
102.019110	-2.980600	3.837500	-11.437000	21.620553	0.000908	20.686758
103.019162	-2.984900	3.837000	-11.452000	21.641457	0.000906	20.689186
104.019752	-2.991200	3.835800	-11.472000	21.654226	0.000904	20.684894
105.021912	-2.982200	3.836500	-11.440000	21.648213	0.000907	20.676980
106.018561	-2.985200	3.837100	-11.454000	21.673251	0.000908	20.671690
107.027328	-2.999900	3.836200	-11.507000	21.663081	0.000907	20.681427
108.020705	-3.000900	3.834500	-11.507000	21.672711	0.000907	20.683479
109.020810	-3.007100	3.834100	-11.528000	21.687374	0.000908	20.675867
110.022890	-3.017400	3.836000	-11.572000	21.685308	0.000908	20.683282
111.019894	-2.995900	3.833500	-11.484000	21.698541	0.000908	20.686095
112.021608	-3.001800	3.834800	-11.509000	21.717689	0.000908	20.688188
113.020723	-2.992700	3.834900	-11.476000	21.722100	0.000909	20.690707
114.020350	-3.001500	3.834200	-11.507000	21.748182	0.000909	20.690257
115.022265	-3.011700	3.832200	-11.540000	21.738959	0.000910	20.670120
116.022117	-2.993900	3.833700	-11.477000	21.745781	0.000908	20.706822
117.022456	-2.996200	3.832700	-11.483000	21.767500	0.000910	20.676399
118.028147	-2.984300	3.833400	-11.438000	21.756326	0.000911	20.693193
119.021974	-2.999100	3.832400	-11.492000	21.751736	0.000910	20.682434
120.025599	-3.008400	3.831900	-11.526000	21.774901	0.000910	20.695188
121.027524	-3.011100	3.831100	-11.535000	21.778119	0.000910	20.678967
122.021793	-2.987300	3.832000	-11.446000	21.788590	0.000912	20.682335
123.023594	-3.003200	3.830600	-11.503000	21.792609	0.000912	20.689203
124.023597	-2.987700	3.831400	-11.446000	21.819997	0.000912	20.675362
125.023570	-2.978200	3.832100	-11.412000	21.812449	0.000913	20.692940
126.028265	-3.004400	3.830500	-11.507000	21.814786	0.000912	20.699072
127.025378	-3.000200	3.831000	-11.493000	21.807834	0.000914	20.696856
128.027548	-3.010700	3.830400	-11.531000	21.819131	0.000913	20.694885
129.024100	-2.998000	3.831500	-11.486000	21.834633	0.000914	20.699023
130.024054	-2.994300	3.829900	-11.467000	21.819474	0.000914	20.693807
131.026693	-2.991800	3.829300	-11.455000	21.839525	0.000914	20.700126
132.024799	-2.975000	3.828800	-11.389000	21.828785	0.000915	20.705023
133.025380	-2.993600	3.830200	-11.465000	21.847799	0.000915	20.724057
134.024874	-2.998000	3.829500	-11.479000	21.863415	0.000915	20.711237
135.024642	-2.981300	3.829200	-11.415000	21.882666	0.000914	20.709642
136.025725	-2.995100	3.829500	-11.468000	21.895684	0.000916	20.700861
137.028131	-2.987200	3.828600	-11.436000	21.910018	0.000917	20.693871
138.026406	-2.997100	3.827800	-11.471000	21.893667	0.000918	20.697893
139.030577	-2.997700	3.828400	-11.475000	21.916184	0.000918	20.705259
140.026733	-3.000600	3.826700	-11.481000	21.945577	0.000918	20.715716
141.033257	-3.011100	3.826500	-11.522000	21.934061	0.000919	20.692333
142.032963	-3.001500	3.826100	-11.483000	21.946532	0.000919	20.709085
143.026461	-3.004600	3.827000	-11.497000	21.966426	0.000919	20.708611
144.027017	-3.006300	3.826200	-11.502000	21.947291	0.000919	20.716483
145.029130	-2.993300	3.827600	-11.457000	21.979346	0.000920	20.685980
146.029829	-3.000800	3.826800	-11.482000	21.992061	0.000920	20.702029
147.027638	-2.983200	3.827100	-11.416000	21.985781	0.000920	20.683887
148.031268	-3.012000	3.825700	-11.522000	21.993163	0.000921	20.697916
149.026821	-3.002500	3.825800	-11.484000	21.977557	0.000922	20.714063
150.027998	-3.009100	3.824600	-11.507000	21.996658	0.000922	20.709951
151.027946	-3.003300	3.825100	-11.486000	22.037498	0.000923	20.706263
152.030652	-2.998600	3.824400	-11.466000	22.030793	0.000923	20.710931
153.028059	-3.004100	3.823800	-11.487000	22.036126	0.000922	20.712477
154.031648	-2.988200	3.824800	-11.427000	22.028270	0.000923	20.718363
155.029281	-2.998500	3.824200	-11.465000	22.003623	0.000923	20.724037
156.033593	-3.003900	3.824600	-11.488000	22.029821	0.000924	20.694784
157.036324	-3.007500	3.823700	-11.498000	22.009202	0.000924	20.694057
158.030938	-2.979400	3.824400	-11.393000	22.007339	0.000925	20.712108
159.037251	-2.989600	3.822200	-11.426000	22.024717	0.000926	20.724290
160.031526	-2.971600	3.823800	-11.361000	22.046039	0.000925	20.726194
161.030223	-2.971800	3.823500	-11.362000	22.069419	0.000927	20.723521
162.032385	-2.998700	3.821800	-11.458000	22.065809	0.000927	20.721330
163.032179	-3.017700	3.821300	-11.529000	22.063546	0.000927	20.724281
164.030529	-3.001400	3.820900	-11.465000	22.087056	0.000929	20.717945
165.033912	-3.029000	3.820300	-11.570000	22.130032	0.000927	20.716399
166.031822	-3.007200	3.822200	-11.494000	22.129934	0.000930	20.710137
167.032797	-3.007300	3.820900	-11.489000	22.123826	0.000927	20.689795
168.035485	-2.997400	3.820200	-11.450000	22.125704	0.000930	20.723446
169.034230	-2.999000	3.820700	-11.458000	22.157762	0.000930	20.740843
170.037046	-2.985100	3.821800	-11.407000	22.159582	0.000930	20.717535
171.033909	-3.002200	3.819700	-11.467000	22.182690	0.000931	20.723127
172.037079	-3.014700	3.820800	-11.517000	22.181930	0.000931	20.740859
173.041307	-2.995700	3.820100	-11.443000	22.186217	0.000932	20.729977
174.038678	-3.005000	3.820200	-11.477000	22.198758	0.000931	20.733525
175.036798	-2.987800	3.821400	-11.417000	22.211586	0.000931	20.734041
176.042518	-3.004500	3.819500	-11.475000	22.228471	0.000933	20.726764
177.036459	-2.990600	3.818800	-11.420000	22.239461	0.000933	20.725914
178.037639	-3.002400	3.818900	-11.465000	22.236848	0.000934	20.728513
179.039860	-3.015000	3.818300	-11.511000	22.245347	0.000934	20.724695
180.040130	-3.013300	3.818300	-11.505000	22.248939	0.000935	20.727344
181.043459	-2.999400	3.818600	-11.453000	22.261725	0.000934	20.737776
182.038977	-3.019200	3.817300	-11.524000	22.265987	0.000934	20.733983
183.047802	-3.008100	3.816600	-11.479000	22.255250	0.000936	20.736509
184.037788	-2.994800	3.818000	-11.431000	22.268118	0.000937	20.734219
185.038563	-3.000300	3.816700	-11.450000	22.269236	0.000937	20.720166
186.048784	-2.992700	3.818100	-11.425000	22.280430	0.000936	20.734693
187.045121	-2.985900	3.816600	-11.395000	22.298024	0.000937	20.728128
188.039653	-3.008600	3.815000	-11.476000	22.306327	0.000934	20.742133
189.040582	-3.017700	3.815800	-11.514000	22.317177	0.000941	20.709847
190.049481	-3.003400	3.814900	-11.457000	22.307453	0.000939	20.735200
191.040332	-2.999100	3.816400	-11.444000	22.338387	0.000938	20.745787
192.045723	-3.000800	3.814800	-11.447000	22.333456	0.000940	20.729943
193.040257	-2.995900	3.815700	-11.430000	22.322148	0.000940	20.736164
194.039742	-2.996400	3.814500	-11.429000	22.327472	0.000941	20.733908
195.042185	-3.000900	3.812800	-11.441000	22.327251	0.000942	20.726100
196.049006	-3.001900	3.813600	-11.447000	22.334084	0.000940	20.725830
197.056561	-3.016000	3.814000	-11.501000	22.346600	0.000942	20.727931
198.048672	-2.998200	3.814900	-11.437000	22.342600	0.000943	20.726771
199.049465	-3.008600	3.813800	-11.473000	22.368773	0.000942	20.741601
200.041743	-2.998900	3.812800	-11.433000	22.378643	0.000944	20.735363
201.042086	-2.999700	3.813100	-11.436000	22.377745	0.000943	20.726876
202.048366	-3.002800	3.813100	-11.449000	22.404416	0.000943	20.740309
203.045014	-3.024800	3.811500	-11.527000	22.414008	0.000945	20.749915
204.042617	-3.015900	3.812200	-11.497000	22.410865	0.000946	20.740603
205.045080	-2.996000	3.813100	-11.424000	22.390611	0.000945	20.746399
206.046171	-2.979800	3.812900	-11.361000	22.412245	0.000946	20.756210
207.043507	-3.001300	3.810700	-11.436000	22.422188	0.000948	20.732501
208.048970	-3.001500	3.810800	-11.437000	22.381598	0.000946	20.745434
209.056254	-2.985800	3.812600	-11.383000	22.384112	0.000949	20.759332
210.042543	-3.002000	3.811800	-11.441000	22.404897	0.000947	20.749800
211.042611	-3.004600	3.809500	-11.445000	22.395631	0.000949	20.730563
212.051098	-2.982900	3.811600	-11.368000	22.416359	0.000947	20.740889
213.043317	-2.992400	3.809900	-11.400000	22.426710	0.000948	20.762635
214.045666	-3.022700	3.809100	-11.513000	22.429926	0.000950	20.750682
215.047367	-3.005000	3.808600	-11.444000	22.434432	0.000952	20.750928
216.047875	-3.003400	3.810200	-11.442000	22.453828	0.000953	20.760869
217.056911	-2.989300	3.809100	-11.385000	22.465861	0.000952	20.755375
218.047680	-2.968900	3.809500	-11.309000	22.475909	0.000953	20.750265
219.048994	-3.009300	3.808100	-11.458000	22.468089	0.000952	20.747649
220.049273	-2.986700	3.808300	-11.373000	22.499655	0.000954	20.758874
221.050663	-2.965000	3.810500	-11.297000	22.510447	0.000955	20.766836
222.057288	-2.989300	3.807400	-11.380000	22.518993	0.000954	20.757378
223.060833	-2.992300	3.807000	-11.391000	22.521540	0.000954	20.743806
224.050904	-3.003600	3.807600	-11.435000	22.514601	0.000953	20.748711
225.049682	-3.002800	3.807400	-11.432000	22.503785	0.000955	20.744517
226.054457	-3.005100	3.806100	-11.436000	22.519490	0.000956	20.752659
227.061970	-3.002900	3.806900	-11.431000	22.534068	0.000958	20.749716
228.049037	-2.994300	3.806300	-11.396000	22.538329	0.000956	20.755406
229.058235	-2.981500	3.807800	-11.352000	22.544460	0.000956	20.755382
230.052026	-3.003700	3.805300	-11.429000	22.557267	0.000959	20.763941
231.057451	-3.001800	3.806200	-11.425000	22.566318	0.000958	20.745980
232.052084	-3.003100	3.804700	-11.424000	22.585238	0.000959	20.754498
233.048550	-3.015800	3.805300	-11.475000	22.593384	0.000960	20.746061
234.051661	-3.027100	3.803800	-11.511000	22.595229	0.000961	20.757866
235.049287	-2.997100	3.805100	-11.401000	22.630187	0.000962	20.769647
236.051107	-2.983900	3.807100	-11.358000	22.619560	0.000961	20.760899
237.051805	-2.982600	3.806100	-11.351000	22.607798	0.000962	20.767611
238.057561	-3.016800	3.804900	-11.478000	22.649040	0.000962	20.755339
239.052054	-3.001100	3.803600	-11.414000	22.651334	0.000962	20.777077
240.050501	-2.996500	3.805100	-11.402000	22.674701	0.000966	20.774878
241.052174	-2.985600	3.804800	-11.358000	22.673550	0.000965	20.775622
242.052007	-2.999600	3.803400	-11.409000	22.664385	0.000965	20.777821
243.055665	-2.984600	3.803800	-11.352000	22.704474	0.000964	20.778148
244.052359	-2.997400	3.802800	-11.397000	22.707535	0.000965	20.771731
245.052261	-2.997000	3.802500	-11.394000	22.695227	0.000966	20.763196
246.051994	-2.987200	3.802700	-11.358000	22.720495	0.000967	20.772385
247.052457	-3.010200	3.801400	-11.441000	22.729734	0.000967	20.768363
248.056505	-3.013800	3.801900	-11.457000	22.740327	0.000968	20.782767
249.052477	-3.002300	3.801800	-11.413000	22.757367	0.000967	20.783241
250.059797	-3.022100	3.802300	-11.490000	22.732459	0.000968	20.779628
251.052755	-3.019300	3.801400	-11.476000	22.734198	0.000968	20.802232
252.054012	-2.976500	3.801100	-11.313000	22.715786	0.000968	20.774780
253.055813	-3.021800	3.800600	-11.482000	22.731088	0.000969	20.785841
254.058935	-2.993900	3.800300	-11.376000	22.738328	0.000971	20.782661
255.053413	-2.989800	3.799700	-11.359000	22.754348	0.000970	20.780691
256.057926	-3.019400	3.798900	-11.469000	22.738948	0.000972	20.787550
257.053879	-2.999800	3.800400	-11.400000	22.762362	0.000971	20.778762
258.058342	-2.997600	3.800000	-11.390000	22.757889	0.000973	20.797041
259.056348	-2.994700	3.800500	-11.381000	22.768866	0.000973	20.786700
260.062144	-2.974600	3.799800	-11.302000	22.803142	0.000974	20.794483
261.057301	-3.007800	3.798800	-11.425000	22.814298	0.000973	20.771519
262.055126	-2.983100	3.800200	-11.335000	22.790999	0.000974	20.767620
263.053459	-3.019800	3.796300	-11.463000	22.832105	0.000975	20.801685
264.058903	-2.971400	3.798600	-11.286000	22.810675	0.000975	20.781166
265.053506	-3.005200	3.798700	-11.413000	22.834839	0.000974	20.792096
266.058391	-2.981200	3.798400	-11.322000	22.847439	0.000978	20.788598
267.054922	-2.989100	3.798100	-11.352000	22.836096	0.000975	20.803313
268.056677	-3.008400	3.795700	-11.418000	22.845391	0.000979	20.782753
269.063341	-2.986100	3.797500	-11.339000	22.841972	0.000977	20.783121
270.058531	-3.006600	3.795800	-11.412000	22.823513	0.000977	20.796871
271.054432	-3.025500	3.795100	-11.481000	22.833207	0.000980	20.796626
272.065534	-3.033400	3.794800	-11.509000	22.848541	0.000979	20.805823
273.058065	-3.002100	3.794600	-11.391000	22.838055	0.000979	20.794370
274.058158	-3.015300	3.794500	-11.441000	22.857085	0.000978	20.786408
275.065437	-3.011000	3.794500	-11.424000	22.865433	0.000981	20.787658
276.069476	-3.024500	3.793400	-11.472000	22.870011	0.000984	20.802676
277.058279	-3.011600	3.795300	-11.427000	22.857281	0.000981	20.819794
278.060238	-3.003400	3.794400	-11.395000	22.876058	0.000982	20.794509
279.061813	-2.994700	3.794900	-11.363000	22.876605	0.000983	20.812601
280.059580	-2.996300	3.793500	-11.364000	22.879599	0.000983	20.802799
281.071460	-3.009800	3.794200	-11.418000	22.906177	0.000984	20.810933
282.070723	-3.003300	3.792900	-11.390000	22.907214	0.000985	20.797747
283.062394	-3.019700	3.792400	-11.452000	22.897331	0.000985	20.798278
284.066216	-3.001300	3.792700	-11.382000	22.882856	0.000984	20.807009
285.067731	-3.014400	3.792100	-11.430000	22.891554	0.000986	20.812879
286.068121	-3.016600	3.791200	-11.435000	22.873260	0.000986	20.823948
287.068646	-2.992100	3.791700	-11.343000	22.922930	0.000986	20.795949
288.068531	-2.984100	3.792600	-11.317000	22.921910	0.000988	20.801565
289.066718	-3.002300	3.790500	-11.379000	22.940742	0.000989	20.831812
290.065486	-3.003500	3.790600	-11.383000	22.937952	0.000988	20.815266
291.071986	-2.976900	3.791500	-11.286000	22.960219	0.000988	20.811972
292.065402	-2.989300	3.791500	-11.332000	22.967816	0.000990	20.821005
293.066411	-3.001400	3.790100	-11.375000	22.967922	0.000989	20.815421
294.066726	-3.009400	3.790200	-11.406000	22.990058	0.000991	20.818634
295.067310	-2.979500	3.791000	-11.294000	22.956262	0.000992	20.817015
296.070400	-2.996500	3.789500	-11.355000	22.964699	0.000991	20.823572
297.068315	-3.004200	3.788500	-11.381000	22.995068	0.000991	20.815593
298.066426	-2.995400	3.790800	-11.354000	22.987325	0.000991	20.824430
299.068581	-2.981600	3.789600	-11.298000	22.997973	0.000992	20.829883
300.068413	-3.015800	3.787900	-11.423000	23.009641	0.000993	20.831616
301.071587	-3.008300	3.788500	-11.396000	23.009738	0.000992	20.824128
302.067494	-3.006100	3.788100	-11.387000	23.006524	0.000992	20.838924
303.082546	-2.993700	3.787300	-11.337000	23.020199	0.000993	20.827970
304.068978	-3.003900	3.788300	-11.378000	23.067766	0.000994	20.844336
305.076365	-3.012100	3.787000	-11.405000	23.053667	0.000994	20.817408
306.070792	-2.990800	3.788400	-11.329000	23.100833	0.000993	20.819624
307.072094	-2.975700	3.786400	-11.266000	23.102130	0.000993	20.821398
308.070888	-3.001400	3.786200	-11.363000	23.095848	0.000994	20.855879
309.071278	-2.985500	3.787100	-11.304000	23.094135	0.000994	20.833774
310.074192	-3.005800	3.785300	-11.376000	23.112638	0.000995	20.827660
311.071059	-2.998400	3.787000	-11.353000	23.129543	0.000996	20.839857
312.077305	-3.008500	3.785700	-11.388000	23.143282	0.000996	20.837977
313.069957	-2.979000	3.785500	-11.276000	23.152003	0.000997	20.842448
314.081635	-2.986900	3.784300	-11.302000	23.167438	0.000997	20.849381
315.071191	-2.991500	3.785400	-11.323000	23.163751	0.000997	20.841419
316.073819	-2.996800	3.784000	-11.338000	23.146243	0.000997	20.844738
317.074016	-2.980600	3.784800	-11.280000	23.138599	0.000998	20.829966
318.073646	-3.001000	3.783900	-11.355000	23.156351	0.001000	20.811720
319.075647	-2.974700	3.784900	-11.258000	23.154108	0.001001	20.841713
320.071415	-2.999300	3.783000	-11.344000	23.170775	0.001001	20.829018
321.070638	-3.007900	3.783100	-11.379000	23.171159	0.001001	20.843152
322.076210	-2.992300	3.784400	-11.321000	23.205928	0.001001	20.833898
323.071300	-3.001800	3.781200	-11.349000	23.195967	0.001000	20.831503
324.070718	-2.999400	3.782400	-11.344000	23.208815	0.001001	20.812137
325.077947	-3.011700	3.781500	-11.388000	23.218376	0.001003	20.840209
326.072686	-3.006100	3.781800	-11.367000	23.234985	0.001002	20.828405
327.086780	-3.022200	3.780700	-11.424000	23.227113	0.001003	20.831422
328.077677	-3.000200	3.782700	-11.349000	23.225686	0.001003	20.851328
329.071529	-2.989400	3.780700	-11.301000	23.250469	0.001004	20.798403
330.084328	-2.998100	3.782100	-11.338000	23.241675	0.001005	20.815669
331.073418	-3.007100	3.779400	-11.364000	23.238290	0.001004	20.835509
332.072040	-3.008700	3.780400	-11.373000	23.233436	0.001006	20.831594
333.074035	-3.014300	3.779700	-11.392000	23.237074	0.001005	20.832395
334.078260	-2.994400	3.779000	-11.315000	23.253976	0.001005	20.837480
335.073742	-3.006600	3.779700	-11.363000	23.271857	0.001005	20.836433
336.074807	-2.994500	3.779800	-11.317000	23.266808	0.001006	20.842752
337.073731	-3.006200	3.778100	-11.357000	23.287054	0.001008	20.829378
338.083157	-2.991000	3.779000	-11.302000	23.295325	0.001006	20.814908
339.077285	-2.998100	3.777900	-11.325000	23.285585	0.001006	20.819372
340.082461	-3.004600	3.777200	-11.348000	23.283921	0.001007	20.798738
341.075043	-2.982100	3.778400	-11.266000	23.268732	0.001007	20.825715
342.074852	-2.992400	3.779100	-11.307000	23.257605	0.001007	20.818358
343.079153	-3.011300	3.775800	-11.368000	23.275658	0.001008	20.815112
344.076724	-2.995600	3.777400	-11.314000	23.297902	0.001006	20.816543
345.084679	-2.999500	3.777200	-11.329000	23.299395	0.001009	20.796702
346.085966	-3.004200	3.776500	-11.345000	23.321932	0.001010	20.814074
347.077132	-3.009300	3.774700	-11.358000	23.310113	0.001011	20.803176
348.076169	-2.979800	3.776300	-11.251000	23.319354	0.001010	20.821447
349.075599	-3.006800	3.774400	-11.348000	23.329583	0.001009	20.799931
350.079576	-2.999500	3.774300	-11.319000	23.309525	0.001010	20.819656
351.077637	-3.002400	3.774200	-11.331000	23.270199	0.001013	20.804427
352.079707	-3.003400	3.774200	-11.334000	23.264554	0.001009	20.799243
353.076722	-2.982600	3.774200	-11.254000	23.257636	0.001010	20.806061
354.076510	-3.008600	3.773300	-11.351000	23.255548	0.001011	20.785476
355.078834	-2.993400	3.773800	-11.295000	23.262098	0.001012	20.812903
356.077163	-2.996700	3.774100	-11.308000	23.268273	0.001012	20.800126
357.077234	-3.009000	3.771100	-11.345000	23.264219	0.001014	20.767139
358.077940	-2.989200	3.773800	-11.280000	23.284963	0.001016	20.802627
359.078798	-3.006100	3.771800	-11.338000	23.280403	0.001015	20.799954
360.080170	-2.999400	3.772400	-11.313000	23.288650	0.001018	20.785933
361.080053	-2.986100	3.773200	-11.266000	23.273159	0.001017	20.800281
362.077906	-2.996100	3.771900	-11.300000	23.282377	0.001015	20.807148
363.084062	-3.005200	3.772000	-11.335000	23.315389	0.001015	20.784282
364.078703	-3.008200	3.771600	-11.344000	23.305226	0.001019	20.785950
365.082436	-3.010800	3.769500	-11.348000	23.300747	0.001017	20.792842
366.077487	-3.000500	3.770400	-11.313000	23.292386	0.001017	20.783039
367.079728	-2.993400	3.772000	-11.288000	23.288919	0.001019	20.797109
368.079560	-3.004100	3.769100	-11.322000	23.311009	0.001019	20.771831
369.078600	-3.007300	3.770400	-11.338000	23.309263	0.001019	20.783358
370.089051	-2.983500	3.770800	-11.249000	23.302941	0.001018	20.783661
371.085540	-3.010100	3.768500	-11.343000	23.317583	0.001019	20.786481
372.087584	-3.005000	3.768300	-11.322000	23.344998	0.001020	20.792146
373.079446	-3.007100	3.768300	-11.331000	23.357568	0.001019	20.791942
374.086004	-2.981200	3.769000	-11.235000	23.377396	0.001020	20.794746
375.079070	-2.987500	3.768300	-11.256000	23.362429	0.001020	20.791125
376.080781	-3.017600	3.767200	-11.366000	23.368530	0.001021	20.801507
377.078973	-3.010500	3.766700	-11.338000	23.336279	0.001020	20.782459
378.085554	-2.992200	3.767700	-11.273000	23.389835	0.001019	20.775445
379.079193	-2.998100	3.767000	-11.292000	23.362478	0.001021	20.770785
380.081438	-3.006300	3.767300	-11.324000	23.391205	0.001019	20.788672
381.083403	-2.996300	3.766300	-11.283000	23.395610	0.001021	20.773172
382.083069	-2.983900	3.766600	-11.238000	23.410202	0.001020	20.758400
383.084720	-3.002300	3.764500	-11.301000	23.424018	0.001021	20.772249
384.080246	-2.993100	3.766900	-11.274000	23.431995	0.001021	20.760329
385.080670	-2.998200	3.765800	-11.290000	23.431587	0.001022	20.770826
386.087170	-2.997100	3.764800	-11.283000	23.414484	0.001022	20.769804
387.083662	-2.996200	3.764400	-11.278000	23.440534	0.001023	20.781216
388.081192	-2.993600	3.763000	-11.264000	23.427664	0.001021	20.768316
389.085675	-3.004300	3.764600	-11.309000	23.443120	0.001023	20.771006
390.080490	-3.027600	3.762800	-11.390000	23.451561	0.001023	20.781838
391.081954	-3.013000	3.762700	-11.336000	23.460932	0.001024	20.771790
392.084755	-3.000000	3.763100	-11.288000	23.470066	0.001024	20.778576
393.081811	-3.014300	3.761700	-11.338000	23.505519	0.001026	20.772861
394.098273	-3.011300	3.761800	-11.327000	23.485277	0.001026	20.769166
395.084265	-2.997200	3.760400	-11.270000	23.488425	0.001023	20.759993
396.083809	-3.022800	3.761800	-11.370000	23.511098	0.001025	20.773711
397.095971	-3.001800	3.761000	-11.288000	23.493424	0.001025	20.777807
398.083110	-3.024900	3.758700	-11.368000	23.519816	0.001023	20.764906
399.084838	-3.008400	3.760000	-11.311000	23.512475	0.001024	20.775092
400.084971	-3.007500	3.760300	-11.309000	23.524293	0.001024	20.787887
401.085149	-3.013300	3.759900	-11.328000	23.510934	0.001024	20.786824
402.085254	-2.998900	3.760000	-11.275000	23.555177	0.001026	20.760998
403.087841	-3.003800	3.759200	-11.290000	23.558561	0.001025	20.777193
404.088493	-3.010100	3.757800	-11.310000	23.585179	0.001027	20.760728
405.085774	-2.995800	3.759500	-11.261000	23.592265	0.001026	20.755503
406.085815	-2.987300	3.759500	-11.229000	23.610230	0.001026	20.760237
407.087669	-3.024200	3.758700	-11.366000	23.609390	0.001027	20.747066
408.090163	-2.999500	3.758300	-11.272000	23.621369	0.001026	20.762869
409.094629	-2.974400	3.759100	-11.180000	23.617814	0.001027	20.772107
410.089132	-3.011600	3.757500	-11.314000	23.625283	0.001029	20.749249
411.089217	-2.994400	3.756300	-11.247000	23.627232	0.001028	20.759263
412.088565	-3.002900	3.756600	-11.280000	23.616174	0.001027	20.746281
413.090539	-2.988600	3.756200	-11.224000	23.605304	0.001028	20.763359
414.089533	-2.977000	3.756900	-11.183000	23.611313	0.001030	20.750891
415.099357	-3.021700	3.754600	-11.343000	23.616092	0.001028	20.762320
416.090790	-2.984900	3.756300	-11.210000	23.604128	0.001027	20.762181
417.090289	-3.005500	3.755100	-11.285000	23.592532	0.001031	20.766203
418.088853	-2.989700	3.756400	-11.230000	23.584467	0.001031	20.754798
419.090878	-3.032600	3.754500	-11.385000	23.590469	0.001031	20.746590
420.092589	-2.974200	3.756400	-11.171000	23.568050	0.001030	20.743082
421.092435	-3.005600	3.754100	-11.283000	23.596054	0.001030	20.744129
422.089919	-2.980900	3.754300	-11.190000	23.580731	0.001032	20.749630
423.098293	-3.024200	3.753100	-11.349000	23.588176	0.001030	20.741447
424.089369	-2.991400	3.754100	-11.228000	23.612624	0.001031	20.759792
425.090794	-3.016800	3.752700	-11.320000	23.591519	0.001030	20.770403
426.092352	-3.016400	3.752400	-11.318000	23.594944	0.001031	20.733532
427.089858	-2.980900	3.752600	-11.184000	23.622377	0.001032	20.743964
428.094937	-3.014900	3.751500	-11.308000	23.630295	0.001033	20.739099
429.093513	-3.001000	3.751200	-11.256000	23.637838	0.001034	20.764206
430.095488	-3.013700	3.750200	-11.300000	23.625826	0.001033	20.741257
431.091002	-2.992300	3.752300	-11.227000	23.631820	0.001033	20.746792
432.090551	-2.985800	3.750600	-11.196000	23.641784	0.001035	20.729754
433.092661	-2.999000	3.750000	-11.245000	23.649498	0.001034	20.766887
434.107154	-3.008900	3.748400	-11.278000	23.677036	0.001034	20.757984
435.095591	-3.014700	3.748600	-11.299000	23.646286	0.001035	20.751338
436.097030	-3.000200	3.747500	-11.242000	23.680289	0.001034	20.738012
437.097390	-3.011700	3.747600	-11.286000	23.682402	0.001033	20.735387
438.096515	-2.999000	3.748500	-11.241000	23.671254	0.001035	20.736540
439.101624	-2.999600	3.748600	-11.243000	23.643693	0.001035	20.734038
440.097908	-3.025100	3.747100	-11.334000	23.638490	0.001037	20.746841
441.097266	-2.983200	3.748400	-11.181000	23.636329	0.001036	20.747994
442.106859	-2.976400	3.748300	-11.155000	23.660263	0.001035	20.731684
443.099825	-2.997300	3.746100	-11.227000	23.687278	0.001035	20.742647
444.099028	-2.980900	3.746800	-11.167000	23.683266	0.001036	20.743367
445.099823	-3.009600	3.746900	-11.275000	23.679899	0.001036	20.732878
446.099106	-3.008600	3.746800	-11.272000	23.689284	0.001036	20.748452
447.104459	-3.007900	3.746600	-11.268000	23.689227	0.001036	20.740808
448.100372	-2.983500	3.746500	-11.176000	23.704883	0.001037	20.731848
449.100114	-3.000600	3.744900	-11.236000	23.718745	0.001035	20.744798
450.102273	-3.021200	3.743300	-11.308000	23.759816	0.001037	20.738086
451.102489	-3.003400	3.744200	-11.243000	23.774102	0.001035	20.745297
452.102606	-3.006800	3.743800	-11.256000	23.782989	0.001035	20.729551
453.102369	-3.021500	3.743300	-11.309000	23.800951	0.001036	20.724801
454.107153	-3.012400	3.743000	-11.274000	23.814893	0.001036	20.745894
455.107666	-3.007100	3.743100	-11.255000	23.845525	0.001036	20.747685
456.103521	-3.003100	3.741700	-11.236000	23.851868	0.001037	20.720378
457.104258	-2.993600	3.743200	-11.204000	23.857119	0.001036	20.749827
458.105552	-2.991200	3.742700	-11.194000	23.825909	0.001035	20.739869
459.103117	-2.999600	3.740700	-11.219000	23.845142	0.001035	20.727385
460.104441	-2.987000	3.743300	-11.179000	23.847507	0.001036	20.725963
461.103143	-3.020400	3.740400	-11.297000	23.844042	0.001036	20.733869
462.103362	-2.988800	3.741000	-11.179000	23.856385	0.001037	20.742927
463.102498	-2.998000	3.741500	-11.216000	23.866919	0.001036	20.735945
464.103797	-3.013500	3.740200	-11.270000	23.868525	0.001035	20.736608
465.105390	-2.993900	3.739700	-11.195000	23.869177	0.001038	20.727778
466.106122	-3.012300	3.738600	-11.261000	23.859516	0.001037	20.742747
467.106197	-3.002100	3.739300	-11.225000	23.890652	0.001037	20.720862
468.107285	-2.992200	3.739800	-11.189000	23.885972	0.001037	20.753629
469.107050	-3.002000	3.739000	-11.224000	23.881513	0.001037	20.717861
470.106970	-3.011600	3.738200	-11.258000	23.909917	0.001038	20.727852
471.109597	-2.989500	3.738700	-11.175000	23.898063	0.001038	20.752476
472.109088	-3.006100	3.738400	-11.236000	23.894924	0.001039	20.714240
473.112140	-2.991800	3.738900	-11.185000	23.893514	0.001037	20.733215
474.110031	-2.997100	3.738600	-11.205000	23.874559	0.001039	20.735071
475.109105	-3.001300	3.736600	-11.213000	23.882206	0.001038	20.718082
476.111993	-3.005700	3.737100	-11.231000	23.904031	0.001039	20.740917
477.113585	-3.004900	3.735200	-11.223000	23.914026	0.001037	20.751414
478.109292	-3.000900	3.737400	-11.214000	23.884335	0.001039	20.725907
479.110022	-2.996000	3.735100	-11.188000	23.904888	0.001039	20.730395
480.111980	-3.004300	3.735000	-11.220000	23.929125	0.001038	20.727199
481.111235	-3.008000	3.735000	-11.234000	23.949319	0.001039	20.724689
482.112520	-2.999800	3.733700	-11.199000	23.964849	0.001038	20.718926
483.112889	-2.983900	3.735600	-11.145000	23.983004	0.001039	20.721485
484.115233	-3.007400	3.734800	-11.231000	23.995844	0.001040	20.721559
485.112316	-3.013800	3.734300	-11.252000	23.950820	0.001040	20.729040
486.112351	-2.981500	3.733800	-11.131000	23.929787	0.001039	20.741140
487.115535	-2.995300	3.733200	-11.181000	23.927521	0.001039	20.704251
488.112038	-2.993900	3.732300	-11.173000	23.928043	0.001038	20.717578
489.111730	-2.993400	3.731800	-11.170000	23.940842	0.001040	20.702910
490.112329	-2.981700	3.733600	-11.132000	23.967704	0.001039	20.721314
491.111581	-2.993600	3.732200	-11.172000	23.927692	0.001039	20.720546
492.112982	-2.992600	3.732800	-11.170000	23.934434	0.001038	20.718297
493.115085	-3.009900	3.730000	-11.225000	23.927856	0.001037	20.728297
494.113137	-2.998600	3.730700	-11.185000	23.931068	0.001036	20.718715
495.112853	-2.986300	3.731000	-11.141000	23.944258	0.001039	20.727201
496.113138	-3.007100	3.728400	-11.211000	23.941299	0.001039	20.733243
497.113392	-2.992800	3.730600	-11.163000	23.991492	0.001037	20.693010
498.116101	-2.983000	3.731000	-11.128000	23.986813	0.001039	20.723882
499.120499	-2.993000	3.730300	-11.163000	23.990522	0.001038	20.713376
500.120136	-3.011100	3.728900	-11.227000	23.979802	0.001038	20.708315
501.115963	-2.988700	3.729000	-11.143000	24.003646	0.001040	20.721796
502.114749	-2.978700	3.729600	-11.109000	24.011651	0.001038	20.718919
503.117322	-2.990100	3.728000	-11.146000	24.000703	0.001040	20.728803
504.117216	-3.007100	3.727300	-11.207000	24.012026	0.001039	20.710285
505.115348	-3.019900	3.727000	-11.254000	24.007127	0.001039	20.714855
506.120977	-2.998600	3.728100	-11.177000	24.031786	0.001037	20.716826
507.116186	-2.991500	3.727700	-11.151000	24.027857	0.001038	20.708143
508.120346	-3.002100	3.725800	-11.184000	24.056183	0.001039	20.713792
509.115201	-2.977300	3.727400	-11.096000	24.043572	0.001039	20.690712
510.116186	-3.023600	3.726600	-11.267000	24.081273	0.001038	20.707660
511.122185	-3.003800	3.724800	-11.188000	24.054153	0.001037	20.707488
512.120768	-2.998300	3.725000	-11.166000	24.047265	0.001038	20.710063
513.119005	-3.015000	3.725200	-11.230000	24.042887	0.001039	20.708992
514.121686	-3.012100	3.722900	-11.213000	24.002821	0.001038	20.704373
515.118119	-2.998400	3.724300	-11.166000	23.986053	0.001039	20.702730
516.130142	-2.998200	3.724300	-11.165000	23.987185	0.001037	20.679207
517.118260	-2.995600	3.724600	-11.156000	23.980566	0.001038	20.698649
518.120361	-3.003400	3.722600	-11.179000	23.959117	0.001037	20.698478
519.119709	-3.000600	3.722400	-11.169000	23.966014	0.001040	20.689271
520.122737	-2.975200	3.723600	-11.078000	23.968133	0.001039	20.702303
521.119106	-2.993100	3.721900	-11.139000	23.935484	0.001040	20.693743
522.118840	-2.991500	3.721200	-11.130000	23.972323	0.001039	20.691331
523.120446	-3.007600	3.721400	-11.191000	23.980777	0.001040	20.689377
524.121850	-2.984900	3.722800	-11.109000	23.994872	0.001037	20.684545
525.121154	-3.009000	3.721500	-11.197000	24.011167	0.001040	20.689508
526.125845	-3.006100	3.721100	-11.183000	24.017615	0.001038	20.691707
527.120251	-2.992800	3.721300	-11.136000	24.063525	0.001041	20.681324
528.120255	-2.990100	3.719600	-11.121000	24.085085	0.001039	20.692516
529.129045	-3.005900	3.719600	-11.181000	24.101698	0.001038	20.694953
530.122766	-2.989600	3.720300	-11.121000	24.092666	0.001039	20.674513
531.124061	-2.968800	3.720900	-11.046000	24.094484	0.001039	20.680604
532.123204	-2.991000	3.718600	-11.122000	24.095552	0.001039	20.686417
533.122585	-3.001700	3.718100	-11.160000	24.066061	0.001038	20.698567
534.121305	-2.993000	3.717400	-11.125000	24.072019	0.001039	20.684152
535.121571	-2.991200	3.718500	-11.122000	24.061080	0.001038	20.703055
536.127723	-2.986600	3.717700	-11.102000	24.078198	0.001039	20.690825
537.123756	-2.996000	3.717500	-11.136000	24.050508	0.001038	20.695297
538.127676	-2.980200	3.718100	-11.079000	24.077676	0.001038	20.675601
539.127937	-3.012000	3.715800	-11.192000	24.078443	0.001039	20.654556
540.125262	-2.981700	3.716000	-11.078000	24.076348	0.001040	20.693711
541.129918	-2.964100	3.716100	-11.013000	24.097851	0.001039	20.691095
542.125288	-3.037400	3.714300	-11.280000	24.106385	0.001040	20.691119
543.136946	-3.003600	3.714700	-11.157000	24.133854	0.001037	20.675045
544.125100	-3.008600	3.715900	-11.178000	24.132558	0.001040	20.673746
545.127448	-2.994900	3.714700	-11.124000	24.093629	0.001038	20.680696
546.130355	-3.001000	3.714500	-11.146000	24.116876	0.001040	20.686468
547.131238	-2.993400	3.713300	-11.115000	24.108432	0.001037	20.682266
548.128849	-2.976800	3.714200	-11.055000	24.126723	0.001039	20.669789
549.130754	-2.998400	3.713900	-11.135000	24.152700	0.001040	20.682094
550.128493	-2.995100	3.712100	-11.117000	24.114798	0.001040	20.662096
551.129238	-2.999100	3.713900	-11.135000	24.091861	0.001039	20.678447
552.132775	-3.022700	3.712500	-11.219000	24.082601	0.001040	20.679592
553.129811	-3.014300	3.711000	-11.185000	24.077352	0.001038	20.664843
554.129637	-3.007100	3.712300	-11.163000	24.076374	0.001038	20.666233
555.130689	-3.003700	3.711600	-11.147000	24.097877	0.001040	20.688749
556.133305	-2.996900	3.711600	-11.122000	24.115646	0.001036	20.658204
557.132234	-2.994500	3.711300	-11.113000	24.120822	0.001038	20.669560
558.130350	-3.011700	3.711000	-11.175000	24.165130	0.001039	20.667533
559.132005	-3.020200	3.710200	-11.204000	24.174960	0.001038	20.677867
560.129848	-2.990200	3.710100	-11.093000	24.199982	0.001038	20.672144
561.132113	-3.005500	3.709600	-11.147000	24.211286	0.001038	20.674000
562.134734	-2.991200	3.709600	-11.095000	24.207610	0.001039	20.675054
563.143220	-2.997000	3.708700	-11.114000	24.236071	0.001036	20.666143
564.137803	-2.983400	3.710700	-11.070000	24.230871	0.001036	20.677524
565.132300	-3.020900	3.707300	-11.198000	24.209428	0.001037	20.686836
566.134540	-2.994700	3.707300	-11.102000	24.214505	0.001037	20.671539
567.141113	-3.003600	3.708100	-11.137000	24.219012	0.001037	20.671792
568.138529	-2.999100	3.708500	-11.121000	24.216323	0.001038	20.677155
569.135977	-3.013300	3.706500	-11.168000	24.209664	0.001038	20.687072
570.136753	-3.011100	3.706700	-11.161000	24.220284	0.001039	20.682551
571.137950	-2.981800	3.707200	-11.053000	24.185824	0.001038	20.671694
572.135722	-3.008000	3.706100	-11.147000	24.158486	0.001037	20.674620
573.140282	-2.982100	3.707700	-11.056000	24.153979	0.001037	20.671048
574.137285	-3.023400	3.704900	-11.200000	24.170028	0.001036	20.680507
575.138595	-2.997600	3.704700	-11.105000	24.196696	0.001036	20.686394
576.137771	-3.008300	3.704200	-11.142000	24.216811	0.001036	20.638286
577.139606	-3.012200	3.704000	-11.156000	24.257684	0.001036	20.684031
578.144279	-3.006200	3.704200	-11.134000	24.254498	0.001037	20.677040
579.140879	-3.003600	3.703500	-11.121000	24.227056	0.001038	20.662790
580.143496	-3.013300	3.703000	-11.157000	24.225687	0.001036	20.684178
581.140801	-3.011900	3.704200	-11.154000	24.208686	0.001037	20.665701
582.139292	-2.990200	3.702900	-11.072000	24.191676	0.001038	20.667131
583.140688	-3.010700	3.702900	-11.147000	24.184454	0.001035	20.650878
584.144242	-2.989100	3.702000	-11.064000	24.178284	0.001035	20.675038
585.141463	-3.002600	3.703200	-11.117000	24.200943	0.001035	20.660779
586.142510	-3.012200	3.701900	-11.150000	24.223781	0.001036	20.690327
587.141686	-2.993100	3.702400	-11.080000	24.206062	0.001034	20.669233
588.143315	-2.991500	3.700900	-11.070000	24.213177	0.001034	20.691545
589.145236	-3.001900	3.700800	-11.109000	24.249275	0.001033	20.676543
590.144279	-3.009000	3.699800	-11.131000	24.248728	0.001035	20.686427
591.145300	-2.996100	3.701000	-11.088000	24.255787	0.001035	20.672643
592.151088	-2.978700	3.701600	-11.024000	24.289324	0.001035	20.681154
593.142388	-2.993000	3.700400	-11.074000	24.305118	0.001035	20.668547
594.145898	-3.004100	3.700700	-11.116000	24.310285	0.001034	20.679896
595.145285	-2.984500	3.699800	-11.041000	24.290685	0.001034	20.683468
596.147598	-2.989300	3.699700	-11.059000	24.267466	0.001034	20.689102
597.146603	-2.995800	3.698300	-11.078000	24.255918	0.001035	20.702175
598.147151	-2.997600	3.697600	-11.082000	24.262683	0.001034	20.696158
599.146141	-2.963000	3.699700	-10.961000	24.254614	0.001034	20.670045
600.145438	-3.000300	3.698000	-11.093000	24.229806	0.001035	20.687835
601.145428	-2.991400	3.698300	-11.061000	24.243311	0.001031	20.692847
602.146498	-3.011100	3.697100	-11.132000	24.227988	0.001033	20.694074
603.144915	-2.985300	3.696700	-11.035000	24.233124	0.001034	20.691638
604.146579	-3.007700	3.696600	-11.118000	24.233303	0.001034	20.697508
605.146451	-3.011100	3.696500	-11.130000	24.224069	0.001033	20.701997
606.145501	-3.007600	3.696600	-11.117000	24.248813	0.001034	20.672286
607.145130	-3.001800	3.695600	-11.092000	24.285252	0.001035	20.701254
608.146649	-3.016100	3.695600	-11.144000	24.308242	0.001033	20.708195
609.146710	-3.009100	3.695400	-11.119000	24.305455	0.001034	20.690699
610.149486	-3.011900	3.693900	-11.125000	24.324957	0.001033	20.690821
611.146826	-3.015300	3.693300	-11.135000	24.334549	0.001033	20.685270
612.146779	-3.021800	3.694000	-11.162000	24.335372	0.001033	20.697003
613.146999	-2.980800	3.695100	-11.014000	24.310712	0.001031	20.701189
614.146852	-2.987200	3.694400	-11.034000	24.369665	0.001032	20.681616
615.151681	-3.020500	3.692400	-11.152000	24.376682	0.001031	20.673481
616.155076	-2.993100	3.692500	-11.051000	24.359715	0.001031	20.702931
617.151355	-2.999200	3.692300	-11.073000	24.334892	0.001032	20.695572
618.148631	-3.001200	3.692600	-11.082000	24.274602	0.001032	20.694363
619.153743	-3.002400	3.692200	-11.084000	24.258660	0.001030	20.681216
620.155946	-3.024700	3.691000	-11.163000	24.284927	0.001029	20.690021
621.149683	-3.035500	3.691000	-11.202000	24.325725	0.001032	20.677365
622.147538	-2.986600	3.691600	-11.024000	24.354549	0.001030	20.701068
623.147046	-2.983500	3.692500	-11.016000	24.343857	0.001030	20.696031
624.147943	-2.993100	3.690200	-11.044000	24.345479	0.001030	20.700029
625.147879	-2.987700	3.690600	-11.025000	24.389533	0.001030	20.702972
626.149772	-2.993800	3.689900	-11.046000	24.395645	0.001027	20.704836
627.149108	-3.003800	3.688500	-11.079000	24.409173	0.001030	20.694699
628.151103	-2.985900	3.690000	-11.017000	24.382191	0.001028	20.708883
629.149426	-2.999500	3.689300	-11.065000	24.398139	0.001030	20.708761
630.155135	-2.999300	3.687000	-11.056000	24.399573	0.001030	20.676058
631.154548	-2.992300	3.688200	-11.035000	24.393356	0.001029	20.715342
632.149230	-2.996100	3.688400	-11.050000	24.402556	0.001029	20.711770
633.162754	-2.998700	3.686700	-11.054000	24.420051	0.001030	20.694232
634.150739	-2.998400	3.685700	-11.051000	24.403712	0.001028	20.704395
635.149661	-3.035200	3.685400	-11.185000	24.432861	0.001028	20.699972
636.153317	-3.012300	3.686200	-11.102000	24.428933	0.001028	20.715947
637.161992	-3.018700	3.684800	-11.122000	24.426774	0.001028	20.699554
638.158817	-3.008600	3.686500	-11.088000	24.420027	0.001029	20.704166
639.156442	-3.043400	3.683600	-11.209000	24.390625	0.001026	20.723984
640.153666	-2.993700	3.686000	-11.034000	24.379958	0.001027	20.707117
641.152621	-3.017800	3.684000	-11.117000	24.395034	0.001027	20.719871
642.156576	-3.010500	3.684400	-11.092000	24.400184	0.001027	20.699432
643.151819	-3.031300	3.683500	-11.165000	24.429658	0.001028	20.701975
644.154262	-3.005500	3.684000	-11.070000	24.465007	0.001026	20.701876
645.152581	-2.998200	3.683600	-11.042000	24.440838	0.001026	20.715562
646.153184	-2.986400	3.683700	-11.000000	24.454438	0.001026	20.700756
647.154631	-3.004600	3.682700	-11.065000	24.449271	0.001025	20.696995
648.154227	-3.001500	3.683600	-11.055000	24.444391	0.001027	20.716756
649.154286	-2.980900	3.683500	-10.979000	24.457599	0.001026	20.712464
650.155456	-2.994500	3.683600	-11.029000	24.455619	0.001026	20.706683
651.154073	-2.994000	3.681300	-11.021000	24.482452	0.001026	20.708948
652.154582	-2.992400	3.681200	-11.015000	24.484742	0.001026	20.691803
653.159098	-2.999300	3.681600	-11.041000	24.464297	0.001024	20.712545
654.157374	-2.981000	3.681500	-10.974000	24.473578	0.001025	20.710951
655.157373	-3.005700	3.680700	-11.061000	24.468681	0.001027	20.720737
656.158028	-3.016300	3.681000	-11.101000	24.498055	0.001027	20.701369
657.157368	-2.982200	3.681300	-10.977000	24.525963	0.001025	20.712300
658.159104	-3.017800	3.679100	-11.101000	24.511940	0.001024	20.712455
659.158548	-3.001100	3.678700	-11.039000	24.520047	0.001024	20.698302
660.160560	-3.005700	3.679100	-11.057000	24.507865	0.001024	20.713108
661.159434	-3.004200	3.678300	-11.050000	24.530542	0.001023	20.708359
662.160701	-3.000200	3.679300	-11.037000	24.563972	0.001025	20.715823
663.161592	-3.018300	3.677700	-11.099000	24.582028	0.001023	20.720663
664.164315	-2.982400	3.676700	-10.965000	24.584912	0.001024	20.722609
665.163596	-2.995300	3.677100	-11.012000	24.621217	0.001025	20.731537
666.160778	-2.999600	3.677000	-11.029000	24.615131	0.001023	20.718791
667.165167	-3.023000	3.675500	-11.110000	24.662776	0.001025	20.713019
668.168344	-3.010500	3.677700	-11.071000	24.637218	0.001024	20.732894
669.164221	-3.000900	3.676400	-11.031000	24.643744	0.001023	20.717631
670.167275	-3.007400	3.676200	-11.054000	24.656682	0.001024	20.726345
671.163048	-3.007200	3.674800	-11.049000	24.667770	0.001022	20.732731
672.163699	-2.999900	3.675500	-11.025000	24.673009	0.001024	20.721866
673.165538	-3.000900	3.675700	-11.029000	24.654507	0.001023	20.729853
674.167739	-2.998800	3.676800	-11.025000	24.617152	0.001025	20.728880
675.169228	-2.988800	3.675500	-10.984000	24.597322	0.001023	20.729371
676.166455	-2.980400	3.674100	-10.949000	24.556657	0.001021	20.720812
677.168260	-2.999600	3.675500	-11.024000	24.520138	0.001024	20.731113
678.166694	-3.002200	3.673300	-11.027000	24.524335	0.001021	20.726314
679.169539	-3.029500	3.672400	-11.123000	24.539132	0.001024	20.717926
680.167974	-2.994700	3.672500	-10.998000	24.540599	0.001022	20.721295
681.168823	-2.991800	3.672100	-10.985000	24.553717	0.001021	20.744890
682.168415	-2.994800	3.673400	-11.000000	24.566494	0.001020	20.738268
683.168125	-2.987300	3.672300	-10.969000	24.596558	0.001021	20.723863
684.172153	-3.003900	3.672900	-11.032000	24.594220	0.001021	20.737165
685.170044	-3.003700	3.671400	-11.025000	24.586245	0.001019	20.732956
686.170248	-2.993300	3.671300	-10.988000	24.560775	0.001021	20.739643
687.170051	-3.010200	3.671100	-11.049000	24.520826	0.001020	20.733700
688.171065	-3.004100	3.669800	-11.024000	24.517780	0.001019	20.730169
689.172933	-2.981600	3.670900	-10.943000	24.494916	0.001021	20.748482
690.173300	-3.009800	3.668900	-11.041000	24.513820	0.001019	20.718609
691.172060	-3.000000	3.669100	-11.006000	24.526344	0.001020	20.744452
692.175846	-2.976000	3.668800	-10.917000	24.534965	0.001019	20.747887
693.172053	-3.007000	3.667700	-11.028000	24.568836	0.001018	20.729713
694.171954	-3.007600	3.670400	-11.039000	24.577506	0.001016	20.736516
695.175497	-2.991900	3.668200	-10.974000	24.595952	0.001018	20.740326
696.173901	-2.986600	3.668400	-10.955000	24.608060	0.001019	20.733034
697.186321	-2.988600	3.668300	-10.962000	24.640112	0.001017	20.742910
698.173290	-3.005100	3.668200	-11.021000	24.627272	0.001018	20.758476
699.174801	-3.005400	3.666000	-11.016000	24.625977	0.001017	20.745322
700.174734	-2.991700	3.667300	-10.971000	24.665956	0.001017	20.772637
701.174605	-2.992000	3.666100	-10.967000	24.693435	0.001016	20.731932
702.174942	-3.009400	3.665700	-11.030000	24.697729	0.001015	20.749518
703.173320	-2.991600	3.666100	-10.966000	24.688369	0.001016	20.763834
704.175814	-2.994800	3.666100	-10.977000	24.701518	0.001017	20.746682
705.175514	-3.022200	3.664700	-11.074000	24.692362	0.001015	20.755512
706.175688	-2.964900	3.666100	-10.869000	24.695710	0.001016	20.747018
707.181736	-2.997000	3.665200	-10.983000	24.682105	0.001013	20.766083
708.178008	-2.990100	3.665100	-10.959000	24.717960	0.001015	20.764130
709.174430	-2.981300	3.665400	-10.926000	24.721186	0.001014	20.776377
710.174721	-2.958100	3.666300	-10.843000	24.748412	0.001014	20.761972
711.177444	-2.989900	3.664700	-10.956000	24.748705	0.001014	20.767957
712.175025	-3.005500	3.663700	-11.010000	24.738034	0.001013	20.741600
713.179101	-3.001300	3.663000	-10.992000	24.697195	0.001013	20.761311
714.173975	-2.992800	3.663300	-10.962000	24.698067	0.001013	20.776411
715.175171	-3.021900	3.661800	-11.064000	24.721009	0.001014	20.750120
716.183697	-2.987600	3.662300	-10.940000	24.696373	0.001013	20.761908
717.173809	-2.977200	3.663700	-10.907000	24.735649	0.001013	20.770027
718.176754	-3.009900	3.661800	-11.021000	24.719934	0.001012	20.754731
719.173813	-2.993000	3.663300	-10.964000	24.713735	0.001013	20.778857
720.173890	-3.027400	3.660600	-11.079000	24.720830	0.001012	20.765588
721.174387	-3.003200	3.660900	-10.993000	24.720798	0.001010	20.762711
722.176827	-2.993500	3.661000	-10.958000	24.694680	0.001012	20.749304
723.175259	-3.018100	3.659200	-11.043000	24.708155	0.001011	20.771835
724.176799	-2.997900	3.659900	-10.970000	24.757970	0.001011	20.765875
725.175380	-2.991000	3.660400	-10.945000	24.745735	0.001009	20.775407
726.174898	-2.990400	3.658900	-10.941000	24.715120	0.001009	20.774557
727.179629	-2.971700	3.660700	-10.877000	24.716367	0.001011	20.796197
728.176849	-3.001100	3.658600	-10.979000	24.704351	0.001011	20.777975
729.178166	-3.004600	3.659000	-10.992000	24.705523	0.001008	20.778203
730.174429	-2.995100	3.659100	-10.959000	24.734395	0.001010	20.789158
731.178059	-3.006500	3.658800	-11.000000	24.763013	0.001008	20.775203
732.177154	-3.013000	3.656600	-11.016000	24.784747	0.001009	20.769513
733.178265	-3.006000	3.656300	-10.990000	24.777709	0.001008	20.777149
734.177050	-3.010900	3.656300	-11.007000	24.747299	0.001010	20.774132
735.183698	-2.983900	3.658300	-10.915000	24.747771	0.001006	20.767494
736.186497	-3.005400	3.656300	-10.988000	24.761978	0.001007	20.789812
737.177534	-2.995300	3.656800	-10.952000	24.782792	0.001006	20.795526
738.179312	-2.997100	3.656700	-10.958000	24.789227	0.001008	20.772113
739.178534	-2.992600	3.656400	-10.941000	24.803800	0.001007	20.794799
740.183226	-3.027200	3.654400	-11.062000	24.813600	0.001007	20.780925
741.179120	-3.033000	3.653400	-11.080000	24.822332	0.001006	20.794430
742.178624	-2.997900	3.655500	-10.958000	24.839837	0.001007	20.778808
743.182155	-3.003300	3.654700	-10.975000	24.854059	0.001005	20.781702
744.180250	-3.011800	3.654400	-11.006000	24.903843	0.001005	20.786623
745.179346	-2.988600	3.652800	-10.915000	24.909285	0.001004	20.809628
746.184253	-2.963900	3.654500	-10.830000	24.922985	0.001005	20.783075
747.179014	-2.999000	3.653400	-10.955000	24.925868	0.001005	20.764632
748.178532	-3.027100	3.653400	-11.058000	24.944341	0.001004	20.787441
749.184851	-2.991300	3.653900	-10.927000	24.899266	0.001004	20.783925
750.180702	-2.994400	3.652800	-10.937000	24.871938	0.001004	20.797750
751.185785	-2.985800	3.652600	-10.905000	24.879823	0.001002	20.789542
752.179761	-2.996100	3.653200	-10.944000	24.896106	0.001004	20.796875
753.179240	-2.984600	3.652700	-10.900000	24.887007	0.001002	20.781579
754.184001	-2.987200	3.652900	-10.911000	24.837100	0.001001	20.806881
755.179656	-2.991800	3.650500	-10.920000	24.833345	0.001002	20.794578
756.186885	-2.990400	3.653300	-10.923000	24.822251	0.001004	20.786763
757.181732	-3.009300	3.649300	-10.981000	24.800077	0.001002	20.796278
758.180678	-3.010300	3.650600	-10.989000	24.814023	0.001002	20.808377
759.182048	-3.013100	3.650000	-10.996000	24.826975	0.001001	20.811419
760.180741	-2.984300	3.648800	-10.888000	24.857114	0.001001	20.818433
761.186166	-3.013600	3.648500	-10.993000	24.865821	0.000999	20.794929
762.184792	-3.000200	3.648100	-10.944000	24.849131	0.001000	20.802361
763.181625	-3.021200	3.648300	-11.021000	24.823269	0.001001	20.795845
764.182657	-2.991300	3.648900	-10.914000	24.819791	0.001001	20.795199
765.189259	-2.981400	3.649000	-10.878000	24.833989	0.000999	20.791905
766.183502	-3.020700	3.646700	-11.014000	24.834493	0.000999	20.790989
767.186584	-2.988800	3.647400	-10.900000	24.893653	0.000999	20.799155
768.182238	-2.996300	3.647900	-10.929000	24.883977	0.001002	20.804616
769.191178	-2.977900	3.648300	-10.863000	24.948673	0.000999	20.818816
770.183064	-2.998300	3.646000	-10.930000	24.964319	0.000999	20.787105
771.187563	-2.997500	3.646800	-10.930000	24.963545	0.000996	20.805294
772.184736	-3.002700	3.644700	-10.943000	24.939127	0.000998	20.804968
773.188591	-3.015600	3.645500	-10.992000	24.947761	0.000996	20.802253
774.190019	-2.982400	3.645200	-10.871000	24.960141	0.000998	20.794291
775.190815	-3.035600	3.644800	-11.063000	24.942124	0.000996	20.807027
776.188065	-3.000000	3.645900	-10.937000	24.939240	0.000995	20.802236
777.197642	-3.012800	3.643700	-10.977000	24.949332	0.000996	20.810469
778.189141	-3.001700	3.644800	-10.940000	24.932196	0.000998	20.802752
779.189701	-3.017000	3.643100	-10.990000	24.947955	0.000997	20.804344
780.192776	-3.005000	3.644000	-10.949000	24.939493	0.000995	20.807705
781.195698	-2.983100	3.644700	-10.872000	24.953941	0.000996	20.803715
782.193157	-3.014400	3.643800	-10.982000	24.967185	0.000995	20.808948
783.192864	-3.003500	3.642400	-10.939000	24.970720	0.000995	20.798271
784.197747	-3.011500	3.642200	-10.967000	24.972088	0.000995	20.829041
785.198458	-3.008400	3.642000	-10.955000	24.976298	0.000998	20.798655
786.197045	-3.015900	3.641200	-10.980000	24.978009	0.000992	20.803691
787.196080	-2.982000	3.640900	-10.857000	24.980151	0.000995	20.810108
788.190630	-3.018800	3.641000	-10.990000	24.974377	0.000995	20.808105
789.204204	-3.018200	3.641800	-10.991000	24.976592	0.000992	20.815070
790.201086	-2.999700	3.641700	-10.922000	24.961231	0.000991	20.823359
791.193657	-3.000400	3.639800	-10.920000	24.946880	0.000993	20.821283
792.191263	-3.001900	3.641000	-10.929000	24.920653	0.000991	20.805391
793.192125	-3.003900	3.639400	-10.931000	24.904086	0.000993	20.798721
794.192265	-2.995700	3.639000	-10.900000	24.862936	0.000993	20.805310
795.192115	-3.004100	3.640200	-10.934000	24.862537	0.000991	20.834780
796.195154	-3.044300	3.637100	-11.071000	24.890060	0.000991	20.819731
797.201769	-3.008300	3.639100	-10.946000	24.859083	0.000991	20.825624
798.207757	-3.013700	3.638200	-10.963000	24.888969	0.000991	20.824325
799.201422	-3.019200	3.637100	-10.980000	24.910098	0.000990	20.806177
800.203365	-3.001200	3.637900	-10.917000	24.917233	0.000989	20.832304
801.195630	-3.009800	3.637600	-10.948000	24.906066	0.000990	20.812562
802.206603	-2.990800	3.637000	-10.877000	24.902531	0.000989	20.825609
803.195030	-2.991500	3.638600	-10.884000	24.889808	0.000988	20.821374
804.195253	-3.001900	3.636900	-10.916000	24.903843	0.000989	20.824081
805.196349	-2.993400	3.637800	-10.888000	24.956753	0.000988	20.830245
806.209104	-3.013000	3.635000	-10.951000	24.982588	0.000988	20.846218
807.199387	-3.004800	3.635700	-10.924000	25.017585	0.000988	20.817337
808.200557	-3.032100	3.635300	-11.020000	25.049999	0.000987	20.843235
809.204625	-3.028700	3.635100	-11.008000	25.073820	0.000986	20.839172
810.195801	-2.998500	3.635000	-10.899000	25.094929	0.000987	20.832387
811.197204	-2.988100	3.634800	-10.861000	25.112821	0.000987	20.823321
812.208853	-2.990600	3.635500	-10.871000	25.117821	0.000988	20.831185
813.209136	-2.996300	3.635700	-10.892000	25.100971	0.000985	20.837504
814.199068	-3.007400	3.634700	-10.930000	25.114287	0.000987	20.841388
815.206742	-3.030200	3.632200	-11.005000	25.099726	0.000985	20.874184
816.217173	-3.009800	3.633200	-10.934000	25.110183	0.000984	20.847225
817.208325	-3.002100	3.633600	-10.907000	25.106754	0.000986	20.855636
818.201266	-3.040900	3.632100	-11.042000	25.089547	0.000983	20.855906
819.198451	-2.995700	3.632800	-10.882000	25.060041	0.000984	20.842884
820.197506	-3.008000	3.632600	-10.925000	25.063715	0.000985	20.850364
821.197649	-2.970000	3.633200	-10.789000	25.050244	0.000981	20.846800
822.199657	-2.990200	3.631300	-10.857000	25.015069	0.000982	20.826665
823.201440	-3.030300	3.631200	-11.002000	25.008284	0.000981	20.850200
824.200793	-3.002000	3.632300	-10.902000	25.014295	0.000981	20.822095
825.204895	-3.000500	3.629900	-10.891000	25.029436	0.000981	20.839189
826.206354	-2.998300	3.630600	-10.884000	25.042686	0.000983	20.827834
827.206138	-2.998800	3.630200	-10.885000	25.048827	0.000980	20.840636
828.201490	-3.004100	3.630100	-10.903000	25.058331	0.000980	20.860606
829.202348	-3.009600	3.628700	-10.920000	25.085499	0.000980	20.857533
830.210897	-3.019300	3.629400	-10.957000	25.096224	0.000981	20.858341
831.203587	-3.013500	3.628500	-10.933000	25.054055	0.000980	20.846358
832.201235	-2.996100	3.629400	-10.873000	25.058656	0.000979	20.853821
833.222534	-3.015300	3.629000	-10.942000	25.079692	0.000979	20.837954
834.204200	-3.013700	3.626600	-10.928000	25.123171	0.000979	20.840349
835.216163	-3.015100	3.628200	-10.938000	25.117853	0.000979	20.819364
836.217311	-3.010200	3.626800	-10.916000	25.088536	0.000979	20.834504
837.205830	-2.980300	3.627000	-10.809000	25.068926	0.000977	20.850853
838.217122	-2.997200	3.626400	-10.867000	25.106094	0.000978	20.828896
839.210426	-3.005500	3.626600	-10.899000	25.089741	0.000977	20.853730
840.205613	-2.976100	3.626500	-10.792000	25.103862	0.000975	20.856052
841.206665	-3.002200	3.625400	-10.883000	25.129392	0.000977	20.833792
842.207730	-3.017000	3.626700	-10.940000	25.125369	0.000976	20.825012
843.212054	-3.004700	3.625900	-10.892000	25.123529	0.000975	20.856354
844.209150	-2.964100	3.627300	-10.750000	25.075025	0.000975	20.807665
845.218944	-3.000700	3.625600	-10.878000	25.025011	0.000974	20.819101
846.209451	-2.983800	3.625500	-10.817000	25.039060	0.000975	20.818505
847.215149	-3.007700	3.624600	-10.900000	25.001743	0.000974	20.797168
848.209325	-3.022900	3.623400	-10.952000	25.011239	0.000975	20.822821
849.224658	-3.012400	3.625000	-10.919000	25.048931	0.000973	20.819404
850.209027	-3.008200	3.624400	-10.903000	25.076530	0.000973	20.825297
851.209605	-3.018700	3.622100	-10.933000	25.101939	0.000974	20.814294
852.209384	-3.012700	3.622700	-10.912000	25.134366	0.000972	20.821716
853.210229	-3.003000	3.621500	-10.873000	25.120710	0.000971	20.825076
854.212048	-3.012300	3.621400	-10.906000	25.084470	0.000972	20.822836
855.213250	-2.972400	3.622600	-10.767000	25.060608	0.000972	20.824013
856.219232	-3.012900	3.620900	-10.909000	25.015440	0.000972	20.803330
857.212713	-3.012300	3.621600	-10.908000	25.003183	0.000970	20.802880
858.215374	-2.999000	3.621700	-10.861000	25.027022	0.000972	20.817800
859.223686	-3.001300	3.620900	-10.866000	25.042071	0.000971	20.802087
860.216532	-3.016200	3.621600	-10.921000	25.066186	0.000969	20.791680
861.215158	-2.994100	3.619200	-10.835000	25.056308	0.000970	20.803576
862.217255	-3.010700	3.619400	-10.895000	25.039042	0.000970	20.799994
863.218110	-2.998500	3.621100	-10.856000	25.056095	0.000970	20.817587
864.217278	-3.015600	3.617300	-10.907000	25.056022	0.000967	20.803289
865.217520	-2.992800	3.619300	-10.831000	25.075738	0.000968	20.803166
866.217883	-2.987300	3.617800	-10.806000	25.076120	0.000969	20.822989
867.229149	-3.011800	3.619000	-10.898000	25.067016	0.000966	20.808635
868.221290	-2.989400	3.618000	-10.815000	25.066226	0.000966	20.792194
869.220797	-2.973300	3.618600	-10.758000	25.063766	0.000964	20.789251
870.219228	-2.993800	3.617800	-10.830000	25.048700	0.000966	20.793094
871.219460	-2.990800	3.617800	-10.819000	25.052381	0.000966	20.795840
872.219151	-2.996600	3.617700	-10.840000	25.056094	0.000965	20.791033
873.225498	-3.004600	3.617200	-10.867000	25.070859	0.000965	20.785466
874.219457	-3.004200	3.617200	-10.866000	25.110511	0.000965	20.783070
875.219231	-2.995500	3.617800	-10.836000	25.134274	0.000966	20.770889
876.224138	-3.014700	3.615200	-10.898000	25.160430	0.000963	20.797622
877.220201	-3.004000	3.616000	-10.859000	25.180641	0.000964	20.799420
878.220106	-2.999800	3.615000	-10.844000	25.160976	0.000963	20.778255
879.219934	-3.023700	3.613900	-10.926000	25.150813	0.000964	20.776113
880.220521	-3.009800	3.614100	-10.877000	25.123841	0.000962	20.775589
881.222705	-2.977400	3.615100	-10.762000	25.130902	0.000962	20.776987
882.228581	-3.003900	3.614000	-10.854000	25.128736	0.000961	20.775287
883.223512	-2.997400	3.613900	-10.830000	25.142588	0.000960	20.791089
884.225586	-3.027000	3.612600	-10.935000	25.147181	0.000959	20.769148
885.227966	-3.007200	3.614600	-10.867000	25.181781	0.000960	20.801987
886.225334	-3.002000	3.613000	-10.846000	25.143492	0.000959	20.772083
887.229176	-2.989300	3.611700	-10.796000	25.132832	0.000959	20.781770
888.228072	-2.995500	3.612600	-10.820000	25.139161	0.000960	20.775321
889.228824	-3.002000	3.611700	-10.841000	25.126237	0.000962	20.781313
890.228153	-2.981300	3.612200	-10.768000	25.138118	0.000958	20.776171
891.227059	-2.998300	3.611700	-10.828000	25.109869	0.000957	20.788116
892.233217	-3.002900	3.610700	-10.842000	25.146108	0.000958	20.774235
893.230690	-3.012200	3.609300	-10.870000	25.135986	0.000958	20.783514
894.226754	-2.996300	3.611100	-10.818000	25.159203	0.000957	20.785484
895.228400	-3.010200	3.610800	-10.868000	25.157949	0.000958	20.791812
896.227683	-3.017700	3.609200	-10.889000	25.159863	0.000960	20.773819
897.226897	-3.018100	3.610100	-10.895000	25.127095	0.000957	20.782174
898.230403	-3.004500	3.610000	-10.845000	25.084822	0.000956	20.777671
899.226602	-3.000800	3.608300	-10.826000	25.067590	0.000956	20.764640
900.231295	-3.032000	3.607400	-10.936000	25.067012	0.000955	20.778285
901.228697	-3.004000	3.609300	-10.842000	25.120452	0.000953	20.761755
902.229278	-3.016700	3.607500	-10.882000	25.147765	0.000955	20.785856
903.229544	-3.005100	3.607600	-10.841000	25.150599	0.000953	20.768786
904.228713	-2.996100	3.606600	-10.805000	25.110452	0.000952	20.773054
905.230785	-2.992300	3.607900	-10.795000	25.108433	0.000953	20.760595
906.231579	-3.022900	3.605600	-10.899000	25.095819	0.000952	20.763105
907.228562	-3.016700	3.606000	-10.877000	25.085648	0.000951	20.753369
908.228606	-2.973000	3.606400	-10.721000	25.068114	0.000953	20.776546
909.230745	-3.010500	3.605300	-10.852000	25.073587	0.000953	20.780617
910.228461	-3.019000	3.604700	-10.882000	25.085388	0.000950	20.756902
911.228657	-2.979500	3.606400	-10.744000	25.131204	0.000950	20.766859
912.229233	-3.019400	3.604400	-10.881000	25.144201	0.000951	20.771372
913.229440	-2.958100	3.606200	-10.666000	25.139551	0.000948	20.785196
914.233836	-3.003000	3.603900	-10.820000	25.140863	0.000947	20.767073
915.229105	-3.009300	3.603500	-10.842000	25.134348	0.000948	20.754842
916.229733	-2.972500	3.606200	-10.718000	25.178175	0.000948	20.763753
917.229145	-2.980000	3.605300	-10.743000	25.168470	0.000946	20.769183
918.233113	-2.990800	3.604500	-10.779000	25.186449	0.000948	20.768266
919.233113	-2.989200	3.603700	-10.771000	25.182989	0.000947	20.757206
920.234549	-2.996500	3.603800	-10.798000	25.181662	0.000947	20.746390
921.233836	-3.024300	3.602800	-10.895000	25.194235	0.000947	20.746211
922.228572	-3.012000	3.602700	-10.850000	25.152844	0.000947	20.762030
923.230091	-2.991400	3.601100	-10.771000	25.161199	0.000943	20.765202
924.230831	-3.001100	3.600900	-10.805000	25.186769	0.000945	20.751518
925.231906	-3.004700	3.600800	-10.818000	25.216670	0.000944	20.767787
926.229537	-3.007100	3.601400	-10.828000	25.245895	0.000945	20.772946
927.230270	-2.985600	3.601500	-10.752000	25.209985	0.000943	20.752065
928.230128	-3.011500	3.599700	-10.839000	25.228120	0.000942	20.765531
929.233562	-2.999900	3.598100	-10.792000	25.247532	0.000943	20.760364
930.231410	-2.970500	3.601000	-10.696000	25.261871	0.000943	20.763855
931.230576	-2.981900	3.599300	-10.731000	25.290346	0.000941	20.754986
932.230857	-2.994800	3.598600	-10.776000	25.292878	0.000941	20.785030
933.229574	-3.017900	3.599200	-10.861000	25.304335	0.000941	20.765712
934.230138	-2.998900	3.600200	-10.796000	25.266033	0.000939	20.758551
935.235642	-3.009900	3.598100	-10.829000	25.246866	0.000940	20.768231
936.231472	-3.016800	3.596600	-10.849000	25.228488	0.000940	20.781075
937.234039	-3.012100	3.596200	-10.830000	25.237217	0.000939	20.767078
938.232625	-3.016400	3.595200	-10.841000	25.233512	0.000938	20.754824
939.231553	-2.990800	3.595900	-10.754000	25.240499	0.000936	20.755674
940.235929	-3.012600	3.595700	-10.831000	25.255212	0.000937	20.755747
941.233805	-2.989500	3.596100	-10.749000	25.272931	0.000938	20.780650
942.233769	-3.017100	3.594400	-10.843000	25.291682	0.000936	20.769130
943.232438	-3.003000	3.595400	-10.796000	25.301217	0.000936	20.750254
944.235373	-2.999600	3.596300	-10.787000	25.335243	0.000936	20.744588
945.235506	-2.990500	3.595300	-10.751000	25.353016	0.000935	20.764806
946.240107	-3.010100	3.595900	-10.822000	25.351551	0.000935	20.749583
947.236929	-2.983900	3.594700	-10.724000	25.347097	0.000935	20.745112
948.239105	-3.012800	3.591500	-10.819000	25.331766	0.000935	20.747736
949.238003	-3.005400	3.593500	-10.797000	25.275138	0.000934	20.746355
950.237594	-3.021400	3.593300	-10.855000	25.273525	0.000934	20.743787
951.241785	-3.003300	3.593900	-10.793000	25.277027	0.000933	20.743510
952.237916	-3.019100	3.591700	-10.842000	25.291789	0.000932	20.744581
953.238783	-3.003500	3.592400	-10.789000	25.273599	0.000932	20.761405
954.246913	-3.005200	3.591600	-10.792000	25.262810	0.000934	20.738719
955.238937	-2.992900	3.591200	-10.748000	25.260522	0.000932	20.760604
956.240057	-2.970000	3.591900	-10.667000	25.234352	0.000932	20.744760
957.242869	-3.014600	3.589800	-10.820000	25.232969	0.000932	20.741475
958.238878	-2.988700	3.590900	-10.731000	25.221715	0.000932	20.757204
959.243125	-3.007200	3.588500	-10.791000	25.204176	0.000929	20.746234
960.239326	-3.007000	3.589000	-10.791000	25.196725	0.000930	20.751556
961.238645	-2.979600	3.589800	-10.696000	25.224436	0.000930	20.740969
962.240699	-3.000900	3.589800	-10.771000	25.268716	0.000929	20.751287
963.245245	-2.988600	3.590000	-10.728000	25.282639	0.000928	20.733971
964.242451	-2.999700	3.589700	-10.767000	25.306668	0.000930	20.743398
965.239649	-2.999300	3.588500	-10.761000	25.300448	0.000929	20.739998
966.250356	-3.005900	3.589100	-10.786000	25.286126	0.000930	20.747430
967.241770	-3.007400	3.587600	-10.787000	25.335330	0.000926	20.741356
968.242979	-2.995700	3.587100	-10.744000	25.321733	0.000927	20.726755
969.243047	-2.965400	3.588800	-10.640000	25.318444	0.000925	20.759016
970.248482	-3.004100	3.587400	-10.776000	25.324583	0.000925	20.753800
971.242981	-3.003300	3.585700	-10.767000	25.332124	0.000924	20.762795
972.242839	-2.985800	3.586900	-10.708000	25.339452	0.000924	20.756876
973.244951	-3.012800	3.585600	-10.801000	25.340193	0.000922	20.752879
974.244568	-2.990500	3.586500	-10.725000	25.341260	0.000923	20.744941
975.247753	-2.990500	3.585100	-10.720000	25.332305	0.000923	20.737845
976.243973	-2.986100	3.585500	-10.706000	25.304264	0.000924	20.740985
977.244658	-2.999100	3.585000	-10.751000	25.326435	0.000924	20.739538
978.246408	-3.006900	3.584000	-10.775000	25.300520	0.000921	20.740545
979.246741	-3.024800	3.583100	-10.837000	25.342500	0.000922	20.736702
980.243846	-3.002100	3.583900	-10.759000	25.340947	0.000921	20.738935
981.243757	-2.992700	3.584800	-10.725000	25.371365	0.000920	20.743400
982.244383	-3.022300	3.582400	-10.826000	25.416273	0.000920	20.745820
983.244785	-3.016000	3.581500	-10.801000	25.412432	0.000917	20.734850
984.246703	-2.997500	3.583200	-10.739000	25.442554	0.000920	20.718629
985.243871	-2.993600	3.583300	-10.725000	25.479027	0.000919	20.755730
986.244873	-3.034900	3.580500	-10.865000	25.432151	0.000918	20.747539
987.244718	-3.017500	3.580300	-10.803000	25.449566	0.000917	20.744163
988.257785	-2.995400	3.580600	-10.724000	25.449086	0.000918	20.732776
989.245224	-2.985300	3.582000	-10.692000	25.446596	0.000918	20.736439
990.245522	-2.992600	3.580900	-10.714000	25.416596	0.000916	20.740928
991.246760	-2.981100	3.580700	-10.674000	25.404930	0.000915	20.744861
992.244515	-3.000200	3.579800	-10.739000	25.381467	0.000915	20.728886
993.247790	-3.008200	3.578600	-10.764000	25.330288	0.000915	20.731552
994.247674	-3.001700	3.578400	-10.740000	25.307882	0.000916	20.751256
995.247197	-3.009300	3.577900	-10.766000	25.310642	0.000914	20.727948
996.250461	-2.989900	3.579500	-10.701000	25.310505	0.000914	20.742036
997.248290	-2.984000	3.577600	-10.675000	25.315301	0.000914	20.723142
998.247453	-2.980300	3.578800	-10.664000	25.337083	0.000914	20.735530
999.250502	-3.005300	3.576900	-10.749000	25.320579	0.000912	20.717535
1000.249561	-2.996000	3.576900	-10.716000	25.324269	0.000912	20.745898
1001.253596	-2.995400	3.576400	-10.711000	25.343704	0.000908	20.740756
1002.249448	-2.982600	3.576700	-10.667000	25.360070	0.000911	20.716410
1003.250782	-3.014000	3.576700	-10.780000	25.428158	0.000910	20.736891
1004.255298	-3.003900	3.576900	-10.742000	25.436291	0.000909	20.737945
1005.253054	-2.996100	3.574400	-10.707000	25.437539	0.000908	20.724973
1006.253645	-3.029300	3.574700	-10.828000	25.438378	0.000910	20.719651
1007.256179	-3.006200	3.574600	-10.745000	25.384540	0.000907	20.740982
1008.255395	-3.001400	3.576000	-10.731000	25.378125	0.000906	20.754929
1009.255352	-2.999500	3.575400	-10.723000	25.428244	0.000908	20.734132
1010.261080	-3.024000	3.572600	-10.803000	25.433015	0.000908	20.724223
1011.255558	-3.006500	3.574000	-10.742000	25.472216	0.000905	20.752684
1012.256450	-3.007500	3.574200	-10.747000	25.471793	0.000906	20.737560
1013.267023	-2.968000	3.574200	-10.605000	25.486332	0.000902	20.755480
1014.262702	-2.993100	3.573000	-10.694000	25.499944	0.000905	20.729793
1015.260123	-3.015100	3.572500	-10.770000	25.471135	0.000903	20.719354
1016.255561	-2.986200	3.572600	-10.667000	25.447599	0.000902	20.731756
1017.257957	-2.981200	3.572300	-10.648000	25.432506	0.000904	20.726084
1018.256933	-2.979000	3.572200	-10.641000	25.422965	0.000902	20.727408
1019.257397	-2.996500	3.571500	-10.701000	25.416630	0.000903	20.703976
1020.258674	-2.995600	3.570100	-10.693000	25.395766	0.000900	20.721433
1021.258334	-2.994900	3.568900	-10.688000	25.414556	0.000901	20.725128
1022.258307	-2.996900	3.569500	-10.696000	25.400414	0.000901	20.700969
1023.258653	-2.953700	3.572600	-10.550000	25.351923	0.000898	20.728145
1024.260735	-2.980900	3.569300	-10.639000	25.397654	0.000898	20.742297
1025.260097	-2.987100	3.569400	-10.659000	25.424049	0.000898	20.723755
1026.262087	-2.989100	3.568300	-10.665000	25.448774	0.000899	20.722030
1027.261095	-3.015100	3.565900	-10.751000	25.433118	0.000899	20.730017
1028.263316	-3.000000	3.569200	-10.705000	25.449368	0.000896	20.719782
1029.261970	-3.008700	3.568600	-10.735000	25.464233	0.000896	20.713846
1030.261593	-3.010100	3.567500	-10.737000	25.458315	0.000896	20.714541
1031.262941	-3.022000	3.566800	-10.777000	25.467955	0.000895	20.729437
1032.262632	-3.004400	3.566400	-10.714000	25.497180	0.000896	20.720853
1033.262961	-3.025600	3.566800	-10.791000	25.501992	0.000893	20.710512
1034.264225	-2.996800	3.566000	-10.686000	25.479182	0.000896	20.725538
1035.263681	-2.997400	3.565500	-10.686000	25.463177	0.000893	20.694765
1036.265589	-2.993800	3.564800	-10.670000	25.449288	0.000894	20.716381
1037.269022	-2.986700	3.566900	-10.651000	25.456835	0.000894	20.705468
1038.265144	-3.002100	3.566000	-10.705000	25.457870	0.000894	20.712197
1039.266021	-2.985100	3.565400	-10.641000	25.455282	0.000891	20.692527
1040.265539	-3.023100	3.562400	-10.768000	25.437860	0.000891	20.711544
1041.266434	-3.017000	3.564400	-10.753000	25.372850	0.000891	20.701267
1042.270492	-2.983500	3.563600	-10.631000	25.363350	0.000889	20.705004
1043.267814	-3.007500	3.563500	-10.716000	25.341994	0.000888	20.691621
1044.268645	-2.995100	3.562500	-10.670000	25.293434	0.000889	20.718256
1045.268248	-3.008900	3.562500	-10.718000	25.279830	0.000888	20.704122
1046.269549	-3.018900	3.562700	-10.754000	25.261314	0.000888	20.722043
1047.269213	-3.006000	3.562700	-10.708000	25.285374	0.000887	20.717276
1048.268266	-3.007400	3.562200	-10.711000	25.285945	0.000886	20.715004
1049.268686	-2.997500	3.562300	-10.678000	25.338780	0.000887	20.715421
1050.268878	-2.984400	3.562600	-10.632000	25.355706	0.000886	20.701122
1051.268350	-2.987600	3.561600	-10.639000	25.383812	0.000886	20.725077
1052.269002	-2.994600	3.562100	-10.666000	25.396114	0.000886	20.693331
1053.273021	-3.022000	3.560200	-10.757000	25.421385	0.000885	20.694525
1054.270981	-2.979900	3.560800	-10.610000	25.464770	0.000884	20.709169
1055.271367	-3.010700	3.558700	-10.713000	25.476777	0.000883	20.703208
1056.271110	-3.004000	3.559400	-10.692000	25.481817	0.000882	20.713485
1057.273798	-3.009900	3.558500	-10.710000	25.487028	0.000884	20.707338
1058.274521	-2.991000	3.560300	-10.648000	25.480337	0.000882	20.708680
1059.273787	-3.024400	3.557400	-10.757000	25.454693	0.000879	20.719913
1060.273417	-2.995200	3.558300	-10.656000	25.435032	0.000880	20.709179
1061.274436	-3.031300	3.555800	-10.778000	25.462216	0.000881	20.715139
1062.275813	-2.991900	3.558500	-10.646000	25.456046	0.000880	20.714159
1063.277268	-2.987700	3.558100	-10.630000	25.471310	0.000880	20.693924
1064.277285	-2.987800	3.557100	-10.625000	25.487258	0.000881	20.706621
1065.281726	-3.037400	3.554900	-10.796000	25.480225	0.000878	20.737018
1066.278041	-3.008600	3.555200	-10.694000	25.488668	0.000881	20.713253
1067.278674	-3.010600	3.554300	-10.699000	25.457057	0.000878	20.714226
1068.284969	-2.991000	3.556700	-10.638000	25.439082	0.000881	20.710874
1069.280487	-2.992300	3.555400	-10.636000	25.402300	0.000877	20.729891
1070.280596	-3.001900	3.554000	-10.668000	25.402789	0.000877	20.701457
1071.280365	-2.987300	3.554800	-10.618000	25.390008	0.000874	20.715651
1072.280350	-3.005800	3.554600	-10.683000	25.396122	0.000876	20.717997
1073.283490	-2.989100	3.553600	-10.620000	25.424381	0.000876	20.709862
1074.280333	-2.978600	3.554000	-10.585000	25.478877	0.000876	20.711482
1075.281251	-3.000900	3.553100	-10.660000	25.512142	0.000873	20.718334
1076.280293	-2.976300	3.553600	-10.575000	25.487037	0.000872	20.702131
1077.285712	-3.002100	3.552300	-10.662000	25.506794	0.000872	20.700160
1078.281826	-2.994400	3.551800	-10.634000	25.492265	0.000873	20.729668
1079.282045	-2.974500	3.553000	-10.567000	25.449126	0.000873	20.711477
1080.283226	-3.005000	3.551800	-10.671000	25.422530	0.000871	20.718436
1081.284238	-3.008100	3.550000	-10.677000	25.392253	0.000870	20.702257
1082.283532	-2.998300	3.552100	-10.649000	25.422295	0.000871	20.712984
1083.284397	-2.999900	3.550300	-10.649000	25.432253	0.000869	20.718716
1084.283457	-3.007500	3.549800	-10.674000	25.480838	0.000868	20.703493
1085.285665	-2.991700	3.549500	-10.618000	25.497584	0.000867	20.706085
1086.284085	-2.993500	3.548600	-10.622000	25.543873	0.000866	20.707051
1087.283210	-2.991000	3.548400	-10.611000	25.563849	0.000867	20.701034
1088.285274	-2.994400	3.549000	-10.626000	25.576841	0.000866	20.711712
1089.284189	-3.012500	3.546800	-10.684000	25.571477	0.000866	20.706324
1090.283130	-3.005600	3.546700	-10.659000	25.563321	0.000866	20.705719
1091.284113	-3.011100	3.547700	-10.682000	25.526788	0.000863	20.694160
1092.284445	-3.007000	3.547600	-10.667000	25.513022	0.000863	20.732969
1093.289473	-3.008700	3.545900	-10.666000	25.518883	0.000865	20.719415
1094.284947	-3.004800	3.545900	-10.654000	25.507796	0.000862	20.708754
1095.285810	-3.027200	3.545900	-10.732000	25.559953	0.000861	20.698069
1096.285206	-2.983400	3.546900	-10.580000	25.564520	0.000862	20.724943
1097.285675	-2.997100	3.546600	-10.628000	25.540987	0.000860	20.714110
1098.285277	-3.010900	3.543300	-10.667000	25.539937	0.000860	20.716850
1099.286098	-3.010600	3.544200	-10.669000	25.555672	0.000860	20.713685
1100.287276	-3.009700	3.545200	-10.669000	25.519985	0.000860	20.723840
1101.284329	-3.039600	3.543400	-10.769000	25.489043	0.000858	20.716948
1102.285628	-3.005200	3.544200	-10.650000	25.472744	0.000859	20.726660
1103.286149	-3.010700	3.544200	-10.669000	25.465735	0.000860	20.723889
1104.287712	-3.015700	3.542200	-10.681000	25.494187	0.000857	20.709312
1105.286465	-2.998900	3.544000	-10.627000	25.507212	0.000859	20.726186
1106.286610	-3.041400	3.540900	-10.768000	25.506562	0.000858	20.702772
1107.287223	-3.020400	3.541100	-10.695000	25.537797	0.000856	20.719442
1108.287545	-3.008500	3.541300	-10.653000	25.577155	0.000856	20.725779
1109.291245	-3.006500	3.541800	-10.647000	25.599915	0.000855	20.711177
1110.288762	-2.976600	3.541800	-10.541000	25.598898	0.000856	20.727226
1111.290115	-2.991100	3.541400	-10.591000	25.582912	0.000855	20.727767
1112.287751	-3.009800	3.540400	-10.656000	25.582642	0.000852	20.720383
1113.288050	-2.988300	3.541700	-10.583000	25.580299	0.000854	20.709495
1114.290854	-3.007500	3.540100	-10.646000	25.562530	0.000854	20.724366
1115.290613	-2.996600	3.541100	-10.610000	25.563995	0.000851	20.729632
1116.288098	-2.995100	3.539600	-10.600000	25.571346	0.000849	20.734644
1117.288618	-3.005600	3.539600	-10.637000	25.540381	0.000849	20.710657
1118.290902	-3.011700	3.537600	-10.653000	25.530067	0.000850	20.716421
1119.288324	-3.015100	3.538400	-10.668000	25.544378	0.000850	20.726052
1120.291750	-2.996700	3.536700	-10.597000	25.529588	0.000849	20.723053
1121.289264	-3.027000	3.536200	-10.703000	25.568597	0.000847	20.709122
1122.295244	-3.016900	3.536500	-10.668000	25.580841	0.000848	20.725687
1123.289889	-3.005800	3.536300	-10.628000	25.578659	0.000847	20.720176
1124.289889	-3.008000	3.536200	-10.636000	25.583649	0.000847	20.714756
1125.291026	-3.011300	3.534500	-10.643000	25.568583	0.000847	20.707685
1126.293972	-3.018500	3.535100	-10.669000	25.552408	0.000846	20.725107
1127.291201	-3.040100	3.534000	-10.742000	25.541077	0.000845	20.712778
1128.290114	-2.988000	3.535500	-10.561000	25.572636	0.000844	20.716972
1129.290840	-2.992700	3.534500	-10.577000	25.555958	0.000844	20.735311
1130.292759	-2.992900	3.534600	-10.578000	25.580753	0.000843	20.729392
1131.290938	-3.016500	3.533300	-10.657000	25.609105	0.000843	20.742220
1132.292793	-2.995300	3.534400	-10.584000	25.632214	0.000841	20.730341
1133.289500	-3.005200	3.533100	-10.616000	25.621135	0.000843	20.732016
1134.290731	-3.015600	3.531700	-10.649000	25.653182	0.000841	20.710147
1135.293124	-3.014200	3.533700	-10.649000	25.695645	0.000841	20.720081
1136.292021	-3.008900	3.532900	-10.629000	25.655395	0.000840	20.728493
1137.290143	-2.993300	3.532100	-10.571000	25.670201	0.000841	20.718707
1138.291078	-2.993600	3.531100	-10.569000	25.691095	0.000838	20.733056
1139.289280	-3.005700	3.531100	-10.612000	25.646817	0.000838	20.754492
1140.290429	-2.978900	3.531500	-10.519000	25.657749	0.000837	20.719951
1141.293526	-2.990500	3.532100	-10.562000	25.634347	0.000837	20.738173
1142.290078	-3.005700	3.530200	-10.610000	25.621519	0.000836	20.743782
1143.291119	-2.980400	3.530700	-10.521000	25.636340	0.000837	20.738753
1144.291324	-2.992200	3.528600	-10.556000	25.620715	0.000836	20.745820
1145.291443	-3.010300	3.529200	-10.623000	25.616872	0.000836	20.741960
1146.292794	-3.006600	3.529000	-10.609000	25.584376	0.000836	20.730186
1147.292699	-3.000900	3.530100	-10.591000	25.600477	0.000837	20.715061
1148.292418	-3.015600	3.526900	-10.633000	25.622023	0.000835	20.746185
1149.293734	-3.012800	3.527700	-10.627000	25.674873	0.000834	20.730987
1150.293883	-3.011400	3.527800	-10.622000	25.704859	0.000831	20.744035
1151.294411	-3.012500	3.526700	-10.623000	25.713241	0.000834	20.748187
1152.295543	-2.995600	3.528300	-10.569000	25.750331	0.000833	20.754622
1153.293332	-3.025800	3.525500	-10.666000	25.782528	0.000832	20.742392
1154.293554	-2.994300	3.525400	-10.555000	25.783545	0.000832	20.740095
1155.293544	-2.994500	3.525900	-10.557000	25.778076	0.000830	20.730333
1156.293474	-3.004200	3.526700	-10.594000	25.790318	0.000830	20.734095
1157.303398	-3.000200	3.524300	-10.572000	25.757527	0.000828	20.750944
1158.294925	-2.998500	3.525500	-10.570000	25.742820	0.000828	20.734274
1159.296559	-3.018200	3.523800	-10.635000	25.775611	0.000829	20.735444
1160.294495	-2.994700	3.525100	-10.555000	25.794223	0.000828	20.742760
1161.294556	-3.012400	3.523100	-10.612000	25.810517	0.000826	20.737790
1162.301312	-3.008200	3.522200	-10.592000	25.810835	0.000829	20.765612
1163.298191	-3.010200	3.522800	-10.603000	25.814685	0.000825	20.720639
1164.297197	-2.988800	3.523200	-10.529000	25.788748	0.000825	20.750537
1165.297584	-2.992600	3.524200	-10.544000	25.791678	0.000825	20.775292
1166.298086	-2.990800	3.523600	-10.537000	25.743211	0.000823	20.749841
1167.298890	-2.997200	3.521400	-10.553000	25.732599	0.000824	20.727801
1168.298607	-3.000400	3.520500	-10.562000	25.696201	0.000823	20.747193
1169.298319	-3.009800	3.520800	-10.596000	25.690969	0.000825	20.737196
1170.301093	-2.996800	3.519900	-10.546000	25.677587	0.000823	20.746515
1171.298214	-3.012600	3.518900	-10.599000	25.673265	0.000821	20.763037
1172.298112	-2.986300	3.520400	-10.512000	25.700149	0.000823	20.756848
1173.302795	-2.984900	3.519200	-10.502000	25.714685	0.000823	20.753905
1174.298308	-3.001100	3.518600	-10.558000	25.733609	0.000821	20.746835
1175.300085	-3.013200	3.518500	-10.599000	25.736148	0.000819	20.749385
1176.298944	-2.997200	3.517000	-10.539000	25.743351	0.000819	20.746188
1177.298441	-3.015900	3.517000	-10.605000	25.736546	0.000819	20.748837
1178.299317	-2.984100	3.518200	-10.497000	25.737165	0.000819	20.741872
1179.302761	-3.024700	3.515900	-10.634000	25.744792	0.000822	20.745265
1180.302515	-2.977700	3.517600	-10.474000	25.726535	0.000817	20.751583
1181.303571	-2.995300	3.515800	-10.530000	25.698309	0.000816	20.762588
1182.302219	-2.977700	3.516600	-10.471000	25.663547	0.000816	20.744267
1183.302989	-3.007400	3.515200	-10.570000	25.710534	0.000817	20.756374
1184.306952	-2.984600	3.516200	-10.493000	25.689763	0.000815	20.760642
1185.306099	-2.988300	3.516600	-10.508000	25.718535	0.000815	20.757298
1186.305669	-3.000200	3.513800	-10.541000	25.702110	0.000815	20.747913
1187.305378	-2.976400	3.515300	-10.461000	25.726381	0.000814	20.762809
1188.305102	-3.016500	3.514100	-10.599000	25.724339	0.000814	20.750800
1189.307834	-3.007100	3.513700	-10.564000	25.666575	0.000813	20.748731
1190.307161	-2.994100	3.512200	-10.514000	25.664980	0.000813	20.758510
1191.309110	-2.992400	3.512200	-10.509000	25.679909	0.000811	20.756908
1192.308549	-3.007700	3.512800	-10.563000	25.697075	0.000812	20.750916
1193.308362	-3.010700	3.512800	-10.575000	25.661238	0.000812	20.747639
1194.312111	-3.004300	3.512200	-10.550000	25.662833	0.000809	20.757775
1195.308300	-2.993300	3.510000	-10.505000	25.683272	0.000810	20.782098
1196.309921	-3.002900	3.510500	-10.539000	25.727567	0.000810	20.760680
1197.308537	-2.988100	3.510600	-10.489000	25.759862	0.000807	20.763248
1198.309474	-3.003800	3.509800	-10.541000	25.777401	0.000809	20.755260
1199.309267	-3.005800	3.509600	-10.548000	25.798041	0.000808	20.770304
1200.313101	-3.001000	3.510200	-10.533000	25.799034	0.000808	20.761344
1201.309077	-3.019600	3.508900	-10.594000	25.809485	0.000806	20.798395
1202.309414	-3.015100	3.508000	-10.575000	25.858826	0.000808	20.761663
1203.309822	-3.013200	3.507000	-10.567000	25.865452	0.000804	20.756465
1204.309514	-3.006200	3.507300	-10.543000	25.862962	0.000805	20.756809
1205.313811	-3.019100	3.507300	-10.588000	25.849998	0.000804	20.777451
1206.310425	-2.991000	3.507600	-10.490000	25.832876	0.000805	20.782537
1207.312178	-3.002100	3.506500	-10.526000	25.809625	0.000803	20.772931
1208.311282	-2.960500	3.508500	-10.385000	25.783737	0.000806	20.771582
1209.310504	-3.006500	3.505600	-10.538000	25.830663	0.000801	20.781262
1210.313622	-2.968800	3.506200	-10.409000	25.852449	0.000801	20.777068
1211.310318	-3.005800	3.504900	-10.533000	25.884318	0.000802	20.794384
1212.310785	-3.009300	3.505300	-10.546000	25.877440	0.000803	20.782260
1213.310239	-2.989200	3.504800	-10.476000	25.848274	0.000800	20.803221
1214.310456	-2.990400	3.503900	-10.477000	25.801146	0.000801	20.780061
1215.312033	-3.002100	3.503000	-10.515000	25.796719	0.000798	20.792684
1216.312553	-3.026500	3.503900	-10.603000	25.743997	0.000799	20.778133
1217.312041	-2.980200	3.503300	-10.440000	25.750208	0.000798	20.779155
1218.314292	-2.991400	3.502900	-10.477000	25.739773	0.000798	20.771993
1219.319665	-2.968300	3.504100	-10.399000	25.802726	0.000796	20.755569
1220.314002	-3.005600	3.500500	-10.520000	25.809181	0.000796	20.778175
1221.316701	-3.011400	3.501300	-10.543000	25.815618	0.000798	20.800762
1222.314341	-2.989000	3.502600	-10.468000	25.814349	0.000796	20.790478
1223.317359	-3.013500	3.500000	-10.545000	25.837348	0.000794	20.770434
1224.313781	-2.992700	3.501100	-10.476000	25.898732	0.000794	20.785631
1225.314760	-3.004000	3.500900	-10.515000	25.898505	0.000795	20.795834
1226.317080	-3.007600	3.500700	-10.528000	25.881237	0.000794	20.800773
1227.317289	-2.992600	3.500600	-10.475000	25.865539	0.000793	20.786899
1228.312706	-3.001700	3.498600	-10.501000	25.822978	0.000792	20.769749
1229.313740	-2.996300	3.499800	-10.486000	25.791076	0.000791	20.801714
1230.315184	-2.996700	3.498400	-10.483000	25.797237	0.000790	20.791307
1231.316324	-3.028400	3.497600	-10.590000	25.823712	0.000791	20.773805
1232.321388	-2.991900	3.497800	-10.463000	25.843138	0.000792	20.782414
1233.316651	-3.024400	3.496600	-10.574000	25.898411	0.000791	20.794317
1234.318030	-3.003500	3.497300	-10.502000	25.905410	0.000787	20.773373
1235.316302	-2.989600	3.497600	-10.456000	25.897589	0.000790	20.813406
1236.317313	-3.005600	3.496800	-10.509000	25.941476	0.000788	20.796804
1237.320010	-3.003200	3.496000	-10.498000	25.944787	0.000789	20.801078
1238.320819	-2.994500	3.494600	-10.463000	25.980575	0.000788	20.807636
1239.319341	-3.018000	3.493000	-10.541000	25.964057	0.000785	20.793885
1240.319927	-3.019600	3.492700	-10.545000	25.917699	0.000785	20.811797
1241.320790	-3.007900	3.493200	-10.506000	25.913353	0.000786	20.804113
1242.320376	-2.996800	3.491900	-10.464000	25.891146	0.000785	20.795553
1243.322872	-2.997300	3.493400	-10.468000	25.851645	0.000786	20.793330
1244.321725	-3.001500	3.492800	-10.482000	25.839365	0.000785	20.803755
1245.319708	-2.992300	3.493800	-10.454000	25.829306	0.000784	20.826366
1246.321894	-3.004700	3.492200	-10.491000	25.868434	0.000782	20.806877
1247.321306	-3.008200	3.491400	-10.502000	25.881919	0.000783	20.795294
1248.324319	-3.001400	3.491900	-10.480000	25.923674	0.000781	20.814007
1249.320293	-3.005000	3.489900	-10.486000	25.946916	0.000781	20.809855
1250.326340	-3.006100	3.491800	-10.496000	25.993867	0.000781	20.809135
1251.322346	-3.011900	3.489100	-10.506000	25.985704	0.000782	20.816107
1252.322065	-2.999600	3.489800	-10.466000	25.960187	0.000779	20.817972
1253.323669	-2.988900	3.488500	-10.426000	25.945759	0.000779	20.819598
1254.321923	-3.002000	3.489500	-10.474000	25.942203	0.000780	20.825983
1255.326585	-2.982700	3.488800	-10.405000	25.935564	0.000777	20.811253
1256.323316	-3.002300	3.489900	-10.477000	25.893541	0.000778	20.824512
1257.324314	-3.008600	3.487100	-10.489000	25.857742	0.000778	20.790921
1258.328026	-3.010700	3.488000	-10.500000	25.834827	0.000779	20.819110
1259.324869	-2.998800	3.488100	-10.459000	25.816775	0.000777	20.823261
1260.326017	-3.003000	3.486100	-10.466000	25.786932	0.000777	20.828846
1261.325938	-2.989900	3.487400	-10.426000	25.795957	0.000779	20.821790
1262.326414	-3.018700	3.485800	-10.522000	25.829911	0.000775	20.833612
1263.329282	-3.016500	3.484300	-10.509000	25.849931	0.000775	20.841395
1264.326732	-2.989600	3.486300	-10.421000	25.884859	0.000775	20.810101
1265.330274	-3.002200	3.484500	-10.460000	25.885178	0.000774	20.819904
1266.327595	-3.006900	3.482300	-10.469000	25.891834	0.000773	20.809048
1267.327043	-3.005000	3.483400	-10.467000	25.867015	0.000774	20.804977
1268.336370	-3.009100	3.483500	-10.481000	25.861204	0.000773	20.826166
1269.331917	-3.022100	3.482600	-10.524000	25.904896	0.000772	20.813160
1270.327680	-3.017200	3.481900	-10.504000	25.913221	0.000772	20.838118
1271.336841	-2.999300	3.482800	-10.444000	25.948611	0.000772	20.818671
1272.328822	-2.996000	3.481700	-10.430000	25.967221	0.000772	20.845426
1273.329982	-2.982100	3.481200	-10.381000	25.933428	0.000771	20.843245
1274.333472	-3.004500	3.481200	-10.459000	25.931247	0.000769	20.837261
1275.330301	-3.014300	3.481200	-10.492000	25.928170	0.000769	20.839860
1276.336008	-2.993000	3.481400	-10.418000	25.947440	0.000768	20.833615
1277.331732	-3.005600	3.481000	-10.461000	25.979282	0.000768	20.831940
1278.331765	-3.015000	3.479300	-10.489000	25.972073	0.000768	20.853620
1279.334322	-3.007100	3.479300	-10.462000	25.996289	0.000766	20.840966
1280.331222	-3.002400	3.478900	-10.444000	25.985760	0.000767	20.828491
1281.331389	-3.016500	3.478900	-10.493000	26.012059	0.000765	20.856809
1282.331936	-3.021600	3.478400	-10.509000	25.993133	0.000766	20.848226
1283.332493	-3.008400	3.476700	-10.459000	25.995087	0.000763	20.831698
1284.331270	-2.995100	3.477600	-10.415000	25.981449	0.000765	20.840756
1285.334834	-3.004500	3.475600	-10.442000	25.964312	0.000767	20.846772
1286.334464	-2.997000	3.477200	-10.420000	25.937159	0.000763	20.837036
1287.334688	-3.001600	3.476100	-10.432000	25.912064	0.000764	20.841223
1288.335030	-3.010400	3.476100	-10.463000	25.913675	0.000762	20.849006
1289.335043	-3.031900	3.473600	-10.531000	25.945720	0.000762	20.835206
1290.337547	-2.989600	3.477200	-10.393000	25.966756	0.000764	20.850175
1291.335189	-3.015900	3.473900	-10.475000	25.988539	0.000762	20.843611
1292.337328	-3.020900	3.474100	-10.494000	25.976961	0.000761	20.852367
1293.334894	-3.008200	3.474200	-10.450000	26.003309	0.000760	20.861294
1294.343497	-3.015300	3.472900	-10.471000	26.046678	0.000759	20.848444
1295.337073	-3.004200	3.472100	-10.430000	26.070396	0.000760	20.842403
1296.337126	-3.021100	3.472000	-10.487000	26.076003	0.000758	20.849933
1297.334520	-3.004700	3.471300	-10.428000	26.082561	0.000758	20.855099
1298.335558	-2.993600	3.473300	-10.396000	26.118726	0.000761	20.858720
1299.335598	-2.999600	3.471100	-10.411000	26.157242	0.000760	20.827248
1300.335609	-2.986900	3.472600	-10.370000	26.126220	0.000759	20.870517
1301.338512	-3.019200	3.469100	-10.473000	26.147643	0.000754	20.854112
1302.336554	-2.990800	3.471000	-10.380000	26.148140	0.000756	20.856508
1303.340487	-3.018300	3.468200	-10.468000	26.125465	0.000758	20.865966
1304.337283	-2.969900	3.469900	-10.304000	26.133990	0.000756	20.848454
1305.336281	-3.024100	3.467700	-10.486000	26.109893	0.000754	20.852690
1306.343067	-3.009000	3.468400	-10.435000	26.143397	0.000754	20.868810
1307.337701	-2.999600	3.467400	-10.399000	26.174239	0.000753	20.845276
1308.338703	-2.988500	3.467400	-10.360000	26.192943	0.000752	20.878767
1309.337733	-2.985700	3.467100	-10.351000	26.192244	0.000752	20.864315
1310.337815	-2.981500	3.467700	-10.338000	26.198004	0.000751	20.856353
1311.338547	-2.990800	3.467100	-10.368000	26.162834	0.000750	20.846144
1312.340899	-2.995600	3.467000	-10.384000	26.136018	0.000751	20.858078
1313.339818	-3.013000	3.466900	-10.444000	26.080212	0.000750	20.865067
1314.338922	-2.996400	3.466100	-10.385000	26.094614	0.000750	20.875743
1315.339590	-2.998800	3.464100	-10.387000	26.098707	0.000750	20.866580
1316.339913	-3.024600	3.463300	-10.473000	26.118037	0.000750	20.848546
1317.345393	-3.007300	3.464300	-10.417000	26.144316	0.000748	20.847924
1318.341298	-2.989400	3.464100	-10.354000	26.172995	0.000746	20.849715
1319.342405	-2.975700	3.464900	-10.309000	26.191974	0.000747	20.843657
1320.341292	-2.989700	3.463300	-10.353000	26.173921	0.000746	20.865818
1321.341462	-3.005700	3.463100	-10.408000	26.174767	0.000746	20.859556
1322.346821	-2.990900	3.462300	-10.354000	26.206112	0.000744	20.837476
1323.341341	-2.984200	3.462400	-10.332000	26.183677	0.000743	20.858078
1324.340834	-3.008800	3.461700	-10.415000	26.145812	0.000744	20.862703
1325.341815	-3.002000	3.462500	-10.392000	26.140817	0.000744	20.820702
1326.340907	-3.010800	3.460800	-10.418000	26.128181	0.000743	20.853522
1327.341606	-3.007500	3.460600	-10.407000	26.133837	0.000743	20.845455
1328.343760	-2.991700	3.460100	-10.351000	26.139083	0.000741	20.846934
1329.342933	-2.988300	3.459300	-10.336000	26.130809	0.000744	20.849526
1330.341756	-2.987300	3.460000	-10.335000	26.131306	0.000741	20.843861
1331.341629	-2.993800	3.460100	-10.358000	26.096400	0.000741	20.840081
1332.342040	-2.986000	3.458700	-10.327000	26.119460	0.000742	20.842389
1333.347618	-3.019700	3.457800	-10.441000	26.066184	0.000739	20.823473
1334.342853	-3.009500	3.457300	-10.404000	26.050170	0.000738	20.835358
1335.342918	-3.007600	3.457100	-10.397000	26.113129	0.000741	20.850727
1336.344245	-3.013800	3.457000	-10.417000	26.099371	0.000739	20.837377
1337.343419	-3.007000	3.456500	-10.393000	26.114129	0.000738	20.827076
1338.347000	-2.996000	3.456000	-10.353000	26.063709	0.000739	20.833314
1339.344853	-3.028000	3.454100	-10.458000	26.029332	0.000738	20.855672
1340.345858	-3.002800	3.455300	-10.374000	26.014035	0.000737	20.823234
1341.344984	-3.002700	3.456100	-10.376000	25.984750	0.000736	20.819890
1342.344360	-2.997900	3.454700	-10.355000	26.028192	0.000736	20.816596
1343.346353	-2.996400	3.453300	-10.346000	26.039917	0.000735	20.816522
1344.348845	-3.011200	3.452800	-10.396000	26.067135	0.000735	20.842445
1345.344838	-2.984200	3.454600	-10.308000	26.076206	0.000731	20.822162
1346.346543	-2.995000	3.452800	-10.339000	26.108491	0.000733	20.839902
1347.345616	-2.994500	3.452000	-10.335000	26.136958	0.000732	20.825833
1348.346082	-2.968400	3.454100	-10.251000	26.124608	0.000733	20.823381
1349.349371	-3.013800	3.450500	-10.398000	26.101339	0.000733	20.816596
1350.347958	-3.004500	3.450700	-10.366000	26.082292	0.000733	20.799354
1351.349928	-2.988500	3.451100	-10.312000	26.097060	0.000731	20.818461
1352.347857	-2.980600	3.451500	-10.287000	26.071455	0.000732	20.814070
1353.348457	-2.997000	3.449800	-10.338000	26.056085	0.000730	20.813326
1354.350605	-3.021300	3.448400	-10.418000	26.110452	0.000730	20.822433
1355.350661	-3.035800	3.447500	-10.464000	26.116114	0.000731	20.830967
1356.348876	-3.006700	3.448500	-10.367000	26.142956	0.000730	20.803411
1357.349569	-3.016000	3.448200	-10.400000	26.134787	0.000729	20.815591
1358.351021	-3.008600	3.448300	-10.373000	26.148668	0.000728	20.817685
1359.351530	-2.993700	3.447700	-10.320000	26.158570	0.000729	20.819100
1360.352135	-2.975000	3.448400	-10.258000	26.161817	0.000729	20.809087
1361.350782	-2.996100	3.445500	-10.322000	26.181415	0.000727	20.803176
1362.353911	-2.978400	3.447300	-10.267000	26.195644	0.000727	20.810362
1363.350342	-2.977700	3.447100	-10.264000	26.190073	0.000725	20.801444
1364.353665	-2.976000	3.446300	-10.255000	26.171125	0.000727	20.801845
1365.356472	-2.994400	3.445600	-10.317000	26.146882	0.000725	20.816838
1366.350245	-2.979000	3.445400	-10.262000	26.116087	0.000726	20.810552
1367.349926	-3.001300	3.442800	-10.332000	26.097284	0.000724	20.814418
1368.351315	-2.996600	3.443800	-10.318000	26.089930	0.000723	20.799917
1369.351796	-2.974600	3.444800	-10.246000	26.103510	0.000724	20.806924
1370.351270	-3.017100	3.442800	-10.387000	26.079695	0.000720	20.812392
1371.353858	-2.998300	3.443000	-10.321000	26.036279	0.000723	20.825194
1372.364148	-2.986200	3.443700	-10.283000	26.007386	0.000721	20.794269
1373.351357	-2.994800	3.441700	-10.306000	26.027697	0.000723	20.802347
1374.351691	-2.997300	3.441500	-10.313000	26.052299	0.000720	20.803833
1375.354393	-2.990500	3.441300	-10.291000	26.025505	0.000719	20.800145
1376.358880	-3.008900	3.439100	-10.347000	26.013098	0.000717	20.804275
1377.356056	-3.003700	3.439700	-10.331000	25.986995	0.000718	20.792274
1378.357251	-3.010100	3.440800	-10.356000	26.000338	0.000719	20.804732
1379.355552	-3.006800	3.439800	-10.342000	25.986603	0.000716	20.804683
1380.354447	-3.026100	3.438700	-10.404000	25.964446	0.000717	20.796173
1381.356969	-2.984100	3.439800	-10.263000	25.954290	0.000717	20.792133
1382.356835	-3.013100	3.439300	-10.362000	25.972941	0.000716	20.807078
1383.357943	-2.998600	3.438900	-10.309000	25.990686	0.000715	20.798353
1384.358680	-3.002600	3.437600	-10.321000	25.998709	0.000713	20.779387
1385.358502	-2.979100	3.438300	-10.242000	26.020271	0.000713	20.799628
1386.361475	-2.987900	3.437400	-10.270000	26.024225	0.000712	20.800756
1387.357287	-2.988900	3.437300	-10.272000	26.054704	0.000713	20.796292
1388.361506	-2.971200	3.437000	-10.210000	26.060741	0.000711	20.797142
1389.359213	-3.016400	3.435100	-10.360000	26.068918	0.000713	20.794451
1390.361454	-2.990200	3.434100	-10.268000	26.083742	0.000711	20.791803
1391.362348	-2.994400	3.434500	-10.283000	26.092709	0.000711	20.785165
1392.359422	-3.006400	3.434900	-10.326000	26.105733	0.000708	20.764586
1393.359351	-3.012400	3.434000	-10.344000	26.118296	0.000708	20.775787
1394.359816	-3.026500	3.432000	-10.386000	26.160691	0.000709	20.798473
1395.361588	-3.005600	3.432500	-10.316000	26.175491	0.000709	20.775411
1396.362643	-3.004200	3.432900	-10.311000	26.129880	0.000708	20.786004
1397.360953	-3.008700	3.431300	-10.321000	26.139090	0.000707	20.779138
1398.363245	-3.015300	3.431500	-10.346000	26.118320	0.000707	20.782450
1399.362004	-3.012200	3.431700	-10.335000	26.121249	0.000709	20.810049
1400.361636	-2.991300	3.432400	-10.264000	26.075052	0.000706	20.780701
1401.363956	-3.032700	3.430300	-10.403000	26.075629	0.000707	20.777013
1402.364679	-3.004000	3.431200	-10.307000	26.094841	0.000706	20.760754
1403.361507	-3.017900	3.429400	-10.349000	26.119631	0.000705	20.779974
1404.361983	-2.980800	3.431000	-10.225000	26.143452	0.000704	20.769296
1405.360714	-3.004300	3.429200	-10.301000	26.163809	0.000704	20.795916
1406.360874	-3.013400	3.429500	-10.334000	26.157196	0.000703	20.780736
1407.364498	-3.006200	3.428900	-10.307000	26.115604	0.000703	20.783040
1408.361891	-3.027400	3.428200	-10.377000	26.126874	0.000703	20.786303
1409.362394	-3.003400	3.427200	-10.292000	26.109861	0.000702	20.782011
1410.361784	-2.991300	3.427900	-10.253000	26.095226	0.000701	20.792435
1411.363035	-3.015800	3.426400	-10.332000	26.064884	0.000703	20.784234
1412.364409	-2.986600	3.426800	-10.234000	26.048611	0.000702	20.789222
1413.364065	-3.013500	3.425400	-10.320000	26.021429	0.000700	20.760962
1414.365520	-3.001700	3.424900	-10.279000	26.023397	0.000701	20.769103
1415.364427	-3.012700	3.423500	-10.313000	26.047010	0.000700	20.798993
1416.364223	-3.017600	3.424300	-10.332000	26.056620	0.000698	20.771664
1417.366028	-3.020600	3.424000	-10.341000	26.085585	0.000697	20.778481
1418.366310	-2.983300	3.424900	-10.215000	26.085732	0.000699	20.794750
1419.365178	-3.004200	3.423700	-10.285000	26.105520	0.000698	20.795193
1420.364962	-3.000700	3.423200	-10.270000	26.072892	0.000695	20.758615
1421.367309	-3.010300	3.423300	-10.305000	26.089311	0.000695	20.776061
1422.366028	-3.011600	3.422600	-10.307000	26.103958	0.000696	20.784614
1423.369514	-3.032800	3.420200	-10.371000	26.117625	0.000695	20.782225
1424.367674	-3.007700	3.422000	-10.291000	26.154082	0.000696	20.766227
1425.370739	-2.993000	3.420500	-10.237000	26.173673	0.000693	20.762679
1426.368875	-3.002200	3.421300	-10.270000	26.189514	0.000696	20.769588
1427.368897	-2.988500	3.420800	-10.222000	26.176505	0.000694	20.779275
1428.370883	-3.013800	3.420300	-10.307000	26.116000	0.000693	20.791498
1429.368805	-3.000300	3.418500	-10.256000	26.127196	0.000692	20.784256
1430.369589	-3.020100	3.419200	-10.326000	26.128073	0.000691	20.767119
1431.370108	-2.988800	3.418700	-10.217000	26.136039	0.000692	20.774649
1432.369193	-3.002400	3.419100	-10.264000	26.125364	0.000692	20.783838
1433.369353	-2.988200	3.418900	-10.216000	26.129482	0.000691	20.773276
1434.372800	-3.007700	3.417200	-10.276000	26.113860	0.000690	20.760899
1435.369221	-3.015900	3.415900	-10.301000	26.141163	0.000688	20.765573
1436.369147	-3.014700	3.416900	-10.301000	26.163621	0.000689	20.774390
1437.369918	-2.993900	3.417800	-10.229000	26.119296	0.000687	20.771102
1438.370139	-2.985200	3.417000	-10.200000	26.121135	0.000688	20.785278
1439.383614	-3.019500	3.416800	-10.315000	26.148920	0.000688	20.766729
1440.375010	-2.994500	3.416200	-10.229000	26.158626	0.000687	20.773638
1441.378194	-2.998000	3.415900	-10.240000	26.219202	0.000687	20.769075
1442.376964	-3.017700	3.414300	-10.302000	26.217780	0.000687	20.768594
1443.376314	-2.982200	3.415400	-10.185000	26.191828	0.000685	20.775233
1444.378759	-2.982800	3.414300	-10.183000	26.158270	0.000683	20.779918
1445.377954	-3.024000	3.413100	-10.320000	26.111903	0.000684	20.778847
1446.378067	-3.007600	3.414300	-10.268000	26.106779	0.000685	20.775595
1447.378506	-3.020800	3.413400	-10.310000	26.120985	0.000684	20.750987
1448.377894	-3.013100	3.411900	-10.279000	26.147337	0.000681	20.766561
1449.378315	-2.981000	3.413700	-10.175000	26.111075	0.000682	20.771851
1450.380248	-3.003900	3.411700	-10.247000	26.091402	0.000681	20.753980
1451.377466	-2.996600	3.410900	-10.220000	26.096317	0.000682	20.758444
1452.379072	-3.007700	3.410900	-10.258000	26.125850	0.000680	20.774369
1453.378744	-2.998300	3.411100	-10.225000	26.165610	0.000681	20.770699
1454.377428	-3.016900	3.409500	-10.285000	26.167246	0.000679	20.770920
1455.380316	-3.000100	3.409000	-10.226000	26.189431	0.000680	20.750538
1456.377992	-3.011200	3.409000	-10.264000	26.206117	0.000677	20.773944
1457.380968	-3.024200	3.406300	-10.300000	26.235672	0.000679	20.771875
1458.380313	-2.990100	3.409000	-10.192000	26.253595	0.000678	20.776610
1459.379076	-2.983100	3.408700	-10.168000	26.238877	0.000677	20.745223
1460.383205	-3.000600	3.407400	-10.223000	26.270115	0.000677	20.760969
1461.381248	-2.993400	3.408600	-10.202000	26.279926	0.000677	20.772725
1462.379108	-2.968900	3.407800	-10.116000	26.295740	0.000676	20.775342
1463.378121	-2.993400	3.407100	-10.198000	26.296464	0.000676	20.735764
1464.379311	-3.013000	3.405300	-10.260000	26.300881	0.000673	20.770077
1465.379267	-3.013000	3.405700	-10.260000	26.282285	0.000676	20.763242
1466.383178	-3.011900	3.404000	-10.251000	26.285018	0.000675	20.759824
1467.380566	-3.031300	3.404300	-10.318000	26.265925	0.000672	20.733049
1468.385020	-3.007000	3.406100	-10.242000	26.243497	0.000672	20.743702
1469.381914	-2.996100	3.404800	-10.200000	26.211982	0.000672	20.748068
1470.384310	-3.003300	3.404800	-10.223000	26.211014	0.000670	20.757527
1471.388739	-3.001300	3.403100	-10.213000	26.201381	0.000671	20.736941
1472.382679	-3.006900	3.403800	-10.234000	26.227577	0.000670	20.734816
1473.382765	-3.011600	3.401600	-10.241000	26.217130	0.000669	20.747078
1474.382450	-2.998600	3.401600	-10.199000	26.213331	0.000670	20.757959
1475.383535	-2.984800	3.402300	-10.154000	26.195806	0.000667	20.753625
1476.381554	-2.968400	3.402400	-10.099000	26.243259	0.000668	20.746308
1477.384240	-3.025700	3.399300	-10.284000	26.241323	0.000666	20.752423
1478.383376	-2.996800	3.400600	-10.190000	26.255999	0.000667	20.744886
1479.388696	-3.001300	3.400000	-10.203000	26.290596	0.000666	20.737454
1480.384957	-3.030400	3.399400	-10.300000	26.274431	0.000666	20.747762
1481.384075	-2.986800	3.399000	-10.151000	26.332845	0.000667	20.745300
1482.385082	-3.038700	3.397900	-10.324000	26.272030	0.000666	20.742030
1483.383510	-2.998900	3.397800	-10.189000	26.221373	0.000664	20.720046
1484.384037	-2.989100	3.399100	-10.160000	26.183079	0.000666	20.715230
1485.383405	-3.012000	3.398100	-10.234000	26.142303	0.000666	20.737320
1486.382967	-2.992600	3.396700	-10.163000	26.089126	0.000665	20.754064
1487.385709	-3.022100	3.397300	-10.265000	26.080614	0.000663	20.727018
1488.384826	-2.989000	3.396900	-10.152000	26.075423	0.000662	20.733182
1489.387923	-2.997900	3.396100	-10.179000	26.090549	0.000662	20.726094
1490.385446	-3.014900	3.395500	-10.235000	26.090412	0.000662	20.730225
1491.386800	-3.019700	3.395600	-10.253000	26.126234	0.000661	20.747253
1492.387931	-3.003200	3.395400	-10.196000	26.122085	0.000659	20.735971
1493.392772	-3.020000	3.394700	-10.251000	26.091632	0.000662	20.724338
1494.387610	-3.007500	3.394200	-10.207000	26.074368	0.000660	20.740657
1495.391533	-3.005400	3.393100	-10.197000	26.053156	0.000659	20.721240
1496.387998	-3.004100	3.393500	-10.193000	26.053125	0.000658	20.717889
1497.398685	-3.004400	3.393600	-10.194000	26.032213	0.000657	20.749512
1498.392838	-2.990700	3.393000	-10.146000	26.034070	0.000660	20.716762
1499.387973	-3.000400	3.391500	-10.175000	26.022572	0.000658	20.739824
1500.387853	-3.014000	3.391400	-10.220000	26.003786	0.000657	20.733752
1501.388895	-3.007300	3.390400	-10.195000	26.015755	0.000658	20.708318
1502.389612	-2.978700	3.392900	-10.106000	26.061102	0.000657	20.738708
1503.392003	-3.000600	3.391600	-10.176000	26.035514	0.000655	20.720109
1504.390723	-3.010700	3.390500	-10.206000	26.083373	0.000654	20.718884
1505.393494	-2.967300	3.390700	-10.060000	26.136942	0.000654	20.730036
1506.389977	-2.996000	3.390000	-10.155000	26.170266	0.000655	20.720847
1507.390803	-2.992300	3.389600	-10.141000	26.149871	0.000654	20.716474
1508.393054	-3.014800	3.389100	-10.216000	26.106769	0.000653	20.717736
1509.392520	-2.982100	3.389200	-10.106000	26.093930	0.000655	20.708153
1510.392042	-2.996800	3.389000	-10.154000	26.038514	0.000653	20.730236
1511.391737	-3.014000	3.387800	-10.210000	26.012869	0.000651	20.725333
1512.391103	-2.990400	3.387200	-10.128000	26.038150	0.000650	20.737933
1513.391662	-2.991600	3.386600	-10.130000	26.108367	0.000650	20.734989
1514.393785	-3.013400	3.386200	-10.202000	26.092144	0.000652	20.724378
1515.391420	-2.973000	3.387500	-10.070000	26.092836	0.000650	20.692355
1516.396682	-2.999900	3.387700	-10.162000	26.046030	0.000649	20.703174
1517.392282	-2.982600	3.386800	-10.101000	26.025119	0.000647	20.731477
1518.391725	-2.998800	3.384300	-10.148000	25.999498	0.000648	20.706209
1519.397304	-3.021700	3.382900	-10.221000	25.975478	0.000647	20.717164
1520.392926	-3.014100	3.383300	-10.196000	25.982029	0.000647	20.714737
1521.392791	-3.017900	3.382900	-10.208000	26.022193	0.000648	20.710519
1522.391757	-2.976100	3.384900	-10.073000	26.036173	0.000648	20.711288
1523.392128	-2.966600	3.384200	-10.037000	26.033660	0.000645	20.703072
1524.394478	-3.002800	3.382700	-10.157000	26.035068	0.000646	20.701169
1525.396543	-2.989800	3.382400	-10.112000	26.015922	0.000644	20.709908
1526.393157	-2.999800	3.381900	-10.143000	26.009951	0.000644	20.724299
1527.393082	-3.006100	3.380500	-10.161000	26.054239	0.000645	20.720906
1528.393899	-2.988900	3.381200	-10.105000	26.040896	0.000643	20.714137
1529.394458	-3.008300	3.381200	-10.171000	26.042980	0.000643	20.716231
1530.394547	-2.996200	3.381000	-10.128000	26.050824	0.000642	20.716052
1531.393671	-2.988300	3.380800	-10.102000	26.025102	0.000640	20.707751
1532.396213	-3.003600	3.380400	-10.153000	26.030618	0.000641	20.711397
1533.395205	-3.013100	3.379500	-10.182000	26.022718	0.000643	20.711994
1534.394552	-2.999100	3.379000	-10.133000	26.080439	0.000641	20.723997
1535.398930	-3.009400	3.379500	-10.170000	26.109875	0.000640	20.700466
1536.398037	-3.015400	3.378200	-10.186000	26.149863	0.000639	20.711250
1537.395533	-3.026600	3.379100	-10.227000	26.182991	0.000638	20.727945
1538.396834	-3.006500	3.378100	-10.155000	26.204917	0.000636	20.706353
1539.400951	-3.032800	3.377000	-10.240000	26.214483	0.000639	20.717390
1540.395263	-3.035700	3.376600	-10.249000	26.194861	0.000636	20.708103
1541.399001	-3.012700	3.375900	-10.170000	26.177256	0.000636	20.691358
1542.396785	-3.009400	3.374900	-10.155000	26.169485	0.000637	20.706311
1543.400299	-3.003100	3.374800	-10.135000	26.160838	0.000636	20.693828
1544.398854	-3.000500	3.376800	-10.130000	26.161083	0.000631	20.703557
1545.399416	-2.992500	3.376000	-10.102000	26.170594	0.000633	20.703157
1546.402040	-3.002700	3.376000	-10.137000	26.160758	0.000634	20.707973
1547.398229	-2.987700	3.376100	-10.084000	26.169944	0.000633	20.709617
1548.403307	-2.997400	3.375000	-10.115000	26.206798	0.000635	20.725788
1549.400816	-2.989800	3.374800	-10.088000	26.242675	0.000631	20.709210
1550.399912	-3.008900	3.372800	-10.147000	26.264257	0.000631	20.712880
1551.403401	-2.986300	3.374200	-10.074000	26.319372	0.000630	20.711370
1552.406722	-2.989600	3.373800	-10.085000	26.324733	0.000630	20.729087
1553.402381	-2.984200	3.372700	-10.063000	26.321064	0.000629	20.722554
1554.402246	-2.999300	3.372800	-10.114000	26.325457	0.000630	20.726021
1555.401890	-2.999500	3.371100	-10.111000	26.313777	0.000627	20.730404
1556.406040	-3.023900	3.371600	-10.195000	26.281719	0.000629	20.715729
1557.402082	-2.987300	3.371900	-10.072000	26.284550	0.000628	20.694865
1558.402465	-3.008900	3.371100	-10.142000	26.315113	0.000627	20.707563
1559.402215	-2.989900	3.369300	-10.073000	26.320952	0.000627	20.709164
1560.403337	-2.968400	3.372800	-10.011000	26.345528	0.000627	20.711578
1561.402194	-2.987500	3.370000	-10.067000	26.365098	0.000626	20.716074
1562.404762	-3.002700	3.369300	-10.116000	26.397472	0.000626	20.695504
1563.404922	-2.989200	3.369200	-10.069000	26.431089	0.000625	20.702740
1564.405085	-2.983300	3.368900	-10.049000	26.416423	0.000626	20.707914
1565.404214	-3.002500	3.368500	-10.112000	26.440825	0.000624	20.704465
1566.404434	-2.993100	3.368100	-10.080000	26.441922	0.000623	20.708413
1567.407914	-2.994200	3.367200	-10.081000	26.446045	0.000622	20.703548
1568.406990	-3.003500	3.366800	-10.112000	26.430073	0.000622	20.696028
1569.409413	-3.000500	3.367000	-10.102000	26.422611	0.000622	20.716505
1570.406915	-3.004500	3.366400	-10.114000	26.392038	0.000621	20.714226
1571.407513	-2.986900	3.367300	-10.057000	26.385066	0.000623	20.706270
1572.414288	-3.015900	3.363700	-10.143000	26.367286	0.000618	20.712582
1573.409104	-3.016700	3.363700	-10.147000	26.380925	0.000621	20.701159
1574.418046	-2.996300	3.364600	-10.080000	26.362868	0.000619	20.710039
1575.408311	-3.009800	3.364700	-10.126000	26.335976	0.000620	20.704349
1576.409262	-3.000500	3.362100	-10.087000	26.316688	0.000618	20.706302
1577.408474	-3.007600	3.363100	-10.114000	26.280855	0.000617	20.713439
1578.411322	-2.991800	3.363500	-10.061000	26.239261	0.000618	20.696294
1579.409136	-3.008200	3.363800	-10.118000	26.213855	0.000617	20.721974
1580.413266	-3.008100	3.361700	-10.111000	26.190269	0.000615	20.706333
1581.409842	-3.009500	3.363500	-10.120000	26.172982	0.000615	20.720731
1582.410933	-2.991200	3.364300	-10.062000	26.210436	0.000616	20.692458
1583.414703	-2.990500	3.362300	-10.055000	26.250941	0.000616	20.718465
1584.411426	-3.001300	3.361400	-10.088000	26.282008	0.000615	20.676662
1585.411009	-3.019800	3.360100	-10.146000	26.272278	0.000613	20.691067
1586.411509	-2.994000	3.361200	-10.062000	26.247687	0.000613	20.710453
1587.415560	-2.983900	3.361900	-10.031000	26.225420	0.000612	20.709887
1588.412175	-2.985600	3.361300	-10.035000	26.251536	0.000612	20.713372
1589.416257	-2.992800	3.359300	-10.053000	26.269496	0.000610	20.708187
1590.414665	-3.002000	3.358900	-10.083000	26.273987	0.000612	20.701795
1591.414032	-3.015600	3.358900	-10.128000	26.279006	0.000610	20.724858
1592.414538	-3.007700	3.358400	-10.101000	26.255261	0.000611	20.706210
1593.414128	-2.975000	3.359000	-9.991200	26.288767	0.000609	20.702423
1594.416184	-2.973700	3.360600	-9.992700	26.325292	0.000610	20.704991
1595.413765	-2.999100	3.358400	-10.071000	26.335445	0.000608	20.699072
1596.415031	-2.997900	3.357200	-10.064000	26.353771	0.000606	20.698050
1597.413662	-3.002400	3.357700	-10.080000	26.357080	0.000607	20.712757
1598.415543	-3.009700	3.356000	-10.099000	26.318093	0.000606	20.715774
1599.416330	-3.017400	3.356300	-10.126000	26.267438	0.000605	20.721767
1600.416335	-2.991900	3.354500	-10.036000	26.237988	0.000604	20.716828
1601.415810	-2.991900	3.355700	-10.039000	26.228373	0.000606	20.704794
1602.414857	-2.990700	3.354000	-10.030000	26.219384	0.000604	20.719469
1603.416314	-2.978100	3.353700	-9.986700	26.215162	0.000604	20.722813
1604.418054	-3.022700	3.352300	-10.132000	26.259472	0.000601	20.715658
1605.421676	-2.997800	3.353200	-10.052000	26.273326	0.000603	20.723891
1606.417632	-3.006100	3.352500	-10.077000	26.264687	0.000603	20.738443
1607.419197	-3.009800	3.353300	-10.092000	26.273505	0.000602	20.709371
1608.418386	-3.018400	3.351900	-10.117000	26.311980	0.000601	20.733340
1609.418793	-3.011900	3.351000	-10.091000	26.311305	0.000599	20.687614
1610.418290	-2.999300	3.352900	-10.055000	26.336108	0.000600	20.735303
1611.417750	-3.006900	3.350500	-10.074000	26.336507	0.000601	20.721952
1612.417728	-3.015600	3.349600	-10.100000	26.321440	0.000598	20.730045
1613.418470	-2.994600	3.350700	-10.033000	26.385033	0.000598	20.711453
1614.419477	-2.996500	3.349900	-10.037000	26.431266	0.000599	20.728524
1615.419249	-3.003800	3.349700	-10.060000	26.392931	0.000597	20.731246
1616.423615	-2.984100	3.350000	-9.995500	26.358872	0.000595	20.706497
1617.419789	-2.978000	3.349500	-9.973200	26.353903	0.000596	20.725212
1618.420313	-3.009300	3.347800	-10.074000	26.391830	0.000596	20.728243
1619.419337	-3.008300	3.349200	-10.075000	26.401688	0.000596	20.716339
1620.420430	-2.996600	3.348000	-10.031000	26.366232	0.000594	20.730965
1621.423566	-3.010100	3.348000	-10.077000	26.349021	0.000596	20.708450
1622.422988	-3.015700	3.346700	-10.092000	26.335621	0.000594	20.717744
1623.422447	-3.014100	3.346400	-10.086000	26.359543	0.000593	20.734673
1624.423032	-3.011600	3.347300	-10.080000	26.373843	0.000594	20.724389
1625.424968	-3.005800	3.346000	-10.056000	26.368807	0.000592	20.721698
1626.425801	-2.966900	3.347200	-9.929000	26.410249	0.000591	20.694596
1627.425734	-3.009300	3.345700	-10.067000	26.402977	0.000591	20.729489
1628.427866	-3.018400	3.344900	-10.095000	26.429574	0.000590	20.722555
1629.426183	-2.996000	3.345700	-10.023000	26.481766	0.000589	20.718115
1630.425597	-2.982400	3.345400	-9.976100	26.478593	0.000590	20.729626
1631.427284	-2.971800	3.345000	-9.938900	26.462896	0.000590	20.734238
1632.427759	-3.004200	3.344700	-10.047000	26.449597	0.000587	20.738414
1633.431490	-2.974700	3.345400	-9.950000	26.407261	0.000587	20.717673
1634.429550	-2.997300	3.344300	-10.022000	26.382809	0.000587	20.721547
1635.427251	-3.002600	3.343800	-10.039000	26.363191	0.000587	20.732650
1636.433522	-2.994000	3.343200	-10.009000	26.356586	0.000586	20.734546
1637.427160	-2.992400	3.343200	-10.003000	26.384298	0.000587	20.746278
1638.428691	-3.002200	3.342600	-10.034000	26.338357	0.000586	20.717648
1639.427065	-3.010400	3.341700	-10.058000	26.338406	0.000585	20.741406
1640.429982	-3.009200	3.340900	-10.053000	26.362499	0.000586	20.727212
1641.426616	-3.009200	3.340400	-10.051000	26.363264	0.000583	20.735094
1642.430227	-2.997500	3.341400	-10.014000	26.406827	0.000583	20.737627
1643.427519	-2.981300	3.340600	-9.958800	26.402771	0.000585	20.717427
1644.427437	-2.992200	3.339500	-9.991300	26.401355	0.000581	20.716478
1645.428277	-2.966700	3.340600	-9.909200	26.379378	0.000582	20.738013
1646.430766	-2.981400	3.339500	-9.955000	26.354178	0.000582	20.735920
1647.432133	-2.998900	3.338600	-10.011000	26.361555	0.000582	20.743334
1648.429033	-2.995800	3.337900	-9.999200	26.299614	0.000580	20.738930
1649.428742	-2.973300	3.339000	-9.925800	26.309350	0.000582	20.726903
1650.430360	-3.004000	3.337300	-10.024000	26.313272	0.000579	20.722783
1651.429846	-2.991900	3.336700	-9.980700	26.337725	0.000578	20.741670
1652.434930	-3.000700	3.337200	-10.013000	26.363974	0.000578	20.746714
1653.429656	-3.010800	3.336600	-10.045000	26.337718	0.000578	20.741189
1654.434303	-3.014200	3.334500	-10.049000	26.315470	0.000577	20.731632
1655.430995	-2.968700	3.336000	-9.901500	26.338735	0.000577	20.744108
1656.432718	-3.000500	3.334500	-10.004000	26.380252	0.000576	20.734150
1657.435647	-2.992600	3.334900	-9.979100	26.380797	0.000576	20.765045
1658.433792	-3.020800	3.333600	-10.069000	26.418440	0.000576	20.736496
1659.431870	-2.975300	3.333800	-9.918700	26.459703	0.000575	20.756159
1660.439415	-2.954300	3.336200	-9.854700	26.502648	0.000575	20.765186
1661.431782	-2.993700	3.334400	-9.981000	26.532984	0.000574	20.756798
1662.442293	-2.982700	3.334700	-9.945000	26.494873	0.000575	20.745517
1663.437462	-3.005900	3.333300	-10.017000	26.467188	0.000575	20.763208
1664.435010	-2.961900	3.333800	-9.873600	26.443772	0.000572	20.746785
1665.434490	-2.993900	3.332100	-9.974300	26.441990	0.000573	20.727449
1666.436713	-3.002500	3.332300	-10.003000	26.472395	0.000571	20.759433
1667.438007	-3.006200	3.330200	-10.009000	26.493752	0.000569	20.767149
1668.441144	-3.002200	3.331800	-10.001000	26.549253	0.000571	20.746125
1669.436314	-3.003500	3.331000	-10.004000	26.583362	0.000571	20.759549
1670.436702	-2.998200	3.329300	-9.980200	26.587258	0.000569	20.752559
1671.438468	-2.997100	3.328600	-9.974800	26.627864	0.000569	20.762085
1672.438706	-3.012900	3.328900	-10.027000	26.657376	0.000568	20.753821
1673.440159	-3.008300	3.328900	-10.013000	26.657547	0.000568	20.777227
1674.438265	-2.998500	3.328500	-9.978900	26.666079	0.000566	20.758303
1675.438213	-2.992500	3.328300	-9.959000	26.653509	0.000566	20.767003
1676.438249	-3.009700	3.328100	-10.015000	26.681636	0.000564	20.761141
1677.439403	-3.013200	3.327400	-10.024000	26.708261	0.000564	20.748079
1678.445621	-2.994800	3.327700	-9.965300	26.729037	0.000564	20.774183
1679.440753	-3.004600	3.327100	-9.994400	26.747245	0.000562	20.764513
1680.442124	-3.015600	3.327300	-10.033000	26.761768	0.000565	20.755880
1681.443188	-2.976300	3.328400	-9.904500	26.753646	0.000563	20.774741
1682.442900	-2.995100	3.325900	-9.959500	26.763518	0.000562	20.763804
1683.442122	-3.008400	3.324100	-9.999300	26.783227	0.000561	20.777457
1684.446792	-2.956100	3.325400	-9.829200	26.768308	0.000562	20.774310
1685.442745	-3.019900	3.323300	-10.035000	26.764479	0.000560	20.792272
1686.446318	-3.020500	3.322200	-10.033000	26.744102	0.000560	20.787906
1687.444771	-2.998900	3.324200	-9.967600	26.746607	0.000559	20.779993
1688.444195	-3.000600	3.324100	-9.972700	26.729818	0.000561	20.766906
1689.446023	-3.000300	3.324200	-9.971700	26.739991	0.000560	20.772393
1690.445266	-3.004800	3.322700	-9.982300	26.754212	0.000558	20.771044
1691.445851	-3.019800	3.321600	-10.029000	26.752626	0.000556	20.778933
1692.443905	-2.995000	3.322600	-9.950100	26.705960	0.000557	20.786544
1693.449036	-3.006100	3.322100	-9.984700	26.696098	0.000555	20.775206
1694.446040	-2.989200	3.322000	-9.929200	26.724378	0.000556	20.791784
1695.444074	-3.016700	3.320900	-10.017000	26.730901	0.000555	20.771315
1696.452377	-2.996300	3.321600	-9.951000	26.708147	0.000555	20.765983
1697.443869	-3.013100	3.319900	-10.002000	26.692779	0.000554	20.762860
1698.444509	-3.005100	3.318600	-9.972100	26.674459	0.000554	20.776211
1699.444036	-3.009300	3.318000	-9.983200	26.687200	0.000553	20.775269
1700.446307	-2.982700	3.320200	-9.901700	26.692737	0.000553	20.782258
1701.446913	-3.005300	3.318900	-9.972700	26.674319	0.000550	20.779389
1702.449146	-3.015200	3.317000	-9.999200	26.654111	0.000551	20.806015
1703.446921	-3.012500	3.319100	-9.997300	26.670797	0.000550	20.766839
1704.447365	-2.978100	3.319000	-9.883400	26.690386	0.000550	20.777524
1705.451868	-2.996800	3.317500	-9.940600	26.706673	0.000550	20.780147
1706.447241	-3.011800	3.316900	-9.988200	26.732294	0.000550	20.796423
1707.446951	-3.011400	3.316100	-9.984400	26.748255	0.000548	20.777383
1708.448471	-3.000000	3.316100	-9.947100	26.767371	0.000548	20.786645
1709.449458	-3.001000	3.316200	-9.951000	26.781054	0.000548	20.800402
1710.452811	-2.998200	3.315000	-9.938400	26.783087	0.000547	20.786325
1711.449133	-3.012100	3.314900	-9.984300	26.806195	0.000548	20.777316
1712.448937	-2.974400	3.315400	-9.858800	26.807446	0.000548	20.799436
1713.449106	-2.991300	3.313700	-9.911500	26.779891	0.000546	20.783585
1714.454893	-3.011300	3.312700	-9.975300	26.758627	0.000545	20.793974
1715.448771	-2.995500	3.314900	-9.929000	26.741869	0.000544	20.806524
1716.452864	-3.001800	3.314100	-9.947700	26.692006	0.000543	20.777730
1717.449161	-3.017700	3.313100	-9.996700	26.669832	0.000545	20.799060
1718.451326	-3.005100	3.310700	-9.948000	26.675701	0.000544	20.800693
1719.452142	-3.003300	3.311800	-9.945500	26.681672	0.000541	20.796264
1720.451406	-2.986300	3.311100	-9.887500	26.729271	0.000540	20.795755
1721.454340	-3.011900	3.311400	-9.971900	26.736932	0.000542	20.801561
1722.451620	-3.008400	3.309100	-9.954100	26.710479	0.000543	20.773543
1723.452858	-2.991900	3.311000	-9.904500	26.678034	0.000541	20.796875
1724.452219	-2.992600	3.311100	-9.908000	26.689721	0.000541	20.810046
1725.452337	-2.997100	3.310700	-9.921500	26.717075	0.000539	20.788709
1726.454914	-3.007500	3.309300	-9.951900	26.737704	0.000540	20.800914
1727.452966	-3.004500	3.309300	-9.941000	26.745704	0.000536	20.802319
1728.453732	-3.001500	3.308900	-9.929500	26.778196	0.000538	20.789468
1729.455672	-2.994300	3.308400	-9.905000	26.774975	0.000534	20.821790
1730.454072	-2.999700	3.307500	-9.920800	26.786514	0.000537	20.798779
1731.455006	-2.995500	3.306300	-9.901900	26.803019	0.000537	20.824383
1732.454632	-2.989000	3.307900	-9.885100	26.844127	0.000534	20.798385
1733.454365	-2.999700	3.305800	-9.914800	26.845768	0.000535	20.797665
1734.455452	-3.005100	3.305800	-9.932400	26.835939	0.000536	20.802480
1735.454031	-3.003300	3.306200	-9.928000	26.806708	0.000533	20.807229
1736.453855	-3.021900	3.303300	-9.980600	26.821107	0.000531	20.803688
1737.458957	-2.992100	3.304500	-9.886500	26.834531	0.000532	20.778779
1738.457421	-3.004200	3.303500	-9.923800	26.838971	0.000531	20.805529
1739.459027	-2.975700	3.305300	-9.834500	26.843166	0.000530	20.810695
1740.455413	-2.983100	3.303200	-9.852900	26.838310	0.000531	20.816244
1741.457344	-2.990100	3.303500	-9.877100	26.852873	0.000529	20.809076
1742.459675	-3.007200	3.304700	-9.936100	26.875263	0.000528	20.820210
1743.458992	-3.011200	3.303600	-9.946500	26.846302	0.000527	20.819539
1744.456815	-2.986000	3.303100	-9.862000	26.771345	0.000527	20.803442
1745.457709	-2.999000	3.303000	-9.905300	26.734462	0.000528	20.812353
1746.456499	-3.020500	3.300500	-9.967600	26.727003	0.000527	20.821449
1747.458542	-2.982000	3.303200	-9.848000	26.729770	0.000525	20.814274
1748.460206	-2.993600	3.301800	-9.883500	26.683386	0.000526	20.821695
1749.458862	-3.000200	3.300700	-9.901700	26.653371	0.000525	20.805272
1750.467216	-2.978900	3.302500	-9.836300	26.663852	0.000525	20.808222
1751.467002	-2.998000	3.300900	-9.893700	26.678229	0.000522	20.816511
1752.461135	-2.999400	3.300400	-9.898500	26.738475	0.000526	20.813543
1753.464449	-3.010100	3.298800	-9.928900	26.754583	0.000521	20.831634
1754.461085	-2.991100	3.300100	-9.870100	26.741759	0.000523	20.812577
1755.460909	-3.005700	3.297800	-9.910700	26.730415	0.000522	20.828199
1756.461934	-3.016700	3.298900	-9.951000	26.695742	0.000520	20.824160
1757.461879	-2.985800	3.298300	-9.847600	26.694952	0.000520	20.828582
1758.461713	-2.998800	3.298000	-9.889700	26.690910	0.000518	20.825466
1759.464379	-3.006900	3.296400	-9.909500	26.662943	0.000520	20.808256
1760.463203	-3.004200	3.296400	-9.902400	26.677215	0.000518	20.824974
1761.462570	-2.998600	3.296700	-9.884500	26.729688	0.000518	20.817985
1762.463702	-2.977200	3.296100	-9.811700	26.740046	0.000518	20.834088
1763.467120	-3.019800	3.294000	-9.946600	26.786239	0.000517	20.822210
1764.466841	-2.989000	3.295900	-9.849700	26.826055	0.000514	20.834267
1765.464301	-3.013200	3.294400	-9.925300	26.831022	0.000515	20.803227
1766.466687	-3.013100	3.294600	-9.925900	26.901560	0.000516	20.832427
1767.464110	-3.009300	3.293000	-9.908400	26.922228	0.000514	20.818596
1768.467029	-2.998800	3.294000	-9.876500	26.947397	0.000516	20.831577
1769.467664	-3.011900	3.293300	-9.918300	26.988272	0.000512	20.833326
1770.465564	-3.022600	3.292300	-9.950300	26.996717	0.000512	20.826171
1771.466166	-3.008500	3.291400	-9.900300	27.041582	0.000511	20.832409
1772.466774	-3.003800	3.291700	-9.886600	27.030022	0.000510	20.845913
1773.466319	-3.003900	3.291100	-9.884500	27.018786	0.000510	20.847416
1774.467309	-2.982700	3.291600	-9.816900	26.993895	0.000511	20.835661
1775.468905	-2.983300	3.292400	-9.819400	26.972003	0.000511	20.846837
1776.466768	-2.984800	3.291200	-9.822300	26.983927	0.000509	20.825163
1777.467659	-2.977000	3.291000	-9.796300	26.995683	0.000510	20.834140
1778.467371	-2.985500	3.290700	-9.823000	27.026061	0.000508	20.860895
1779.466653	-2.995200	3.290300	-9.854300	27.044798	0.000507	20.833273
1780.470420	-3.011300	3.288800	-9.902400	27.047701	0.000507	20.839984
1781.469786	-3.002000	3.289600	-9.874100	27.041449	0.000507	20.836543
1782.468958	-3.001500	3.287300	-9.866200	26.984974	0.000507	20.854665
1783.468217	-3.011700	3.287900	-9.901400	26.945165	0.000506	20.837867
1784.467731	-3.005600	3.288000	-9.881000	26.932287	0.000506	20.847202
1785.470248	-2.979500	3.288200	-9.795900	26.894661	0.000503	20.839714
1786.468799	-3.006000	3.287500	-9.880500	26.891717	0.000505	20.859037
1787.470381	-2.990900	3.285400	-9.825200	26.875684	0.000503	20.848132
1788.468166	-3.004900	3.285100	-9.871000	26.915294	0.000502	20.846710
1789.474336	-3.008100	3.285600	-9.882100	26.943610	0.000502	20.835355
1790.469885	-3.038400	3.284600	-9.978900	26.994963	0.000503	20.850959
1791.468145	-3.002800	3.285500	-9.864100	27.014717	0.000501	20.855177
1792.472167	-2.993900	3.283900	-9.831000	27.037593	0.000499	20.868699
1793.474920	-2.983200	3.285000	-9.798700	27.040845	0.000499	20.844469
1794.468321	-2.995600	3.285200	-9.840200	27.084049	0.000500	20.850935
1795.473475	-2.998900	3.283800	-9.846300	27.081716	0.000500	20.870399
1796.475650	-2.992900	3.284400	-9.828900	27.114571	0.000497	20.833743
1797.471034	-2.988500	3.283700	-9.812400	27.125114	0.000497	20.852406
1798.469860	-2.989300	3.284000	-9.814700	27.128219	0.000497	20.852210
1799.470285	-2.998900	3.283200	-9.844800	27.120742	0.000497	20.868397
1800.473798	-3.001400	3.283500	-9.854600	27.128408	0.000495	20.869942
1801.472114	-2.990900	3.281800	-9.813600	27.081147	0.000495	20.836637
1802.470973	-3.017500	3.280000	-9.896600	27.042301	0.000495	20.846408
1803.474510	-2.993100	3.280100	-9.816300	26.998575	0.000495	20.852695
1804.472125	-3.020900	3.279200	-9.905100	26.921613	0.000495	20.860650
1805.473702	-2.975700	3.281000	-9.762600	26.907962	0.000495	20.859726
1806.474823	-3.028200	3.278000	-9.925800	26.907687	0.000493	20.865612
1807.473558	-3.011300	3.278100	-9.870700	26.918906	0.000492	20.839911
1808.473952	-3.014000	3.279400	-9.882500	26.913265	0.000492	20.838506
1809.477051	-3.008300	3.278600	-9.862300	26.908434	0.000494	20.848821
1810.474942	-2.998200	3.278300	-9.828200	26.877054	0.000490	20.848087
1811.477552	-3.015100	3.278000	-9.882700	26.848655	0.000490	20.851301
1812.476067	-2.999500	3.277000	-9.829000	26.830393	0.000488	20.852379
1813.474263	-3.020700	3.275300	-9.892600	26.843314	0.000490	20.846405
1814.474249	-3.004100	3.277500	-9.844600	26.850884	0.000489	20.830783
1815.475150	-3.018000	3.275100	-9.883200	26.845089	0.000488	20.838707
1816.476242	-3.021100	3.276100	-9.896600	26.833177	0.000486	20.864661
1817.478487	-2.987300	3.276400	-9.784600	26.799996	0.000486	20.839360
1818.475192	-2.997100	3.275000	-9.814200	26.796663	0.000485	20.841699
1819.478803	-2.985900	3.276500	-9.782100	26.804306	0.000484	20.842746
1820.476888	-2.988900	3.274300	-9.784900	26.843441	0.000485	20.813816
1821.475566	-2.996200	3.273500	-9.807000	26.885109	0.000485	20.830583
1822.480927	-3.010700	3.272100	-9.850000	26.921069	0.000484	20.829284
1823.476341	-2.990700	3.273200	-9.787700	26.947883	0.000480	20.838230
1824.479298	-2.979500	3.273200	-9.751000	26.948142	0.000481	20.850817
1825.480094	-2.976500	3.272700	-9.739600	26.968239	0.000480	20.827879
1826.477197	-2.993100	3.272100	-9.793500	26.978937	0.000481	20.801654
1827.477743	-3.002500	3.271800	-9.820800	26.961411	0.000479	20.821961
1828.480495	-2.991500	3.271100	-9.783500	26.933867	0.000479	20.817023
1829.477013	-2.984100	3.271300	-9.761000	26.893412	0.000476	20.825182
1830.477290	-2.995500	3.269900	-9.794100	26.902249	0.000477	20.845447
1831.477761	-2.980400	3.270600	-9.747000	26.946671	0.000477	20.817097
1832.483354	-2.996300	3.270100	-9.797000	26.966028	0.000476	20.826130
1833.480576	-2.992300	3.269400	-9.781900	26.956500	0.000475	20.813230
1834.479918	-3.008000	3.268900	-9.831500	26.915519	0.000476	20.818962
1835.483584	-2.993900	3.270600	-9.790600	26.884404	0.000475	20.827978
1836.480133	-2.967600	3.270200	-9.703300	26.876338	0.000474	20.808014
1837.481087	-2.986200	3.268900	-9.760000	26.861322	0.000472	20.820416
1838.486669	-2.977500	3.269800	-9.735000	26.877330	0.000473	20.834616
1839.485003	-2.970300	3.268500	-9.707400	26.844045	0.000472	20.797829
1840.482327	-3.001300	3.267700	-9.805800	26.860697	0.000472	20.827374
1841.492909	-3.009700	3.267100	-9.831800	26.877201	0.000471	20.815520
1842.484327	-3.012600	3.265500	-9.836800	26.929249	0.000470	20.815699
1843.488415	-2.996000	3.265900	-9.783100	26.959794	0.000471	20.820335
1844.485590	-3.019700	3.264700	-9.857000	27.031015	0.000468	20.836481
1845.496838	-3.011200	3.265100	-9.831400	27.041394	0.000468	20.843600
1846.486243	-3.004300	3.265400	-9.809000	27.086006	0.000467	20.824929
1847.491101	-3.005400	3.264900	-9.811200	27.106488	0.000467	20.816131
1848.491329	-3.017200	3.263200	-9.844600	27.107498	0.000467	20.810034
1849.491958	-2.998700	3.264200	-9.787200	27.112960	0.000467	20.803199
1850.486993	-3.002600	3.264300	-9.800300	27.154747	0.000466	20.812510
1851.487126	-2.997800	3.262900	-9.780700	27.179603	0.000466	20.824234
1852.489240	-3.027000	3.260900	-9.870000	27.188518	0.000464	20.813286
1853.490319	-2.995300	3.262900	-9.771300	27.212867	0.000463	20.800319
1854.491179	-2.979600	3.263800	-9.722300	27.235617	0.000463	20.814666
1855.489403	-3.017300	3.261800	-9.840500	27.208551	0.000461	20.814469
1856.492299	-2.985100	3.263700	-9.741300	27.193595	0.000461	20.800849
1857.490113	-2.984100	3.262400	-9.733800	27.197202	0.000460	20.813960
1858.490301	-3.007400	3.260800	-9.804800	27.195536	0.000459	20.792844
1859.496744	-3.017700	3.258500	-9.831800	27.196437	0.000458	20.815561
1860.489416	-3.020900	3.258400	-9.842000	27.157634	0.000459	20.804034
1861.488820	-3.013900	3.259600	-9.822800	27.085883	0.000459	20.786399
1862.490385	-2.994900	3.259200	-9.759800	27.028639	0.000459	20.804220
1863.491364	-2.986700	3.257900	-9.729700	26.975709	0.000457	20.805520
1864.492138	-3.005800	3.257700	-9.790200	26.954668	0.000455	20.796216
1865.493774	-2.991000	3.257700	-9.743000	26.945133	0.000455	20.810335
1866.490674	-2.993000	3.257900	-9.750100	26.989218	0.000457	20.795871
1867.491342	-3.009100	3.256600	-9.797500	26.999891	0.000455	20.794751
1868.492179	-2.996400	3.255600	-9.754000	27.000087	0.000452	20.807750
1869.492262	-3.007600	3.256100	-9.792500	26.974486	0.000450	20.804290
1870.496309	-3.001000	3.255000	-9.767500	26.951057	0.000452	20.786420
1871.493042	-2.999100	3.255000	-9.761000	26.942485	0.000452	20.796767
1872.496746	-2.980600	3.253400	-9.696500	26.953453	0.000451	20.777449
1873.494096	-2.996800	3.253900	-9.750500	27.020413	0.000449	20.796896
1874.492742	-2.998800	3.253200	-9.753200	27.053993	0.000448	20.797950
1875.495811	-2.979500	3.254600	-9.695700	27.087663	0.000450	20.804311
1876.495543	-2.997800	3.252800	-9.750000	27.144220	0.000448	20.800974
1877.493155	-3.002700	3.252700	-9.765200	27.173853	0.000445	20.776251
1878.493029	-3.001500	3.252300	-9.761200	27.155443	0.000445	20.777649
1879.493150	-3.003800	3.254300	-9.774600	27.165748	0.000446	20.782798
1880.494852	-3.030600	3.251700	-9.853800	27.157765	0.000446	20.782355
1881.495222	-2.993900	3.252600	-9.737100	27.132632	0.000444	20.792165
1882.494681	-3.030300	3.249600	-9.846100	27.122334	0.000444	20.784178
1883.496903	-3.025700	3.249900	-9.831900	27.090931	0.000444	20.781045
1884.497322	-3.002900	3.249800	-9.758000	27.125096	0.000442	20.794068
1885.497146	-2.993100	3.249700	-9.725500	27.129646	0.000442	20.765454
1886.502393	-3.001700	3.250100	-9.754900	27.154144	0.000441	20.770178
1887.497486	-3.035500	3.247500	-9.856900	27.133847	0.000441	20.784852
1888.498236	-3.013500	3.248300	-9.787700	27.095758	0.000441	20.778312
1889.497096	-3.023800	3.248800	-9.822800	27.089960	0.000438	20.766792
1890.500526	-3.003900	3.247700	-9.754900	27.118174	0.000438	20.782839
1891.496898	-3.005700	3.247200	-9.759500	27.112744	0.000440	20.785439
1892.500794	-3.014200	3.245800	-9.782500	27.121132	0.000434	20.768745
1893.498589	-3.011900	3.245800	-9.774900	27.129325	0.000438	20.776510
1894.498487	-2.987200	3.246000	-9.695800	27.211346	0.000435	20.788831
1895.499441	-2.989600	3.244900	-9.700200	27.196844	0.000435	20.761916
1896.500473	-3.000600	3.245600	-9.737500	27.202801	0.000434	20.763167
1897.505005	-3.012700	3.244700	-9.774500	27.240698	0.000433	20.776155
1898.500614	-2.990400	3.245300	-9.703900	27.234497	0.000433	20.771814
1899.501190	-3.000800	3.243700	-9.732800	27.242039	0.000433	20.765650
1900.500659	-3.007000	3.243000	-9.749200	27.273077	0.000431	20.770792
1901.504152	-2.980600	3.243500	-9.666800	27.295434	0.000431	20.774315
1902.502657	-2.993900	3.244500	-9.712500	27.288591	0.000431	20.774543
1903.502485	-3.004400	3.242700	-9.741500	27.316206	0.000430	20.771501
1904.501581	-3.012400	3.242800	-9.767300	27.301611	0.000427	20.784321
1905.502678	-2.992600	3.242700	-9.703300	27.273360	0.000428	20.790043
1906.501918	-2.989300	3.242400	-9.691600	27.243076	0.000426	20.759106
1907.500947	-2.981900	3.242200	-9.666100	27.245213	0.000426	20.771688
1908.503599	-3.008400	3.240100	-9.746700	27.225097	0.000425	20.756195
1909.502192	-3.007700	3.238400	-9.738800	27.235094	0.000423	20.771940
1910.504949	-2.997900	3.240600	-9.713300	27.258272	0.000421	20.766331
1911.503545	-2.991200	3.240300	-9.690900	27.232751	0.000424	20.765790
1912.507537	-2.991900	3.239000	-9.690100	27.241910	0.000420	20.766468
1913.506170	-2.994100	3.238100	-9.694400	27.268405	0.000422	20.766566
1914.503957	-2.999600	3.238000	-9.710600	27.300392	0.000420	20.761758
1915.506326	-3.006800	3.237900	-9.734600	27.320937	0.000420	20.757768
1916.504008	-2.994900	3.237500	-9.695200	27.326226	0.000417	20.749812
1917.503813	-2.983800	3.238200	-9.660600	27.320626	0.000420	20.775948
1918.507098	-3.019100	3.235700	-9.768200	27.328094	0.000418	20.768288
1919.507851	-2.994200	3.235500	-9.686900	27.328817	0.000418	20.765695
1920.505601	-3.020700	3.234700	-9.769200	27.381217	0.000417	20.757715
1921.505321	-3.018000	3.235700	-9.764600	27.416175	0.000416	20.757322
1922.504747	-3.002400	3.235700	-9.713500	27.381450	0.000416	20.738984
1923.504723	-2.988800	3.234600	-9.666500	27.390130	0.000414	20.746767
1924.508674	-3.006800	3.233500	-9.721500	27.399368	0.000414	20.737094
1925.505280	-3.025000	3.231300	-9.773800	27.411874	0.000412	20.771013
1926.507077	-2.994400	3.233800	-9.682300	27.418032	0.000412	20.757768
1927.506339	-3.018200	3.231900	-9.753000	27.400129	0.000413	20.734066
1928.507748	-2.983700	3.233300	-9.645600	27.424889	0.000412	20.765141
1929.511279	-2.993300	3.232300	-9.674000	27.406508	0.000409	20.749967
1930.511522	-3.000000	3.232000	-9.695100	27.439555	0.000409	20.753817
1931.509193	-3.000500	3.232400	-9.698000	27.465208	0.000408	20.756866
1932.511117	-3.001100	3.230000	-9.691700	27.464248	0.000407	20.770599
1933.513114	-3.013700	3.231300	-9.736700	27.472089	0.000407	20.752883
1934.515565	-3.017600	3.229400	-9.743700	27.463986	0.000406	20.752791
1935.512611	-2.993700	3.230300	-9.669300	27.431613	0.000405	20.763845
1936.513336	-3.002100	3.229800	-9.695500	27.490410	0.000404	20.764203
1937.512961	-2.977100	3.230100	-9.614500	27.482870	0.000403	20.750452
1938.512534	-2.984500	3.226800	-9.629700	27.450113	0.000404	20.743101
1939.518170	-2.991300	3.226900	-9.651400	27.408344	0.000404	20.767463
1940.515563	-2.981100	3.228300	-9.622800	27.345413	0.000399	20.746827
1941.515587	-2.993000	3.227400	-9.658700	27.301088	0.000401	20.740646
1942.514713	-2.964300	3.226000	-9.561800	27.286660	0.000401	20.734193
1943.515544	-3.026200	3.225400	-9.759700	27.211165	0.000400	20.733171
1944.517008	-3.025100	3.226500	-9.759500	27.183652	0.000399	20.723990
1945.518902	-3.006900	3.226300	-9.700200	27.152520	0.000399	20.738198
1946.519289	-2.994700	3.226200	-9.660600	27.171856	0.000398	20.727299
1947.517590	-3.005900	3.225500	-9.694400	27.185551	0.000396	20.731117
1948.518730	-2.988200	3.225600	-9.637300	27.235521	0.000396	20.740126
1949.519475	-2.997200	3.222300	-9.656600	27.279147	0.000395	20.740860
1950.519238	-3.000100	3.223600	-9.670400	27.338287	0.000395	20.734443
1951.518667	-2.998800	3.222700	-9.663100	27.373676	0.000394	20.746811
1952.522872	-2.985300	3.221900	-9.617600	27.389084	0.000392	20.731964
1953.518860	-2.981400	3.223500	-9.609700	27.406076	0.000394	20.746214
1954.520344	-3.010800	3.221100	-9.696600	27.357787	0.000390	20.743154
1955.526272	-3.004700	3.221400	-9.678100	27.350864	0.000392	20.769381
1956.521121	-3.007100	3.219800	-9.680800	27.406505	0.000390	20.730998
1957.520535	-2.985900	3.220700	-9.616000	27.478727	0.000389	20.736801
1958.520733	-2.994800	3.220000	-9.641500	27.488900	0.000389	20.733285
1959.520773	-3.014200	3.218300	-9.700300	27.522238	0.000390	20.739800
1960.520145	-2.991100	3.220300	-9.631000	27.521303	0.000388	20.732695
1961.523488	-2.990200	3.218700	-9.623500	27.480951	0.000386	20.735719
1962.522324	-3.011700	3.216600	-9.687000	27.483210	0.000385	20.756959
1963.525574	-2.978700	3.219400	-9.588500	27.520765	0.000383	20.740215
1964.522036	-2.991500	3.216900	-9.622600	27.514744	0.000384	20.726095
1965.522240	-3.007300	3.216600	-9.672100	27.524127	0.000383	20.723208
1966.526883	-2.991700	3.217600	-9.625300	27.500839	0.000384	20.726331
1967.524092	-2.964400	3.217700	-9.538200	27.489553	0.000380	20.720191
1968.526303	-2.998800	3.215200	-9.640200	27.503748	0.000381	20.733050
1969.524556	-3.004800	3.216700	-9.664700	27.526571	0.000380	20.716183
1970.529466	-3.008400	3.215400	-9.673000	27.543244	0.000380	20.733907
1971.528441	-3.017300	3.214000	-9.696800	27.568698	0.000378	20.696454
1972.528260	-3.020000	3.212800	-9.700900	27.557217	0.000380	20.722362
1973.527174	-2.991100	3.214700	-9.614700	27.602611	0.000375	20.730578
1974.528126	-2.995800	3.212800	-9.623100	27.634825	0.000377	20.726008
1975.529138	-3.004900	3.213400	-9.653700	27.646668	0.000377	20.733659
1976.526577	-3.004800	3.212000	-9.650500	27.673601	0.000375	20.736577
1977.529787	-2.994400	3.211100	-9.614400	27.704179	0.000374	20.693377
1978.534328	-3.001600	3.210800	-9.636000	27.730094	0.000373	20.716613
1979.528666	-2.996600	3.210800	-9.619200	27.724123	0.000373	20.718664
1980.529081	-3.031200	3.209700	-9.728300	27.694941	0.000372	20.716799
1981.528502	-2.998500	3.210000	-9.624200	27.624479	0.000372	20.713701
1982.531629	-3.012500	3.209500	-9.667100	27.616102	0.000370	20.719497
1983.529521	-3.030800	3.208700	-9.723800	27.625412	0.000369	20.713217
1984.533091	-2.990600	3.207300	-9.590400	27.610203	0.000369	20.714509
1985.533091	-3.023600	3.206900	-9.695200	27.566930	0.000368	20.703684
1986.531341	-2.998400	3.207100	-9.614100	27.559690	0.000367	20.696873
1987.534629	-2.999700	3.208200	-9.621500	27.525026	0.000367	20.703723
1988.535501	-3.012900	3.206500	-9.659800	27.494013	0.000365	20.716617
1989.531585	-3.010100	3.205900	-9.648900	27.508727	0.000364	20.707713
1990.530395	-3.002300	3.205900	-9.624400	27.535541	0.000364	20.689170
1991.531267	-3.024500	3.204800	-9.691300	27.521005	0.000364	20.721015
1992.531301	-3.014500	3.204600	-9.659900	27.479264	0.000363	20.706993
1993.532897	-3.018600	3.203900	-9.670300	27.503948	0.000360	20.713811
1994.530643	-3.001700	3.204600	-9.618000	27.522279	0.000362	20.703329
1995.535441	-3.011500	3.204400	-9.648800	27.555990	0.000362	20.715911
1996.531487	-2.977300	3.203200	-9.535500	27.589920	0.000358	20.708798
1997.536077	-3.007100	3.201400	-9.625800	27.600546	0.000356	20.695781
1998.536141	-3.036700	3.201100	-9.718700	27.621947	0.000358	20.692659
1999.531476	-2.983800	3.201800	-9.552100	27.643452	0.000356	20.691064
2000.532546	-3.006900	3.202100	-9.627700	27.689881	0.000358	20.707914
2001.532366	-3.009600	3.200500	-9.630900	27.681107	0.000358	20.698135
2002.531371	-3.004700	3.199800	-9.613700	27.704991	0.000357	20.696565
2003.533099	-2.996200	3.200500	-9.588300	27.692813	0.000353	20.715606
2004.536485	-2.977700	3.200900	-9.529800	27.736958	0.000354	20.687481
2005.533872	-2.990500	3.200200	-9.569300	27.770191	0.000352	20.709547
2006.534825	-3.003100	3.199200	-9.606600	27.789411	0.000351	20.691430
2007.533857	-2.991600	3.197600	-9.562900	27.830473	0.000351	20.717584
2008.536099	-3.000200	3.199700	-9.598100	27.837970	0.000350	20.712326
2009.536641	-3.002700	3.197700	-9.601000	27.818346	0.000353	20.696368
2010.534535	-3.030100	3.196900	-9.685600	27.827354	0.000350	20.702115
2011.533617	-3.000800	3.198100	-9.595300	27.846694	0.000350	20.703562
2012.533744	-2.997900	3.196800	-9.582000	27.867643	0.000350	20.699041
2013.533630	-2.988500	3.195700	-9.549200	27.869162	0.000348	20.703415
2014.537698	-2.998800	3.195400	-9.580800	27.863501	0.000347	20.717159
2015.537029	-3.009900	3.194800	-9.614800	27.849961	0.000345	20.685037
2016.534644	-2.996800	3.194700	-9.571600	27.834933	0.000346	20.696467
2017.536451	-2.996500	3.192500	-9.566100	27.790590	0.000346	20.705894
2018.535718	-2.996200	3.194400	-9.570200	27.732766	0.000345	20.699385
2019.536070	-3.000400	3.192300	-9.577500	27.678548	0.000343	20.686076
2020.538459	-2.997100	3.194300	-9.572700	27.616177	0.000342	20.692069
2021.536637	-2.984900	3.192400	-9.527900	27.600050	0.000342	20.692437
2022.539114	-2.986500	3.194400	-9.539300	27.624376	0.000339	20.689413
2023.538016	-2.992000	3.190300	-9.545400	27.664265	0.000342	20.707267
2024.537388	-2.995900	3.189700	-9.555300	27.701588	0.000340	20.702150
2025.542030	-2.997800	3.189100	-9.559000	27.723953	0.000337	20.702845
2026.539318	-2.988500	3.190000	-9.532700	27.755319	0.000338	20.693157
2027.540202	-3.003600	3.188900	-9.577600	27.792987	0.000336	20.675113
2028.539892	-2.997000	3.188800	-9.555700	27.831670	0.000336	20.703140
2029.540765	-3.015700	3.186900	-9.609700	27.803402	0.000335	20.700769
2030.540285	-3.006000	3.188900	-9.585100	27.771956	0.000334	20.677182
2031.543911	-3.021300	3.187700	-9.630300	27.747407	0.000336	20.700843
2032.539924	-3.002600	3.186000	-9.565600	27.728804	0.000332	20.677853
2033.541013	-2.991100	3.187200	-9.531500	27.762509	0.000332	20.696125
2034.542312	-3.015900	3.185900	-9.606500	27.790974	0.000331	20.698693
2035.542093	-3.022000	3.185300	-9.625400	27.805953	0.000331	20.678204
2036.544813	-2.990500	3.184500	-9.521900	27.814262	0.000329	20.687990
2037.542633	-2.985800	3.186800	-9.514200	27.793483	0.000327	20.685096
2038.545303	-2.989000	3.183900	-9.515900	27.826292	0.000329	20.692511
2039.544074	-3.016600	3.183700	-9.603600	27.838939	0.000327	20.695757
2040.545864	-2.992500	3.182900	-9.523700	27.832693	0.000326	20.696108
2041.546433	-2.980100	3.184300	-9.487600	27.821117	0.000326	20.699631
2042.545769	-3.005500	3.183100	-9.565700	27.788835	0.000325	20.691798
2043.546475	-2.982500	3.183200	-9.492900	27.693797	0.000325	20.691464
2044.546124	-2.995800	3.180900	-9.529100	27.705064	0.000325	20.702329
2045.545687	-2.995800	3.181000	-9.529300	27.679896	0.000322	20.689803
2046.546008	-2.991500	3.180000	-9.512200	27.686475	0.000321	20.689312
2047.547310	-3.025400	3.179000	-9.616300	27.713699	0.000320	20.685413
2048.547445	-2.972500	3.180300	-9.452200	27.791993	0.000321	20.697823
2049.550615	-2.955000	3.179100	-9.393400	27.821082	0.000320	20.687742
2050.548865	-2.996400	3.179200	-9.524900	27.839073	0.000319	20.688778
2051.550185	-3.004000	3.177800	-9.544900	27.806784	0.000321	20.690896
2052.553559	-2.990200	3.176500	-9.497300	27.812340	0.000318	20.686056
2053.550058	-3.026800	3.175800	-9.612100	27.767735	0.000318	20.694272
2054.552776	-3.000800	3.176600	-9.530300	27.715881	0.000316	20.704206
2055.549972	-2.997700	3.176800	-9.522900	27.715149	0.000316	20.692088
2056.552232	-3.013700	3.174800	-9.566700	27.741664	0.000316	20.695537
2057.550248	-3.005200	3.174100	-9.537800	27.760657	0.000314	20.683830
2058.550066	-3.026000	3.172500	-9.599100	27.803979	0.000314	20.693763
2059.551867	-3.014600	3.173300	-9.565100	27.822012	0.000315	20.707171
2060.549106	-3.004100	3.173200	-9.531200	27.846769	0.000311	20.689412
2061.550103	-3.017100	3.173500	-9.573600	27.809452	0.000311	20.701168
2062.551339	-3.014100	3.171700	-9.558600	27.792466	0.000309	20.695928
2063.551331	-2.983900	3.172300	-9.465200	27.780858	0.000309	20.688987
2064.550042	-3.015100	3.171000	-9.559900	27.773596	0.000309	20.680729
2065.549877	-2.997600	3.171400	-9.506000	27.789769	0.000309	20.697006
2066.550842	-3.019200	3.171600	-9.574800	27.783717	0.000308	20.695657
2067.549527	-2.983900	3.168200	-9.453000	27.786998	0.000306	20.683785
2068.553450	-2.979600	3.168600	-9.440100	27.786453	0.000308	20.654785
2069.551369	-2.995200	3.169500	-9.492200	27.787518	0.000305	20.696163
2070.557590	-2.984200	3.168500	-9.454200	27.783854	0.000305	20.686785
2071.552492	-2.978200	3.168700	-9.436800	27.794317	0.000304	20.695893
2072.553023	-3.028200	3.167900	-9.592000	27.802968	0.000304	20.695117
2073.557320	-3.008000	3.166900	-9.525000	27.856091	0.000303	20.674136
2074.554730	-3.004400	3.165700	-9.510200	27.872280	0.000300	20.702760
2075.558880	-2.985800	3.167200	-9.455800	27.869153	0.000302	20.683016
2076.555126	-2.980500	3.167900	-9.440800	27.879647	0.000301	20.683146
2077.553745	-3.019800	3.163400	-9.551500	27.880582	0.000300	20.679345
2078.555835	-3.000100	3.163300	-9.487400	27.867723	0.000297	20.696750
2079.559160	-2.975200	3.163200	-9.410600	27.887258	0.000298	20.692704
2080.555223	-2.996800	3.163500	-9.479600	27.929210	0.000298	20.687512
2081.557161	-3.000700	3.162600	-9.489200	27.916435	0.000298	20.697414
2082.559431	-2.948000	3.163600	-9.325100	27.947460	0.000298	20.700667
2083.557068	-3.006800	3.160500	-9.502500	27.933035	0.000295	20.707485
2084.561698	-3.001800	3.159300	-9.482900	27.892189	0.000294	20.707151
2085.557795	-2.992900	3.160200	-9.456800	27.852947	0.000295	20.700846
2086.557326	-3.001300	3.159800	-9.482500	27.805931	0.000296	20.709954
2087.557072	-2.987500	3.159100	-9.437000	27.802804	0.000292	20.718187
2088.556577	-3.008000	3.158600	-9.500000	27.816248	0.000292	20.706586
2089.558039	-2.999200	3.156600	-9.465700	27.833900	0.000293	20.703487
2090.556925	-3.003100	3.156100	-9.476500	27.839407	0.000292	20.705711
2091.558477	-2.970300	3.156600	-9.375300	27.883099	0.000290	20.707485
2092.556965	-3.022800	3.155400	-9.537000	27.922451	0.000289	20.707264
2093.558518	-3.010800	3.156100	-9.500200	27.957507	0.000288	20.689915
2094.560166	-3.016900	3.153700	-9.513400	27.982051	0.000288	20.709406
2095.564960	-3.001600	3.155800	-9.471500	28.003622	0.000287	20.715472
2096.564375	-3.017300	3.154000	-9.515100	28.013490	0.000286	20.710232
2097.560361	-3.008600	3.152900	-9.484600	28.060294	0.000286	20.718465
2098.559161	-2.996200	3.152700	-9.444700	28.099096	0.000285	20.702522
2099.563452	-2.965400	3.153800	-9.351200	28.113624	0.000284	20.705293
2100.564698	-3.006000	3.151900	-9.473400	28.107728	0.000284	20.726386
2101.561767	-3.008600	3.151300	-9.479200	28.126561	0.000282	20.699824
2102.561981	-2.986600	3.150900	-9.408700	28.122817	0.000282	20.725929
2103.561255	-3.006500	3.149200	-9.467000	28.151475	0.000282	20.706888
2104.563278	-3.005900	3.148000	-9.460200	28.170094	0.000279	20.723263
2105.565499	-2.998700	3.148800	-9.441800	28.202470	0.000280	20.720295
2106.564186	-3.026200	3.146800	-9.522200	28.192806	0.000279	20.729059
2107.569524	-2.998900	3.146900	-9.436100	28.158491	0.000279	20.715374
2108.565387	-3.021500	3.146100	-9.504800	28.158344	0.000278	20.735142
2109.566012	-2.994600	3.147200	-9.423300	28.145213	0.000278	20.725241
2110.567471	-2.998800	3.145900	-9.432500	28.174821	0.000278	20.713322
2111.564528	-3.012900	3.145100	-9.474500	28.156477	0.000277	20.731366
2112.565675	-3.018700	3.144500	-9.491600	28.073141	0.000276	20.718121
2113.565386	-2.999300	3.144300	-9.428800	28.021173	0.000275	20.728398
2114.565460	-3.011800	3.142900	-9.464700	27.992310	0.000274	20.739648
2115.566714	-2.989600	3.142600	-9.393800	28.001382	0.000275	20.716062
2116.573646	-2.993700	3.141400	-9.403000	28.043256	0.000275	20.743989
2117.567984	-2.996900	3.142400	-9.416700	28.063155	0.000274	20.707593
2118.570309	-3.000500	3.142300	-9.427000	28.085317	0.000272	20.737491
2119.568441	-3.019500	3.140600	-9.482300	28.063447	0.000270	20.735865
2120.568279	-3.012200	3.139900	-9.457500	28.084490	0.000270	20.717217
2121.574734	-3.008200	3.138000	-9.438100	28.084727	0.000269	20.723146
2122.568880	-3.009800	3.137900	-9.443800	28.064326	0.000268	20.732008
2123.569106	-3.005000	3.136500	-9.424600	28.034993	0.000269	20.746103
2124.569697	-2.985500	3.138400	-9.367700	28.003945	0.000269	20.735239
2125.569471	-2.997200	3.137200	-9.402500	28.011231	0.000269	20.757746
2126.571007	-3.001300	3.136700	-9.413000	28.043896	0.000266	20.721399
2127.568438	-3.012000	3.134500	-9.440400	28.070867	0.000267	20.736222
2128.570508	-2.998300	3.135000	-9.398800	28.085811	0.000266	20.738462
2129.570464	-3.006300	3.134400	-9.422300	28.100632	0.000265	20.719242
2130.570484	-3.010000	3.133300	-9.430200	28.088183	0.000264	20.751282
2131.570829	-3.014100	3.131700	-9.438400	28.040333	0.000263	20.734883
2132.570702	-2.979500	3.132900	-9.333600	27.994041	0.000263	20.730011
2133.570230	-3.000400	3.131400	-9.394400	27.977854	0.000263	20.737900
2134.572802	-3.024000	3.130000	-9.463500	27.919084	0.000261	20.729480
2135.574000	-3.006600	3.129300	-9.407300	27.932128	0.000263	20.733601
2136.572117	-3.007400	3.128500	-9.406900	27.941208	0.000261	20.732782
2137.572515	-2.999800	3.128800	-9.385000	27.966932	0.000257	20.722164
2138.573813	-3.015200	3.130000	-9.436400	27.988001	0.000257	20.764235
2139.574152	-3.013000	3.126900	-9.420800	28.039321	0.000258	20.758995
2140.573267	-3.001300	3.127900	-9.386700	28.074502	0.000256	20.762167
2141.572763	-3.018000	3.125600	-9.431500	28.105557	0.000256	20.740797
2142.577174	-3.013500	3.125000	-9.416200	28.182085	0.000257	20.762363
2143.572688	-3.004600	3.124600	-9.387200	28.170928	0.000257	20.737380
2144.578109	-2.996500	3.124700	-9.361800	28.146413	0.000257	20.741148
2145.573739	-3.004700	3.123600	-9.384100	28.117584	0.000256	20.751008
2146.575057	-3.008300	3.122500	-9.392800	28.105875	0.000253	20.750600
2147.577013	-2.973100	3.125100	-9.289200	28.137010	0.000253	20.753968
2148.577540	-3.026900	3.121500	-9.446000	28.172302	0.000254	20.749195
2149.575928	-3.001400	3.120100	-9.363600	28.166351	0.000252	20.739883
2150.576112	-3.007900	3.120400	-9.384700	28.196720	0.000250	20.753389
2151.576254	-2.989400	3.119600	-9.324600	28.211515	0.000252	20.750266
2152.576042	-2.975800	3.118400	-9.278700	28.214107	0.000250	20.756195
2153.578402	-3.013900	3.117500	-9.394700	28.237184	0.000250	20.742918
2154.577034	-2.982600	3.117900	-9.298400	28.257979	0.000251	20.731611
2155.581124	-3.001700	3.116700	-9.353300	28.258328	0.000249	20.757568
2156.577128	-2.994000	3.117700	-9.333400	28.210908	0.000248	20.762931
2157.577297	-2.979800	3.116500	-9.285300	28.205029	0.000249	20.772186
2158.580565	-2.994000	3.116100	-9.328500	28.174709	0.000249	20.737867
2159.576533	-2.998200	3.113700	-9.334400	28.156089	0.000245	20.765590
2160.579636	-2.994300	3.114200	-9.323700	28.153093	0.000247	20.757831
2161.579185	-2.978700	3.113700	-9.273800	28.118581	0.000247	20.770978
2162.579484	-3.008800	3.111800	-9.361700	28.101690	0.000244	20.756819
2163.579477	-3.000000	3.111700	-9.334400	28.144771	0.000242	20.761308
2164.582688	-2.979100	3.111100	-9.266300	28.147768	0.000240	20.758161
2165.580137	-2.994900	3.110500	-9.314300	28.148183	0.000243	20.772804
2166.580622	-3.008900	3.108400	-9.351600	28.192700	0.000241	20.783007
2167.580135	-2.996100	3.108500	-9.311700	28.247429	0.000241	20.770303
2168.580368	-2.994900	3.106500	-9.302500	28.295384	0.000243	20.772593
2169.582109	-2.979600	3.106400	-9.254900	28.317608	0.000242	20.786909
2170.581036	-2.985600	3.105800	-9.270000	28.322470	0.000240	20.769519
2171.581322	-3.007100	3.104600	-9.334000	28.329656	0.000243	20.764901
2172.580954	-3.011600	3.103600	-9.344700	28.328065	0.000240	20.777524
2173.580963	-2.984900	3.103300	-9.261300	28.342590	0.000238	20.797839
2174.579103	-2.995400	3.103000	-9.293500	28.349176	0.000241	20.781710
2175.582203	-3.004000	3.101800	-9.317100	28.299186	0.000238	20.770257
2176.579706	-3.020400	3.100300	-9.363300	28.264386	0.000237	20.772203
2177.580628	-3.012200	3.101200	-9.339900	28.238654	0.000239	20.765736
2178.580428	-3.001700	3.099200	-9.301500	28.253132	0.000237	20.788373
2179.580121	-3.012800	3.098900	-9.335800	28.235382	0.000237	20.773347
2180.586224	-3.030000	3.097800	-9.385100	28.251768	0.000236	20.779413
2181.581425	-2.970700	3.098600	-9.202800	28.276452	0.000233	20.766333
2182.586074	-2.962900	3.098300	-9.178900	28.314499	0.000235	20.808435
2183.582466	-3.011900	3.096500	-9.325700	28.334431	0.000235	20.783934
2184.581679	-3.002300	3.094700	-9.290400	28.386725	0.000232	20.774475
2185.583461	-3.000000	3.094300	-9.282500	28.373394	0.000234	20.778595
2186.583344	-2.988900	3.094000	-9.246200	28.369846	0.000233	20.780239
2187.583841	-2.993200	3.093000	-9.257200	28.326182	0.000233	20.788904
2188.583758	-2.995800	3.091600	-9.260800	28.318371	0.000233	20.779617
2189.583332	-3.015500	3.091700	-9.321400	28.267762	0.000229	20.794569
2190.582829	-3.018600	3.089500	-9.325000	28.257238	0.000229	20.778757
2191.587105	-2.970000	3.090500	-9.178300	28.281353	0.000232	20.785968
2192.583673	-2.993700	3.090400	-9.250500	28.240713	0.000231	20.790095
2193.583945	-2.976100	3.089100	-9.192400	28.251269	0.000229	20.794559
2194.584567	-2.986400	3.088100	-9.221100	28.250830	0.000230	20.798858
2195.584483	-3.007900	3.085400	-9.279800	28.305702	0.000229	20.804793
2196.586846	-3.015900	3.085600	-9.304900	28.310119	0.000229	20.795015
2197.584872	-2.982600	3.085500	-9.201500	28.373318	0.000228	20.780889
2198.585574	-2.996800	3.083300	-9.239400	28.418951	0.000227	20.787011
2199.584177	-2.987000	3.084700	-9.213600	28.436973	0.000228	20.775761
2200.583690	-2.982700	3.083300	-9.196100	28.433336	0.000227	20.783004
2201.586075	-3.010900	3.081500	-9.277100	28.452665	0.000226	20.806736
2202.587550	-3.000700	3.079700	-9.239900	28.492087	0.000226	20.786217
2203.585021	-2.988600	3.078700	-9.199500	28.486542	0.000226	20.786797
2204.584664	-2.977200	3.079500	-9.167300	28.479479	0.000225	20.797229
2205.584246	-2.999000	3.076700	-9.226200	28.444863	0.000225	20.818320
2206.584245	-3.007100	3.075500	-9.247400	28.412607	0.000226	20.787735
2207.587508	-3.014700	3.075600	-9.271400	28.356240	0.000224	20.785979
2208.589578	-3.001600	3.075500	-9.229800	28.352951	0.000225	20.803056
2209.590290	-2.992600	3.076100	-9.204000	28.386207	0.000224	20.812834
2210.589566	-3.019300	3.073800	-9.280100	28.432904	0.000225	20.788259
2211.586195	-3.001200	3.073900	-9.225000	28.465254	0.000223	20.803765
2212.590330	-3.004400	3.072000	-9.228600	28.533420	0.000224	20.814091
2213.587635	-3.004200	3.072100	-9.227900	28.554589	0.000224	20.787995
2214.587166	-2.993600	3.070000	-9.188500	28.592187	0.000222	20.791722
2215.588581	-2.991200	3.068600	-9.177600	28.596044	0.000222	20.805564
2216.589919	-2.998400	3.068700	-9.200400	28.624843	0.000222	20.803748
2217.589762	-2.999600	3.067400	-9.200200	28.590353	0.000221	20.788926
2218.594268	-2.986600	3.066800	-9.158300	28.577293	0.000221	20.812757
2219.591162	-3.012100	3.065800	-9.234200	28.582772	0.000220	20.784136
2220.591377	-3.003800	3.064100	-9.203200	28.604079	0.000222	20.804173
2221.591812	-3.017400	3.062500	-9.238400	28.631992	0.000218	20.787715
2222.590901	-3.007200	3.062400	-9.207200	28.645466	0.000221	20.806976
2223.594658	-2.978700	3.061600	-9.118800	28.696057	0.000222	20.790128
2224.592748	-2.993800	3.061900	-9.164700	28.722199	0.000219	20.819304
2225.592902	-3.015700	3.059600	-9.225500	28.743291	0.000218	20.826799
2226.592366	-2.997600	3.059300	-9.169300	28.763550	0.000217	20.807376
2227.592193	-3.011400	3.056300	-9.202800	28.767908	0.000220	20.814137
2228.592914	-3.006300	3.056600	-9.188100	28.820627	0.000221	20.811293
2229.591980	-3.002000	3.055600	-9.171500	28.782354	0.000220	20.818731
2230.592266	-2.989500	3.054700	-9.131200	28.723667	0.000220	20.825524
2231.591789	-3.006200	3.053700	-9.179200	28.647827	0.000219	20.813621
2232.594523	-3.027900	3.051800	-9.238700	28.623437	0.000219	20.812764
2233.594094	-3.020600	3.052200	-9.217100	28.532549	0.000217	20.829335
2234.594738	-3.035400	3.050000	-9.256200	28.483606	0.000217	20.808971
2235.593800	-2.996400	3.049600	-9.136900	28.509746	0.000219	20.843829
2236.595652	-2.986800	3.048400	-9.103700	28.510461	0.000218	20.847394
2237.594693	-3.012600	3.048100	-9.181900	28.501142	0.000216	20.833742
2238.595042	-2.978500	3.047200	-9.075100	28.494624	0.000216	20.811531
2239.596792	-3.023300	3.044400	-9.203800	28.474517	0.000214	20.836327
2240.594637	-2.973800	3.044500	-9.052900	28.412566	0.000217	20.820410
2241.596597	-2.984900	3.043400	-9.082700	28.404505	0.000215	20.814189
2242.596161	-2.999400	3.042300	-9.124000	28.384721	0.000216	20.827932
2243.594445	-2.992300	3.041700	-9.099700	28.393043	0.000216	20.822088
2244.599143	-2.990500	3.040500	-9.091700	28.441777	0.000214	20.834177
2245.597841	-2.994600	3.039900	-9.103000	28.461692	0.000215	20.832895
2246.597308	-2.986600	3.039700	-9.076500	28.487264	0.000216	20.827353
2247.598556	-2.998000	3.037600	-9.105800	28.483327	0.000211	20.831448
2248.599187	-3.005000	3.036500	-9.122500	28.495715	0.000214	20.834440
2249.599484	-2.997300	3.033900	-9.091600	28.516083	0.000213	20.823658
2250.601426	-2.981000	3.034000	-9.042300	28.549396	0.000213	20.836818
2251.599448	-2.989200	3.033000	-9.065200	28.516683	0.000213	20.823314
2252.601289	-2.990300	3.032300	-9.066100	28.488084	0.000212	20.844299
2253.598860	-2.991400	3.030400	-9.063500	28.485364	0.000215	20.838241
2254.598944	-3.004800	3.028900	-9.100200	28.512250	0.000213	20.832600
2255.600638	-2.976200	3.029500	-9.015900	28.574642	0.000212	20.830475
2256.598577	-3.006600	3.027500	-9.101400	28.593700	0.000211	20.821695
2257.601850	-3.007600	3.025600	-9.098900	28.624026	0.000212	20.845124
2258.599977	-3.003900	3.022600	-9.078300	28.591305	0.000212	20.840619
2259.606317	-3.001800	3.022700	-9.072700	28.586890	0.000214	20.835698
2260.606765	-2.977600	3.022400	-8.998900	28.533444	0.000215	20.841616
2261.601557	-3.017000	3.021000	-9.113800	28.484195	0.000211	20.833271
2262.605411	-3.017900	3.019300	-9.111300	28.441826	0.000212	20.848450
2263.601733	-3.016600	3.018800	-9.105400	28.431969	0.000211	20.841844
2264.603094	-2.992500	3.017200	-9.027400	28.469945	0.000211	20.862541
2265.603050	-2.984100	3.016400	-8.999500	28.488862	0.000211	20.840341
2266.606780	-2.983600	3.014500	-8.992300	28.482780	0.000209	20.837535
2267.604077	-3.000200	3.012200	-9.036200	28.553965	0.000209	20.840945
2268.605351	-3.009300	3.012600	-9.065100	28.576968	0.000210	20.842301
2269.604588	-3.025200	3.011100	-9.108100	28.617537	0.000210	20.859925
2270.606498	-3.006500	3.009300	-9.046600	28.650711	0.000212	20.858250
2271.610172	-3.020300	3.009000	-9.086800	28.651489	0.000211	20.850499
2272.607516	-2.991800	3.008100	-8.998700	28.636333	0.000211	20.863209
2273.612003	-3.050700	3.004300	-9.162600	28.575846	0.000211	20.843067
2274.607194	-2.993500	3.004400	-8.992800	28.577380	0.000211	20.865474
2275.606843	-3.013400	3.002900	-9.047600	28.569255	0.000210	20.858239
2276.608057	-3.010000	3.003500	-9.039500	28.603881	0.000211	20.862293
2277.607083	-3.018400	3.001500	-9.059300	28.611285	0.000211	20.858370
2278.608810	-3.005200	3.000400	-9.016300	28.614709	0.000210	20.858025
2279.608585	-3.005600	2.998500	-9.011300	28.565712	0.000208	20.840922
2280.608767	-2.993500	2.997000	-8.970400	28.492874	0.000210	20.873303
2281.614809	-3.017400	2.996600	-9.041300	28.459151	0.000209	20.843138
2282.613119	-3.017400	2.995800	-9.038800	28.473772	0.000211	20.864973
2283.611790	-2.972300	2.993500	-8.895700	28.536131	0.000209	20.839581
2284.612139	-2.999500	2.993800	-8.979000	28.569283	0.000207	20.854001
2285.612982	-2.980900	2.990900	-8.914700	28.580192	0.000209	20.851712
2286.612152	-2.992100	2.991000	-8.948100	28.604973	0.000208	20.843005
2287.616692	-3.014000	2.989000	-9.007800	28.605517	0.000207	20.843079
2288.613241	-3.020100	2.987300	-9.020900	28.557106	0.000208	20.829410
2289.616498	-3.008800	2.985800	-8.983100	28.534960	0.000207	20.828444
2290.614343	-3.000700	2.984200	-8.953900	28.548272	0.000208	20.848962
2291.614419	-3.010100	2.984200	-8.981900	28.528498	0.000206	20.831419
2292.617990	-3.019000	2.981200	-8.999300	28.555164	0.000208	20.826506
2293.618915	-3.005200	2.979700	-8.953400	28.566902	0.000205	20.844017
2294.614786	-2.973200	2.980000	-8.858500	28.597284	0.000208	20.830520
2295.618641	-3.009000	2.977000	-8.956300	28.593996	0.000207	20.824363
2296.615160	-2.999000	2.977400	-8.928300	28.577501	0.000207	20.839044
2297.614707	-3.005500	2.974800	-8.940200	28.529883	0.000207	20.837082
2298.616278	-2.994200	2.973800	-8.902000	28.493249	0.000206	20.831009
2299.615481	-3.010800	2.972800	-8.946700	28.481290	0.000208	20.826078
2300.627048	-2.997800	2.970900	-8.905200	28.462920	0.000205	20.835554
2301.616690	-2.997000	2.969200	-8.896200	28.497023	0.000207	20.832913
2302.616414	-2.996500	2.967200	-8.890400	28.509069	0.000207	20.828449
2303.618715	-3.006800	2.965900	-8.916000	28.482061	0.000206	20.820690
2304.620362	-2.984400	2.965100	-8.847700	28.480031	0.000207	20.821017
2305.617096	-3.044200	2.961400	-9.013600	28.476564	0.000205	20.809940
2306.618252	-2.992300	2.960800	-8.858700	28.478692	0.000205	20.811134
2307.618676	-3.000900	2.959100	-8.879100	28.523201	0.000205	20.821344
2308.618711	-2.982200	2.958000	-8.820000	28.509742	0.000206	20.805419
2309.621644	-3.030400	2.956800	-8.959500	28.489814	0.000206	20.804316
2310.619103	-2.996100	2.955900	-8.855100	28.478026	0.000206	20.807618
2311.619382	-3.013100	2.953500	-8.898200	28.496259	0.000207	20.825031
2312.618978	-3.017500	2.950500	-8.902500	28.475169	0.000204	20.822759
2313.620935	-3.007900	2.949600	-8.871600	28.434156	0.000204	20.811805
2314.622638	-2.978900	2.950100	-8.787200	28.438596	0.000204	20.805370
2315.622889	-2.976600	2.949300	-8.777100	28.446837	0.000204	20.800393
2316.623114	-3.008500	2.945900	-8.861400	28.495666	0.000203	20.828228
2317.622312	-2.991500	2.943700	-8.805400	28.528324	0.000206	20.800899
2318.622823	-2.990200	2.942400	-8.797700	28.498167	0.000204	20.805616
2319.630167	-3.005900	2.941100	-8.839800	28.501714	0.000205	20.808240
2320.624939	-3.019000	2.939500	-8.873400	28.438230	0.000204	20.786984
2321.625076	-3.007400	2.939400	-8.838300	28.505041	0.000207	20.803056
2322.623821	-3.002600	2.937400	-8.818900	28.548008	0.000206	20.818352
2323.623697	-3.000100	2.935400	-8.805000	28.565428	0.000205	20.804601
2324.625031	-3.008900	2.933700	-8.826100	28.623538	0.000205	20.802434
2325.625158	-2.985400	2.932000	-8.752100	28.639796	0.000204	20.810748
2326.624847	-2.993900	2.930200	-8.771200	28.627685	0.000204	20.800447
2327.627853	-3.008100	2.927600	-8.805800	28.672498	0.000205	20.801012
2328.624273	-3.020800	2.926400	-8.838700	28.683528	0.000202	20.814018
2329.623868	-3.007600	2.926200	-8.799600	28.706626	0.000205	20.805515
2330.626812	-2.988900	2.924200	-8.739100	28.755956	0.000203	20.813477
2331.623651	-2.982600	2.921600	-8.712700	28.821684	0.000204	20.809986
2332.626400	-3.011600	2.921300	-8.797100	28.805404	0.000204	20.803071
2333.625509	-3.019400	2.918600	-8.810900	28.811726	0.000206	20.788576
2334.624506	-2.987300	2.917500	-8.713600	28.792630	0.000203	20.781193
2335.627525	-3.002500	2.916800	-8.757100	28.741492	0.000204	20.807918
2336.630043	-2.987200	2.912800	-8.699800	28.684557	0.000205	20.788502
2337.626416	-3.012500	2.911200	-8.769000	28.629502	0.000204	20.798958
2338.626731	-3.003400	2.910400	-8.739300	28.590629	0.000204	20.771186
2339.626375	-3.021000	2.906900	-8.780200	28.591149	0.000203	20.789254
2340.626925	-3.033200	2.906800	-8.816100	28.594225	0.000204	20.775756
2341.629033	-3.001600	2.904600	-8.717500	28.614688	0.000204	20.785460
2342.625955	-3.011400	2.902800	-8.740700	28.655872	0.000204	20.795172
2343.628261	-2.987400	2.901400	-8.666500	28.693801	0.000205	20.773631
2344.626021	-3.015900	2.899600	-8.743800	28.760175	0.000202	20.782640
2345.630654	-2.990500	2.898300	-8.665100	28.790105	0.000204	20.782443
2346.628006	-2.981400	2.895900	-8.633000	28.832517	0.000203	20.791502
2347.630013	-2.988600	2.895000	-8.650600	28.833612	0.000201	20.780751
2348.627639	-2.990900	2.893800	-8.653700	28.863955	0.000203	20.784291
2349.626878	-3.021600	2.891400	-8.735900	28.810248	0.000203	20.774284
2350.626969	-2.972800	2.890100	-8.591000	28.795681	0.000202	20.781896
2351.627491	-3.012400	2.884900	-8.689700	28.829944	0.000204	20.771366
2352.628403	-3.021900	2.884400	-8.715900	28.900447	0.000202	20.779802
2353.627479	-3.007500	2.883400	-8.670100	28.911784	0.000202	20.794069
2354.631246	-3.008500	2.880200	-8.663400	28.926667	0.000203	20.799580
2355.629246	-2.997400	2.878100	-8.625600	28.927591	0.000204	20.780596
2356.628600	-2.999200	2.878600	-8.632100	28.884811	0.000205	20.760730
2357.631495	-3.010100	2.873800	-8.649000	28.823518	0.000205	20.760150
2358.627973	-3.012600	2.873600	-8.655600	28.806719	0.000204	20.779265
2359.631562	-2.989300	2.871100	-8.580000	28.779289	0.000206	20.749262
2360.630353	-2.958700	2.871000	-8.492500	28.781789	0.000202	20.797774
2361.630377	-3.000900	2.868600	-8.607100	28.834336	0.000206	20.777213
2362.633929	-2.983800	2.866000	-8.549900	28.874459	0.000203	20.784915
2363.633992	-3.015800	2.862700	-8.632500	28.933785	0.000204	20.781621
2364.631391	-2.993500	2.859900	-8.559700	28.928504	0.000205	20.788628
2365.631644	-3.003700	2.859700	-8.588700	28.941462	0.000202	20.790303
2366.631137	-3.012000	2.856200	-8.601400	28.977393	0.000203	20.780510
2367.631719	-3.032400	2.853500	-8.652100	29.025793	0.000202	20.793239
2368.634288	-3.019800	2.853100	-8.614900	28.989727	0.000204	20.789144
2369.630728	-3.013200	2.852000	-8.592800	28.973280	0.000201	20.785849
2370.634312	-2.996100	2.849700	-8.537100	28.981751	0.000202	20.766408
2371.631103	-3.014900	2.845600	-8.578000	28.998149	0.000202	20.769180
2372.632294	-3.003900	2.845400	-8.545000	29.016876	0.000202	20.769081
2373.640608	-3.003900	2.842600	-8.537400	29.033891	0.000203	20.770103
2374.633439	-2.979900	2.841500	-8.466700	29.035920	0.000203	20.772622
2375.631654	-3.003900	2.838600	-8.526000	29.034986	0.000205	20.758878
2376.643949	-3.006700	2.836200	-8.526700	29.051271	0.000204	20.774339
2377.634130	-3.004100	2.832800	-8.508300	29.060544	0.000202	20.774199
2378.635389	-2.994300	2.832400	-8.480300	29.082508	0.000203	20.765509
2379.633391	-3.008500	2.831300	-8.517100	29.133880	0.000202	20.763694
2380.635194	-2.987900	2.828500	-8.450400	29.142440	0.000202	20.773268
2381.633886	-2.984800	2.825100	-8.431700	29.113199	0.000204	20.775098
2382.634174	-2.985000	2.825800	-8.432400	29.086541	0.000202	20.741597
2383.636537	-2.990900	2.822000	-8.439400	29.053729	0.000202	20.789144
2384.638046	-3.005000	2.818500	-8.468700	29.049989	0.000203	20.761667
2385.635997	-3.034500	2.815300	-8.541700	29.070248	0.000203	20.764536
2386.636117	-2.986800	2.814500	-8.405700	29.089761	0.000203	20.760490
2387.635790	-2.979500	2.812900	-8.380200	29.130774	0.000203	20.765779
2388.635236	-2.992900	2.809500	-8.407400	29.107992	0.000203	20.785498
2389.638709	-2.993200	2.807800	-8.403200	29.127668	0.000204	20.783039
2390.636366	-2.996800	2.805700	-8.406800	29.144890	0.000204	20.769099
2391.638559	-2.983400	2.803000	-8.362500	29.170163	0.000201	20.766590
2392.635290	-2.998700	2.799500	-8.393100	29.214246	0.000202	20.756485
2393.635427	-2.983900	2.797500	-8.345000	29.178584	0.000204	20.767964
2394.637728	-3.007800	2.793400	-8.400700	29.162383	0.000202	20.770605
2395.637370	-3.024600	2.791600	-8.442600	29.088004	0.000202	20.754451
2396.635946	-2.991500	2.788900	-8.342400	28.994031	0.000202	20.758392
2397.636787	-3.003700	2.787100	-8.370500	28.956998	0.000202	20.754746
2398.636560	-3.046500	2.782900	-8.476500	28.903938	0.000203	20.743015
2399.636006	-3.001900	2.783400	-8.354800	28.875691	0.000202	20.762923
2400.639548	-2.985400	2.779700	-8.297000	28.916809	0.000202	20.749818
2401.636717	-3.028100	2.775000	-8.401700	28.962429	0.000204	20.749786
2402.639102	-3.012100	2.773300	-8.352100	29.021256	0.000203	20.751209
2403.638085	-2.991900	2.770900	-8.289500	29.063359	0.000203	20.768026
2404.639210	-3.015400	2.767500	-8.344100	29.067165	0.000201	20.772335
2405.641438	-3.008300	2.765100	-8.316700	29.077810	0.000203	20.759353
2406.640203	-2.996300	2.762900	-8.277100	29.083670	0.000204	20.757671
2407.641460	-2.987000	2.760400	-8.242900	29.144721	0.000203	20.764660
2408.639953	-3.001600	2.755700	-8.270500	29.166934	0.000202	20.743895
2409.646616	-3.009000	2.752300	-8.280600	29.170196	0.000204	20.755243
2410.643985	-3.014600	2.750000	-8.288900	29.165929	0.000204	20.753789
2411.643854	-2.983300	2.747600	-8.196000	29.206614	0.000204	20.753062
2412.641340	-3.016300	2.743700	-8.274800	29.226791	0.000201	20.762963
2413.640584	-3.009400	2.740100	-8.245000	29.206551	0.000203	20.754895
2414.641497	-2.996700	2.736000	-8.198300	29.183917	0.000202	20.761958
2415.642115	-3.021000	2.733600	-8.257500	29.182945	0.000201	20.744857
2416.645814	-2.966800	2.731600	-8.103200	29.185297	0.000202	20.739641
2417.642254	-3.018900	2.728300	-8.235200	29.203989	0.000202	20.771280
2418.651645	-3.025000	2.724700	-8.240900	29.216223	0.000199	20.734769
2419.644028	-2.994500	2.721200	-8.147300	29.255804	0.000203	20.756166
2420.644447	-2.984200	2.718900	-8.113100	29.237859	0.000204	20.771747
2421.647765	-3.012600	2.713500	-8.173800	29.196405	0.000202	20.755576
2422.647688	-2.993600	2.711000	-8.113700	29.159097	0.000202	20.761603
2423.645485	-3.003400	2.707200	-8.129500	29.103742	0.000200	20.765568
2424.646834	-2.986500	2.703800	-8.074000	29.049026	0.000201	20.758800
2425.646080	-2.992900	2.700200	-8.081100	29.091354	0.000202	20.756879
2426.648146	-2.982100	2.696700	-8.040600	29.139522	0.000202	20.747093
2427.651878	-2.969500	2.693700	-7.997800	29.168817	0.000201	20.778511
2428.646938	-2.990300	2.688800	-8.039500	29.169978	0.000198	20.757869
2429.647337	-2.991300	2.684900	-8.030000	29.153112	0.000203	20.757943
2430.648348	-3.008700	2.681000	-8.065300	29.170790	0.000200	20.769119
2431.648117	-3.005100	2.678400	-8.048200	29.226458	0.000201	20.738919
2432.651454	-3.008200	2.672500	-8.039200	29.254016	0.000201	20.761476
2433.650332	-3.000800	2.669400	-8.008800	29.255281	0.000200	20.744732
2434.651385	-2.999500	2.666000	-7.996200	29.254908	0.000201	20.732028
2435.650526	-3.018700	2.662300	-8.036000	29.240444	0.000200	20.755860
2436.650394	-2.986400	2.658000	-7.936900	29.274167	0.000202	20.762343
2437.654260	-3.001000	2.653700	-7.962800	29.311934	0.000200	20.762473
2438.650820	-2.999700	2.649400	-7.946600	29.297276	0.000202	20.755761
2439.651703	-2.975800	2.645900	-7.872600	29.258738	0.000201	20.770977
2440.652889	-3.008200	2.640400	-7.941500	29.229169	0.000200	20.764412
2441.652994	-2.966000	2.636900	-7.820200	29.185557	0.000200	20.756973
2442.653495	-2.969500	2.633200	-7.818000	29.165115	0.000201	20.752494
2443.655727	-3.048000	2.625600	-8.001400	29.097289	0.000201	20.750057
2444.652786	-2.978000	2.623300	-7.810500	29.076560	0.000202	20.730591
2445.654673	-2.970200	2.617900	-7.773300	29.045097	0.000201	20.748676
2446.652813	-2.990100	2.614400	-7.816600	29.063634	0.000202	20.745069
2447.655533	-2.974100	2.608200	-7.756500	29.095992	0.000201	20.741163
2448.657520	-2.958800	2.604200	-7.704400	29.171103	0.000200	20.735768
2449.655422	-3.036100	2.596600	-7.883100	29.252088	0.000202	20.755740
2450.656779	-2.973400	2.593500	-7.710800	29.342169	0.000200	20.760703
2451.654705	-2.977500	2.588200	-7.705300	29.392483	0.000201	20.749298
2452.655066	-2.963600	2.583000	-7.654100	29.464806	0.000202	20.746804
2453.657979	-2.991200	2.576600	-7.706400	29.487970	0.000200	20.741704
2454.658410	-2.969800	2.570300	-7.631500	29.528706	0.000202	20.742937
2455.656387	-3.002300	2.563900	-7.696700	29.529518	0.000201	20.723366
2456.657108	-3.012000	2.557500	-7.700800	29.556548	0.000202	20.757254
2457.656425	-3.010300	2.553000	-7.684800	29.601336	0.000201	20.750721
2458.655645	-2.980200	2.547600	-7.591600	29.622275	0.000200	20.743854
2459.661475	-2.969300	2.542600	-7.549100	29.630076	0.000200	20.749821
2460.657320	-2.987400	2.536500	-7.576000	29.625843	0.000201	20.746502
2461.657913	-2.988500	2.529300	-7.558100	29.653251	0.000202	20.746158
2462.658189	-3.010500	2.522000	-7.590700	29.680498	0.000200	20.731427
2463.664881	-2.999900	2.516100	-7.547100	29.653697	0.000201	20.737124
2464.659502	-2.971700	2.511700	-7.463100	29.692482	0.000203	20.736871
2465.658042	-2.989100	2.503900	-7.483500	29.662560	0.000200	20.724248
2466.658937	-2.967600	2.496900	-7.407500	29.645231	0.000201	20.723373
