LabVIEW Measurement	
Writer_Version	2
Reader_Version	2
Separator	Tab
Decimal_Separator	.
Multi_Headings	No
X_Columns	One
Time_Pref	Absolute
Operator	admin
Description	Clolumns are: time, Current, Voltage, Power, Battery Temp, and Chamber Temp
Date	2024/08/16
Time	13:06:06.104549407958984375
***End_of_Header***	
	
Channels	6						
Samples	1	1	1	1	1	1	
Date	2024/09/01	2024/09/01	2024/09/01	2024/09/01	2024/09/01	2024/09/01	
Time	11:55:29.5945839881896972656	11:55:29.6016063690185546875	11:55:29.6066074371337890625	11:55:29.579578399658203125	11:55:29.579578399658203125	11:55:29.579578399658203125	
X_Dimension	Time	Time	Time	Time	Time	Time	
X0	0.0000000000000000E+0	0.0000000000000000E+0	0.0000000000000000E+0	0.0000000000000000E+0	0.0000000000000000E+0	0.0000000000000000E+0	
Delta_X	1.000000	1.000000	1.000000	1.000000	1.000000	1.000000	
***End_of_Header***							
X_Value	Untitled	Untitled 1	Untitled 2	Untitled 3	Untitled 4	Untitled 5	Comment
0.000000	0.012328	4.106200	0.050537	20.980847	0.000941	20.666016
1.002157	-2.998900	3.939900	-11.814000	20.977341	0.000941	20.666777
2.005476	-3.009300	3.932400	-11.833000	20.948038	0.000936	20.655487
3.000829	-3.010400	3.927500	-11.822000	20.963184	0.000939	20.663050
4.002192	-3.009700	3.923100	-11.807000	20.973729	0.000938	20.673597
5.002721	-2.999900	3.920200	-11.759000	20.955110	0.000937	20.660663
6.005630	-3.001400	3.916300	-11.753000	20.969627	0.000935	20.648628
7.003432	-3.000300	3.913000	-11.740000	20.987111	0.000935	20.656633
8.003771	-2.976900	3.912900	-11.647000	20.967846	0.000935	20.669609
9.008170	-3.020500	3.908500	-11.805000	20.964920	0.000933	20.669053
10.005618	-2.992300	3.910600	-11.700000	20.982004	0.000933	20.685667
11.008328	-3.009900	3.904800	-11.751000	20.970601	0.000933	20.653871
12.007282	-3.014500	3.904400	-11.769000	20.989188	0.000932	20.674360
13.006102	-3.014100	3.903000	-11.763000	20.970618	0.000931	20.661475
14.006458	-2.995700	3.902200	-11.688000	20.983345	0.000929	20.667092
15.005259	-2.989000	3.900100	-11.656000	20.981743	0.000930	20.658377
16.007675	-2.970700	3.900200	-11.585000	21.003575	0.000930	20.667885
17.007088	-3.006300	3.898900	-11.720000	20.988078	0.000928	20.675620
18.008967	-3.003400	3.897900	-11.707000	20.996260	0.000928	20.670052
19.007918	-2.995000	3.896800	-11.670000	21.008308	0.000926	20.678310
20.007242	-3.024900	3.894500	-11.779000	20.996424	0.000927	20.664052
21.006778	-2.993800	3.894300	-11.657000	21.013139	0.000923	20.667494
22.007190	-2.989400	3.893800	-11.640000	21.014038	0.000922	20.680723
23.007901	-2.996400	3.893200	-11.665000	21.011520	0.000924	20.681524
24.008564	-3.005800	3.893300	-11.700000	21.012493	0.000923	20.682971
25.008600	-3.016500	3.890400	-11.734000	21.031406	0.000923	20.676283
26.007502	-3.008200	3.890300	-11.700000	21.038991	0.000923	20.672015
27.007383	-2.998300	3.891400	-11.667000	21.045400	0.000920	20.681271
28.008835	-3.004400	3.888400	-11.681000	21.041902	0.000920	20.670659
29.007751	-2.990000	3.887900	-11.624000	21.040308	0.000920	20.659106
30.007562	-3.024000	3.888500	-11.758000	21.087982	0.000921	20.666015
31.007606	-3.006300	3.887900	-11.686000	21.076254	0.000919	20.658550
32.006766	-2.990100	3.887700	-11.622000	21.068023	0.000918	20.664543
33.010851	-2.979000	3.888600	-11.583000	21.094766	0.000919	20.670430
34.012894	-2.984000	3.886600	-11.597000	21.084566	0.000917	20.652164
35.007622	-2.994600	3.886200	-11.636000	21.091652	0.000918	20.652614
36.012651	-2.992900	3.885200	-11.626000	21.098027	0.000917	20.674641
37.013450	-2.987400	3.885400	-11.606000	21.097684	0.000918	20.674297
38.009409	-2.997200	3.883800	-11.639000	21.112828	0.000918	20.689921
39.013286	-2.993800	3.883300	-11.625000	21.122039	0.000916	20.675899
40.013066	-2.994100	3.883600	-11.627000	21.113841	0.000918	20.657740
41.009454	-3.001600	3.882300	-11.653000	21.123485	0.000917	20.674027
42.012170	-2.995200	3.882800	-11.629000	21.141955	0.000915	20.658836
43.012294	-2.982100	3.882200	-11.577000	21.131028	0.000916	20.671140
44.007811	-3.006300	3.881000	-11.666000	21.136520	0.000916	20.679005
45.012730	-2.985400	3.879500	-11.580000	21.158324	0.000916	20.668573
46.015303	-2.979300	3.881000	-11.561000	21.175911	0.000915	20.659612
47.013284	-2.995300	3.880000	-11.620000	21.164037	0.000915	20.683772
48.014615	-2.982800	3.879900	-11.572000	21.173819	0.000915	20.679332
49.012070	-3.007000	3.879800	-11.665000	21.175919	0.000914	20.680011
50.013878	-3.008300	3.878700	-11.667000	21.199496	0.000915	20.680362
51.013543	-2.997900	3.878300	-11.625000	21.197077	0.000915	20.690745
52.015666	-2.990300	3.877900	-11.595000	21.207252	0.000913	20.696182
53.012015	-2.977700	3.878700	-11.549000	21.214239	0.000913	20.678514
54.013492	-2.984500	3.877700	-11.572000	21.205233	0.000913	20.679463
55.011828	-2.990100	3.877000	-11.591000	21.215987	0.000912	20.672202
56.012205	-2.989100	3.877400	-11.588000	21.219755	0.000912	20.688301
57.015327	-3.012100	3.876100	-11.674000	21.240487	0.000913	20.651190
58.010847	-3.000500	3.876000	-11.630000	21.269996	0.000912	20.682610
59.011411	-3.022000	3.874900	-11.709000	21.265705	0.000914	20.661721
60.013904	-2.998500	3.874900	-11.618000	21.259814	0.000913	20.683804
61.014569	-3.003900	3.876000	-11.643000	21.269367	0.000912	20.669178
62.012512	-3.012400	3.873500	-11.667000	21.266899	0.000911	20.683780
63.014121	-3.007200	3.873500	-11.645000	21.283757	0.000912	20.674566
64.013070	-2.998200	3.874600	-11.616000	21.265077	0.000910	20.671998
65.014950	-2.970800	3.875400	-11.512000	21.298359	0.000911	20.670681
66.014633	-3.000000	3.873500	-11.618000	21.285653	0.000910	20.670298
67.013261	-2.992900	3.872700	-11.588000	21.314613	0.000911	20.673192
68.015405	-2.990400	3.873200	-11.582000	21.327557	0.000912	20.671443
69.013329	-2.993400	3.873500	-11.594000	21.315161	0.000910	20.666627
70.018796	-2.998300	3.872500	-11.610000	21.317007	0.000910	20.686969
71.016390	-2.992100	3.873500	-11.589000	21.313272	0.000908	20.668057
72.015526	-3.021800	3.871200	-11.696000	21.335916	0.000909	20.677910
73.018157	-3.008900	3.870800	-11.646000	21.337281	0.000909	20.679750
74.017890	-3.010900	3.871200	-11.655000	21.348680	0.000908	20.700639
75.018093	-3.010300	3.871500	-11.654000	21.350959	0.000911	20.665932
76.018977	-2.999300	3.871200	-11.609000	21.360977	0.000908	20.689234
77.018547	-2.987500	3.871100	-11.564000	21.373724	0.000910	20.666897
78.015467	-3.021800	3.870000	-11.694000	21.375465	0.000908	20.684288
79.020743	-2.996700	3.869400	-11.593000	21.392273	0.000908	20.683086
80.018703	-3.023100	3.869200	-11.696000	21.389854	0.000910	20.667388
81.018242	-2.997300	3.869600	-11.596000	21.399381	0.000910	20.685457
82.020936	-3.019700	3.868100	-11.679000	21.402274	0.000911	20.686929
83.020026	-3.005700	3.869200	-11.629000	21.417087	0.000908	20.681835
84.019843	-2.990500	3.868000	-11.565000	21.420306	0.000911	20.710189
85.020953	-2.986400	3.869100	-11.553000	21.419702	0.000910	20.696307
86.020476	-3.019300	3.867400	-11.676000	21.414963	0.000910	20.686349
87.020223	-3.001400	3.867300	-11.607000	21.438233	0.000909	20.699675
88.023277	-3.021400	3.867900	-11.685000	21.444386	0.000909	20.672638
89.026587	-3.009100	3.868200	-11.638000	21.430022	0.000909	20.673914
90.023046	-3.002600	3.866900	-11.609000	21.457083	0.000909	20.700992
91.025178	-3.008600	3.866800	-11.632000	21.452973	0.000909	20.685499
92.023878	-2.989100	3.868800	-11.564000	21.459983	0.000910	20.683503
93.021893	-2.982500	3.867500	-11.533000	21.466013	0.000910	20.667724
94.023643	-2.986900	3.866300	-11.547000	21.470401	0.000909	20.669270
95.022594	-3.007500	3.865700	-11.625000	21.474462	0.000913	20.697992
96.022355	-2.987300	3.866600	-11.550000	21.477256	0.000911	20.708375
97.025110	-2.977300	3.865600	-11.507000	21.500508	0.000910	20.697027
98.022916	-3.000700	3.866000	-11.600000	21.496415	0.000911	20.692457
99.023092	-3.013900	3.864800	-11.646000	21.497713	0.000911	20.704663
100.024981	-3.008200	3.865900	-11.628000	21.510223	0.000910	20.695842
101.023657	-2.999900	3.865600	-11.596000	21.527861	0.000911	20.708751
102.023683	-3.047100	3.863500	-11.771000	21.524912	0.000911	20.711490
103.024321	-3.006000	3.864500	-11.615000	21.522452	0.000910	20.696226
104.024347	-3.004200	3.863600	-11.606000	21.517012	0.000909	20.699316
105.022464	-2.969300	3.865400	-11.475000	21.560827	0.000911	20.689579
106.024435	-2.990400	3.863900	-11.553000	21.569805	0.000910	20.701409
107.025134	-2.989000	3.863600	-11.547000	21.573277	0.000911	20.699193
108.025003	-2.989000	3.864500	-11.550000	21.585196	0.000911	20.699267
109.025960	-3.015800	3.862900	-11.648000	21.581005	0.000911	20.705505
110.027075	-2.978700	3.862900	-11.505000	21.592051	0.000910	20.713240
111.026413	-2.970000	3.864300	-11.476000	21.586340	0.000911	20.672434
112.027647	-3.012500	3.861800	-11.632000	21.615243	0.000912	20.717483
113.032696	-3.006700	3.862200	-11.611000	21.606567	0.000912	20.710697
114.028718	-3.016300	3.861700	-11.647000	21.616812	0.000911	20.692498
115.028695	-3.003200	3.860800	-11.594000	21.625699	0.000913	20.704712
116.028119	-3.015900	3.861900	-11.646000	21.639955	0.000910	20.716608
117.029526	-2.993700	3.861400	-11.559000	21.640682	0.000910	20.701213
118.029026	-3.003700	3.860400	-11.594000	21.656889	0.000913	20.706527
119.029933	-2.998400	3.859900	-11.573000	21.656538	0.000914	20.701908
120.030204	-2.980800	3.861700	-11.509000	21.658956	0.000913	20.690577
121.035338	-3.015100	3.860900	-11.639000	21.664772	0.000914	20.697820
122.033189	-2.985400	3.861700	-11.525000	21.654822	0.000914	20.722952
123.032813	-2.992800	3.860700	-11.551000	21.663466	0.000915	20.710264
124.032150	-3.006200	3.860900	-11.604000	21.663098	0.000916	20.704206
125.032835	-2.995300	3.859700	-11.560000	21.679305	0.000916	20.731806
126.033177	-2.997900	3.860300	-11.571000	21.683218	0.000913	20.704427
127.031956	-2.996300	3.860300	-11.566000	21.697260	0.000914	20.708997
128.031547	-3.016100	3.859100	-11.638000	21.707398	0.000916	20.723411
129.031759	-3.014900	3.858400	-11.631000	21.696411	0.000916	20.700559
130.033966	-2.997700	3.858300	-11.564000	21.704433	0.000915	20.718072
131.033732	-2.997600	3.858100	-11.563000	21.727297	0.000917	20.725308
132.034149	-3.011600	3.856600	-11.614000	21.747472	0.000916	20.731276
133.032246	-2.982000	3.859500	-11.507000	21.757691	0.000914	20.715898
134.032697	-3.004500	3.857600	-11.589000	21.771128	0.000915	20.710854
135.033280	-3.017400	3.856700	-11.637000	21.773072	0.000917	20.700945
136.033412	-3.005300	3.857700	-11.593000	21.779476	0.000916	20.709726
137.033188	-3.003800	3.857000	-11.585000	21.785888	0.000918	20.726575
138.033999	-3.013400	3.856100	-11.618000	21.770475	0.000917	20.712571
139.035992	-3.014600	3.855800	-11.623000	21.803294	0.000916	20.728349
140.034533	-2.990600	3.856300	-11.532000	21.802265	0.000918	20.711671
141.043153	-2.991800	3.857200	-11.538000	21.791818	0.000917	20.718286
142.036708	-3.008000	3.855400	-11.595000	21.808129	0.000919	20.729870
143.036956	-2.991000	3.855900	-11.531000	21.800525	0.000916	20.721310
144.036431	-3.024500	3.855100	-11.659000	21.826777	0.000917	20.743793
145.036364	-3.017600	3.855400	-11.633000	21.825682	0.000917	20.737481
146.035807	-3.013200	3.854900	-11.615000	21.833311	0.000920	20.726150
147.037484	-3.004600	3.854600	-11.581000	21.842638	0.000919	20.728848
148.035064	-3.026700	3.854200	-11.665000	21.839820	0.000921	20.735511
149.035896	-2.991700	3.854600	-11.530000	21.841944	0.000919	20.731946
150.037483	-3.008200	3.853100	-11.590000	21.845635	0.000920	20.738012
151.037135	-3.008000	3.855700	-11.596000	21.854742	0.000919	20.745705
152.034719	-2.976000	3.856700	-11.476000	21.841600	0.000920	20.743931
153.037208	-2.994700	3.854600	-11.542000	21.848215	0.000919	20.726844
154.037009	-3.012900	3.854200	-11.611000	21.861349	0.000921	20.721971
155.035935	-3.007000	3.855300	-11.591000	21.879024	0.000921	20.732551
156.036370	-3.022300	3.853800	-11.646000	21.887232	0.000919	20.721800
157.037916	-2.993900	3.854300	-11.539000	21.881481	0.000924	20.745442
158.036320	-3.000600	3.853600	-11.563000	21.896909	0.000922	20.738600
159.035795	-2.977800	3.853500	-11.474000	21.880664	0.000921	20.726132
160.044758	-2.997900	3.852200	-11.547000	21.919132	0.000922	20.747568
161.037574	-2.975500	3.852700	-11.462000	21.912630	0.000921	20.740586
162.038062	-2.991700	3.853500	-11.528000	21.930753	0.000922	20.756830
163.037699	-3.015500	3.851300	-11.612000	21.928719	0.000923	20.733456
164.037167	-3.001500	3.852500	-11.562000	21.943558	0.000923	20.744991
165.037246	-2.993500	3.852400	-11.531000	21.930867	0.000923	20.742719
166.038748	-3.011200	3.852100	-11.598000	21.934411	0.000924	20.753379
167.040287	-3.021800	3.851100	-11.636000	21.954502	0.000925	20.738402
168.037117	-2.969000	3.851800	-11.435000	21.968214	0.000925	20.759715
169.038729	-3.010500	3.850800	-11.590000	21.976502	0.000926	20.737665
170.039117	-2.993600	3.849600	-11.523000	21.982424	0.000925	20.725574
171.038559	-3.004500	3.850600	-11.567000	21.992297	0.000929	20.733562
172.038965	-3.004000	3.850200	-11.564000	22.007675	0.000928	20.744689
173.040431	-3.003400	3.850700	-11.564000	21.996756	0.000925	20.749406
174.040077	-2.989800	3.849600	-11.508000	22.010566	0.000926	20.757541
175.040301	-3.024100	3.848900	-11.638000	22.014151	0.000926	20.720825
176.040203	-3.008100	3.849300	-11.577000	22.014429	0.000930	20.742915
177.041406	-2.971800	3.849000	-11.436000	22.033644	0.000928	20.739866
178.041446	-3.006700	3.848100	-11.568000	22.025943	0.000928	20.745907
179.041348	-3.005700	3.849100	-11.568000	22.059719	0.000928	20.744632
180.043898	-3.008300	3.849900	-11.579000	22.056364	0.000929	20.743170
181.039300	-2.986500	3.848400	-11.492000	22.051211	0.000930	20.737062
182.041968	-3.003100	3.848600	-11.557000	22.078428	0.000929	20.754828
183.040691	-2.986100	3.848600	-11.490000	22.088946	0.000931	20.737856
184.042695	-3.000400	3.847900	-11.544000	22.098769	0.000931	20.766183
185.041696	-3.009300	3.848400	-11.579000	22.103457	0.000930	20.734365
186.044045	-2.986900	3.846900	-11.489000	22.116612	0.000931	20.764132
187.045611	-3.014100	3.846200	-11.592000	22.145698	0.000931	20.763854
188.044506	-2.994800	3.847000	-11.521000	22.143934	0.000931	20.759717
189.042266	-2.997600	3.847200	-11.531000	22.173566	0.000932	20.762358
190.045747	-3.015700	3.846200	-11.598000	22.164095	0.000935	20.753823
191.043314	-3.009700	3.845800	-11.573000	22.191962	0.000934	20.755646
192.043052	-2.996200	3.845800	-11.522000	22.188353	0.000932	20.791862
193.044569	-2.984800	3.847400	-11.482000	22.161751	0.000933	20.752425
194.044524	-3.029100	3.843900	-11.642000	22.195923	0.000934	20.753921
195.046526	-2.997400	3.845200	-11.525000	22.190166	0.000934	20.772814
196.047369	-3.019300	3.844900	-11.607000	22.196102	0.000935	20.759316
197.044353	-3.005300	3.843500	-11.550000	22.210000	0.000935	20.768964
198.045074	-3.007900	3.845700	-11.566000	22.219250	0.000938	20.755940
199.046726	-3.000600	3.845600	-11.538000	22.201262	0.000934	20.753577
200.046361	-3.003300	3.844400	-11.545000	22.224892	0.000937	20.765856
201.046469	-3.011600	3.844100	-11.576000	22.214988	0.000935	20.761156
202.047826	-2.986100	3.844000	-11.476000	22.243034	0.000937	20.772642
203.046103	-2.994200	3.843900	-11.508000	22.251411	0.000936	20.763960
204.046999	-3.000300	3.843100	-11.530000	22.241680	0.000936	20.777450
205.051019	-2.988300	3.845100	-11.489000	22.254375	0.000937	20.765031
206.050866	-3.001900	3.843700	-11.537000	22.260482	0.000939	20.779207
207.047943	-3.000100	3.843100	-11.529000	22.287874	0.000938	20.776762
208.049606	-2.996900	3.843900	-11.519000	22.265691	0.000939	20.783474
209.048649	-2.996400	3.844000	-11.517000	22.279358	0.000941	20.767761
210.048024	-3.013500	3.841200	-11.575000	22.280477	0.000940	20.777890
211.054347	-2.997500	3.842000	-11.515000	22.262808	0.000942	20.774423
212.052568	-2.994900	3.842200	-11.506000	22.268565	0.000942	20.767859
213.050506	-2.998100	3.841800	-11.517000	22.276615	0.000942	20.787774
214.053897	-2.998400	3.842300	-11.520000	22.279439	0.000943	20.769739
215.054265	-3.014400	3.841100	-11.577000	22.305876	0.000943	20.784830
216.049603	-2.994900	3.842700	-11.507000	22.278419	0.000943	20.802382
217.053151	-3.004900	3.841200	-11.541000	22.277071	0.000945	20.775429
218.056253	-3.006800	3.839900	-11.544000	22.279569	0.000945	20.775085
219.052146	-2.986200	3.840400	-11.465000	22.285456	0.000945	20.783824
220.056618	-3.001400	3.840500	-11.526000	22.280745	0.000944	20.780529
221.056283	-3.030500	3.838500	-11.630000	22.300339	0.000945	20.790666
222.055922	-2.993300	3.838500	-11.488000	22.298666	0.000947	20.776188
223.057757	-2.984800	3.839700	-11.460000	22.288550	0.000946	20.796405
224.058541	-3.005300	3.838200	-11.534000	22.324913	0.000949	20.782082
225.052463	-2.993000	3.840100	-11.492000	22.314055	0.000948	20.791597
226.058366	-2.984800	3.840100	-11.460000	22.341649	0.000950	20.801211
227.057904	-2.985100	3.839500	-11.461000	22.328236	0.000947	20.783038
228.055985	-3.007800	3.838200	-11.544000	22.353030	0.000947	20.779891
229.061598	-3.004100	3.838100	-11.529000	22.360589	0.000949	20.797418
230.059067	-3.026700	3.836600	-11.612000	22.375889	0.000946	20.772909
231.059171	-3.000500	3.837600	-11.512000	22.403931	0.000949	20.768747
232.058759	-2.983500	3.838000	-11.448000	22.415392	0.000950	20.785441
233.058436	-2.982200	3.838800	-11.447000	22.415351	0.000951	20.801995
234.061700	-2.997400	3.837100	-11.501000	22.426437	0.000951	20.778484
235.061099	-2.994600	3.836400	-11.488000	22.433939	0.000953	20.807333
236.062092	-3.006500	3.837100	-11.535000	22.405783	0.000952	20.812328
237.057333	-2.993700	3.837000	-11.485000	22.426119	0.000953	20.794286
238.061695	-3.001900	3.836800	-11.517000	22.394118	0.000955	20.803491
239.063695	-3.015700	3.834500	-11.563000	22.413832	0.000953	20.794784
240.059271	-2.993100	3.836500	-11.482000	22.422102	0.000953	20.782677
241.060740	-3.002700	3.835200	-11.514000	22.400771	0.000956	20.818214
242.061721	-3.003900	3.834900	-11.519000	22.414208	0.000954	20.790893
243.059857	-3.010500	3.834100	-11.541000	22.417522	0.000953	20.815075
244.063305	-2.990500	3.835400	-11.467000	22.437955	0.000955	20.805665
245.065673	-2.987300	3.835900	-11.457000	22.463842	0.000957	20.768052
246.061007	-2.993000	3.835000	-11.477000	22.456315	0.000956	20.794180
247.061905	-2.995000	3.835600	-11.486000	22.483980	0.000957	20.810031
248.063707	-2.998400	3.834200	-11.496000	22.472249	0.000957	20.789748
249.061678	-2.999100	3.834200	-11.498000	22.463702	0.000958	20.791620
250.062799	-2.981200	3.834900	-11.432000	22.449817	0.000958	20.788620
251.063587	-3.033400	3.832500	-11.623000	22.467294	0.000959	20.796165
252.061350	-3.015500	3.833000	-11.557000	22.468461	0.000959	20.785007
253.063457	-3.019400	3.832900	-11.572000	22.490314	0.000959	20.779865
254.064840	-3.005100	3.833600	-11.518000	22.497416	0.000962	20.789348
255.064085	-2.992500	3.832700	-11.468000	22.501873	0.000959	20.781483
256.065252	-2.987900	3.832900	-11.451000	22.487898	0.000961	20.808739
257.064959	-2.993800	3.832300	-11.472000	22.527618	0.000962	20.788775
258.063606	-2.998700	3.831800	-11.489000	22.527969	0.000963	20.791498
259.068562	-3.009000	3.831900	-11.529000	22.533030	0.000962	20.777125
260.064920	-2.987500	3.832200	-11.448000	22.544898	0.000963	20.791382
261.065792	-2.980300	3.833200	-11.423000	22.557133	0.000963	20.781351
262.064554	-3.000600	3.830800	-11.493000	22.569287	0.000963	20.783567
263.065252	-2.993200	3.832100	-11.469000	22.581253	0.000965	20.779904
264.063562	-2.996700	3.829800	-11.476000	22.621640	0.000965	20.775310
265.068465	-2.993800	3.831200	-11.469000	22.578788	0.000966	20.785970
266.064682	-3.007900	3.830700	-11.521000	22.594859	0.000966	20.793058
267.065721	-3.021100	3.830100	-11.570000	22.582803	0.000967	20.771500
268.065105	-2.986800	3.830500	-11.440000	22.607674	0.000966	20.779340
269.065359	-3.008200	3.829500	-11.519000	22.605225	0.000967	20.787319
270.065058	-3.009800	3.829700	-11.526000	22.582011	0.000968	20.771655
271.065913	-2.989400	3.829300	-11.446000	22.609697	0.000969	20.772358
272.065818	-2.991800	3.829200	-11.454000	22.601299	0.000969	20.788128
273.065907	-2.963000	3.830200	-11.348000	22.590965	0.000969	20.774933
274.068866	-2.987100	3.829300	-11.438000	22.613443	0.000970	20.751927
275.070467	-3.011900	3.828300	-11.530000	22.644589	0.000970	20.770796
276.066671	-3.001600	3.827800	-11.488000	22.658016	0.000971	20.771442
277.067216	-2.998400	3.828700	-11.479000	22.664716	0.000970	20.760609
278.067151	-3.006100	3.828300	-11.506000	22.683210	0.000971	20.781031
279.065470	-2.983600	3.828200	-11.420000	22.678028	0.000972	20.763985
280.072355	-2.993400	3.827300	-11.456000	22.686728	0.000972	20.774122
281.069866	-3.000300	3.827800	-11.484000	22.693208	0.000971	20.743628
282.065731	-2.995700	3.827600	-11.465000	22.704291	0.000973	20.766585
283.069255	-2.980500	3.828000	-11.407000	22.691804	0.000974	20.752654
284.066556	-3.013200	3.826200	-11.528000	22.718043	0.000974	20.759023
285.067381	-2.988400	3.827500	-11.437000	22.715774	0.000973	20.759595
286.071698	-2.986900	3.825700	-11.427000	22.711693	0.000976	20.759775
287.067716	-2.988100	3.826200	-11.432000	22.739205	0.000975	20.757461
288.066946	-2.991400	3.826500	-11.446000	22.735173	0.000978	20.758163
289.070722	-2.996900	3.826000	-11.465000	22.724359	0.000975	20.741641
290.071325	-2.999000	3.825800	-11.472000	22.711856	0.000977	20.764205
291.068033	-3.002600	3.825700	-11.486000	22.679039	0.000976	20.747928
292.070919	-3.009500	3.824900	-11.509000	22.677945	0.000980	20.733081
293.074302	-2.988300	3.824500	-11.428000	22.689061	0.000976	20.752277
294.068133	-2.995000	3.824700	-11.454000	22.702536	0.000979	20.756766
295.071330	-3.003400	3.823700	-11.483000	22.707995	0.000981	20.753700
296.068250	-2.980400	3.824000	-11.396000	22.724212	0.000979	20.744339
297.068585	-2.991300	3.825100	-11.440000	22.744623	0.000980	20.751034
298.071148	-2.989000	3.823700	-11.428000	22.750230	0.000981	20.761392
299.070234	-2.987800	3.822800	-11.421000	22.764650	0.000981	20.741224
300.069447	-2.992100	3.823100	-11.438000	22.772427	0.000984	20.746170
301.073382	-2.988000	3.823300	-11.423000	22.772411	0.000979	20.742359
302.072681	-2.995400	3.824100	-11.454000	22.781698	0.000983	20.742180
303.070371	-2.992400	3.822000	-11.434000	22.791393	0.000982	20.744305
304.075693	-3.010600	3.822500	-11.508000	22.780033	0.000983	20.746676
305.074742	-2.994700	3.822600	-11.446000	22.801536	0.000986	20.737397
306.073379	-2.978100	3.822700	-11.383000	22.799822	0.000985	20.729515
307.073613	-2.977800	3.823200	-11.383000	22.815140	0.000986	20.732532
308.074397	-2.974200	3.822000	-11.364000	22.810807	0.000986	20.754745
309.071921	-3.000500	3.820100	-11.460000	22.793620	0.000985	20.753175
310.073289	-3.009000	3.819500	-11.491000	22.777453	0.000987	20.743618
311.075593	-2.998400	3.820500	-11.453000	22.785353	0.000985	20.723081
312.072748	-2.994600	3.819700	-11.438000	22.798631	0.000986	20.734486
313.072773	-2.995800	3.819700	-11.441000	22.811361	0.000986	20.719737
314.075805	-2.998900	3.819800	-11.454000	22.800401	0.000986	20.746217
315.074908	-2.995100	3.819500	-11.438000	22.811165	0.000987	20.729498
316.075433	-3.016900	3.818600	-11.520000	22.830922	0.000988	20.729375
317.078404	-3.013400	3.818500	-11.505000	22.843220	0.000988	20.743119
318.076943	-2.998900	3.818700	-11.450000	22.845146	0.000989	20.745048
319.076941	-2.997200	3.819300	-11.446000	22.842460	0.000990	20.732874
320.080316	-2.991500	3.817900	-11.420000	22.860014	0.000990	20.740028
321.078979	-2.996000	3.818000	-11.438000	22.851779	0.000992	20.740788
322.078886	-2.985700	3.817700	-11.397000	22.853143	0.000993	20.736938
323.079823	-2.997400	3.817400	-11.441000	22.861801	0.000992	20.729016
324.083576	-2.970900	3.818900	-11.345000	22.883613	0.000992	20.729530
325.079977	-3.007800	3.816800	-11.477000	22.867138	0.000994	20.725353
326.080045	-2.988200	3.816100	-11.402000	22.891634	0.000996	20.731403
327.078896	-2.987800	3.817400	-11.405000	22.879672	0.000992	20.734591
328.082960	-3.013000	3.815200	-11.493000	22.882421	0.000994	20.716956
329.082603	-2.992000	3.814900	-11.412000	22.882487	0.000995	20.726032
330.080814	-2.982800	3.816400	-11.382000	22.880381	0.000995	20.735776
331.083239	-2.982300	3.816200	-11.379000	22.878456	0.000996	20.727683
332.084383	-2.991600	3.814800	-11.412000	22.861687	0.000997	20.715624
333.084567	-2.997700	3.813900	-11.433000	22.874865	0.000997	20.744476
334.083254	-2.984200	3.815400	-11.386000	22.898015	0.000997	20.732106
335.085608	-2.992800	3.814500	-11.415000	22.904861	0.000998	20.707669
336.083780	-3.015900	3.813300	-11.500000	22.896367	0.000997	20.731403
337.083390	-3.024300	3.813800	-11.533000	22.890614	0.000998	20.718526
338.085642	-2.982200	3.813400	-11.371000	22.867496	0.000999	20.726187
339.084481	-2.997300	3.813900	-11.430000	22.861613	0.001000	20.714128
340.083894	-2.992100	3.814300	-11.412000	22.878105	0.001001	20.722115
341.085341	-2.992500	3.812900	-11.409000	22.886428	0.000999	20.729032
342.083867	-3.012700	3.811600	-11.482000	22.878284	0.000999	20.726088
343.084016	-3.004800	3.812500	-11.456000	22.873282	0.001002	20.711119
344.086300	-3.023900	3.811500	-11.524000	22.878986	0.001001	20.733904
345.087353	-3.006300	3.812600	-11.460000	22.901377	0.001000	20.710342
346.084307	-2.995200	3.811700	-11.416000	22.923025	0.001001	20.704529
347.085039	-3.000900	3.811800	-11.438000	22.916024	0.001001	20.717430
348.085245	-2.989600	3.812300	-11.396000	22.935860	0.001004	20.711699
349.084146	-2.981600	3.812100	-11.366000	22.965610	0.001002	20.724436
350.092258	-3.017700	3.810900	-11.499000	22.967846	0.001003	20.714348
351.089167	-3.007600	3.809700	-11.457000	22.949340	0.001001	20.720937
352.087836	-2.998500	3.810900	-11.426000	22.953582	0.001004	20.716653
353.092972	-3.005700	3.808500	-11.445000	22.949200	0.001003	20.712736
354.089586	-3.002000	3.809500	-11.435000	22.939816	0.001004	20.687685
355.089662	-2.994200	3.810000	-11.407000	22.908980	0.001003	20.708002
356.093376	-2.993000	3.810200	-11.403000	22.932195	0.001005	20.700914
357.090527	-2.993100	3.809600	-11.401000	22.931256	0.001006	20.710405
358.091311	-3.008300	3.807100	-11.452000	22.962133	0.001007	20.687285
359.093005	-3.010400	3.808600	-11.464000	22.973727	0.001007	20.719766
360.092452	-2.999100	3.807400	-11.418000	22.971319	0.001007	20.714035
361.091202	-3.003000	3.808300	-11.435000	22.997512	0.001007	20.699499
362.094960	-2.998100	3.808100	-11.416000	23.033362	0.001006	20.708394
363.092370	-3.008600	3.806000	-11.450000	23.012769	0.001007	20.706726
364.092097	-2.991600	3.807400	-11.389000	23.014441	0.001008	20.706505
365.092834	-3.013400	3.805900	-11.467000	22.997682	0.001010	20.694453
366.093618	-2.989200	3.806900	-11.379000	22.985900	0.001009	20.694977
367.091052	-2.992600	3.805800	-11.388000	22.992802	0.001012	20.698100
368.094940	-3.007900	3.806300	-11.448000	23.009871	0.001011	20.706193
369.094262	-3.003800	3.806200	-11.432000	23.026459	0.001010	20.684405
370.092714	-2.978600	3.806700	-11.337000	23.037098	0.001010	20.715456
371.096336	-2.998100	3.805500	-11.408000	23.082779	0.001012	20.712864
372.094592	-2.994100	3.806400	-11.394000	23.073290	0.001013	20.720901
373.093593	-3.020000	3.803100	-11.485000	23.053178	0.001013	20.689841
374.100367	-3.008300	3.804100	-11.443000	23.061549	0.001011	20.694909
375.096854	-2.977500	3.805200	-11.328000	23.066551	0.001014	20.689963
376.096487	-2.989700	3.804100	-11.373000	23.100540	0.001013	20.683243
377.106952	-2.989100	3.803600	-11.368000	23.096681	0.001015	20.699766
378.097618	-2.983200	3.803900	-11.347000	23.109995	0.001012	20.683234
379.097661	-3.002200	3.804100	-11.419000	23.113030	0.001014	20.696234
380.101367	-3.002400	3.803100	-11.416000	23.120503	0.001015	20.709887
381.099570	-3.005100	3.802900	-11.427000	23.109350	0.001017	20.691124
382.097706	-2.995200	3.802400	-11.388000	23.091271	0.001015	20.693396
383.099669	-3.007000	3.801800	-11.430000	23.103370	0.001016	20.705521
384.098763	-3.013200	3.802300	-11.457000	23.115502	0.001016	20.691598
385.097549	-3.033900	3.800800	-11.531000	23.109579	0.001016	20.704630
386.100521	-3.013500	3.801600	-11.455000	23.142628	0.001016	20.699340
387.099392	-3.017500	3.801200	-11.470000	23.134780	0.001017	20.694320
388.097817	-3.001900	3.802500	-11.414000	23.119883	0.001017	20.676072
389.099942	-3.010700	3.800900	-11.442000	23.121016	0.001019	20.700444
390.098551	-2.991800	3.800600	-11.369000	23.155632	0.001018	20.705259
391.097862	-3.008600	3.800500	-11.433000	23.145744	0.001018	20.677805
392.100703	-3.006900	3.800400	-11.426000	23.167363	0.001019	20.673390
393.098920	-3.023100	3.798400	-11.481000	23.182406	0.001020	20.671869
394.098738	-3.002700	3.801300	-11.412000	23.183321	0.001019	20.696969
395.101333	-2.994000	3.800100	-11.376000	23.201186	0.001021	20.679309
396.100128	-3.002900	3.800700	-11.411000	23.214752	0.001021	20.688638
397.099761	-3.000500	3.798400	-11.397000	23.186665	0.001021	20.702692
398.103226	-3.023700	3.797300	-11.480000	23.200142	0.001021	20.659294
399.099138	-2.985000	3.798500	-11.338000	23.196780	0.001021	20.680584
400.100271	-2.996400	3.798600	-11.381000	23.177503	0.001020	20.680233
401.104738	-3.011000	3.798000	-11.434000	23.179722	0.001024	20.671076
402.104526	-2.993200	3.796500	-11.362000	23.200019	0.001021	20.678139
403.101481	-2.993600	3.796600	-11.365000	23.213691	0.001022	20.679039
404.106578	-2.969100	3.797000	-11.272000	23.195499	0.001023	20.675980
405.105182	-2.981700	3.796900	-11.321000	23.172853	0.001026	20.667036
406.102910	-2.989400	3.795800	-11.346000	23.193795	0.001023	20.669056
407.114390	-3.026600	3.795500	-11.486000	23.218259	0.001022	20.687885
408.107238	-2.995400	3.794800	-11.365000	23.207850	0.001027	20.695946
409.103340	-3.007900	3.795200	-11.415000	23.225104	0.001024	20.691425
410.106909	-2.983300	3.796600	-11.326000	23.237927	0.001027	20.675825
411.107642	-3.024200	3.794400	-11.473000	23.251379	0.001025	20.675555
412.104993	-3.005100	3.795000	-11.403000	23.230781	0.001024	20.673405
413.104726	-3.003800	3.794500	-11.397000	23.235700	0.001025	20.678809
414.103973	-3.009400	3.793500	-11.415000	23.226107	0.001028	20.676782
415.103156	-3.005400	3.793800	-11.401000	23.236491	0.001026	20.667747
416.105483	-3.006400	3.793300	-11.403000	23.222550	0.001026	20.657094
417.103333	-3.003800	3.793600	-11.394000	23.256314	0.001027	20.671966
418.103340	-3.028100	3.792100	-11.482000	23.242527	0.001025	20.668581
419.104174	-2.992600	3.794100	-11.353000	23.244991	0.001027	20.669627
420.108824	-2.996000	3.793000	-11.362000	23.265760	0.001028	20.659146
421.105782	-3.008600	3.790700	-11.404000	23.267179	0.001027	20.661991
422.107076	-2.983900	3.793400	-11.318000	23.263745	0.001029	20.671352
423.106898	-2.983500	3.793300	-11.316000	23.271894	0.001030	20.673355
424.106733	-2.991400	3.792500	-11.343000	23.292515	0.001031	20.670788
425.107362	-2.984000	3.790900	-11.311000	23.276070	0.001031	20.681335
426.107850	-2.982000	3.792500	-11.308000	23.280736	0.001030	20.680795
427.107656	-3.002600	3.792200	-11.385000	23.265270	0.001028	20.668139
428.109066	-3.013900	3.789600	-11.420000	23.270670	0.001030	20.665016
429.108820	-3.003800	3.790400	-11.384000	23.248270	0.001029	20.663429
430.109485	-3.012900	3.790700	-11.420000	23.235887	0.001030	20.665719
431.109436	-2.976200	3.788500	-11.275000	23.260000	0.001031	20.659063
432.110611	-3.000900	3.790200	-11.373000	23.260971	0.001032	20.659562
433.110647	-2.996400	3.788500	-11.351000	23.271608	0.001032	20.665955
434.109262	-3.004300	3.787300	-11.376000	23.317720	0.001032	20.676609
435.109682	-2.996700	3.789000	-11.354000	23.316063	0.001032	20.663093
436.109419	-2.973100	3.789000	-11.264000	23.329302	0.001033	20.653601
437.109602	-2.993500	3.788200	-11.339000	23.335885	0.001031	20.664467
438.110927	-3.004000	3.786700	-11.374000	23.335958	0.001032	20.652685
439.113506	-3.002400	3.787300	-11.370000	23.329840	0.001034	20.653192
440.112479	-2.987000	3.787300	-11.312000	23.302123	0.001033	20.651017
441.115068	-2.999200	3.786800	-11.357000	23.306234	0.001034	20.667467
442.113053	-2.988000	3.786500	-11.313000	23.273964	0.001035	20.655514
443.114827	-3.002600	3.786200	-11.367000	23.278597	0.001035	20.659683
444.117643	-2.987400	3.785000	-11.306000	23.280115	0.001035	20.668791
445.114094	-3.011500	3.784600	-11.397000	23.275587	0.001035	20.657140
446.114156	-2.992200	3.784500	-11.323000	23.290286	0.001036	20.655750
447.119944	-3.016500	3.783700	-11.412000	23.325019	0.001036	20.655947
448.115453	-2.998400	3.784600	-11.347000	23.347124	0.001037	20.650600
449.115680	-2.991600	3.784600	-11.321000	23.346732	0.001036	20.656372
450.119081	-3.008200	3.784400	-11.382000	23.377458	0.001037	20.642595
451.116998	-3.016200	3.784600	-11.414000	23.383910	0.001036	20.665660
452.117228	-2.986100	3.783700	-11.297000	23.395394	0.001037	20.645399
453.120034	-2.986300	3.784700	-11.301000	23.418689	0.001037	20.645988
454.116654	-2.998000	3.783000	-11.340000	23.395957	0.001037	20.635531
455.116926	-2.998000	3.782600	-11.339000	23.400092	0.001038	20.665758
456.120450	-2.997600	3.782300	-11.337000	23.411356	0.001038	20.646225
457.116095	-2.976400	3.783500	-11.260000	23.418640	0.001038	20.633609
458.115920	-2.992300	3.781900	-11.315000	23.429226	0.001035	20.654180
459.122738	-2.960300	3.783000	-11.198000	23.423403	0.001037	20.659249
460.116606	-2.985800	3.781100	-11.289000	23.402906	0.001036	20.637280
461.116497	-3.003400	3.780000	-11.352000	23.371765	0.001038	20.653485
462.121655	-3.021300	3.779500	-11.418000	23.361153	0.001039	20.657549
463.121419	-2.987900	3.781100	-11.296000	23.359383	0.001039	20.641074
464.117410	-2.984900	3.781600	-11.287000	23.359661	0.001039	20.643723
465.120746	-2.978900	3.780300	-11.260000	23.383535	0.001039	20.657222
466.117619	-2.992500	3.779900	-11.310000	23.368274	0.001040	20.659470
467.119014	-2.981700	3.779700	-11.268000	23.384236	0.001038	20.634214
468.121323	-3.008700	3.778100	-11.365000	23.385982	0.001041	20.646871
469.122515	-2.998100	3.778800	-11.328000	23.412620	0.001040	20.646070
470.121350	-2.983900	3.778900	-11.275000	23.426437	0.001040	20.643323
471.123670	-2.991800	3.778600	-11.304000	23.442945	0.001040	20.641377
472.122933	-3.003700	3.778200	-11.347000	23.448148	0.001039	20.661293
473.120549	-3.001300	3.778200	-11.338000	23.478994	0.001040	20.661392
474.124394	-2.996000	3.777500	-11.317000	23.470512	0.001041	20.648146
475.122839	-3.012700	3.777000	-11.378000	23.424944	0.001041	20.625703
476.120401	-2.990900	3.776400	-11.293000	23.427261	0.001043	20.652684
477.127864	-2.992300	3.777700	-11.303000	23.406951	0.001042	20.644181
478.120781	-2.978700	3.776400	-11.248000	23.413150	0.001041	20.632848
479.121331	-2.992400	3.775800	-11.299000	23.419227	0.001042	20.644156
480.124929	-3.001700	3.774800	-11.329000	23.421119	0.001042	20.650795
481.123482	-3.006700	3.774600	-11.348000	23.449706	0.001042	20.645309
482.124364	-3.000200	3.774700	-11.323000	23.450448	0.001041	20.652218
483.128966	-3.013800	3.773400	-11.371000	23.469941	0.001042	20.651367
484.124294	-2.998000	3.772900	-11.310000	23.484384	0.001041	20.636446
485.125979	-2.995400	3.772800	-11.300000	23.494416	0.001043	20.659306
486.128935	-3.013500	3.773000	-11.368000	23.518964	0.001042	20.648350
487.124508	-2.997100	3.772600	-11.306000	23.524787	0.001042	20.656085
488.128594	-2.997600	3.773500	-11.310000	23.526826	0.001042	20.650068
489.129195	-3.020700	3.771600	-11.391000	23.550509	0.001044	20.653894
490.126402	-3.008700	3.771700	-11.346000	23.549587	0.001043	20.642537
491.130490	-3.000700	3.771400	-11.316000	23.545828	0.001042	20.646355
492.129587	-2.998500	3.771000	-11.306000	23.534672	0.001042	20.656036
493.127565	-2.973700	3.773000	-11.219000	23.542345	0.001042	20.647606
494.125250	-3.001200	3.770900	-11.317000	23.563777	0.001042	20.648702
495.125592	-3.026700	3.769800	-11.408000	23.554269	0.001042	20.653869
496.127965	-2.979600	3.770000	-11.232000	23.581979	0.001044	20.659363
497.127580	-3.002600	3.769300	-11.316000	23.593233	0.001043	20.643616
498.125518	-2.995300	3.770100	-11.292000	23.591986	0.001045	20.647582
499.127174	-3.005000	3.769600	-11.327000	23.578766	0.001045	20.649029
500.133245	-3.000500	3.768900	-11.307000	23.585845	0.001045	20.623404
501.126801	-3.002000	3.767100	-11.308000	23.566452	0.001044	20.640002
502.129630	-2.998400	3.769100	-11.300000	23.563565	0.001044	20.658447
503.126054	-2.994600	3.768700	-11.285000	23.553803	0.001045	20.651032
504.127554	-3.008200	3.767100	-11.330000	23.538839	0.001046	20.653575
505.127373	-3.021100	3.768000	-11.382000	23.559936	0.001045	20.651489
506.128973	-3.006500	3.767900	-11.328000	23.538422	0.001045	20.655054
507.127494	-2.995300	3.768700	-11.287000	23.567194	0.001046	20.651179
508.126230	-2.988900	3.766500	-11.257000	23.600980	0.001045	20.640476
509.126177	-2.998700	3.766000	-11.292000	23.609518	0.001046	20.656150
510.129271	-3.020700	3.766000	-11.375000	23.630150	0.001045	20.655496
511.130272	-2.998500	3.766600	-11.293000	23.661300	0.001045	20.658275
512.128290	-3.017600	3.765300	-11.361000	23.657793	0.001046	20.644327
513.131149	-2.995000	3.764400	-11.273000	23.625029	0.001047	20.635186
514.129646	-2.994900	3.765600	-11.277000	23.606142	0.001047	20.635693
515.130247	-3.003900	3.763700	-11.305000	23.608156	0.001044	20.655732
516.131405	-2.992900	3.764100	-11.264000	23.610994	0.001047	20.651939
517.134634	-3.007100	3.764800	-11.320000	23.613033	0.001047	20.659199
518.133682	-3.009500	3.763800	-11.326000	23.632653	0.001046	20.633820
519.133219	-3.002900	3.764800	-11.305000	23.628918	0.001047	20.658529
520.135251	-3.015100	3.763400	-11.346000	23.648464	0.001048	20.637344
521.136642	-2.999800	3.764100	-11.289000	23.656855	0.001048	20.660458
522.135714	-2.984900	3.763100	-11.230000	23.653716	0.001049	20.660156
523.136568	-3.011900	3.762100	-11.330000	23.672536	0.001049	20.642511
524.137290	-3.003500	3.762200	-11.300000	23.689285	0.001049	20.637017
525.135885	-3.009200	3.762600	-11.320000	23.718289	0.001046	20.657564
526.138592	-2.996300	3.761800	-11.270000	23.700195	0.001047	20.670719
527.138152	-3.008200	3.760800	-11.312000	23.691479	0.001047	20.657237
528.136735	-2.991800	3.761700	-11.254000	23.676075	0.001048	20.641318
529.137544	-3.018700	3.760300	-11.350000	23.678741	0.001048	20.656795
530.141859	-2.989300	3.760700	-11.242000	23.633761	0.001048	20.658168
531.135272	-2.967700	3.760700	-11.159000	23.630181	0.001048	20.652682
532.141377	-3.012900	3.759600	-11.327000	23.619278	0.001046	20.661193
533.138772	-2.993600	3.759700	-11.254000	23.662522	0.001048	20.673253
534.140279	-3.009700	3.758900	-11.312000	23.641908	0.001047	20.662068
535.142373	-2.972400	3.759500	-11.173000	23.631674	0.001048	20.649910
536.141387	-2.983200	3.759000	-11.212000	23.660133	0.001049	20.667063
537.142165	-3.019900	3.756900	-11.345000	23.672797	0.001047	20.647515
538.144785	-3.013000	3.757800	-11.320000	23.687490	0.001049	20.664619
539.141336	-2.999400	3.757600	-11.268000	23.736757	0.001049	20.661381
540.142680	-3.013600	3.756800	-11.321000	23.727445	0.001048	20.658209
541.146128	-3.015100	3.755900	-11.322000	23.749868	0.001048	20.676425
542.148749	-3.001300	3.756500	-11.273000	23.751964	0.001049	20.676155
543.145739	-3.002800	3.755700	-11.277000	23.746769	0.001051	20.671421
544.146655	-3.002100	3.755300	-11.271000	23.732256	0.001048	20.671568
545.148865	-3.023100	3.754800	-11.350000	23.746117	0.001049	20.658912
546.147413	-3.008100	3.755600	-11.296000	23.736137	0.001049	20.682573
547.150306	-2.998000	3.755600	-11.258000	23.757402	0.001050	20.662639
548.149039	-2.995900	3.756100	-11.252000	23.781170	0.001050	20.682205
549.146921	-2.994700	3.753800	-11.240000	23.774157	0.001049	20.658102
550.146942	-2.991500	3.755300	-11.233000	23.802931	0.001050	20.675099
551.148310	-2.979700	3.753600	-11.184000	23.812592	0.001051	20.666294
552.150170	-3.011300	3.754000	-11.303000	23.822474	0.001048	20.673832
553.147750	-3.016900	3.753100	-11.322000	23.852739	0.001049	20.704655
554.149418	-3.025400	3.752300	-11.351000	23.844928	0.001051	20.675958
555.149775	-2.976100	3.753500	-11.170000	23.835943	0.001048	20.674535
556.150765	-2.990200	3.752300	-11.219000	23.847814	0.001050	20.686913
557.151820	-2.983600	3.753000	-11.196000	23.865392	0.001049	20.679408
558.149732	-2.989000	3.751000	-11.210000	23.842799	0.001050	20.671452
559.150973	-3.009000	3.750900	-11.286000	23.853276	0.001049	20.672474
560.149522	-3.013600	3.750900	-11.302000	23.834834	0.001050	20.691916
561.150021	-3.000700	3.751400	-11.256000	23.817264	0.001049	20.673349
562.149511	-2.976100	3.751000	-11.162000	23.829143	0.001050	20.678622
563.154293	-3.005900	3.750700	-11.273000	23.805017	0.001048	20.671027
564.149517	-3.016400	3.750700	-11.311000	23.797052	0.001050	20.665884
565.151457	-2.997600	3.749200	-11.238000	23.799677	0.001050	20.693175
566.151122	-3.021500	3.748700	-11.325000	23.827553	0.001048	20.686986
567.151921	-2.999700	3.748100	-11.243000	23.806990	0.001050	20.677273
568.156132	-2.967100	3.749800	-11.125000	23.814589	0.001052	20.691532
569.154599	-2.985300	3.748800	-11.190000	23.845473	0.001049	20.679350
570.155359	-3.015100	3.746800	-11.296000	23.835649	0.001049	20.694630
571.157156	-3.004000	3.747700	-11.257000	23.838567	0.001048	20.681908
572.156013	-2.994900	3.747600	-11.222000	23.860116	0.001049	20.684075
573.156273	-2.997600	3.746900	-11.230000	23.827242	0.001047	20.678613
574.160667	-3.004200	3.746100	-11.252000	23.850389	0.001050	20.692341
575.157825	-2.986600	3.748000	-11.193000	23.820149	0.001050	20.680036
576.157413	-2.983900	3.746000	-11.177000	23.805294	0.001050	20.666088
577.158661	-2.987600	3.746200	-11.191000	23.833153	0.001049	20.674582
578.158674	-2.991300	3.745400	-11.202000	23.838355	0.001048	20.681221
579.158024	-2.987600	3.746800	-11.193000	23.837760	0.001048	20.694850
580.162510	-3.011900	3.745500	-11.280000	23.839455	0.001049	20.688963
581.159792	-3.010600	3.744500	-11.271000	23.848212	0.001049	20.690631
582.163061	-2.983400	3.746000	-11.175000	23.855565	0.001048	20.686151
583.164046	-2.966100	3.745700	-11.109000	23.852280	0.001049	20.689495
584.162344	-2.974700	3.745600	-11.141000	23.870974	0.001049	20.686429
585.161850	-2.977600	3.743800	-11.147000	23.841534	0.001050	20.691522
586.164641	-3.006300	3.743600	-11.253000	23.834465	0.001049	20.701030
587.164725	-3.015700	3.742800	-11.287000	23.818436	0.001049	20.721944
588.163760	-3.017400	3.742400	-11.291000	23.850722	0.001049	20.701684
589.167432	-3.006000	3.742200	-11.249000	23.861354	0.001049	20.689110
590.163601	-3.014800	3.741800	-11.280000	23.874741	0.001050	20.709173
591.164038	-3.005800	3.742600	-11.249000	23.873811	0.001050	20.688325
592.163945	-3.008100	3.741400	-11.254000	23.874928	0.001049	20.691342
593.164109	-3.018600	3.740300	-11.290000	23.872588	0.001049	20.681882
594.163470	-3.000000	3.741300	-11.224000	23.903250	0.001048	20.689396
595.167376	-2.994000	3.739500	-11.194000	23.896712	0.001050	20.700858
596.165941	-2.990800	3.739700	-11.183000	23.913254	0.001049	20.711756
597.167056	-2.993300	3.740500	-11.195000	23.889065	0.001049	20.685602
598.168096	-2.986100	3.740300	-11.167000	23.881531	0.001047	20.723096
599.165631	-3.023300	3.738000	-11.300000	23.891665	0.001049	20.695797
600.167024	-3.011500	3.738000	-11.256000	23.898579	0.001049	20.702730
601.171515	-2.987400	3.740100	-11.172000	23.916604	0.001046	20.709900
602.167376	-3.005600	3.738100	-11.234000	23.940596	0.001048	20.716890
603.167292	-3.007600	3.737900	-11.240000	23.931384	0.001049	20.713342
604.171323	-3.002900	3.739100	-11.227000	23.963912	0.001048	20.700915
605.166558	-2.989500	3.739100	-11.177000	23.931115	0.001047	20.710701
606.167486	-2.988300	3.737100	-11.166000	23.973849	0.001049	20.689068
607.170477	-2.987800	3.737500	-11.166000	23.953591	0.001048	20.724232
608.167752	-3.006500	3.736300	-11.232000	23.963349	0.001048	20.688496
609.168912	-3.000800	3.737400	-11.213000	23.979376	0.001047	20.692714
610.170538	-3.001700	3.736400	-11.214000	23.987985	0.001048	20.718893
611.169055	-3.011600	3.735700	-11.249000	23.974836	0.001050	20.722303
612.170938	-3.011300	3.736700	-11.251000	23.981284	0.001049	20.705534
613.170562	-3.002500	3.735000	-11.212000	23.972211	0.001046	20.705444
614.169968	-3.010800	3.734300	-11.243000	24.002870	0.001046	20.719596
615.169947	-2.999000	3.735300	-11.202000	24.002169	0.001046	20.718893
616.170644	-2.995800	3.734500	-11.187000	24.015660	0.001047	20.719146
617.170604	-3.010700	3.734500	-11.242000	24.014813	0.001049	20.712132
618.171348	-3.011200	3.733600	-11.241000	23.996675	0.001046	20.711012
619.174000	-2.998800	3.733500	-11.196000	23.970050	0.001047	20.723667
620.171206	-3.008500	3.733100	-11.229000	23.973058	0.001048	20.724313
621.171198	-3.011200	3.731900	-11.236000	23.976172	0.001047	20.712737
622.173088	-3.002400	3.733100	-11.208000	23.994270	0.001047	20.712867
623.173326	-3.001700	3.732100	-11.202000	23.968379	0.001048	20.712508
624.173362	-3.036000	3.730300	-11.324000	23.984382	0.001047	20.732824
625.177054	-2.997400	3.731600	-11.184000	24.009074	0.001046	20.731033
626.175559	-2.996700	3.731500	-11.181000	24.007606	0.001046	20.725294
627.174034	-2.996300	3.729700	-11.175000	24.049058	0.001047	20.712336
628.177619	-2.988900	3.731500	-11.152000	24.058668	0.001045	20.728139
629.174784	-2.992400	3.730200	-11.162000	24.091143	0.001047	20.726095
630.174682	-3.005600	3.730100	-11.210000	24.088804	0.001047	20.719955
631.178418	-3.016100	3.729000	-11.246000	24.132967	0.001046	20.753818
632.174269	-2.986000	3.730500	-11.138000	24.124058	0.001047	20.729235
633.175001	-3.026200	3.728300	-11.281000	24.152227	0.001047	20.745635
634.177603	-3.013500	3.728700	-11.235000	24.100998	0.001046	20.749256
635.173856	-3.008400	3.730400	-11.221000	24.120601	0.001045	20.740468
636.174863	-3.029800	3.727100	-11.291000	24.088983	0.001045	20.737680
637.178503	-3.001400	3.728600	-11.190000	24.092138	0.001044	20.733731
638.176310	-2.987600	3.728500	-11.139000	24.086097	0.001045	20.716767
639.177839	-2.969900	3.728700	-11.072000	24.095374	0.001045	20.732709
640.181683	-2.996700	3.727100	-11.168000	24.126780	0.001045	20.744294
641.178568	-3.016500	3.727300	-11.243000	24.137482	0.001044	20.743648
642.179537	-3.008100	3.727200	-11.211000	24.119460	0.001043	20.734107
643.182074	-3.003900	3.727300	-11.194000	24.120242	0.001044	20.736789
644.179669	-3.006200	3.725700	-11.199000	24.131679	0.001043	20.736405
645.179318	-2.988700	3.726300	-11.136000	24.110787	0.001043	20.747220
646.184125	-3.006900	3.726400	-11.204000	24.124994	0.001043	20.731597
647.180780	-3.003300	3.726500	-11.191000	24.089040	0.001042	20.741056
648.181598	-3.007400	3.724100	-11.199000	24.103321	0.001047	20.741628
649.186475	-3.011100	3.724000	-11.212000	24.119819	0.001045	20.728302
650.182091	-2.997900	3.725500	-11.168000	24.102873	0.001045	20.743550
651.182374	-3.009900	3.723600	-11.206000	24.132159	0.001043	20.740206
652.184601	-3.005200	3.723200	-11.188000	24.146268	0.001043	20.742029
653.183199	-2.993300	3.723400	-11.145000	24.165577	0.001045	20.755232
654.182806	-2.977100	3.723000	-11.082000	24.177820	0.001045	20.757554
655.187622	-2.998900	3.723300	-11.165000	24.175358	0.001044	20.742282
656.183846	-3.016000	3.722100	-11.224000	24.151892	0.001044	20.750989
657.185129	-2.986100	3.723500	-11.118000	24.151452	0.001041	20.752444
658.188209	-3.023000	3.720300	-11.246000	24.134580	0.001044	20.739315
659.185629	-3.025300	3.722100	-11.260000	24.168112	0.001043	20.753033
660.187991	-2.986200	3.721700	-11.113000	24.158714	0.001043	20.747400
661.188717	-3.004300	3.720600	-11.177000	24.130668	0.001043	20.743452
662.187232	-2.988600	3.721900	-11.123000	24.163515	0.001042	20.762173
663.188207	-2.999100	3.722000	-11.163000	24.187111	0.001043	20.768770
664.188852	-2.995900	3.720300	-11.144000	24.183875	0.001043	20.756041
665.189678	-3.001800	3.718400	-11.161000	24.212557	0.001042	20.755886
666.187062	-2.991800	3.720800	-11.131000	24.210593	0.001041	20.755813
667.189207	-2.994900	3.719800	-11.139000	24.223674	0.001044	20.756132
668.188337	-3.000700	3.719600	-11.161000	24.224448	0.001042	20.758805
669.188043	-3.000000	3.719000	-11.156000	24.220275	0.001041	20.751774
670.190160	-3.013700	3.718500	-11.206000	24.246193	0.001040	20.747425
671.189125	-3.005000	3.718800	-11.174000	24.244685	0.001043	20.746860
672.190065	-3.009100	3.719300	-11.189000	24.253063	0.001041	20.759058
673.190424	-3.005200	3.717400	-11.171000	24.227089	0.001040	20.757660
674.187158	-2.984800	3.718200	-11.098000	24.238907	0.001040	20.743435
675.187692	-2.994300	3.717500	-11.131000	24.263365	0.001041	20.756115
676.190500	-2.995500	3.717800	-11.136000	24.247741	0.001040	20.757513
677.189574	-2.995400	3.716700	-11.133000	24.224880	0.001040	20.778204
678.189403	-3.017200	3.715400	-11.209000	24.212801	0.001040	20.758976
679.193805	-3.034000	3.715700	-11.272000	24.210894	0.001038	20.783142
680.195210	-2.993500	3.715800	-11.122000	24.221033	0.001039	20.772923
681.193021	-2.995700	3.714200	-11.126000	24.237896	0.001042	20.769923
682.196096	-2.983000	3.716200	-11.082000	24.221571	0.001039	20.770618
683.192561	-2.995500	3.715300	-11.128000	24.208261	0.001039	20.764380
684.192878	-2.988200	3.715500	-11.102000	24.210853	0.001037	20.767928
685.195854	-3.009200	3.713600	-11.174000	24.226624	0.001038	20.783273
686.197341	-2.997000	3.713700	-11.130000	24.212402	0.001039	20.779439
687.194401	-3.026900	3.713300	-11.238000	24.225084	0.001039	20.790263
688.197456	-3.002900	3.714000	-11.152000	24.271832	0.001038	20.767928
689.194107	-3.017900	3.713100	-11.205000	24.267211	0.001039	20.776095
690.197715	-3.031200	3.711900	-11.251000	24.276559	0.001038	20.784524
691.195472	-2.975200	3.714300	-11.050000	24.282655	0.001038	20.765508
692.195135	-2.989300	3.711900	-11.095000	24.296836	0.001037	20.767879
693.195599	-2.991400	3.712200	-11.103000	24.328008	0.001037	20.776864
694.198261	-2.983900	3.712800	-11.078000	24.343704	0.001038	20.780755
695.195110	-2.977500	3.711900	-11.051000	24.342213	0.001038	20.782578
696.194489	-3.012600	3.711700	-11.181000	24.346768	0.001037	20.777665
697.196012	-2.999700	3.711300	-11.132000	24.326827	0.001037	20.787532
698.194526	-3.007400	3.710500	-11.157000	24.336614	0.001039	20.784548
699.196402	-3.011600	3.711300	-11.176000	24.343256	0.001036	20.776512
700.197694	-2.987500	3.712300	-11.089000	24.348129	0.001037	20.779504
701.198367	-2.997400	3.710500	-11.121000	24.343574	0.001036	20.779676
702.201066	-2.997800	3.709900	-11.120000	24.348569	0.001036	20.794171
703.199212	-3.002600	3.709700	-11.137000	24.364420	0.001036	20.797269
704.200300	-3.018100	3.708300	-11.191000	24.296575	0.001037	20.798912
705.199970	-2.991800	3.708800	-11.095000	24.307243	0.001036	20.787328
706.203618	-3.011300	3.709200	-11.168000	24.305679	0.001036	20.763473
707.199506	-2.991700	3.708800	-11.095000	24.298336	0.001037	20.788350
708.201930	-3.003100	3.708400	-11.136000	24.291156	0.001036	20.766448
709.202333	-3.015800	3.707700	-11.180000	24.283088	0.001035	20.787279
710.202681	-3.009400	3.707500	-11.156000	24.302117	0.001035	20.794040
711.201531	-3.005900	3.706900	-11.142000	24.322532	0.001034	20.789389
712.204811	-3.004800	3.706300	-11.136000	24.350126	0.001033	20.793836
713.203176	-3.005500	3.706100	-11.138000	24.348089	0.001034	20.787524
714.200659	-3.018800	3.706700	-11.188000	24.381101	0.001035	20.792192
715.204007	-2.995500	3.704400	-11.094000	24.363532	0.001035	20.771722
716.202173	-3.007200	3.705500	-11.142000	24.363858	0.001032	20.762566
717.203895	-2.976700	3.705300	-11.028000	24.322679	0.001031	20.782423
718.204597	-2.984900	3.706200	-11.062000	24.318898	0.001032	20.782898
719.205107	-3.002100	3.705700	-11.124000	24.339923	0.001033	20.785497
720.204466	-2.993400	3.704900	-11.089000	24.366189	0.001033	20.787190
721.208586	-2.996900	3.705000	-11.102000	24.368601	0.001032	20.778704
722.206063	-3.011400	3.703600	-11.152000	24.392583	0.001031	20.801815
723.206027	-3.021900	3.703500	-11.190000	24.388175	0.001033	20.776529
724.209478	-2.999300	3.702900	-11.105000	24.377329	0.001032	20.780347
725.207975	-2.987600	3.703900	-11.065000	24.382006	0.001032	20.786462
726.207603	-3.005000	3.701900	-11.124000	24.377003	0.001030	20.776227
727.208987	-2.985600	3.703300	-11.055000	24.366661	0.001032	20.756843
728.208057	-2.983700	3.703200	-11.048000	24.368397	0.001033	20.767594
729.214100	-2.970500	3.702600	-10.997000	24.373572	0.001031	20.773259
730.210646	-3.010600	3.701100	-11.141000	24.344023	0.001031	20.766376
731.208800	-3.011700	3.701100	-11.145000	24.326999	0.001031	20.763997
732.210937	-3.007700	3.700800	-11.129000	24.324065	0.001031	20.761528
733.215232	-3.019600	3.700500	-11.172000	24.344365	0.001030	20.774780
734.211540	-3.005600	3.700900	-11.122000	24.385910	0.001030	20.762402
735.211380	-2.981100	3.701300	-11.032000	24.396462	0.001032	20.756868
736.213617	-3.007100	3.700100	-11.125000	24.399494	0.001030	20.750426
737.210746	-3.001800	3.699300	-11.103000	24.433467	0.001029	20.764594
738.212055	-3.012200	3.698300	-11.139000	24.403772	0.001029	20.761830
739.214491	-3.003300	3.698600	-11.107000	24.376562	0.001029	20.767724
740.211706	-2.977800	3.700400	-11.018000	24.361609	0.001029	20.776905
741.213125	-3.000200	3.698900	-11.097000	24.388599	0.001030	20.770790
742.216947	-3.013800	3.699300	-11.147000	24.398646	0.001029	20.759059
743.212591	-2.968700	3.698900	-10.980000	24.392225	0.001027	20.768264
744.213659	-2.994000	3.699400	-11.074000	24.386838	0.001028	20.755748
745.217993	-3.003500	3.697800	-11.105000	24.372284	0.001026	20.743991
746.214363	-2.997500	3.697500	-11.082000	24.362986	0.001029	20.738931
747.215446	-2.972900	3.698500	-10.995000	24.387499	0.001027	20.750246
748.217399	-2.992000	3.696300	-11.058000	24.379398	0.001028	20.744016
749.215559	-2.998500	3.697900	-11.087000	24.368169	0.001027	20.760252
750.216210	-3.003400	3.696400	-11.100000	24.394270	0.001027	20.757514
751.220986	-3.016200	3.696400	-11.148000	24.404595	0.001026	20.756017
752.216423	-3.003300	3.696000	-11.099000	24.407154	0.001025	20.747679
753.217938	-3.009600	3.695200	-11.120000	24.427281	0.001027	20.740844
754.222351	-2.989400	3.695500	-11.047000	24.446276	0.001027	20.751366
755.218529	-3.011800	3.694700	-11.126000	24.440311	0.001028	20.760555
756.217512	-2.982700	3.695200	-11.021000	24.442992	0.001025	20.739536
757.219939	-3.024000	3.693300	-11.168000	24.471756	0.001028	20.756541
758.218185	-3.018600	3.694300	-11.150000	24.479473	0.001026	20.752903
759.218570	-3.008100	3.693900	-11.109000	24.486130	0.001025	20.742038
760.219655	-2.994400	3.693700	-11.058000	24.522365	0.001025	20.739037
761.217577	-3.020200	3.692400	-11.150000	24.514266	0.001025	20.727591
762.218624	-2.975600	3.693800	-10.991000	24.506329	0.001025	20.741441
763.222343	-3.004400	3.693600	-11.096000	24.510656	0.001026	20.761904
764.219443	-2.983200	3.692100	-11.013000	24.464219	0.001024	20.737598
765.219342	-2.991600	3.692000	-11.044000	24.437296	0.001023	20.731925
766.222533	-2.990300	3.691800	-11.038000	24.416330	0.001021	20.720847
767.219893	-2.972100	3.694000	-10.976000	24.438103	0.001022	20.752649
768.220254	-2.987200	3.692200	-11.027000	24.424413	0.001022	20.751717
769.223454	-2.986300	3.691700	-11.024000	24.442479	0.001023	20.732856
770.219660	-2.999200	3.690900	-11.069000	24.472253	0.001022	20.735227
771.220579	-3.024300	3.692200	-11.166000	24.479888	0.001020	20.750000
772.223691	-2.999900	3.690800	-11.071000	24.497546	0.001023	20.747801
773.220612	-3.002000	3.691200	-11.079000	24.485983	0.001022	20.748529
774.222989	-3.000200	3.689700	-11.069000	24.488941	0.001020	20.714511
775.221743	-2.988700	3.690700	-11.029000	24.487352	0.001021	20.729039
776.221008	-2.986500	3.690000	-11.019000	24.449421	0.001021	20.729864
777.222334	-2.992700	3.690000	-11.042000	24.410617	0.001021	20.741670
778.224820	-2.981000	3.689600	-10.998000	24.408759	0.001022	20.734589
779.221325	-3.003800	3.688200	-11.077000	24.409052	0.001021	20.717813
780.221641	-2.994700	3.689000	-11.047000	24.446781	0.001020	20.737647
781.224955	-2.991200	3.688000	-11.029000	24.429009	0.001021	20.743051
782.221201	-2.996400	3.687700	-11.049000	24.446496	0.001018	20.723135
783.221561	-2.985400	3.688000	-11.009000	24.428357	0.001019	20.719162
784.224616	-2.997300	3.688400	-11.055000	24.437540	0.001018	20.754930
785.221302	-2.983900	3.688300	-11.002000	24.437842	0.001018	20.727730
786.222223	-3.007900	3.687800	-11.090000	24.436945	0.001018	20.738685
787.230186	-2.990400	3.686500	-11.024000	24.437149	0.001017	20.730354
788.221760	-2.992300	3.686500	-11.031000	24.458743	0.001018	20.742062
789.221448	-3.009700	3.685000	-11.090000	24.473043	0.001018	20.705198
790.224139	-3.010100	3.685100	-11.092000	24.494669	0.001017	20.714567
791.223886	-2.995700	3.685600	-11.040000	24.531954	0.001016	20.728743
792.223510	-3.001500	3.685400	-11.060000	24.527799	0.001017	20.740222
793.227631	-3.002900	3.684500	-11.063000	24.531930	0.001016	20.724451
794.224069	-2.998900	3.685700	-11.052000	24.531580	0.001016	20.738799
795.225328	-2.995600	3.684900	-11.038000	24.554052	0.001016	20.709662
796.226577	-3.003700	3.683900	-11.064000	24.548845	0.001018	20.714869
797.224250	-3.010900	3.682600	-11.087000	24.576393	0.001017	20.742985
798.224689	-3.017600	3.682100	-11.110000	24.564228	0.001015	20.712286
799.226707	-2.993400	3.683700	-11.026000	24.573981	0.001015	20.726340
800.224890	-2.999200	3.683500	-11.046000	24.552397	0.001017	20.705631
801.227005	-2.983600	3.682300	-10.985000	24.521623	0.001015	20.732128
802.229606	-3.006900	3.681300	-11.068000	24.512962	0.001014	20.729602
803.227265	-3.015600	3.681700	-11.101000	24.466093	0.001015	20.721934
804.227435	-2.994900	3.682800	-11.028000	24.448810	0.001016	20.714551
805.229940	-2.985700	3.680700	-10.989000	24.454302	0.001013	20.707258
806.226891	-2.978100	3.682500	-10.965000	24.468407	0.001012	20.707185
807.228725	-3.002400	3.680100	-11.048000	24.489748	0.001015	20.715320
808.229691	-3.008500	3.680700	-11.071000	24.505017	0.001013	20.730167
809.227654	-2.983200	3.681000	-10.979000	24.536453	0.001012	20.712393
810.227097	-2.985600	3.682400	-10.993000	24.544218	0.001014	20.727771
811.233523	-3.014000	3.680000	-11.090000	24.573069	0.001013	20.726847
812.226953	-3.005500	3.678400	-11.055000	24.579775	0.001010	20.722670
813.227985	-2.986000	3.680500	-10.989000	24.605920	0.001011	20.735154
814.228456	-3.013500	3.677900	-11.082000	24.598270	0.001012	20.706613
815.230515	-2.998000	3.678500	-11.027000	24.605341	0.001011	20.693793
816.226913	-3.026600	3.678300	-11.133000	24.589144	0.001011	20.721166
817.230568	-2.986700	3.679100	-10.987000	24.572034	0.001010	20.718223
818.228018	-3.010800	3.677600	-11.071000	24.561019	0.001010	20.706695
819.228239	-3.017900	3.677300	-11.096000	24.568075	0.001008	20.707136
820.233000	-3.015800	3.676400	-11.087000	24.538653	0.001009	20.705117
821.229173	-2.990300	3.676900	-10.994000	24.554525	0.001009	20.718198
822.228666	-3.000900	3.676100	-11.030000	24.574617	0.001009	20.691889
823.231947	-3.006000	3.676100	-11.049000	24.583123	0.001009	20.705640
824.232718	-2.976800	3.676200	-10.942000	24.579139	0.001008	20.699272
825.231423	-3.000100	3.676500	-11.029000	24.573721	0.001007	20.714699
826.232479	-3.011300	3.675800	-11.068000	24.561043	0.001007	20.720471
827.229778	-3.008000	3.674600	-11.052000	24.542531	0.001007	20.712328
828.230312	-2.992700	3.675600	-10.999000	24.530195	0.001006	20.688095
829.232312	-3.007400	3.674600	-11.050000	24.528770	0.001008	20.702313
830.230727	-3.007900	3.674000	-11.050000	24.546834	0.001006	20.714274
831.233078	-2.994800	3.674400	-11.003000	24.552553	0.001006	20.704365
832.237085	-2.973400	3.675600	-10.928000	24.530497	0.001006	20.716375
833.232477	-3.001600	3.674800	-11.030000	24.512262	0.001005	20.698078
834.231179	-2.988800	3.674200	-10.981000	24.548153	0.001005	20.694260
835.233073	-3.015000	3.673400	-11.072000	24.579139	0.001005	20.705910
836.230286	-2.999500	3.671800	-11.012000	24.610458	0.001005	20.697980
837.232414	-3.013800	3.673200	-11.069000	24.609366	0.001004	20.703523
838.235292	-3.016600	3.670500	-11.071000	24.588672	0.001004	20.717846
839.232718	-2.994500	3.671300	-10.993000	24.605595	0.001004	20.706376
840.230935	-3.015600	3.672100	-11.071000	24.601790	0.001003	20.689281
841.237258	-3.001400	3.672300	-11.020000	24.623054	0.001001	20.709197
842.234417	-3.004800	3.672500	-11.034000	24.647259	0.001002	20.687964
843.233420	-3.014500	3.671000	-11.065000	24.655170	0.001001	20.683574
844.235560	-2.992500	3.672000	-10.988000	24.656230	0.001003	20.681792
845.232835	-3.006100	3.670400	-11.033000	24.644742	0.001002	20.702035
846.233297	-3.012300	3.670000	-11.055000	24.633996	0.001003	20.688880
847.234155	-2.985200	3.669900	-10.955000	24.577119	0.001004	20.687760
848.232704	-2.990400	3.671200	-10.978000	24.565346	0.001001	20.690647
849.232405	-2.997900	3.669400	-10.999000	24.548578	0.000999	20.689469
850.235457	-3.006900	3.668700	-11.031000	24.531736	0.001001	20.700073
851.233206	-2.978400	3.670800	-10.932000	24.498093	0.001000	20.701406
852.232406	-2.986500	3.669200	-10.957000	24.502159	0.001001	20.693631
853.235358	-3.007300	3.666900	-11.027000	24.480199	0.000998	20.700523
854.231946	-3.019800	3.667800	-11.075000	24.500920	0.001000	20.681482
855.233527	-3.006100	3.666500	-11.021000	24.515237	0.001000	20.695847
856.236328	-2.997200	3.667200	-10.990000	24.540658	0.000999	20.681523
857.233786	-2.992700	3.669200	-10.980000	24.547323	0.000997	20.701014
858.236118	-3.011700	3.667100	-11.043000	24.579287	0.000999	20.681400
859.240787	-3.014500	3.665800	-11.050000	24.591142	0.000997	20.699461
860.236249	-3.006400	3.665200	-11.018000	24.601342	0.000998	20.688832
861.235425	-2.983700	3.666100	-10.938000	24.621491	0.000996	20.694351
862.241457	-3.009700	3.665800	-11.032000	24.615666	0.000998	20.688505
863.238708	-3.011900	3.665000	-11.037000	24.584786	0.000998	20.681702
864.239240	-3.023100	3.665900	-11.083000	24.555056	0.000995	20.685063
865.240248	-2.995700	3.666000	-10.981000	24.567921	0.000996	20.677582
866.238199	-2.981400	3.665000	-10.925000	24.560645	0.000997	20.691146
867.238275	-3.008900	3.665000	-11.027000	24.568491	0.000998	20.676257
868.241724	-3.021700	3.663100	-11.068000	24.626412	0.000996	20.676527
869.238292	-3.008800	3.663400	-11.021000	24.647855	0.000997	20.689036
870.239817	-2.986500	3.665600	-10.944000	24.657550	0.000993	20.674582
871.243237	-3.013400	3.665100	-11.042000	24.684403	0.000995	20.665016
872.239531	-3.018700	3.663100	-11.056000	24.675661	0.000994	20.682798
873.239782	-3.016600	3.662600	-11.047000	24.705429	0.000993	20.682324
874.245674	-2.997800	3.662800	-10.980000	24.713307	0.000992	20.671736
875.241328	-3.005700	3.661100	-11.003000	24.702439	0.000992	20.661778
876.242272	-3.012100	3.662600	-11.031000	24.688639	0.000994	20.684442
877.242744	-2.998800	3.661600	-10.979000	24.645272	0.000992	20.680754
878.243785	-2.985500	3.661300	-10.930000	24.614484	0.000992	20.669774
879.244410	-2.983000	3.662500	-10.923000	24.616048	0.000991	20.682250
880.244720	-3.004600	3.659400	-10.994000	24.632090	0.000993	20.681277
881.246693	-3.002100	3.659500	-10.985000	24.650095	0.000990	20.685594
882.244803	-2.985900	3.661500	-10.932000	24.667383	0.000990	20.695356
883.260809	-3.017600	3.660300	-11.045000	24.690585	0.000989	20.676911
884.248050	-3.009400	3.658800	-11.010000	24.690512	0.000990	20.682054
885.250839	-3.009000	3.659400	-11.009000	24.682651	0.000989	20.665629
886.246769	-2.984000	3.659600	-10.919000	24.717893	0.000989	20.678710
887.248103	-2.998700	3.660200	-10.974000	24.711530	0.000987	20.689396
888.250670	-3.019700	3.657900	-11.044000	24.740353	0.000989	20.659995
889.250696	-3.002500	3.659000	-10.985000	24.721127	0.000987	20.656349
890.252851	-2.997100	3.659200	-10.966000	24.693877	0.000987	20.676421
891.252249	-3.007200	3.659200	-11.002000	24.653256	0.000988	20.661263
892.251010	-3.014000	3.658000	-11.023000	24.600714	0.000987	20.661647
893.251883	-2.979900	3.659600	-10.904000	24.594172	0.000989	20.668833
894.251163	-3.012800	3.655900	-11.014000	24.577608	0.000987	20.656954
895.251828	-3.013800	3.657100	-11.020000	24.624716	0.000986	20.665816
896.254152	-2.990800	3.657400	-10.938000	24.645109	0.000985	20.666838
897.251333	-3.008700	3.657100	-11.002000	24.654242	0.000985	20.660355
898.251608	-2.997300	3.657200	-10.961000	24.655154	0.000986	20.658899
899.254372	-2.990300	3.656800	-10.934000	24.639536	0.000985	20.656030
900.251002	-3.009900	3.655300	-11.001000	24.639805	0.000983	20.677639
901.252637	-3.013500	3.655500	-11.015000	24.629067	0.000986	20.639833
902.258558	-3.001400	3.655000	-10.969000	24.645199	0.000985	20.662186
903.253104	-3.017400	3.654200	-11.024000	24.662984	0.000984	20.662015
904.252107	-3.005700	3.655200	-10.986000	24.655179	0.000985	20.653708
905.256247	-2.994100	3.655400	-10.944000	24.619885	0.000983	20.655278
906.254558	-3.003700	3.653800	-10.973000	24.612471	0.000984	20.649734
907.253708	-2.984600	3.655200	-10.909000	24.644058	0.000982	20.673845
908.252924	-2.994600	3.654700	-10.943000	24.648335	0.000981	20.649685
909.253032	-3.011700	3.652900	-11.000000	24.639080	0.000982	20.656995
910.253949	-2.994600	3.652900	-10.938000	24.650372	0.000981	20.672594
911.256250	-3.008100	3.653200	-10.988000	24.623063	0.000981	20.657992
912.259236	-3.018000	3.651200	-11.019000	24.651643	0.000979	20.644943
913.256288	-2.996200	3.652100	-10.941000	24.647513	0.000982	20.659766
914.258434	-3.012700	3.651500	-11.000000	24.677331	0.000980	20.659815
915.258551	-3.002000	3.651300	-10.959000	24.670267	0.000980	20.636129
916.258307	-3.007800	3.652000	-10.983000	24.684362	0.000981	20.652171
917.259389	-2.973400	3.654200	-10.864000	24.679546	0.000978	20.656349
918.259253	-2.975000	3.651700	-10.863000	24.675783	0.000980	20.641665
919.259306	-2.990100	3.651900	-10.917000	24.671644	0.000978	20.667386
920.262702	-2.984800	3.650400	-10.895000	24.658454	0.000979	20.634232
921.264333	-2.995000	3.649800	-10.930000	24.634624	0.000979	20.645409
922.261583	-2.990100	3.649800	-10.912000	24.658307	0.000979	20.649260
923.264689	-2.999300	3.649800	-10.945000	24.675710	0.000976	20.631158
924.267262	-3.006800	3.647900	-10.967000	24.680956	0.000976	20.655392
925.263328	-3.009300	3.648200	-10.978000	24.686928	0.000976	20.646685
926.267731	-2.993200	3.647800	-10.918000	24.691547	0.000977	20.635672
927.268917	-3.012000	3.647900	-10.987000	24.704386	0.000975	20.660412
928.264928	-3.016100	3.647400	-11.001000	24.722822	0.000975	20.653781
929.267389	-2.975800	3.648500	-10.857000	24.722838	0.000974	20.632458
930.271047	-2.981300	3.648600	-10.876000	24.767928	0.000975	20.662064
931.266309	-2.995600	3.647400	-10.925000	24.764124	0.000975	20.613669
932.267682	-3.004100	3.647100	-10.955000	24.761257	0.000975	20.636873
933.268936	-2.988900	3.647300	-10.901000	24.737347	0.000973	20.642752
934.266280	-3.011400	3.645300	-10.977000	24.769842	0.000974	20.661140
935.268962	-2.996600	3.647800	-10.930000	24.760882	0.000975	20.618477
936.271699	-3.002800	3.647000	-10.948000	24.749672	0.000973	20.620030
937.267384	-2.979400	3.646900	-10.865000	24.730854	0.000975	20.637184
938.273221	-2.995900	3.645400	-10.920000	24.678756	0.000974	20.645123
939.272952	-3.002600	3.646700	-10.949000	24.646201	0.000973	20.648491
940.267747	-2.984800	3.645300	-10.880000	24.630053	0.000972	20.650307
941.270224	-2.992400	3.645000	-10.906000	24.661762	0.000973	20.647510
942.272263	-2.970500	3.644300	-10.823000	24.669053	0.000972	20.623530
943.267838	-2.987400	3.644400	-10.886000	24.693526	0.000970	20.626751
944.273847	-2.997600	3.644200	-10.922000	24.718863	0.000970	20.649808
945.268432	-2.990000	3.643200	-10.892000	24.732622	0.000970	20.632793
946.272663	-2.993100	3.643600	-10.904000	24.719580	0.000970	20.641517
947.271610	-2.981400	3.644100	-10.864000	24.761387	0.000969	20.638427
948.270433	-3.029300	3.642000	-11.031000	24.795902	0.000969	20.651729
949.270757	-3.009400	3.641500	-10.957000	24.810198	0.000969	20.619605
950.274576	-2.997400	3.641500	-10.914000	24.815843	0.000970	20.650405
951.273090	-3.018200	3.642400	-10.992000	24.775463	0.000967	20.640700
952.274241	-2.993400	3.641300	-10.899000	24.806996	0.000968	20.634412
953.276892	-2.994700	3.641000	-10.903000	24.763774	0.000967	20.636554
954.273870	-2.973900	3.641900	-10.830000	24.775211	0.000967	20.644240
955.274512	-3.000100	3.640900	-10.923000	24.775862	0.000966	20.639203
956.275202	-2.982300	3.640000	-10.854000	24.779569	0.000965	20.641027
957.276138	-2.988300	3.642100	-10.882000	24.763203	0.000967	20.622704
958.272765	-3.001600	3.640300	-10.926000	24.764450	0.000966	20.649562
959.275934	-2.992700	3.640500	-10.893000	24.738683	0.000964	20.632237
960.273755	-2.984600	3.640800	-10.865000	24.740548	0.000965	20.644068
961.274926	-3.007200	3.639000	-10.942000	24.737795	0.000964	20.628501
962.274442	-2.998800	3.638200	-10.909000	24.717029	0.000964	20.628999
963.274134	-2.995000	3.639200	-10.898000	24.694797	0.000965	20.644150
964.276875	-2.994900	3.638900	-10.898000	24.702284	0.000963	20.630798
965.275805	-3.006200	3.637500	-10.934000	24.720459	0.000961	20.626751
966.277782	-3.019000	3.637100	-10.979000	24.733493	0.000962	20.645523
967.278640	-2.982700	3.638000	-10.849000	24.739318	0.000963	20.619122
968.278317	-2.995100	3.636000	-10.890000	24.784570	0.000962	20.625181
969.277137	-2.987800	3.637500	-10.866000	24.815232	0.000963	20.655482
970.279184	-2.980700	3.636900	-10.839000	24.821871	0.000961	20.643177
971.278134	-2.992700	3.637100	-10.884000	24.857736	0.000961	20.643136
972.279527	-2.998600	3.637100	-10.904000	24.872276	0.000963	20.627380
973.279468	-3.011500	3.635700	-10.948000	24.875639	0.000961	20.624118
974.284139	-3.011200	3.635800	-10.946000	24.866541	0.000960	20.645809
975.279143	-3.009600	3.636000	-10.942000	24.847831	0.000960	20.652637
976.279506	-3.007200	3.635400	-10.931000	24.852514	0.000960	20.642637
977.284611	-3.005600	3.634400	-10.923000	24.872153	0.000959	20.635319
978.282095	-3.019300	3.634100	-10.971000	24.869848	0.000959	20.629686
979.281430	-3.003200	3.634800	-10.914000	24.853981	0.000957	20.645531
980.284021	-2.990400	3.635400	-10.871000	24.863853	0.000957	20.631730
981.280374	-2.989800	3.634400	-10.864000	24.885479	0.000959	20.638263
982.280571	-3.016400	3.632100	-10.955000	24.888020	0.000957	20.621371
983.283651	-3.014000	3.633700	-10.951000	24.903008	0.000957	20.646848
984.279607	-3.000700	3.633600	-10.902000	24.926107	0.000956	20.643953
985.280234	-3.001600	3.632600	-10.903000	24.903700	0.000955	20.636162
986.282312	-3.010400	3.632400	-10.934000	24.877000	0.000957	20.635442
987.282713	-2.993000	3.633000	-10.873000	24.852604	0.000956	20.626129
988.282475	-3.016700	3.630400	-10.950000	24.838977	0.000954	20.658450
989.284297	-2.992500	3.632200	-10.868000	24.831719	0.000954	20.613701
990.285441	-2.998400	3.630900	-10.886000	24.838179	0.000953	20.649113
991.284811	-2.992400	3.630200	-10.861000	24.847554	0.000954	20.646194
992.286418	-3.012300	3.630100	-10.933000	24.822189	0.000953	20.640176
993.283967	-3.010600	3.630900	-10.930000	24.835515	0.000953	20.641697
994.284486	-2.977300	3.630300	-10.808000	24.822409	0.000953	20.620480
995.287310	-2.996500	3.629000	-10.872000	24.817733	0.000953	20.646611
996.286898	-2.991700	3.630600	-10.861000	24.785931	0.000951	20.635083
997.286800	-2.986100	3.630000	-10.839000	24.806345	0.000953	20.652727
998.297595	-2.991100	3.628400	-10.852000	24.825610	0.000955	20.635549
999.287341	-3.007500	3.628400	-10.911000	24.818222	0.000951	20.655164
1000.286953	-3.014400	3.627900	-10.934000	24.839384	0.000952	20.639416
1001.288126	-3.011400	3.627400	-10.923000	24.869898	0.000952	20.630684
1002.287699	-3.005100	3.627700	-10.900000	24.883590	0.000953	20.657706
1003.286476	-3.013100	3.627300	-10.927000	24.907236	0.000952	20.640185
1004.293424	-2.978700	3.627900	-10.805000	24.930800	0.000950	20.658148
1005.288480	-2.997400	3.625500	-10.865000	24.927843	0.000949	20.640480
1006.288130	-2.985100	3.627000	-10.824000	24.958037	0.000949	20.633800
1007.290746	-2.998900	3.626600	-10.875000	24.971964	0.000948	20.662482
1008.291411	-2.998000	3.625800	-10.869000	24.967949	0.000948	20.646122
1009.291984	-2.998600	3.627600	-10.878000	24.922371	0.000949	20.669604
1010.295256	-2.976300	3.624800	-10.787000	24.887509	0.000949	20.655475
1011.290575	-3.020600	3.625300	-10.950000	24.851702	0.000946	20.663635
1012.291282	-3.000800	3.625500	-10.879000	24.828764	0.000946	20.633024
1013.292221	-3.020000	3.624100	-10.944000	24.834654	0.000947	20.674976
1014.294181	-2.973900	3.625800	-10.782000	24.848575	0.000945	20.650064
1015.293142	-2.999500	3.623400	-10.868000	24.838792	0.000946	20.671542
1016.294172	-3.015400	3.623600	-10.926000	24.827193	0.000946	20.666065
1017.294197	-2.961700	3.625300	-10.736000	24.844038	0.000945	20.666849
1018.291823	-2.984200	3.624200	-10.813000	24.821898	0.000945	20.647947
1019.293083	-2.980300	3.623400	-10.799000	24.805982	0.000943	20.659475
1020.293626	-2.997100	3.624000	-10.860000	24.843721	0.000943	20.669377
1021.293442	-3.028600	3.623600	-10.973000	24.811187	0.000943	20.663752
1022.294525	-3.001700	3.623200	-10.876000	24.819692	0.000943	20.678452
1023.296478	-3.014800	3.621500	-10.917000	24.819520	0.000943	20.661209
1024.293625	-2.981200	3.622300	-10.797000	24.806895	0.000942	20.668454
1025.295934	-2.997900	3.622000	-10.856000	24.840195	0.000941	20.657301
1026.294647	-3.001600	3.621500	-10.869000	24.865919	0.000941	20.653247
1027.292984	-2.991500	3.621300	-10.832000	24.873323	0.000940	20.677276
1028.300626	-2.983000	3.621400	-10.801000	24.885802	0.000941	20.674627
1029.293600	-2.985700	3.620800	-10.810000	24.938876	0.000938	20.665781
1030.294766	-3.000800	3.619400	-10.859000	24.969183	0.000940	20.665855
1031.300018	-3.007300	3.618500	-10.881000	24.955378	0.000940	20.661955
1032.294086	-3.015800	3.619000	-10.913000	24.951917	0.000941	20.677449
1033.293667	-3.001000	3.618500	-10.859000	24.928085	0.000941	20.669650
1034.298532	-2.997300	3.618800	-10.845000	24.949515	0.000938	20.692109
1035.296113	-3.007100	3.618800	-10.881000	24.925064	0.000939	20.677524
1036.295466	-2.986100	3.620000	-10.809000	24.931279	0.000939	20.651042
1037.299839	-3.001300	3.616300	-10.852000	24.904702	0.000940	20.681269
1038.298970	-2.991300	3.618200	-10.822000	24.939783	0.000940	20.673330
1039.297631	-3.001000	3.617400	-10.855000	24.926418	0.000940	20.697850
1040.298563	-3.001900	3.617500	-10.858000	24.924366	0.000938	20.691523
1041.298717	-3.005100	3.616800	-10.868000	24.894238	0.000938	20.680724
1042.298431	-3.015600	3.616500	-10.903000	24.902881	0.000939	20.692244
1043.299487	-2.974000	3.616000	-10.753000	24.945960	0.000939	20.667202
1044.297872	-2.995100	3.616500	-10.831000	24.915279	0.000935	20.693783
1045.299393	-2.995200	3.616100	-10.830000	24.937328	0.000937	20.673237
1046.299553	-3.009000	3.615500	-10.878000	24.956975	0.000938	20.683474
1047.298522	-2.974000	3.615400	-10.751000	24.969249	0.000936	20.684415
1048.298852	-2.989500	3.614700	-10.806000	24.981320	0.000935	20.702697
1049.299128	-2.990300	3.614400	-10.807000	24.966636	0.000933	20.694596
1050.298483	-2.985300	3.614500	-10.789000	25.004615	0.000934	20.705691
1051.299829	-2.988700	3.614000	-10.800000	25.010569	0.000935	20.687958
1052.300743	-3.011500	3.612500	-10.877000	25.029172	0.000934	20.705210
1053.300147	-2.985900	3.614200	-10.790000	25.009585	0.000932	20.690289
1054.299328	-3.010300	3.610600	-10.867000	25.019188	0.000933	20.705146
1055.301568	-2.983200	3.612800	-10.777000	25.048036	0.000933	20.715612
1056.301963	-2.997700	3.612500	-10.829000	25.061808	0.000931	20.719005
1057.301060	-3.011600	3.611600	-10.876000	25.056996	0.000931	20.695680
1058.303910	-3.021200	3.610700	-10.908000	25.086917	0.000929	20.709596
1059.300713	-3.008200	3.611300	-10.862000	25.106992	0.000931	20.701773
1060.299872	-3.020100	3.611000	-10.904000	25.088938	0.000927	20.688390
1061.303787	-2.993400	3.611100	-10.809000	25.088580	0.000927	20.698937
1062.301731	-2.980800	3.611500	-10.763000	25.080168	0.000926	20.714676
1063.303813	-2.990700	3.610200	-10.796000	25.084419	0.000928	20.697131
1064.303847	-2.999700	3.609300	-10.825000	25.092336	0.000925	20.704604
1065.303849	-2.985100	3.610800	-10.776000	25.102353	0.000926	20.708970
1066.303241	-3.005900	3.608400	-10.845000	25.058491	0.000926	20.708088
1067.304293	-3.011400	3.608200	-10.865000	25.051422	0.000925	20.709527
1068.304562	-2.989200	3.611000	-10.793000	25.012656	0.000926	20.712815
1069.306860	-3.015200	3.607900	-10.877000	25.045299	0.000925	20.715709
1070.307466	-2.984900	3.610900	-10.776000	25.048948	0.000924	20.718898
1071.304144	-2.993600	3.607900	-10.800000	25.089855	0.000924	20.727720
1072.305399	-3.024800	3.608100	-10.913000	25.073999	0.000924	20.724131
1073.306043	-3.013500	3.607600	-10.870000	25.054072	0.000923	20.728784
1074.304295	-3.009300	3.606000	-10.851000	25.077266	0.000921	20.716504
1075.303803	-3.011800	3.606300	-10.861000	25.054292	0.000923	20.700553
1076.305699	-2.988000	3.607100	-10.777000	25.039397	0.000923	20.730174
1077.305462	-2.967500	3.607400	-10.704000	25.010827	0.000921	20.719988
1078.310283	-2.992500	3.606300	-10.790000	24.997023	0.000920	20.727469
1079.308864	-2.985400	3.606200	-10.765000	24.969918	0.000918	20.724444
1080.308631	-2.974200	3.605800	-10.723000	24.958100	0.000922	20.718272
1081.307725	-2.988500	3.606000	-10.776000	24.950290	0.000920	20.709958
1082.308039	-3.013000	3.604800	-10.860000	24.959314	0.000921	20.722336
1083.308839	-3.002400	3.604800	-10.822000	25.000755	0.000918	20.725999
1084.307882	-3.000500	3.604300	-10.813000	25.023095	0.000920	20.717129
1085.313089	-3.016800	3.603600	-10.871000	24.998419	0.000919	20.742147
1086.309514	-2.998900	3.604900	-10.810000	25.029914	0.000920	20.710222
1087.310512	-3.004400	3.604200	-10.827000	25.020182	0.000920	20.717998
1088.314984	-3.012900	3.603200	-10.855000	25.020622	0.000918	20.744046
1089.311879	-2.994100	3.602300	-10.785000	25.073145	0.000919	20.721850
1090.311059	-2.975400	3.603200	-10.719000	25.089466	0.000915	20.742503
1091.311324	-2.993100	3.601300	-10.778000	25.075036	0.000918	20.744613
1092.313969	-2.988600	3.603400	-10.768000	25.086764	0.000916	20.725090
1093.311710	-3.003400	3.601700	-10.816000	25.103280	0.000915	20.736930
1094.314587	-3.029000	3.599300	-10.900000	25.131784	0.000916	20.728559
1095.314252	-3.017800	3.601800	-10.869000	25.133666	0.000915	20.753209
1096.312485	-3.000500	3.601200	-10.805000	25.170491	0.000913	20.742762
1097.313177	-2.988500	3.601100	-10.760000	25.190222	0.000913	20.758778
1098.312742	-2.998400	3.599800	-10.792000	25.194018	0.000910	20.727500
1099.312776	-2.995800	3.599900	-10.783000	25.174401	0.000911	20.738627
1100.314687	-3.000300	3.599700	-10.799000	25.138515	0.000912	20.762819
1101.313071	-2.990300	3.599500	-10.764000	25.133312	0.000910	20.749535
1102.312899	-3.002600	3.599700	-10.808000	25.101488	0.000909	20.737501
1103.313899	-3.009600	3.598200	-10.827000	25.102229	0.000910	20.754367
1104.311513	-3.016400	3.599300	-10.855000	25.113883	0.000910	20.751842
1105.312451	-3.021700	3.597900	-10.870000	25.118974	0.000908	20.744149
1106.312694	-3.008300	3.597800	-10.822000	25.105220	0.000909	20.753102
1107.313122	-3.005200	3.596700	-10.808000	25.129406	0.000905	20.744665
1108.315905	-2.994400	3.597500	-10.772000	25.139244	0.000908	20.748851
1109.315006	-3.005900	3.598100	-10.815000	25.159823	0.000905	20.757183
1110.319682	-2.993400	3.595600	-10.762000	25.129619	0.000904	20.749146
1111.315820	-3.008400	3.595000	-10.814000	25.112706	0.000906	20.750185
1112.317858	-3.003000	3.595500	-10.795000	25.084349	0.000905	20.762023
1113.316602	-2.983000	3.596500	-10.727000	25.047694	0.000903	20.733287
1114.316281	-2.983300	3.595500	-10.726000	25.029597	0.000906	20.749262
1115.316437	-2.977600	3.595700	-10.705000	25.060293	0.000904	20.768221
1116.318794	-2.993800	3.594400	-10.760000	25.086052	0.000902	20.752826
1117.323031	-2.998100	3.593700	-10.773000	25.095474	0.000902	20.763708
1118.317011	-2.992800	3.593600	-10.753000	25.129188	0.000903	20.778112
1119.320674	-3.011500	3.593700	-10.821000	25.124279	0.000903	20.754217
1120.322094	-2.990200	3.595600	-10.750000	25.141023	0.000901	20.758224
1121.318614	-3.003900	3.592900	-10.792000	25.124898	0.000902	20.759106
1122.319011	-3.002200	3.593100	-10.786000	25.140037	0.000899	20.768614
1123.321963	-2.973300	3.592600	-10.681000	25.160297	0.000899	20.771410
1124.320888	-3.013200	3.591200	-10.819000	25.202055	0.000901	20.778719
1125.319938	-3.006100	3.592200	-10.797000	25.208570	0.000898	20.762973
1126.319743	-2.991300	3.591900	-10.743000	25.221126	0.000899	20.763725
1127.317738	-2.990000	3.590800	-10.736000	25.256791	0.000899	20.766816
1128.318830	-2.983700	3.591100	-10.714000	25.279313	0.000898	20.757659
1129.319983	-3.012400	3.591800	-10.819000	25.265438	0.000897	20.766489
1130.317223	-3.020200	3.590000	-10.841000	25.305499	0.000897	20.756924
1131.318204	-3.008000	3.590400	-10.799000	25.315245	0.000896	20.745846
1132.319586	-3.029200	3.589300	-10.871000	25.336227	0.000895	20.753163
1133.317768	-2.979300	3.590800	-10.695000	25.336765	0.000897	20.760816
1134.319829	-3.011700	3.589300	-10.809000	25.369275	0.000895	20.777812
1135.320829	-2.984600	3.590600	-10.716000	25.347374	0.000896	20.765305
1136.318250	-3.005100	3.588400	-10.783000	25.365179	0.000894	20.771329
1137.320021	-3.021800	3.587100	-10.839000	25.323077	0.000895	20.778842
1138.319957	-2.993900	3.587600	-10.740000	25.282758	0.000895	20.746419
1139.318711	-3.001000	3.586800	-10.763000	25.286267	0.000893	20.763219
1140.325622	-2.994500	3.588100	-10.744000	25.272473	0.000894	20.762646
1141.321446	-3.014700	3.587100	-10.813000	25.266765	0.000892	20.761656
1142.320101	-2.996800	3.587300	-10.750000	25.261562	0.000890	20.794840
1143.321948	-2.994300	3.586400	-10.737000	25.266016	0.000891	20.765646
1144.322107	-3.011600	3.585500	-10.797000	25.249088	0.000888	20.769039
1145.319509	-2.972600	3.587700	-10.663000	25.243575	0.000889	20.780100
1146.322170	-3.005600	3.583500	-10.769000	25.237810	0.000889	20.772415
1147.322172	-2.996700	3.585900	-10.744000	25.229179	0.000887	20.790303
1148.321494	-2.995000	3.583300	-10.731000	25.229211	0.000890	20.782274
1149.323400	-2.995100	3.585200	-10.737000	25.268881	0.000890	20.774213
1150.322080	-2.985000	3.584300	-10.698000	25.265828	0.000887	20.778734
1151.322295	-3.013100	3.583200	-10.794000	25.250414	0.000887	20.764207
1152.322139	-2.991100	3.584000	-10.719000	25.211401	0.000885	20.762023
1153.322433	-2.974000	3.582900	-10.655000	25.215050	0.000885	20.793661
1154.322703	-2.985000	3.583900	-10.697000	25.220073	0.000885	20.760298
1155.322166	-3.012600	3.580800	-10.785000	25.215497	0.000885	20.793162
1156.321131	-3.014300	3.581800	-10.795000	25.264450	0.000884	20.771187
1157.321002	-3.003400	3.582300	-10.759000	25.286915	0.000882	20.781888
1158.321702	-3.032100	3.581400	-10.859000	25.291068	0.000884	20.788902
1159.321837	-3.024800	3.580900	-10.830000	25.273171	0.000886	20.785632
1160.322383	-2.990600	3.582200	-10.712000	25.293356	0.000884	20.777449
1161.326403	-2.996400	3.580400	-10.727000	25.313809	0.000883	20.784235
1162.325040	-3.008500	3.580100	-10.769000	25.341605	0.000884	20.769469
1163.322513	-3.010100	3.580900	-10.777000	25.333472	0.000881	20.786433
1164.324563	-3.002400	3.579900	-10.748000	25.310853	0.000881	20.790750
1165.327701	-2.993400	3.579900	-10.715000	25.312620	0.000880	20.788730
1166.325763	-3.008000	3.578000	-10.761000	25.293152	0.000881	20.763968
1167.328271	-3.003400	3.578300	-10.746000	25.296490	0.000879	20.788657
1168.329860	-2.983000	3.578600	-10.675000	25.318164	0.000879	20.763951
1169.327338	-2.982100	3.578000	-10.669000	25.327161	0.000879	20.794796
1170.330616	-2.976300	3.578700	-10.650000	25.323335	0.000879	20.802334
1171.329479	-2.992200	3.577800	-10.703000	25.304494	0.000878	20.811391
1172.327382	-3.001700	3.577000	-10.735000	25.290994	0.000877	20.796415
1173.328334	-2.992500	3.577500	-10.705000	25.269572	0.000876	20.788657
1174.328366	-2.988400	3.577200	-10.689000	25.224079	0.000877	20.797511
1175.327491	-3.005200	3.576200	-10.746000	25.238346	0.000876	20.799980
1176.329899	-2.997600	3.576200	-10.719000	25.236635	0.000875	20.784512
1177.327019	-2.987600	3.576100	-10.683000	25.237555	0.000874	20.791600
1178.331062	-2.983600	3.576200	-10.669000	25.230569	0.000875	20.786482
1179.333928	-2.989700	3.574800	-10.687000	25.246130	0.000873	20.808269
1180.330563	-2.989400	3.574400	-10.683000	25.253882	0.000875	20.798034
1181.329086	-3.001600	3.574200	-10.727000	25.269116	0.000874	20.805743
1182.339273	-2.994100	3.574100	-10.700000	25.285645	0.000871	20.784881
1183.330135	-3.009200	3.573300	-10.751000	25.314705	0.000873	20.788927
1184.330707	-2.991200	3.574700	-10.691000	25.312522	0.000871	20.821349
1185.336497	-3.008700	3.572900	-10.747000	25.302923	0.000869	20.793693
1186.331739	-3.014800	3.572400	-10.769000	25.241277	0.000870	20.790121
1187.331075	-3.001400	3.572500	-10.721000	25.222313	0.000869	20.803798
1188.332815	-3.022500	3.571500	-10.794000	25.214462	0.000869	20.794020
1189.332489	-3.009500	3.573100	-10.752000	25.203380	0.000868	20.819877
1190.332479	-2.993100	3.571800	-10.689000	25.216922	0.000869	20.812136
1191.333960	-3.002600	3.571000	-10.720000	25.219812	0.000868	20.809348
1192.333487	-3.003800	3.570200	-10.722000	25.260819	0.000867	20.809741
1193.334554	-2.994300	3.571600	-10.692000	25.286597	0.000867	20.806225
1194.336488	-2.988600	3.570400	-10.670000	25.279115	0.000867	20.806299
1195.333395	-3.000500	3.569900	-10.711000	25.320022	0.000865	20.791895
1196.334173	-2.991500	3.568900	-10.675000	25.354282	0.000863	20.796423
1197.335976	-2.988300	3.568500	-10.661000	25.322642	0.000865	20.816811
1198.335587	-3.009200	3.569400	-10.739000	25.313841	0.000864	20.815561
1199.335675	-3.014300	3.568200	-10.755000	25.317626	0.000864	20.810352
1200.337583	-3.008200	3.568900	-10.735000	25.312830	0.000864	20.819287
1201.341319	-2.999500	3.566800	-10.696000	25.315891	0.000864	20.814300
1202.336441	-3.021000	3.568000	-10.778000	25.328145	0.000861	20.811431
1203.343243	-3.000400	3.567000	-10.700000	25.369204	0.000862	20.805242
1204.336025	-3.014500	3.567300	-10.752000	25.341938	0.000863	20.798727
1205.336154	-3.011400	3.565900	-10.738000	25.362219	0.000861	20.801548
1206.337925	-3.015000	3.565900	-10.750000	25.353947	0.000860	20.817423
1207.337745	-2.979200	3.567000	-10.626000	25.383518	0.000862	20.808709
1208.337255	-2.998300	3.567400	-10.696000	25.386016	0.000859	20.809321
1209.338202	-2.979500	3.565600	-10.622000	25.442281	0.000859	20.833576
1210.336492	-3.010700	3.565400	-10.733000	25.451976	0.000859	20.833829
1211.336581	-2.991600	3.564100	-10.662000	25.436744	0.000860	20.828016
1212.337251	-2.999300	3.564900	-10.691000	25.465344	0.000860	20.815485
1213.336864	-2.983700	3.565000	-10.634000	25.467786	0.000857	20.800867
1214.337291	-3.010300	3.563900	-10.727000	25.451715	0.000859	20.806540
1215.341274	-3.010900	3.564000	-10.729000	25.464488	0.000858	20.808461
1216.338998	-2.992700	3.563500	-10.663000	25.439837	0.000855	20.811682
1217.338258	-3.006400	3.562900	-10.711000	25.462355	0.000855	20.826707
1218.340546	-3.027500	3.562300	-10.783000	25.458903	0.000856	20.814232
1219.338965	-3.018900	3.562000	-10.753000	25.449295	0.000855	20.806481
1220.342316	-3.005700	3.563100	-10.709000	25.452747	0.000855	20.796671
1221.339795	-2.997500	3.561600	-10.676000	25.432150	0.000854	20.815343
1222.340495	-2.999000	3.561200	-10.679000	25.423528	0.000854	20.814272
1223.340693	-2.963000	3.563300	-10.557000	25.393829	0.000852	20.812424
1224.339991	-2.965600	3.561400	-10.561000	25.379792	0.000854	20.793588
1225.341002	-3.003600	3.561300	-10.696000	25.397044	0.000852	20.812807
1226.339914	-2.991400	3.560600	-10.650000	25.380296	0.000852	20.791250
1227.339855	-3.001300	3.560600	-10.685000	25.369687	0.000850	20.784390
1228.339076	-2.992800	3.561100	-10.657000	25.361789	0.000851	20.778831
1229.339424	-2.986900	3.560500	-10.633000	25.361513	0.000850	20.789933
1230.340132	-2.968400	3.560700	-10.569000	25.407643	0.000850	20.783621
1231.339383	-2.994200	3.558900	-10.655000	25.403449	0.000850	20.801696
1232.340456	-2.999200	3.560400	-10.676000	25.368807	0.000847	20.780661
1233.339387	-3.011400	3.558300	-10.715000	25.357295	0.000847	20.795181
1234.340701	-2.980700	3.559000	-10.607000	25.319051	0.000848	20.784757
1235.342406	-3.016600	3.558500	-10.733000	25.293176	0.000847	20.784855
1236.341774	-2.982200	3.558000	-10.610000	25.350642	0.000847	20.784708
1237.344640	-2.994000	3.556700	-10.648000	25.352286	0.000847	20.784936
1238.343306	-2.987800	3.557700	-10.628000	25.403383	0.000846	20.794992
1239.345511	-3.007400	3.556200	-10.694000	25.444895	0.000846	20.783096
1240.344238	-2.992000	3.556100	-10.638000	25.417735	0.000845	20.786170
1241.343437	-2.998100	3.555900	-10.661000	25.395143	0.000844	20.793830
1242.344256	-2.988100	3.556700	-10.627000	25.394695	0.000844	20.763034
1243.343674	-3.000600	3.556500	-10.670000	25.409488	0.000845	20.775991
1244.343069	-2.995500	3.555600	-10.650000	25.408568	0.000842	20.776016
1245.348865	-3.002700	3.553900	-10.670000	25.456406	0.000842	20.781379
1246.343439	-2.987400	3.554300	-10.617000	25.460435	0.000842	20.767407
1247.344159	-2.990600	3.553100	-10.624000	25.438634	0.000841	20.782025
1248.346278	-2.997600	3.553500	-10.650000	25.411279	0.000840	20.783954
1249.343581	-2.988000	3.553900	-10.618000	25.393758	0.000838	20.799078
1250.345160	-2.984900	3.552700	-10.604000	25.395777	0.000840	20.768862
1251.347611	-3.023400	3.552000	-10.738000	25.396421	0.000840	20.768085
1252.345702	-3.012600	3.551600	-10.697000	25.374943	0.000839	20.784927
1253.344213	-3.013800	3.550900	-10.701000	25.343784	0.000837	20.783512
1254.349162	-3.018500	3.551300	-10.719000	25.314041	0.000837	20.778778
1255.347874	-2.999000	3.550200	-10.645000	25.310679	0.000836	20.766867
1256.346559	-2.977400	3.551700	-10.574000	25.282173	0.000836	20.765747
1257.348753	-2.998500	3.549900	-10.644000	25.230052	0.000836	20.767945
1258.347760	-2.988700	3.550900	-10.612000	25.232095	0.000835	20.758143
1259.345663	-2.969800	3.549900	-10.542000	25.227772	0.000833	20.751431
1260.348098	-2.988000	3.550300	-10.608000	25.190387	0.000832	20.762263
1261.348266	-3.005800	3.550300	-10.671000	25.176113	0.000833	20.763580
1262.353109	-3.013400	3.548700	-10.693000	25.218749	0.000832	20.767029
1263.352348	-2.995400	3.549200	-10.630000	25.242168	0.000834	20.764462
1264.349787	-3.003400	3.549700	-10.660000	25.271057	0.000831	20.768336
1265.351789	-2.996300	3.549100	-10.633000	25.303838	0.000830	20.759524
1266.353363	-3.006500	3.548400	-10.668000	25.337196	0.000830	20.749394
1267.350332	-2.998200	3.548100	-10.638000	25.360489	0.000831	20.748127
1268.352379	-3.006700	3.545600	-10.660000	25.373354	0.000830	20.751561
1269.357973	-2.990900	3.546800	-10.607000	25.367866	0.000830	20.745576
1270.352292	-3.022000	3.546000	-10.715000	25.360611	0.000830	20.740188
1271.351860	-3.006600	3.546200	-10.661000	25.378286	0.000828	20.753195
1272.355114	-2.985500	3.548100	-10.592000	25.372221	0.000828	20.748053
1273.353411	-2.988100	3.546300	-10.596000	25.369510	0.000827	20.754814
1274.355381	-3.021000	3.545300	-10.709000	25.344066	0.000826	20.745387
1275.356178	-2.994200	3.545700	-10.616000	25.325918	0.000824	20.737596
1276.354540	-2.987100	3.545300	-10.588000	25.359748	0.000826	20.730786
1277.355962	-3.006100	3.544700	-10.655000	25.389928	0.000827	20.752082
1278.359007	-2.999300	3.544600	-10.631000	25.367954	0.000825	20.749933
1279.355845	-3.014900	3.542400	-10.679000	25.305798	0.000825	20.752483
1280.356010	-3.023200	3.543500	-10.711000	25.309332	0.000822	20.756505
1281.357026	-2.978600	3.544100	-10.555000	25.335899	0.000823	20.742877
1282.357164	-2.986700	3.543400	-10.583000	25.317653	0.000821	20.739729
1283.356615	-2.991500	3.543000	-10.597000	25.290882	0.000823	20.740825
1284.357162	-2.981700	3.543100	-10.564000	25.291460	0.000822	20.761794
1285.357930	-3.032600	3.540900	-10.737000	25.291386	0.000820	20.735167
1286.357903	-2.997500	3.543800	-10.622000	25.304218	0.000820	20.739042
1287.360779	-2.984800	3.542800	-10.573000	25.299747	0.000820	20.751149
1288.359041	-3.009100	3.541200	-10.655000	25.341427	0.000818	20.718079
1289.360303	-2.995300	3.541600	-10.606000	25.351197	0.000818	20.743064
1290.360656	-3.002600	3.542400	-10.634000	25.356986	0.000817	20.746031
1291.360787	-2.989800	3.540000	-10.583000	25.333399	0.000819	20.725666
1292.360982	-2.988500	3.541100	-10.581000	25.342770	0.000815	20.728912
1293.360574	-2.972200	3.541200	-10.525000	25.344789	0.000817	20.738526
1294.361323	-2.990900	3.540200	-10.587000	25.368106	0.000815	20.752456
1295.359860	-2.997000	3.539400	-10.607000	25.368204	0.000815	20.726001
1296.363759	-2.970500	3.539200	-10.512000	25.391472	0.000814	20.742727
1297.364944	-2.998200	3.537900	-10.606000	25.398556	0.000816	20.727079
1298.362428	-2.993200	3.539300	-10.592000	25.417745	0.000814	20.739236
1299.364225	-2.983300	3.538200	-10.555000	25.444789	0.000813	20.709019
1300.367372	-2.980600	3.538600	-10.546000	25.456611	0.000814	20.727055
1301.364672	-3.002900	3.537300	-10.622000	25.446426	0.000813	20.719672
1302.366479	-3.014300	3.535400	-10.655000	25.440442	0.000814	20.717930
1303.365138	-2.987200	3.536600	-10.563000	25.422149	0.000811	20.729908
1304.366489	-2.992600	3.535600	-10.580000	25.409798	0.000810	20.719876
1305.381528	-2.997100	3.535700	-10.594000	25.387514	0.000810	20.743020
1306.366239	-2.991900	3.534500	-10.573000	25.368464	0.000812	20.734323
1307.368058	-3.025300	3.534000	-10.689000	25.349093	0.000810	20.741900
1308.369890	-3.011300	3.535500	-10.646000	25.345259	0.000808	20.738524
1309.367319	-3.017700	3.533900	-10.662000	25.373243	0.000809	20.733431
1310.366986	-3.003900	3.532600	-10.611000	25.388434	0.000810	20.735883
1311.368133	-2.998700	3.534700	-10.599000	25.409928	0.000808	20.722852
1312.368115	-2.984400	3.535600	-10.549000	25.403643	0.000809	20.707056
1313.365913	-2.997700	3.533600	-10.591000	25.431901	0.000808	20.720734
1314.368265	-3.005500	3.532500	-10.616000	25.441947	0.000806	20.729874
1315.366547	-2.993700	3.532200	-10.574000	25.421880	0.000806	20.723947
1316.367419	-2.999200	3.532500	-10.594000	25.433139	0.000806	20.743789
1317.367743	-3.011000	3.531300	-10.631000	25.425168	0.000805	20.728672
1318.366844	-2.992500	3.531800	-10.568000	25.459882	0.000805	20.736979
1319.368982	-2.989200	3.531000	-10.553000	25.452751	0.000803	20.724127
1320.368403	-2.987500	3.531600	-10.549000	25.477035	0.000805	20.724805
1321.368147	-2.993700	3.530400	-10.568000	25.503427	0.000804	20.723807
1322.369622	-3.015000	3.529300	-10.639000	25.513912	0.000802	20.724380
1323.369096	-3.012300	3.529700	-10.631000	25.543357	0.000803	20.718387
1324.369249	-3.008600	3.528900	-10.615000	25.578067	0.000803	20.714839
1325.370227	-3.003800	3.527900	-10.595000	25.546287	0.000802	20.729866
1326.370027	-3.022600	3.528100	-10.662000	25.544895	0.000802	20.707130
1327.369885	-3.012700	3.528000	-10.627000	25.524894	0.000801	20.721183
1328.368629	-2.987900	3.528500	-10.542000	25.545465	0.000800	20.717186
1329.370268	-2.989100	3.528700	-10.546000	25.537928	0.000800	20.691597
1330.370570	-3.000000	3.529200	-10.586000	25.567582	0.000799	20.723277
1331.371322	-3.021300	3.525800	-10.651000	25.543210	0.000798	20.713972
1332.373559	-3.011900	3.526200	-10.618000	25.534053	0.000796	20.718527
1333.370867	-3.018400	3.527100	-10.645000	25.548168	0.000798	20.712788
1334.372961	-3.006500	3.525500	-10.599000	25.555943	0.000796	20.732925
1335.373526	-3.005400	3.525200	-10.593000	25.556422	0.000798	20.715862
1336.371903	-3.003400	3.524700	-10.585000	25.540590	0.000793	20.726040
1337.373167	-2.991000	3.524900	-10.542000	25.569016	0.000795	20.697213
1338.378208	-3.005300	3.525300	-10.594000	25.576716	0.000794	20.713483
1339.374207	-3.002200	3.523800	-10.579000	25.534696	0.000793	20.702577
1340.372996	-3.006400	3.524000	-10.594000	25.544692	0.000794	20.714513
1341.376934	-2.990700	3.524200	-10.539000	25.567208	0.000795	20.715314
1342.374902	-3.012700	3.522100	-10.609000	25.584050	0.000792	20.722746
1343.373434	-3.018800	3.522900	-10.634000	25.597864	0.000793	20.703427
1344.377851	-3.021800	3.523900	-10.646000	25.569838	0.000791	20.707523
1345.373147	-3.023900	3.521100	-10.645000	25.572825	0.000792	20.698668
1346.373339	-3.003500	3.521500	-10.576000	25.570545	0.000791	20.712501
1347.385129	-2.998400	3.522000	-10.559000	25.605881	0.000790	20.699624
1348.373685	-2.995200	3.522100	-10.548000	25.582625	0.000789	20.718943
1349.374366	-2.991400	3.522500	-10.535000	25.604961	0.000789	20.688268
1350.383193	-3.002200	3.521600	-10.572000	25.606972	0.000789	20.716842
1351.374458	-2.993500	3.522100	-10.541000	25.596935	0.000787	20.692061
1352.376788	-3.005900	3.519600	-10.579000	25.605091	0.000789	20.707366
1353.379490	-3.017400	3.519700	-10.619000	25.601436	0.000788	20.707489
1354.376021	-3.013300	3.520100	-10.606000	25.595176	0.000788	20.699779
1355.377388	-2.975900	3.520000	-10.473000	25.577862	0.000787	20.701356
1356.380947	-2.979100	3.519300	-10.483000	25.592945	0.000786	20.709867
1357.376017	-3.004900	3.518700	-10.572000	25.577610	0.000786	20.700155
1358.377717	-2.983600	3.517900	-10.495000	25.578708	0.000786	20.694145
1359.381822	-2.993800	3.518100	-10.531000	25.595477	0.000785	20.702452
1360.382202	-2.987600	3.518100	-10.510000	25.552863	0.000783	20.683361
1361.380673	-2.999000	3.516800	-10.545000	25.525357	0.000782	20.708845
1362.382479	-2.980000	3.517900	-10.482000	25.483367	0.000782	20.698919
1363.382294	-2.985100	3.517900	-10.500000	25.443077	0.000783	20.689280
1364.381515	-2.969900	3.517900	-10.447000	25.391535	0.000783	20.706752
1365.388227	-3.004500	3.514400	-10.559000	25.386365	0.000781	20.692551
1366.382675	-3.016200	3.514800	-10.600000	25.362013	0.000780	20.679003
1367.381343	-3.001400	3.515500	-10.551000	25.350134	0.000779	20.704536
1368.381310	-3.014300	3.514400	-10.592000	25.367134	0.000780	20.676558
1369.382951	-3.008100	3.513200	-10.567000	25.397167	0.000780	20.693441
1370.381438	-2.996900	3.513500	-10.529000	25.421893	0.000778	20.701200
1371.381329	-3.023500	3.512100	-10.618000	25.423302	0.000778	20.693605
1372.381541	-2.999000	3.513000	-10.535000	25.421176	0.000778	20.683883
1373.383007	-2.981300	3.513600	-10.474000	25.436783	0.000778	20.697659
1374.382346	-3.018600	3.511400	-10.599000	25.436448	0.000776	20.680726
1375.381875	-2.996000	3.511000	-10.517000	25.415493	0.000776	20.692876
1376.382862	-2.985300	3.512900	-10.486000	25.437637	0.000776	20.700888
1377.382221	-3.009500	3.512100	-10.569000	25.447235	0.000775	20.695353
1378.383269	-2.995400	3.511900	-10.519000	25.458795	0.000776	20.672345
1379.382421	-3.019200	3.509700	-10.596000	25.485856	0.000773	20.678657
1380.386931	-2.981800	3.511500	-10.468000	25.478154	0.000772	20.691788
1381.384450	-3.000000	3.510400	-10.529000	25.467245	0.000773	20.693161
1382.384690	-3.015600	3.510700	-10.585000	25.427516	0.000773	20.675075
1383.386440	-2.994700	3.510100	-10.511000	25.399331	0.000772	20.670481
1384.383966	-2.978400	3.509500	-10.452000	25.394739	0.000772	20.678673
1385.386098	-3.020200	3.508700	-10.596000	25.386011	0.000773	20.663269
1386.386705	-3.013500	3.507700	-10.569000	25.376078	0.000771	20.685540
1387.388886	-3.006600	3.507600	-10.544000	25.351995	0.000770	20.686488
1388.386800	-2.981900	3.507700	-10.457000	25.335670	0.000770	20.697125
1389.387319	-2.996100	3.508400	-10.511000	25.312922	0.000770	20.682818
1390.387222	-2.981500	3.507200	-10.455000	25.330605	0.000770	20.675916
1391.387911	-2.974400	3.508700	-10.434000	25.339309	0.000768	20.666636
1392.388987	-3.004500	3.505300	-10.530000	25.380343	0.000767	20.685081
1393.388426	-3.010500	3.506700	-10.555000	25.417525	0.000767	20.673577
1394.392725	-2.996500	3.505900	-10.504000	25.446206	0.000766	20.668238
1395.388843	-3.011700	3.505200	-10.555000	25.495442	0.000766	20.680224
1396.391567	-2.982900	3.505900	-10.456000	25.537659	0.000766	20.667143
1397.391253	-3.004100	3.504200	-10.526000	25.592141	0.000766	20.664485
1398.390890	-3.007400	3.505200	-10.540000	25.616317	0.000763	20.682128
1399.389939	-2.988800	3.504600	-10.473000	25.624863	0.000766	20.667951
1400.391096	-2.982400	3.503400	-10.447000	25.616821	0.000763	20.660347
1401.389858	-3.001600	3.502800	-10.513000	25.635233	0.000764	20.672676
1402.390892	-3.003200	3.502600	-10.518000	25.639864	0.000762	20.663102
1403.390355	-3.004200	3.501900	-10.518000	25.658552	0.000762	20.670018
1404.391173	-3.000000	3.503200	-10.507000	25.637381	0.000762	20.694276
1405.393643	-3.004600	3.501400	-10.519000	25.614255	0.000760	20.661564
1406.397810	-3.015000	3.500300	-10.553000	25.578301	0.000760	20.673346
1407.392226	-2.987300	3.501400	-10.458000	25.597634	0.000761	20.670002
1408.393081	-2.999400	3.500200	-10.498000	25.599449	0.000760	20.654753
1409.393495	-3.000900	3.499700	-10.501000	25.633473	0.000759	20.666641
1410.393442	-2.993400	3.500000	-10.475000	25.624226	0.000758	20.656879
1411.393815	-2.992100	3.499800	-10.470000	25.633522	0.000757	20.646773
1412.394598	-3.012600	3.499400	-10.542000	25.634473	0.000758	20.674285
1413.394596	-3.003700	3.499700	-10.511000	25.642597	0.000757	20.676280
1414.393733	-3.002400	3.498800	-10.504000	25.627106	0.000758	20.653133
1415.393588	-2.996700	3.499500	-10.487000	25.610477	0.000759	20.663933
1416.398917	-2.992600	3.499800	-10.473000	25.609728	0.000757	20.657965
1417.393885	-3.001600	3.499200	-10.501000	25.597062	0.000756	20.660418
1418.394609	-2.987700	3.498900	-10.453000	25.611453	0.000756	20.667285
1419.394886	-2.989600	3.497800	-10.455000	25.592211	0.000756	20.658865
1420.397717	-3.004800	3.497100	-10.508000	25.600448	0.000754	20.661922
1421.395924	-3.013300	3.495400	-10.532000	25.617444	0.000755	20.656705
1422.396736	-3.003400	3.495100	-10.496000	25.621742	0.000753	20.656754
1423.395487	-2.988300	3.495800	-10.444000	25.652086	0.000753	20.654988
1424.396746	-3.010000	3.493300	-10.514000	25.648862	0.000752	20.660760
1425.396983	-3.013100	3.494100	-10.526000	25.662846	0.000753	20.662951
1426.398041	-3.011900	3.494300	-10.524000	25.666322	0.000751	20.667391
1427.396830	-3.013800	3.494100	-10.530000	25.676341	0.000752	20.669868
1428.396001	-2.998500	3.494400	-10.476000	25.659989	0.000752	20.639690
1429.397231	-3.000400	3.493000	-10.479000	25.638557	0.000750	20.665583
1430.396410	-2.979600	3.493500	-10.409000	25.627626	0.000749	20.656974
1431.396810	-3.013200	3.492600	-10.522000	25.552632	0.000749	20.636182
1432.396937	-3.008500	3.492300	-10.506000	25.523904	0.000749	20.646214
1433.397797	-3.009700	3.491600	-10.506000	25.531686	0.000748	20.652133
1434.396458	-3.005800	3.491700	-10.494000	25.509422	0.000747	20.661544
1435.396966	-3.013700	3.490400	-10.517000	25.567097	0.000749	20.624155
1436.397468	-2.996800	3.491600	-10.462000	25.544865	0.000747	20.649721
1437.396595	-3.026400	3.489700	-10.560000	25.539419	0.000746	20.658478
1438.397461	-2.971500	3.490400	-10.371000	25.508583	0.000746	20.656434
1439.401725	-2.966100	3.490000	-10.351000	25.533240	0.000746	20.644210
1440.397449	-3.002400	3.489900	-10.477000	25.525140	0.000746	20.664527
1441.398603	-3.015300	3.488200	-10.515000	25.549440	0.000747	20.645780
1442.402509	-3.012100	3.489900	-10.511000	25.544971	0.000744	20.661682
1443.399381	-2.980000	3.489900	-10.399000	25.535381	0.000745	20.649205
1444.398441	-3.001500	3.488800	-10.470000	25.551580	0.000742	20.649827
1445.397096	-3.006300	3.487600	-10.483000	25.563888	0.000744	20.649385
1446.401238	-2.998100	3.487500	-10.455000	25.576538	0.000744	20.664461
1447.402079	-2.985200	3.487700	-10.410000	25.545678	0.000742	20.661919
1448.401424	-3.004200	3.486200	-10.472000	25.539540	0.000741	20.635363
1449.402004	-2.982400	3.484600	-10.392000	25.506115	0.000741	20.634987
1450.405235	-2.984300	3.485800	-10.402000	25.515713	0.000741	20.648894
1451.403301	-2.981200	3.486900	-10.394000	25.522991	0.000740	20.653832
1452.406276	-3.016700	3.483400	-10.508000	25.539222	0.000739	20.650218
1453.402135	-3.017200	3.482900	-10.507000	25.557880	0.000739	20.645247
1454.403488	-3.006800	3.484200	-10.475000	25.596074	0.000738	20.647095
1455.404409	-3.005300	3.485300	-10.474000	25.605744	0.000739	20.647798
1456.404858	-2.986700	3.483000	-10.401000	25.610595	0.000739	20.662629
1457.403827	-2.993700	3.484500	-10.431000	25.640110	0.000736	20.641061
1458.413423	-3.017700	3.483000	-10.510000	25.660491	0.000736	20.650627
1459.404941	-3.028500	3.481600	-10.542000	25.662672	0.000737	20.642860
1460.404713	-3.000400	3.483500	-10.451000	25.636837	0.000735	20.642516
1461.404769	-2.986500	3.483300	-10.402000	25.622226	0.000734	20.652025
1462.405640	-2.999600	3.482100	-10.443000	25.614746	0.000734	20.652573
1463.403938	-3.018500	3.480300	-10.504000	25.645213	0.000732	20.649032
1464.404362	-2.979800	3.481800	-10.374000	25.655305	0.000734	20.651108
1465.408163	-2.999500	3.481100	-10.441000	25.669216	0.000733	20.659865
1466.411671	-3.000900	3.480500	-10.443000	25.678080	0.000734	20.663079
1467.406140	-2.986100	3.480200	-10.391000	25.680920	0.000733	20.647438
1468.409465	-3.028600	3.478200	-10.534000	25.623259	0.000731	20.654959
1469.410261	-3.019400	3.479300	-10.505000	25.597887	0.000731	20.651762
1470.405155	-2.987200	3.480400	-10.395000	25.524283	0.000731	20.656553
1471.411304	-2.981900	3.478700	-10.372000	25.503859	0.000731	20.679193
1472.412928	-3.011600	3.477800	-10.472000	25.499056	0.000728	20.651607
1473.406378	-2.984400	3.477400	-10.377000	25.498909	0.000729	20.636285
1474.410085	-2.991300	3.479500	-10.407000	25.541631	0.000727	20.657379
1475.407341	-2.978600	3.478600	-10.361000	25.537552	0.000729	20.655180
1476.410781	-2.990200	3.476400	-10.394000	25.573834	0.000729	20.653684
1477.411353	-2.999100	3.477300	-10.427000	25.575274	0.000726	20.658450
1478.410538	-3.007000	3.475300	-10.449000	25.588868	0.000727	20.651713
1479.408498	-3.001500	3.475800	-10.432000	25.573011	0.000728	20.661394
1480.411886	-3.009000	3.473900	-10.452000	25.559149	0.000726	20.663593
1481.410520	-3.001800	3.474300	-10.428000	25.539189	0.000725	20.663937
1482.410290	-3.016800	3.473500	-10.478000	25.560761	0.000725	20.666160
1483.414076	-3.019600	3.473400	-10.486000	25.530495	0.000725	20.668957
1484.412979	-3.008900	3.473300	-10.450000	25.474088	0.000725	20.661622
1485.415517	-2.998100	3.473400	-10.413000	25.488196	0.000724	20.646865
1486.411107	-2.992100	3.474800	-10.396000	25.497118	0.000723	20.663888
1487.417304	-2.980200	3.472600	-10.348000	25.538692	0.000723	20.681458
1488.415707	-3.013500	3.471800	-10.461000	25.568828	0.000723	20.648182
1489.413187	-3.012000	3.470500	-10.451000	25.570651	0.000722	20.658074
1490.415093	-3.004700	3.471500	-10.430000	25.619377	0.000721	20.661018
1491.414620	-3.014300	3.471000	-10.461000	25.657764	0.000724	20.648361
1492.413968	-2.994000	3.469800	-10.388000	25.645920	0.000721	20.671556
1493.414047	-2.997100	3.470800	-10.401000	25.636519	0.000720	20.688195
1494.413766	-2.989100	3.471100	-10.374000	25.628054	0.000721	20.663094
1495.414451	-2.996500	3.469800	-10.396000	25.626442	0.000721	20.662898
1496.414837	-3.006900	3.469600	-10.430000	25.642282	0.000720	20.683551
1497.414582	-3.030100	3.467100	-10.505000	25.620996	0.000721	20.678293
1498.416328	-2.992600	3.468600	-10.379000	25.584563	0.000719	20.660666
1499.414625	-3.002900	3.467600	-10.412000	25.559068	0.000720	20.652131
1500.416095	-3.005800	3.467500	-10.422000	25.514970	0.000719	20.672333
1501.415140	-3.002000	3.466600	-10.404000	25.503484	0.000718	20.658426
1502.417654	-3.008800	3.465700	-10.426000	25.483132	0.000718	20.689200
1503.416492	-3.007200	3.467100	-10.425000	25.462283	0.000717	20.668736
1504.416700	-3.016600	3.464800	-10.451000	25.468918	0.000717	20.669234
1505.419012	-2.982500	3.466600	-10.338000	25.485094	0.000714	20.656553
1506.415480	-2.988800	3.466700	-10.361000	25.502687	0.000715	20.672325
1507.417990	-2.980400	3.465500	-10.328000	25.537129	0.000714	20.676568
1508.416752	-3.014300	3.465000	-10.444000	25.566353	0.000714	20.684581
1509.416518	-2.997600	3.463500	-10.381000	25.600720	0.000714	20.684482
1510.416989	-2.981300	3.464400	-10.326000	25.612897	0.000714	20.654984
1511.417477	-2.985200	3.464300	-10.341000	25.654344	0.000714	20.690925
1512.417624	-3.012000	3.463500	-10.431000	25.694699	0.000712	20.666969
1513.418298	-3.022200	3.462200	-10.462000	25.670249	0.000713	20.707374
1514.418004	-3.018500	3.461700	-10.448000	25.707470	0.000713	20.673158
1515.417295	-3.005700	3.461300	-10.403000	25.710945	0.000714	20.680443
1516.419606	-3.011500	3.460100	-10.419000	25.707218	0.000712	20.698038
1517.419245	-3.006200	3.462100	-10.406000	25.724407	0.000713	20.680689
1518.421947	-2.987300	3.462000	-10.341000	25.713868	0.000711	20.666308
1519.421367	-2.994500	3.460800	-10.362000	25.736356	0.000710	20.691269
1520.421154	-2.994700	3.460600	-10.362000	25.741646	0.000710	20.665760
1521.423740	-3.000500	3.459900	-10.380000	25.752185	0.000710	20.699583
1522.422287	-2.997500	3.459600	-10.369000	25.791194	0.000710	20.709843
1523.422104	-2.995000	3.459400	-10.360000	25.762350	0.000708	20.685610
1524.422083	-3.002400	3.459000	-10.384000	25.751559	0.000708	20.697531
1525.423260	-3.005800	3.456900	-10.390000	25.707323	0.000708	20.666846
1526.423405	-2.991100	3.459200	-10.347000	25.679593	0.000709	20.680247
1527.423930	-2.981800	3.457000	-10.307000	25.659366	0.000707	20.679846
1528.423471	-3.008500	3.455700	-10.396000	25.648012	0.000705	20.678399
1529.424067	-3.021000	3.455100	-10.438000	25.650494	0.000706	20.680419
1530.435507	-3.006300	3.456000	-10.389000	25.654002	0.000707	20.682046
1531.425440	-2.993200	3.455700	-10.343000	25.706452	0.000707	20.677827
1532.425636	-3.003000	3.454600	-10.374000	25.696856	0.000706	20.688578
1533.425357	-2.993100	3.456200	-10.344000	25.723023	0.000706	20.677876
1534.425241	-3.022800	3.454600	-10.442000	25.715935	0.000705	20.698733
1535.425349	-3.005800	3.453600	-10.380000	25.679918	0.000705	20.681996
1536.425931	-2.983300	3.454700	-10.304000	25.640255	0.000705	20.692421
1537.427220	-3.009400	3.453500	-10.391000	25.656314	0.000704	20.685316
1538.428732	-2.987400	3.453300	-10.315000	25.676695	0.000702	20.694881
1539.427301	-3.001100	3.453800	-10.364000	25.660839	0.000703	20.716890
1540.427356	-2.964200	3.453000	-10.234000	25.646253	0.000701	20.690859
1541.428061	-2.985200	3.452700	-10.305000	25.656517	0.000699	20.712075
1542.427330	-3.008400	3.451300	-10.381000	25.674278	0.000700	20.705257
1543.427927	-3.018500	3.450400	-10.414000	25.644764	0.000699	20.706908
1544.428478	-3.018500	3.450500	-10.414000	25.639595	0.000701	20.705510
1545.429464	-3.007500	3.449100	-10.371000	25.617748	0.000700	20.689257
1546.428346	-2.978800	3.450300	-10.277000	25.606173	0.000701	20.689960
1547.430561	-2.990800	3.449000	-10.313000	25.614272	0.000698	20.722752
1548.428507	-2.991000	3.448700	-10.315000	25.636364	0.000699	20.685193
1549.430207	-2.994100	3.449500	-10.328000	25.668270	0.000697	20.688316
1550.430270	-3.020900	3.447100	-10.412000	25.688391	0.000698	20.706156
1551.430771	-3.012200	3.447600	-10.384000	25.700364	0.000697	20.722924
1552.429992	-2.989500	3.447300	-10.304000	25.721632	0.000697	20.710146
1553.430834	-3.014000	3.445400	-10.383000	25.765581	0.000693	20.704505
1554.429946	-2.999600	3.447600	-10.341000	25.787327	0.000695	20.686992
1555.430459	-2.990500	3.447000	-10.307000	25.790974	0.000693	20.716261
1556.430147	-2.987400	3.446300	-10.294000	25.776096	0.000695	20.723603
1557.432047	-2.977200	3.447100	-10.261000	25.750980	0.000693	20.721608
1558.432477	-3.010200	3.446500	-10.373000	25.748050	0.000694	20.712026
1559.432782	-3.010200	3.445200	-10.369000	25.760844	0.000693	20.698797
1560.431477	-3.019500	3.444300	-10.399000	25.788149	0.000692	20.711053
1561.435473	-3.008700	3.444200	-10.362000	25.781296	0.000691	20.719817
1562.433613	-3.038600	3.443800	-10.462000	25.787156	0.000694	20.708633
1563.433981	-3.029200	3.441800	-10.424000	25.790908	0.000691	20.710505
1564.434604	-3.001700	3.443400	-10.334000	25.786880	0.000690	20.718313
1565.436990	-2.979100	3.444200	-10.259000	25.770229	0.000689	20.707276
1566.434039	-2.997000	3.443900	-10.321000	25.762732	0.000689	20.714446
1567.434645	-2.993100	3.441800	-10.301000	25.792300	0.000690	20.720912
1568.435484	-2.976100	3.444400	-10.250000	25.792747	0.000689	20.716146
1569.437482	-2.995300	3.440600	-10.304000	25.818668	0.000688	20.716105
1570.436997	-2.991900	3.440200	-10.292000	25.854851	0.000688	20.723055
1571.437447	-2.987700	3.441800	-10.281000	25.822908	0.000688	20.718468
1572.441171	-2.980300	3.441800	-10.257000	25.858309	0.000688	20.742177
1573.439800	-3.008300	3.440200	-10.348000	25.852515	0.000685	20.704586
1574.440723	-2.988200	3.439300	-10.276000	25.833048	0.000686	20.728654
1575.439885	-3.003400	3.440800	-10.334000	25.840747	0.000685	20.712205
1576.444385	-2.987100	3.439900	-10.274000	25.851408	0.000687	20.708215
1577.442029	-3.003900	3.439000	-10.330000	25.874455	0.000687	20.738956
1578.443057	-3.014800	3.437500	-10.361000	25.893188	0.000683	20.716048
1579.443061	-3.001100	3.438300	-10.318000	25.920587	0.000683	20.742627
1580.443280	-2.974400	3.438700	-10.226000	25.907844	0.000683	20.727927
1581.442499	-3.003500	3.436300	-10.320000	25.875700	0.000683	20.711281
1582.447019	-2.986200	3.439300	-10.270000	25.894937	0.000682	20.719702
1583.447274	-3.010400	3.435700	-10.342000	25.877123	0.000683	20.734050
1584.448019	-2.991500	3.436700	-10.280000	25.912368	0.000682	20.704495
1585.445094	-2.989200	3.437000	-10.273000	25.901748	0.000680	20.733657
1586.443884	-3.003000	3.436900	-10.321000	25.851611	0.000680	20.714110
1587.445087	-3.008900	3.435700	-10.337000	25.824527	0.000682	20.735743
1588.446907	-2.991100	3.435700	-10.274000	25.838338	0.000679	20.724485
1589.445113	-3.002400	3.435400	-10.314000	25.814615	0.000681	20.730052
1590.445080	-3.032400	3.432600	-10.408000	25.793398	0.000678	20.722964
1591.445493	-2.984500	3.434600	-10.250000	25.741344	0.000677	20.734688
1592.445865	-3.015500	3.432400	-10.350000	25.721948	0.000679	20.738914
1593.446226	-3.015300	3.433400	-10.352000	25.714500	0.000678	20.729063
1594.451290	-2.981000	3.433800	-10.235000	25.729102	0.000678	20.749420
1595.447215	-3.017600	3.431600	-10.353000	25.705076	0.000674	20.741408
1596.446754	-3.002800	3.432400	-10.306000	25.679510	0.000677	20.719996
1597.448997	-2.997400	3.430900	-10.283000	25.675856	0.000676	20.744302
1598.446838	-2.997100	3.430900	-10.281000	25.721094	0.000676	20.747066
1599.447575	-3.003000	3.431500	-10.304000	25.744509	0.000676	20.723643
1600.449651	-2.996800	3.430300	-10.278000	25.759737	0.000674	20.737042
1601.452468	-2.978700	3.430400	-10.216000	25.735638	0.000674	20.736069
1602.448998	-3.021200	3.429400	-10.360000	25.761006	0.000676	20.743533
1603.452413	-2.996000	3.429700	-10.275000	25.793105	0.000672	20.730731
1604.449829	-3.000100	3.429500	-10.288000	25.794025	0.000674	20.748725
1605.456293	-3.009300	3.427500	-10.313000	25.826228	0.000670	20.755943
1606.449832	-2.988000	3.428400	-10.243000	25.793235	0.000671	20.752673
1607.449934	-3.008600	3.428500	-10.314000	25.798655	0.000671	20.729667
1608.448668	-2.985200	3.428900	-10.235000	25.817162	0.000671	20.743517
1609.455322	-2.996700	3.428000	-10.271000	25.833259	0.000671	20.756843
1610.450258	-2.985700	3.427500	-10.232000	25.817780	0.000670	20.761208
1611.450387	-2.975600	3.427300	-10.197000	25.825267	0.000670	20.748340
1612.454739	-2.999400	3.426600	-10.277000	25.834959	0.000669	20.744325
1613.450525	-2.990100	3.425500	-10.241000	25.842137	0.000669	20.757226
1614.451244	-3.019900	3.424500	-10.341000	25.842406	0.000667	20.749435
1615.454863	-2.985900	3.425900	-10.228000	25.851626	0.000669	20.738308
1616.451323	-3.002600	3.425400	-10.284000	25.807908	0.000666	20.764093
1617.451276	-3.010200	3.423200	-10.302000	25.789075	0.000666	20.755133
1618.454242	-2.977600	3.424800	-10.196000	25.799736	0.000668	20.760627
1619.451183	-3.008300	3.422100	-10.294000	25.798450	0.000667	20.737523
1620.452876	-3.039200	3.422200	-10.400000	25.843870	0.000667	20.753751
1621.455171	-2.998100	3.422900	-10.261000	25.828090	0.000665	20.753072
1622.451750	-3.012200	3.422300	-10.307000	25.855206	0.000665	20.742378
1623.452948	-3.002900	3.421400	-10.272000	25.868869	0.000667	20.765114
1624.454846	-2.967700	3.422900	-10.157000	25.875746	0.000665	20.752107
1625.452717	-3.000500	3.420400	-10.261000	25.894560	0.000666	20.760576
1626.453516	-2.975500	3.422300	-10.181000	25.891777	0.000663	20.762996
1627.456994	-2.997900	3.420900	-10.255000	25.870342	0.000661	20.771335
1628.451851	-2.974300	3.422600	-10.178000	25.884990	0.000663	20.756653
1629.455094	-2.988000	3.421100	-10.221000	25.877373	0.000664	20.777450
1630.457802	-2.983200	3.420400	-10.202000	25.854074	0.000661	20.758786
1631.456594	-3.008100	3.417900	-10.280000	25.843893	0.000661	20.747610
1632.456533	-3.001400	3.419100	-10.261000	25.799775	0.000660	20.765407
1633.460846	-3.023700	3.417900	-10.333000	25.772527	0.000660	20.755580
1634.458115	-3.003600	3.418700	-10.267000	25.742487	0.000662	20.750062
1635.458134	-2.999600	3.417700	-10.251000	25.731857	0.000659	20.777318
1636.461734	-3.014000	3.417000	-10.298000	25.725525	0.000659	20.767639
1637.457271	-3.003900	3.417200	-10.264000	25.721854	0.000658	20.780073
1638.460711	-2.997200	3.415900	-10.236000	25.742803	0.000657	20.761286
1639.462403	-2.978000	3.417500	-10.176000	25.764437	0.000657	20.761679
1640.460243	-2.998700	3.416000	-10.243000	25.770980	0.000657	20.777260
1641.459108	-2.995900	3.416100	-10.233000	25.795037	0.000657	20.765864
1642.465565	-2.999600	3.416300	-10.246000	25.798561	0.000656	20.788844
1643.463757	-3.019600	3.414200	-10.308000	25.834565	0.000656	20.769060
1644.459221	-3.021100	3.413800	-10.312000	25.818272	0.000654	20.778298
1645.465464	-2.971500	3.414600	-10.145000	25.846959	0.000654	20.769183
1646.460556	-3.025400	3.413200	-10.325000	25.849929	0.000654	20.770269
1647.460832	-3.004700	3.414200	-10.257000	25.838129	0.000654	20.771218
1648.463406	-3.000800	3.413000	-10.241000	25.856439	0.000653	20.781551
1649.462377	-3.002500	3.412100	-10.244000	25.857806	0.000650	20.772967
1650.466913	-2.986800	3.413800	-10.195000	25.894996	0.000651	20.777610
1651.462059	-2.993500	3.412300	-10.214000	25.899073	0.000652	20.755153
1652.463714	-2.959400	3.413700	-10.101000	25.912842	0.000652	20.796012
1653.463220	-3.017000	3.412500	-10.293000	25.933885	0.000651	20.793919
1654.463086	-2.989000	3.412800	-10.199000	25.942250	0.000652	20.780038
1655.462337	-3.018700	3.411300	-10.297000	25.935748	0.000651	20.764497
1656.463592	-3.004800	3.410000	-10.246000	25.888949	0.000648	20.769165
1657.462835	-2.997800	3.410600	-10.223000	25.951453	0.000648	20.770791
1658.465589	-2.966900	3.411000	-10.119000	25.926764	0.000651	20.789611
1659.464483	-2.993300	3.409300	-10.202000	25.963179	0.000648	20.775459
1660.463613	-2.975800	3.409900	-10.146000	25.914126	0.000647	20.792087
1661.463956	-2.999600	3.408200	-10.222000	25.952625	0.000648	20.805159
1662.464266	-3.000900	3.407800	-10.225000	25.937847	0.000647	20.770399
1663.463648	-3.007400	3.408100	-10.249000	25.967385	0.000646	20.787272
1664.463706	-3.015200	3.406600	-10.270000	25.963683	0.000647	20.777863
1665.462811	-3.011500	3.406800	-10.258000	25.949703	0.000646	20.818819
1666.462989	-3.008100	3.407200	-10.249000	25.909317	0.000645	20.788204
1667.466562	-2.994300	3.405900	-10.197000	25.943421	0.000644	20.794490
1668.465155	-2.983600	3.407000	-10.164000	25.961632	0.000643	20.778173
1669.464129	-2.999900	3.405900	-10.216000	25.972064	0.000643	20.785808
1670.466202	-2.992900	3.404900	-10.189000	25.953137	0.000643	20.781492
1671.466714	-3.022600	3.404600	-10.288000	25.934852	0.000643	20.787779
1672.464934	-3.000900	3.405100	-10.217000	25.975074	0.000640	20.787410
1673.467751	-3.019800	3.404500	-10.279000	25.980608	0.000640	20.796763
1674.466704	-3.011500	3.405100	-10.253000	25.988110	0.000641	20.799085
1675.466736	-3.006200	3.403800	-10.232000	25.971396	0.000641	20.774706
1676.469102	-2.999300	3.403400	-10.207000	25.951826	0.000639	20.783020
1677.469225	-3.019500	3.401100	-10.268000	25.936723	0.000640	20.792503
1678.466179	-3.001600	3.403100	-10.214000	25.914834	0.000637	20.774306
1679.467886	-2.992200	3.403500	-10.183000	25.907429	0.000637	20.764970
1680.466644	-3.000000	3.401700	-10.204000	25.862614	0.000640	20.792496
1681.468478	-3.001000	3.402100	-10.208000	25.822070	0.000638	20.798235
1682.470221	-3.003000	3.401500	-10.214000	25.804752	0.000634	20.778467
1683.469273	-2.959700	3.404000	-10.074000	25.777699	0.000637	20.793967
1684.467850	-3.003300	3.400200	-10.211000	25.793797	0.000637	20.788326
1685.472673	-3.000300	3.401300	-10.204000	25.789053	0.000638	20.775500
1686.468440	-3.002700	3.400300	-10.209000	25.806892	0.000635	20.764970
1687.469063	-3.002400	3.401100	-10.211000	25.813728	0.000636	20.772311
1688.472790	-3.015100	3.399700	-10.250000	25.811018	0.000635	20.775279
1689.469422	-3.021500	3.399900	-10.272000	25.867236	0.000636	20.774854
1690.469859	-3.024200	3.397600	-10.274000	25.860311	0.000635	20.760784
1691.473679	-2.991600	3.399600	-10.169000	25.896093	0.000634	20.765436
1692.471718	-2.992400	3.397800	-10.167000	25.918959	0.000632	20.779399
1693.471593	-3.005000	3.397900	-10.210000	25.936496	0.000634	20.757187
1694.472647	-3.022100	3.396500	-10.264000	25.958336	0.000633	20.766326
1695.472534	-2.989200	3.397900	-10.156000	25.949987	0.000633	20.770741
1696.472898	-2.998200	3.396500	-10.181000	25.932354	0.000632	20.762034
1697.473947	-3.012400	3.396500	-10.230000	25.902196	0.000631	20.767299
1698.473661	-3.017700	3.396300	-10.248000	25.892455	0.000630	20.755617
1699.472063	-3.009900	3.395600	-10.219000	25.898232	0.000631	20.757627
1700.474203	-3.015800	3.394900	-10.238000	25.922670	0.000630	20.759892
1701.474368	-2.991800	3.395700	-10.157000	25.879996	0.000629	20.751161
1702.472737	-2.989300	3.395200	-10.148000	25.883894	0.000628	20.749861
1703.476283	-3.012700	3.393700	-10.223000	25.894326	0.000630	20.762239
1704.474560	-3.012500	3.393400	-10.221000	25.884341	0.000630	20.752682
1705.472927	-2.998500	3.393400	-10.174000	25.853434	0.000630	20.759091
1706.473301	-3.012000	3.393400	-10.220000	25.832470	0.000628	20.755102
1707.473292	-2.998400	3.393300	-10.173000	25.838484	0.000630	20.753082
1708.473600	-2.969200	3.393800	-10.077000	25.852148	0.000629	20.768705
1709.475245	-2.983700	3.392400	-10.121000	25.876586	0.000627	20.750107
1710.472376	-3.000200	3.391500	-10.174000	25.892691	0.000625	20.761544
1711.474078	-3.028800	3.389900	-10.266000	25.932793	0.000627	20.763425
1712.476087	-2.988700	3.392200	-10.137000	25.934412	0.000626	20.733756
1713.473573	-2.988900	3.390800	-10.134000	25.945398	0.000626	20.754276
1714.473346	-2.987100	3.391000	-10.128000	25.920985	0.000626	20.756303
1715.474745	-2.988200	3.391000	-10.132000	25.924436	0.000624	20.749812
1716.473865	-2.980400	3.390000	-10.103000	25.949369	0.000623	20.755895
1717.475002	-2.978600	3.390000	-10.096000	25.981518	0.000623	20.722285
1718.476022	-3.001100	3.388900	-10.169000	25.998672	0.000622	20.750900
1719.476253	-3.030300	3.388900	-10.268000	26.017557	0.000622	20.765133
1720.477656	-3.005500	3.387900	-10.180000	26.007045	0.000621	20.715688
1721.488542	-3.010900	3.388100	-10.200000	25.963609	0.000622	20.742699
1722.476654	-2.978000	3.388900	-10.090000	25.917926	0.000620	20.738530
1723.478398	-2.980900	3.388200	-10.098000	25.890974	0.000620	20.737058
1724.483253	-3.003400	3.386500	-10.169000	25.830728	0.000618	20.755249
1725.478402	-3.010700	3.386300	-10.195000	25.798460	0.000619	20.742748
1726.478679	-2.991900	3.386700	-10.132000	25.769666	0.000617	20.746068
1727.479994	-2.995300	3.387100	-10.145000	25.833764	0.000618	20.726528
1728.479022	-3.014500	3.386000	-10.206000	25.854589	0.000618	20.743181
1729.478884	-3.005100	3.386700	-10.177000	25.857470	0.000615	20.727583
1730.480308	-3.016200	3.385400	-10.209000	25.839289	0.000616	20.741088
1731.480219	-2.999200	3.384400	-10.150000	25.830093	0.000617	20.737066
1732.479963	-3.001600	3.385500	-10.161000	25.828807	0.000616	20.732929
1733.481069	-2.979800	3.384600	-10.084000	25.845800	0.000616	20.740042
1734.481250	-3.001700	3.383900	-10.156000	25.873355	0.000615	20.724574
1735.480063	-2.970900	3.385000	-10.056000	25.879889	0.000614	20.725922
1736.484363	-3.019000	3.381200	-10.205000	25.900754	0.000614	20.730762
1737.481325	-2.998500	3.381800	-10.140000	25.901650	0.000614	20.746361
1738.482939	-3.025700	3.382000	-10.232000	25.934028	0.000613	20.728628
1739.486787	-2.975100	3.383300	-10.064000	25.917835	0.000610	20.719471
1740.485731	-2.972900	3.383300	-10.056000	25.924670	0.000612	20.728710
1741.484364	-2.984200	3.382200	-10.091000	25.888034	0.000612	20.719406
1742.486676	-3.007200	3.379800	-10.163000	25.847768	0.000613	20.718784
1743.486758	-3.012100	3.380600	-10.181000	25.828244	0.000614	20.715767
1744.484684	-2.995800	3.379800	-10.124000	25.859852	0.000611	20.703896
1745.488322	-3.040900	3.378800	-10.274000	25.857866	0.000611	20.722291
1746.488824	-3.003000	3.380700	-10.151000	25.830563	0.000612	20.721890
1747.487546	-2.989800	3.379600	-10.103000	25.847971	0.000611	20.713298
1748.493104	-2.994300	3.379200	-10.118000	25.869382	0.000612	20.717738
1749.489128	-3.000500	3.378800	-10.138000	25.899142	0.000611	20.723452
1750.487701	-3.003900	3.377900	-10.145000	25.928446	0.000612	20.718752
1751.489801	-3.007500	3.378200	-10.159000	25.927396	0.000612	20.705368
1752.491317	-3.002800	3.376500	-10.138000	25.926021	0.000610	20.729593
1753.488948	-3.025100	3.378300	-10.218000	25.892926	0.000610	20.735226
1754.490888	-3.009000	3.377900	-10.163000	25.872940	0.000609	20.713725
1755.492440	-3.008200	3.376100	-10.154000	25.856608	0.000610	20.723872
1756.491839	-2.987400	3.377500	-10.089000	25.837671	0.000608	20.715279
1757.492889	-2.998000	3.376300	-10.121000	25.868287	0.000607	20.728492
1758.491325	-3.009500	3.375400	-10.157000	25.867579	0.000608	20.713081
1759.492344	-2.992300	3.376200	-10.101000	25.879298	0.000607	20.733390
1760.497522	-2.995800	3.375300	-10.110000	25.881740	0.000606	20.696960
1761.495171	-3.024700	3.374800	-10.205000	25.906985	0.000605	20.721374
1762.490182	-3.008900	3.375300	-10.155000	25.886420	0.000605	20.724897
1763.494621	-3.015200	3.376400	-10.180000	25.911501	0.000603	20.710737
1764.493910	-2.989200	3.374100	-10.085000	25.944150	0.000603	20.726942
1765.493181	-2.987400	3.374300	-10.079000	25.962003	0.000604	20.711687
1766.492927	-3.006500	3.373300	-10.141000	25.965967	0.000602	20.730843
1767.492285	-2.996700	3.373300	-10.106000	25.961866	0.000600	20.742845
1768.492493	-3.001700	3.374200	-10.128000	26.004602	0.000602	20.731253
1769.492733	-3.005200	3.372600	-10.134000	26.011844	0.000599	20.722407
1770.491991	-3.022800	3.370800	-10.188000	25.997109	0.000600	20.726095
1771.492034	-3.006300	3.371300	-10.134000	26.009078	0.000600	20.724370
1772.493347	-2.984500	3.370800	-10.058000	25.996922	0.000600	20.734443
1773.493832	-3.007500	3.370800	-10.136000	25.952405	0.000601	20.735236
1774.496579	-3.003300	3.371700	-10.125000	25.968566	0.000598	20.726342
1775.493791	-3.017800	3.370300	-10.170000	25.987314	0.000603	20.701553
1776.494470	-3.000200	3.369900	-10.109000	25.983775	0.000598	20.707482
1777.495146	-3.016900	3.370300	-10.167000	25.998275	0.000597	20.727267
1778.495977	-2.994400	3.369900	-10.090000	25.995021	0.000596	20.708823
1779.495092	-3.000700	3.370300	-10.112000	26.006812	0.000599	20.742008
1780.497135	-2.992300	3.369400	-10.081000	26.045974	0.000598	20.713549
1781.496677	-3.002000	3.368400	-10.111000	26.034462	0.000597	20.707672
1782.495742	-2.940000	3.370800	-9.909100	26.048066	0.000597	20.705219
1783.496494	-2.998300	3.368700	-10.100000	26.088741	0.000597	20.721432
1784.496536	-2.987000	3.367800	-10.059000	26.059793	0.000595	20.696612
1785.498110	-3.008500	3.369200	-10.135000	26.082884	0.000595	20.693260
1786.499195	-2.993800	3.367700	-10.082000	26.111955	0.000596	20.737172
1787.499627	-3.011200	3.365600	-10.133000	26.127658	0.000595	20.711992
1788.502115	-2.998300	3.367600	-10.096000	26.171779	0.000592	20.697235
1789.500094	-3.009900	3.365300	-10.127000	26.172942	0.000593	20.709785
1790.501266	-3.039100	3.365400	-10.226000	26.168485	0.000592	20.702935
1791.501349	-2.996500	3.366100	-10.086000	26.197065	0.000591	20.718379
1792.501674	-3.019100	3.364000	-10.155000	26.166688	0.000592	20.732425
1793.501455	-3.005300	3.364700	-10.111000	26.159341	0.000591	20.691374
1794.501326	-3.012600	3.363600	-10.132000	26.127067	0.000591	20.710155
1795.503232	-2.990000	3.363600	-10.055000	26.136245	0.000589	20.724120
1796.501253	-3.000300	3.364000	-10.092000	26.156381	0.000590	20.712584
1797.502778	-2.980000	3.363300	-10.021000	26.150988	0.000588	20.709061
1798.503675	-3.006500	3.362700	-10.109000	26.116386	0.000588	20.721235
1799.503460	-3.022500	3.363000	-10.164000	26.104589	0.000587	20.708432
1800.505348	-3.005100	3.362400	-10.103000	26.112237	0.000587	20.709004
1801.504326	-3.009800	3.361800	-10.118000	26.131545	0.000585	20.694264
1802.504545	-3.013600	3.361900	-10.131000	26.108520	0.000586	20.715701
1803.505533	-3.001700	3.361600	-10.089000	26.078311	0.000585	20.710952
1804.504324	-2.976100	3.362400	-10.006000	26.084942	0.000584	20.709554
1805.504654	-2.979900	3.361900	-10.017000	26.064845	0.000583	20.720182
1806.507309	-3.014900	3.360500	-10.130000	26.054862	0.000583	20.703038
1807.505470	-3.003800	3.361600	-10.097000	26.088433	0.000583	20.707846
1808.506522	-3.024800	3.360700	-10.164000	26.081949	0.000581	20.705123
1809.508438	-2.993100	3.360100	-10.056000	26.077921	0.000583	20.702974
1810.506397	-2.986900	3.360600	-10.036000	26.076229	0.000581	20.709809
1811.508667	-2.983500	3.359500	-10.021000	26.131994	0.000584	20.701355
1812.512239	-2.992000	3.360400	-10.053000	26.109759	0.000580	20.696082
1813.507394	-3.001700	3.357800	-10.078000	26.101802	0.000581	20.699467
1814.509908	-2.990300	3.358400	-10.042000	26.072764	0.000577	20.711069
1815.510758	-2.983800	3.358900	-10.021000	26.033441	0.000578	20.708543
1816.509239	-3.016000	3.356600	-10.122000	26.009861	0.000576	20.715198
1817.508053	-2.997800	3.357300	-10.064000	25.989169	0.000578	20.673069
1818.510632	-2.975900	3.356700	-9.988200	26.017290	0.000576	20.701798
1819.506973	-3.018600	3.355300	-10.127000	26.035216	0.000577	20.710326
1820.508930	-3.001800	3.356500	-10.075000	26.024679	0.000574	20.702110
1821.514660	-2.989000	3.355700	-10.030000	26.063482	0.000576	20.698897
1822.509810	-2.996300	3.356400	-10.056000	26.083409	0.000575	20.685727
1823.511154	-3.004300	3.355400	-10.079000	26.108647	0.000573	20.719623
1824.515280	-2.992700	3.355800	-10.042000	26.082815	0.000573	20.696985
1825.512936	-2.990900	3.354200	-10.031000	26.056950	0.000574	20.713672
1826.513314	-3.022400	3.353700	-10.135000	26.082653	0.000572	20.694925
1827.518449	-2.991700	3.355500	-10.037000	26.087072	0.000573	20.697468
1828.512618	-2.996900	3.353400	-10.049000	26.102270	0.000572	20.707050
1829.511914	-2.999000	3.354300	-10.059000	26.055405	0.000571	20.695997
1830.514942	-3.001500	3.353100	-10.064000	26.026309	0.000570	20.715129
1831.512681	-2.997500	3.352800	-10.049000	26.053925	0.000572	20.703994
1832.513746	-2.995400	3.351900	-10.038000	26.050727	0.000571	20.713583
1833.517564	-2.993500	3.352400	-10.034000	26.080474	0.000570	20.700323
1834.515295	-3.010000	3.351300	-10.086000	26.099172	0.000567	20.685918
1835.515322	-3.003900	3.351700	-10.068000	26.087277	0.000568	20.701942
1836.518321	-3.010700	3.350200	-10.085000	26.131505	0.000567	20.699441
1837.513859	-2.984300	3.350100	-9.997000	26.134507	0.000566	20.682067
1838.515413	-3.003100	3.349300	-10.057000	26.131319	0.000564	20.689296
1839.514202	-2.983200	3.350000	-9.993200	26.153847	0.000566	20.698657
1840.516227	-2.991700	3.350600	-10.022000	26.147045	0.000566	20.687554
1841.514937	-3.000200	3.349000	-10.047000	26.136566	0.000565	20.689826
1842.515858	-2.998900	3.348400	-10.040000	26.113020	0.000565	20.679917
1843.517817	-3.003500	3.349300	-10.059000	26.134346	0.000563	20.693286
1844.518451	-2.992300	3.349800	-10.022000	26.143840	0.000563	20.693342
1845.516223	-3.009200	3.348700	-10.076000	26.139991	0.000562	20.716030
1846.517087	-2.993300	3.348600	-10.023000	26.177685	0.000561	20.668553
1847.517603	-2.992900	3.348300	-10.020000	26.216181	0.000561	20.673099
1848.517077	-2.986500	3.346900	-9.994200	26.236844	0.000560	20.687701
1849.515983	-3.014000	3.346100	-10.084000	26.229921	0.000562	20.690701
1850.516303	-2.990000	3.347700	-10.009000	26.228009	0.000560	20.679296
1851.516577	-2.999800	3.346600	-10.038000	26.165944	0.000560	20.698485
1852.516730	-3.018100	3.345500	-10.096000	26.141431	0.000560	20.675748
1853.517299	-3.001500	3.345700	-10.041000	26.142920	0.000558	20.677244
1854.517181	-2.960200	3.347800	-9.908600	26.134304	0.000558	20.704625
1855.518920	-2.989600	3.344800	-9.997600	26.149111	0.000560	20.694372
1856.516057	-2.999500	3.344600	-10.031000	26.124663	0.000558	20.702050
1857.517377	-2.996300	3.344700	-10.021000	26.119375	0.000559	20.681561
1858.517685	-3.006700	3.344400	-10.055000	26.150675	0.000559	20.695470
1859.517020	-2.999500	3.344300	-10.029000	26.143279	0.000557	20.686141
1860.517528	-3.026600	3.342700	-10.116000	26.166988	0.000557	20.699059
1861.521093	-3.013100	3.341600	-10.068000	26.178736	0.000557	20.671506
1862.519805	-2.979300	3.342600	-9.957000	26.190207	0.000556	20.692044
1863.520031	-2.990500	3.342500	-9.995000	26.195756	0.000556	20.677705
1864.520015	-2.981700	3.343300	-9.967200	26.176997	0.000555	20.687305
1865.521389	-3.003800	3.342200	-10.038000	26.211044	0.000555	20.667462
1866.520882	-2.991400	3.342400	-9.997600	26.203015	0.000554	20.706338
1867.520723	-3.022000	3.340600	-10.094000	26.217309	0.000550	20.678975
1868.521448	-3.024500	3.340200	-10.101000	26.246409	0.000550	20.679769
1869.523099	-3.009800	3.340900	-10.054000	26.255944	0.000550	20.690773
1870.522125	-3.007100	3.340700	-10.045000	26.250421	0.000551	20.693758
1871.524249	-3.018500	3.339300	-10.079000	26.276787	0.000549	20.687063
1872.522618	-2.992300	3.339900	-9.992000	26.273680	0.000549	20.684414
1873.525874	-3.016100	3.339800	-10.072000	26.216483	0.000550	20.682886
1874.525654	-3.011800	3.339900	-10.058000	26.177245	0.000550	20.683287
1875.523948	-3.014000	3.339300	-10.064000	26.173439	0.000548	20.684677
1876.524588	-2.980100	3.338900	-9.949500	26.191509	0.000548	20.691456
1877.526077	-3.006700	3.337300	-10.034000	26.196308	0.000547	20.676363
1878.524255	-3.014000	3.337500	-10.059000	26.210432	0.000549	20.685815
1879.526646	-2.967400	3.338200	-9.904700	26.237921	0.000545	20.674082
1880.526598	-2.994800	3.337500	-9.993800	26.248196	0.000546	20.681564
1881.526096	-2.985100	3.337000	-9.960000	26.258649	0.000545	20.691596
1882.526330	-2.979900	3.337100	-9.943400	26.236270	0.000545	20.695660
1883.525757	-3.000100	3.336500	-10.009000	26.201297	0.000543	20.687067
1884.524346	-3.005500	3.335900	-10.024000	26.185677	0.000545	20.673266
1885.527793	-3.008300	3.333900	-10.028000	26.145593	0.000542	20.701269
1886.525210	-3.003500	3.335100	-10.016000	26.109835	0.000540	20.650635
1887.525550	-3.004500	3.334100	-10.017000	26.085321	0.000542	20.674370
1888.527246	-2.986600	3.335400	-9.960300	26.096191	0.000542	20.677232
1889.526175	-3.016900	3.334400	-10.059000	26.108957	0.000543	20.678679
1890.525587	-3.016200	3.332900	-10.052000	26.118094	0.000541	20.685964
1891.525020	-3.018200	3.334100	-10.061000	26.141639	0.000540	20.697770
1892.525818	-3.025200	3.331700	-10.077000	26.174345	0.000541	20.701711
1893.526685	-2.995600	3.333700	-9.985200	26.151021	0.000539	20.687281
1894.525643	-3.007800	3.331300	-10.020000	26.113766	0.000540	20.692522
1895.526001	-3.029400	3.330900	-10.089000	26.088291	0.000538	20.670716
1896.525659	-3.002600	3.330900	-10.000000	26.070603	0.000539	20.688507
1897.527265	-3.006200	3.331400	-10.014000	26.071263	0.000538	20.679212
1898.526303	-3.017800	3.328800	-10.044000	26.070026	0.000538	20.677969
1899.526366	-3.009000	3.330400	-10.020000	26.146571	0.000540	20.671903
1900.528811	-3.002000	3.329600	-9.994800	26.165137	0.000538	20.678706
1901.528144	-3.005000	3.329900	-10.006000	26.200397	0.000538	20.686163
1902.529069	-2.990300	3.329300	-9.954300	26.217188	0.000539	20.676957
1903.531271	-3.005800	3.328500	-10.003000	26.205084	0.000538	20.682337
1904.530274	-2.987300	3.328500	-9.941700	26.239204	0.000538	20.672052
1905.528294	-2.983800	3.329500	-9.933400	26.230077	0.000537	20.675210
1906.530502	-3.006000	3.328000	-10.002000	26.248251	0.000537	20.664074
1907.527749	-2.980400	3.327900	-9.917000	26.243274	0.000536	20.691317
1908.529386	-3.003900	3.328000	-9.996100	26.262912	0.000534	20.684025
1909.533289	-3.015300	3.325400	-10.025000	26.232180	0.000537	20.716206
1910.530439	-2.986500	3.326700	-9.934000	26.238086	0.000536	20.687526
1911.530075	-2.997900	3.326600	-9.972100	26.242814	0.000534	20.724997
1912.531615	-2.999900	3.326500	-9.978000	26.260467	0.000533	20.695320
1913.530663	-2.983400	3.327200	-9.924900	26.240563	0.000534	20.693335
1914.530506	-3.000500	3.326300	-9.978400	26.258614	0.000536	20.702467
1915.531306	-3.026100	3.324400	-10.058000	26.263555	0.000533	20.697475
1916.531318	-3.039000	3.323200	-10.098000	26.275172	0.000533	20.679750
1917.531902	-2.985400	3.325100	-9.925300	26.264851	0.000532	20.709209
1918.534849	-3.011500	3.323500	-10.008000	26.303273	0.000532	20.706096
1919.531249	-3.021900	3.322600	-10.040000	26.290943	0.000530	20.703661
1920.531558	-2.987600	3.323300	-9.926600	26.288366	0.000530	20.705814
1921.532512	-3.016800	3.323300	-10.025000	26.250029	0.000531	20.710435
1922.531776	-2.993000	3.322800	-9.943400	26.199412	0.000528	20.707934
1923.532305	-2.988500	3.322600	-9.927600	26.149349	0.000527	20.722114
1924.535203	-3.019400	3.321700	-10.029000	26.162847	0.000526	20.704856
1925.532981	-2.989700	3.322900	-9.933600	26.165615	0.000527	20.712854
1926.532528	-3.014200	3.320500	-10.006000	26.139860	0.000527	20.716847
1927.534173	-2.989100	3.320600	-9.924300	26.111369	0.000525	20.710977
1928.531851	-2.989700	3.321600	-9.929800	26.126699	0.000525	20.716424
1929.532837	-2.990500	3.320500	-9.929400	26.101633	0.000524	20.714946
1930.533649	-3.000200	3.319700	-9.958700	26.113668	0.000522	20.705226
1931.533143	-2.999600	3.320200	-9.958100	26.160573	0.000521	20.742402
1932.534419	-3.018000	3.318600	-10.015000	26.146304	0.000521	20.728538
1933.536352	-3.000900	3.318700	-9.956400	26.173560	0.000523	20.706138
1934.536214	-2.986800	3.319900	-9.915100	26.177286	0.000520	20.716047
1935.534939	-2.982000	3.318900	-9.895600	26.192592	0.000518	20.730005
1936.534788	-3.010900	3.317000	-9.986000	26.215877	0.000519	20.731119
1937.533350	-3.002600	3.317600	-9.959800	26.233377	0.000518	20.733531
1938.534562	-2.995600	3.317500	-9.936400	26.262980	0.000517	20.726770
1939.535243	-3.011100	3.317500	-9.988300	26.283855	0.000517	20.717876
1940.536264	-3.015300	3.316300	-9.998700	26.339447	0.000516	20.725382
1941.534563	-3.018200	3.316100	-10.007000	26.334299	0.000515	20.739176
1942.536287	-3.000900	3.316900	-9.952800	26.348705	0.000515	20.728048
1943.535924	-3.007200	3.315800	-9.969500	26.360744	0.000516	20.715017
1944.535414	-2.993100	3.316000	-9.923700	26.361876	0.000514	20.728958
1945.537851	-3.011600	3.314400	-9.980100	26.328306	0.000513	20.717029
1946.535304	-2.997200	3.315400	-9.935800	26.352978	0.000513	20.737085
1947.537800	-3.004500	3.314900	-9.957900	26.370036	0.000511	20.716295
1948.538018	-3.020300	3.312900	-10.005000	26.383686	0.000512	20.719108
1949.536873	-3.016100	3.314000	-9.995000	26.364270	0.000511	20.735631
1950.537492	-3.039800	3.312500	-10.069000	26.382742	0.000511	20.745662
1951.538658	-2.991200	3.313100	-9.909400	26.346586	0.000511	20.738248
1952.538797	-3.006900	3.313600	-9.962100	26.314651	0.000513	20.733179
1953.537555	-3.003900	3.312800	-9.949900	26.314302	0.000509	20.727612
1954.538940	-2.967500	3.314800	-9.836000	26.310307	0.000509	20.728813
1955.537445	-2.977000	3.311600	-9.857600	26.320907	0.000509	20.735199
1956.538765	-3.016000	3.310200	-9.982400	26.323364	0.000508	20.731978
1957.540638	-2.996900	3.310500	-9.919900	26.356406	0.000508	20.758549
1958.537024	-2.997600	3.310500	-9.921900	26.340512	0.000507	20.733565
1959.536840	-3.014000	3.309200	-9.972700	26.325366	0.000506	20.743474
1960.538355	-2.968200	3.312000	-9.829700	26.302891	0.000506	20.729895
1961.536357	-3.015100	3.311000	-9.982100	26.316818	0.000506	20.750056
1962.549847	-2.974900	3.309500	-9.843800	26.317443	0.000505	20.731718
1963.540635	-2.992100	3.310100	-9.902600	26.296449	0.000504	20.742863
1964.538160	-3.005400	3.309100	-9.943800	26.314029	0.000504	20.737295
1965.539659	-2.984100	3.310100	-9.876600	26.278496	0.000502	20.758012
1966.543115	-2.991400	3.310700	-9.901900	26.256565	0.000503	20.733600
1967.538217	-2.995200	3.309100	-9.909800	26.270622	0.000502	20.751046
1968.538938	-3.005900	3.307400	-9.940900	26.290805	0.000501	20.749993
1969.542428	-3.004300	3.308200	-9.937900	26.276203	0.000503	20.734844
1970.537735	-2.994500	3.307300	-9.902800	26.260633	0.000499	20.747646
1971.539426	-3.021300	3.305800	-9.987100	26.302373	0.000502	20.752135
1972.544307	-3.016600	3.306100	-9.971700	26.344234	0.000499	20.753902
1973.539366	-3.003700	3.305200	-9.925400	26.390168	0.000498	20.751703
1974.539138	-2.996500	3.305900	-9.904700	26.378974	0.000498	20.769851
1975.545055	-2.999600	3.306800	-9.917600	26.346967	0.000498	20.752855
1976.541293	-3.006400	3.304000	-9.931200	26.313193	0.000497	20.754000
1977.540005	-2.998100	3.305300	-9.907700	26.341134	0.000497	20.740355
1978.546298	-3.015300	3.304600	-9.963300	26.355312	0.000496	20.760769
1979.544077	-3.001700	3.304900	-9.919100	26.345569	0.000494	20.746708
1980.542729	-2.999400	3.304300	-9.910300	26.366229	0.000493	20.764154
1981.545979	-2.987900	3.305200	-9.874800	26.378275	0.000495	20.745440
1982.545430	-3.023600	3.302700	-9.984900	26.431578	0.000493	20.733579
1983.544410	-3.011400	3.301800	-9.942300	26.422939	0.000495	20.745760
1984.544607	-3.001800	3.302600	-9.912800	26.428772	0.000494	20.743087
1985.546070	-2.999800	3.301900	-9.904500	26.449658	0.000492	20.756968
1986.544322	-3.005800	3.301600	-9.922800	26.444217	0.000491	20.752448
1987.551334	-2.990700	3.301700	-9.874000	26.455661	0.000492	20.744035
1988.546937	-2.998300	3.300400	-9.894800	26.432748	0.000490	20.768896
1989.545908	-3.003700	3.300000	-9.910300	26.460183	0.000489	20.749055
1990.549519	-2.990100	3.299800	-9.865300	26.472497	0.000489	20.751949
1991.546914	-3.001500	3.300100	-9.904600	26.494986	0.000489	20.765545
1992.547408	-2.990400	3.300200	-9.867400	26.528422	0.000488	20.778765
1993.558146	-3.009500	3.297900	-9.923900	26.530309	0.000487	20.748893
1994.548970	-2.998000	3.298900	-9.888800	26.500119	0.000487	20.772601
1995.554255	-2.992300	3.298900	-9.870600	26.471026	0.000487	20.755686
1996.553694	-3.012000	3.297700	-9.932100	26.448651	0.000487	20.741731
1997.549363	-3.010900	3.297500	-9.927200	26.439737	0.000487	20.753635
1998.549768	-2.985400	3.297700	-9.842700	26.404803	0.000485	20.764990
1999.552464	-2.971900	3.297600	-9.799000	26.422429	0.000484	20.743825
2000.550273	-3.007300	3.296500	-9.912800	26.460885	0.000484	20.748338
2001.550849	-2.985600	3.296200	-9.840800	26.458631	0.000484	20.751763
2002.549233	-3.009500	3.296100	-9.918800	26.483210	0.000484	20.781684
2003.549091	-2.997900	3.296700	-9.882300	26.482567	0.000482	20.764442
2004.549634	-3.019300	3.294400	-9.946100	26.460518	0.000482	20.774997
2005.557364	-2.964900	3.297100	-9.775000	26.420891	0.000481	20.777368
2006.551075	-3.018000	3.294200	-9.940900	26.425211	0.000479	20.753259
2007.551764	-2.977000	3.294000	-9.804800	26.459152	0.000479	20.774572
2008.558641	-3.005100	3.292600	-9.893800	26.497264	0.000478	20.767361
2009.553184	-2.996700	3.292900	-9.866900	26.503079	0.000478	20.769412
2010.562193	-2.992900	3.295000	-9.860000	26.548160	0.000477	20.765889
2011.556663	-3.015000	3.292500	-9.925200	26.548265	0.000477	20.775004
2012.552939	-3.006300	3.291100	-9.892100	26.574184	0.000476	20.742262
2013.554037	-2.991500	3.292500	-9.848800	26.604218	0.000475	20.761548
2014.553032	-2.995200	3.291500	-9.858300	26.611950	0.000474	20.769795
2015.553878	-3.009400	3.290600	-9.900100	26.614633	0.000476	20.766803
2016.554365	-3.000600	3.290900	-9.873600	26.625066	0.000476	20.771126
2017.558125	-2.984900	3.291500	-9.823700	26.621708	0.000474	20.796201
2018.553609	-2.977900	3.291000	-9.799500	26.632759	0.000473	20.763687
2019.553352	-2.985500	3.289900	-9.820400	26.573181	0.000473	20.767807
2020.553903	-2.996800	3.289800	-9.858100	26.589935	0.000472	20.789390
2021.554917	-2.999400	3.288900	-9.864700	26.579093	0.000471	20.797458
2022.554950	-3.003700	3.288300	-9.875700	26.570522	0.000471	20.781256
2023.554865	-3.014400	3.288500	-9.913100	26.615070	0.000470	20.767716
2024.554018	-2.976000	3.289300	-9.787000	26.648289	0.000470	20.775981
2025.554470	-2.982200	3.288500	-9.805600	26.656471	0.000469	20.775197
2026.557353	-2.993700	3.288100	-9.842300	26.666439	0.000468	20.769097
2027.553995	-2.988200	3.287800	-9.823200	26.683020	0.000468	20.771541
2028.555919	-3.015800	3.286300	-9.910200	26.681563	0.000468	20.773396
2029.559544	-2.980100	3.287500	-9.796600	26.636375	0.000468	20.782022
2030.555639	-3.010600	3.286400	-9.893100	26.619004	0.000466	20.797750
2031.556235	-3.012100	3.284800	-9.892400	26.623298	0.000468	20.784523
2032.558160	-3.006300	3.285700	-9.876900	26.614246	0.000465	20.797708
2033.557446	-2.993000	3.284800	-9.830800	26.632941	0.000466	20.795165
2034.557730	-3.006800	3.285900	-9.879000	26.682660	0.000464	20.789672
2035.559458	-2.997400	3.284200	-9.841700	26.680187	0.000462	20.766796
2036.558502	-3.015800	3.283600	-9.901900	26.649750	0.000462	20.786932
2037.559205	-2.986400	3.283600	-9.805100	26.669503	0.000465	20.788298
2038.561193	-3.010200	3.282600	-9.880400	26.684107	0.000466	20.765995
2039.562434	-3.012400	3.283100	-9.889200	26.670835	0.000460	20.799594
2040.563183	-2.985100	3.283800	-9.801100	26.669877	0.000462	20.787252
2041.563868	-3.017200	3.281500	-9.900100	26.658124	0.000462	20.789187
2042.561454	-2.993000	3.282600	-9.823900	26.682870	0.000461	20.782770
2043.574526	-2.987500	3.283100	-9.806600	26.717478	0.000458	20.793381
2044.562946	-3.000800	3.281400	-9.846200	26.727878	0.000457	20.781552
2045.561367	-3.025900	3.280100	-9.922700	26.758973	0.000458	20.800012
2046.561322	-2.994700	3.281600	-9.826700	26.794025	0.000459	20.813443
2047.563636	-3.017200	3.279100	-9.892900	26.805098	0.000457	20.807033
2048.562422	-3.018400	3.279300	-9.897200	26.808448	0.000458	20.771046
2049.561864	-2.995400	3.280400	-9.823800	26.806506	0.000455	20.789482
2050.564673	-2.985100	3.280100	-9.789400	26.794846	0.000456	20.796251
2051.563886	-2.997900	3.278100	-9.826500	26.761020	0.000455	20.792113
2052.563689	-2.993000	3.278900	-9.812600	26.784153	0.000455	20.808733
2053.564418	-3.008800	3.277200	-9.858800	26.759759	0.000452	20.776146
2054.562717	-3.003200	3.278700	-9.844700	26.773491	0.000455	20.792324
2055.563632	-2.995100	3.278000	-9.816100	26.796250	0.000453	20.794344
2056.565038	-3.025400	3.276100	-9.910500	26.804243	0.000452	20.789103
2057.564549	-3.001700	3.276900	-9.835400	26.827033	0.000450	20.800164
2058.565274	-2.972700	3.277600	-9.742000	26.816284	0.000451	20.808322
2059.568778	-3.005900	3.275500	-9.844800	26.820382	0.000450	20.803908
2060.565423	-3.008000	3.275200	-9.850700	26.792258	0.000449	20.826839
2061.565316	-2.995600	3.276100	-9.812800	26.777198	0.000448	20.809327
2062.568560	-2.992200	3.275800	-9.801000	26.767888	0.000447	20.807553
2063.566298	-3.004900	3.273600	-9.836000	26.773872	0.000447	20.818311
2064.565726	-2.980700	3.275900	-9.764000	26.740462	0.000447	20.796574
2065.569346	-2.999500	3.273900	-9.818500	26.744787	0.000444	20.829371
2066.566434	-3.021300	3.272500	-9.886200	26.738467	0.000444	20.801681
2067.565890	-3.010700	3.272600	-9.852400	26.742541	0.000444	20.797242
2068.567102	-3.018800	3.272300	-9.877600	26.756657	0.000443	20.813331
2069.565478	-3.013500	3.272400	-9.859700	26.724448	0.000443	20.820303
2070.563853	-3.005400	3.271800	-9.831600	26.734279	0.000442	20.807901
2071.570198	-2.996600	3.271600	-9.803000	26.771731	0.000442	20.789606
2072.568735	-2.996900	3.270900	-9.801900	26.789708	0.000441	20.809103
2073.570906	-3.008900	3.270100	-9.838200	26.807311	0.000443	20.813051
2074.573615	-3.006900	3.271400	-9.834600	26.815359	0.000441	20.827307
2075.568705	-3.004200	3.271000	-9.825600	26.820180	0.000441	20.809869
2076.568810	-2.983600	3.270600	-9.756200	26.796552	0.000439	20.803656
2077.571542	-3.011800	3.269000	-9.844000	26.804740	0.000440	20.827061
2078.571443	-3.017700	3.268900	-9.863300	26.778030	0.000440	20.800207
2079.570547	-2.991500	3.268800	-9.778000	26.790648	0.000440	20.810522
2080.570632	-2.991500	3.269600	-9.780200	26.820033	0.000439	20.814463
2081.569382	-2.982800	3.268600	-9.749000	26.826562	0.000439	20.829088
2082.571045	-2.990900	3.267700	-9.771900	26.848474	0.000439	20.817929
2083.571419	-3.002900	3.267700	-9.811300	26.877289	0.000437	20.809444
2084.571353	-2.992000	3.268100	-9.778000	26.914810	0.000437	20.814456
2085.572336	-2.989300	3.267700	-9.766600	26.890974	0.000437	20.814670
2086.574502	-3.010100	3.266400	-9.830400	26.868615	0.000437	20.817792
2087.574467	-2.987000	3.267200	-9.758100	26.870568	0.000437	20.810746
2088.574201	-2.998900	3.265600	-9.792400	26.879422	0.000436	20.830081
2089.582458	-2.981100	3.267400	-9.738900	26.877700	0.000435	20.835935
2090.574087	-3.010200	3.266100	-9.830200	26.886694	0.000433	20.816530
2091.574988	-3.012000	3.263000	-9.825800	26.901532	0.000434	20.819122
2092.576652	-3.000100	3.264000	-9.790800	26.915493	0.000432	20.821781
2093.574487	-3.012400	3.264600	-9.833100	26.932185	0.000433	20.832401
2094.574275	-2.995500	3.263600	-9.775100	26.916114	0.000433	20.824302
2095.575811	-3.002100	3.262500	-9.793000	26.929132	0.000430	20.819849
2096.576363	-2.975000	3.265000	-9.712000	26.937085	0.000429	20.823104
2097.573813	-2.992900	3.263200	-9.766100	26.903176	0.000428	20.837845
2098.576956	-3.002400	3.262100	-9.792600	26.886787	0.000430	20.830848
2099.577601	-3.005300	3.261900	-9.802100	26.892652	0.000429	20.828685
2100.575912	-3.007300	3.261900	-9.808600	26.914604	0.000428	20.864982
2101.577216	-2.999200	3.260800	-9.778700	26.906159	0.000427	20.830887
2102.575023	-3.036900	3.259200	-9.895300	26.866884	0.000426	20.836439
2103.575435	-3.009100	3.260200	-9.809900	26.876528	0.000424	20.837127
2104.579483	-3.005800	3.259200	-9.795500	26.854448	0.000425	20.844798
2105.576546	-3.000500	3.259500	-9.779100	26.816048	0.000422	20.834637
2106.575066	-3.012500	3.258800	-9.815600	26.842662	0.000423	20.838163
2107.578267	-3.000000	3.260100	-9.779800	26.842736	0.000421	20.837763
2108.577840	-3.005300	3.258100	-9.791200	26.782586	0.000421	20.843667
2109.576662	-3.019400	3.257500	-9.834300	26.724019	0.000422	20.824139
2110.579384	-3.029800	3.256400	-9.864500	26.669376	0.000420	20.834637
2111.576902	-3.000800	3.257600	-9.773700	26.655918	0.000417	20.837703
2112.577311	-2.990600	3.259200	-9.744400	26.672363	0.000416	20.821993
2113.577614	-3.004100	3.255800	-9.779200	26.675535	0.000417	20.838932
2114.578953	-2.995700	3.257400	-9.756600	26.682261	0.000414	20.834788
2115.576118	-2.992400	3.255600	-9.740900	26.712414	0.000416	20.852774
2116.579098	-2.997600	3.255200	-9.756700	26.765350	0.000415	20.814959
2117.578170	-3.009000	3.256100	-9.796500	26.789720	0.000413	20.831873
2118.579561	-3.000300	3.255000	-9.764700	26.818413	0.000413	20.803351
2119.579327	-3.005900	3.255500	-9.785100	26.766500	0.000413	20.827968
2120.579154	-2.991900	3.254400	-9.735600	26.798145	0.000412	20.820431
2121.580577	-3.010700	3.253600	-9.795200	26.797667	0.000412	20.843656
2122.582323	-2.979500	3.254100	-9.693100	26.821368	0.000408	20.825288
2123.579772	-2.998800	3.252000	-9.751500	26.820369	0.000409	20.829499
2124.579620	-2.993900	3.253200	-9.739000	26.840598	0.000408	20.828976
2125.581793	-3.013000	3.252000	-9.796800	26.860006	0.000407	20.815774
2126.579622	-3.012400	3.250100	-9.788800	26.873957	0.000408	20.820318
2127.582454	-2.998600	3.251300	-9.747500	26.849558	0.000406	20.801475
2128.586339	-2.997400	3.250600	-9.742800	26.858242	0.000405	20.824431
2129.581935	-3.020700	3.248400	-9.811100	26.857470	0.000405	20.818439
2130.582591	-3.008000	3.249500	-9.772300	26.857770	0.000405	20.796456
2131.586274	-3.029800	3.248700	-9.841200	26.890283	0.000403	20.799277
2132.586977	-3.007500	3.249500	-9.771700	26.915397	0.000404	20.798926
2133.583109	-2.984700	3.250100	-9.699600	26.916016	0.000403	20.815668
2134.589142	-2.996900	3.249100	-9.735900	26.903064	0.000403	20.806438
2135.587635	-3.017100	3.247800	-9.797600	26.892585	0.000403	20.816290
2136.583971	-2.999300	3.248100	-9.741800	26.904632	0.000401	20.804222
2137.589318	-3.003600	3.246600	-9.750300	26.930731	0.000402	20.793956
2138.586998	-2.996200	3.246800	-9.726900	26.952274	0.000400	20.796179
2139.584529	-2.989300	3.246800	-9.704800	26.952348	0.000400	20.789615
2140.588279	-2.974800	3.245900	-9.653800	26.970370	0.000399	20.799203
2141.588409	-3.020200	3.244100	-9.796800	26.990921	0.000397	20.800903
2142.586453	-3.017700	3.244800	-9.790400	27.005953	0.000396	20.793734
2143.588026	-3.013500	3.244900	-9.776900	27.036649	0.000397	20.806586
2144.585310	-2.995100	3.245400	-9.719800	27.013033	0.000394	20.795638
2145.585278	-2.981700	3.244500	-9.673500	26.989660	0.000396	20.808644
2146.586332	-2.990200	3.243900	-9.699200	26.939753	0.000394	20.802079
2147.586728	-2.983800	3.244400	-9.678100	26.939159	0.000391	20.787732
2148.584706	-2.999800	3.245600	-9.734500	26.961890	0.000392	20.791149
2149.586431	-2.998800	3.242400	-9.722300	26.944003	0.000393	20.778379
2150.587106	-2.965500	3.244300	-9.619900	26.936655	0.000392	20.796593
2151.586526	-2.968900	3.242400	-9.625200	26.977156	0.000390	20.791328
2152.587897	-3.023200	3.239900	-9.792500	27.007057	0.000390	20.784887
2153.587572	-3.019100	3.239500	-9.779700	27.016972	0.000389	20.784901
2154.587960	-2.997600	3.240900	-9.714300	27.014468	0.000387	20.777167
2155.588958	-3.009500	3.239100	-9.746600	27.034148	0.000388	20.781785
2156.592411	-3.000000	3.239800	-9.718000	27.057844	0.000387	20.774322
2157.591402	-3.017400	3.239600	-9.773800	27.062144	0.000386	20.777697
2158.590323	-2.997400	3.239500	-9.708800	27.026716	0.000386	20.772889
2159.591704	-3.017300	3.238700	-9.771400	27.036642	0.000386	20.790457
2160.590919	-3.004800	3.235900	-9.723000	27.059996	0.000385	20.782175
2161.593104	-3.002200	3.237500	-9.718500	27.051785	0.000384	20.782453
2162.591038	-2.966800	3.238700	-9.606500	27.090697	0.000382	20.769903
2163.593922	-2.976600	3.237800	-9.636300	27.074992	0.000384	20.773549
2164.591448	-3.019900	3.235300	-9.768500	27.109360	0.000381	20.772552
2165.593289	-3.000000	3.234900	-9.704300	27.104774	0.000379	20.772681
2166.594553	-2.986300	3.235800	-9.661200	27.076469	0.000381	20.770767
2167.592360	-2.986100	3.236700	-9.664400	27.046815	0.000381	20.780774
2168.595586	-2.999900	3.235600	-9.705800	26.989642	0.000380	20.755520
2169.593101	-3.013300	3.234900	-9.746700	26.930385	0.000381	20.759942
2170.592334	-3.012500	3.234300	-9.741300	26.965578	0.000381	20.782056
2171.593096	-3.026600	3.232700	-9.783500	26.949001	0.000377	20.757325
2172.596030	-2.988100	3.233800	-9.661200	26.928034	0.000380	20.777967
2173.591906	-3.028200	3.231900	-9.786100	26.921873	0.000379	20.740002
2174.594254	-3.022300	3.232400	-9.768000	26.950587	0.000377	20.788318
2175.592959	-2.988300	3.231800	-9.657100	26.984854	0.000374	20.765878
2176.592560	-3.004600	3.231300	-9.707400	26.978131	0.000376	20.758168
2177.597751	-2.983500	3.230200	-9.635900	26.963905	0.000376	20.761407
2178.594682	-2.995900	3.230800	-9.678200	26.909955	0.000374	20.755046
2179.595807	-2.990700	3.228400	-9.654000	26.907039	0.000373	20.755907
2180.595509	-2.974100	3.230000	-9.605000	26.923193	0.000373	20.766935
2181.598802	-3.007400	3.229100	-9.710500	26.930650	0.000373	20.751200
2182.598691	-3.006000	3.229300	-9.704400	26.959836	0.000373	20.781972
2183.598950	-3.016900	3.227600	-9.736400	26.973227	0.000373	20.767462
2184.598639	-3.019000	3.227800	-9.743900	27.029671	0.000371	20.762109
2185.598647	-3.000400	3.227300	-9.680800	27.036509	0.000370	20.761874
2186.599164	-3.009200	3.226200	-9.707500	27.059734	0.000371	20.759626
2187.597845	-2.999300	3.226100	-9.674900	27.098509	0.000370	20.775864
2188.602199	-2.979000	3.226400	-9.610100	27.085368	0.000368	20.747948
2189.599776	-3.001600	3.225700	-9.681000	27.041888	0.000368	20.763490
2190.601521	-3.012700	3.225300	-9.715500	26.995895	0.000367	20.761808
2191.602221	-2.995600	3.225600	-9.660600	26.981687	0.000366	20.768383
2192.600166	-2.990200	3.225100	-9.643200	26.976549	0.000366	20.756104
2193.602684	-2.998600	3.224700	-9.668600	26.995347	0.000364	20.744661
2194.600650	-2.999400	3.223100	-9.666200	27.002241	0.000365	20.769613
2195.604184	-2.984400	3.224800	-9.622200	27.029330	0.000363	20.758921
2196.601191	-2.996500	3.222300	-9.654600	27.031429	0.000362	20.763877
2197.601304	-2.987600	3.223400	-9.629200	27.030259	0.000363	20.775977
2198.603673	-2.998300	3.222000	-9.659300	26.992012	0.000361	20.756006
2199.604281	-2.997000	3.221000	-9.652800	26.995801	0.000360	20.773094
2200.602772	-3.013200	3.221300	-9.704800	26.995770	0.000361	20.748880
2201.604671	-3.008300	3.221000	-9.689000	27.001673	0.000360	20.773783
2202.604822	-2.983900	3.220600	-9.607200	27.025915	0.000357	20.766867
2203.605518	-2.974500	3.222200	-9.582600	27.061073	0.000358	20.775198
2204.605398	-2.999200	3.219600	-9.654700	27.065334	0.000359	20.752930
2205.604756	-3.007400	3.218900	-9.679100	27.064464	0.000357	20.767703
2206.607644	-3.017800	3.217300	-9.708400	27.090958	0.000357	20.775381
2207.605857	-2.990400	3.218300	-9.622100	27.104955	0.000356	20.754370
2208.606002	-2.995000	3.217000	-9.633900	27.092739	0.000356	20.761525
2209.611287	-2.997400	3.216200	-9.638800	27.110483	0.000352	20.766569
2210.606000	-3.003600	3.217400	-9.663000	27.131942	0.000354	20.760176
2211.607234	-3.002400	3.216800	-9.656600	27.092812	0.000354	20.762547
2212.606746	-2.995100	3.214900	-9.626900	27.117174	0.000351	20.738210
2213.606583	-3.019200	3.214400	-9.703700	27.146997	0.000352	20.755403
2214.609153	-3.017300	3.214800	-9.698800	27.162090	0.000349	20.771532
2215.605917	-3.002200	3.214600	-9.649700	27.161042	0.000351	20.769056
2216.609926	-3.020900	3.214400	-9.708100	27.178981	0.000350	20.781409
2217.607537	-3.010900	3.213200	-9.673600	27.209696	0.000348	20.743075
2218.608328	-2.982100	3.214900	-9.586500	27.212598	0.000347	20.754055
2219.610846	-2.998300	3.213200	-9.633400	27.220895	0.000349	20.768090
2220.614007	-2.978700	3.214200	-9.573900	27.242094	0.000345	20.762386
2221.607691	-3.037600	3.210300	-9.749500	27.284745	0.000345	20.770201
2222.609374	-2.991300	3.212500	-9.609000	27.305094	0.000345	20.751315
2223.610998	-3.023600	3.210500	-9.706000	27.298893	0.000344	20.761199
2224.611094	-3.012900	3.210500	-9.672000	27.312716	0.000341	20.752818
2225.613493	-3.002800	3.209600	-9.637000	27.335813	0.000341	20.765146
2226.610290	-2.983600	3.210800	-9.577400	27.371139	0.000341	20.744732
2227.615806	-2.996100	3.208400	-9.612100	27.371977	0.000340	20.743205
2228.611633	-2.994900	3.208900	-9.609400	27.342345	0.000340	20.744216
2229.611319	-2.975000	3.207800	-9.541300	27.362086	0.000341	20.756488
2230.613751	-2.990800	3.209700	-9.598500	27.365214	0.000339	20.753945
2231.612942	-3.014800	3.206600	-9.666400	27.412979	0.000338	20.728027
2232.612444	-3.006200	3.206500	-9.638600	27.435057	0.000338	20.772525
2233.612380	-3.001400	3.204900	-9.618000	27.415985	0.000339	20.757605
2234.612812	-2.994600	3.204700	-9.596000	27.411296	0.000337	20.750991
2235.614071	-2.991600	3.207700	-9.594700	27.414424	0.000336	20.753190
2236.617974	-3.000100	3.204900	-9.614200	27.437518	0.000336	20.758406
2237.613635	-2.978800	3.205900	-9.548400	27.441467	0.000337	20.742463
2238.615294	-2.993100	3.205300	-9.592900	27.387412	0.000335	20.734549
2239.615684	-3.003000	3.203200	-9.618600	27.336092	0.000334	20.740296
2240.613530	-2.976400	3.202800	-9.532400	27.310265	0.000334	20.759361
2241.618614	-3.003800	3.201400	-9.615800	27.277796	0.000333	20.754675
2242.615561	-3.007300	3.201000	-9.624700	27.281193	0.000333	20.740074
2243.616256	-3.007100	3.201000	-9.625000	27.268938	0.000333	20.737229
2244.614866	-3.000600	3.201300	-9.604900	27.267530	0.000328	20.734391
2245.615565	-3.017500	3.201000	-9.658400	27.268675	0.000332	20.731750
2246.617299	-3.014600	3.199600	-9.645200	27.284084	0.000330	20.744405
2247.614501	-3.009300	3.200400	-9.629800	27.275072	0.000328	20.732494
2248.615333	-3.004400	3.199200	-9.610700	27.245658	0.000327	20.741314
2249.616430	-2.985000	3.199000	-9.547300	27.263717	0.000328	20.713010
2250.614711	-2.988800	3.198700	-9.559300	27.296389	0.000325	20.742083
2251.618652	-2.976200	3.198300	-9.518000	27.286172	0.000327	20.733702
2252.617485	-3.005800	3.198300	-9.612200	27.338022	0.000324	20.737970
2253.614911	-2.977800	3.197300	-9.519100	27.365912	0.000326	20.723351
2254.617033	-2.994200	3.195500	-9.567300	27.325927	0.000324	20.723432
2255.617552	-2.989300	3.196300	-9.553300	27.252411	0.000323	20.718233
2256.615696	-3.004000	3.197200	-9.602500	27.237057	0.000325	20.729343
2257.619565	-3.012400	3.195700	-9.626200	27.211902	0.000323	20.706410
2258.617256	-3.010200	3.193900	-9.613300	27.245071	0.000320	20.721756
2259.621919	-3.009300	3.193600	-9.609900	27.270808	0.000322	20.744801
2260.616786	-2.995000	3.194900	-9.568500	27.260106	0.000320	20.742097
2261.617960	-3.020100	3.194000	-9.645500	27.277579	0.000320	20.735964
2262.621600	-3.016400	3.192800	-9.629600	27.333109	0.000320	20.737295
2263.624524	-2.996600	3.192100	-9.564000	27.314328	0.000319	20.726937
2264.622471	-2.982100	3.191200	-9.515500	27.329810	0.000318	20.724967
2265.620394	-2.992800	3.191700	-9.551100	27.309052	0.000318	20.715465
2266.621437	-3.007100	3.190200	-9.592100	27.299698	0.000319	20.716962
2267.622399	-2.978800	3.192500	-9.509400	27.312230	0.000317	20.721981
2268.625442	-2.990600	3.191600	-9.544100	27.337114	0.000316	20.724253
2269.620655	-3.006400	3.188100	-9.584100	27.344160	0.000315	20.710003
2270.627223	-2.983400	3.189700	-9.515500	27.385051	0.000314	20.719371
2271.623100	-2.993400	3.186500	-9.537700	27.418190	0.000315	20.711932
2272.622906	-3.023000	3.186800	-9.633300	27.426852	0.000313	20.691246
2273.624451	-3.021900	3.187100	-9.629900	27.435733	0.000313	20.717253
2274.624199	-3.011300	3.185900	-9.592400	27.374615	0.000315	20.711243
2275.624039	-2.991100	3.185400	-9.526100	27.364099	0.000310	20.696870
2276.623806	-2.995400	3.187900	-9.547900	27.378270	0.000309	20.694056
2277.624046	-2.992600	3.184100	-9.528100	27.409654	0.000309	20.707611
2278.629982	-3.004500	3.185200	-9.569300	27.444782	0.000310	20.707864
2279.625984	-3.003600	3.185700	-9.567900	27.423556	0.000309	20.709743
2280.630169	-3.021000	3.184100	-9.618300	27.424767	0.000306	20.702901
2281.627434	-3.005300	3.182200	-9.562000	27.438945	0.000307	20.691558
2282.627774	-2.991000	3.183700	-9.521800	27.450671	0.000306	20.711893
2283.627407	-2.976500	3.181300	-9.468300	27.445819	0.000305	20.687568
2284.630547	-2.979400	3.181700	-9.478100	27.470351	0.000305	20.693757
2285.627292	-2.996200	3.182400	-9.535000	27.467561	0.000305	20.696167
2286.627925	-2.987700	3.180200	-9.500300	27.473615	0.000305	20.695145
2287.627273	-2.983500	3.181300	-9.490000	27.506978	0.000304	20.710220
2288.627642	-2.994900	3.178700	-9.518800	27.516637	0.000303	20.699549
2289.632030	-2.984500	3.179000	-9.486700	27.529061	0.000301	20.704463
2290.628047	-2.988900	3.179900	-9.504100	27.544522	0.000302	20.677343
2291.630832	-3.006600	3.177700	-9.552800	27.538452	0.000300	20.700635
2292.630562	-2.996900	3.177700	-9.522200	27.513101	0.000299	20.698362
2293.629058	-2.993500	3.177100	-9.509700	27.466151	0.000302	20.678151
2294.638842	-3.003400	3.177100	-9.540900	27.474885	0.000301	20.696897
2295.628645	-2.994100	3.176200	-9.507700	27.493810	0.000299	20.703610
2296.627720	-3.013100	3.175800	-9.568300	27.528440	0.000300	20.680128
2297.627832	-3.001400	3.175300	-9.529100	27.519793	0.000298	20.687076
2298.629550	-3.004600	3.175500	-9.538900	27.522718	0.000300	20.692865
2299.631699	-3.006600	3.174300	-9.542700	27.543136	0.000297	20.689226
2300.629656	-2.988000	3.174800	-9.485300	27.569031	0.000296	20.689201
2301.628963	-2.995400	3.172700	-9.502300	27.573653	0.000295	20.670616
2302.629442	-2.986900	3.172600	-9.475500	27.593120	0.000296	20.667918
2303.628766	-2.987700	3.171700	-9.476000	27.582362	0.000293	20.679854
2304.630890	-2.989700	3.171100	-9.479000	27.584149	0.000294	20.682601
2305.632514	-3.016300	3.170100	-9.560700	27.551511	0.000293	20.677262
2306.632602	-3.003900	3.168400	-9.516800	27.537949	0.000292	20.683532
2307.633616	-2.990100	3.169700	-9.476700	27.519618	0.000293	20.684529
2308.633309	-3.001100	3.168400	-9.507700	27.513872	0.000293	20.669738
2309.633549	-3.032900	3.166200	-9.602100	27.519154	0.000293	20.663197
2310.634633	-3.003500	3.166700	-9.510000	27.482946	0.000291	20.654742
2311.636762	-2.973000	3.168700	-9.419600	27.471838	0.000291	20.673440
2312.632267	-3.010000	3.165700	-9.528000	27.493443	0.000290	20.696602
2313.633548	-2.987000	3.166400	-9.456500	27.536776	0.000289	20.667177
2314.634141	-2.989600	3.166100	-9.464600	27.510392	0.000288	20.684730
2315.634136	-2.985300	3.164000	-9.443300	27.474257	0.000287	20.677297
2316.635877	-2.989500	3.164100	-9.458100	27.460492	0.000286	20.659179
2317.635692	-2.998200	3.163500	-9.482300	27.453771	0.000287	20.684663
2318.641341	-2.997700	3.162500	-9.479100	27.465505	0.000286	20.659007
2319.634867	-3.008300	3.161300	-9.509200	27.436316	0.000284	20.658564
2320.635537	-3.012500	3.160600	-9.520500	27.460254	0.000287	20.660837
2321.637477	-2.980500	3.161700	-9.422800	27.478739	0.000285	20.658571
2322.637959	-3.015000	3.161000	-9.528400	27.456166	0.000286	20.662414
2323.634258	-3.009400	3.159900	-9.508300	27.405760	0.000285	20.659593
2324.635397	-2.999800	3.159000	-9.475300	27.372677	0.000285	20.669935
2325.636279	-2.999800	3.158400	-9.473800	27.335091	0.000285	20.653460
2326.636370	-2.997600	3.158700	-9.466000	27.335919	0.000282	20.660932
2327.639586	-3.020800	3.157100	-9.535700	27.351596	0.000283	20.648251
2328.637563	-3.007600	3.156900	-9.493800	27.359486	0.000282	20.664251
2329.639225	-2.982500	3.157200	-9.415400	27.357461	0.000281	20.668853
2330.639315	-2.990000	3.156400	-9.435900	27.352992	0.000280	20.652501
2331.638228	-2.983400	3.156900	-9.417300	27.337794	0.000278	20.642427
2332.651428	-2.989800	3.154900	-9.431400	27.311049	0.000279	20.656302
2333.640111	-3.006500	3.153900	-9.480800	27.339753	0.000279	20.666211
2334.643765	-3.002500	3.155700	-9.474100	27.348220	0.000280	20.663349
2335.640375	-3.001700	3.154500	-9.467200	27.323790	0.000277	20.664378
2336.641342	-3.005300	3.152000	-9.471700	27.307739	0.000277	20.673837
2337.646378	-2.996000	3.151600	-9.441500	27.338946	0.000276	20.654493
2338.646117	-2.997800	3.150700	-9.443500	27.363048	0.000276	20.648866
2339.645041	-2.993200	3.150200	-9.428400	27.352402	0.000277	20.657124
2340.643227	-3.006700	3.149100	-9.467800	27.297554	0.000276	20.653633
2341.642413	-2.999800	3.148400	-9.443600	27.258535	0.000275	20.660851
2342.642580	-2.990300	3.148900	-9.414800	27.257389	0.000275	20.654483
2343.646024	-2.998800	3.147500	-9.437000	27.214670	0.000274	20.647075
2344.642909	-2.978800	3.147700	-9.375100	27.253374	0.000275	20.669886
2345.657778	-3.001200	3.146800	-9.443500	27.293986	0.000274	20.639136
2346.642626	-3.005800	3.145700	-9.454100	27.317805	0.000272	20.650296
2347.643454	-3.002500	3.144800	-9.441400	27.329711	0.000273	20.634295
2348.647346	-2.968100	3.145900	-9.336700	27.367328	0.000274	20.647482
2349.643262	-3.004400	3.144000	-9.444700	27.421702	0.000273	20.646232
2350.643335	-3.008600	3.144600	-9.459200	27.464713	0.000272	20.648251
2351.643209	-2.992500	3.142800	-9.402800	27.537101	0.000271	20.648536
2352.648417	-2.989000	3.142900	-9.393000	27.535509	0.000271	20.649779
2353.642534	-3.004200	3.140100	-9.432300	27.551379	0.000270	20.651996
2354.645536	-3.009100	3.140900	-9.450600	27.604490	0.000270	20.634784
2355.643781	-3.012900	3.138400	-9.454200	27.605952	0.000269	20.651905
2356.646759	-2.985400	3.139800	-9.371600	27.591368	0.000270	20.649558
2357.644036	-2.997400	3.137800	-9.404700	27.609349	0.000270	20.637302
2358.642939	-3.000700	3.139500	-9.418400	27.641497	0.000267	20.644995
2359.644838	-3.009700	3.136700	-9.439000	27.672150	0.000267	20.657824
2360.643944	-3.032700	3.135600	-9.508100	27.699437	0.000265	20.644504
2361.643720	-3.013300	3.135000	-9.445800	27.727384	0.000263	20.642280
2362.644569	-2.987600	3.135400	-9.366800	27.720812	0.000265	20.638037
2363.645959	-2.984300	3.134200	-9.351800	27.728382	0.000265	20.636646
2364.646111	-2.990900	3.134000	-9.372700	27.739495	0.000265	20.635026
2365.646011	-3.002500	3.132700	-9.404000	27.725635	0.000267	20.636727
2366.645798	-3.029800	3.130500	-9.483400	27.704781	0.000265	20.655098
2367.645219	-2.966700	3.131800	-9.290100	27.635766	0.000267	20.643970
2368.644590	-3.014300	3.129800	-9.433200	27.600326	0.000263	20.637232
2369.646779	-3.006200	3.129700	-9.406700	27.576073	0.000265	20.640331
2370.644589	-2.981000	3.128500	-9.324900	27.584880	0.000263	20.636390
2371.645500	-2.999700	3.128100	-9.381700	27.602242	0.000262	20.647697
2372.646200	-2.998400	3.126700	-9.374500	27.619538	0.000262	20.641392
2373.646437	-3.018300	3.127100	-9.435700	27.693543	0.000261	20.642839
2374.648397	-3.035200	3.125700	-9.485500	27.705615	0.000261	20.648350
2375.650308	-3.033100	3.125400	-9.477500	27.735827	0.000261	20.639397
2376.648212	-3.024900	3.123700	-9.447900	27.748287	0.000259	20.642927
2377.649528	-3.008000	3.122700	-9.391300	27.766833	0.000261	20.651635
2378.648444	-2.999100	3.122300	-9.362800	27.759668	0.000262	20.646320
2379.648151	-3.009200	3.122600	-9.396500	27.744671	0.000260	20.653040
2380.647188	-2.994900	3.121600	-9.347300	27.784444	0.000259	20.655134
2381.650602	-2.977700	3.121700	-9.293600	27.715759	0.000260	20.632477
2382.649802	-2.993800	3.121400	-9.344400	27.648475	0.000260	20.630204
2383.648728	-2.986100	3.119200	-9.313100	27.610557	0.000261	20.643735
2384.652554	-2.979900	3.118000	-9.290300	27.661327	0.000258	20.649777
2385.650146	-2.989300	3.118600	-9.321400	27.660538	0.000259	20.636654
2386.650405	-2.970200	3.117400	-9.258100	27.700859	0.000258	20.653047
2387.649403	-3.006000	3.115700	-9.364600	27.715148	0.000258	20.646089
2388.649470	-2.994900	3.116000	-9.331300	27.723483	0.000258	20.663013
2389.652417	-2.986300	3.115800	-9.303000	27.720184	0.000258	20.646890
2390.649598	-3.017300	3.112800	-9.390400	27.719396	0.000259	20.648941
2391.652347	-2.975900	3.115200	-9.269800	27.725814	0.000255	20.649236
2392.649211	-2.984100	3.112900	-9.288000	27.738641	0.000255	20.654558
2393.650433	-2.994100	3.111000	-9.312400	27.725895	0.000256	20.658801
2394.651204	-2.985000	3.112100	-9.289500	27.710897	0.000255	20.647975
2395.653049	-2.992000	3.110000	-9.304200	27.675184	0.000255	20.654713
2396.655128	-2.990800	3.108800	-9.296600	27.657352	0.000256	20.651467
2397.653370	-2.995500	3.108600	-9.310100	27.595604	0.000254	20.648130
2398.653779	-2.989300	3.108100	-9.290200	27.574098	0.000254	20.644983
2399.654125	-3.015000	3.105500	-9.361600	27.575390	0.000253	20.644860
2400.655998	-2.978200	3.106200	-9.249800	27.563340	0.000254	20.643167
2401.658984	-3.004100	3.103900	-9.322300	27.551509	0.000252	20.617510
2402.655168	-2.979900	3.104200	-9.249300	27.574925	0.000254	20.649135
2403.663134	-3.003500	3.103000	-9.317600	27.605898	0.000252	20.649953
2404.657409	-3.004400	3.103600	-9.322700	27.646950	0.000253	20.648113
2405.656470	-3.000900	3.101800	-9.307100	27.707979	0.000254	20.659265
2406.659303	-2.990900	3.100200	-9.270800	27.740271	0.000254	20.665209
2407.656194	-3.000400	3.100900	-9.302300	27.726467	0.000252	20.658430
2408.657892	-2.999000	3.100000	-9.295100	27.749272	0.000252	20.655774
2409.657416	-2.992800	3.098800	-9.272600	27.760961	0.000252	20.661373
2410.658588	-2.994500	3.096500	-9.271800	27.796817	0.000251	20.655258
2411.657362	-3.031300	3.094300	-9.378300	27.789523	0.000250	20.671152
2412.658312	-3.013900	3.095200	-9.328000	27.737720	0.000249	20.662641
2413.658043	-3.000900	3.093600	-9.282700	27.737622	0.000247	20.662069
2414.660541	-2.989700	3.093400	-9.246800	27.707491	0.000250	20.635063
2415.658449	-3.003400	3.093600	-9.290400	27.704678	0.000248	20.657840
2416.657661	-2.972200	3.091300	-9.186300	27.731951	0.000248	20.657309
2417.660794	-2.975800	3.091800	-9.198900	27.758385	0.000249	20.643606
2418.657706	-3.014100	3.089800	-9.311700	27.764835	0.000251	20.644881
2419.660775	-2.993800	3.089700	-9.248900	27.772276	0.000247	20.666122
2420.657635	-2.991300	3.087700	-9.235700	27.758490	0.000249	20.661257
2421.659576	-2.988600	3.089900	-9.233100	27.757774	0.000248	20.654373
2422.660919	-3.009800	3.086300	-9.287900	27.745719	0.000249	20.665950
2423.663162	-3.002900	3.087300	-9.269500	27.784819	0.000247	20.675901
2424.659848	-2.990200	3.084000	-9.219800	27.804070	0.000248	20.668248
2425.659879	-3.001600	3.083700	-9.255200	27.834247	0.000248	20.688189
2426.658922	-2.980000	3.083300	-9.186800	27.872855	0.000246	20.645485
2427.659914	-2.998200	3.082800	-9.241900	27.857754	0.000245	20.660636
2428.663990	-2.985000	3.082400	-9.199800	27.800276	0.000246	20.663007
2429.660949	-2.992200	3.080000	-9.214700	27.744435	0.000246	20.670348
2430.666291	-3.014500	3.078300	-9.279200	27.703938	0.000245	20.658518
2431.661797	-3.005300	3.078300	-9.250300	27.671970	0.000247	20.673292
2432.662438	-2.993500	3.077700	-9.212400	27.653251	0.000245	20.677690
2433.665290	-3.005900	3.075600	-9.243300	27.686536	0.000245	20.659972
2434.661454	-3.019000	3.074600	-9.280400	27.753939	0.000246	20.678965
2435.662652	-3.012300	3.074000	-9.258600	27.783849	0.000246	20.667812
2436.663835	-3.001300	3.072800	-9.221800	27.829355	0.000245	20.664770
2437.662714	-2.989700	3.073500	-9.187400	27.860236	0.000243	20.661237
2438.662090	-2.986500	3.072900	-9.176600	27.856760	0.000244	20.676232
2439.664771	-3.008500	3.069600	-9.234200	27.809127	0.000245	20.666225
2440.663610	-2.979500	3.069800	-9.144900	27.839336	0.000245	20.677188
2441.663005	-2.987600	3.069400	-9.169500	27.871770	0.000245	20.658146
2442.662793	-2.974600	3.068000	-9.125200	27.868667	0.000244	20.673517
2443.663369	-2.973400	3.067200	-9.119000	27.905892	0.000245	20.683957
2444.666018	-2.972700	3.065700	-9.112200	27.862655	0.000244	20.674578
2445.664994	-2.996600	3.063700	-9.179400	27.836914	0.000242	20.687554
2446.668214	-2.996600	3.062900	-9.177900	27.842892	0.000241	20.666067
2447.665627	-3.017000	3.062000	-9.236300	27.861127	0.000244	20.657865
2448.666643	-3.014500	3.060800	-9.226100	27.881092	0.000241	20.677487
2449.669411	-2.987900	3.059700	-9.141200	27.893958	0.000241	20.674315
2450.666846	-3.023900	3.058500	-9.247800	27.840251	0.000243	20.671470
2451.666659	-3.026100	3.057000	-9.249700	27.849307	0.000243	20.675369
2452.666487	-2.991300	3.056900	-9.143100	27.808245	0.000242	20.681460
2453.666740	-3.027100	3.054600	-9.244300	27.835327	0.000242	20.680266
2454.667643	-3.002400	3.055100	-9.171700	27.851987	0.000244	20.662418
2455.669981	-2.980800	3.054500	-9.104200	27.869939	0.000242	20.698981
2456.667101	-3.010000	3.052800	-9.187900	27.912069	0.000242	20.680217
2457.672329	-3.001500	3.052900	-9.160600	27.921572	0.000242	20.698791
2458.667780	-2.991400	3.050400	-9.124300	27.961987	0.000241	20.665973
2459.667645	-2.971400	3.050600	-9.063900	27.963645	0.000242	20.676651
2460.670585	-2.989900	3.047900	-9.111700	27.961938	0.000241	20.673985
2461.667275	-3.002600	3.047700	-9.149900	27.977264	0.000242	20.691310
2462.667764	-3.050600	3.044900	-9.287500	27.927776	0.000242	20.675162
2463.667553	-3.009200	3.044400	-9.160500	27.958550	0.000241	20.703769
2464.668521	-3.046100	3.042000	-9.264900	27.983193	0.000240	20.674042
2465.669043	-3.012700	3.041800	-9.162600	27.972131	0.000241	20.665752
2466.676315	-2.994400	3.042000	-9.107000	27.963862	0.000241	20.699157
2467.667924	-2.994800	3.040500	-9.105000	27.970083	0.000240	20.672700
2468.667675	-2.991700	3.039700	-9.093000	27.987739	0.000240	20.681464
2469.668911	-3.026900	3.037900	-9.194200	28.018707	0.000239	20.687506
2470.667571	-3.017200	3.036900	-9.161200	28.029988	0.000239	20.689852
2471.669763	-2.986500	3.037200	-9.069900	28.030215	0.000237	20.687236
2472.668128	-3.001800	3.036100	-9.113000	27.970837	0.000240	20.711869
2473.668754	-2.999000	3.034500	-9.099500	27.971381	0.000242	20.680172
2474.668799	-3.026800	3.031700	-9.175000	27.961870	0.000240	20.690039
2475.667114	-2.989200	3.031000	-9.059700	28.001275	0.000238	20.695090
2476.669954	-2.992800	3.031700	-9.072400	28.019419	0.000240	20.692017
2477.669726	-2.980300	3.029600	-9.027200	28.003013	0.000240	20.684036
2478.669034	-3.010200	3.027600	-9.112400	27.994632	0.000240	20.698835
2479.668161	-3.009800	3.027100	-9.110100	27.983326	0.000240	20.685557
2480.669644	-3.001500	3.026200	-9.081800	27.984073	0.000238	20.706699
2481.669421	-3.021300	3.022800	-9.132000	27.958984	0.000238	20.708473
2482.670562	-2.984100	3.023800	-9.022700	27.909625	0.000238	20.682024
2483.671227	-2.985500	3.022900	-9.023000	27.858875	0.000237	20.683577
2484.676237	-3.004300	3.020500	-9.073800	27.866032	0.000239	20.685564
2485.673090	-2.999200	3.019900	-9.056300	27.880675	0.000238	20.688923
2486.672473	-3.009400	3.018700	-9.083800	27.952728	0.000238	20.711660
2487.678721	-3.024000	3.016300	-9.120000	27.966543	0.000240	20.706598
2488.671510	-2.990900	3.016100	-9.020100	27.987619	0.000238	20.715485
2489.672641	-3.017700	3.014400	-9.095800	28.018311	0.000237	20.721249
2490.671312	-3.013800	3.013000	-9.079600	28.072553	0.000237	20.691449
2491.672522	-3.022200	3.010700	-9.098000	28.101910	0.000235	20.686861
2492.671751	-3.012000	3.010000	-9.064700	28.139144	0.000237	20.687834
2493.674778	-3.004500	3.008800	-9.038800	28.176042	0.000236	20.688471
2494.671786	-3.001800	3.009100	-9.030900	28.176366	0.000237	20.693065
2495.672408	-3.033000	3.006100	-9.115200	28.137777	0.000237	20.695468
2496.673303	-2.980000	3.005500	-8.955700	28.088922	0.000239	20.706030
2497.671411	-2.988700	3.005900	-8.982900	28.094549	0.000236	20.709799
2498.676909	-2.968100	3.003500	-8.912900	28.011948	0.000237	20.689711
2499.671378	-3.032100	3.001600	-9.100900	27.962762	0.000236	20.695679
2500.673375	-2.992700	3.001800	-8.981900	27.951009	0.000237	20.710878
2501.674298	-2.978400	2.999600	-8.933200	27.913972	0.000236	20.707738
2502.674794	-3.017000	2.997300	-9.041300	27.920396	0.000238	20.708040
2503.675613	-2.994900	2.996500	-8.973300	27.907042	0.000235	20.705030
2504.677036	-3.014300	2.996900	-9.031700	27.954133	0.000235	20.712126
2505.679296	-3.018000	2.993800	-9.034300	27.998340	0.000236	20.707784
2506.677050	-2.994600	2.994600	-8.966000	28.011806	0.000234	20.700475
2507.678336	-2.999100	2.990800	-8.968700	28.056482	0.000238	20.717946
2508.679630	-3.003300	2.990800	-8.981400	28.052972	0.000236	20.693074
2509.680162	-2.999300	2.989100	-8.964500	28.028161	0.000238	20.686116
2510.677685	-2.999700	2.988800	-8.964800	28.050624	0.000237	20.709678
2511.681588	-2.992700	2.986800	-8.937600	28.089151	0.000237	20.705787
2512.677427	-2.994400	2.985600	-8.939300	28.139775	0.000238	20.742527
2513.679309	-3.014900	2.982300	-8.990300	28.152646	0.000237	20.712334
2514.680756	-3.004000	2.982600	-8.958500	28.172061	0.000236	20.696317
2515.679351	-2.984100	2.982000	-8.897500	28.194294	0.000236	20.711116
2516.680601	-3.002600	2.978400	-8.942000	28.194294	0.000237	20.717280
2517.680615	-3.005100	2.976400	-8.943100	28.171265	0.000236	20.714958
2518.680680	-2.992400	2.977400	-8.908400	28.203794	0.000238	20.716413
2519.682405	-3.020200	2.974100	-8.981500	28.225954	0.000236	20.736827
2520.681387	-2.986000	2.973700	-8.878500	28.258896	0.000237	20.743441
2521.685538	-3.006000	2.971000	-8.929300	28.285788	0.000236	20.712668
2522.681867	-2.970700	2.972400	-8.829400	28.322147	0.000237	20.711818
2523.681462	-3.026600	2.968300	-8.982400	28.353510	0.000237	20.719690
2524.682330	-2.999000	2.968800	-8.903000	28.354744	0.000236	20.732314
2525.682776	-3.004500	2.967000	-8.912500	28.322998	0.000236	20.716469
2526.683019	-2.981800	2.965400	-8.841600	28.331621	0.000236	20.728945
2527.683521	-3.020700	2.963500	-8.950400	28.368205	0.000234	20.711253
2528.683558	-2.991200	2.962600	-8.860100	28.406151	0.000236	20.705366
2529.683903	-3.018500	2.961300	-8.937700	28.424760	0.000234	20.727425
2530.686130	-3.013700	2.958500	-8.914900	28.402255	0.000233	20.740326
2531.685598	-2.992300	2.956800	-8.845300	28.330979	0.000234	20.740154
2532.686585	-3.002400	2.956400	-8.875300	28.305648	0.000235	20.707533
2533.686800	-2.971700	2.954700	-8.779300	28.237240	0.000237	20.724007
2534.686816	-2.992600	2.952800	-8.835500	28.233496	0.000236	20.744895
2535.693191	-2.999700	2.951300	-8.852500	28.254633	0.000236	20.729191
2536.691403	-2.997200	2.949600	-8.839900	28.274657	0.000235	20.726118
2537.689487	-2.998000	2.948500	-8.838500	28.257881	0.000238	20.751902
2538.687679	-2.988100	2.946200	-8.802600	28.225727	0.000237	20.728538
2539.686974	-3.048300	2.944200	-8.973000	28.174806	0.000237	20.724213
2540.687425	-2.993500	2.944300	-8.812300	28.183325	0.000237	20.744645
2541.691336	-2.982200	2.943400	-8.777200	28.173550	0.000237	20.740967
2542.687307	-2.965000	2.942100	-8.722200	28.208987	0.000238	20.728280
2543.688046	-2.983800	2.939500	-8.768700	28.222694	0.000237	20.725484
2544.688097	-2.973000	2.938700	-8.736100	28.240974	0.000239	20.742466
2545.686837	-3.002200	2.936400	-8.814700	28.278115	0.000239	20.758524
2546.693008	-3.023000	2.933400	-8.866300	28.287031	0.000238	20.750906
2547.690341	-3.006800	2.933300	-8.818200	28.339508	0.000240	20.744000
2548.692945	-2.989600	2.933100	-8.766500	28.301398	0.000240	20.741663
2549.691597	-3.022100	2.929200	-8.851600	28.289349	0.000239	20.739489
2550.689867	-3.001400	2.928800	-8.790000	28.296269	0.000241	20.764001
2551.694232	-3.008900	2.927900	-8.808700	28.337720	0.000240	20.758795
2552.691530	-2.995200	2.926000	-8.762900	28.389197	0.000241	20.758472
2553.691162	-3.042300	2.923300	-8.893300	28.387746	0.000241	20.744682
2554.691170	-2.996100	2.923600	-8.758200	28.372167	0.000240	20.753652
2555.690478	-2.965700	2.921700	-8.663000	28.330585	0.000240	20.764887
2556.690928	-3.015000	2.917800	-8.796300	28.296811	0.000241	20.752218
2557.702932	-2.992700	2.918100	-8.731800	28.317185	0.000240	20.742386
2558.692190	-3.011700	2.914800	-8.776800	28.265320	0.000240	20.757970
2559.691910	-3.015600	2.913400	-8.784100	28.247654	0.000239	20.752038
2560.692024	-3.037400	2.910500	-8.839000	28.270863	0.000240	20.764499
2561.690738	-3.009000	2.911500	-8.758900	28.308962	0.000238	20.774885
2562.694106	-3.021900	2.908200	-8.787000	28.311400	0.000240	20.786349
2563.691211	-3.022800	2.906100	-8.783200	28.289326	0.000239	20.775503
2564.694546	-3.006000	2.905000	-8.731200	28.257784	0.000238	20.763659
2565.692079	-2.994700	2.902000	-8.689000	28.230099	0.000236	20.774666
2566.691649	-2.995200	2.902200	-8.691800	28.240501	0.000237	20.783243
2567.693257	-3.008900	2.899200	-8.722100	28.256946	0.000236	20.794110
2568.692610	-2.991200	2.898300	-8.668800	28.279928	0.000237	20.812507
2569.693339	-3.024000	2.895800	-8.756300	28.321728	0.000236	20.801015
2570.694191	-3.018200	2.894300	-8.734600	28.313740	0.000236	20.805300
2571.694289	-2.995100	2.894400	-8.668100	28.336501	0.000236	20.805932
2572.699688	-2.992400	2.891900	-8.653200	28.353544	0.000236	20.778997
2573.696464	-2.980800	2.889600	-8.612900	28.374225	0.000237	20.802666
2574.699164	-3.003300	2.888400	-8.674300	28.391212	0.000236	20.800804
2575.696011	-3.010000	2.885900	-8.684900	28.435662	0.000237	20.793882
2576.697307	-3.003100	2.883900	-8.659800	28.484907	0.000234	20.807910
2577.700363	-2.994500	2.882200	-8.628900	28.491997	0.000236	20.805093
2578.697095	-2.993900	2.879900	-8.620700	28.542620	0.000236	20.815296
2579.698798	-3.013700	2.877800	-8.671200	28.561194	0.000234	20.811717
2580.699014	-2.999200	2.876900	-8.626600	28.552493	0.000235	20.795368
2581.702648	-2.999800	2.875000	-8.623400	28.564225	0.000234	20.808131
2582.704662	-3.002600	2.871700	-8.622000	28.575054	0.000234	20.805760
2583.702295	-3.030400	2.870200	-8.696600	28.608993	0.000235	20.802483
2584.702567	-3.014600	2.870600	-8.650300	28.625958	0.000236	20.811510
2585.701992	-3.007300	2.865800	-8.618100	28.606123	0.000234	20.801964
2586.703207	-2.992600	2.865400	-8.574400	28.569701	0.000236	20.812223
2587.703569	-2.995400	2.862600	-8.573000	28.549522	0.000233	20.814661
2588.702690	-3.013200	2.860600	-8.617000	28.527345	0.000236	20.811292
2589.702882	-2.980200	2.859600	-8.520700	28.536981	0.000235	20.814359
2590.703135	-2.998400	2.857900	-8.568600	28.541878	0.000236	20.824980
2591.703654	-2.982700	2.855300	-8.515300	28.565913	0.000233	20.819789
2592.703665	-3.001400	2.853600	-8.563800	28.587539	0.000235	20.810274
2593.704444	-2.975400	2.851800	-8.484400	28.605502	0.000233	20.809874
2594.705088	-3.001500	2.849800	-8.552700	28.625178	0.000234	20.806456
2595.704672	-2.998800	2.846900	-8.536700	28.628344	0.000232	20.812490
2596.704851	-3.006700	2.845300	-8.553800	28.659237	0.000235	20.813260
2597.706252	-2.998300	2.843300	-8.524600	28.698090	0.000233	20.823469
2598.709655	-2.980300	2.840700	-8.465200	28.697424	0.000234	20.811419
2599.707552	-2.989500	2.838600	-8.485500	28.730638	0.000234	20.824485
2600.711746	-2.996300	2.835400	-8.495100	28.697484	0.000235	20.812427
2601.711532	-3.009100	2.834900	-8.529500	28.701305	0.000233	20.827182
2602.709270	-2.995500	2.833100	-8.485700	28.671794	0.000235	20.834916
2603.709033	-2.996200	2.829400	-8.476800	28.628386	0.000232	20.815852
2604.711878	-2.993600	2.828000	-8.465600	28.600414	0.000234	20.836991
2605.710306	-3.037600	2.823000	-8.574100	28.580041	0.000233	20.802723
2606.711441	-2.986400	2.823700	-8.430600	28.517992	0.000234	20.813727
2607.711536	-3.030500	2.820300	-8.546000	28.512391	0.000234	20.824207
2608.712666	-3.017300	2.817200	-8.499700	28.565073	0.000232	20.836011
2609.712602	-2.961900	2.817900	-8.345400	28.594141	0.000233	20.832095
2610.712680	-2.999900	2.814600	-8.443100	28.589733	0.000233	20.843777
2611.716163	-2.973900	2.813300	-8.365900	28.591665	0.000233	20.802101
2612.712799	-2.994700	2.809500	-8.411700	28.647022	0.000234	20.822767
2613.713133	-2.980300	2.807100	-8.365000	28.608906	0.000234	20.825155
2614.715350	-2.992500	2.803800	-8.389800	28.610618	0.000234	20.831621
2615.719784	-3.003000	2.801000	-8.409600	28.634328	0.000233	20.835587
2616.715949	-2.989400	2.799900	-8.368900	28.597663	0.000233	20.831850
2617.716957	-3.006900	2.796500	-8.408100	28.560421	0.000234	20.822318
2618.714935	-3.013500	2.794000	-8.417500	28.530784	0.000234	20.838937
2619.714790	-2.990600	2.791400	-8.347400	28.504735	0.000234	20.830722
2620.719472	-3.014800	2.789900	-8.409600	28.456587	0.000233	20.816849
2621.716502	-3.000900	2.786900	-8.362600	28.411911	0.000233	20.820698
2622.717090	-2.997500	2.783600	-8.342200	28.447421	0.000234	20.828007
2623.715802	-2.970700	2.782200	-8.264400	28.476014	0.000234	20.828351
2624.716192	-2.993400	2.778300	-8.315400	28.472871	0.000234	20.832773
2625.718374	-3.014200	2.774100	-8.360500	28.427118	0.000232	20.815149
2626.716425	-2.976600	2.773400	-8.254100	28.443501	0.000235	20.835913
2627.718254	-2.999500	2.770100	-8.308600	28.459161	0.000232	20.854527
2628.716524	-3.022700	2.767300	-8.363500	28.552142	0.000233	20.825359
2629.717267	-3.000400	2.765000	-8.294900	28.549341	0.000233	20.824910
2630.718937	-2.994900	2.762200	-8.270700	28.537400	0.000232	20.822367
2631.719336	-3.010300	2.758500	-8.302800	28.543960	0.000233	20.820439
2632.719197	-2.984600	2.755200	-8.221700	28.533187	0.000232	20.834719
2633.718742	-2.994400	2.752600	-8.241500	28.586217	0.000235	20.801357
2634.717748	-2.976900	2.748700	-8.181700	28.655147	0.000233	20.796812
2635.722856	-3.007800	2.746500	-8.258800	28.669367	0.000233	20.812083
2636.722590	-2.988100	2.743600	-8.197900	28.681136	0.000232	20.812557
2637.718768	-3.011600	2.739000	-8.246500	28.686646	0.000232	20.804356
2638.721909	-2.993800	2.737700	-8.194900	28.693083	0.000231	20.816529
2639.719853	-2.973400	2.734600	-8.130100	28.671275	0.000234	20.809263
2640.719245	-2.973700	2.731200	-8.120900	28.683943	0.000231	20.812540
2641.724495	-3.017700	2.726100	-8.226000	28.758668	0.000234	20.810520
2642.719378	-2.985800	2.725200	-8.135500	28.762532	0.000231	20.803032
2643.721192	-3.014100	2.719100	-8.194600	28.769341	0.000233	20.807995
2644.719574	-2.985100	2.717600	-8.110200	28.827691	0.000230	20.788537
2645.719517	-2.975400	2.714500	-8.076000	28.797915	0.000232	20.808802
2646.720001	-2.961100	2.711400	-8.027600	28.826872	0.000232	20.791031
2647.723070	-2.990400	2.706800	-8.092400	28.790806	0.000232	20.784097
2648.721226	-3.001300	2.702800	-8.109700	28.809700	0.000233	20.790328
2649.721323	-2.982000	2.699700	-8.049800	28.858017	0.000232	20.782576
2650.721189	-2.987300	2.696200	-8.052200	28.873012	0.000233	20.803847
2651.725106	-3.012400	2.691400	-8.105700	28.843391	0.000233	20.792973
2652.723201	-3.012200	2.689000	-8.098900	28.820320	0.000231	20.796759
2653.720682	-2.999500	2.683700	-8.048700	28.829539	0.000232	20.803674
2654.722416	-3.019600	2.681000	-8.093500	28.803584	0.000230	20.787012
2655.721437	-2.976800	2.677000	-7.967700	28.755596	0.000233	20.805529
2656.722390	-3.025600	2.671600	-8.081500	28.725947	0.000232	20.804113
2657.723233	-3.003800	2.667900	-8.013300	28.665820	0.000232	20.794286
2658.723194	-2.988800	2.665200	-7.964600	28.597300	0.000234	20.766525
2659.722778	-2.996500	2.661800	-7.975400	28.560438	0.000232	20.776342
2660.721714	-3.035700	2.655800	-8.061500	28.593467	0.000233	20.778786
2661.722321	-3.003600	2.651600	-7.963600	28.643217	0.000236	20.783848
2662.723331	-3.005000	2.648900	-7.957700	28.707693	0.000234	20.787149
2663.726345	-3.010900	2.643600	-7.958800	28.785258	0.000233	20.768552
2664.732219	-3.016900	2.640200	-7.963800	28.839120	0.000235	20.789144
2665.727917	-2.995700	2.636500	-7.897000	28.908998	0.000235	20.774666
2666.724757	-3.020600	2.630000	-7.942600	28.930697	0.000234	20.780406
2667.724386	-3.016600	2.624600	-7.916200	28.964680	0.000235	20.784297
2668.725831	-2.980400	2.621100	-7.811500	28.980040	0.000234	20.780332
2669.724463	-2.955400	2.618900	-7.739200	29.037723	0.000234	20.781551
2670.726042	-2.970600	2.613200	-7.761700	29.044360	0.000235	20.780651
2671.727841	-2.986100	2.606700	-7.783000	29.107661	0.000236	20.793700
2672.725452	-3.003400	2.601200	-7.811100	29.127400	0.000233	20.773760
2673.724997	-2.993000	2.596200	-7.769100	29.146100	0.000235	20.771267
2674.726676	-2.998300	2.591800	-7.769900	29.165978	0.000233	20.768538
2675.725206	-2.996000	2.585900	-7.746600	29.157216	0.000232	20.740266
2676.726360	-2.980400	2.580700	-7.690300	29.201592	0.000233	20.762226
2677.727564	-3.004700	2.575400	-7.737400	29.177351	0.000231	20.756290
2678.729578	-2.968800	2.572000	-7.634800	29.126142	0.000233	20.769647
2679.729887	-3.026700	2.562400	-7.754600	29.112336	0.000232	20.771857
2680.728879	-3.005000	2.560600	-7.693000	29.111004	0.000234	20.748229
2681.732007	-2.995100	2.554500	-7.650200	29.145281	0.000233	20.763803
2682.729608	-2.997000	2.547300	-7.632900	29.100983	0.000232	20.766581
2683.728867	-3.005200	2.540200	-7.633100	29.115839	0.000232	20.766852
2684.730489	-3.008600	2.535400	-7.627200	29.127975	0.000233	20.770547
2685.733562	-3.017700	2.527100	-7.625000	29.144194	0.000235	20.775035
2686.730649	-3.038900	2.521200	-7.660200	29.177633	0.000233	20.758471
2687.729887	-2.985100	2.516700	-7.512000	29.184465	0.000232	20.763459
2688.730359	-3.000500	2.511500	-7.533500	29.154852	0.000234	20.754481
2689.732122	-3.042500	2.504000	-7.617000	29.171816	0.000234	20.754980
2690.731548	-3.015700	2.498400	-7.534000	29.163469	0.000234	20.760319
