LabVIEW Measurement	
Writer_Version	2
Reader_Version	2
Separator	Tab
Decimal_Separator	.
Multi_Headings	No
X_Columns	One
Time_Pref	Absolute
Operator	admin
Description	Clolumns are: time, Current, Voltage, Power, Battery Temp, and Chamber Temp
Date	2024/08/16
Time	13:06:06.104549407958984375
***End_of_Header***	
	
Channels	6						
Samples	1	1	1	1	1	1	
Date	2024/09/16	2024/09/16	2024/09/16	2024/09/16	2024/09/16	2024/09/16	
Time	09:37:22.9876704216003417969	09:37:23.0018110275268554688	09:37:23.0118031501770019531	09:37:22.9660353660583496094	09:37:22.9660353660583496094	09:37:22.9660353660583496094	
X_Dimension	Time	Time	Time	Time	Time	Time	
X0	0.0000000000000000E+0	0.0000000000000000E+0	0.0000000000000000E+0	0.0000000000000000E+0	0.0000000000000000E+0	0.0000000000000000E+0	
Delta_X	1.000000	1.000000	1.000000	1.000000	1.000000	1.000000	
***End_of_Header***							
X_Value	Untitled	Untitled 1	Untitled 2	Untitled 3	Untitled 4	Untitled 5	Comment
0.000000	0.024721	4.090000	0.101120	21.033569	0.000948	20.851042
0.997622	-2.997400	3.909600	-11.718000	21.044417	0.000950	20.857152
1.997356	-3.010700	3.901300	-11.745000	21.045188	0.000946	20.864560
2.998099	-2.991600	3.898000	-11.660000	21.060456	0.000948	20.866081
3.998710	-2.987600	3.893500	-11.631000	21.059527	0.000947	20.862307
4.995250	-2.980400	3.890600	-11.595000	21.051937	0.000947	20.856613
5.999330	-2.999500	3.888500	-11.662000	21.067384	0.000945	20.858312
6.998640	-3.016500	3.884400	-11.716000	21.067384	0.000943	20.863053
7.999294	-2.998800	3.884800	-11.649000	21.072667	0.000944	20.864070
8.997078	-2.995900	3.879800	-11.622000	21.063660	0.000944	20.873553
9.998326	-3.036700	3.877100	-11.773000	21.084957	0.000941	20.867354
11.000005	-2.977300	3.877600	-11.544000	21.086784	0.000942	20.885302
12.000739	-3.004500	3.873300	-11.636000	21.099420	0.000941	20.877552
13.001846	-3.002300	3.873100	-11.625000	21.089470	0.000939	20.875661
14.003001	-2.992300	3.871300	-11.583000	21.096279	0.000938	20.865403
14.999836	-3.011800	3.870300	-11.654000	21.105059	0.000937	20.858064
16.000047	-3.008200	3.868100	-11.635000	21.095198	0.000937	20.867166
16.999421	-3.012900	3.868700	-11.656000	21.098466	0.000935	20.867117
18.003441	-3.014800	3.867200	-11.657000	21.118622	0.000936	20.881587
18.999481	-3.012100	3.866300	-11.645000	21.116899	0.000937	20.884130
19.999870	-3.008600	3.864400	-11.626000	21.125451	0.000933	20.862340
21.000626	-2.992700	3.865500	-11.567000	21.124300	0.000933	20.885370
22.000006	-3.002500	3.864000	-11.600000	21.134803	0.000935	20.872643
22.999022	-2.996500	3.862800	-11.573000	21.149196	0.000935	20.878979
24.000906	-2.992300	3.862800	-11.558000	21.150484	0.000935	20.866044
25.003015	-3.002100	3.860100	-11.587000	21.160335	0.000932	20.883009
26.002349	-2.994400	3.862700	-11.566000	21.183832	0.000933	20.868108
27.000451	-3.028800	3.859200	-11.688000	21.163174	0.000933	20.879685
28.003511	-3.021700	3.859100	-11.660000	21.173103	0.000932	20.882979
29.004587	-3.014400	3.858900	-11.631000	21.180331	0.000934	20.876934
30.002861	-3.017200	3.856000	-11.632000	21.197691	0.000932	20.877704
31.004772	-2.991100	3.856500	-11.534000	21.200861	0.000931	20.871866
32.017673	-3.009600	3.855500	-11.603000	21.210859	0.000930	20.883764
33.004413	-3.002500	3.854900	-11.573000	21.210064	0.000930	20.869219
34.007293	-3.014400	3.854600	-11.618000	21.219085	0.000931	20.872553
35.007232	-3.001000	3.856100	-11.570000	21.216838	0.000930	20.882632
36.003185	-2.997300	3.854800	-11.552000	21.209624	0.000931	20.864986
37.007687	-2.992600	3.854100	-11.533000	21.226535	0.000931	20.894703
38.006894	-2.997400	3.852900	-11.547000	21.224362	0.000929	20.850332
39.004833	-3.002700	3.852800	-11.568000	21.232741	0.000930	20.855395
40.006274	-2.987200	3.853900	-11.512000	21.242190	0.000930	20.876701
41.008392	-3.019300	3.849900	-11.622000	21.251941	0.000931	20.878395
42.005227	-2.998400	3.850400	-11.545000	21.262813	0.000930	20.858452
43.010342	-3.028100	3.850200	-11.656000	21.262986	0.000930	20.875693
44.007048	-3.007500	3.851400	-11.583000	21.273640	0.000929	20.871653
45.004386	-2.993300	3.850600	-11.526000	21.279692	0.000928	20.837407
46.007302	-2.987200	3.849500	-11.497000	21.281588	0.000927	20.864432
47.008511	-3.004600	3.850700	-11.569000	21.301593	0.000928	20.855523
48.005600	-3.000400	3.847200	-11.542000	21.294533	0.000928	20.853201
49.007994	-3.004000	3.849200	-11.562000	21.293481	0.000929	20.864951
50.005978	-3.005400	3.847100	-11.562000	21.316907	0.000929	20.873213
51.003886	-2.985100	3.848600	-11.487000	21.322066	0.000929	20.853720
52.004933	-2.981400	3.847900	-11.470000	21.318201	0.000929	20.845111
53.007052	-3.010000	3.847200	-11.579000	21.320768	0.000926	20.843412
54.006322	-3.006400	3.847400	-11.564000	21.327107	0.000929	20.821306
55.012319	-2.999500	3.845600	-11.533000	21.348681	0.000928	20.847630
56.008045	-2.992700	3.845400	-11.507000	21.335909	0.000927	20.851448
57.008690	-3.004200	3.844300	-11.548000	21.349727	0.000929	20.858160
58.009643	-2.987200	3.845800	-11.487000	21.355943	0.000929	20.843042
59.008984	-2.996900	3.842900	-11.515000	21.347382	0.000927	20.844909
60.010653	-3.015000	3.844400	-11.590000	21.371982	0.000927	20.849132
61.011239	-3.013500	3.842900	-11.580000	21.407599	0.000925	20.850628
62.011815	-3.024600	3.843100	-11.623000	21.387646	0.000928	20.844415
63.019935	-3.023600	3.843300	-11.620000	21.410714	0.000929	20.830512
64.011907	-3.010600	3.843200	-11.569000	21.402959	0.000926	20.838399
65.020914	-3.005600	3.843100	-11.550000	21.395480	0.000926	20.835658
66.015770	-2.976400	3.843200	-11.438000	21.390020	0.000930	20.866230
67.015334	-3.005900	3.843000	-11.551000	21.446962	0.000926	20.834537
68.014455	-2.974800	3.842500	-11.429000	21.439701	0.000927	20.854298
69.023929	-3.006000	3.842000	-11.547000	21.438279	0.000928	20.823953
70.023349	-2.998400	3.841300	-11.517000	21.475568	0.000926	20.835184
71.015994	-3.026000	3.839900	-11.619000	21.471377	0.000927	20.830043
72.011438	-3.019800	3.841100	-11.598000	21.478204	0.000927	20.834977
73.016399	-3.024200	3.838900	-11.607000	21.464288	0.000930	20.845709
74.011352	-2.991700	3.841600	-11.492000	21.482819	0.000928	20.825370
75.015238	-3.002800	3.839500	-11.526000	21.492696	0.000928	20.825771
76.017939	-3.011200	3.838100	-11.556000	21.500821	0.000929	20.844331
77.022529	-2.994500	3.838900	-11.493000	21.495732	0.000931	20.834498
78.018607	-3.002600	3.839500	-11.527000	21.511493	0.000930	20.821819
79.026821	-3.003400	3.838900	-11.529000	21.507381	0.000928	20.834300
80.019912	-3.005700	3.838000	-11.535000	21.520121	0.000930	20.812435
81.012203	-3.009900	3.836800	-11.548000	21.516824	0.000929	20.839007
82.019937	-2.995400	3.837500	-11.494000	21.541390	0.000930	20.829924
83.022168	-2.987200	3.837500	-11.462000	21.549174	0.000931	20.839609
84.018747	-2.986000	3.836800	-11.455000	21.560615	0.000931	20.829721
85.019337	-3.008400	3.836600	-11.540000	21.559741	0.000928	20.803243
86.016329	-2.990200	3.837900	-11.476000	21.568621	0.000932	20.828250
87.018857	-2.987600	3.836600	-11.461000	21.577713	0.000928	20.811269
88.028874	-2.999400	3.834800	-11.500000	21.586814	0.000932	20.831756
89.024447	-3.014400	3.834400	-11.558000	21.595866	0.000930	20.835599
90.024437	-3.007900	3.835400	-11.535000	21.615268	0.000932	20.811867
91.018154	-3.020700	3.835300	-11.584000	21.602278	0.000932	20.812143
92.018582	-3.000600	3.835700	-11.509000	21.586192	0.000930	20.810746
93.017392	-3.008800	3.833400	-11.532000	21.597016	0.000931	20.839594
94.019668	-3.004400	3.834000	-11.517000	21.627637	0.000931	20.831830
95.020953	-2.983900	3.833900	-11.440000	21.637740	0.000932	20.812544
96.020942	-2.979100	3.834400	-11.423000	21.622055	0.000932	20.813442
97.025326	-2.985200	3.833300	-11.441000	21.646293	0.000933	20.800240
98.023702	-3.013800	3.832500	-11.549000	21.637463	0.000934	20.819853
99.023410	-2.987500	3.833900	-11.452000	21.655024	0.000933	20.813245
100.021282	-3.004600	3.832500	-11.514000	21.680184	0.000934	20.824200
101.025784	-3.016800	3.831000	-11.556000	21.674504	0.000933	20.821834
102.031050	-3.011700	3.832100	-11.540000	21.695647	0.000934	20.806958
103.026310	-2.988200	3.832600	-11.451000	21.680861	0.000935	20.826299
104.028822	-2.991500	3.831000	-11.459000	21.705650	0.000935	20.819340
105.025008	-2.985800	3.832300	-11.441000	21.706519	0.000935	20.811674
106.021701	-2.991700	3.830600	-11.458000	21.729532	0.000934	20.810523
107.022758	-3.012100	3.830600	-11.538000	21.747411	0.000935	20.800443
108.028155	-2.992100	3.831100	-11.462000	21.732256	0.000936	20.794284
109.033454	-2.993300	3.829900	-11.463000	21.742659	0.000936	20.808489
110.028560	-2.981300	3.832500	-11.424000	21.730065	0.000934	20.804893
111.025025	-2.990100	3.830800	-11.451000	21.744530	0.000937	20.807516
112.021943	-3.004300	3.829900	-11.505000	21.749139	0.000936	20.818293
113.028105	-3.003500	3.827800	-11.496000	21.763233	0.000936	20.810588
114.028663	-2.995100	3.829700	-11.469000	21.746479	0.000939	20.803303
115.029978	-3.011600	3.828600	-11.530000	21.781764	0.000936	20.792625
116.031623	-2.989000	3.827800	-11.441000	21.765207	0.000937	20.801184
117.033809	-2.992800	3.828700	-11.458000	21.761842	0.000936	20.805876
118.026808	-3.003700	3.828200	-11.497000	21.766308	0.000938	20.812243
119.035882	-2.986600	3.828500	-11.434000	21.768849	0.000937	20.801984
120.033587	-3.024100	3.826700	-11.571000	21.776558	0.000937	20.787414
121.028742	-3.010500	3.827000	-11.520000	21.787380	0.000938	20.809625
122.034767	-3.008700	3.826300	-11.510000	21.783916	0.000939	20.805684
123.031926	-3.039200	3.823900	-11.620000	21.827677	0.000938	20.830517
124.032837	-3.018000	3.826600	-11.548000	21.834512	0.000941	20.814599
125.034541	-2.965500	3.828400	-11.352000	21.864879	0.000939	20.817019
126.033376	-3.003300	3.826100	-11.489000	21.841021	0.000939	20.801673
127.028358	-3.009100	3.826900	-11.514000	21.866853	0.000940	20.784381
128.034923	-2.978100	3.826900	-11.395000	21.887253	0.000940	20.798162
129.032477	-3.000200	3.825200	-11.474000	21.881341	0.000940	20.796512
130.027528	-3.017300	3.824500	-11.539000	21.902939	0.000942	20.793475
131.036978	-2.996100	3.826200	-11.463000	21.919642	0.000942	20.794072
132.028581	-3.016400	3.824400	-11.535000	21.910449	0.000940	20.802414
133.027367	-3.004300	3.823200	-11.486000	21.915157	0.000941	20.800962
134.030467	-2.988300	3.825100	-11.430000	21.912739	0.000942	20.770567
135.031032	-2.995800	3.824400	-11.454000	21.933487	0.000944	20.794181
136.030931	-2.988500	3.824900	-11.429000	21.948423	0.000942	20.803916
137.034974	-2.986700	3.824300	-11.421000	21.935807	0.000943	20.790338
138.027810	-2.998100	3.824100	-11.464000	21.942862	0.000946	20.784125
139.032471	-2.986700	3.823200	-11.418000	21.948897	0.000944	20.789691
140.032243	-3.007900	3.822300	-11.496000	21.952765	0.000944	20.801624
141.034426	-2.990900	3.822500	-11.431000	21.951793	0.000945	20.787849
142.033136	-2.995700	3.823300	-11.453000	21.976099	0.000948	20.771402
143.033046	-2.961600	3.823500	-11.322000	22.002728	0.000945	20.762496
144.034380	-3.002200	3.821800	-11.471000	21.993032	0.000946	20.785982
145.032345	-2.989200	3.822700	-11.426000	21.992332	0.000945	20.773901
146.032621	-2.987200	3.820700	-11.411000	21.997715	0.000948	20.787825
147.030890	-2.994000	3.821500	-11.440000	22.002604	0.000949	20.789400
148.032681	-2.987000	3.822200	-11.415000	22.006621	0.000947	20.773506
149.029078	-2.997000	3.819900	-11.447000	22.023450	0.000951	20.776603
150.028858	-3.010800	3.819800	-11.498000	22.039978	0.000951	20.764225
151.031284	-3.005500	3.821000	-11.483000	22.030930	0.000951	20.779349
152.032276	-2.998500	3.820600	-11.455000	22.051997	0.000951	20.775309
153.035459	-3.003000	3.819700	-11.469000	22.060744	0.000951	20.785489
154.033437	-3.001100	3.818600	-11.459000	22.050004	0.000953	20.782797
155.034573	-3.021500	3.818100	-11.535000	22.065782	0.000952	20.767298
156.038234	-3.014900	3.818200	-11.511000	22.087243	0.000954	20.772662
157.054898	-2.999400	3.819800	-11.456000	22.087949	0.000952	20.776213
158.036265	-3.040400	3.816600	-11.602000	22.101802	0.000953	20.763055
159.040312	-3.007000	3.818100	-11.480000	22.110726	0.000955	20.760136
160.042445	-3.008400	3.818000	-11.485000	22.085649	0.000954	20.779127
161.034904	-3.006100	3.816500	-11.472000	22.080790	0.000953	20.769994
162.043647	-2.984000	3.817800	-11.391000	22.093474	0.000956	20.778900
163.038880	-3.000200	3.817700	-11.453000	22.105763	0.000954	20.763702
164.038630	-2.971600	3.818500	-11.346000	22.116380	0.000957	20.771012
165.044919	-3.014200	3.816000	-11.502000	22.109074	0.000955	20.786457
166.044570	-2.992700	3.816900	-11.422000	22.123430	0.000954	20.762897
167.042737	-2.996300	3.815800	-11.432000	22.131905	0.000956	20.747674
168.046413	-2.988900	3.817000	-11.407000	22.162640	0.000958	20.763746
169.039401	-3.005900	3.815500	-11.468000	22.187108	0.000957	20.771174
170.038370	-2.976500	3.816200	-11.357000	22.190774	0.000959	20.771051
171.046049	-2.988300	3.815700	-11.400000	22.190596	0.000959	20.758071
172.043142	-3.004200	3.816300	-11.464000	22.176008	0.000960	20.779502
173.038678	-3.011900	3.815900	-11.492000	22.214245	0.000959	20.770843
174.045467	-2.992200	3.815900	-11.417000	22.227771	0.000960	20.767791
175.041238	-3.031900	3.813400	-11.561000	22.217347	0.000962	20.770157
176.040461	-3.004000	3.814400	-11.457000	22.217347	0.000961	20.767786
177.046887	-2.986300	3.815600	-11.394000	22.197304	0.000959	20.771426
178.043368	-2.989200	3.815500	-11.405000	22.206401	0.000958	20.782905
179.040604	-2.988200	3.814000	-11.395000	22.224816	0.000962	20.773841
180.048463	-2.994900	3.813200	-11.419000	22.191685	0.000961	20.772912
181.042779	-2.991900	3.811300	-11.401000	22.195346	0.000962	20.770887
182.042091	-2.985700	3.813200	-11.383000	22.225832	0.000960	20.768694
183.048126	-3.008800	3.813000	-11.471000	22.236102	0.000963	20.754321
184.045630	-2.980000	3.814000	-11.365000	22.251952	0.000964	20.771613
185.042925	-3.013100	3.811400	-11.482000	22.254966	0.000963	20.772260
186.047870	-3.012700	3.811000	-11.480000	22.241129	0.000963	20.756035
187.049244	-2.989300	3.812400	-11.396000	22.247783	0.000964	20.749421
188.044806	-2.991600	3.811400	-11.401000	22.244838	0.000966	20.769707
189.048617	-2.981700	3.811700	-11.364000	22.270509	0.000963	20.760322
190.047311	-3.006200	3.811300	-11.455000	22.274573	0.000966	20.770556
191.044816	-3.001800	3.811800	-11.441000	22.291295	0.000965	20.758376
192.047747	-3.005600	3.809700	-11.449000	22.307642	0.000966	20.751510
193.049827	-2.995800	3.810400	-11.413000	22.303158	0.000967	20.745124
194.049754	-2.982000	3.810500	-11.362000	22.324038	0.000967	20.776938
195.050522	-3.009200	3.809300	-11.462000	22.335979	0.000966	20.753807
196.051665	-3.019100	3.807800	-11.495000	22.343477	0.000968	20.753254
197.049551	-2.990600	3.809900	-11.393000	22.359300	0.000968	20.741597
198.055237	-2.982100	3.809400	-11.359000	22.352399	0.000969	20.759818
199.048884	-2.999300	3.808000	-11.421000	22.363315	0.000970	20.744669
200.046964	-3.025300	3.807400	-11.517000	22.371216	0.000970	20.734089
201.052473	-2.996400	3.809000	-11.412000	22.395261	0.000972	20.756272
202.049551	-3.005100	3.807400	-11.441000	22.394965	0.000971	20.759295
203.054089	-3.001400	3.808200	-11.429000	22.398433	0.000972	20.746171
204.052523	-3.018800	3.806300	-11.489000	22.413880	0.000969	20.737932
205.052790	-3.021400	3.805200	-11.495000	22.425466	0.000973	20.746690
206.050382	-3.004700	3.807000	-11.436000	22.435710	0.000971	20.747939
207.052567	-3.002800	3.806800	-11.430000	22.419138	0.000972	20.750310
208.052732	-2.992300	3.805200	-11.385000	22.413658	0.000973	20.766634
209.049249	-3.013000	3.806700	-11.469000	22.419439	0.000975	20.764837
210.056035	-3.003800	3.806200	-11.432000	22.413934	0.000975	20.744625
211.048755	-3.005500	3.805700	-11.437000	22.418270	0.000974	20.750389
212.047816	-2.993000	3.806600	-11.392000	22.438679	0.000976	20.734317
213.052299	-3.006400	3.804200	-11.436000	22.435784	0.000975	20.757497
214.055169	-2.980000	3.806400	-11.343000	22.456172	0.000976	20.745672
215.050208	-2.998900	3.805800	-11.412000	22.446777	0.000976	20.725357
216.050598	-3.011600	3.804500	-11.457000	22.480620	0.000977	20.737438
217.049609	-3.009400	3.804700	-11.449000	22.476428	0.000980	20.730869
218.053048	-3.016100	3.803900	-11.472000	22.468630	0.000979	20.757675
219.051189	-3.010100	3.804000	-11.450000	22.464996	0.000979	20.746448
220.049869	-3.001200	3.803000	-11.411000	22.471249	0.000979	20.740856
221.051668	-2.992700	3.804300	-11.384000	22.477005	0.000979	20.767484
222.049619	-2.994200	3.803500	-11.386000	22.476630	0.000980	20.759048
223.054033	-2.985300	3.802600	-11.350000	22.490286	0.000980	20.750913
224.052640	-3.006100	3.802900	-11.431000	22.507360	0.000981	20.726285
225.053897	-3.014500	3.801700	-11.458000	22.521189	0.000982	20.744403
226.054888	-3.008100	3.802600	-11.438000	22.527896	0.000982	20.753965
227.054199	-3.011500	3.803300	-11.453000	22.538109	0.000982	20.743331
228.052768	-3.002100	3.801500	-11.412000	22.547676	0.000982	20.730153
229.053557	-2.997900	3.801100	-11.394000	22.537562	0.000985	20.752266
230.052137	-2.981400	3.802000	-11.334000	22.530386	0.000983	20.742235
231.053612	-3.013100	3.800000	-11.448000	22.521396	0.000984	20.739869
232.052647	-2.995900	3.801000	-11.387000	22.523359	0.000984	20.738041
233.054096	-3.026000	3.798800	-11.492000	22.503479	0.000986	20.740891
234.054075	-2.990000	3.800000	-11.361000	22.536097	0.000986	20.737522
235.056222	-2.996800	3.800200	-11.388000	22.525011	0.000987	20.743963
236.056492	-2.994200	3.799200	-11.374000	22.522969	0.000986	20.717261
237.059460	-2.987400	3.799700	-11.350000	22.553890	0.000987	20.731635
238.056481	-3.020300	3.797600	-11.469000	22.586931	0.000987	20.728691
239.057714	-3.015200	3.797600	-11.450000	22.577236	0.000989	20.740318
240.056672	-2.980600	3.800400	-11.327000	22.595349	0.000990	20.725742
241.062932	-2.984000	3.798800	-11.335000	22.588598	0.000989	20.733680
242.059503	-3.004100	3.798200	-11.409000	22.629286	0.000990	20.732707
243.059892	-3.002600	3.798400	-11.404000	22.633196	0.000991	20.715759
244.066208	-3.002500	3.798000	-11.403000	22.632151	0.000992	20.739370
245.060627	-2.993100	3.798200	-11.368000	22.638877	0.000992	20.740417
246.059047	-2.990200	3.798300	-11.355000	22.637333	0.000993	20.744087
247.063085	-2.994400	3.797400	-11.369000	22.645731	0.000992	20.724522
248.059842	-3.010800	3.796000	-11.428000	22.621011	0.000994	20.732954
249.062999	-2.991300	3.796600	-11.355000	22.640248	0.000994	20.747006
250.063633	-3.019900	3.795600	-11.460000	22.661200	0.000995	20.725317
251.063376	-2.987900	3.795500	-11.340000	22.636909	0.000996	20.741291
252.063298	-2.977600	3.797200	-11.306000	22.641589	0.000993	20.711838
253.070364	-2.998300	3.795100	-11.378000	22.635553	0.000996	20.730449
254.064340	-2.999400	3.795200	-11.382000	22.663286	0.000997	20.739261
255.066674	-2.996100	3.795500	-11.371000	22.665579	0.000998	20.742032
256.068462	-3.002600	3.793900	-11.391000	22.685756	0.000998	20.744225
257.064752	-2.988400	3.795100	-11.340000	22.693527	0.000996	20.746319
258.068046	-3.006600	3.793500	-11.405000	22.720257	0.000998	20.748912
259.068251	-2.976400	3.793500	-11.290000	22.707950	0.000999	20.737058
260.065276	-3.003100	3.793300	-11.390000	22.727580	0.001000	20.737280
261.065835	-2.998300	3.793300	-11.372000	22.758421	0.001000	20.738777
262.068617	-2.988300	3.792900	-11.334000	22.765644	0.001002	20.748858
263.067012	-2.995400	3.792500	-11.359000	22.778321	0.001002	20.722200
264.064003	-3.003200	3.792600	-11.389000	22.792249	0.001002	20.743267
265.070434	-2.992200	3.792300	-11.346000	22.784474	0.001002	20.748754
266.067859	-3.015200	3.791200	-11.430000	22.787408	0.001003	20.719449
267.068501	-3.008200	3.791000	-11.404000	22.802855	0.001002	20.736821
268.071387	-2.984500	3.791700	-11.315000	22.822709	0.001003	20.747702
269.068725	-3.022200	3.789100	-11.451000	22.834513	0.001004	20.726809
270.067080	-2.982100	3.793200	-11.310000	22.842357	0.001005	20.727554
271.071517	-3.012700	3.789900	-11.417000	22.820984	0.001006	20.705668
272.068436	-3.011700	3.790300	-11.414000	22.861885	0.001005	20.730997
273.068994	-3.005200	3.789000	-11.386000	22.875936	0.001003	20.751713
274.072349	-2.965000	3.790100	-11.237000	22.856827	0.001006	20.728774
275.069413	-3.012300	3.789000	-11.413000	22.844270	0.001006	20.725677
276.074689	-2.979400	3.789500	-11.290000	22.838738	0.001006	20.737206
277.082179	-2.975100	3.790700	-11.277000	22.849200	0.001008	20.738678
278.070183	-2.996300	3.789400	-11.354000	22.821270	0.001009	20.751950
279.070322	-3.008200	3.787600	-11.393000	22.841868	0.001009	20.742239
280.074511	-2.992500	3.787000	-11.332000	22.841573	0.001007	20.743839
281.071959	-2.991800	3.787700	-11.331000	22.841129	0.001009	20.723005
282.070910	-3.022000	3.787700	-11.445000	22.896672	0.001007	20.751624
283.073006	-2.997100	3.786500	-11.348000	22.919961	0.001010	20.744610
284.069845	-3.011100	3.786300	-11.400000	22.919315	0.001010	20.726418
285.071834	-3.013500	3.786100	-11.408000	22.911196	0.001012	20.751001
286.075309	-2.990900	3.787600	-11.327000	22.942333	0.001012	20.720555
287.072495	-2.990200	3.787000	-11.323000	22.957053	0.001012	20.741943
288.071284	-3.015100	3.784500	-11.410000	22.960494	0.001010	20.723104
289.074664	-2.984600	3.786900	-11.301000	22.983930	0.001014	20.743266
290.078805	-2.991300	3.785600	-11.323000	22.979276	0.001011	20.737181
291.073309	-3.012000	3.785300	-11.400000	23.006103	0.001012	20.743197
292.074592	-2.981300	3.785900	-11.286000	22.967144	0.001013	20.755373
293.073502	-3.003700	3.784300	-11.366000	22.963585	0.001014	20.743271
294.073850	-3.010300	3.784500	-11.391000	22.970265	0.001015	20.737161
295.073711	-3.001600	3.785600	-11.361000	22.968599	0.001013	20.756830
296.074608	-3.002900	3.784500	-11.363000	22.971162	0.001013	20.741854
297.072913	-3.010400	3.783500	-11.388000	22.987203	0.001016	20.743227
298.076776	-3.016200	3.783300	-11.410000	22.994657	0.001016	20.726038
299.072165	-3.006300	3.781800	-11.368000	23.022602	0.001016	20.728908
300.073550	-3.006700	3.782000	-11.369000	23.014740	0.001017	20.739048
301.078933	-3.011800	3.783800	-11.394000	22.998004	0.001016	20.724176
302.073750	-3.004900	3.783000	-11.367000	22.993217	0.001018	20.732657
303.072848	-2.992000	3.783600	-11.319000	23.003954	0.001018	20.733931
304.077470	-3.007800	3.782400	-11.375000	23.037430	0.001018	20.732385
305.080068	-3.002300	3.782500	-11.355000	23.053278	0.001019	20.756800
306.073671	-3.002500	3.782300	-11.354000	23.047023	0.001020	20.726349
307.077832	-3.003200	3.780900	-11.354000	23.055146	0.001022	20.740654
308.075640	-3.017000	3.780600	-11.405000	23.061599	0.001019	20.751387
309.077205	-2.997700	3.781300	-11.333000	23.050917	0.001021	20.745425
310.077252	-3.000900	3.781200	-11.346000	23.057296	0.001022	20.756558
311.076824	-3.024700	3.780600	-11.433000	23.083421	0.001022	20.761399
312.074456	-3.011000	3.777800	-11.374000	23.088103	0.001023	20.775100
313.077790	-3.015000	3.779100	-11.393000	23.098070	0.001024	20.750948
314.074265	-3.011200	3.777200	-11.373000	23.094763	0.001024	20.745262
315.074986	-3.007200	3.778500	-11.362000	23.103078	0.001024	20.752647
316.079784	-2.990100	3.779400	-11.300000	23.112517	0.001026	20.761157
317.075346	-3.017300	3.777900	-11.399000	23.127063	0.001025	20.758663
318.077522	-2.985800	3.777000	-11.276000	23.133840	0.001025	20.746013
319.078634	-3.003000	3.778400	-11.346000	23.151427	0.001026	20.749412
320.077887	-3.000100	3.777700	-11.332000	23.146242	0.001027	20.742319
321.077755	-3.003700	3.777600	-11.345000	23.133638	0.001027	20.752449
322.085227	-2.995200	3.777400	-11.312000	23.131080	0.001027	20.751308
323.078927	-2.990000	3.776200	-11.289000	23.126974	0.001028	20.747668
324.079499	-2.991100	3.777400	-11.297000	23.117481	0.001027	20.752380
325.082997	-3.008600	3.776900	-11.362000	23.152625	0.001030	20.774320
326.078259	-2.991100	3.775700	-11.292000	23.147124	0.001027	20.752212
327.079458	-3.005800	3.776400	-11.351000	23.166618	0.001028	20.762738
328.083498	-3.011600	3.775200	-11.368000	23.162906	0.001029	20.760441
329.084088	-3.024700	3.773900	-11.414000	23.174691	0.001029	20.753284
330.083287	-2.995000	3.773700	-11.301000	23.185525	0.001028	20.750390
331.086730	-3.020300	3.773700	-11.396000	23.161990	0.001031	20.759522
332.080454	-2.977200	3.774500	-11.237000	23.141426	0.001028	20.754563
333.083287	-3.005200	3.772100	-11.335000	23.135847	0.001030	20.750869
334.083554	-2.998800	3.772800	-11.312000	23.127581	0.001031	20.768665
335.083435	-3.002500	3.772400	-11.326000	23.139011	0.001031	20.764472
336.080303	-3.001400	3.772700	-11.323000	23.143920	0.001031	20.749002
337.081578	-3.009700	3.772600	-11.354000	23.156026	0.001033	20.740269
338.081917	-2.993100	3.772800	-11.292000	23.178516	0.001032	20.743366
339.079926	-3.013400	3.772300	-11.366000	23.204515	0.001032	20.778430
340.092446	-2.986500	3.771300	-11.262000	23.214200	0.001035	20.761108
341.082915	-2.997000	3.771600	-11.302000	23.209744	0.001032	20.770394
342.080441	-3.003600	3.772200	-11.329000	23.200213	0.001034	20.752781
343.085658	-2.980900	3.771700	-11.242000	23.247625	0.001035	20.769001
344.086407	-2.997400	3.770000	-11.299000	23.243077	0.001034	20.773452
345.083763	-2.984700	3.771100	-11.255000	23.225763	0.001037	20.753729
346.084552	-3.003300	3.770400	-11.321000	23.259035	0.001035	20.771426
347.084230	-3.016000	3.768600	-11.365000	23.260134	0.001035	20.766364
348.084092	-2.997300	3.768800	-11.295000	23.238124	0.001037	20.752840
349.092626	-2.995800	3.768800	-11.290000	23.234885	0.001036	20.748647
350.087303	-3.008800	3.768800	-11.339000	23.236685	0.001036	20.767046
351.085877	-2.965500	3.769900	-11.178000	23.243333	0.001039	20.760432
352.086039	-2.976800	3.768900	-11.218000	23.247123	0.001037	20.776085
353.086549	-2.986800	3.767900	-11.253000	23.274959	0.001038	20.785489
354.086721	-2.995600	3.767500	-11.284000	23.285919	0.001039	20.755221
355.087858	-3.011600	3.766400	-11.342000	23.304745	0.001040	20.776460
356.084006	-3.007000	3.765900	-11.322000	23.319589	0.001039	20.768103
357.086773	-2.969500	3.767800	-11.187000	23.345560	0.001039	20.760941
358.087941	-3.012100	3.765500	-11.341000	23.332787	0.001039	20.768054
359.086610	-3.003300	3.766400	-11.311000	23.351986	0.001041	20.782081
360.088186	-2.989500	3.766700	-11.259000	23.371585	0.001040	20.772326
361.089911	-3.011200	3.766000	-11.339000	23.385876	0.001039	20.780486
362.089387	-3.018100	3.764500	-11.360000	23.391035	0.001040	20.780915
363.088779	-3.011700	3.764900	-11.337000	23.421183	0.001041	20.761346
364.092126	-2.998700	3.764000	-11.286000	23.404957	0.001040	20.780170
365.089609	-2.994600	3.764200	-11.271000	23.370496	0.001041	20.760803
366.089660	-2.991700	3.764100	-11.260000	23.360266	0.001043	20.767619
367.093339	-2.985300	3.763700	-11.235000	23.381081	0.001043	20.784215
368.090917	-2.993400	3.762900	-11.263000	23.370427	0.001044	20.777804
369.088528	-2.998400	3.762800	-11.281000	23.405208	0.001044	20.782318
370.096243	-3.024100	3.762700	-11.378000	23.401221	0.001045	20.765994
371.090477	-2.995900	3.761500	-11.268000	23.423332	0.001043	20.781992
372.089912	-3.005300	3.763500	-11.309000	23.394327	0.001045	20.788957
373.094933	-3.019900	3.761000	-11.356000	23.402966	0.001045	20.785287
374.093814	-3.002700	3.761600	-11.294000	23.405780	0.001045	20.771986
375.094073	-3.005400	3.762000	-11.304000	23.406898	0.001046	20.799185
376.093425	-3.014800	3.760100	-11.334000	23.380130	0.001047	20.775201
377.095187	-3.012100	3.760900	-11.327000	23.376198	0.001047	20.770311
378.092586	-2.992400	3.761200	-11.254000	23.377366	0.001047	20.782861
379.095573	-2.985400	3.760200	-11.223000	23.408736	0.001046	20.801976
380.093367	-3.002800	3.761200	-11.293000	23.401561	0.001047	20.777241
381.093845	-3.009600	3.757800	-11.308000	23.401315	0.001047	20.777468
382.094234	-3.000200	3.760200	-11.280000	23.435074	0.001047	20.788546
383.092927	-2.994600	3.758700	-11.255000	23.458199	0.001049	20.782328
384.095086	-3.000700	3.759500	-11.280000	23.459096	0.001048	20.791762
385.103324	-2.990200	3.759200	-11.239000	23.459865	0.001050	20.778781
386.096715	-3.008900	3.757300	-11.305000	23.450030	0.001049	20.808278
387.094394	-3.009300	3.757900	-11.307000	23.442288	0.001047	20.783923
388.095844	-3.026000	3.757500	-11.368000	23.441288	0.001050	20.788610
389.098194	-3.019700	3.757000	-11.343000	23.430555	0.001048	20.785913
390.102781	-3.008200	3.756100	-11.298000	23.421986	0.001051	20.797713
391.098329	-2.978500	3.757500	-11.190000	23.449995	0.001050	20.783587
392.094176	-3.001200	3.755500	-11.269000	23.445412	0.001051	20.782787
393.094218	-3.018600	3.754500	-11.331000	23.460949	0.001049	20.812110
394.097682	-2.983400	3.756400	-11.206000	23.456070	0.001051	20.802953
395.100198	-3.003800	3.754600	-11.276000	23.477756	0.001050	20.782965
396.100243	-2.998900	3.755500	-11.262000	23.493642	0.001050	20.791776
397.096118	-2.974900	3.755000	-11.170000	23.498220	0.001051	20.795890
398.098437	-3.007100	3.754300	-11.289000	23.491868	0.001050	20.784308
399.096941	-2.993500	3.755800	-11.242000	23.507109	0.001049	20.790102
400.097810	-3.004200	3.753700	-11.276000	23.526305	0.001052	20.795594
401.097643	-2.991100	3.752900	-11.223000	23.541466	0.001051	20.785187
402.096882	-2.977800	3.754200	-11.179000	23.552690	0.001053	20.804499
403.098386	-2.986400	3.752800	-11.206000	23.558120	0.001052	20.792873
404.101322	-3.005500	3.753500	-11.280000	23.574626	0.001052	20.827436
405.101070	-2.989500	3.752700	-11.218000	23.583115	0.001052	20.798962
406.102515	-3.020300	3.751600	-11.329000	23.550503	0.001052	20.777650
407.100687	-3.014900	3.751800	-11.309000	23.609853	0.001054	20.808697
408.102539	-3.005800	3.750300	-11.271000	23.591107	0.001054	20.825465
409.099018	-2.986000	3.751900	-11.202000	23.578538	0.001053	20.801486
410.098522	-2.993700	3.750600	-11.227000	23.622826	0.001053	20.816960
411.098393	-3.002800	3.750900	-11.261000	23.642863	0.001053	20.822823
412.099965	-3.000400	3.749900	-11.250000	23.644612	0.001053	20.806559
413.098077	-3.003400	3.750100	-11.263000	23.668358	0.001053	20.808554
414.101011	-2.993600	3.750600	-11.227000	23.662683	0.001054	20.811873
415.099530	-2.988900	3.749700	-11.206000	23.644686	0.001054	20.816590
416.099541	-2.978300	3.749100	-11.164000	23.645656	0.001055	20.799071
417.097995	-2.986100	3.748900	-11.194000	23.651706	0.001053	20.804188
418.101441	-2.966500	3.749300	-11.120000	23.652278	0.001056	20.827046
419.099096	-2.985700	3.749000	-11.193000	23.670324	0.001056	20.804835
420.099641	-3.001100	3.747200	-11.245000	23.681655	0.001057	20.807661
421.105731	-3.014000	3.747100	-11.293000	23.705426	0.001056	20.792611
422.101686	-3.007400	3.746300	-11.266000	23.709436	0.001058	20.821287
423.106158	-3.006700	3.746400	-11.262000	23.709958	0.001056	20.811380
424.108397	-2.973600	3.746500	-11.140000	23.721535	0.001055	20.814926
425.106351	-2.999100	3.744800	-11.230000	23.753443	0.001056	20.805191
426.105974	-2.979100	3.747100	-11.161000	23.761783	0.001057	20.814975
427.109881	-3.005200	3.745900	-11.256000	23.768078	0.001056	20.817494
428.104157	-3.011900	3.745600	-11.281000	23.795216	0.001058	20.829057
429.106233	-3.003600	3.744100	-11.245000	23.802009	0.001056	20.806470
430.113394	-3.006400	3.743100	-11.253000	23.795241	0.001058	20.816279
431.108676	-3.007500	3.743600	-11.258000	23.773335	0.001055	20.825609
432.105823	-2.996100	3.744400	-11.218000	23.760817	0.001056	20.831077
433.110034	-2.998100	3.742900	-11.220000	23.753428	0.001055	20.815134
434.110045	-3.027900	3.741400	-11.327000	23.782024	0.001055	20.851864
435.107087	-2.996700	3.742500	-11.214000	23.788896	0.001056	20.819875
436.108855	-3.017100	3.741300	-11.286000	23.754172	0.001058	20.821095
437.112206	-3.001400	3.742000	-11.230000	23.740462	0.001056	20.823471
438.108297	-2.997200	3.740900	-11.211000	23.725260	0.001058	20.832410
439.115154	-2.979500	3.742800	-11.150000	23.713308	0.001060	20.828015
440.114058	-3.013000	3.740100	-11.267000	23.685405	0.001056	20.829911
441.111445	-2.993300	3.741600	-11.198000	23.656560	0.001058	20.823752
442.112374	-2.990400	3.740200	-11.184000	23.664177	0.001059	20.818586
443.113801	-3.003900	3.740100	-11.234000	23.680405	0.001060	20.818260
444.112149	-2.995600	3.741200	-11.206000	23.708210	0.001059	20.816265
445.116591	-3.002200	3.740400	-11.228000	23.713166	0.001061	20.810802
446.113664	-3.009400	3.737900	-11.248000	23.720728	0.001060	20.804159
447.113402	-2.980300	3.740100	-11.146000	23.734393	0.001062	20.845360
448.116007	-3.009400	3.738000	-11.249000	23.733871	0.001060	20.841518
449.110150	-2.997900	3.738500	-11.207000	23.754931	0.001061	20.831813
450.111414	-2.983100	3.739100	-11.152000	23.761035	0.001062	20.833191
451.113195	-3.016700	3.736900	-11.272000	23.764862	0.001061	20.835132
452.111833	-2.973800	3.738900	-11.118000	23.790030	0.001060	20.837606
453.114944	-3.000200	3.737400	-11.211000	23.790970	0.001062	20.833808
454.115964	-3.001800	3.738000	-11.219000	23.795128	0.001061	20.852201
455.112609	-3.004600	3.736500	-11.225000	23.804162	0.001062	20.833285
456.109901	-2.993300	3.737000	-11.185000	23.792389	0.001062	20.847084
457.111131	-3.006800	3.734200	-11.227000	23.783926	0.001063	20.840495
458.113342	-3.025200	3.734300	-11.295000	23.760729	0.001063	20.825772
459.110347	-3.002800	3.735400	-11.216000	23.731832	0.001063	20.838999
460.113394	-3.013500	3.735000	-11.255000	23.756823	0.001064	20.845563
461.110950	-2.990900	3.735400	-11.170000	23.748655	0.001063	20.857762
462.109838	-2.980500	3.734900	-11.131000	23.783926	0.001064	20.838599
463.111767	-2.982300	3.734800	-11.137000	23.794970	0.001063	20.852991
464.113625	-2.984800	3.734500	-11.145000	23.831880	0.001062	20.834050
465.114216	-3.013800	3.733400	-11.250000	23.865252	0.001064	20.849968
466.113131	-3.000100	3.733700	-11.200000	23.873119	0.001063	20.831304
467.115679	-2.991600	3.732400	-11.165000	23.875054	0.001062	20.855529
468.113439	-2.992500	3.730800	-11.164000	23.879931	0.001064	20.851884
469.114008	-3.027100	3.730500	-11.292000	23.868011	0.001064	20.858897
470.111258	-2.998600	3.731900	-11.188000	23.871685	0.001065	20.864004
471.112911	-2.990900	3.731800	-11.159000	23.873256	0.001062	20.839502
472.112307	-3.008600	3.731700	-11.225000	23.846598	0.001062	20.853548
473.115995	-2.999800	3.731900	-11.192000	23.877005	0.001064	20.862700
474.117067	-2.996400	3.731300	-11.180000	23.899579	0.001063	20.862102
475.115082	-3.001200	3.730800	-11.195000	23.921822	0.001063	20.832726
476.119717	-3.001800	3.729600	-11.195000	23.920281	0.001064	20.854886
477.116603	-2.998800	3.730100	-11.185000	23.936830	0.001062	20.846826
478.124155	-2.989000	3.730100	-11.148000	23.923610	0.001063	20.843527
479.117641	-2.998200	3.728900	-11.179000	23.901608	0.001061	20.862714
480.120840	-2.984700	3.729500	-11.130000	23.864779	0.001063	20.831476
481.119206	-2.983900	3.729100	-11.125000	23.883314	0.001062	20.845320
482.122775	-3.000600	3.727700	-11.185000	23.879531	0.001063	20.845794
483.119144	-2.998100	3.726300	-11.171000	23.904740	0.001062	20.838830
484.121173	-2.990600	3.728900	-11.151000	23.897229	0.001063	20.850738
485.129944	-2.991500	3.726700	-11.148000	23.929309	0.001064	20.816526
486.124249	-3.012300	3.726600	-11.224000	23.940228	0.001063	20.839329
487.121778	-2.994300	3.726100	-11.156000	23.934535	0.001064	20.832671
488.123673	-3.024900	3.724100	-11.264000	23.910341	0.001062	20.844920
489.123671	-3.023300	3.724300	-11.258000	23.889338	0.001063	20.834291
490.126894	-3.002600	3.725900	-11.186000	23.883270	0.001063	20.841008
491.126094	-2.996700	3.725600	-11.163000	23.899165	0.001063	20.834187
492.121509	-3.019600	3.723300	-11.242000	23.911907	0.001063	20.834163
493.129151	-3.010200	3.723500	-11.207000	23.944804	0.001064	20.848658
494.129135	-2.970900	3.725200	-11.067000	23.931619	0.001063	20.830695
495.127734	-2.992500	3.723900	-11.143000	23.968352	0.001062	20.829599
496.124072	-3.004100	3.723000	-11.184000	23.987033	0.001063	20.829367
497.125433	-2.980000	3.723500	-11.095000	24.012821	0.001062	20.813503
498.127307	-3.000500	3.722100	-11.166000	23.988629	0.001064	20.827174
499.123202	-2.979700	3.722200	-11.090000	23.988407	0.001060	20.837383
500.128294	-3.004200	3.720900	-11.177000	24.008339	0.001061	20.815172
501.128891	-2.993500	3.720500	-11.136000	24.037328	0.001062	20.845665
502.125779	-2.981700	3.721100	-11.094000	24.051315	0.001062	20.823183
503.126207	-2.994900	3.719700	-11.139000	24.078761	0.001064	20.815622
504.126042	-3.001200	3.719100	-11.161000	24.069758	0.001064	20.825559
505.122674	-2.978900	3.721600	-11.085000	24.115065	0.001061	20.819790
506.128073	-3.029800	3.719300	-11.267000	24.109515	0.001064	20.821810
507.123246	-3.004000	3.720300	-11.175000	24.112652	0.001062	20.834439
508.124338	-3.022600	3.717900	-11.237000	24.139299	0.001064	20.823707
509.127496	-3.004400	3.719900	-11.175000	24.132287	0.001064	20.834217
510.127171	-3.003800	3.719500	-11.172000	24.121709	0.001064	20.807487
511.126545	-3.020500	3.718900	-11.231000	24.115789	0.001063	20.804395
512.128589	-2.979400	3.719200	-11.080000	24.123304	0.001066	20.815725
513.125181	-3.012300	3.718300	-11.200000	24.115489	0.001065	20.814525
514.126772	-3.008500	3.718200	-11.185000	24.115341	0.001065	20.830024
515.129001	-3.021400	3.715300	-11.224000	24.129524	0.001064	20.797308
516.128911	-3.006900	3.716700	-11.175000	24.120192	0.001065	20.822561
517.124535	-3.032600	3.714900	-11.264000	24.156766	0.001063	20.827949
518.134711	-2.987900	3.716600	-11.104000	24.162936	0.001063	20.823707
519.127889	-3.002500	3.715100	-11.152000	24.147336	0.001066	20.818965
520.128599	-2.991700	3.714800	-11.113000	24.125313	0.001064	20.786446
521.137587	-2.998500	3.715900	-11.141000	24.130322	0.001063	20.824186
522.128906	-2.990800	3.714400	-11.107000	24.121334	0.001065	20.816595
523.129387	-2.989500	3.715500	-11.104000	24.140969	0.001065	20.808786
524.130790	-3.021100	3.714000	-11.219000	24.123152	0.001065	20.804193
525.134877	-2.999400	3.714800	-11.141000	24.111559	0.001065	20.792092
526.134238	-2.997900	3.714100	-11.134000	24.113401	0.001064	20.807215
527.137641	-3.012400	3.713300	-11.185000	24.091575	0.001063	20.829421
528.130755	-2.977700	3.713700	-11.056000	24.100863	0.001062	20.778045
529.135241	-3.004800	3.713900	-11.159000	24.132981	0.001064	20.802197
530.136973	-3.001600	3.712900	-11.143000	24.141294	0.001063	20.800577
531.134206	-2.996500	3.713200	-11.126000	24.154984	0.001065	20.787281
532.134915	-3.003700	3.712400	-11.150000	24.168934	0.001063	20.798903
533.136335	-3.000100	3.712200	-11.136000	24.156673	0.001065	20.794665
534.137931	-3.021100	3.712100	-11.213000	24.143761	0.001064	20.794517
535.139215	-2.988800	3.711700	-11.093000	24.163518	0.001063	20.791573
536.134525	-3.013600	3.710700	-11.182000	24.184663	0.001062	20.799031
537.137691	-3.014300	3.710600	-11.183000	24.186056	0.001063	20.786205
538.136755	-3.009000	3.710000	-11.162000	24.202626	0.001062	20.799506
539.135533	-3.015400	3.708900	-11.182000	24.150773	0.001062	20.796335
540.137382	-3.001900	3.709700	-11.134000	24.147316	0.001062	20.794290
541.138283	-3.001500	3.709900	-11.134000	24.129696	0.001064	20.792739
542.139030	-3.007400	3.708600	-11.152000	24.124796	0.001064	20.807265
543.137062	-3.011500	3.708300	-11.166000	24.130691	0.001063	20.787573
544.139777	-2.996400	3.708100	-11.110000	24.170298	0.001062	20.803590
545.141713	-2.994900	3.707600	-11.102000	24.180526	0.001064	20.792038
546.141265	-2.985300	3.707100	-11.066000	24.176917	0.001062	20.789840
547.141365	-3.004600	3.708800	-11.143000	24.219738	0.001064	20.775417
548.141034	-2.997900	3.707100	-11.112000	24.259489	0.001062	20.779729
549.142141	-2.979200	3.707800	-11.045000	24.273897	0.001061	20.775689
550.142368	-3.001900	3.706500	-11.126000	24.273793	0.001062	20.775111
551.140654	-3.015100	3.705800	-11.173000	24.255333	0.001063	20.775086
552.142174	-3.000000	3.706400	-11.118000	24.294212	0.001062	20.791326
553.145581	-3.029200	3.705300	-11.223000	24.263266	0.001063	20.800113
554.142485	-3.006400	3.704900	-11.136000	24.234333	0.001062	20.772039
555.137624	-3.012600	3.703600	-11.156000	24.196737	0.001066	20.773683
556.142492	-3.029000	3.704100	-11.219000	24.216320	0.001061	20.779102
557.144001	-3.019600	3.704300	-11.184000	24.203995	0.001062	20.782386
558.143272	-3.013000	3.703700	-11.158000	24.193866	0.001064	20.773649
559.143547	-2.999700	3.702800	-11.106000	24.195786	0.001062	20.796912
560.142830	-2.991200	3.702300	-11.073000	24.178664	0.001061	20.779264
561.139807	-2.994300	3.703700	-11.090000	24.176079	0.001064	20.803698
562.147765	-3.025500	3.700300	-11.194000	24.197519	0.001061	20.776365
563.144790	-2.994400	3.702000	-11.084000	24.169530	0.001061	20.787646
564.145037	-2.993800	3.702400	-11.083000	24.182810	0.001063	20.787216
565.146027	-2.999400	3.701800	-11.102000	24.195500	0.001061	20.769124
566.147202	-3.001000	3.701900	-11.108000	24.219634	0.001060	20.770097
567.147091	-2.998400	3.701500	-11.098000	24.226847	0.001059	20.777807
568.146646	-3.027700	3.699300	-11.199000	24.225651	0.001061	20.769969
569.146859	-2.990200	3.700400	-11.065000	24.194845	0.001059	20.794546
570.144838	-2.994800	3.700500	-11.081000	24.209327	0.001061	20.788683
571.144508	-3.011400	3.699300	-11.138000	24.208948	0.001060	20.773604
572.145928	-2.989300	3.700600	-11.062000	24.231791	0.001062	20.761429
573.145669	-3.002900	3.699500	-11.109000	24.248109	0.001062	20.775426
574.147810	-3.000000	3.698400	-11.094000	24.266988	0.001062	20.766388
575.148189	-2.991800	3.699100	-11.065000	24.289406	0.001061	20.759478
576.145705	-2.998800	3.697700	-11.088000	24.250591	0.001061	20.775545
577.158161	-2.999400	3.698500	-11.092000	24.242703	0.001060	20.788495
578.149220	-2.987600	3.698300	-11.048000	24.205033	0.001064	20.764461
579.148118	-2.989300	3.697000	-11.051000	24.205531	0.001058	20.772072
580.149341	-2.991500	3.696500	-11.057000	24.194136	0.001058	20.790515
581.148405	-2.983000	3.695600	-11.023000	24.199361	0.001062	20.773944
582.155048	-2.973100	3.697700	-10.991000	24.234982	0.001060	20.767474
583.152698	-2.994700	3.697000	-11.070000	24.242427	0.001060	20.784900
584.152353	-2.999200	3.696300	-11.084000	24.267751	0.001059	20.760515
585.154154	-2.988300	3.694000	-11.036000	24.264964	0.001060	20.785221
586.155290	-3.009400	3.695100	-11.119000	24.296309	0.001061	20.778256
587.157439	-3.000100	3.694500	-11.082000	24.344320	0.001062	20.765725
588.157341	-2.988900	3.694900	-11.042000	24.358322	0.001060	20.774557
589.150658	-2.984100	3.694200	-11.023000	24.341558	0.001060	20.759635
590.154270	-3.010700	3.693500	-11.119000	24.334364	0.001060	20.777550
591.156842	-2.995000	3.694100	-11.063000	24.353640	0.001061	20.767015
592.156956	-3.023300	3.691400	-11.159000	24.333296	0.001060	20.766995
593.155799	-3.012800	3.692700	-11.124000	24.336531	0.001061	20.777826
594.156233	-3.022800	3.692400	-11.160000	24.345753	0.001058	20.779491
595.156345	-3.009700	3.692900	-11.113000	24.358293	0.001058	20.778320
596.152952	-3.005600	3.690100	-11.090000	24.370158	0.001058	20.776473
597.153974	-3.011100	3.690400	-11.111000	24.381453	0.001059	20.746077
598.153176	-2.972700	3.692100	-10.974000	24.376150	0.001056	20.772527
599.151417	-2.993800	3.689400	-11.044000	24.353532	0.001059	20.749836
600.158126	-3.008600	3.689800	-11.099000	24.327062	0.001058	20.775915
601.156362	-3.009900	3.690800	-11.108000	24.329795	0.001059	20.759689
602.170335	-3.009300	3.690300	-11.104000	24.354428	0.001057	20.753105
603.159637	-2.996700	3.689600	-11.055000	24.354177	0.001057	20.751431
604.160373	-3.004400	3.689900	-11.085000	24.381640	0.001057	20.756696
605.164701	-3.013400	3.689800	-11.118000	24.397729	0.001058	20.764777
606.163749	-3.005600	3.689200	-11.087000	24.412829	0.001058	20.759062
607.163809	-3.009000	3.689300	-11.099000	24.429592	0.001057	20.772561
608.162364	-3.005800	3.689400	-11.087000	24.415739	0.001056	20.754869
609.163574	-2.994800	3.689000	-11.046000	24.408841	0.001055	20.752216
610.161823	-3.008600	3.688200	-11.096000	24.359986	0.001057	20.747302
611.161352	-3.009100	3.686600	-11.092000	24.350853	0.001056	20.763270
612.166094	-3.021200	3.685800	-11.132000	24.333488	0.001056	20.752962
613.163033	-3.001400	3.686700	-11.065000	24.344856	0.001056	20.752987
614.158832	-2.999900	3.686400	-11.058000	24.356077	0.001057	20.738638
615.165440	-2.995500	3.685800	-11.040000	24.379079	0.001055	20.771198
616.164221	-2.985600	3.686400	-11.005000	24.396493	0.001055	20.751209
617.171347	-3.003800	3.685000	-11.068000	24.442634	0.001053	20.747237
618.167846	-3.004000	3.683700	-11.065000	24.445962	0.001054	20.743464
619.167472	-2.996600	3.685600	-11.044000	24.467978	0.001054	20.741369
620.165851	-3.008600	3.683300	-11.081000	24.476485	0.001055	20.748482
621.165365	-3.005300	3.684000	-11.071000	24.500957	0.001053	20.765923
622.167178	-3.008700	3.683800	-11.082000	24.526048	0.001054	20.776873
623.162626	-3.016100	3.682200	-11.105000	24.510029	0.001055	20.743256
624.171735	-2.992400	3.682700	-11.019000	24.538109	0.001053	20.751989
625.167094	-3.007300	3.683800	-11.077000	24.521293	0.001052	20.764989
626.167914	-3.012700	3.681000	-11.088000	24.464354	0.001055	20.747692
627.170510	-2.996500	3.681800	-11.031000	24.457216	0.001052	20.750487
628.163254	-2.982400	3.682700	-10.983000	24.445696	0.001053	20.745568
629.169108	-3.015500	3.681300	-11.099000	24.462489	0.001053	20.760993
630.174284	-3.015900	3.680500	-11.099000	24.478730	0.001052	20.736509
631.171361	-3.020100	3.679800	-11.111000	24.475643	0.001053	20.751905
632.166265	-3.011500	3.680700	-11.082000	24.487108	0.001053	20.753925
633.169901	-3.003000	3.680200	-11.050000	24.486562	0.001051	20.738203
634.165411	-3.006500	3.680800	-11.066000	24.511432	0.001051	20.760312
635.169882	-2.990500	3.679800	-11.003000	24.536972	0.001053	20.742313
636.169854	-3.016300	3.678600	-11.095000	24.577362	0.001052	20.724516
637.170283	-3.018100	3.679200	-11.103000	24.579331	0.001051	20.748778
638.172560	-3.022800	3.677100	-11.112000	24.579326	0.001051	20.737867
639.177496	-2.999900	3.679100	-11.036000	24.605562	0.001053	20.764668
640.174990	-2.994100	3.678200	-11.012000	24.600089	0.001050	20.748744
641.168211	-2.995200	3.678500	-11.017000	24.599562	0.001051	20.742051
642.179662	-3.007800	3.676500	-11.057000	24.569766	0.001051	20.734440
643.171154	-3.022400	3.675600	-11.108000	24.545517	0.001051	20.758000
644.169138	-3.011300	3.676600	-11.069000	24.504545	0.001052	20.747237
645.182552	-3.026100	3.675100	-11.120000	24.471183	0.001050	20.726566
646.176886	-2.994800	3.676700	-11.009000	24.437977	0.001049	20.737823
647.173767	-3.013200	3.674900	-11.072000	24.421681	0.001050	20.741389
648.179074	-2.987700	3.676200	-10.982000	24.394066	0.001049	20.739764
649.173412	-2.990600	3.676200	-10.992000	24.413242	0.001051	20.757106
650.171014	-3.005400	3.674800	-11.044000	24.459333	0.001049	20.735067
651.172873	-3.016700	3.674800	-11.085000	24.505373	0.001049	20.739532
652.171276	-2.996600	3.674300	-11.009000	24.526733	0.001050	20.756222
653.171578	-3.005000	3.673400	-11.038000	24.561354	0.001047	20.734059
654.175370	-3.014100	3.673000	-11.069000	24.583062	0.001048	20.738298
655.171490	-2.997800	3.673000	-11.010000	24.590151	0.001049	20.727866
656.172210	-3.004400	3.673200	-11.035000	24.623652	0.001047	20.736826
657.175931	-3.015100	3.671900	-11.070000	24.614620	0.001049	20.743884
658.172769	-3.002800	3.672600	-11.027000	24.586961	0.001047	20.749796
659.173634	-2.997200	3.672500	-11.006000	24.574246	0.001046	20.728977
660.177033	-2.994300	3.673400	-10.997000	24.559523	0.001047	20.748818
661.173587	-3.002700	3.670900	-11.022000	24.594886	0.001047	20.733092
662.174607	-2.993800	3.670000	-10.986000	24.569265	0.001048	20.726824
663.181808	-3.003600	3.670400	-11.023000	24.595482	0.001046	20.735112
664.174258	-3.019600	3.669300	-11.078000	24.596845	0.001046	20.741222
665.175493	-2.990600	3.670700	-10.976000	24.636013	0.001046	20.753022
666.179290	-2.996900	3.671300	-11.002000	24.657843	0.001048	20.736520
667.179856	-3.003800	3.669700	-11.022000	24.649066	0.001045	20.707797
668.179176	-3.004300	3.668800	-11.021000	24.635983	0.001046	20.727861
669.181865	-3.017400	3.668100	-11.066000	24.629412	0.001044	20.753037
670.175848	-3.008800	3.667500	-11.034000	24.603028	0.001044	20.749797
671.176651	-3.003000	3.668500	-11.015000	24.603624	0.001044	20.731902
672.182437	-2.998200	3.667700	-10.995000	24.585440	0.001041	20.737839
673.177464	-2.993300	3.668300	-10.979000	24.612922	0.001044	20.729852
674.182069	-3.016900	3.666800	-11.062000	24.647939	0.001044	20.733220
675.181266	-2.967800	3.669000	-10.888000	24.648136	0.001044	20.704019
676.179123	-2.991000	3.666400	-10.964000	24.670862	0.001044	20.731092
677.178330	-3.005000	3.666300	-11.015000	24.689861	0.001041	20.733561
678.183760	-3.006700	3.665900	-11.021000	24.705360	0.001045	20.719242
679.180193	-3.001900	3.666100	-11.005000	24.682030	0.001042	20.741825
680.180553	-3.002500	3.667200	-11.010000	24.662036	0.001042	20.746893
681.182010	-3.001800	3.666600	-11.006000	24.641422	0.001041	20.729052
682.178363	-3.022800	3.664600	-11.076000	24.635176	0.001039	20.742225
683.180871	-3.013000	3.665600	-11.043000	24.617072	0.001040	20.717893
684.182302	-3.002900	3.664600	-11.003000	24.575339	0.001041	20.717271
685.181720	-3.021400	3.664000	-11.069000	24.551686	0.001040	20.727678
686.181679	-2.997600	3.664900	-10.984000	24.540920	0.001041	20.719247
687.185747	-2.970800	3.665100	-10.888000	24.543554	0.001038	20.725683
688.184823	-3.006700	3.663100	-11.012000	24.571214	0.001041	20.735893
689.183130	-3.016800	3.663100	-11.049000	24.581807	0.001041	20.715226
690.178981	-3.002100	3.663000	-10.995000	24.590688	0.001038	20.718921
691.181128	-2.992400	3.663200	-10.961000	24.573208	0.001040	20.708494
692.183209	-2.986200	3.663600	-10.939000	24.600542	0.001039	20.709842
693.184908	-3.021600	3.661100	-11.062000	24.603323	0.001037	20.717849
694.188541	-2.996200	3.661700	-10.970000	24.630756	0.001037	20.726409
695.182840	-2.986400	3.660700	-10.932000	24.656523	0.001039	20.711487
696.185491	-3.016100	3.660600	-11.039000	24.642254	0.001039	20.713764
697.181809	-2.986200	3.661300	-10.933000	24.607606	0.001037	20.714085
698.186222	-3.006700	3.660700	-11.006000	24.641107	0.001038	20.718777
699.183501	-3.024700	3.659200	-11.066000	24.660058	0.001036	20.731630
700.186732	-3.008700	3.658800	-11.006000	24.679111	0.001035	20.730834
701.187831	-2.986500	3.661000	-10.932000	24.693562	0.001035	20.719257
702.187203	-3.000100	3.659100	-10.975000	24.688758	0.001036	20.726290
703.192309	-2.989300	3.659800	-10.939000	24.684978	0.001036	20.713961
704.189867	-2.999800	3.658400	-10.973000	24.701191	0.001035	20.700832
705.188875	-2.978800	3.658300	-10.897000	24.675252	0.001035	20.700408
706.192267	-2.982000	3.658200	-10.908000	24.670202	0.001034	20.747500
707.189385	-2.993200	3.658000	-10.948000	24.649879	0.001034	20.725683
708.187553	-2.987400	3.657700	-10.925000	24.672063	0.001034	20.734668
709.186938	-2.989500	3.656900	-10.931000	24.663479	0.001035	20.721786
710.187481	-3.007500	3.655100	-10.992000	24.696353	0.001035	20.708780
711.193843	-3.010800	3.655000	-11.003000	24.706994	0.001035	20.714243
712.197177	-3.013000	3.655600	-11.013000	24.734375	0.001033	20.732238
713.189430	-2.996400	3.656200	-10.954000	24.696343	0.001034	20.729161
714.193139	-3.010200	3.656400	-11.005000	24.682591	0.001035	20.717731
715.198149	-3.005800	3.654000	-10.982000	24.653713	0.001032	20.728583
716.192402	-2.996200	3.655700	-10.952000	24.668908	0.001033	20.724863
717.189389	-2.977900	3.657000	-10.888000	24.687056	0.001034	20.726005
718.196039	-2.998700	3.654500	-10.958000	24.649254	0.001033	20.741178
719.195766	-2.995000	3.653700	-10.941000	24.634350	0.001035	20.744241
720.193666	-2.995700	3.653000	-10.943000	24.632657	0.001031	20.736377
721.190683	-3.001300	3.655200	-10.970000	24.625642	0.001031	20.724123
722.198844	-3.000100	3.653600	-10.958000	24.613425	0.001032	20.723244
723.193054	-3.003400	3.652500	-10.969000	24.651573	0.001031	20.733547
724.198410	-2.987900	3.653300	-10.915000	24.693179	0.001031	20.745901
725.189875	-2.999300	3.651600	-10.951000	24.702452	0.001031	20.727230
726.194278	-3.001400	3.651200	-10.957000	24.686481	0.001031	20.742972
727.197755	-2.995200	3.651600	-10.936000	24.711273	0.001030	20.734185
728.194202	-3.010000	3.650700	-10.988000	24.686171	0.001030	20.745506
729.196821	-2.991700	3.650600	-10.921000	24.686619	0.001029	20.725092
730.199050	-2.989700	3.650700	-10.913000	24.685895	0.001028	20.734798
731.197388	-2.996400	3.649400	-10.934000	24.665651	0.001029	20.726811
732.195281	-3.003200	3.649500	-10.959000	24.664406	0.001027	20.722242
733.197192	-2.995400	3.650900	-10.935000	24.687304	0.001029	20.740004
734.207853	-2.984600	3.649800	-10.893000	24.714182	0.001029	20.747537
735.193485	-2.971100	3.650200	-10.844000	24.730799	0.001029	20.719639
736.199223	-3.011900	3.647900	-10.986000	24.781994	0.001027	20.744465
737.199879	-3.008800	3.648400	-10.975000	24.785750	0.001026	20.724999
738.196681	-2.988100	3.649800	-10.904000	24.789574	0.001028	20.723147
739.198097	-3.014400	3.649000	-10.999000	24.793004	0.001026	20.749350
740.195514	-3.009700	3.648200	-10.979000	24.780991	0.001027	20.758631
741.196558	-3.026800	3.645100	-11.031000	24.822912	0.001027	20.741907
742.195574	-3.010000	3.646300	-10.974000	24.823680	0.001027	20.732245
743.198575	-2.987500	3.647500	-10.896000	24.827381	0.001026	20.762039
744.202467	-2.993800	3.647400	-10.918000	24.866249	0.001027	20.742727
745.196799	-2.997100	3.645800	-10.926000	24.890644	0.001026	20.725009
746.199232	-3.001300	3.645100	-10.940000	24.849335	0.001026	20.733811
747.199682	-2.990800	3.645900	-10.903000	24.803104	0.001023	20.736726
748.201379	-3.005100	3.644900	-10.953000	24.766576	0.001024	20.734681
749.199662	-3.013500	3.644200	-10.981000	24.741657	0.001025	20.741443
750.200645	-2.991400	3.646000	-10.905000	24.779673	0.001027	20.751144
751.198537	-3.002500	3.644600	-10.941000	24.781464	0.001022	20.751519
752.197483	-3.019500	3.642600	-10.996000	24.805260	0.001024	20.750744
753.199635	-2.992700	3.646100	-10.911000	24.794384	0.001023	20.763063
754.202738	-2.996500	3.643700	-10.917000	24.791574	0.001022	20.753130
755.202234	-2.992000	3.644700	-10.903000	24.814749	0.001024	20.737033
756.202172	-3.010600	3.643100	-10.966000	24.824543	0.001022	20.727895
757.209148	-3.007700	3.642000	-10.953000	24.867860	0.001020	20.736756
758.200866	-3.002200	3.640900	-10.930000	24.884720	0.001020	20.745143
759.204113	-2.988200	3.643200	-10.885000	24.905694	0.001021	20.742961
760.202907	-2.988600	3.640900	-10.881000	24.918676	0.001021	20.747455
761.204097	-3.004200	3.642500	-10.942000	24.948290	0.001024	20.759161
762.204581	-2.996000	3.641200	-10.908000	24.950745	0.001019	20.745979
763.201227	-2.992200	3.640300	-10.892000	24.954672	0.001021	20.748024
764.206087	-3.000800	3.641400	-10.925000	24.961881	0.001019	20.766166
765.204762	-3.012800	3.639400	-10.964000	24.989998	0.001020	20.760723
766.208642	-3.018800	3.640600	-10.988000	24.986539	0.001021	20.752035
767.201823	-2.995900	3.639100	-10.901000	24.999515	0.001018	20.744196
768.204830	-3.007500	3.639200	-10.944000	24.989201	0.001018	20.739059
769.205008	-3.006000	3.639800	-10.940000	24.991362	0.001021	20.753082
770.203459	-3.000700	3.637700	-10.914000	24.934753	0.001017	20.755532
771.206273	-3.015200	3.637200	-10.966000	24.963166	0.001017	20.765084
772.207909	-3.018600	3.637500	-10.979000	24.964263	0.001018	20.756228
773.202327	-2.999800	3.638100	-10.912000	24.975974	0.001016	20.765613
774.206013	-3.015900	3.638100	-10.971000	25.009390	0.001016	20.727555
775.205920	-3.009200	3.635300	-10.937000	25.024880	0.001015	20.765864
776.203973	-3.025100	3.636300	-10.999000	25.011255	0.001016	20.768783
777.206895	-2.993600	3.637600	-10.888000	24.984428	0.001015	20.757976
778.205646	-3.027400	3.635700	-11.005000	24.956533	0.001016	20.759374
779.212904	-3.002300	3.636300	-10.915000	24.948905	0.001014	20.760727
780.208930	-2.998000	3.634900	-10.897000	24.923641	0.001014	20.767613
781.209626	-3.028700	3.633900	-11.005000	24.940205	0.001015	20.757211
782.205698	-3.009300	3.634400	-10.936000	24.917303	0.001013	20.760777
783.212655	-3.006600	3.634800	-10.928000	24.910241	0.001012	20.768388
784.208697	-3.003600	3.632900	-10.910000	24.924246	0.001015	20.759685
785.210546	-2.993900	3.634800	-10.881000	24.920585	0.001014	20.783986
786.208872	-3.017400	3.634400	-10.965000	24.948984	0.001013	20.765548
787.209713	-3.003800	3.634100	-10.915000	24.987774	0.001012	20.754222
788.213482	-2.995300	3.633400	-10.882000	25.001123	0.001013	20.763829
789.212667	-2.988300	3.633900	-10.857000	25.000002	0.001013	20.757487
790.219621	-3.008300	3.633800	-10.931000	24.991179	0.001013	20.770917
791.211494	-3.004400	3.633000	-10.914000	24.999632	0.001011	20.764703
792.213422	-3.003700	3.631700	-10.907000	24.990608	0.001012	20.764654
793.217594	-3.007800	3.632600	-10.924000	25.009995	0.001012	20.776528
794.217319	-2.998500	3.631500	-10.889000	24.993418	0.001011	20.765577
795.217366	-3.010400	3.631300	-10.931000	24.976633	0.001009	20.748255
796.213579	-3.016800	3.629900	-10.950000	25.012933	0.001009	20.759561
797.217265	-3.025500	3.629300	-10.980000	25.036153	0.001010	20.767222
798.214591	-2.997400	3.631100	-10.883000	25.039188	0.001010	20.765054
799.213542	-3.037600	3.627500	-11.018000	25.067727	0.001009	20.747707
800.217754	-2.956300	3.632600	-10.736000	25.078866	0.001009	20.769795
801.214512	-2.986300	3.629400	-10.837000	25.107009	0.001009	20.765330
802.220078	-3.002500	3.629200	-10.896000	25.106488	0.001008	20.762910
803.219618	-2.994100	3.629300	-10.865000	25.132367	0.001007	20.766604
804.218120	-3.007800	3.628200	-10.912000	25.095383	0.001007	20.785902
805.218719	-3.018500	3.627100	-10.946000	25.084844	0.001005	20.758252
806.217345	-2.991600	3.629700	-10.858000	25.101675	0.001004	20.756182
807.222498	-3.002600	3.628300	-10.893000	25.090910	0.001004	20.773351
808.216959	-3.006100	3.627500	-10.904000	25.130734	0.001004	20.762119
809.222549	-2.999400	3.627600	-10.880000	25.125370	0.001003	20.777599
810.218099	-3.011300	3.626100	-10.919000	25.084578	0.001004	20.774581
811.220850	-2.994300	3.627200	-10.860000	25.085345	0.001004	20.758281
812.218347	-2.991700	3.626800	-10.849000	25.099269	0.001005	20.774156
813.220358	-3.001700	3.626100	-10.884000	25.110935	0.001005	20.783970
814.217949	-2.981000	3.625800	-10.807000	25.110935	0.001004	20.771642
815.220962	-2.987800	3.625500	-10.832000	25.097011	0.001003	20.749603
816.216423	-3.002900	3.624400	-10.882000	25.067332	0.001005	20.764381
817.226815	-3.002900	3.625800	-10.886000	25.046046	0.001003	20.783318
818.217916	-2.994700	3.625800	-10.857000	24.984525	0.001001	20.763289
819.219143	-3.002800	3.624300	-10.882000	25.002923	0.001002	20.766109
820.225111	-3.019400	3.622300	-10.935000	25.000664	0.001003	20.779015
821.221255	-2.986800	3.624000	-10.823000	25.033528	0.001002	20.779287
822.225171	-2.994100	3.623300	-10.846000	25.042331	0.001002	20.758725
823.222966	-3.003900	3.623800	-10.885000	25.036141	0.001001	20.795186
824.225716	-2.992700	3.623400	-10.842000	25.026718	0.001002	20.771503
825.222226	-3.001500	3.623100	-10.874000	24.994474	0.001000	20.750042
826.225750	-2.991500	3.623400	-10.838000	25.003400	0.001001	20.770856
827.224875	-3.027100	3.621000	-10.960000	25.040122	0.001002	20.789224
828.225873	-2.990100	3.620500	-10.825000	25.071174	0.001000	20.776773
829.225555	-3.017400	3.620300	-10.922000	25.097497	0.001001	20.799404
830.227636	-2.987700	3.621800	-10.819000	25.111220	0.001001	20.779514
831.225694	-2.993300	3.619800	-10.833000	25.106870	0.000997	20.781312
832.225872	-2.989200	3.621700	-10.825000	25.086161	0.000999	20.781860
833.228549	-2.989700	3.621100	-10.825000	25.061496	0.000996	20.777015
834.226125	-3.003000	3.619200	-10.867000	25.027840	0.000998	20.789699
835.226646	-2.992500	3.619400	-10.830000	25.025724	0.000999	20.791842
836.232871	-2.994600	3.620300	-10.840000	25.013664	0.000999	20.794435
837.233414	-2.992700	3.618900	-10.828000	25.019308	0.000999	20.783979
838.227805	-2.991100	3.618400	-10.822000	25.027712	0.000998	20.784829
839.231060	-2.995300	3.619300	-10.840000	25.045318	0.000997	20.789224
840.226715	-3.008800	3.618300	-10.886000	25.100828	0.000996	20.779514
841.228898	-3.015800	3.617300	-10.908000	25.106870	0.000995	20.790795
842.231022	-3.001900	3.616000	-10.854000	25.121237	0.000994	20.781984
843.224693	-3.008200	3.618100	-10.883000	25.143908	0.000996	20.798579
844.225985	-2.997300	3.615800	-10.837000	25.117807	0.000995	20.778067
845.231722	-2.988400	3.617400	-10.810000	25.144007	0.000994	20.780660
846.232481	-3.015300	3.616100	-10.902000	25.138191	0.000994	20.824608
847.231410	-3.001000	3.617300	-10.854000	25.126231	0.000993	20.810705
848.234083	-2.973200	3.617300	-10.754000	25.103534	0.000995	20.786024
849.234146	-3.004400	3.614400	-10.858000	25.122157	0.000993	20.793339
850.228751	-2.992200	3.614900	-10.816000	25.114496	0.000995	20.806037
851.235839	-2.990000	3.615300	-10.809000	25.075066	0.000991	20.795379
852.230664	-3.004500	3.613300	-10.855000	25.076380	0.000994	20.803336
853.233526	-3.031900	3.612800	-10.952000	25.090029	0.000991	20.804709
854.237478	-3.014000	3.613200	-10.889000	25.105247	0.000991	20.815244
855.231157	-3.013900	3.612500	-10.887000	25.088066	0.000992	20.811273
856.251444	-3.001400	3.614100	-10.846000	25.118044	0.000990	20.797271
857.237626	-3.008300	3.613100	-10.868000	25.127191	0.000993	20.784167
858.237895	-3.014500	3.612800	-10.889000	25.169793	0.000991	20.810340
859.237624	-2.970800	3.612600	-10.731000	25.195798	0.000991	20.784291
860.238667	-2.982900	3.613200	-10.777000	25.204246	0.000992	20.778073
861.240773	-2.996500	3.612900	-10.825000	25.228554	0.000989	20.795839
862.236333	-2.985600	3.610500	-10.779000	25.216993	0.000989	20.809362
863.238675	-3.005800	3.610500	-10.852000	25.197206	0.000988	20.819369
864.235750	-2.991100	3.611500	-10.800000	25.166182	0.000987	20.801499
865.238506	-3.014500	3.611500	-10.885000	25.138984	0.000989	20.809757
866.240386	-2.991800	3.610600	-10.801000	25.137464	0.000989	20.791636
867.238958	-2.987900	3.611900	-10.791000	25.114168	0.000986	20.797647
868.241844	-3.001900	3.611200	-10.839000	25.084288	0.000986	20.817438
869.243916	-2.984700	3.610800	-10.776000	25.092259	0.000988	20.810267
870.239616	-2.988700	3.610300	-10.789000	25.092658	0.000985	20.814460
871.241411	-3.009900	3.608400	-10.860000	25.115679	0.000984	20.821923
872.246315	-2.999700	3.609100	-10.825000	25.124024	0.000985	20.809437
873.249774	-2.992400	3.608300	-10.794000	25.166577	0.000986	20.813275
874.241767	-2.981700	3.609600	-10.762000	25.186438	0.000984	20.796231
875.247037	-2.990200	3.608500	-10.789000	25.216512	0.000983	20.817414
876.246006	-2.997900	3.607900	-10.814000	25.224989	0.000982	20.837304
877.247815	-2.984500	3.606400	-10.762000	25.215194	0.000982	20.835056
878.248161	-2.990900	3.607100	-10.787000	25.179895	0.000982	20.834232
879.247183	-3.006600	3.606200	-10.840000	25.201119	0.000983	20.819504
880.245558	-2.995700	3.607500	-10.805000	25.195028	0.000982	20.812441
881.253499	-2.976100	3.607700	-10.736000	25.271134	0.000980	20.799709
882.245832	-2.999200	3.606500	-10.815000	25.253488	0.000982	20.816131
883.245451	-3.017000	3.604700	-10.874000	25.273545	0.000979	20.813034
884.243353	-3.003800	3.603900	-10.825000	25.300360	0.000979	20.853707
885.243348	-2.983400	3.604400	-10.752000	25.263253	0.000978	20.831625
886.246850	-2.976700	3.604700	-10.729000	25.241352	0.000980	20.843775
887.248232	-2.989100	3.604800	-10.775000	25.189725	0.000979	20.819919
888.246939	-2.976400	3.603600	-10.723000	25.199791	0.000977	20.825283
889.245970	-3.006300	3.602900	-10.829000	25.205139	0.000978	20.824962
890.250189	-2.989000	3.602500	-10.767000	25.216543	0.000976	20.831669
891.245449	-3.014400	3.603800	-10.861000	25.209011	0.000978	20.840703
892.248921	-3.021300	3.601300	-10.879000	25.197203	0.000975	20.843547
893.255529	-2.995800	3.601900	-10.790000	25.230662	0.000974	20.836361
894.248462	-2.988200	3.603000	-10.765000	25.241450	0.000975	20.844347
895.249949	-2.985700	3.601900	-10.753000	25.275473	0.000975	20.845316
896.253430	-3.010800	3.600000	-10.837000	25.313750	0.000974	20.830642
897.252498	-2.974300	3.601900	-10.711000	25.297197	0.000974	20.847686
898.251520	-2.982000	3.600400	-10.735000	25.301841	0.000972	20.827694
899.251423	-2.998400	3.600400	-10.794000	25.310248	0.000973	20.837083
900.250635	-3.011500	3.599200	-10.838000	25.340422	0.000974	20.840826
901.249074	-3.007900	3.599700	-10.824000	25.327918	0.000971	20.822108
902.253298	-2.983900	3.598800	-10.738000	25.370895	0.000971	20.860517
903.254965	-2.996600	3.599600	-10.785000	25.367688	0.000971	20.840229
904.249927	-2.999600	3.597600	-10.791000	25.345238	0.000970	20.822429
905.254005	-2.994500	3.599400	-10.778000	25.285839	0.000969	20.845291
906.253239	-2.996500	3.598900	-10.783000	25.254526	0.000967	20.863164
907.252386	-3.000200	3.597500	-10.792000	25.245770	0.000969	20.853425
908.257257	-2.997400	3.597300	-10.782000	25.220346	0.000968	20.848289
909.257495	-2.996700	3.596400	-10.777000	25.185873	0.000969	20.833595
910.257824	-2.988600	3.597200	-10.749000	25.160664	0.000970	20.852383
911.256798	-2.979400	3.597200	-10.716000	25.168501	0.000968	20.854561
912.255733	-2.983800	3.597400	-10.733000	25.183167	0.000968	20.823767
913.256849	-3.015800	3.595600	-10.843000	25.243196	0.000968	20.851316
914.257586	-3.011700	3.596200	-10.830000	25.261492	0.000966	20.840287
915.260750	-2.959700	3.597400	-10.645000	25.300242	0.000967	20.836519
916.253825	-2.997400	3.594600	-10.774000	25.309863	0.000965	20.837171
917.262838	-3.013500	3.593100	-10.827000	25.330790	0.000965	20.856758
918.255013	-2.996300	3.595300	-10.771000	25.342669	0.000966	20.839290
919.258066	-3.006000	3.593500	-10.800000	25.333549	0.000964	20.844831
920.261177	-2.975500	3.594400	-10.694000	25.312598	0.000965	20.840865
921.259997	-3.031000	3.592400	-10.886000	25.329373	0.000964	20.859129
922.263582	-2.992300	3.593200	-10.751000	25.325300	0.000963	20.859307
923.259049	-2.999200	3.591500	-10.771000	25.296119	0.000962	20.850871
924.261277	-2.986300	3.592900	-10.728000	25.294678	0.000960	20.847053
925.260866	-2.992300	3.592900	-10.750000	25.268104	0.000963	20.874899
926.259070	-3.007800	3.592400	-10.804000	25.263430	0.000962	20.848397
927.257962	-3.009900	3.591900	-10.810000	25.264576	0.000961	20.857608
928.261737	-2.995300	3.591300	-10.756000	25.305436	0.000961	20.843631
929.260015	-3.000400	3.590300	-10.771000	25.296907	0.000961	20.868256
930.264602	-2.967000	3.592200	-10.658000	25.319230	0.000960	20.847523
931.267310	-3.002700	3.590400	-10.780000	25.354869	0.000959	20.844900
932.258270	-2.993900	3.588900	-10.744000	25.384471	0.000958	20.844752
933.272975	-2.994200	3.591100	-10.750000	25.394908	0.000959	20.852388
934.261312	-2.988400	3.588700	-10.724000	25.432610	0.000957	20.854210
935.261992	-3.014300	3.588200	-10.814000	25.462756	0.000958	20.862196
936.263654	-3.025300	3.587800	-10.853000	25.491160	0.000958	20.851365
937.265350	-2.990400	3.589400	-10.733000	25.486291	0.000957	20.856907
938.264324	-3.010300	3.587100	-10.796000	25.511566	0.000958	20.858107
939.266742	-3.000900	3.587600	-10.764000	25.528465	0.000956	20.866542
940.268289	-2.997200	3.587900	-10.753000	25.548763	0.000955	20.860374
941.265637	-3.000900	3.587600	-10.765000	25.549535	0.000955	20.850718
942.266002	-2.997900	3.587000	-10.752000	25.509447	0.000956	20.845073
943.267472	-3.005400	3.589200	-10.785000	25.479479	0.000956	20.837265
944.266999	-2.999900	3.586900	-10.759000	25.422719	0.000953	20.850442
945.267267	-3.015800	3.584600	-10.810000	25.395627	0.000952	20.837937
946.267550	-2.984500	3.586600	-10.703000	25.411558	0.000953	20.836391
947.267250	-3.008000	3.584500	-10.782000	25.423388	0.000952	20.851114
948.268056	-2.992900	3.584900	-10.728000	25.468393	0.000953	20.825184
949.271588	-3.017100	3.583400	-10.811000	25.472490	0.000952	20.842100
950.270600	-3.033100	3.582800	-10.864000	25.495577	0.000952	20.839206
951.275779	-2.988600	3.583300	-10.708000	25.486380	0.000950	20.838031
952.269117	-2.979700	3.584700	-10.680000	25.493738	0.000948	20.846842
953.276843	-2.989800	3.583200	-10.712000	25.489361	0.000950	20.823955
954.269307	-3.003800	3.582500	-10.759000	25.491368	0.000950	20.823600
955.268362	-3.002400	3.582400	-10.754000	25.504042	0.000949	20.850551
956.267950	-2.973800	3.584400	-10.658000	25.552300	0.000948	20.828840
957.270205	-3.002800	3.580200	-10.749000	25.541313	0.000948	20.828712
958.268959	-2.974900	3.581400	-10.652000	25.583008	0.000948	20.832653
959.268121	-2.988500	3.580700	-10.700000	25.565235	0.000947	20.837563
960.269319	-2.983500	3.582500	-10.687000	25.593587	0.000948	20.827631
961.272101	-3.016500	3.580800	-10.799000	25.562275	0.000946	20.833641
962.269761	-2.988500	3.580600	-10.699000	25.554101	0.000945	20.835390
963.269403	-3.010800	3.580700	-10.780000	25.538643	0.000943	20.810384
964.271005	-2.994700	3.580400	-10.721000	25.492840	0.000944	20.819388
965.268821	-3.002600	3.579100	-10.746000	25.487218	0.000944	20.827019
966.269486	-3.028100	3.577700	-10.833000	25.506355	0.000944	20.823477
967.272654	-2.987900	3.579500	-10.693000	25.530307	0.000941	20.808651
968.271122	-2.970600	3.580600	-10.634000	25.530032	0.000942	20.820702
969.271499	-2.992300	3.578300	-10.706000	25.569092	0.000942	20.830057
970.271756	-2.990700	3.578100	-10.699000	25.590141	0.000943	20.819902
971.273600	-3.015100	3.578900	-10.789000	25.621896	0.000943	20.835198
972.275326	-3.018400	3.575900	-10.792000	25.604624	0.000942	20.809318
973.276815	-2.998400	3.577400	-10.726000	25.593589	0.000941	20.823839
974.274093	-2.981100	3.576000	-10.660000	25.542008	0.000940	20.802383
975.271622	-2.980100	3.577200	-10.659000	25.540115	0.000941	20.806646
976.273297	-2.982400	3.577200	-10.666000	25.525778	0.000939	20.816430
977.274512	-2.994900	3.576200	-10.710000	25.527067	0.000938	20.835742
978.274498	-2.993800	3.574700	-10.701000	25.514594	0.000938	20.828906
979.278203	-3.011000	3.574400	-10.762000	25.513178	0.000937	20.806147
980.275075	-2.990300	3.574400	-10.688000	25.533426	0.000938	20.808464
981.276296	-3.001400	3.575600	-10.730000	25.523388	0.000937	20.814978
982.279044	-2.975600	3.574500	-10.635000	25.548284	0.000935	20.811057
983.277258	-2.974500	3.576200	-10.636000	25.511034	0.000936	20.799727
984.276012	-3.003200	3.574600	-10.734000	25.497887	0.000936	20.811655
985.277685	-3.009400	3.573400	-10.752000	25.485808	0.000935	20.808059
986.278640	-3.004400	3.571500	-10.730000	25.512544	0.000934	20.798399
987.278007	-3.009200	3.572200	-10.747000	25.484584	0.000932	20.804459
988.282164	-3.011400	3.572700	-10.757000	25.498223	0.000935	20.822423
989.277987	-2.993500	3.571400	-10.690000	25.443397	0.000932	20.800084
990.278222	-2.994100	3.572500	-10.696000	25.408331	0.000934	20.793322
991.282735	-2.993300	3.571900	-10.690000	25.417328	0.000932	20.808520
992.276889	-2.987800	3.570000	-10.667000	25.415188	0.000932	20.810164
993.273619	-3.003700	3.570900	-10.725000	25.414958	0.000931	20.803295
994.276842	-3.003600	3.569200	-10.719000	25.437898	0.000932	20.808787
995.276865	-2.994000	3.570400	-10.689000	25.469854	0.000931	20.802470
996.278347	-3.040100	3.568500	-10.847000	25.509241	0.000931	20.799349
997.276037	-3.018200	3.569000	-10.771000	25.507574	0.000930	20.802416
998.279749	-2.997300	3.569600	-10.698000	25.546954	0.000928	20.806876
999.278705	-3.013000	3.567600	-10.748000	25.576497	0.000928	20.808571
1000.282323	-2.999000	3.569200	-10.703000	25.570955	0.000927	20.799211
1001.280159	-2.994400	3.568600	-10.684000	25.568245	0.000926	20.794593
1002.277812	-3.023900	3.565500	-10.781000	25.542125	0.000927	20.818622
1003.282589	-2.995800	3.568300	-10.689000	25.527263	0.000927	20.806541
1004.281171	-2.997100	3.567700	-10.692000	25.511333	0.000924	20.811881
1005.281635	-2.986200	3.568500	-10.655000	25.495102	0.000924	20.801272
1006.286493	-3.009100	3.565400	-10.727000	25.466374	0.000924	20.801820
1007.282255	-2.984200	3.566400	-10.641000	25.438289	0.000924	20.792584
1008.283376	-3.023500	3.564400	-10.775000	25.427055	0.000923	20.802640
1009.284935	-3.014600	3.565700	-10.748000	25.426977	0.000922	20.802087
1010.285389	-2.981000	3.566300	-10.630000	25.450611	0.000923	20.802586
1011.284225	-3.006700	3.563600	-10.713000	25.477323	0.000922	20.790530
1012.286995	-3.009500	3.564000	-10.725000	25.525085	0.000921	20.810519
1013.284922	-3.004200	3.563400	-10.703000	25.517575	0.000922	20.791123
1014.285913	-3.000100	3.563200	-10.689000	25.523521	0.000920	20.803258
1015.285407	-2.995300	3.563200	-10.671000	25.535842	0.000920	20.826536
1016.285629	-2.985300	3.564200	-10.639000	25.528784	0.000919	20.805224
1017.285127	-3.003300	3.562900	-10.699000	25.499058	0.000921	20.804770
1018.286409	-3.007200	3.562400	-10.713000	25.515063	0.000919	20.796186
1019.286206	-2.990000	3.561000	-10.647000	25.499157	0.000918	20.790645
1020.288097	-2.972300	3.562200	-10.587000	25.510882	0.000915	20.782979
1021.287412	-2.976400	3.561800	-10.599000	25.475967	0.000917	20.783004
1022.288318	-2.994200	3.560200	-10.659000	25.438768	0.000917	20.803970
1023.287593	-3.015000	3.560000	-10.732000	25.448979	0.000918	20.783404
1024.290835	-3.012400	3.560300	-10.724000	25.424273	0.000916	20.784200
1025.292863	-3.016200	3.559900	-10.737000	25.430711	0.000915	20.808208
1026.288805	-3.020200	3.558800	-10.746000	25.429886	0.000916	20.795051
1027.291801	-2.985900	3.558600	-10.623000	25.394368	0.000915	20.807750
1028.289024	-2.999500	3.558500	-10.672000	25.412833	0.000913	20.788359
1029.288523	-3.002200	3.558700	-10.684000	25.475412	0.000912	20.793826
1030.293073	-3.004100	3.558300	-10.688000	25.478491	0.000913	20.804505
1031.290533	-3.012400	3.558200	-10.718000	25.487433	0.000912	20.785984
1032.290429	-3.006600	3.557700	-10.696000	25.487458	0.000912	20.791698
1033.290888	-2.998300	3.558500	-10.668000	25.558325	0.000910	20.781312
1034.291346	-2.993100	3.558600	-10.649000	25.576586	0.000911	20.791116
1035.289523	-2.981600	3.557900	-10.607000	25.608169	0.000909	20.798653
1036.292488	-2.997700	3.557600	-10.663000	25.621905	0.000909	20.786370
1037.292839	-3.015400	3.555400	-10.721000	25.606743	0.000909	20.785368
1038.291682	-3.016700	3.556000	-10.726000	25.608607	0.000911	20.778231
1039.296586	-2.997400	3.556000	-10.658000	25.594139	0.000907	20.778873
1040.294817	-2.974400	3.556700	-10.579000	25.587382	0.000909	20.793424
1041.291677	-2.997200	3.554300	-10.652000	25.561041	0.000907	20.790678
1042.298561	-2.991700	3.555100	-10.635000	25.512160	0.000908	20.774779
1043.294383	-2.987700	3.554400	-10.618000	25.477269	0.000905	20.790002
1044.295640	-3.018000	3.552300	-10.719000	25.475257	0.000904	20.793197
1045.302057	-2.991100	3.553500	-10.626000	25.513330	0.000906	20.784489
1046.294251	-3.011400	3.553100	-10.699000	25.550777	0.000904	20.794595
1047.298611	-2.994600	3.553200	-10.640000	25.575698	0.000904	20.779318
1048.299711	-2.988300	3.552200	-10.614000	25.599599	0.000904	20.780089
1049.297174	-2.972200	3.552800	-10.558000	25.634535	0.000903	20.800478
1050.295228	-2.996500	3.552200	-10.644000	25.638415	0.000902	20.785408
1051.301497	-3.000000	3.551400	-10.651000	25.677003	0.000901	20.781017
1052.295299	-3.011000	3.550700	-10.690000	25.697077	0.000901	20.779368
1053.297798	-2.999900	3.550400	-10.650000	25.720060	0.000900	20.778271
1054.300783	-3.007800	3.550700	-10.678000	25.711489	0.000899	20.752592
1055.299715	-3.005100	3.549300	-10.663000	25.676285	0.000899	20.769864
1056.297813	-2.996100	3.549300	-10.632000	25.705003	0.000899	20.762199
1057.294508	-2.996400	3.549300	-10.634000	25.683317	0.000899	20.769815
1058.296262	-3.007000	3.548300	-10.668000	25.673502	0.000898	20.764224
1059.294914	-2.997500	3.547500	-10.633000	25.690025	0.000894	20.783190
1060.299374	-3.019000	3.546800	-10.706000	25.718472	0.000895	20.779046
1061.296338	-2.985900	3.548900	-10.596000	25.695468	0.000897	20.775855
1062.295711	-3.004700	3.548400	-10.660000	25.677401	0.000896	20.779995
1063.296073	-2.999800	3.545900	-10.636000	25.634569	0.000896	20.763527
1064.297357	-3.000400	3.548000	-10.645000	25.608131	0.000894	20.774907
1065.297041	-3.017300	3.545400	-10.697000	25.592502	0.000896	20.769642
1066.299353	-3.013500	3.545800	-10.683000	25.596205	0.000893	20.781422
1067.300812	-3.001100	3.546200	-10.641000	25.644680	0.000892	20.768941
1068.298146	-2.990100	3.545400	-10.599000	25.663986	0.000892	20.770788
1069.305021	-3.018300	3.545700	-10.702000	25.679914	0.000890	20.775406
1070.303485	-2.979300	3.546500	-10.565000	25.673108	0.000890	20.782321
1071.302459	-3.004300	3.544700	-10.649000	25.643961	0.000891	20.752098
1072.300969	-2.996700	3.543800	-10.618000	25.635690	0.000888	20.766076
1073.303156	-2.991200	3.543800	-10.599000	25.619732	0.000889	20.759532
1074.303858	-2.997300	3.543400	-10.619000	25.595679	0.000888	20.776152
1075.307848	-2.993600	3.543700	-10.608000	25.620947	0.000887	20.766442
1076.304821	-3.004700	3.543600	-10.647000	25.599579	0.000886	20.772482
1077.300407	-2.998800	3.541600	-10.619000	25.558479	0.000887	20.742585
1078.302412	-2.987600	3.542800	-10.582000	25.532901	0.000886	20.763840
1079.302194	-3.007600	3.540600	-10.647000	25.532384	0.000887	20.772330
1080.303118	-3.003300	3.542100	-10.637000	25.587894	0.000885	20.766911
1081.300597	-3.010700	3.540200	-10.657000	25.586400	0.000884	20.755453
1082.303509	-2.995800	3.541100	-10.606000	25.597780	0.000883	20.765460
1083.300223	-3.032100	3.540200	-10.733000	25.583218	0.000883	20.765060
1084.309793	-2.985900	3.540000	-10.568000	25.593083	0.000885	20.765959
1085.303955	-3.014500	3.538600	-10.666000	25.572129	0.000883	20.768147
1086.303159	-3.020000	3.538200	-10.683000	25.575355	0.000882	20.769017
1087.302226	-3.013700	3.538500	-10.663000	25.551596	0.000882	20.765071
1088.302737	-3.012700	3.537600	-10.656000	25.584276	0.000879	20.750475
1089.302136	-3.000500	3.538500	-10.616000	25.577736	0.000880	20.751493
1090.306710	-2.979800	3.538700	-10.544000	25.623802	0.000880	20.773577
1091.305805	-2.989000	3.537400	-10.573000	25.668774	0.000878	20.749044
1092.302412	-2.953000	3.538300	-10.447000	25.677567	0.000879	20.767359
1093.307585	-3.014900	3.536500	-10.660000	25.718506	0.000878	20.753001
1094.304112	-2.991300	3.536200	-10.577000	25.731104	0.000879	20.754275
1095.307032	-2.992500	3.537100	-10.584000	25.719450	0.000880	20.756795
1096.307329	-3.001800	3.537000	-10.616000	25.695960	0.000876	20.761177
1097.305357	-2.985700	3.536500	-10.557000	25.656502	0.000874	20.754262
1098.302207	-3.015300	3.536000	-10.661000	25.648723	0.000873	20.749768
1099.310296	-2.997700	3.534300	-10.594000	25.660201	0.000871	20.749442
1100.304022	-2.991700	3.535000	-10.574000	25.653272	0.000873	20.751017
1101.305008	-2.974600	3.535800	-10.517000	25.672081	0.000874	20.751891
1102.309147	-3.024900	3.532200	-10.683000	25.685069	0.000872	20.767781
1103.308092	-2.995800	3.532700	-10.583000	25.694309	0.000871	20.756673
1104.310947	-2.992100	3.533300	-10.571000	25.670258	0.000872	20.746741
1105.310374	-2.998900	3.532800	-10.594000	25.686383	0.000872	20.755350
1106.309781	-2.976600	3.535000	-10.521000	25.691005	0.000870	20.744345
1107.310922	-3.016000	3.531200	-10.648000	25.692343	0.000870	20.753750
1108.310490	-2.990600	3.531700	-10.561000	25.722157	0.000870	20.756669
1109.307623	-3.000600	3.532200	-10.597000	25.747574	0.000870	20.758966
1110.307262	-2.994600	3.530400	-10.571000	25.761304	0.000869	20.743833
1111.311425	-2.998400	3.530300	-10.585000	25.750870	0.000869	20.761328
1112.308882	-2.995500	3.530100	-10.573000	25.787016	0.000868	20.748797
1113.314024	-2.974900	3.530600	-10.502000	25.813823	0.000868	20.738266
1114.311077	-2.978900	3.532100	-10.521000	25.787459	0.000867	20.756829
1115.325888	-2.959400	3.530300	-10.446000	25.775461	0.000866	20.762795
1116.313003	-2.997300	3.527400	-10.572000	25.797544	0.000864	20.756053
1117.310298	-2.995700	3.529200	-10.572000	25.815850	0.000863	20.758321
1118.309798	-3.011400	3.527700	-10.622000	25.832966	0.000864	20.761764
1119.308873	-2.974300	3.528000	-10.493000	25.844639	0.000864	20.751678
1120.314738	-3.007400	3.528000	-10.609000	25.799296	0.000865	20.758287
1121.312844	-2.998500	3.527600	-10.577000	25.753282	0.000860	20.734826
1122.316267	-3.008200	3.525700	-10.605000	25.733829	0.000861	20.761281
1123.321788	-2.997400	3.526900	-10.569000	25.691963	0.000861	20.732505
1124.318171	-3.016700	3.524300	-10.631000	25.638317	0.000861	20.740265
1125.314636	-3.004200	3.525500	-10.590000	25.618066	0.000859	20.743633
1126.318914	-3.005900	3.525300	-10.594000	25.590162	0.000859	20.736945
1127.315675	-3.018700	3.523900	-10.637000	25.582859	0.000858	20.750000
1128.314443	-2.973100	3.524400	-10.478000	25.578006	0.000860	20.736590
1129.330898	-3.010700	3.523800	-10.608000	25.574853	0.000858	20.741011
1130.327749	-2.997600	3.524600	-10.565000	25.581364	0.000857	20.730006
1131.317999	-3.010000	3.523200	-10.604000	25.616994	0.000855	20.748721
1132.319149	-3.005300	3.521700	-10.583000	25.662965	0.000856	20.749847
1133.320433	-3.014900	3.522300	-10.618000	25.684233	0.000855	20.757458
1134.321527	-3.003900	3.522200	-10.579000	25.665875	0.000854	20.736649
1135.320619	-3.023500	3.522400	-10.647000	25.653453	0.000854	20.748355
1136.319902	-3.013200	3.521500	-10.610000	25.651344	0.000851	20.741494
1137.318669	-2.996900	3.521800	-10.552000	25.651693	0.000855	20.747060
1138.321440	-2.973900	3.522200	-10.473000	25.683499	0.000851	20.746289
1139.327685	-2.984600	3.521800	-10.510000	25.688495	0.000850	20.726176
1140.323431	-3.017400	3.518700	-10.616000	25.707555	0.000852	20.738682
1141.325598	-2.985100	3.520900	-10.508000	25.712177	0.000851	20.740006
1142.323676	-2.998100	3.521600	-10.557000	25.708130	0.000851	20.739734
1143.325600	-3.010700	3.518600	-10.592000	25.731909	0.000850	20.750817
1144.328420	-3.015400	3.518000	-10.607000	25.715864	0.000848	20.722371
1145.323681	-3.043500	3.517100	-10.703000	25.736590	0.000848	20.733706
1146.323795	-3.017000	3.516200	-10.608000	25.752094	0.000848	20.730787
1147.322542	-2.963900	3.520600	-10.433000	25.747624	0.000847	20.738151
1148.322727	-2.986900	3.517600	-10.504000	25.768595	0.000846	20.742147
1149.325548	-2.993900	3.516200	-10.526000	25.727309	0.000847	20.745248
1150.324320	-2.995400	3.516900	-10.534000	25.738171	0.000846	20.730079
1151.327924	-2.995200	3.516800	-10.533000	25.749180	0.000844	20.733551
1152.328924	-2.989100	3.516600	-10.510000	25.761754	0.000843	20.720101
1153.329401	-3.000600	3.514600	-10.545000	25.761261	0.000844	20.726245
1154.333354	-3.019700	3.514900	-10.612000	25.744592	0.000843	20.736529
1155.326555	-3.012900	3.515200	-10.591000	25.737835	0.000844	20.745390
1156.329491	-3.015900	3.513800	-10.596000	25.772176	0.000840	20.723933
1157.330873	-2.971600	3.515100	-10.443000	25.770957	0.000841	20.738356
1158.332425	-2.996900	3.512800	-10.526000	25.807234	0.000841	20.709835
1159.330770	-2.973000	3.514900	-10.449000	25.806393	0.000840	20.744554
1160.331596	-2.995500	3.512800	-10.522000	25.765400	0.000838	20.721393
1161.335243	-2.976600	3.511900	-10.453000	25.766447	0.000840	20.732877
1162.330882	-2.987000	3.513000	-10.493000	25.780411	0.000838	20.740266
1163.330243	-2.976900	3.512400	-10.456000	25.804534	0.000839	20.728461
1164.334158	-2.992300	3.511200	-10.505000	25.809185	0.000839	20.723175
1165.350367	-2.984400	3.510500	-10.476000	25.807548	0.000838	20.723427
1166.330581	-2.996800	3.509800	-10.517000	25.817435	0.000836	20.743318
1167.333782	-2.989600	3.508900	-10.489000	25.797684	0.000836	20.740547
1168.334313	-3.013500	3.509700	-10.576000	25.797566	0.000836	20.726676
1169.337851	-3.004000	3.510300	-10.544000	25.759523	0.000837	20.725447
1170.334589	-3.011000	3.509200	-10.565000	25.754561	0.000834	20.737533
1171.333595	-3.018300	3.508600	-10.589000	25.785239	0.000836	20.712397
1172.335294	-2.997200	3.509800	-10.519000	25.817912	0.000833	20.729571
1173.334635	-3.007900	3.507200	-10.548000	25.842555	0.000834	20.717341
1174.333794	-3.008000	3.506400	-10.546000	25.820218	0.000833	20.742794
1175.329793	-2.995600	3.508100	-10.507000	25.855673	0.000832	20.730519
1176.337129	-3.006900	3.506200	-10.542000	25.859051	0.000831	20.723481
1177.330739	-3.003600	3.506600	-10.531000	25.821983	0.000831	20.737454
1178.334774	-3.006100	3.505600	-10.536000	25.823675	0.000831	20.741050
1179.337070	-2.989600	3.507300	-10.484000	25.822686	0.000830	20.742902
1180.330966	-2.988700	3.505900	-10.478000	25.849192	0.000830	20.719741
1181.339231	-3.009100	3.504700	-10.545000	25.846139	0.000830	20.746547
1182.338213	-2.988800	3.505100	-10.474000	25.856498	0.000829	20.728978
1183.337468	-3.005300	3.504200	-10.530000	25.881514	0.000825	20.756480
1184.334619	-2.999100	3.504100	-10.508000	25.901839	0.000826	20.727584
1185.334388	-3.019600	3.503500	-10.579000	25.924695	0.000826	20.728735
1186.332913	-3.000400	3.503400	-10.510000	25.925315	0.000826	20.747850
1187.339159	-3.006200	3.502000	-10.527000	25.943771	0.000825	20.732726
1188.333427	-3.007600	3.503500	-10.534000	25.946012	0.000824	20.742565
1189.338159	-3.016000	3.501600	-10.560000	25.976517	0.000824	20.736227
1190.339002	-2.997000	3.502600	-10.496000	25.972142	0.000823	20.732306
1191.343587	-2.978800	3.502300	-10.432000	25.987947	0.000823	20.722580
1192.337118	-2.995000	3.501100	-10.485000	25.992543	0.000823	20.731465
1193.340921	-2.990000	3.502700	-10.472000	25.982357	0.000822	20.757743
1194.341735	-3.011200	3.500400	-10.540000	25.974289	0.000821	20.741576
1195.339370	-2.972700	3.500700	-10.404000	25.986314	0.000821	20.737535
1196.339982	-3.008400	3.499600	-10.526000	26.008126	0.000821	20.743803
1197.345258	-3.012700	3.498700	-10.540000	26.025047	0.000821	20.746104
1198.337853	-3.023100	3.496700	-10.570000	25.988211	0.000819	20.738019
1199.336478	-2.985900	3.499100	-10.447000	25.991047	0.000818	20.743239
1200.342555	-2.983000	3.497600	-10.432000	25.981235	0.000817	20.732906
1201.339709	-2.998300	3.497100	-10.484000	25.985167	0.000817	20.731641
1202.344439	-3.019200	3.495700	-10.552000	25.977045	0.000816	20.752406
1203.338614	-2.996700	3.496800	-10.477000	25.993814	0.000816	20.724207
1204.339717	-2.989200	3.495600	-10.448000	26.019308	0.000817	20.734174
1205.340905	-3.008100	3.495100	-10.513000	26.038013	0.000815	20.735423
1206.337831	-2.970500	3.495900	-10.384000	25.993803	0.000813	20.765923
1207.340681	-3.010400	3.494600	-10.519000	25.985760	0.000814	20.734608
1208.342066	-2.969900	3.496100	-10.381000	25.997259	0.000814	20.749480
1209.336172	-3.012800	3.494700	-10.528000	25.975283	0.000812	20.762015
1210.337320	-2.987100	3.492900	-10.432000	25.991949	0.000812	20.752206
1211.346446	-3.018100	3.492600	-10.540000	25.961158	0.000811	20.736918
1212.337638	-2.989500	3.495000	-10.447000	25.955613	0.000813	20.742727
1213.336423	-2.999600	3.492800	-10.476000	25.903902	0.000810	20.753840
1214.338804	-2.995300	3.494000	-10.463000	25.857598	0.000811	20.739565
1215.340386	-2.993900	3.492900	-10.456000	25.844361	0.000810	20.740968
1216.343998	-2.999000	3.491300	-10.469000	25.806255	0.000809	20.737303
1217.344237	-3.004800	3.492200	-10.493000	25.755255	0.000809	20.733015
1218.335598	-3.014600	3.491300	-10.524000	25.744899	0.000808	20.736838
1219.344041	-3.007100	3.489700	-10.493000	25.752752	0.000807	20.750416
1220.339205	-2.993400	3.490800	-10.448000	25.773522	0.000807	20.748519
1221.340283	-3.003200	3.489200	-10.477000	25.805128	0.000806	20.741386
1222.337369	-3.007300	3.488500	-10.491000	25.855413	0.000808	20.741164
1223.338319	-3.012900	3.487700	-10.507000	25.875458	0.000805	20.744705
1224.340149	-3.004700	3.488700	-10.482000	25.896432	0.000806	20.743490
1225.342139	-2.984600	3.489200	-10.412000	25.891613	0.000805	20.765203
1226.343513	-2.994800	3.487000	-10.442000	25.882326	0.000805	20.756347
1227.340815	-3.000100	3.487100	-10.461000	25.880737	0.000804	20.760441
1228.359041	-2.991300	3.486900	-10.429000	25.896170	0.000804	20.751762
1229.342940	-2.989600	3.486400	-10.422000	25.904440	0.000801	20.751061
1230.342004	-2.999600	3.485600	-10.455000	25.888791	0.000802	20.757151
1231.343785	-3.021100	3.485600	-10.529000	25.874705	0.000803	20.771925
1232.341408	-2.974600	3.486100	-10.367000	25.873445	0.000800	20.746003
1233.344132	-3.005500	3.484500	-10.472000	25.870884	0.000801	20.749120
1234.342575	-2.995500	3.486000	-10.441000	25.899203	0.000800	20.751016
1235.352731	-2.999400	3.484900	-10.451000	25.925212	0.000799	20.755807
1236.340534	-2.988100	3.484100	-10.409000	25.961479	0.000798	20.751940
1237.339079	-3.005100	3.482500	-10.465000	25.978622	0.000798	20.764421
1238.339682	-3.010000	3.481400	-10.478000	26.001226	0.000798	20.752518
1239.342569	-2.996100	3.482500	-10.433000	25.977157	0.000798	20.759630
1240.343546	-2.985400	3.483100	-10.398000	25.995095	0.000796	20.763902
1241.348031	-2.995400	3.480800	-10.425000	25.973410	0.000796	20.759660
1242.340534	-2.985600	3.481900	-10.395000	25.940845	0.000796	20.791428
1243.345098	-3.008200	3.481100	-10.470000	25.884011	0.000795	20.747133
1244.345756	-3.009400	3.480000	-10.470000	25.892560	0.000794	20.768999
1245.347098	-2.990300	3.480800	-10.408000	25.867623	0.000793	20.771923
1246.344677	-3.002100	3.481000	-10.449000	25.849687	0.000794	20.754853
1247.341920	-2.990400	3.479700	-10.405000	25.788624	0.000791	20.764163
1248.348389	-3.021100	3.478100	-10.507000	25.772796	0.000792	20.768179
1249.347880	-3.001400	3.477800	-10.437000	25.781445	0.000794	20.786824
1250.352277	-2.998200	3.477100	-10.424000	25.802544	0.000792	20.754438
1251.349157	-2.996800	3.477500	-10.420000	25.803906	0.000792	20.775247
1252.348204	-2.989900	3.479200	-10.401000	25.808857	0.000791	20.765521
1253.344997	-3.000700	3.477500	-10.434000	25.825697	0.000789	20.762997
1254.351173	-3.012300	3.476300	-10.470000	25.872131	0.000790	20.750372
1255.358581	-3.026000	3.475500	-10.515000	25.897569	0.000790	20.769764
1256.346911	-3.004800	3.475000	-10.440000	25.913042	0.000788	20.755435
1257.351774	-2.985400	3.476700	-10.378000	25.951900	0.000787	20.766025
1258.358792	-2.970200	3.474900	-10.321000	25.958331	0.000789	20.764899
1259.355015	-2.980100	3.475000	-10.354000	26.014571	0.000786	20.768771
1260.354724	-2.986900	3.474100	-10.377000	26.009232	0.000787	20.793753
1261.354666	-2.981200	3.474200	-10.357000	25.995148	0.000787	20.770593
1262.359748	-2.982400	3.473600	-10.359000	25.970410	0.000785	20.778931
1263.359256	-3.004600	3.473100	-10.434000	25.955754	0.000786	20.764681
1264.358278	-3.012100	3.471800	-10.456000	25.916482	0.000783	20.768375
1265.354500	-3.014800	3.473400	-10.471000	25.911713	0.000783	20.764058
1266.355207	-3.021400	3.472000	-10.489000	25.877263	0.000784	20.778288
1267.351070	-2.988000	3.473000	-10.375000	25.908065	0.000784	20.763713
1268.359278	-2.980900	3.471400	-10.347000	25.910803	0.000782	20.779740
1269.353038	-3.013400	3.470400	-10.456000	25.915125	0.000783	20.752312
1270.358310	-3.000900	3.471200	-10.416000	25.906285	0.000781	20.797486
1271.353518	-2.988000	3.469600	-10.366000	25.910582	0.000780	20.776198
1272.356455	-2.992500	3.468700	-10.379000	25.894338	0.000780	20.768414
1273.357851	-3.031700	3.467100	-10.510000	25.888949	0.000781	20.782441
1274.355173	-2.990900	3.469400	-10.376000	25.877351	0.000780	20.772686
1275.358072	-2.986800	3.469700	-10.362000	25.888334	0.000777	20.783246
1276.357698	-2.995400	3.466800	-10.384000	25.905453	0.000782	20.772469
1277.360859	-2.980400	3.467200	-10.331000	25.938791	0.000779	20.801219
1278.358014	-3.005000	3.466200	-10.415000	25.907789	0.000777	20.758219
1279.360299	-2.999100	3.467200	-10.396000	25.873589	0.000778	20.764640
1280.361854	-2.997400	3.465900	-10.387000	25.865737	0.000776	20.775718
1281.362566	-2.987100	3.466100	-10.352000	25.844325	0.000775	20.782184
1282.363385	-2.996600	3.465800	-10.385000	25.813570	0.000774	20.777368
1283.360138	-3.003200	3.463600	-10.400000	25.832028	0.000774	20.779788
1284.360090	-2.985600	3.464800	-10.344000	25.833547	0.000776	20.798858
1285.361234	-2.990500	3.463700	-10.356000	25.866440	0.000775	20.794442
1286.359633	-2.991700	3.464000	-10.362000	25.900197	0.000773	20.790422
1287.364315	-3.007100	3.462400	-10.410000	25.921490	0.000773	20.779570
1288.363009	-3.012300	3.462500	-10.429000	25.913840	0.000774	20.797964
1289.357525	-2.985800	3.463600	-10.340000	25.897960	0.000772	20.791968
1290.365774	-3.008200	3.462100	-10.414000	25.866641	0.000771	20.802231
1291.357629	-2.973400	3.461700	-10.291000	25.851788	0.000772	20.782094
1292.362352	-3.021600	3.461700	-10.459000	25.853720	0.000772	20.786880
1293.384527	-2.990200	3.462300	-10.352000	25.847338	0.000769	20.807496
1294.361612	-2.974600	3.461200	-10.294000	25.896667	0.000769	20.799204
1295.361535	-2.986600	3.460900	-10.335000	25.944317	0.000770	20.788278
1296.361145	-2.983300	3.459800	-10.321000	25.982496	0.000768	20.797712
1297.358226	-2.999300	3.459600	-10.375000	26.025984	0.000768	20.801575
1298.370464	-2.986100	3.458300	-10.326000	26.059195	0.000768	20.787528
1299.364995	-3.011700	3.458600	-10.415000	26.047569	0.000766	20.789597
1300.360769	-2.983600	3.458500	-10.316000	26.070143	0.000768	20.813226
1301.363814	-3.010500	3.456200	-10.404000	26.098629	0.000766	20.833787
1302.367280	-3.004000	3.456400	-10.382000	26.080869	0.000766	20.820210
1303.363708	-2.999400	3.457000	-10.368000	26.047491	0.000765	20.826028
1304.363620	-3.004200	3.455100	-10.379000	26.028535	0.000764	20.817889
1305.365747	-2.992500	3.456200	-10.342000	26.062415	0.000764	20.801195
1306.364063	-2.974700	3.455600	-10.277000	26.090504	0.000763	20.799071
1307.363096	-3.007900	3.453900	-10.388000	26.107664	0.000763	20.808727
1308.364131	-3.014900	3.453100	-10.410000	26.114197	0.000765	20.808653
1309.360585	-3.013100	3.453100	-10.404000	26.110319	0.000763	20.804282
1310.365839	-3.005900	3.453800	-10.381000	26.107188	0.000762	20.824843
1311.366465	-3.009400	3.452500	-10.389000	26.159341	0.000760	20.803754
1312.364289	-3.018000	3.452200	-10.417000	26.162668	0.000760	20.820373
1313.360038	-2.996200	3.452300	-10.343000	26.165775	0.000762	20.825391
1314.362782	-3.002800	3.451200	-10.362000	26.176156	0.000758	20.832503
1315.365817	-2.999200	3.450800	-10.348000	26.220038	0.000759	20.811641
1316.363047	-3.001300	3.451600	-10.359000	26.220884	0.000759	20.801111
1317.364474	-2.974100	3.452000	-10.266000	26.185819	0.000757	20.822299
1318.364066	-2.991700	3.451300	-10.325000	26.171216	0.000757	20.817109
1319.364923	-3.008500	3.449900	-10.377000	26.171118	0.000760	20.824122
1320.363571	-3.001200	3.449600	-10.352000	26.149662	0.000758	20.822951
1321.366993	-3.012500	3.448600	-10.387000	26.171840	0.000756	20.840968
1322.362772	-3.019000	3.448700	-10.410000	26.168512	0.000756	20.824823
1323.367078	-3.006300	3.449000	-10.368000	26.178770	0.000756	20.821855
1324.361096	-3.026100	3.446100	-10.426000	26.178697	0.000756	20.835056
1325.364074	-2.995100	3.448200	-10.326000	26.148448	0.000753	20.810352
1326.369068	-3.000100	3.447000	-10.340000	26.111867	0.000753	20.808682
1327.368125	-2.992900	3.447200	-10.316000	26.137816	0.000753	20.830488
1328.364977	-2.994900	3.446300	-10.320000	26.151825	0.000752	20.817538
1329.362728	-3.013300	3.447200	-10.385000	26.162830	0.000752	20.809630
1330.365038	-2.997700	3.445300	-10.327000	26.175521	0.000749	20.823331
1331.364570	-3.019400	3.444900	-10.400000	26.176868	0.000751	20.829426
1332.365480	-2.988400	3.444900	-10.294000	26.217919	0.000747	20.823262
1333.366310	-2.991500	3.445100	-10.303000	26.223832	0.000750	20.829203
1334.366149	-2.985800	3.444900	-10.285000	26.188246	0.000750	20.834695
1335.365650	-3.009500	3.443400	-10.362000	26.226466	0.000749	20.825212
1336.369627	-2.984400	3.442700	-10.272000	26.213328	0.000748	20.821019
1337.366985	-3.029400	3.440700	-10.422000	26.236203	0.000747	20.834522
1338.364278	-2.998600	3.442800	-10.322000	26.226073	0.000748	20.831455
1339.370625	-3.013400	3.441300	-10.369000	26.249271	0.000745	20.836749
1340.369349	-2.996500	3.443100	-10.316000	26.269756	0.000747	20.811818
1341.367845	-2.996400	3.440800	-10.309000	26.275472	0.000747	20.825148
1342.369652	-3.001700	3.439600	-10.323000	26.229287	0.000747	20.836107
1343.368568	-2.992800	3.441600	-10.297000	26.232142	0.000745	20.825701
1344.367152	-2.993700	3.441200	-10.300000	26.219476	0.000744	20.827197
1345.369792	-3.009800	3.438200	-10.347000	26.204480	0.000743	20.824456
1346.371058	-2.998300	3.439400	-10.311000	26.186476	0.000744	20.830072
1347.368558	-2.984800	3.439400	-10.264000	26.158144	0.000742	20.826733
1348.375803	-3.006700	3.438700	-10.338000	26.192787	0.000742	20.841629
1349.374396	-3.006400	3.436500	-10.330000	26.205134	0.000743	20.837914
1350.369137	-3.002500	3.437100	-10.318000	26.227487	0.000742	20.853738
1351.376076	-2.995500	3.436900	-10.294000	26.225575	0.000740	20.829533
1352.371607	-3.013400	3.436600	-10.355000	26.197392	0.000740	20.843885
1353.369576	-2.991700	3.435700	-10.278000	26.149837	0.000739	20.863428
1354.377047	-2.993200	3.436500	-10.285000	26.140030	0.000739	20.850730
1355.376759	-2.989400	3.435700	-10.270000	26.158556	0.000738	20.840423
1356.373785	-3.022000	3.433400	-10.373000	26.189581	0.000739	20.842200
1357.374025	-2.994100	3.435000	-10.283000	26.160905	0.000738	20.853688
1358.377657	-2.990300	3.433600	-10.267000	26.172604	0.000736	20.847425
1359.375479	-2.987600	3.435200	-10.262000	26.175263	0.000736	20.849623
1360.377946	-2.996700	3.433100	-10.287000	26.149384	0.000735	20.848749
1361.375081	-2.996700	3.432700	-10.285000	26.134042	0.000736	20.833334
1362.374229	-2.991400	3.433000	-10.267000	26.147255	0.000736	20.857041
1363.377764	-2.995300	3.432200	-10.280000	26.141474	0.000733	20.863560
1364.372824	-3.012000	3.431200	-10.334000	26.166316	0.000735	20.832573
1365.378305	-3.020000	3.431800	-10.363000	26.179976	0.000733	20.846773
1366.378653	-2.984400	3.434000	-10.247000	26.196869	0.000734	20.853791
1367.371861	-3.010100	3.429700	-10.323000	26.227834	0.000733	20.879216
1368.375571	-3.018500	3.429300	-10.350000	26.237944	0.000734	20.856660
1369.378092	-3.005700	3.428900	-10.306000	26.259604	0.000732	20.853297
1370.375585	-2.976500	3.429500	-10.207000	26.250394	0.000732	20.848782
1371.373304	-2.995000	3.428600	-10.268000	26.255087	0.000731	20.849232
1372.382066	-2.983000	3.428400	-10.226000	26.284964	0.000730	20.838006
1373.375623	-3.021300	3.427300	-10.353000	26.295845	0.000730	20.858897
1374.372738	-3.024900	3.427900	-10.368000	26.304987	0.000729	20.866661
1375.382739	-2.998600	3.426900	-10.274000	26.305183	0.000729	20.855953
1376.379161	-2.982600	3.428600	-10.225000	26.275434	0.000729	20.862092
1377.381034	-2.979000	3.426300	-10.206000	26.259692	0.000727	20.864764
1378.378675	-2.982500	3.426600	-10.218000	26.235855	0.000729	20.865465
1379.381216	-2.996100	3.424900	-10.261000	26.227411	0.000727	20.865041
1380.380097	-2.998100	3.425600	-10.269000	26.252742	0.000726	20.851617
1381.382027	-3.017500	3.424700	-10.333000	26.278870	0.000726	20.861277
1382.379970	-2.987900	3.425700	-10.234000	26.291009	0.000725	20.847399
1383.381445	-3.003500	3.423500	-10.282000	26.281966	0.000726	20.859174
1384.382802	-2.992400	3.425000	-10.248000	26.322768	0.000726	20.863194
1385.381322	-2.991600	3.425800	-10.248000	26.319219	0.000724	20.861050
1386.383657	-3.005100	3.423200	-10.285000	26.307645	0.000724	20.864117
1387.383802	-2.996700	3.424100	-10.259000	26.311371	0.000723	20.869757
1388.383878	-2.998100	3.423600	-10.263000	26.308614	0.000722	20.855133
1389.382051	-3.026900	3.420200	-10.351000	26.348790	0.000722	20.861371
1390.385661	-2.991000	3.422500	-10.236000	26.328975	0.000721	20.849518
1391.378569	-3.034600	3.420100	-10.377000	26.285667	0.000721	20.858151
1392.380006	-3.041000	3.420500	-10.400000	26.267119	0.000721	20.852788
1393.382894	-2.991500	3.421000	-10.233000	26.222171	0.000721	20.852664
1394.382231	-3.000400	3.419600	-10.259000	26.239001	0.000721	20.859144
1395.380030	-3.007100	3.419700	-10.283000	26.223135	0.000719	20.850313
1396.386309	-3.012300	3.419000	-10.298000	26.180245	0.000719	20.866009
1397.385856	-3.018700	3.418600	-10.319000	26.155984	0.000719	20.848743
1398.381030	-3.009100	3.419000	-10.287000	26.152381	0.000719	20.849864
1399.384784	-3.016800	3.417600	-10.308000	26.145303	0.000719	20.841804
1400.381154	-3.018000	3.417500	-10.312000	26.120608	0.000718	20.861085
1401.382701	-3.004100	3.417900	-10.267000	26.128954	0.000717	20.849084
1402.387762	-3.015400	3.417400	-10.304000	26.162084	0.000716	20.859139
1403.389957	-3.024900	3.415700	-10.331000	26.189727	0.000715	20.833813
1404.380045	-3.007600	3.415600	-10.272000	26.220589	0.000716	20.856290
1405.387362	-3.000100	3.415100	-10.245000	26.186817	0.000715	20.837053
1406.386648	-2.980700	3.416900	-10.184000	26.212691	0.000713	20.829387
1407.381062	-3.016900	3.413300	-10.296000	26.215994	0.000714	20.851198
1408.390322	-2.989800	3.413900	-10.206000	26.271420	0.000712	20.824394
1409.384761	-3.020500	3.412900	-10.308000	26.244575	0.000714	20.860952
1410.384398	-2.989400	3.413300	-10.202000	26.235831	0.000712	20.852166
1411.385577	-2.989200	3.413000	-10.202000	26.210130	0.000713	20.850047
1412.384571	-2.986400	3.413500	-10.192000	26.169079	0.000710	20.840090
1413.381421	-3.001000	3.413600	-10.243000	26.124152	0.000709	20.844733
1414.383055	-2.985800	3.412600	-10.189000	26.094024	0.000710	20.857134
1415.385764	-3.039100	3.410800	-10.364000	26.079695	0.000710	20.843212
1416.381694	-3.001300	3.412700	-10.239000	26.113869	0.000711	20.847202
1417.382249	-2.983200	3.412100	-10.177000	26.124004	0.000709	20.826567
1418.385529	-3.001100	3.409900	-10.233000	26.145809	0.000708	20.845632
1419.385844	-3.004800	3.410800	-10.247000	26.151201	0.000708	20.852946
1420.387772	-2.996300	3.410000	-10.217000	26.173001	0.000708	20.830756
1421.385196	-2.978200	3.410700	-10.157000	26.193989	0.000707	20.853741
1422.387680	-3.025400	3.407500	-10.307000	26.229377	0.000707	20.834302
1423.384596	-2.971200	3.409900	-10.131000	26.221454	0.000706	20.839142
1424.381765	-3.024600	3.406600	-10.302000	26.205613	0.000705	20.834129
1425.383041	-2.991600	3.408300	-10.194000	26.230596	0.000702	20.839320
1426.388200	-3.013100	3.407100	-10.265000	26.259378	0.000703	20.807552
1427.383441	-3.016500	3.405900	-10.273000	26.239635	0.000704	20.822325
1428.384924	-3.003000	3.406900	-10.229000	26.224688	0.000704	20.820107
1429.387658	-2.998900	3.405200	-10.210000	26.223941	0.000702	20.806554
1430.386765	-3.000900	3.406300	-10.220000	26.245823	0.000701	20.827595
1431.387940	-3.009100	3.404300	-10.243000	26.289727	0.000700	20.839473
1432.387638	-3.006700	3.405500	-10.239000	26.285756	0.000701	20.829318
1433.384566	-3.008500	3.403700	-10.239000	26.331246	0.000701	20.826671
1434.388206	-3.007300	3.402900	-10.233000	26.363357	0.000701	20.808683
1435.386959	-3.022400	3.402000	-10.282000	26.389280	0.000699	20.814822
1436.389536	-3.003700	3.403100	-10.221000	26.377367	0.000697	20.799056
1437.388535	-2.984000	3.402800	-10.153000	26.409452	0.000697	20.817553
1438.386434	-2.987700	3.403000	-10.166000	26.416086	0.000697	20.825169
1439.389030	-3.004300	3.401800	-10.218000	26.425477	0.000696	20.815641
1440.387857	-2.983900	3.402300	-10.151000	26.437443	0.000695	20.812021
1441.387835	-2.978900	3.401400	-10.132000	26.415202	0.000695	20.814323
1442.388985	-3.022400	3.400100	-10.275000	26.443934	0.000695	20.818545
1443.390749	-3.006300	3.400500	-10.222000	26.428986	0.000695	20.799728
1444.386417	-3.017900	3.400500	-10.261000	26.447241	0.000693	20.811912
1445.385907	-2.985500	3.399900	-10.150000	26.418047	0.000695	20.804380
1446.385540	-3.001000	3.399200	-10.200000	26.369705	0.000691	20.805580
1447.389046	-3.010900	3.398300	-10.231000	26.343039	0.000692	20.803911
1448.390880	-2.996600	3.397600	-10.178000	26.332640	0.000692	20.813848
1449.391320	-3.011300	3.398700	-10.234000	26.346774	0.000691	20.816673
1450.392579	-3.007400	3.396500	-10.214000	26.299127	0.000691	20.802928
1451.391481	-3.008400	3.398200	-10.222000	26.311935	0.000692	20.806316
1452.387540	-3.000400	3.397100	-10.191000	26.335903	0.000689	20.814282
1453.387862	-3.009300	3.397100	-10.221000	26.339633	0.000690	20.792427
1454.392989	-2.999900	3.394500	-10.182000	26.333554	0.000688	20.777308
1455.392139	-2.995300	3.396100	-10.171000	26.298272	0.000688	20.790688
1456.396920	-2.992400	3.396200	-10.162000	26.269417	0.000689	20.792985
1457.392901	-2.996100	3.394700	-10.170000	26.238208	0.000688	20.799080
1458.388629	-2.992400	3.394900	-10.158000	26.250952	0.000688	20.799559
1459.388346	-2.978300	3.395800	-10.113000	26.248814	0.000688	20.788401
1460.395467	-2.989500	3.395400	-10.150000	26.289597	0.000688	20.792876
1461.391324	-3.004100	3.392700	-10.191000	26.305737	0.000684	20.801035
1462.394744	-3.004400	3.393500	-10.194000	26.317114	0.000686	20.793503
1463.397747	-3.003700	3.392100	-10.187000	26.276740	0.000686	20.789912
1464.391539	-2.990100	3.393400	-10.144000	26.261769	0.000685	20.793360
1465.393181	-2.991800	3.393100	-10.150000	26.224200	0.000684	20.793064
1466.397481	-2.996700	3.392300	-10.165000	26.225920	0.000681	20.803327
1467.399161	-3.000700	3.390500	-10.173000	26.267766	0.000685	20.801282
1468.395683	-2.986400	3.391100	-10.126000	26.297642	0.000683	20.803332
1469.399725	-3.010400	3.390300	-10.206000	26.288899	0.000682	20.785536
1470.397525	-2.990900	3.390900	-10.141000	26.277005	0.000680	20.774058
1471.398216	-2.997000	3.389000	-10.155000	26.270400	0.000682	20.791127
1472.401255	-3.007300	3.388600	-10.188000	26.282692	0.000682	20.777401
1473.394165	-2.999100	3.390400	-10.168000	26.290644	0.000682	20.780651
1474.397752	-2.977300	3.389700	-10.091000	26.320215	0.000680	20.780972
1475.400102	-3.011400	3.388700	-10.203000	26.344203	0.000679	20.772838
1476.395066	-2.988400	3.386700	-10.120000	26.324393	0.000680	20.773791
1477.399693	-2.985600	3.388900	-10.116000	26.327071	0.000680	20.789285
1478.403905	-3.015200	3.386800	-10.210000	26.346115	0.000680	20.787561
1479.400711	-3.015700	3.386200	-10.210000	26.369257	0.000679	20.791379
1480.399712	-3.008300	3.385800	-10.184000	26.339859	0.000678	20.788860
1481.400139	-2.981000	3.386800	-10.094000	26.328118	0.000677	20.797924
1482.401509	-2.980000	3.386300	-10.091000	26.324609	0.000678	20.785388
1483.401888	-2.996500	3.385300	-10.143000	26.353020	0.000675	20.774112
1484.402499	-3.010900	3.384000	-10.187000	26.352572	0.000675	20.802112
1485.400470	-2.994300	3.384200	-10.133000	26.376658	0.000674	20.779377
1486.405319	-2.991700	3.385500	-10.127000	26.362730	0.000676	20.774863
1487.401200	-2.988400	3.383900	-10.112000	26.387307	0.000672	20.774907
1488.403349	-2.977800	3.384800	-10.079000	26.410920	0.000672	20.793898
1489.404055	-2.987500	3.383700	-10.108000	26.440616	0.000671	20.766846
1490.404429	-2.997600	3.383700	-10.141000	26.481534	0.000671	20.788534
1491.404337	-2.994000	3.381900	-10.125000	26.481112	0.000671	20.788110
1492.406570	-2.980400	3.381900	-10.079000	26.498271	0.000671	20.785917
1493.407835	-3.003000	3.381400	-10.154000	26.503976	0.000670	20.768891
1494.402608	-3.004400	3.379900	-10.154000	26.518972	0.000667	20.787759
1495.401629	-3.020100	3.380800	-10.210000	26.520240	0.000668	20.773386
1496.402515	-2.999900	3.381000	-10.141000	26.525699	0.000666	20.773183
1497.408290	-3.002700	3.379900	-10.148000	26.490197	0.000667	20.768792
1498.405849	-3.015000	3.380300	-10.191000	26.459338	0.000667	20.775233
1499.410112	-2.999300	3.380100	-10.136000	26.410900	0.000666	20.772541
1500.408699	-2.969700	3.380300	-10.037000	26.369129	0.000665	20.782242
1501.408318	-3.010700	3.378300	-10.170000	26.364785	0.000665	20.789730
1502.413867	-3.009700	3.377700	-10.165000	26.417151	0.000665	20.765547
1503.408950	-3.014800	3.378700	-10.184000	26.421328	0.000666	20.775910
1504.404856	-2.988800	3.377300	-10.093000	26.437019	0.000665	20.793103
1505.419659	-2.979800	3.377100	-10.063000	26.436699	0.000665	20.763858
1506.411508	-2.988400	3.377100	-10.091000	26.365954	0.000661	20.765300
1507.413342	-2.979300	3.377700	-10.061000	26.355875	0.000662	20.772714
1508.412680	-3.008400	3.374900	-10.152000	26.313463	0.000661	20.777505
1509.408633	-3.000900	3.376000	-10.129000	26.299883	0.000661	20.769548
1510.411764	-2.989900	3.374700	-10.089000	26.317419	0.000660	20.759670
1511.410765	-2.990200	3.374500	-10.089000	26.350317	0.000659	20.761912
1512.410738	-3.006200	3.374700	-10.144000	26.349850	0.000660	20.775668
1513.406060	-3.023300	3.373200	-10.197000	26.304931	0.000662	20.777940
1514.413846	-3.029800	3.371400	-10.214000	26.299746	0.000656	20.757081
1515.407101	-3.011400	3.373300	-10.158000	26.265475	0.000659	20.759625
1516.407333	-3.006200	3.370700	-10.133000	26.254431	0.000657	20.776977
1517.413383	-3.018100	3.371400	-10.174000	26.265657	0.000657	20.792051
1518.411996	-3.023500	3.371200	-10.192000	26.276632	0.000656	20.773682
1519.409236	-3.007900	3.371400	-10.139000	26.297922	0.000655	20.746714
1520.419105	-3.017500	3.370100	-10.168000	26.307506	0.000655	20.781002
1521.414777	-2.998000	3.370300	-10.104000	26.311182	0.000655	20.764782
1522.413487	-3.018200	3.369600	-10.169000	26.304945	0.000655	20.757565
1523.418928	-3.010500	3.370500	-10.146000	26.265549	0.000655	20.759225
1524.415999	-3.002600	3.370600	-10.119000	26.237514	0.000653	20.764717
1525.416153	-3.009600	3.369500	-10.139000	26.184692	0.000652	20.763794
1526.416349	-2.978300	3.370100	-10.036000	26.152934	0.000653	20.752271
1527.414038	-3.023600	3.367700	-10.182000	26.172079	0.000650	20.753965
1528.416701	-3.006100	3.368300	-10.123000	26.212162	0.000648	20.767217
1529.422215	-3.021000	3.367800	-10.173000	26.254559	0.000649	20.767622
1530.417856	-3.033800	3.365900	-10.210000	26.305270	0.000650	20.749831
1531.418446	-3.025600	3.365300	-10.181000	26.280588	0.000650	20.748734
1532.418901	-2.998800	3.365300	-10.090000	26.290599	0.000648	20.747415
1533.424083	-3.052500	3.365000	-10.270000	26.309772	0.000646	20.754355
1534.419147	-3.008200	3.365800	-10.124000	26.274587	0.000645	20.741281
1535.420940	-2.996400	3.365800	-10.084000	26.250750	0.000646	20.764742
1536.422571	-3.002900	3.364000	-10.101000	26.269151	0.000644	20.776122
1537.420247	-3.009900	3.364900	-10.127000	26.306656	0.000643	20.766871
1538.426682	-3.010000	3.364500	-10.126000	26.277679	0.000644	20.734430
1539.424241	-3.010500	3.363400	-10.124000	26.254092	0.000644	20.752453
1540.422770	-3.003700	3.363200	-10.101000	26.262910	0.000641	20.739503
1541.425782	-2.976200	3.365300	-10.015000	26.283749	0.000641	20.737685
1542.429368	-3.019500	3.361500	-10.149000	26.269913	0.000640	20.744644
1543.425585	-3.017100	3.361200	-10.140000	26.319169	0.000640	20.755264
1544.427303	-3.004300	3.361300	-10.098000	26.333593	0.000641	20.745104
1545.423557	-3.010200	3.361800	-10.119000	26.383627	0.000639	20.752715
1546.421309	-3.012100	3.360600	-10.122000	26.375041	0.000640	20.744086
1547.424938	-3.015000	3.360400	-10.130000	26.344203	0.000639	20.734904
1548.428044	-3.007700	3.360200	-10.106000	26.314682	0.000639	20.748384
1549.425116	-3.003600	3.359900	-10.090000	26.285980	0.000640	20.749411
1550.427829	-3.015000	3.359800	-10.128000	26.307167	0.000638	20.752212
1551.424819	-2.987500	3.361200	-10.040000	26.297908	0.000639	20.738639
1552.425737	-2.997400	3.359100	-10.068000	26.286835	0.000638	20.725139
1553.428694	-3.003000	3.358800	-10.086000	26.292822	0.000637	20.745855
1554.427099	-3.009700	3.357200	-10.102000	26.319046	0.000637	20.741864
1555.431066	-3.030900	3.357400	-10.174000	26.371474	0.000636	20.729121
1556.426516	-2.988200	3.358700	-10.035000	26.403004	0.000635	20.749431
1557.423798	-2.979200	3.357000	-10.000000	26.415152	0.000635	20.736984
1558.426122	-2.998300	3.356000	-10.061000	26.416744	0.000635	20.750439
1559.427934	-3.016900	3.355200	-10.121000	26.401078	0.000637	20.727106
1560.428814	-2.996200	3.356800	-10.056000	26.415010	0.000634	20.729728
1561.427098	-2.993700	3.358000	-10.052000	26.421491	0.000635	20.745253
1562.433049	-2.980500	3.356400	-10.002000	26.436961	0.000636	20.740887
1563.429677	-3.010700	3.354600	-10.099000	26.468317	0.000633	20.722142
1564.433391	-3.018400	3.355100	-10.127000	26.500768	0.000632	20.727733
1565.430370	-2.984500	3.355000	-10.013000	26.517853	0.000633	20.731156
1566.424685	-3.001000	3.353800	-10.064000	26.592278	0.000633	20.728207
1567.430661	-2.981000	3.353000	-9.994700	26.574757	0.000629	20.727190
1568.435905	-3.028000	3.352400	-10.149000	26.568576	0.000629	20.716708
1569.432150	-2.993200	3.353000	-10.034000	26.545040	0.000629	20.730509
1570.429671	-2.977700	3.353500	-9.984200	26.560159	0.000629	20.735750
1571.435870	-3.008600	3.352800	-10.086000	26.552091	0.000627	20.727165
1572.434592	-3.013000	3.351700	-10.097000	26.592779	0.000628	20.727289
1573.433253	-2.973200	3.352500	-9.966400	26.608988	0.000627	20.733626
1574.433766	-2.997800	3.350200	-10.040000	26.632994	0.000627	20.725515
1575.433097	-3.003700	3.350700	-10.063000	26.617650	0.000624	20.730479
1576.428763	-3.002700	3.350800	-10.060000	26.627108	0.000624	20.738565
1577.430621	-2.998600	3.350800	-10.047000	26.602709	0.000625	20.707872
1578.433446	-2.988100	3.351000	-10.012000	26.636767	0.000624	20.716980
1579.435835	-2.984800	3.349500	-9.995800	26.598606	0.000623	20.727456
1580.435196	-3.008200	3.348900	-10.073000	26.562463	0.000621	20.716728
1581.436358	-2.998600	3.348300	-10.039000	26.537414	0.000622	20.701979
1582.435251	-3.003000	3.348400	-10.055000	26.488479	0.000623	20.722492
1583.439599	-2.998800	3.349100	-10.042000	26.469953	0.000622	20.714303
1584.434431	-3.004000	3.348600	-10.058000	26.482420	0.000620	20.729679
1585.439497	-3.006100	3.345600	-10.055000	26.487334	0.000622	20.737938
1586.434361	-3.003600	3.346400	-10.050000	26.469835	0.000620	20.712287
1587.439264	-3.005900	3.345400	-10.055000	26.477334	0.000619	20.720299
1588.432854	-3.017000	3.346400	-10.095000	26.476985	0.000622	20.718052
1589.440070	-2.988600	3.346600	-10.001000	26.472985	0.000619	20.721144
1590.438992	-2.994600	3.347000	-10.021000	26.483118	0.000618	20.743183
1591.436781	-3.004700	3.344500	-10.047000	26.523214	0.000618	20.723742
1592.442061	-3.041600	3.341700	-10.163000	26.494336	0.000617	20.722216
1593.438457	-2.983400	3.344300	-9.976000	26.526339	0.000617	20.729728
1594.434557	-2.991500	3.343100	-9.999900	26.540986	0.000616	20.721692
1595.441929	-3.013100	3.343300	-10.073000	26.578948	0.000613	20.706745
1596.440108	-3.003600	3.342900	-10.040000	26.585674	0.000615	20.733897
1597.435859	-3.008800	3.342300	-10.056000	26.579144	0.000613	20.724014
1598.441684	-3.008200	3.342000	-10.052000	26.533292	0.000612	20.722018
1599.438258	-2.990000	3.342600	-9.992400	26.565667	0.000611	20.712362
1600.439170	-2.998700	3.341800	-10.020000	26.578997	0.000612	20.722917
1601.441790	-2.989000	3.341500	-9.986100	26.621423	0.000611	20.718625
1602.439136	-3.016800	3.340500	-10.076000	26.636192	0.000609	20.718773
1603.438681	-3.016800	3.339700	-10.075000	26.673109	0.000607	20.720324
1604.440924	-3.008600	3.339300	-10.045000	26.706124	0.000609	20.710840
1605.439075	-3.009900	3.340400	-10.053000	26.708929	0.000609	20.720773
1606.439025	-2.993300	3.339700	-9.995800	26.698455	0.000607	20.720200
1607.440008	-3.007300	3.339100	-10.041000	26.692943	0.000608	20.726987
1608.446249	-3.029900	3.338100	-10.112000	26.668717	0.000609	20.732030
1609.440289	-2.997000	3.337200	-10.001000	26.652430	0.000607	20.730356
1610.440410	-3.005800	3.338100	-10.032000	26.632075	0.000604	20.720798
1611.439384	-2.987100	3.338100	-9.971100	26.606040	0.000603	20.729240
1612.437072	-3.001800	3.336100	-10.013000	26.591148	0.000604	20.720433
1613.457773	-3.020200	3.336500	-10.076000	26.624234	0.000603	20.723821
1614.451041	-3.010800	3.335400	-10.042000	26.621856	0.000602	20.719060
1615.441668	-2.999700	3.335100	-10.004000	26.681707	0.000602	20.713320
1616.441920	-2.984700	3.337500	-9.960400	26.712167	0.000603	20.725451
1617.443714	-3.019100	3.333100	-10.061000	26.718720	0.000604	20.722557
1618.441661	-3.003200	3.334300	-10.013000	26.747116	0.000601	20.705111
1619.440885	-3.015200	3.332600	-10.047000	26.740243	0.000600	20.728074
1620.442409	-3.000200	3.334900	-10.004000	26.687372	0.000599	20.724231
1621.444320	-3.002200	3.333300	-10.006000	26.731680	0.000600	20.717568
1622.444324	-3.025600	3.333100	-10.083000	26.704866	0.000601	20.720482
1623.446502	-3.005700	3.331900	-10.014000	26.704498	0.000598	20.727225
1624.445187	-3.020500	3.331200	-10.060000	26.693306	0.000600	20.712179
1625.447679	-2.997100	3.332100	-9.986000	26.684444	0.000597	20.723658
1626.445576	-3.002200	3.331200	-9.999600	26.672996	0.000599	20.717365
1627.455636	-3.020800	3.331200	-10.061000	26.698219	0.000596	20.719489
1628.451159	-2.991800	3.332400	-9.968800	26.699836	0.000595	20.713053
1629.448782	-2.996100	3.330800	-9.978000	26.675084	0.000595	20.713775
1630.444638	-3.026000	3.329300	-10.074000	26.642835	0.000596	20.739677
1631.448565	-2.997900	3.329200	-9.979900	26.589089	0.000595	20.718363
1632.450245	-2.984000	3.328800	-9.932200	26.552696	0.000594	20.722083
1633.447018	-3.022500	3.328900	-10.060000	26.529602	0.000593	20.736328
1634.443860	-2.997800	3.329300	-9.979900	26.516374	0.000592	20.699322
1635.444500	-3.023300	3.326900	-10.057000	26.539689	0.000592	20.721337
1636.445152	-2.991000	3.329900	-9.957100	26.580648	0.000592	20.725525
1637.447814	-3.005300	3.325700	-9.993200	26.628705	0.000593	20.725945
1638.447821	-3.002100	3.327500	-9.988500	26.633967	0.000592	20.725071
1639.446033	-2.978000	3.326600	-9.905400	26.623291	0.000591	20.702008
1640.444553	-3.003600	3.325200	-9.985900	26.630562	0.000588	20.717380
1641.448529	-2.995400	3.327300	-9.966200	26.581208	0.000587	20.733675
1642.450297	-2.998500	3.325800	-9.971900	26.582599	0.000589	20.745979
1643.447990	-2.990500	3.325700	-9.945100	26.548416	0.000587	20.726315
1644.449289	-2.992600	3.325400	-9.948800	26.504891	0.000588	20.716229
1645.446487	-3.004600	3.325200	-9.990000	26.491255	0.000587	20.723386
1646.449739	-3.023000	3.324700	-10.049000	26.445949	0.000585	20.726212
1647.450481	-2.989200	3.324400	-9.936400	26.440558	0.000586	20.726483
1648.447465	-3.000700	3.324800	-9.976000	26.405029	0.000585	20.698832
1649.449789	-2.991100	3.322900	-9.937200	26.402149	0.000585	20.719173
1650.463429	-2.991300	3.322200	-9.936200	26.419604	0.000583	20.732924
1651.451478	-2.989700	3.323000	-9.934000	26.448779	0.000584	20.724315
1652.451193	-2.985300	3.321200	-9.912900	26.422636	0.000583	20.717953
1653.452709	-3.000500	3.322200	-9.967400	26.411958	0.000582	20.737567
1654.446690	-3.001700	3.321400	-9.968300	26.397014	0.000581	20.737720
1655.450925	-2.986400	3.322200	-9.919300	26.403791	0.000580	20.720349
1656.450060	-3.007000	3.321300	-9.986500	26.366919	0.000581	20.744932
1657.455149	-3.008100	3.320700	-9.987700	26.324487	0.000579	20.728365
1658.450265	-3.009900	3.319900	-9.991500	26.325283	0.000577	20.731537
1659.446890	-2.994200	3.318600	-9.934600	26.353272	0.000579	20.724577
1660.448756	-2.989400	3.321100	-9.926700	26.408990	0.000578	20.748335
1661.451375	-3.003300	3.320100	-9.970000	26.444947	0.000575	20.738007
1662.454547	-2.994600	3.318200	-9.936000	26.481521	0.000576	20.736362
1663.447795	-3.002300	3.317200	-9.957700	26.486066	0.000577	20.739035
1664.450357	-2.991800	3.318200	-9.925700	26.452455	0.000575	20.736071
1665.453348	-2.984700	3.317900	-9.901300	26.453104	0.000575	20.742413
1666.449104	-3.017200	3.316500	-10.005000	26.423861	0.000575	20.740048
1667.449819	-2.985400	3.316300	-9.899700	26.427060	0.000573	20.723348
1668.453388	-2.986900	3.317000	-9.906700	26.477291	0.000573	20.747758
1669.450791	-2.983900	3.315700	-9.893000	26.513987	0.000576	20.740072
1670.447205	-3.011500	3.315000	-9.980900	26.567422	0.000573	20.747793
1671.457597	-2.984500	3.313500	-9.887400	26.623699	0.000572	20.745570
1672.449750	-3.010000	3.315100	-9.977600	26.616894	0.000572	20.742522
1673.450590	-3.020100	3.313100	-10.005000	26.590387	0.000570	20.728203
1674.448257	-3.013700	3.313300	-9.982600	26.562037	0.000570	20.750914
1675.449531	-3.012400	3.312900	-9.979300	26.536467	0.000570	20.731849
1676.447987	-3.011000	3.314000	-9.977000	26.511540	0.000569	20.741880
1677.458190	-2.998300	3.313300	-9.932400	26.504911	0.000569	20.738537
1678.455113	-2.991800	3.313000	-9.911100	26.564543	0.000567	20.738260
1679.451291	-3.013400	3.311000	-9.975300	26.599398	0.000567	20.739159
1680.455101	-2.980800	3.313000	-9.873700	26.633860	0.000564	20.746775
1681.451130	-3.010100	3.310500	-9.964000	26.691254	0.000566	20.754688
1682.452843	-2.968200	3.310800	-9.826300	26.677743	0.000564	20.757701
1683.450783	-2.985200	3.311400	-9.883900	26.698151	0.000564	20.743130
1684.453299	-2.999600	3.310100	-9.926400	26.716324	0.000564	20.750969
1685.455165	-3.007000	3.308900	-9.949200	26.730222	0.000562	20.740759
1686.455606	-2.991900	3.309400	-9.899500	26.708154	0.000562	20.747022
1687.452725	-3.003700	3.308700	-9.937500	26.740794	0.000560	20.756130
1688.456397	-2.978800	3.308600	-9.854800	26.740371	0.000560	20.770405
1689.460780	-2.996400	3.308900	-9.914200	26.758366	0.000562	20.752935
1690.452864	-2.962700	3.310100	-9.806600	26.742106	0.000560	20.743224
1691.456808	-2.997200	3.306900	-9.910300	26.719866	0.000560	20.775867
1692.455418	-3.013900	3.305300	-9.961200	26.693184	0.000559	20.751413
1693.458721	-3.009200	3.306400	-9.948000	26.670595	0.000559	20.745773
1694.459253	-3.015000	3.305900	-9.966100	26.706758	0.000557	20.740403
1695.465885	-2.997300	3.305400	-9.905700	26.711352	0.000557	20.742651
1696.454723	-2.994900	3.305300	-9.898000	26.694128	0.000555	20.766587
1697.457771	-3.005900	3.305800	-9.934900	26.692388	0.000557	20.735439
1698.463163	-2.986500	3.305200	-9.870300	26.671464	0.000556	20.752337
1699.460454	-2.986000	3.303800	-9.863800	26.683624	0.000555	20.755552
1700.464948	-3.017100	3.302500	-9.962500	26.703315	0.000555	20.733622
1701.457901	-2.984200	3.304300	-9.859700	26.725604	0.000556	20.749867
1702.462328	-3.003000	3.302300	-9.914800	26.756033	0.000555	20.758175
1703.456273	-2.969200	3.303300	-9.805500	26.790754	0.000551	20.730495
1704.465445	-2.999100	3.302100	-9.903000	26.800240	0.000552	20.741930
1705.461966	-3.008300	3.300300	-9.927400	26.790612	0.000551	20.739361
1706.460083	-2.992300	3.301500	-9.878700	26.806769	0.000552	20.769832
1707.463580	-2.975500	3.301700	-9.823700	26.815680	0.000551	20.753661
1708.460016	-3.002900	3.300900	-9.910900	26.805477	0.000550	20.755730
1709.459877	-2.985100	3.299700	-9.848900	26.811436	0.000552	20.762670
1710.463203	-3.021800	3.299400	-9.969300	26.811465	0.000550	20.772183
1711.460972	-2.987500	3.299700	-9.857000	26.806474	0.000548	20.778070
1712.465849	-2.980900	3.300400	-9.837000	26.798536	0.000545	20.753967
1713.469859	-2.981700	3.299900	-9.838300	26.827676	0.000547	20.777103
1714.462708	-2.980200	3.299600	-9.832700	26.822592	0.000545	20.758240
1715.460126	-2.980800	3.299100	-9.832000	26.820259	0.000546	20.793827
1716.465936	-2.992700	3.297300	-9.867600	26.813588	0.000547	20.773843
1717.461208	-2.991800	3.297500	-9.864800	26.835226	0.000546	20.749132
1718.464472	-2.985600	3.297900	-9.845600	26.826920	0.000545	20.758798
1719.466659	-2.954000	3.299100	-9.744900	26.782989	0.000543	20.774846
1720.465475	-3.009800	3.295400	-9.917300	26.743369	0.000542	20.760142
1721.464879	-2.992500	3.295700	-9.861900	26.742907	0.000541	20.786705
1722.470965	-2.992400	3.296000	-9.860900	26.768797	0.000541	20.757732
1723.466159	-2.989000	3.295400	-9.848300	26.795825	0.000542	20.770682
1724.462245	-3.030700	3.293700	-9.980500	26.792799	0.000539	20.774752
1725.466587	-2.996500	3.295000	-9.872400	26.772702	0.000539	20.759288
1726.460485	-3.007200	3.295100	-9.907300	26.735691	0.000540	20.757638
1727.464339	-2.984200	3.293100	-9.826000	26.742647	0.000538	20.765106
1728.464412	-2.998200	3.293500	-9.873600	26.816585	0.000538	20.760261
1729.469850	-3.003000	3.292900	-9.887200	26.840557	0.000536	20.769191
1730.465933	-2.981500	3.293600	-9.818700	26.860171	0.000538	20.760463
1731.469851	-3.014900	3.291300	-9.922400	26.869229	0.000536	20.786641
1732.465277	-3.019900	3.290900	-9.936400	26.906683	0.000536	20.760765
1733.462485	-3.012700	3.292100	-9.917000	26.901167	0.000537	20.752847
1734.471358	-3.007100	3.291600	-9.896900	26.887325	0.000535	20.776387
1735.467625	-2.984400	3.291800	-9.822600	26.824258	0.000534	20.778882
1736.467681	-3.043500	3.288200	-10.006000	26.825245	0.000535	20.774184
1737.470167	-2.996600	3.289800	-9.855700	26.835153	0.000533	20.770396
1738.464745	-3.001200	3.289400	-9.871600	26.838032	0.000531	20.774239
1739.463953	-2.969200	3.289700	-9.766600	26.866621	0.000531	20.774061
1740.471604	-3.010200	3.288100	-9.896600	26.885925	0.000532	20.788256
1741.469109	-3.006900	3.288600	-9.887600	26.907302	0.000530	20.760913
1742.470008	-3.017800	3.286600	-9.916300	26.970211	0.000530	20.780077
1743.467134	-2.996600	3.287300	-9.849500	26.967505	0.000530	20.764553
1744.469209	-3.020900	3.287100	-9.929000	27.022303	0.000528	20.776037
1745.472817	-2.997500	3.286900	-9.851500	27.053666	0.000529	20.771068
1746.476567	-2.972500	3.288200	-9.773100	27.067235	0.000527	20.797043
1747.468714	-3.007500	3.286100	-9.881900	27.104064	0.000528	20.774338
1748.469689	-3.026400	3.284200	-9.938500	27.100837	0.000524	20.774886
1749.478889	-2.987700	3.285600	-9.815300	27.088805	0.000525	20.783648
1750.472579	-3.011500	3.285100	-9.889900	27.052085	0.000526	20.794134
1751.470005	-2.991600	3.285600	-9.828100	27.050174	0.000524	20.792213
1752.474262	-3.009300	3.285300	-9.884400	27.037616	0.000523	20.763936
1753.473219	-3.000300	3.283700	-9.850900	27.067742	0.000523	20.782379
1754.472575	-3.032000	3.282000	-9.949800	27.078040	0.000524	20.773296
1755.474858	-3.038600	3.282000	-9.971600	27.000422	0.000522	20.800026
1756.470021	-3.003400	3.282700	-9.857800	26.971047	0.000521	20.794668
1757.471860	-3.001800	3.282400	-9.851900	26.942279	0.000520	20.817422
1758.472954	-3.005300	3.281400	-9.861100	26.935034	0.000518	20.802076
1759.473160	-3.006900	3.282200	-9.868300	26.979902	0.000518	20.794564
1760.470442	-2.984100	3.280600	-9.787600	26.961671	0.000518	20.771488
1761.476682	-3.006700	3.280000	-9.861700	26.986882	0.000519	20.812014
1762.469941	-2.996500	3.281100	-9.831200	26.993237	0.000520	20.810345
1763.474314	-3.011100	3.280000	-9.875700	27.028128	0.000517	20.816983
1764.477097	-3.007400	3.280000	-9.863600	27.051874	0.000518	20.783965
1765.473261	-3.023700	3.278400	-9.910400	27.080167	0.000517	20.803410
1766.473413	-2.998800	3.278900	-9.831300	27.132199	0.000517	20.769444
1767.477837	-2.975800	3.278800	-9.756000	27.131502	0.000516	20.798140
1768.477882	-3.022000	3.275800	-9.898100	27.155869	0.000515	20.804156
1769.477258	-2.987800	3.277300	-9.790900	27.130338	0.000513	20.807401
1770.477032	-2.988000	3.278500	-9.796200	27.142050	0.000514	20.809223
1771.477456	-2.991600	3.277500	-9.803900	27.158049	0.000514	20.806349
1772.475080	-3.004200	3.277400	-9.844800	27.148822	0.000513	20.818879
1773.478678	-2.995300	3.277200	-9.814100	27.158374	0.000512	20.801459
1774.479609	-3.001400	3.277400	-9.835200	27.183261	0.000511	20.797093
1775.475169	-3.005700	3.274400	-9.840200	27.187449	0.000510	20.791349
1776.482246	-3.008700	3.273700	-9.847300	27.181198	0.000509	20.814933
1777.485405	-3.007300	3.274200	-9.845900	27.181719	0.000509	20.806447
1778.479415	-3.015900	3.273600	-9.872300	27.178394	0.000509	20.825389
1779.481853	-2.998800	3.273000	-9.813800	27.156763	0.000508	20.810745
1780.481080	-3.025500	3.272300	-9.898700	27.140901	0.000508	20.812335
1781.481189	-3.003000	3.272200	-9.825700	27.128447	0.000507	20.818775
1782.483929	-2.983900	3.272600	-9.763500	27.146504	0.000507	20.812280
1783.478938	-3.013100	3.271700	-9.857300	27.163127	0.000506	20.819516
1784.481134	-2.985300	3.273400	-9.770800	27.181743	0.000504	20.833024
1785.482570	-2.983100	3.273200	-9.763300	27.195390	0.000504	20.810241
1786.486413	-2.983500	3.271200	-9.757400	27.237738	0.000504	20.820593
1787.483799	-2.992900	3.270800	-9.788600	27.264779	0.000503	20.817921
1788.489194	-2.999400	3.271200	-9.809800	27.269915	0.000503	20.815501
1789.485732	-3.013100	3.270500	-9.853100	27.245275	0.000501	20.820588
1790.483330	-2.986200	3.271700	-9.767700	27.184071	0.000499	20.817822
1791.485405	-3.002700	3.270200	-9.817500	27.201380	0.000500	20.821481
1792.483807	-2.970000	3.270200	-9.710200	27.228820	0.000501	20.810201
1793.483812	-2.984100	3.269400	-9.755300	27.246664	0.000499	20.827201
1794.487114	-2.990400	3.268300	-9.772300	27.260305	0.000498	20.812947
1795.485355	-3.001300	3.268600	-9.809200	27.268319	0.000498	20.828593
1796.484614	-2.998800	3.266900	-9.795700	27.259357	0.000498	20.819106
1797.485916	-2.996400	3.266400	-9.786700	27.219264	0.000497	20.829986
1798.483305	-3.011400	3.265000	-9.831400	27.218891	0.000495	20.814912
1799.486584	-2.992200	3.264800	-9.768000	27.214054	0.000494	20.832332
1800.482441	-2.986800	3.265800	-9.753000	27.225741	0.000493	20.818009
1801.483904	-3.017000	3.264700	-9.849000	27.206757	0.000495	20.832105
1802.490328	-3.020900	3.264100	-9.859300	27.251295	0.000493	20.803883
1803.483541	-3.010200	3.263800	-9.823200	27.233872	0.000494	20.835671
1804.486466	-2.989100	3.264300	-9.756600	27.228294	0.000491	20.846181
1805.487329	-3.003600	3.262500	-9.797700	27.249409	0.000492	20.837073
1806.496285	-3.012800	3.263500	-9.831800	27.272954	0.000491	20.821402
1807.489087	-2.987000	3.263100	-9.745800	27.326218	0.000492	20.839419
1808.488511	-2.994800	3.262800	-9.770200	27.347321	0.000491	20.833147
1809.489543	-2.995700	3.262500	-9.772200	27.384709	0.000491	20.833774
1810.485731	-2.983300	3.262200	-9.730000	27.370269	0.000490	20.839162
1811.490112	-3.005200	3.261500	-9.800000	27.321126	0.000488	20.830505
1812.488778	-3.002800	3.260000	-9.788200	27.284183	0.000489	20.836965
1813.485597	-3.008000	3.260000	-9.805800	27.278001	0.000485	20.841177
1814.485173	-3.006200	3.259900	-9.798900	27.288867	0.000487	20.835038
1815.486261	-3.031600	3.258100	-9.876000	27.287050	0.000487	20.840323
1816.491770	-2.966700	3.260000	-9.670200	27.268971	0.000484	20.843000
1817.485241	-3.001000	3.260000	-9.781600	27.282886	0.000483	20.840402
1818.488265	-2.995900	3.258900	-9.762600	27.322658	0.000485	20.842950
1819.486995	-2.982000	3.259600	-9.718400	27.319972	0.000482	20.841197
1820.487533	-3.001400	3.257700	-9.776900	27.369493	0.000482	20.861140
1821.493033	-3.016600	3.256000	-9.820800	27.382048	0.000481	20.840106
1822.491138	-3.011700	3.257500	-9.810000	27.395662	0.000479	20.836258
1823.487373	-2.993600	3.256500	-9.747800	27.366194	0.000480	20.848813
1824.490605	-3.041500	3.254300	-9.896500	27.302188	0.000477	20.862187
1825.498984	-2.996700	3.255500	-9.754900	27.265750	0.000478	20.861096
1826.491478	-3.008400	3.256100	-9.794900	27.252252	0.000478	20.859372
1827.501763	-3.002300	3.254100	-9.768300	27.257407	0.000477	20.844170
1828.488947	-3.019500	3.254200	-9.824600	27.248701	0.000477	20.848689
1829.497222	-2.994400	3.254700	-9.744700	27.229448	0.000476	20.839755
1830.488779	-3.013600	3.254500	-9.806900	27.254756	0.000475	20.865210
1831.496414	-2.998000	3.255200	-9.757600	27.261282	0.000475	20.855653
1832.492884	-2.998600	3.252200	-9.751200	27.327519	0.000474	20.879606
1833.493372	-2.987100	3.252700	-9.714500	27.378026	0.000473	20.843647
1834.494867	-2.990600	3.252400	-9.725700	27.412085	0.000474	20.838555
1835.502647	-2.978600	3.253600	-9.689900	27.388150	0.000474	20.854779
1836.495031	-2.995200	3.251600	-9.738000	27.386388	0.000471	20.856799
1837.498227	-3.006200	3.251200	-9.773300	27.430324	0.000473	20.862592
1838.496935	-2.988700	3.251000	-9.715300	27.436200	0.000469	20.851435
1839.497880	-2.997000	3.251500	-9.743600	27.448100	0.000471	20.864355
1840.499169	-2.980200	3.250200	-9.685600	27.431261	0.000469	20.860217
1841.497134	-3.012600	3.250300	-9.791500	27.420298	0.000470	20.865309
1842.495217	-3.001300	3.250700	-9.755100	27.417318	0.000469	20.875586
1843.495132	-3.020100	3.248500	-9.809600	27.419626	0.000465	20.870321
1844.497997	-3.012600	3.247800	-9.782200	27.396757	0.000466	20.879557
1845.493949	-3.027400	3.247500	-9.830600	27.429479	0.000464	20.875492
1846.497406	-3.015900	3.248100	-9.794000	27.413553	0.000465	20.861842
1847.499145	-3.023900	3.247800	-9.819600	27.441758	0.000463	20.868879
1848.503273	-3.010200	3.247600	-9.774800	27.437320	0.000461	20.884802
1849.498677	-3.028900	3.246700	-9.832800	27.439058	0.000462	20.882283
1850.496837	-3.020800	3.245100	-9.801100	27.432980	0.000462	20.879014
1851.495895	-2.966300	3.247000	-9.630300	27.463541	0.000462	20.873250
1852.497282	-2.982400	3.245300	-9.677100	27.484081	0.000461	20.865467
1853.503139	-2.967600	3.245800	-9.631200	27.482221	0.000458	20.879715
1854.497149	-3.010400	3.244300	-9.765900	27.518092	0.000459	20.864124
1855.499343	-2.999000	3.244400	-9.728300	27.520021	0.000458	20.862271
1856.502807	-3.011300	3.241700	-9.759200	27.513055	0.000458	20.894141
1857.499531	-2.990000	3.244600	-9.700300	27.486963	0.000457	20.881642
1858.496970	-2.996400	3.244800	-9.721700	27.455961	0.000458	20.876530
1859.501937	-3.039600	3.241100	-9.850800	27.451371	0.000455	20.875705
1860.499237	-3.009900	3.240700	-9.752900	27.477223	0.000455	20.886541
1861.497930	-3.014800	3.242200	-9.773900	27.478338	0.000453	20.881499
1862.501219	-2.995900	3.241800	-9.710300	27.457552	0.000454	20.893302
1863.500243	-3.014600	3.239200	-9.763200	27.444110	0.000453	20.888314
1864.501989	-2.989900	3.242700	-9.694400	27.468574	0.000452	20.853659
1865.501807	-3.014600	3.240000	-9.766800	27.460316	0.000452	20.884704
1866.498205	-3.004400	3.238700	-9.729300	27.493130	0.000449	20.880733
1867.515065	-3.002700	3.239100	-9.724900	27.539742	0.000450	20.884008
1868.498057	-2.991300	3.239000	-9.687800	27.543782	0.000449	20.868633
1869.501269	-3.014300	3.236100	-9.753300	27.508790	0.000447	20.874679
1870.503511	-2.997400	3.237300	-9.702400	27.468883	0.000448	20.892374
1871.499934	-2.999800	3.237400	-9.710800	27.410790	0.000447	20.889406
1872.502928	-2.988600	3.237900	-9.675500	27.363186	0.000446	20.882769
1873.499586	-2.976000	3.237500	-9.633600	27.348776	0.000446	20.875859
1874.499593	-2.992700	3.236900	-9.685000	27.294098	0.000445	20.876808
1875.503466	-2.995600	3.235700	-9.691600	27.290784	0.000445	20.864466
1876.506330	-2.980600	3.234600	-9.640300	27.313783	0.000443	20.873850
1877.500059	-2.973300	3.235400	-9.617800	27.337051	0.000440	20.874023
1878.501575	-2.984500	3.235600	-9.655900	27.406141	0.000443	20.875248
1879.503017	-3.001300	3.234300	-9.705700	27.412004	0.000440	20.870714
1880.501629	-3.001800	3.233700	-9.705600	27.460902	0.000440	20.880078
1881.499778	-2.987800	3.234400	-9.663000	27.507736	0.000440	20.861291
1882.507963	-2.979800	3.234000	-9.636200	27.561460	0.000437	20.863662
1883.508049	-2.995900	3.232600	-9.683500	27.539837	0.000438	20.859923
1884.515759	-3.003400	3.232800	-9.707600	27.507025	0.000436	20.839240
1885.509154	-2.989100	3.232400	-9.660500	27.466725	0.000437	20.873609
1886.503330	-2.985800	3.233100	-9.651900	27.490864	0.000435	20.865179
1887.510323	-3.041600	3.230200	-9.824200	27.514483	0.000434	20.864760
1888.507854	-3.014000	3.230300	-9.733700	27.549386	0.000436	20.851514
1889.507390	-3.012700	3.229600	-9.728500	27.581357	0.000434	20.850017
1890.509621	-2.999700	3.229700	-9.687700	27.594160	0.000433	20.874751
1891.512456	-3.011300	3.229000	-9.721800	27.604453	0.000431	20.862350
1892.510851	-3.016000	3.228800	-9.736300	27.592530	0.000431	20.872164
1893.507349	-2.982700	3.229200	-9.629900	27.547786	0.000431	20.876930
1894.513550	-3.001300	3.228400	-9.688600	27.552725	0.000429	20.838753
1895.511642	-3.023900	3.226600	-9.756500	27.566018	0.000431	20.862558
1896.511489	-2.994800	3.227600	-9.664400	27.557884	0.000428	20.852952
1897.511992	-2.999700	3.226900	-9.679100	27.582988	0.000428	20.857348
1898.512756	-3.022200	3.226500	-9.749700	27.581157	0.000428	20.846023
1899.515513	-3.002300	3.226100	-9.684700	27.596006	0.000427	20.850058
1900.509057	-3.007100	3.225600	-9.698300	27.571855	0.000425	20.853258
1901.510147	-3.037400	3.224600	-9.792700	27.549186	0.000428	20.852261
1902.512922	-3.008800	3.224100	-9.698800	27.560550	0.000425	20.837617
1903.515544	-3.019100	3.224400	-9.734200	27.561296	0.000424	20.839791
1904.512594	-2.982700	3.224300	-9.616200	27.614718	0.000426	20.842334
1905.512501	-3.005800	3.223200	-9.687400	27.605274	0.000425	20.830935
1906.514172	-3.008100	3.222500	-9.692400	27.547905	0.000423	20.837697
1907.514601	-2.997800	3.222900	-9.660400	27.508594	0.000422	20.852671
1908.515361	-3.018500	3.221800	-9.723300	27.460523	0.000420	20.855042
1909.518850	-2.977600	3.222300	-9.593900	27.425450	0.000422	20.844888
1910.517312	-3.000700	3.220900	-9.663400	27.446958	0.000421	20.831913
1911.517155	-2.980300	3.222800	-9.603700	27.429225	0.000419	20.861014
1912.517937	-2.972800	3.221800	-9.577000	27.445274	0.000420	20.843021
1913.518200	-3.007200	3.219700	-9.681400	27.473405	0.000417	20.839554
1914.515955	-3.010100	3.219700	-9.690500	27.479782	0.000417	20.826530
1915.521707	-2.974900	3.219300	-9.576200	27.464677	0.000418	20.830299
1916.518854	-2.986500	3.219100	-9.611100	27.467701	0.000417	20.834289
1917.518464	-3.001400	3.218900	-9.660100	27.498383	0.000414	20.813002
1918.516618	-3.006400	3.217300	-9.671400	27.483926	0.000412	20.821216
1919.520763	-2.970600	3.220500	-9.565700	27.502576	0.000413	20.829074
1920.519587	-2.979200	3.218700	-9.588200	27.505433	0.000414	20.828630
1921.521833	-2.998000	3.218400	-9.647300	27.525472	0.000411	20.832195
1922.527444	-3.004200	3.218100	-9.667700	27.494373	0.000412	20.818925
1923.525047	-2.987600	3.216600	-9.608300	27.476366	0.000410	20.813136
1924.521835	-3.011500	3.215500	-9.681800	27.482939	0.000409	20.818801
1925.524030	-3.002200	3.214800	-9.650700	27.457342	0.000407	20.813438
1926.526561	-2.995600	3.214300	-9.627800	27.515580	0.000407	20.823666
1927.521597	-3.012700	3.214000	-9.682200	27.529547	0.000407	20.814959
1928.528146	-2.981900	3.214700	-9.585300	27.559530	0.000406	20.834695
1929.531174	-2.993700	3.213700	-9.619900	27.597328	0.000407	20.821992
1930.530210	-2.989800	3.214300	-9.609300	27.619446	0.000406	20.802522
1931.526434	-3.003700	3.212300	-9.647600	27.547872	0.000405	20.812059
1932.528268	-2.986200	3.212900	-9.593700	27.477200	0.000404	20.822984
1933.524562	-2.999100	3.211800	-9.630800	27.468496	0.000404	20.813279
1934.529193	-2.999800	3.211600	-9.633400	27.464917	0.000403	20.823902
1935.524586	-3.009300	3.211100	-9.662300	27.517430	0.000403	20.826002
1936.524863	-2.982700	3.212500	-9.580400	27.541411	0.000400	20.822628
1937.532887	-2.979200	3.210100	-9.562500	27.573034	0.000401	20.819358
1938.528923	-3.007300	3.209800	-9.652200	27.615911	0.000401	20.805603
1939.523549	-3.017400	3.209800	-9.683300	27.618660	0.000397	20.825912
1940.534233	-2.991200	3.211100	-9.603900	27.684011	0.000399	20.809169
1941.527612	-3.009500	3.208000	-9.653900	27.692708	0.000397	20.816024
1942.528066	-2.996100	3.207600	-9.609300	27.638343	0.000397	20.817742
1943.532456	-2.978200	3.209300	-9.557400	27.577505	0.000394	20.821960
1944.528816	-3.002500	3.206900	-9.628200	27.587003	0.000393	20.832465
1945.525981	-3.006500	3.206400	-9.639600	27.595377	0.000391	20.824770
1946.535101	-3.008800	3.208000	-9.651700	27.577121	0.000394	20.807824
1947.530961	-3.019900	3.204700	-9.677200	27.561535	0.000392	20.829600
1948.527365	-3.001700	3.205300	-9.620400	27.519873	0.000392	20.798114
1949.534266	-2.979400	3.206400	-9.552500	27.494449	0.000391	20.820423
1950.527615	-3.008300	3.203800	-9.637000	27.498862	0.000388	20.835769
1951.528690	-2.989400	3.204300	-9.577500	27.511954	0.000388	20.816225
1952.536613	-3.001500	3.203900	-9.615500	27.566101	0.000387	20.819969
1953.534743	-3.003500	3.201400	-9.615100	27.610868	0.000386	20.819020
1954.533935	-3.013400	3.201300	-9.646100	27.660543	0.000385	20.803571
1955.532149	-2.970600	3.204500	-9.517700	27.705208	0.000383	20.806317
1956.531405	-3.000900	3.202400	-9.609500	27.760861	0.000382	20.800208
1957.529871	-3.007300	3.204400	-9.635900	27.800634	0.000382	20.806569
1958.540296	-3.022800	3.200800	-9.674900	27.811416	0.000383	20.807463
1959.534524	-3.007200	3.200800	-9.624800	27.825085	0.000383	20.826908
1960.535581	-3.009700	3.199500	-9.628700	27.804080	0.000380	20.808140
1961.539463	-3.014500	3.199200	-9.643300	27.762122	0.000379	20.814753
1962.542554	-3.008100	3.198900	-9.621500	27.724453	0.000378	20.810510
1963.534976	-2.994000	3.198800	-9.576200	27.714480	0.000378	20.810431
1964.544209	-2.994300	3.198700	-9.575200	27.671184	0.000377	20.818072
1965.532783	-2.998000	3.197500	-9.585500	27.653867	0.000377	20.817716
1966.537877	-3.016900	3.196800	-9.642700	27.627282	0.000376	20.799501
1967.542644	-3.010900	3.195900	-9.621400	27.642955	0.000375	20.810530
1968.538830	-3.000500	3.197300	-9.592400	27.631597	0.000376	20.808110
1969.538157	-3.007000	3.197200	-9.612300	27.632716	0.000376	20.803546
1970.541804	-3.012800	3.195100	-9.625500	27.641861	0.000373	20.795204
1971.539870	-3.000100	3.195900	-9.587000	27.630149	0.000373	20.807127
1972.538977	-2.987900	3.196500	-9.550100	27.650313	0.000374	20.794226
1973.540105	-3.005700	3.196700	-9.607400	27.644879	0.000371	20.797293
1974.538179	-2.998700	3.193500	-9.575400	27.608668	0.000371	20.798789
1975.539762	-3.002800	3.193700	-9.589000	27.596343	0.000372	20.821948
1976.537887	-3.012500	3.191000	-9.611700	27.600652	0.000369	20.799732
1977.542778	-3.024500	3.191300	-9.651600	27.642120	0.000369	20.804000
1978.538224	-3.008000	3.191600	-9.598300	27.666868	0.000367	20.800453
1979.540570	-3.025100	3.190100	-9.649500	27.698610	0.000367	20.802049
1980.541609	-3.012600	3.190600	-9.610300	27.660040	0.000366	20.795479
1981.542067	-2.993200	3.189500	-9.545600	27.614430	0.000368	20.800794
1982.547677	-2.988300	3.190400	-9.531400	27.572741	0.000367	20.798201
1983.540366	-3.005000	3.190100	-9.585300	27.633672	0.000363	20.819206
1984.542250	-3.009900	3.188900	-9.597300	27.656217	0.000365	20.801589
1985.559244	-2.986700	3.189800	-9.525800	27.684012	0.000365	20.784988
1986.547565	-3.013300	3.188200	-9.606200	27.720368	0.000363	20.819201
1987.542451	-2.987600	3.189300	-9.526600	27.766415	0.000364	20.789675
1988.542019	-2.996400	3.188900	-9.554000	27.783268	0.000361	20.789092
1989.543529	-2.997500	3.187500	-9.553200	27.790610	0.000362	20.797429
1990.545415	-3.021800	3.186500	-9.628000	27.787459	0.000359	20.787146
1991.541039	-2.988600	3.186900	-9.523300	27.744260	0.000361	20.798200
1992.543970	-2.999800	3.185600	-9.555200	27.731906	0.000359	20.787664
1993.539001	-3.002600	3.184100	-9.559000	27.718639	0.000358	20.788539
1994.540233	-3.014100	3.185400	-9.599400	27.697627	0.000357	20.797740
1995.542585	-3.014700	3.184000	-9.597600	27.751582	0.000355	20.793240
1996.544537	-3.015000	3.182900	-9.595800	27.782507	0.000356	20.790697
1997.543714	-3.003500	3.182400	-9.557200	27.801171	0.000355	20.783875
1998.544792	-3.013200	3.182700	-9.587700	27.850964	0.000356	20.799848
1999.542772	-3.030800	3.183200	-9.646200	27.820684	0.000352	20.808255
2000.540109	-3.021000	3.181000	-9.608900	27.771532	0.000353	20.810472
2001.543567	-3.004800	3.181900	-9.560600	27.752582	0.000353	20.796144
2002.543030	-3.008900	3.181800	-9.573000	27.740646	0.000350	20.788873
2003.539564	-2.990700	3.179900	-9.508300	27.759811	0.000350	20.797729
2004.542565	-3.013200	3.179100	-9.577800	27.827504	0.000350	20.793308
2005.558069	-2.992500	3.179600	-9.514100	27.856061	0.000349	20.797393
2006.543543	-3.011200	3.178300	-9.569900	27.868438	0.000348	20.807478
2007.542965	-3.012400	3.177900	-9.572500	27.860773	0.000350	20.811143
2008.541031	-3.014000	3.176700	-9.573900	27.819878	0.000344	20.770933
2009.542663	-3.000100	3.177800	-9.532900	27.766883	0.000346	20.820966
2010.543274	-3.029100	3.175800	-9.619000	27.800776	0.000343	20.801497
2011.544640	-2.994800	3.176600	-9.513000	27.833432	0.000342	20.796903
2012.539862	-3.010400	3.174300	-9.554700	27.886193	0.000343	20.798321
2013.545627	-3.015400	3.176500	-9.577100	27.927944	0.000339	20.818057
2014.543233	-3.003500	3.175100	-9.535000	27.940614	0.000340	20.800938
2015.540332	-3.037300	3.172000	-9.632900	27.945521	0.000340	20.791178
2016.543920	-2.981000	3.175900	-9.466200	27.976263	0.000338	20.781819
2017.543164	-2.980500	3.174300	-9.460800	28.016922	0.000337	20.800459
2018.540415	-2.995300	3.173500	-9.504900	28.057853	0.000336	20.800410
2019.544181	-2.983400	3.171900	-9.461800	28.058697	0.000337	20.801733
2020.551157	-2.993400	3.173900	-9.500000	28.083215	0.000337	20.775205
2021.541473	-2.993700	3.173200	-9.498300	28.107482	0.000334	20.797263
2022.542861	-2.985000	3.171800	-9.466300	28.107084	0.000335	20.801605
2023.547716	-2.998100	3.171900	-9.509700	28.086311	0.000332	20.785908
2024.544673	-2.995300	3.170700	-9.495500	28.098680	0.000332	20.787928
2025.546145	-3.018300	3.171600	-9.571900	28.080040	0.000331	20.781967
2026.544407	-3.019200	3.169500	-9.567400	28.088592	0.000329	20.790102
2027.543417	-3.018200	3.168700	-9.563200	28.095432	0.000329	20.800780
2028.542878	-3.000000	3.168600	-9.504300	28.124438	0.000329	20.783039
2029.543203	-2.999400	3.168700	-9.502800	28.135570	0.000329	20.779547
2030.542479	-3.016700	3.166400	-9.551100	28.102227	0.000327	20.814259
2031.544204	-2.999800	3.167500	-9.499800	28.131650	0.000329	20.767539
2032.541815	-3.013400	3.166300	-9.540000	28.138023	0.000326	20.761153
2033.546294	-3.002600	3.165600	-9.504700	28.143278	0.000326	20.776875
2034.546666	-3.015100	3.165400	-9.542300	28.112074	0.000322	20.792878
2035.545771	-3.006000	3.166000	-9.516200	28.114111	0.000324	20.782599
2036.543258	-3.016500	3.162900	-9.539600	28.112467	0.000323	20.786634
2037.549928	-2.988800	3.165200	-9.457500	28.142513	0.000322	20.784165
2038.545856	-3.006500	3.163000	-9.508900	28.122957	0.000323	20.791979
2039.544249	-3.002100	3.162600	-9.493500	28.135625	0.000320	20.771540
2040.546735	-2.999000	3.162100	-9.482000	28.143435	0.000322	20.763756
2041.545692	-2.966400	3.162300	-9.379300	28.114184	0.000319	20.775087
2042.545497	-2.988600	3.160200	-9.443500	28.072686	0.000316	20.758916
2043.548261	-2.997700	3.160700	-9.473000	28.037280	0.000315	20.766423
2044.545248	-3.009700	3.158900	-9.506300	27.992883	0.000316	20.775314
2045.545511	-2.995400	3.158500	-9.460100	27.984375	0.000315	20.771965
2046.548095	-2.987500	3.159900	-9.438200	28.000567	0.000314	20.776885
2047.547942	-3.020800	3.159500	-9.543000	27.983835	0.000313	20.776638
2048.554292	-2.978200	3.157500	-9.402600	27.977765	0.000313	20.765787
2049.550866	-3.013400	3.155900	-9.508300	27.990332	0.000312	20.787445
2050.548829	-3.017800	3.157000	-9.526300	27.981853	0.000312	20.788867
2051.551482	-2.986100	3.156200	-9.423700	28.010887	0.000312	20.765935
2052.548846	-2.983000	3.157600	-9.418100	28.048644	0.000311	20.767431
2053.550312	-2.988600	3.155800	-9.430800	28.071106	0.000311	20.769654
2054.548839	-2.999400	3.154000	-9.459200	28.101276	0.000309	20.767308
2055.551038	-3.010700	3.154900	-9.496300	28.094638	0.000311	20.744503
2056.549774	-3.009200	3.154300	-9.490800	28.063619	0.000307	20.767807
2057.550326	-3.011900	3.153900	-9.497800	28.079688	0.000307	20.754110
2058.550675	-3.010400	3.151000	-9.484100	28.093298	0.000306	20.755009
2059.552606	-3.003600	3.151900	-9.466100	28.141066	0.000308	20.751413
2060.550284	-3.012600	3.150500	-9.489300	28.129188	0.000306	20.780234
2061.548613	-2.999800	3.150500	-9.449400	28.133549	0.000305	20.753330
2062.554633	-3.005400	3.149200	-9.463900	28.067981	0.000304	20.755602
2063.551036	-2.999700	3.148200	-9.442800	28.063241	0.000305	20.774539
2064.554978	-2.990900	3.148800	-9.417400	28.059723	0.000301	20.752979
2065.554225	-3.001700	3.148400	-9.450100	28.100054	0.000301	20.771294
2066.554392	-2.995000	3.145900	-9.421200	28.107634	0.000303	20.758535
2067.554550	-2.987600	3.148500	-9.405900	28.089785	0.000300	20.755266
2068.551862	-3.001900	3.146200	-9.442600	28.125312	0.000298	20.764477
2069.555079	-2.985000	3.146000	-9.389500	28.157653	0.000299	20.747723
2070.557477	-2.999200	3.144600	-9.429000	28.191343	0.000297	20.742759
2071.559597	-2.995700	3.143300	-9.415500	28.250507	0.000297	20.754910
2072.552470	-2.972500	3.144500	-9.345800	28.224850	0.000295	20.754208
2073.553268	-3.014800	3.142400	-9.472000	28.195027	0.000296	20.743623
2074.552899	-2.982600	3.141800	-9.369100	28.176732	0.000295	20.747491
2075.553351	-2.997200	3.140900	-9.413100	28.215004	0.000295	20.748088
2076.557470	-3.006800	3.142200	-9.446000	28.210888	0.000292	20.737780
2077.555949	-3.013400	3.139500	-9.459700	28.179259	0.000293	20.760940
2078.553771	-2.993700	3.141600	-9.404000	28.162132	0.000292	20.746542
2079.557675	-3.002400	3.139200	-9.425200	28.147654	0.000291	20.756149
2080.563686	-3.005100	3.139400	-9.433500	28.081561	0.000291	20.738452
2081.565036	-2.987700	3.139400	-9.378700	28.067278	0.000290	20.744937
2082.558893	-3.009300	3.138800	-9.443200	28.061901	0.000288	20.758965
2083.562219	-3.012200	3.137000	-9.448300	28.043079	0.000290	20.728163
2084.560062	-3.000000	3.137600	-9.411200	28.058618	0.000288	20.744280
2085.555987	-2.998700	3.138000	-9.408500	28.103296	0.000288	20.750375
2086.558545	-3.000200	3.135700	-9.406700	28.150514	0.000287	20.740536
2087.560668	-2.984200	3.135100	-9.354600	28.156735	0.000287	20.749644
2088.570658	-2.993300	3.133700	-9.378700	28.185190	0.000285	20.738935
2089.565805	-3.025000	3.131800	-9.472700	28.127136	0.000287	20.744976
2090.564259	-2.996300	3.134500	-9.389700	28.066792	0.000285	20.733067
2091.564654	-3.014400	3.131500	-9.439100	28.026828	0.000282	20.747367
2092.569328	-2.982200	3.133300	-9.343200	28.053059	0.000284	20.766185
2093.561699	-3.000200	3.132100	-9.394500	28.064383	0.000282	20.752928
2094.565021	-3.014400	3.130300	-9.434500	28.090632	0.000282	20.732410
2095.561799	-3.003400	3.130100	-9.400300	28.143537	0.000280	20.760540
2096.562166	-2.998800	3.128000	-9.378400	28.162372	0.000281	20.746310
2097.561839	-3.004000	3.128700	-9.397400	28.160164	0.000281	20.756415
2098.564418	-2.981000	3.128100	-9.323500	28.166355	0.000278	20.737517
2099.565124	-3.005100	3.126100	-9.392500	28.173199	0.000278	20.737295
2100.562749	-2.970600	3.127700	-9.290000	28.168980	0.000278	20.740634
2101.559233	-3.002900	3.126100	-9.386200	28.178253	0.000277	20.739063
2102.564757	-2.999900	3.124500	-9.372000	28.191656	0.000275	20.740703
2103.563416	-3.038600	3.122200	-9.485300	28.217534	0.000275	20.735937
2104.565609	-2.984000	3.123900	-9.320800	28.203332	0.000275	20.735863
2105.566906	-3.007100	3.122200	-9.388400	28.132532	0.000273	20.737606
2106.565604	-3.003600	3.122200	-9.377000	28.091304	0.000274	20.726922
2107.566127	-2.994400	3.122100	-9.348200	28.110366	0.000272	20.740422
2108.565331	-2.987200	3.120700	-9.321100	28.132998	0.000270	20.738550
2109.566150	-2.977400	3.120800	-9.290400	28.167081	0.000270	20.742042
2110.568862	-2.991800	3.120500	-9.335100	28.207732	0.000272	20.744086
2111.568256	-3.005200	3.119500	-9.372600	28.264197	0.000272	20.743563
2112.571081	-2.982200	3.117800	-9.296900	28.289402	0.000269	20.751871
2113.568238	-2.968800	3.118400	-9.256100	28.334757	0.000268	20.743010
2114.564477	-2.993300	3.117000	-9.329200	28.375770	0.000267	20.728829
2115.573313	-3.014200	3.117000	-9.393500	28.355198	0.000268	20.750315
2116.565469	-2.993400	3.116000	-9.326400	28.314601	0.000269	20.735991
2117.570641	-3.015700	3.114400	-9.390900	28.264958	0.000267	20.750493
2118.566980	-3.035200	3.114300	-9.452100	28.284634	0.000265	20.735689
2119.570215	-3.000400	3.114000	-9.341000	28.279876	0.000265	20.733743
2120.572110	-2.993300	3.113200	-9.318000	28.277418	0.000266	20.732217
2121.573363	-2.986300	3.113700	-9.296900	28.236470	0.000265	20.743148
2122.570348	-2.997300	3.110600	-9.322900	28.235656	0.000263	20.728577
2123.571436	-3.000900	3.112200	-9.337900	28.249235	0.000263	20.745094
2124.571805	-2.989700	3.109800	-9.296500	28.281038	0.000262	20.742501
2125.571355	-3.023400	3.108300	-9.396600	28.313130	0.000259	20.742570
2126.576664	-2.996400	3.109700	-9.316200	28.329288	0.000261	20.744141
2127.569650	-3.031100	3.106200	-9.414400	28.368814	0.000259	20.747430
2128.578766	-3.010500	3.106600	-9.351400	28.358165	0.000258	20.731491
2129.572506	-2.997500	3.107000	-9.312000	28.356183	0.000257	20.754627
2130.572143	-3.003300	3.106300	-9.327700	28.350013	0.000257	20.749362
2131.584027	-3.014600	3.106000	-9.361600	28.318187	0.000257	20.734385
2132.572177	-3.002300	3.104800	-9.320800	28.291222	0.000257	20.727623
2133.572730	-3.013200	3.102300	-9.346400	28.325800	0.000256	20.732568
2134.571974	-3.025500	3.101900	-9.383900	28.345995	0.000256	20.743894
2135.572757	-3.002900	3.101600	-9.313100	28.361712	0.000256	20.740752
2136.573619	-2.984400	3.101400	-9.254800	28.344068	0.000256	20.726305
2137.576556	-3.016900	3.101000	-9.353800	28.315367	0.000252	20.740555
2138.570680	-2.996100	3.099700	-9.284700	28.288156	0.000253	20.725959
2139.572362	-3.008600	3.099100	-9.322800	28.294970	0.000251	20.714801
2140.569689	-2.974400	3.101000	-9.222100	28.322813	0.000253	20.764649
2141.573118	-3.000600	3.096400	-9.290000	28.354952	0.000249	20.739162
2142.574161	-2.970100	3.097400	-9.198000	28.337063	0.000249	20.746754
2143.573822	-2.994100	3.096700	-9.270300	28.303034	0.000250	20.740466
2144.575819	-2.976600	3.096200	-9.214500	28.259856	0.000250	20.733027
2145.574151	-3.017500	3.094000	-9.335300	28.251605	0.000250	20.728513
2146.570034	-3.020300	3.091500	-9.336300	28.208674	0.000249	20.733180
2147.575637	-3.005200	3.092700	-9.292300	28.207786	0.000249	20.728493
2148.573943	-2.996400	3.093700	-9.268600	28.176623	0.000248	20.747381
2149.569856	-2.969200	3.090900	-9.176500	28.204215	0.000248	20.757141
2150.570506	-3.002300	3.091600	-9.281000	28.231305	0.000248	20.747430
2151.577127	-3.012900	3.090500	-9.308900	28.235426	0.000248	20.722655
2152.577165	-3.012200	3.089200	-9.302400	28.233066	0.000247	20.733556
2153.577948	-3.016900	3.088500	-9.316500	28.238766	0.000250	20.735028
2154.574387	-2.985800	3.089200	-9.222300	28.233610	0.000247	20.751174
2155.577716	-2.986600	3.088100	-9.221800	28.244521	0.000247	20.736080
2156.573512	-3.030500	3.084200	-9.346100	28.261597	0.000248	20.741419
2157.573098	-3.001200	3.085800	-9.260200	28.270992	0.000245	20.732859
2158.570018	-3.020700	3.083400	-9.311700	28.236210	0.000243	20.743835
2159.575288	-2.986500	3.083300	-9.206800	28.195065	0.000245	20.744610
2160.577546	-3.033600	3.083000	-9.350200	28.211750	0.000243	20.755719
2161.573684	-2.992400	3.082600	-9.223600	28.187108	0.000244	20.750824
2162.575034	-2.977500	3.082100	-9.175800	28.187176	0.000243	20.753738
2163.577351	-2.978700	3.081400	-9.177900	28.197660	0.000241	20.742481
2164.575675	-2.997800	3.079100	-9.229400	28.257992	0.000240	20.754859
2165.577224	-3.000600	3.079000	-9.237500	28.342140	0.000239	20.754711
2166.575418	-2.990900	3.077800	-9.204400	28.370816	0.000239	20.755610
2167.571902	-3.008900	3.077600	-9.258600	28.426276	0.000240	20.747445
2168.578299	-3.006500	3.076200	-9.247700	28.457927	0.000240	20.748497
2169.578385	-3.012500	3.075000	-9.262200	28.463528	0.000240	20.763621
2170.577894	-2.997400	3.075300	-9.216900	28.429970	0.000240	20.754958
2171.578962	-2.988900	3.073100	-9.184100	28.439490	0.000239	20.756958
2172.577416	-3.008400	3.071500	-9.239200	28.491460	0.000236	20.740066
2173.578654	-3.013900	3.071400	-9.255800	28.550956	0.000235	20.729807
2174.577894	-3.001900	3.070600	-9.216800	28.544443	0.000237	20.744585
2175.577378	-2.988700	3.069900	-9.173900	28.518317	0.000235	20.746724
2176.581008	-3.013000	3.068600	-9.243900	28.485383	0.000236	20.751016
2177.578059	-3.003500	3.069300	-9.217500	28.515247	0.000234	20.740313
2178.577282	-2.979300	3.068300	-9.140500	28.535370	0.000234	20.757734
2179.581285	-3.002300	3.065400	-9.202800	28.517032	0.000234	20.751594
2180.575772	-2.978800	3.066600	-9.132400	28.513913	0.000232	20.753195
2181.579186	-3.011000	3.063100	-9.221300	28.497802	0.000232	20.735546
2182.579888	-2.985500	3.063900	-9.145100	28.446906	0.000232	20.757314
2183.576532	-3.014400	3.061500	-9.227700	28.448888	0.000232	20.738446
2184.580910	-2.987200	3.062600	-9.147400	28.443959	0.000231	20.755768
2185.580079	-3.005100	3.059800	-9.193900	28.462042	0.000233	20.749796
2186.585895	-2.989200	3.060200	-9.146700	28.487247	0.000230	20.755738
2187.579017	-3.005100	3.059300	-9.191700	28.445989	0.000231	20.765399
2188.582782	-3.018300	3.057100	-9.226100	28.454935	0.000230	20.745010
2189.585558	-2.977700	3.057200	-9.102500	28.494138	0.000229	20.759833
2190.585286	-3.004100	3.056400	-9.181000	28.481695	0.000230	20.737818
2191.582591	-2.986700	3.056600	-9.128100	28.452037	0.000232	20.772912
2192.584293	-2.996200	3.054800	-9.151200	28.428959	0.000231	20.751569
2193.586038	-3.026800	3.051700	-9.235900	28.396126	0.000230	20.763078
2194.585446	-2.980200	3.052700	-9.096900	28.429087	0.000227	20.767820
2195.586694	-3.005300	3.050800	-9.167700	28.435532	0.000228	20.756292
2196.586152	-3.007300	3.049300	-9.169500	28.477958	0.000228	20.770566
2197.585699	-3.006000	3.049300	-9.164700	28.412607	0.000227	20.764975
2198.584316	-2.988500	3.048300	-9.108400	28.402272	0.000228	20.765474
2199.590750	-2.999100	3.046400	-9.135700	28.418674	0.000227	20.776300
2200.593739	-3.008500	3.045500	-9.161500	28.457461	0.000226	20.764150
2201.588883	-3.004800	3.045300	-9.147600	28.471655	0.000227	20.780340
2202.586753	-3.021400	3.042500	-9.190600	28.497929	0.000227	20.765073
2203.587366	-3.021300	3.042600	-9.191300	28.566022	0.000224	20.755412
2204.586741	-3.009100	3.042300	-9.153500	28.613739	0.000224	20.774073
2205.587115	-2.996100	3.040400	-9.107400	28.583961	0.000224	20.772057
2206.590392	-2.996100	3.039800	-9.106300	28.528823	0.000225	20.766313
2207.587117	-3.002900	3.038600	-9.122400	28.501711	0.000226	20.767933
2208.586533	-2.996000	3.038300	-9.101200	28.514202	0.000224	20.764866
2209.587105	-2.985700	3.037400	-9.067700	28.551716	0.000225	20.777989
2210.588430	-3.005100	3.035600	-9.121500	28.599914	0.000224	20.759675
2211.590858	-2.997300	3.034300	-9.093500	28.677660	0.000224	20.764011
2212.592200	-2.984900	3.033000	-9.052500	28.717434	0.000223	20.775624
2213.588717	-2.999200	3.032400	-9.094200	28.727932	0.000222	20.759171
2214.589769	-2.992900	3.031400	-9.071100	28.745771	0.000222	20.770027
2215.590693	-2.993700	3.030000	-9.069400	28.762496	0.000224	20.782133
2216.592343	-3.008700	3.029200	-9.113300	28.778520	0.000222	20.766506
2217.591664	-2.994700	3.026800	-9.062200	28.819795	0.000221	20.779634
2218.588843	-2.985300	3.027700	-9.037500	28.851806	0.000222	20.789596
2219.589332	-3.013400	3.024900	-9.114200	28.855003	0.000223	20.785230
2220.594125	-2.988700	3.025200	-9.040500	28.878267	0.000223	20.781165
2221.593674	-2.992100	3.023700	-9.046800	28.882552	0.000222	20.756558
2222.594367	-3.003700	3.020700	-9.071700	28.868579	0.000221	20.772828
2223.593814	-2.996200	3.021000	-9.050800	28.828051	0.000220	20.779417
2224.595531	-2.984900	3.020200	-9.014600	28.719836	0.000221	20.787527
2225.595920	-2.964100	3.019900	-8.950200	28.677916	0.000220	20.776122
2226.596685	-3.012900	3.017300	-9.089400	28.636836	0.000221	20.798758
2227.595752	-3.012200	3.014800	-9.079700	28.662832	0.000223	20.787957
2228.596147	-3.004800	3.014000	-9.055100	28.702051	0.000219	20.771509
2229.596295	-3.014800	3.013500	-9.084000	28.724348	0.000220	20.773579
2230.593986	-2.993500	3.013200	-9.018200	28.671183	0.000220	20.760806
2231.597095	-3.004200	3.012500	-9.048700	28.678985	0.000218	20.797588
2232.599306	-2.994800	3.010100	-9.013000	28.622743	0.000218	20.789779
2233.602049	-3.008200	3.008700	-9.049800	28.593132	0.000220	20.779871
2234.602001	-3.009700	3.008000	-9.052600	28.563349	0.000220	20.777377
2235.603834	-2.998700	3.007000	-9.016500	28.572049	0.000220	20.776182
2236.596007	-3.031100	3.004900	-9.107300	28.581191	0.000219	20.778276
2237.601020	-2.996500	3.004500	-9.001700	28.574678	0.000217	20.798270
2238.603546	-2.994800	3.002200	-8.989700	28.574903	0.000218	20.788065
2239.600795	-2.980600	3.002100	-8.947000	28.625327	0.000217	20.775787
2240.600519	-3.023200	2.999700	-9.068000	28.667172	0.000219	20.791854
2241.602489	-3.005000	2.999700	-9.013100	28.722004	0.000218	20.775960
2242.597465	-2.950000	2.999600	-8.847400	28.750395	0.000219	20.797919
2243.604566	-2.983400	2.998700	-8.944700	28.743805	0.000217	20.780849
2244.600063	-2.995500	2.996000	-8.973600	28.669501	0.000215	20.803209
2245.601953	-3.010400	2.993700	-9.010700	28.645870	0.000217	20.790787
2246.602082	-2.949100	2.994300	-8.829200	28.607163	0.000217	20.781200
2247.602629	-2.978400	2.992400	-8.910400	28.540804	0.000216	20.807303
2248.603258	-3.007300	2.989900	-8.990600	28.483883	0.000216	20.781748
2249.603798	-3.007800	2.988900	-8.987200	28.454298	0.000216	20.793681
2250.604293	-2.994300	2.989600	-8.950700	28.484481	0.000216	20.799895
2251.600637	-3.010600	2.985800	-8.988400	28.554982	0.000215	20.777960
2252.602011	-3.022300	2.984700	-9.019300	28.616706	0.000217	20.784173
2253.605563	-3.013900	2.981800	-8.985100	28.641118	0.000217	20.786949
2254.607979	-2.995100	2.982000	-8.930300	28.677018	0.000217	20.794659
2255.601208	-3.010800	2.981400	-8.975800	28.697457	0.000215	20.804814
2256.604736	-3.016000	2.979000	-8.983200	28.740564	0.000216	20.780904
2257.600633	-2.976800	2.978000	-8.864000	28.783831	0.000215	20.783709
2258.603873	-3.019600	2.976300	-8.986200	28.829037	0.000217	20.787048
2259.604914	-3.026900	2.973100	-8.998500	28.845291	0.000216	20.814327
2260.601223	-3.002900	2.972400	-8.924400	28.877223	0.000215	20.788648
2261.606890	-2.996200	2.972600	-8.905500	28.868275	0.000218	20.787695
2262.601235	-3.025300	2.971000	-8.986900	28.848164	0.000216	20.785927
2263.601877	-2.991100	2.970000	-8.881700	28.863147	0.000216	20.805762
2264.604509	-3.016300	2.968600	-8.952600	28.802208	0.000216	20.794160
2265.612750	-3.005000	2.966500	-8.913600	28.801144	0.000216	20.782183
2266.606405	-2.988200	2.966100	-8.861900	28.728751	0.000215	20.808360
2267.605046	-2.994100	2.963600	-8.872100	28.670923	0.000214	20.810331
2268.606058	-2.990100	2.962300	-8.857100	28.636753	0.000214	20.790614
2269.605249	-3.004400	2.959800	-8.889700	28.590665	0.000214	20.802991
2270.603757	-2.997100	2.959100	-8.868300	28.579960	0.000216	20.810701
2271.607099	-3.019300	2.957700	-8.928600	28.563163	0.000214	20.799475
2272.603377	-3.036300	2.953900	-8.967000	28.612621	0.000215	20.798551
2273.606255	-3.000200	2.955900	-8.867000	28.626720	0.000213	20.830769
2274.603525	-3.008100	2.952800	-8.880900	28.687988	0.000213	20.802389
2275.611673	-3.014900	2.952500	-8.900600	28.750601	0.000214	20.795282
2276.604835	-2.988000	2.950200	-8.814800	28.749086	0.000215	20.836428
2277.606873	-3.007000	2.949300	-8.867700	28.759245	0.000216	20.813946
2278.606679	-3.019700	2.946800	-8.897600	28.736773	0.000214	20.816915
2279.605882	-2.971800	2.946100	-8.755100	28.723838	0.000213	20.793454
2280.612562	-2.985400	2.945100	-8.791200	28.743878	0.000216	20.814114
2281.607152	-2.993300	2.943900	-8.810700	28.713256	0.000216	20.797020
2282.609132	-2.987700	2.941200	-8.787100	28.711098	0.000212	20.833727
2283.607083	-2.975600	2.939900	-8.746800	28.674306	0.000213	20.795247
2284.609757	-2.976800	2.938100	-8.744600	28.669795	0.000214	20.820100
2285.615965	-3.027800	2.935000	-8.885900	28.677994	0.000215	20.830255
2286.630162	-3.009000	2.934200	-8.827700	28.677425	0.000213	20.791750
2287.608467	-3.009400	2.932600	-8.824000	28.683069	0.000214	20.814030
2288.612863	-2.980000	2.931700	-8.735800	28.654382	0.000214	20.816905
2289.613708	-2.982300	2.931400	-8.741200	28.624346	0.000213	20.825533
2290.613759	-2.978600	2.927000	-8.716700	28.653730	0.000213	20.820515
2291.613079	-2.977900	2.927100	-8.716000	28.657491	0.000213	20.820510
2292.615564	-2.969100	2.925700	-8.685800	28.627612	0.000213	20.820762
2293.611622	-2.985900	2.923000	-8.726200	28.653235	0.000215	20.830447
2294.614643	-3.009400	2.920700	-8.788700	28.692533	0.000214	20.839683
2295.621008	-2.985700	2.919800	-8.716800	28.727363	0.000214	20.829721
2296.612613	-3.016400	2.917900	-8.800200	28.807606	0.000214	20.817142
2297.616141	-3.017400	2.916300	-8.798400	28.836024	0.000213	20.812578
2298.616698	-2.996000	2.914800	-8.731400	28.887254	0.000213	20.826254
2299.616266	-2.955900	2.915100	-8.615500	28.932877	0.000214	20.826224
2300.624336	-2.977400	2.911600	-8.667400	28.952370	0.000211	20.828793
2301.620481	-3.027100	2.908100	-8.802100	28.957046	0.000212	20.818806
2302.615856	-2.993800	2.908200	-8.706100	28.973670	0.000214	20.818011
2303.615282	-3.013600	2.905100	-8.753600	28.955757	0.000212	20.827938
2304.618155	-2.977400	2.904600	-8.646800	28.929328	0.000214	20.839717
2305.623798	-2.998000	2.902300	-8.700100	28.859964	0.000213	20.824367
2306.623286	-3.006400	2.899800	-8.716800	28.804595	0.000216	20.817902
2307.626339	-3.004700	2.899400	-8.709600	28.753464	0.000214	20.843209
2308.624446	-3.000900	2.897800	-8.694900	28.698060	0.000214	20.848094
2309.618835	-2.986200	2.896600	-8.649400	28.693234	0.000213	20.824743
2310.620389	-2.979800	2.893900	-8.622400	28.718478	0.000214	20.837367
2311.623108	-2.996700	2.891900	-8.664700	28.792925	0.000212	20.835070
2312.621441	-2.988600	2.889300	-8.633700	28.873266	0.000212	20.835396
2313.626474	-3.009300	2.887300	-8.687700	28.937844	0.000213	20.832650
2314.623429	-3.008600	2.886800	-8.684200	28.992338	0.000212	20.835396
2315.624834	-3.004600	2.884600	-8.666300	28.996172	0.000213	20.844948
2316.622488	-2.993300	2.881900	-8.625900	28.980450	0.000213	20.828160
2317.629347	-2.999800	2.880100	-8.638400	29.004545	0.000211	20.863340
2318.624110	-3.002500	2.878600	-8.641600	28.992216	0.000214	20.835747
2319.627868	-2.993900	2.876500	-8.611500	28.980896	0.000211	20.839515
2320.627254	-3.011900	2.874300	-8.656500	29.016786	0.000211	20.843906
2321.627306	-3.023500	2.872100	-8.683200	29.028923	0.000212	20.850919
2322.631864	-3.011400	2.869400	-8.640000	29.072026	0.000213	20.860209
2323.624105	-2.998200	2.868900	-8.601300	29.093820	0.000213	20.862254
2324.626913	-2.998100	2.867100	-8.595000	29.147557	0.000210	20.847649
2325.623706	-2.984200	2.866400	-8.551600	29.171265	0.000212	20.832186
2326.627305	-2.998600	2.862100	-8.579900	29.187111	0.000211	20.840567
2327.626036	-3.002300	2.860200	-8.586700	29.159477	0.000211	20.873410
2328.626619	-3.024900	2.857400	-8.642500	29.138356	0.000212	20.851181
2329.626580	-3.016600	2.855400	-8.612300	29.099197	0.000213	20.854870
2330.628515	-2.998200	2.854400	-8.556800	29.047811	0.000213	20.869948
2331.628539	-3.042300	2.850600	-8.670200	28.971347	0.000211	20.846489
2332.627110	-3.012600	2.850300	-8.585400	28.922327	0.000212	20.861113
2333.627842	-2.988300	2.848100	-8.509900	28.870506	0.000211	20.884769
2334.628728	-2.987700	2.845800	-8.501000	28.820466	0.000213	20.854752
2335.630959	-2.990000	2.845000	-8.505800	28.824031	0.000212	20.864980
2336.627323	-2.979400	2.842000	-8.466400	28.837735	0.000211	20.852707
2337.637824	-3.014600	2.839000	-8.555400	28.903452	0.000214	20.850633
2338.639059	-3.006000	2.838000	-8.530500	28.950894	0.000212	20.857177
2339.632686	-3.003600	2.835900	-8.516500	28.997481	0.000212	20.851008
2340.633610	-3.007400	2.832800	-8.518800	29.024085	0.000211	20.865484
2341.634456	-3.004300	2.829900	-8.500100	29.080458	0.000211	20.844997
2342.633941	-2.977700	2.829000	-8.423000	29.144925	0.000213	20.860169
2343.631427	-2.998200	2.826800	-8.474000	29.160080	0.000214	20.839406
2344.636531	-3.016000	2.823300	-8.513800	29.222062	0.000211	20.871519
2345.630936	-2.997000	2.822400	-8.457500	29.236751	0.000211	20.852657
2346.633554	-3.018400	2.818100	-8.504600	29.259605	0.000212	20.863360
2347.630576	-3.009100	2.816600	-8.474400	29.249028	0.000212	20.856969
2348.638055	-2.987100	2.816100	-8.411000	29.300806	0.000209	20.871692
2349.639004	-2.976300	2.813300	-8.372400	29.356767	0.000210	20.866926
2350.633761	-3.019500	2.810600	-8.485500	29.365383	0.000211	20.859962
2351.644646	-3.011900	2.807700	-8.455800	29.359120	0.000212	20.864555
2352.633500	-3.008100	2.805200	-8.437500	29.362805	0.000211	20.866373
2353.633390	-3.004500	2.802800	-8.420100	29.398882	0.000211	20.895146
2354.637201	-2.997700	2.799800	-8.391700	29.443842	0.000210	20.872185
2355.635266	-3.010700	2.798800	-8.425200	29.459365	0.000211	20.873134
2356.635678	-3.011800	2.796300	-8.419400	29.387905	0.000211	20.885979
2357.637081	-2.987800	2.793400	-8.344300	29.320409	0.000212	20.855413
2358.640169	-2.994200	2.790700	-8.353500	29.232673	0.000212	20.862772
2359.639046	-2.995500	2.790000	-8.356700	29.212142	0.000212	20.853462
2360.638579	-2.996900	2.785100	-8.345300	29.224522	0.000212	20.867834
2361.635976	-3.000500	2.783500	-8.350600	29.268127	0.000210	20.880957
2362.643639	-3.008800	2.780500	-8.363700	29.291652	0.000210	20.875267
2363.639369	-3.014400	2.776700	-8.369100	29.318616	0.000211	20.876838
2364.635382	-2.993100	2.774200	-8.303000	29.340948	0.000211	20.864259
2365.639012	-3.017200	2.770300	-8.357600	29.310588	0.000210	20.874437
2366.639086	-3.007200	2.769000	-8.324800	29.320792	0.000212	20.887565
2367.638252	-3.011700	2.766100	-8.329000	29.340032	0.000211	20.878033
2368.640965	-3.012800	2.763900	-8.325100	29.375757	0.000210	20.886063
2369.641337	-2.982100	2.761700	-8.233600	29.396853	0.000209	20.871291
2370.644751	-2.976000	2.759200	-8.209900	29.390786	0.000211	20.879401
2371.641386	-3.007100	2.754400	-8.281300	29.345716	0.000208	20.860056
2372.641316	-3.011100	2.750300	-8.280700	29.323188	0.000210	20.885713
2373.642367	-3.001000	2.747700	-8.244500	29.309299	0.000211	20.851329
2374.639954	-3.023700	2.743900	-8.296000	29.323487	0.000212	20.859463
2375.646245	-3.025500	2.739700	-8.287500	29.365181	0.000211	20.857863
2376.639851	-3.002200	2.738700	-8.221500	29.384323	0.000211	20.852025
2377.642801	-2.991600	2.736200	-8.184800	29.396897	0.000213	20.857112
2378.644774	-3.008400	2.732200	-8.218600	29.400288	0.000211	20.852944
2379.642797	-3.021400	2.729800	-8.246100	29.418733	0.000214	20.854939
2380.643965	-2.995000	2.726100	-8.163500	29.421580	0.000213	20.870610
2381.644672	-2.996700	2.722400	-8.157100	29.434105	0.000211	20.859527
2382.644003	-3.040600	2.718300	-8.264600	29.452177	0.000213	20.847397
2383.642111	-2.999500	2.716400	-8.147300	29.454235	0.000213	20.846627
2384.641100	-3.019400	2.710300	-8.181900	29.466068	0.000212	20.869933
2385.639994	-2.979100	2.710000	-8.072100	29.470993	0.000211	20.856880
2386.645691	-2.987000	2.705500	-8.080400	29.500824	0.000213	20.848069
2387.643178	-2.997100	2.702300	-8.098200	29.552071	0.000211	20.840932
2388.644821	-2.990200	2.698300	-8.067400	29.594912	0.000212	20.830541
2389.643200	-2.981300	2.694900	-8.033000	29.633607	0.000213	20.837781
2390.644131	-3.013500	2.689800	-8.104800	29.644396	0.000211	20.854346
2391.642410	-2.993500	2.687400	-8.043500	29.637762	0.000211	20.860935
2392.647049	-3.001500	2.683500	-8.052600	29.663135	0.000211	20.854272
2393.655606	-2.994300	2.679800	-8.022900	29.654419	0.000213	20.838848
2394.642662	-3.033000	2.675600	-8.113500	29.624313	0.000212	20.858283
2395.646565	-3.006200	2.671100	-8.028800	29.526127	0.000211	20.824737
2396.648317	-3.018400	2.668000	-8.051900	29.426279	0.000212	20.857329
2397.650220	-2.992400	2.663700	-7.969900	29.371513	0.000213	20.852391
2398.646925	-3.008100	2.660200	-8.000800	29.323423	0.000214	20.843752
2399.646894	-2.974700	2.655600	-7.898400	29.285736	0.000212	20.832798
2400.649336	-3.017500	2.650900	-7.998600	29.320179	0.000213	20.836690
2401.648769	-3.017200	2.647200	-7.986100	29.368190	0.000213	20.841930
2402.650656	-3.047500	2.640000	-8.044500	29.447169	0.000211	20.831445
2403.647664	-2.994400	2.639500	-7.901600	29.549983	0.000214	20.849733
2404.650639	-3.014900	2.633700	-7.938300	29.576573	0.000213	20.837184
2405.650907	-3.008700	2.628900	-7.908600	29.621330	0.000214	20.831568
2406.651949	-2.996500	2.624800	-7.864500	29.662121	0.000213	20.835233
2407.649840	-3.035800	2.618800	-7.947600	29.643259	0.000212	20.834235
2408.654811	-3.015600	2.614700	-7.883000	29.636723	0.000213	20.835707
2409.647592	-2.992500	2.610900	-7.812100	29.633304	0.000211	20.832260
2410.648444	-3.019500	2.605000	-7.864600	29.658055	0.000211	20.823547
2411.648521	-2.990100	2.600500	-7.774500	29.613991	0.000212	20.824644
2412.647538	-2.974500	2.594300	-7.715200	29.645777	0.000211	20.821127
2413.650561	-2.970700	2.589400	-7.691000	29.656007	0.000211	20.832862
2414.649442	-2.980100	2.584300	-7.700000	29.679371	0.000211	20.831761
2415.651648	-2.991700	2.579400	-7.716100	29.697193	0.000210	20.816539
2416.649275	-3.004700	2.572000	-7.727100	29.734219	0.000212	20.802660
2417.649934	-3.008900	2.565700	-7.718300	29.733381	0.000208	20.820781
2418.656901	-2.993600	2.561900	-7.668700	29.663282	0.000212	20.824550
2419.656053	-2.985700	2.557100	-7.633600	29.601296	0.000213	20.819907
2420.654461	-3.000500	2.550200	-7.650500	29.526710	0.000212	20.827222
2421.651511	-3.003300	2.544200	-7.640100	29.531066	0.000210	20.823078
2422.654675	-3.026500	2.536800	-7.676900	29.562605	0.000212	20.844913
2423.658185	-2.996200	2.531400	-7.583500	29.596451	0.000210	20.835885
2424.657794	-3.002000	2.523900	-7.575200	29.648726	0.000212	20.808454
2425.655754	-2.999000	2.517500	-7.549200	29.644543	0.000211	20.818460
2426.651307	-2.994100	2.512900	-7.522700	29.637385	0.000212	20.807451
2427.655678	-2.988200	2.506200	-7.488200	29.598126	0.000213	20.815289
2428.653643	-3.023900	2.498700	-7.555200	29.517302	0.000210	20.821058
