LabVIEW Measurement	
Writer_Version	2
Reader_Version	2
Separator	Tab
Decimal_Separator	.
Multi_Headings	No
X_Columns	One
Time_Pref	Absolute
Operator	admin
Description	Clolumns are: time, Current, Voltage, Power, Battery Temp, and Chamber Temp
Date	2024/08/16
Time	13:06:06.104549407958984375
***End_of_Header***	
	
Channels	6						
Samples	1	1	1	1	1	1	
Date	2024/08/28	2024/08/28	2024/08/28	2024/08/28	2024/08/28	2024/08/28	
Time	10:58:26.8528704643249511719	10:58:26.8578505516052246094	10:58:26.8664870262145996094	10:58:26.83580780029296875	10:58:26.83580780029296875	10:58:26.83580780029296875	
X_Dimension	Time	Time	Time	Time	Time	Time	
X0	0.0000000000000000E+0	0.0000000000000000E+0	0.0000000000000000E+0	0.0000000000000000E+0	0.0000000000000000E+0	0.0000000000000000E+0	
Delta_X	1.000000	1.000000	1.000000	1.000000	1.000000	1.000000	
***End_of_Header***							
X_Value	Untitled	Untitled 1	Untitled 2	Untitled 3	Untitled 4	Untitled 5	Comment
0.000000	0.028306	4.108000	0.116150	21.024301	0.000951	20.742675
0.997890	-3.007500	3.944900	-11.863000	21.029540	0.000950	20.744122
1.999341	-2.998200	3.939000	-11.809000	21.018588	0.000950	20.727002
3.000329	-3.004100	3.933300	-11.815000	21.031615	0.000952	20.733869
4.000934	-2.985300	3.931800	-11.736000	21.020010	0.000949	20.755453
5.001555	-2.998200	3.926400	-11.771000	21.024258	0.000949	20.742632
6.001004	-2.991400	3.924600	-11.739000	21.034090	0.000949	20.736344
7.001162	-3.004500	3.919800	-11.776000	21.009193	0.000948	20.747953
8.001936	-2.978600	3.919600	-11.675000	21.031375	0.000947	20.726990
9.002783	-2.999600	3.916900	-11.749000	21.052708	0.000946	20.750225
10.006084	-2.996200	3.915000	-11.729000	21.028629	0.000946	20.742737
11.003394	-3.002600	3.912900	-11.747000	21.031782	0.000945	20.733561
12.004663	-2.992400	3.912400	-11.705000	21.026093	0.000944	20.739251
13.002797	-2.996000	3.910100	-11.714000	21.035075	0.000944	20.745391
14.003006	-2.996100	3.908400	-11.709000	21.043830	0.000942	20.736603
15.003795	-2.992700	3.907700	-11.694000	21.038221	0.000941	20.748538
16.005139	-2.995300	3.906500	-11.700000	21.055564	0.000941	20.720838
17.005181	-3.009300	3.904300	-11.748000	21.060077	0.000941	20.733887
18.005252	-3.004400	3.904900	-11.732000	21.082086	0.000940	20.743100
19.004194	-2.994100	3.903200	-11.686000	21.067514	0.000939	20.743697
20.008393	-2.993800	3.902400	-11.682000	21.084936	0.000938	20.750219
21.008942	-3.000500	3.902300	-11.708000	21.109210	0.000938	20.723289
22.006541	-2.993100	3.901000	-11.675000	21.093315	0.000935	20.735365
23.013569	-2.985600	3.899000	-11.639000	21.069792	0.000937	20.739337
24.007346	-2.995500	3.898700	-11.678000	21.120144	0.000935	20.731381
25.008669	-3.000200	3.898600	-11.695000	21.092275	0.000935	20.704925
26.014288	-3.000300	3.897700	-11.693000	21.116869	0.000936	20.743753
27.007638	-3.005900	3.897300	-11.714000	21.099533	0.000934	20.726886
28.009808	-3.017700	3.894800	-11.753000	21.122717	0.000934	20.699340
29.008361	-3.013500	3.893400	-11.732000	21.101183	0.000934	20.714785
30.008986	-3.011500	3.895500	-11.730000	21.122446	0.000935	20.735107
31.009605	-3.029700	3.892700	-11.793000	21.123671	0.000931	20.725426
32.019866	-3.029500	3.892600	-11.790000	21.127285	0.000932	20.708177
33.012839	-2.985800	3.893900	-11.625000	21.127057	0.000933	20.710794
34.012103	-3.020400	3.892000	-11.755000	21.143678	0.000932	20.721257
35.013817	-2.985100	3.892700	-11.618000	21.144977	0.000929	20.712598
36.014157	-3.006300	3.891800	-11.699000	21.137042	0.000934	20.715567
37.020315	-3.004100	3.890700	-11.687000	21.165809	0.000930	20.711151
38.016357	-2.986400	3.890800	-11.617000	21.172765	0.000931	20.718110
39.014814	-2.995400	3.890600	-11.654000	21.143826	0.000928	20.723776
40.015138	-2.990300	3.890200	-11.632000	21.171109	0.000929	20.708392
41.014556	-2.982100	3.889800	-11.599000	21.169810	0.000929	20.728431
42.017477	-3.007600	3.889000	-11.694000	21.195203	0.000929	20.713528
43.018055	-3.027400	3.887200	-11.767000	21.180682	0.000930	20.715598
44.016454	-3.010000	3.887400	-11.699000	21.217530	0.000926	20.715000
45.016480	-2.995300	3.888100	-11.644000	21.206677	0.000927	20.724533
46.016414	-3.005500	3.887200	-11.681000	21.203378	0.000929	20.704162
47.016110	-2.996000	3.887300	-11.645000	21.209669	0.000928	20.717568
48.017192	-2.979300	3.887900	-11.582000	21.210426	0.000928	20.724964
49.021637	-2.987000	3.885200	-11.604000	21.219475	0.000927	20.710308
50.017495	-2.978200	3.886000	-11.572000	21.216114	0.000925	20.698410
51.016244	-2.985100	3.885700	-11.599000	21.227686	0.000924	20.705720
52.018581	-2.959300	3.886100	-11.498000	21.257725	0.000925	20.706373
53.019771	-2.992700	3.886100	-11.629000	21.250019	0.000925	20.704827
54.017227	-3.027900	3.882800	-11.754000	21.249840	0.000926	20.710338
55.017183	-3.011100	3.884700	-11.696000	21.243457	0.000925	20.693994
56.015920	-3.024100	3.882400	-11.739000	21.251385	0.000927	20.700504
57.019731	-2.999200	3.883700	-11.647000	21.256469	0.000925	20.711281
58.020435	-3.020500	3.881300	-11.722000	21.272215	0.000923	20.718498
59.016577	-3.002500	3.882100	-11.654000	21.306142	0.000924	20.734423
60.019376	-3.023400	3.881700	-11.736000	21.289197	0.000924	20.700873
61.016812	-3.013800	3.880400	-11.693000	21.307281	0.000922	20.679608
62.018673	-3.015100	3.880100	-11.698000	21.315812	0.000922	20.712802
63.021543	-3.006900	3.880600	-11.668000	21.322700	0.000923	20.696932
64.018486	-3.020300	3.880400	-11.720000	21.289720	0.000922	20.698077
65.019935	-3.003900	3.881200	-11.658000	21.319536	0.000922	20.698983
66.018013	-3.023200	3.878300	-11.723000	21.332178	0.000923	20.714003
67.020608	-3.014200	3.878000	-11.687000	21.335274	0.000921	20.719945
68.021720	-3.023300	3.878300	-11.722000	21.336893	0.000923	20.694062
69.018505	-3.004900	3.879500	-11.656000	21.348175	0.000920	20.696815
70.022198	-3.014900	3.879500	-11.695000	21.356626	0.000923	20.696261
71.020898	-3.016900	3.877900	-11.697000	21.339989	0.000923	20.706169
72.021093	-2.998100	3.879200	-11.629000	21.363993	0.000922	20.703632
73.020073	-3.015800	3.878000	-11.694000	21.350871	0.000922	20.703306
74.022662	-3.005800	3.877000	-11.651000	21.348797	0.000921	20.713085
75.019752	-3.006300	3.876900	-11.654000	21.360423	0.000920	20.693422
76.020630	-3.002400	3.877100	-11.639000	21.370653	0.000921	20.698915
77.019132	-3.005600	3.876400	-11.649000	21.368535	0.000920	20.699642
78.022677	-3.001700	3.876700	-11.634000	21.384421	0.000920	20.701310
79.023686	-3.006800	3.876300	-11.654000	21.381676	0.000921	20.685286
80.020923	-2.984000	3.876400	-11.565000	21.395099	0.000919	20.704882
81.021014	-3.025700	3.876000	-11.725000	21.397475	0.000920	20.684498
82.022933	-3.023800	3.874800	-11.716000	21.438698	0.000921	20.686863
83.023149	-3.007600	3.875100	-11.653000	21.408996	0.000921	20.708830
84.026529	-3.021700	3.874900	-11.707000	21.439449	0.000921	20.692356
85.023085	-3.014500	3.873900	-11.677000	21.429750	0.000921	20.693083
86.027381	-3.031400	3.873300	-11.741000	21.437332	0.000920	20.685970
87.025528	-2.980700	3.874700	-11.549000	21.475643	0.000921	20.683999
88.026744	-2.995400	3.874300	-11.604000	21.464300	0.000921	20.682133
89.028162	-2.995900	3.873400	-11.603000	21.458035	0.000921	20.693409
90.025543	-3.029400	3.873700	-11.734000	21.491490	0.000919	20.690373
91.026441	-3.003000	3.872300	-11.627000	21.483655	0.000921	20.694389
92.025879	-2.994100	3.872800	-11.595000	21.484529	0.000920	20.708066
93.027257	-3.005200	3.872700	-11.637000	21.493859	0.000919	20.696538
94.027808	-2.996200	3.872600	-11.601000	21.492911	0.000920	20.683260
95.029818	-3.013600	3.872500	-11.669000	21.503539	0.000920	20.701483
96.027770	-2.983200	3.872000	-11.550000	21.507503	0.000919	20.670833
97.029136	-2.990400	3.874000	-11.584000	21.519005	0.000921	20.687085
98.027700	-3.001200	3.873800	-11.624000	21.516518	0.000920	20.708307
99.027050	-2.991500	3.871600	-11.581000	21.540156	0.000923	20.675057
100.027694	-3.003000	3.871400	-11.625000	21.524943	0.000921	20.671689
101.028329	-3.012900	3.870700	-11.661000	21.556076	0.000920	20.695731
102.030016	-3.012500	3.872100	-11.664000	21.550285	0.000920	20.705110
103.029219	-3.005100	3.870200	-11.630000	21.549288	0.000919	20.680877
104.029590	-2.979400	3.870900	-11.532000	21.575934	0.000919	20.682885
105.032670	-2.988100	3.872100	-11.567000	21.578279	0.000921	20.679541
106.033182	-3.012900	3.870500	-11.661000	21.592610	0.000921	20.666380
107.031203	-3.021200	3.869200	-11.689000	21.587460	0.000920	20.660277
108.030625	-3.025300	3.869800	-11.705000	21.581349	0.000919	20.680717
109.030871	-3.014500	3.867800	-11.658000	21.574143	0.000921	20.678722
110.030179	-3.002200	3.870300	-11.618000	21.579836	0.000920	20.658812
111.032109	-3.016800	3.867900	-11.668000	21.586943	0.000920	20.678728
112.032990	-2.984800	3.869800	-11.549000	21.603281	0.000921	20.676111
113.032586	-3.023300	3.867900	-11.692000	21.615176	0.000919	20.674263
114.032067	-3.004600	3.867300	-11.617000	21.611108	0.000920	20.663079
115.032197	-3.017800	3.867900	-11.672000	21.646872	0.000920	20.689863
116.036082	-3.022900	3.868500	-11.693000	21.651438	0.000922	20.642270
117.029883	-3.018500	3.868500	-11.676000	21.654748	0.000920	20.673561
118.032241	-3.017100	3.867100	-11.666000	21.646970	0.000922	20.681426
119.032678	-3.005100	3.868600	-11.624000	21.656249	0.000920	20.657993
120.032132	-3.015400	3.868900	-11.666000	21.645426	0.000921	20.681777
121.033229	-3.011000	3.865600	-11.638000	21.672586	0.000923	20.663911
122.034883	-3.029200	3.865900	-11.710000	21.671239	0.000924	20.671572
123.034733	-3.013800	3.866100	-11.651000	21.684954	0.000923	20.664434
124.035022	-3.023600	3.865500	-11.685000	21.691538	0.000921	20.663911
125.037298	-2.983500	3.866800	-11.535000	21.688221	0.000924	20.653004
126.036701	-2.980900	3.867300	-11.527000	21.709486	0.000927	20.663855
127.038482	-2.971600	3.867400	-11.490000	21.713129	0.000922	20.669398
128.036002	-2.975300	3.867200	-11.505000	21.705228	0.000922	20.670501
129.036950	-2.979100	3.866200	-11.516000	21.719220	0.000923	20.664588
130.039269	-2.976700	3.867300	-11.510000	21.742232	0.000924	20.660117
131.036224	-3.001800	3.865100	-11.601000	21.729766	0.000922	20.670876
132.037319	-3.001900	3.864200	-11.597000	21.744828	0.000923	20.663665
133.035397	-2.993300	3.864900	-11.568000	21.739463	0.000924	20.653078
134.037459	-2.985300	3.865900	-11.540000	21.740263	0.000922	20.650559
135.040784	-2.989800	3.865100	-11.556000	21.746545	0.000923	20.649734
136.037291	-2.987600	3.865500	-11.548000	21.763576	0.000924	20.671049
137.038206	-3.004300	3.862700	-11.603000	21.755030	0.000925	20.660124
138.039395	-2.983400	3.864900	-11.530000	21.768215	0.000923	20.655301
139.037965	-2.979300	3.865500	-11.515000	21.752433	0.000926	20.654205
140.044409	-3.016400	3.862200	-11.649000	21.752458	0.000924	20.640478
141.038407	-3.003900	3.862500	-11.601000	21.761459	0.000926	20.649962
142.038399	-2.993700	3.862700	-11.563000	21.754802	0.000928	20.656576
143.041962	-2.996100	3.864000	-11.576000	21.783178	0.000926	20.656527
144.039083	-2.981600	3.862700	-11.516000	21.781455	0.000926	20.660967
145.041578	-2.984400	3.862300	-11.525000	21.795840	0.000927	20.619409
146.040743	-3.002000	3.862100	-11.593000	21.800085	0.000926	20.640730
147.044129	-2.999400	3.862400	-11.584000	21.795243	0.000927	20.657697
148.039052	-2.990700	3.862900	-11.552000	21.824190	0.000927	20.660592
149.042530	-2.971300	3.863200	-11.478000	21.838587	0.000927	20.646076
150.038183	-2.978500	3.861200	-11.499000	21.831075	0.000927	20.666535
151.039300	-2.989300	3.861100	-11.540000	21.836514	0.000929	20.636413
152.039537	-2.977400	3.861200	-11.496000	21.817084	0.000930	20.640675
153.047609	-3.022900	3.860200	-11.668000	21.816014	0.000928	20.646242
154.044995	-3.015200	3.861500	-11.642000	21.840131	0.000929	20.651890
155.040586	-3.010400	3.859800	-11.618000	21.862937	0.000927	20.651957
156.042672	-3.025800	3.860200	-11.678000	21.877647	0.000930	20.642498
157.040473	-3.000000	3.860400	-11.579000	21.857825	0.000930	20.642097
158.041014	-3.004200	3.859800	-11.594000	21.876650	0.000930	20.650036
159.043913	-3.011800	3.859600	-11.623000	21.901634	0.000929	20.642325
160.042596	-3.008300	3.859200	-11.609000	21.922599	0.000931	20.662839
161.042814	-3.019500	3.858800	-11.650000	21.909262	0.000932	20.640952
162.042677	-2.991600	3.858600	-11.541000	21.916410	0.000930	20.645263
163.042800	-3.016900	3.859900	-11.643000	21.934115	0.000931	20.656822
164.045298	-2.986900	3.859600	-11.527000	21.933285	0.000933	20.645084
165.044836	-2.996000	3.859300	-11.559000	21.943983	0.000930	20.656742
166.046955	-2.990300	3.857900	-11.535000	21.942863	0.000934	20.644240
167.049139	-2.992300	3.858100	-11.543000	21.954250	0.000934	20.658959
168.044681	-2.987000	3.858600	-11.525000	21.953708	0.000934	20.663634
169.045370	-3.000600	3.857400	-11.574000	21.943257	0.000934	20.663129
170.047088	-2.997600	3.858600	-11.566000	21.934847	0.000933	20.678420
171.046884	-2.996400	3.858400	-11.560000	21.945047	0.000934	20.662076
172.051392	-3.008200	3.856700	-11.601000	21.941454	0.000933	20.650892
173.046347	-2.996300	3.857300	-11.556000	21.929114	0.000935	20.642805
174.045032	-3.001400	3.857300	-11.575000	21.934170	0.000933	20.671104
175.049239	-3.015100	3.855700	-11.625000	21.929827	0.000933	20.671498
176.049469	-3.003300	3.855300	-11.577000	21.935222	0.000935	20.680693
177.048957	-2.995800	3.855400	-11.548000	21.954834	0.000936	20.654802
178.047336	-2.999200	3.855600	-11.562000	21.966153	0.000935	20.644320
179.047429	-2.989900	3.856000	-11.528000	21.980062	0.000935	20.662513
180.046609	-2.972800	3.854900	-11.458000	21.976020	0.000936	20.653250
181.056402	-3.004000	3.855000	-11.579000	21.985967	0.000937	20.666528
182.047957	-3.003900	3.855800	-11.581000	22.002170	0.000940	20.662833
183.047772	-2.989400	3.855300	-11.523000	22.004735	0.000937	20.666824
184.048969	-2.995500	3.855900	-11.550000	21.997679	0.000939	20.660708
185.048432	-2.986500	3.854700	-11.511000	22.008666	0.000939	20.662697
186.049670	-2.992200	3.855400	-11.534000	21.997802	0.000939	20.673161
187.049363	-3.004300	3.853500	-11.577000	22.009262	0.000939	20.674201
188.049685	-2.996100	3.854500	-11.547000	22.024370	0.000940	20.661348
189.049631	-3.009500	3.851800	-11.591000	22.034089	0.000941	20.674873
190.049779	-3.002300	3.853500	-11.568000	22.064180	0.000940	20.661847
191.049250	-2.994100	3.853800	-11.537000	22.065601	0.000940	20.662796
192.051549	-2.983700	3.853000	-11.495000	22.070454	0.000939	20.661964
193.050870	-3.000000	3.854200	-11.561000	22.099068	0.000941	20.650306
194.052266	-2.997700	3.852900	-11.548000	22.081218	0.000942	20.679380
195.052738	-2.992500	3.853600	-11.530000	22.083187	0.000940	20.650528
196.053209	-2.985600	3.851800	-11.498000	22.107987	0.000941	20.640267
197.058472	-3.000400	3.852200	-11.557000	22.096128	0.000943	20.675815
198.053077	-3.002000	3.851000	-11.559000	22.095901	0.000943	20.643341
199.054110	-2.984300	3.852300	-11.495000	22.110927	0.000945	20.663128
200.055196	-3.014700	3.850700	-11.608000	22.151060	0.000944	20.656366
201.054095	-3.003500	3.850600	-11.565000	22.147511	0.000943	20.669410
202.055704	-3.032300	3.850600	-11.674000	22.162168	0.000946	20.668911
203.056915	-2.994200	3.850900	-11.530000	22.161565	0.000943	20.658349
204.056311	-3.003100	3.850400	-11.563000	22.173110	0.000944	20.683660
205.055758	-3.005100	3.850800	-11.571000	22.171911	0.000946	20.661120
206.054964	-3.011900	3.850700	-11.597000	22.172679	0.000944	20.649561
207.055098	-2.988500	3.850600	-11.505000	22.198554	0.000946	20.656027
208.056501	-2.997000	3.849200	-11.535000	22.168965	0.000945	20.648686
209.057990	-2.959400	3.850300	-11.394000	22.168743	0.000948	20.690669
210.057993	-2.989200	3.850300	-11.509000	22.167076	0.000948	20.649641
211.056957	-3.005700	3.848300	-11.566000	22.177415	0.000949	20.658096
212.059535	-3.010600	3.848900	-11.587000	22.183246	0.000948	20.661564
213.059222	-3.004400	3.848900	-11.561000	22.177864	0.000949	20.659969
214.056213	-3.008800	3.848000	-11.577000	22.172003	0.000948	20.678758
215.056914	-3.025700	3.847100	-11.639000	22.167316	0.000949	20.668849
216.057869	-3.023600	3.846500	-11.628000	22.161861	0.000950	20.658170
217.057443	-3.000500	3.847300	-11.543000	22.171056	0.000951	20.660738
218.057547	-3.020100	3.845900	-11.612000	22.167390	0.000951	20.655645
219.056727	-3.000000	3.848200	-11.542000	22.186235	0.000951	20.681154
220.058219	-2.981700	3.848800	-11.474000	22.188221	0.000952	20.679824
221.057809	-2.990200	3.848000	-11.505000	22.222220	0.000951	20.674509
222.058899	-2.986800	3.848500	-11.493000	22.220185	0.000952	20.688593
223.057728	-2.980300	3.848900	-11.469000	22.249090	0.000953	20.675334
224.058638	-2.991100	3.848200	-11.510000	22.256470	0.000954	20.662334
225.061134	-3.011700	3.846000	-11.581000	22.261329	0.000953	20.683322
226.058961	-3.009500	3.846400	-11.574000	22.264570	0.000954	20.679454
227.058652	-2.995000	3.846600	-11.520000	22.290805	0.000955	20.682964
228.060656	-3.006700	3.845600	-11.562000	22.286992	0.000956	20.691001
229.063261	-2.992900	3.845800	-11.508000	22.303486	0.000953	20.676695
230.060813	-2.987700	3.846000	-11.490000	22.299034	0.000957	20.683617
231.060734	-3.030600	3.845600	-11.654000	22.310743	0.000956	20.688704
232.060738	-3.009700	3.844200	-11.568000	22.309550	0.000956	20.693200
233.066737	-3.029200	3.843700	-11.642000	22.324850	0.000956	20.686709
234.061953	-2.980400	3.845600	-11.460000	22.342395	0.000956	20.696217
235.062952	-2.986600	3.844800	-11.481000	22.338133	0.000959	20.672982
236.063972	-3.014200	3.843700	-11.584000	22.357695	0.000959	20.675500
237.065940	-3.022800	3.844400	-11.620000	22.349817	0.000960	20.680889
238.073939	-3.003200	3.845100	-11.546000	22.345986	0.000958	20.694123
239.065969	-3.005900	3.842100	-11.548000	22.359940	0.000960	20.696716
240.070555	-2.983000	3.844100	-11.466000	22.384082	0.000960	20.694813
241.077703	-2.967800	3.843700	-11.406000	22.390717	0.000960	20.683913
242.066680	-2.984500	3.843400	-11.469000	22.390139	0.000962	20.690921
243.080233	-2.992200	3.843000	-11.497000	22.407609	0.000961	20.710788
244.067951	-3.000300	3.843100	-11.530000	22.409552	0.000964	20.702302
245.073717	-3.003800	3.843100	-11.543000	22.405715	0.000962	20.713159
246.075962	-2.991200	3.843200	-11.495000	22.429063	0.000963	20.698133
247.071428	-3.007900	3.842400	-11.556000	22.397764	0.000963	20.694290
248.068428	-2.979200	3.843100	-11.448000	22.420688	0.000966	20.685951
249.072088	-3.004100	3.842300	-11.541000	22.417030	0.000966	20.695564
250.087091	-3.016500	3.841700	-11.587000	22.398785	0.000966	20.668757
251.069088	-3.002500	3.842600	-11.536000	22.425128	0.000966	20.706046
252.108706	-3.005200	3.841800	-11.544000	22.431603	0.000967	20.692140
253.074707	-3.000800	3.840400	-11.523000	22.451464	0.000967	20.711083
254.078720	-3.010500	3.841000	-11.562000	22.454729	0.000968	20.693489
255.071718	-3.022800	3.839500	-11.605000	22.467316	0.000967	20.698508
256.071718	-3.015000	3.838800	-11.572000	22.468804	0.000969	20.714698
257.077719	-3.013900	3.838400	-11.567000	22.491813	0.000967	20.694117
258.073105	-3.013300	3.839700	-11.568000	22.485480	0.000970	20.705319
259.076688	-3.001500	3.838800	-11.521000	22.477456	0.000969	20.702973
260.074694	-2.994400	3.837500	-11.490000	22.497341	0.000970	20.695860
261.078758	-2.991700	3.838700	-11.483000	22.490786	0.000971	20.700676
262.076461	-2.978800	3.838600	-11.433000	22.486002	0.000971	20.694936
263.076152	-3.013000	3.838000	-11.563000	22.499659	0.000972	20.686327
264.081933	-3.030100	3.837300	-11.625000	22.525446	0.000971	20.708361
265.075584	-3.010400	3.837300	-11.550000	22.510419	0.000973	20.700898
266.076638	-2.986000	3.837800	-11.459000	22.517225	0.000974	20.709137
267.077297	-2.991600	3.839000	-11.482000	22.531133	0.000970	20.705523
268.079709	-2.984800	3.837400	-11.453000	22.541524	0.000974	20.724940
269.079846	-3.012200	3.837300	-11.558000	22.553932	0.000975	20.704174
270.083112	-3.000600	3.837600	-11.515000	22.532277	0.000974	20.738438
271.078481	-3.010500	3.838100	-11.552000	22.546056	0.000976	20.706717
272.079701	-3.005400	3.837000	-11.531000	22.555973	0.000977	20.721392
273.080413	-3.010000	3.835800	-11.544000	22.563751	0.000975	20.717802
274.080647	-2.992400	3.836300	-11.479000	22.571369	0.000976	20.716423
275.085251	-3.005900	3.835300	-11.527000	22.560388	0.000978	20.714908
276.081114	-3.014800	3.833700	-11.557000	22.537805	0.000976	20.726430
277.084195	-3.006600	3.834600	-11.529000	22.540332	0.000978	20.703355
278.084590	-2.996600	3.836400	-11.496000	22.542570	0.000979	20.716029
279.082710	-2.980200	3.837200	-11.433000	22.552862	0.000978	20.728708
280.084237	-3.004200	3.833800	-11.517000	22.544359	0.000979	20.701224
281.086246	-2.983300	3.834700	-11.439000	22.580837	0.000978	20.713103
282.086563	-2.996900	3.834400	-11.490000	22.563320	0.000981	20.706465
283.088464	-2.990400	3.834000	-11.464000	22.576724	0.000982	20.700922
284.086268	-2.997600	3.834600	-11.494000	22.582909	0.000982	20.714705
285.086813	-3.000100	3.833300	-11.500000	22.617689	0.000983	20.715875
286.088625	-2.996400	3.833900	-11.486000	22.598507	0.000982	20.736966
287.086950	-2.998000	3.833300	-11.490000	22.626800	0.000984	20.715992
288.088746	-3.005600	3.832200	-11.517000	22.601317	0.000983	20.713701
289.087776	-3.015600	3.832500	-11.556000	22.643000	0.000985	20.734115
290.088307	-3.009200	3.831300	-11.528000	22.633704	0.000985	20.716269
291.090720	-3.020000	3.831600	-11.571000	22.644519	0.000985	20.726627
292.089345	-3.025300	3.831000	-11.589000	22.646812	0.000985	20.742201
293.090926	-3.005400	3.831000	-11.512000	22.650697	0.000987	20.739454
294.088997	-3.017200	3.832600	-11.563000	22.668655	0.000986	20.730414
295.090118	-3.007700	3.831600	-11.524000	22.655407	0.000985	20.717617
296.094182	-3.004400	3.830700	-11.508000	22.677034	0.000987	20.725531
297.095350	-2.984800	3.831200	-11.434000	22.669110	0.000987	20.717593
298.091547	-3.002200	3.831000	-11.500000	22.688869	0.000989	20.715573
299.092848	-3.032500	3.830600	-11.616000	22.688967	0.000987	20.730371
300.093993	-2.989800	3.830600	-11.452000	22.697703	0.000988	20.733432
301.092641	-2.995400	3.830300	-11.472000	22.700801	0.000989	20.734639
302.096036	-2.992200	3.830900	-11.462000	22.736278	0.000990	20.742675
303.096039	-3.009600	3.829000	-11.522000	22.719859	0.000991	20.746142
304.099078	-2.994800	3.830700	-11.470000	22.764052	0.000992	20.730667
305.095222	-2.985500	3.830700	-11.436000	22.751721	0.000990	20.738703
306.096339	-2.965600	3.830000	-11.357000	22.762859	0.000991	20.735162
307.101872	-2.998000	3.829000	-11.478000	22.751942	0.000994	20.744141
308.093825	-2.994400	3.828100	-11.462000	22.753565	0.000993	20.743396
309.095421	-2.979500	3.827500	-11.402000	22.773199	0.000993	20.747417
310.095612	-3.019900	3.827300	-11.557000	22.792354	0.000994	20.746216
311.096135	-2.994700	3.828600	-11.464000	22.816364	0.000994	20.747509
312.097479	-2.994800	3.828700	-11.464000	22.817464	0.000995	20.723954
313.098297	-2.986100	3.827400	-11.428000	22.802816	0.000994	20.741049
314.098954	-2.970400	3.828500	-11.372000	22.822130	0.000997	20.746173
315.095381	-2.977400	3.828700	-11.398000	22.816794	0.000997	20.743673
316.095281	-2.980600	3.828200	-11.409000	22.810069	0.000997	20.747368
317.098128	-2.990800	3.827700	-11.447000	22.821755	0.000996	20.734417
318.098861	-3.012200	3.827300	-11.528000	22.809393	0.001000	20.738155
319.097815	-3.005900	3.827100	-11.501000	22.785881	0.000999	20.760121
320.097261	-2.966100	3.827400	-11.351000	22.797241	0.000997	20.754431
321.097966	-2.984900	3.826400	-11.420000	22.821675	0.000999	20.750933
322.099771	-3.003200	3.825100	-11.487000	22.797161	0.001001	20.746764
323.097822	-3.013500	3.825600	-11.527000	22.825461	0.001000	20.752830
324.096030	-2.991000	3.826000	-11.443000	22.811668	0.001000	20.753236
325.096775	-2.996000	3.824800	-11.458000	22.824914	0.000999	20.754178
326.095930	-2.986800	3.824600	-11.422000	22.839814	0.001003	20.761045
327.096886	-2.985000	3.825200	-11.417000	22.864795	0.001003	20.750034
328.104257	-3.002900	3.823600	-11.481000	22.884476	0.001001	20.748414
329.099195	-2.996900	3.823800	-11.458000	22.893094	0.001002	20.743297
330.100797	-2.996000	3.824300	-11.457000	22.901312	0.001004	20.763385
331.099536	-3.005200	3.824200	-11.491000	22.883757	0.001003	20.758600
332.100160	-3.003000	3.823000	-11.480000	22.854806	0.001004	20.746665
333.103744	-2.995700	3.823100	-11.451000	22.898878	0.001004	20.755256
334.098876	-2.969000	3.822800	-11.348000	22.886861	0.001004	20.753175
335.103401	-2.998500	3.821900	-11.458000	22.905018	0.001005	20.756666
336.101858	-3.007800	3.820900	-11.491000	22.894286	0.001006	20.780528
337.101112	-3.019600	3.821800	-11.539000	22.905645	0.001006	20.770097
338.100040	-2.999500	3.822800	-11.465000	22.887457	0.001009	20.776532
339.102330	-3.010400	3.821500	-11.504000	22.895485	0.001006	20.768453
340.100493	-2.996800	3.820400	-11.447000	22.880831	0.001008	20.749504
341.103676	-2.989500	3.822200	-11.424000	22.913561	0.001008	20.763329
342.100354	-2.997600	3.819200	-11.447000	22.904176	0.001007	20.755348
343.102633	-2.997800	3.821100	-11.454000	22.907587	0.001010	20.764456
344.102136	-2.986200	3.820500	-11.408000	22.930876	0.001009	20.778305
345.102023	-2.993200	3.820700	-11.435000	22.915485	0.001008	20.771895
346.103012	-3.016600	3.818500	-11.517000	22.919431	0.001010	20.767788
347.101493	-2.998200	3.819700	-11.451000	22.926715	0.001010	20.765127
348.102321	-3.015300	3.818600	-11.513000	22.921804	0.001011	20.773958
349.106634	-2.999500	3.818200	-11.451000	22.944521	0.001010	20.765423
350.102307	-2.992300	3.820100	-11.428000	22.955547	0.001011	20.781212
351.108267	-3.017200	3.818200	-11.519000	22.970599	0.001010	20.780645
352.102602	-3.000200	3.819200	-11.458000	22.970224	0.001012	20.775528
353.102202	-3.006400	3.818100	-11.477000	22.960279	0.001013	20.784057
354.102298	-3.019400	3.818200	-11.528000	22.954103	0.001014	20.793041
355.103075	-2.999700	3.817200	-11.450000	22.953131	0.001016	20.775473
356.102226	-3.005000	3.817500	-11.471000	22.981729	0.001015	20.778995
357.102859	-2.995400	3.817200	-11.433000	22.950532	0.001016	20.793731
358.102098	-2.993100	3.817200	-11.425000	22.975891	0.001014	20.790215
359.102591	-2.992000	3.816600	-11.418000	22.985478	0.001017	20.788915
360.104281	-3.008300	3.815400	-11.475000	22.982012	0.001015	20.783546
361.101845	-3.012500	3.816000	-11.494000	22.968792	0.001016	20.787844
362.107244	-2.995400	3.816000	-11.429000	22.971355	0.001018	20.773342
363.104216	-2.996900	3.815000	-11.431000	22.958651	0.001018	20.791908
364.104984	-2.987500	3.816400	-11.400000	22.968110	0.001018	20.778626
365.107314	-2.994100	3.815500	-11.423000	22.970974	0.001018	20.802832
366.108968	-2.995400	3.814500	-11.425000	22.998526	0.001019	20.784919
367.106639	-2.992800	3.816100	-11.420000	22.998219	0.001020	20.786982
368.104910	-3.019500	3.814800	-11.518000	23.003523	0.001019	20.794667
369.105889	-3.007700	3.813800	-11.469000	23.005023	0.001022	20.790005
370.106523	-3.007200	3.814100	-11.468000	23.013682	0.001020	20.787776
371.109015	-3.017800	3.813000	-11.505000	22.984145	0.001020	20.785208
372.110094	-3.009400	3.813000	-11.473000	23.002878	0.001020	20.785960
373.112140	-3.003800	3.812800	-11.451000	23.021899	0.001021	20.813079
374.106525	-3.005400	3.811800	-11.455000	23.038265	0.001021	20.782536
375.105557	-3.018900	3.810800	-11.503000	23.051092	0.001021	20.812931
376.109034	-3.041900	3.810900	-11.590000	23.068625	0.001023	20.779765
377.105815	-2.982900	3.813200	-11.373000	23.069350	0.001025	20.806096
378.106309	-3.009900	3.811400	-11.471000	23.074875	0.001023	20.803097
379.105843	-3.036300	3.809800	-11.566000	23.101042	0.001022	20.800394
380.105965	-2.989900	3.811100	-11.394000	23.076092	0.001025	20.809532
381.111441	-2.996200	3.810900	-11.417000	23.064391	0.001024	20.803971
382.106656	-3.024500	3.810200	-11.523000	23.057489	0.001025	20.834514
383.108287	-3.018100	3.810200	-11.498000	23.079005	0.001026	20.824304
384.106579	-3.017800	3.809200	-11.494000	23.059855	0.001026	20.820289
385.118721	-3.016200	3.809100	-11.488000	23.094344	0.001026	20.792259
386.108841	-3.004100	3.810900	-11.447000	23.099770	0.001025	20.816188
387.110859	-3.037300	3.808000	-11.565000	23.102984	0.001028	20.786218
388.108584	-3.015300	3.809300	-11.486000	23.125157	0.001027	20.822660
389.107889	-3.026100	3.807500	-11.520000	23.143979	0.001028	20.793158
390.107843	-3.015000	3.808300	-11.479000	23.142486	0.001028	20.813473
391.109480	-3.022000	3.807800	-11.506000	23.154561	0.001027	20.800443
392.109827	-3.026100	3.806800	-11.518000	23.164768	0.001030	20.819206
393.108490	-3.009800	3.808500	-11.462000	23.140766	0.001028	20.825499
394.114456	-3.005400	3.807000	-11.441000	23.147488	0.001031	20.814218
395.109521	-2.989900	3.808200	-11.384000	23.132746	0.001029	20.822679
396.108335	-3.010900	3.807300	-11.462000	23.114409	0.001029	20.793398
397.115313	-2.995100	3.808100	-11.403000	23.119442	0.001030	20.831158
398.109399	-3.016700	3.806100	-11.481000	23.152712	0.001031	20.816133
399.109257	-2.983900	3.808000	-11.362000	23.136476	0.001031	20.815037
400.110538	-3.010900	3.807400	-11.461000	23.134565	0.001032	20.813596
401.111920	-3.003200	3.805800	-11.429000	23.146984	0.001032	20.810868
402.110600	-3.002600	3.807700	-11.431000	23.161683	0.001031	20.822278
403.114889	-3.006700	3.805700	-11.442000	23.182349	0.001031	20.814538
404.110752	-2.996400	3.805300	-11.401000	23.174951	0.001033	20.801434
405.109429	-3.007100	3.804500	-11.440000	23.193926	0.001032	20.800061
406.110929	-3.008400	3.804200	-11.442000	23.162396	0.001034	20.804027
407.111486	-3.001700	3.803700	-11.415000	23.157665	0.001031	20.778897
408.112589	-2.980200	3.804000	-11.335000	23.141306	0.001033	20.790480
409.111953	-2.985500	3.804700	-11.358000	23.154051	0.001034	20.800880
410.114083	-3.005000	3.804500	-11.431000	23.130122	0.001035	20.780221
411.111472	-2.996000	3.803200	-11.393000	23.137349	0.001035	20.803109
412.112096	-3.001400	3.802600	-11.412000	23.172032	0.001034	20.787604
413.116847	-2.994200	3.801900	-11.382000	23.178527	0.001034	20.777991
414.111491	-2.980400	3.803900	-11.336000	23.196267	0.001036	20.789131
415.117868	-3.013300	3.802200	-11.456000	23.203979	0.001036	20.804446
416.111093	-2.969400	3.803300	-11.293000	23.213270	0.001037	20.797635
417.111713	-3.000800	3.801500	-11.406000	23.202160	0.001036	20.794088
418.114043	-3.014700	3.801900	-11.460000	23.222579	0.001037	20.810757
419.112689	-3.002600	3.800000	-11.408000	23.226518	0.001036	20.771082
420.112217	-2.994500	3.802500	-11.385000	23.240338	0.001037	20.789673
421.112089	-2.997000	3.800200	-11.389000	23.264547	0.001038	20.796391
422.111480	-2.992000	3.800100	-11.369000	23.299503	0.001038	20.799181
423.117689	-3.001300	3.799800	-11.403000	23.291558	0.001038	20.795012
424.114017	-2.969000	3.801300	-11.285000	23.309905	0.001041	20.765509
425.114539	-2.988600	3.799600	-11.354000	23.332196	0.001040	20.783583
426.113176	-3.000700	3.799700	-11.401000	23.345252	0.001042	20.777702
427.113484	-3.021100	3.798700	-11.475000	23.307717	0.001042	20.793189
428.114145	-2.988700	3.799300	-11.353000	23.295613	0.001042	20.798602
429.113142	-3.000800	3.797700	-11.395000	23.278434	0.001040	20.757202
430.114151	-2.984900	3.798500	-11.337000	23.241751	0.001042	20.770226
431.114230	-2.978900	3.799600	-11.317000	23.232810	0.001042	20.769801
432.116592	-2.994100	3.796700	-11.367000	23.243416	0.001042	20.780430
433.117968	-2.985200	3.798200	-11.338000	23.210493	0.001043	20.782998
434.118607	-3.002900	3.796700	-11.399000	23.210548	0.001043	20.765983
435.116603	-3.004600	3.796700	-11.406000	23.255392	0.001043	20.777259
436.115075	-2.989200	3.797500	-11.350000	23.238654	0.001044	20.779451
437.116497	-2.995300	3.796300	-11.369000	23.270028	0.001044	20.771538
438.115445	-2.998800	3.795400	-11.380000	23.257407	0.001045	20.792555
439.118033	-3.003000	3.796200	-11.398000	23.260142	0.001043	20.780596
440.118714	-2.986200	3.795200	-11.333000	23.219225	0.001045	20.778472
441.122034	-2.993100	3.794700	-11.357000	23.210960	0.001044	20.776828
442.116706	-2.983300	3.794700	-11.319000	23.238642	0.001047	20.772326
443.117775	-3.004300	3.793600	-11.396000	23.258698	0.001045	20.769666
444.120975	-3.018400	3.793100	-11.448000	23.269752	0.001046	20.766045
445.126703	-3.008400	3.794000	-11.413000	23.278464	0.001046	20.767665
446.120836	-2.998200	3.794700	-11.376000	23.301868	0.001047	20.758403
447.119010	-2.988000	3.792800	-11.332000	23.321788	0.001047	20.779316
448.119018	-2.972200	3.793600	-11.274000	23.326992	0.001048	20.747072
449.119195	-3.009000	3.791800	-11.408000	23.296990	0.001047	20.768213
450.122040	-2.990000	3.793600	-11.342000	23.315410	0.001045	20.761544
451.118303	-3.002700	3.792700	-11.387000	23.297156	0.001046	20.760792
452.120131	-3.007400	3.791400	-11.401000	23.310304	0.001047	20.745046
453.120140	-3.001200	3.792600	-11.380000	23.343747	0.001047	20.770978
454.120899	-2.981400	3.792600	-11.306000	23.319244	0.001047	20.775344
455.122140	-2.995300	3.790500	-11.353000	23.352109	0.001048	20.756125
456.118913	-2.993000	3.789900	-11.341000	23.360821	0.001048	20.775288
457.120454	-2.991700	3.791300	-11.340000	23.417160	0.001047	20.756365
458.119310	-3.021400	3.789400	-11.448000	23.414248	0.001047	20.770990
459.119120	-2.995700	3.790300	-11.353000	23.407600	0.001050	20.759585
460.120615	-3.012600	3.789800	-11.416000	23.440315	0.001049	20.779574
461.118534	-2.991100	3.789800	-11.335000	23.453782	0.001048	20.761304
462.123352	-3.006100	3.789000	-11.389000	23.444345	0.001050	20.774605
463.120466	-3.021500	3.788700	-11.446000	23.456055	0.001049	20.751728
464.120445	-2.982000	3.787600	-11.294000	23.458487	0.001051	20.752270
465.120848	-2.989400	3.788300	-11.324000	23.445340	0.001049	20.737669
466.122964	-3.003800	3.788200	-11.378000	23.482539	0.001051	20.763576
467.122962	-3.022100	3.788100	-11.448000	23.492442	0.001053	20.774451
468.129777	-3.013400	3.786800	-11.410000	23.505336	0.001053	20.740908
469.124297	-3.016900	3.786900	-11.424000	23.479971	0.001052	20.773804
470.123438	-2.991400	3.787800	-11.329000	23.470037	0.001053	20.774753
471.128288	-2.999700	3.787600	-11.359000	23.463242	0.001053	20.771261
472.126125	-3.014900	3.786800	-11.416000	23.470504	0.001052	20.766212
473.128211	-3.007400	3.786400	-11.387000	23.460951	0.001053	20.754265
474.129581	-3.001800	3.786200	-11.364000	23.455618	0.001052	20.763145
475.126920	-3.010300	3.785800	-11.396000	23.449715	0.001050	20.756753
476.129161	-2.995600	3.786600	-11.341000	23.466843	0.001053	20.738359
477.130474	-2.979500	3.787100	-11.282000	23.460300	0.001053	20.747448
478.126407	-3.008700	3.784400	-11.385000	23.447276	0.001053	20.750989
479.128571	-3.026300	3.783700	-11.449000	23.460220	0.001055	20.757326
480.127690	-3.000600	3.784000	-11.354000	23.451681	0.001053	20.723160
481.126648	-2.996200	3.784400	-11.337000	23.428944	0.001055	20.756322
482.131465	-3.007000	3.783000	-11.373000	23.469153	0.001054	20.773866
483.130045	-3.003200	3.783600	-11.361000	23.445396	0.001054	20.750527
484.128075	-2.972600	3.784700	-11.250000	23.450698	0.001056	20.751100
485.128464	-2.993200	3.782800	-11.322000	23.440014	0.001055	20.746081
486.129100	-2.998000	3.782500	-11.339000	23.437250	0.001054	20.752794
487.127891	-3.002800	3.781800	-11.355000	23.440211	0.001055	20.754813
488.128670	-2.995900	3.782200	-11.329000	23.416079	0.001056	20.750066
489.129017	-3.025700	3.781700	-11.441000	23.392076	0.001055	20.735489
490.130100	-2.984700	3.781700	-11.286000	23.410568	0.001056	20.740274
491.128118	-2.984900	3.782900	-11.291000	23.426548	0.001055	20.738747
492.132347	-2.996400	3.781200	-11.328000	23.427125	0.001055	20.748335
493.129546	-2.995300	3.780600	-11.323000	23.435683	0.001057	20.747430
494.130986	-3.018100	3.779600	-11.406000	23.475892	0.001054	20.743637
495.132177	-2.995300	3.780800	-11.323000	23.455570	0.001058	20.752665
496.132542	-2.989600	3.781000	-11.302000	23.449021	0.001057	20.736617
497.137722	-2.993700	3.779000	-11.311000	23.465203	0.001056	20.749044
498.134764	-2.983500	3.781200	-11.280000	23.475880	0.001056	20.730348
499.136150	-3.008900	3.778600	-11.369000	23.464921	0.001059	20.755873
500.135251	-2.981900	3.780000	-11.270000	23.474007	0.001058	20.742695
501.134975	-3.005400	3.778200	-11.354000	23.448235	0.001057	20.730139
502.140107	-2.993500	3.777400	-11.306000	23.445802	0.001059	20.741451
503.137888	-2.968400	3.778300	-11.215000	23.452640	0.001057	20.739296
504.135916	-3.015100	3.776400	-11.385000	23.480175	0.001057	20.742239
505.136076	-2.995800	3.777400	-11.315000	23.486324	0.001058	20.738920
506.137609	-3.005300	3.776100	-11.347000	23.490305	0.001058	20.762826
507.136103	-3.004600	3.776000	-11.343000	23.485126	0.001057	20.736771
508.137598	-3.015300	3.776000	-11.385000	23.516143	0.001058	20.743206
509.140337	-2.982900	3.776100	-11.262000	23.515719	0.001057	20.719072
510.139566	-2.996600	3.777000	-11.316000	23.551748	0.001059	20.750922
511.137394	-2.987300	3.776200	-11.280000	23.573002	0.001058	20.750417
512.136795	-2.998400	3.775800	-11.320000	23.575017	0.001059	20.743428
513.141800	-3.031600	3.773700	-11.439000	23.564384	0.001059	20.746519
514.137194	-3.017200	3.772800	-11.382000	23.596252	0.001060	20.729153
515.140324	-3.013800	3.774200	-11.373000	23.580595	0.001058	20.742855
516.138870	-3.009100	3.774200	-11.356000	23.596953	0.001061	20.748348
517.139297	-2.992800	3.773600	-11.293000	23.610841	0.001059	20.721967
518.138469	-3.001500	3.773200	-11.325000	23.620399	0.001061	20.758103
519.140667	-3.008600	3.772800	-11.348000	23.599563	0.001059	20.731050
520.138616	-2.997600	3.774000	-11.311000	23.572578	0.001059	20.740509
521.137731	-2.995500	3.771800	-11.297000	23.588801	0.001060	20.742548
522.139505	-2.997300	3.772300	-11.306000	23.582806	0.001060	20.734640
523.137883	-2.992100	3.772600	-11.286000	23.593838	0.001061	20.721043
524.141448	-2.996300	3.771400	-11.300000	23.615583	0.001062	20.726247
525.138255	-2.998400	3.771100	-11.306000	23.640675	0.001062	20.725323
526.138351	-3.000800	3.770900	-11.315000	23.631615	0.001061	20.713395
527.138823	-2.986500	3.770900	-11.260000	23.647819	0.001062	20.730114
528.139282	-2.979700	3.772000	-11.239000	23.664170	0.001060	20.732756
529.141647	-3.012000	3.770000	-11.353000	23.677216	0.001061	20.746784
530.141461	-3.017300	3.769400	-11.371000	23.709554	0.001060	20.739376
531.139918	-3.008700	3.769200	-11.339000	23.688468	0.001060	20.736254
532.142154	-2.996600	3.769800	-11.295000	23.696508	0.001061	20.733409
533.142481	-2.998500	3.769000	-11.300000	23.721949	0.001062	20.737104
534.141675	-2.979800	3.769800	-11.233000	23.727126	0.001061	20.725699
535.145285	-2.997100	3.768800	-11.295000	23.709333	0.001061	20.714497
536.145245	-3.005700	3.767300	-11.323000	23.743083	0.001062	20.735533
537.145319	-3.014400	3.768000	-11.357000	23.718712	0.001060	20.742868
538.147268	-2.989900	3.768700	-11.266000	23.713258	0.001061	20.709897
539.142948	-2.986300	3.767500	-11.250000	23.708535	0.001061	20.723654
540.145597	-2.991100	3.766500	-11.264000	23.707067	0.001062	20.719337
541.144486	-2.982000	3.766500	-11.230000	23.693917	0.001062	20.720852
542.144914	-3.013800	3.765700	-11.348000	23.695292	0.001063	20.717964
543.144388	-2.988700	3.765800	-11.254000	23.703357	0.001061	20.712299
544.144205	-2.999100	3.765700	-11.293000	23.678217	0.001062	20.726924
545.146197	-2.991500	3.766400	-11.265000	23.657333	0.001063	20.712151
546.149065	-3.005000	3.764500	-11.311000	23.673414	0.001060	20.736334
547.146739	-2.997400	3.764500	-11.282000	23.696889	0.001063	20.706762
548.146673	-3.005300	3.764000	-11.311000	23.716126	0.001065	20.726998
549.146246	-3.010700	3.763600	-11.330000	23.717397	0.001062	20.718315
550.150317	-2.996800	3.762300	-11.274000	23.721408	0.001063	20.711904
551.150155	-3.005600	3.763100	-11.309000	23.752369	0.001061	20.714971
552.146339	-2.993700	3.763300	-11.264000	23.754617	0.001062	20.719596
553.163751	-2.987200	3.763800	-11.242000	23.779902	0.001062	20.728827
554.148263	-2.994300	3.762300	-11.264000	23.773828	0.001062	20.697130
555.150718	-3.000900	3.762700	-11.290000	23.778680	0.001062	20.714325
556.151485	-3.000300	3.761900	-11.286000	23.794931	0.001063	20.724929
557.149122	-3.004900	3.761400	-11.301000	23.770094	0.001064	20.720889
558.155645	-2.990900	3.760100	-11.244000	23.785332	0.001062	20.703923
559.153441	-2.983300	3.761200	-11.220000	23.784036	0.001063	20.710211
560.150134	-3.009300	3.760500	-11.316000	23.824705	0.001063	20.699304
561.153982	-3.015400	3.759400	-11.334000	23.784337	0.001062	20.699606
562.154447	-3.022500	3.758900	-11.360000	23.768264	0.001063	20.709096
563.153302	-3.020100	3.759100	-11.351000	23.746854	0.001061	20.709915
564.154767	-3.010400	3.758900	-11.314000	23.752762	0.001063	20.706355
565.152473	-3.007300	3.758600	-11.302000	23.728711	0.001061	20.714010
566.153656	-2.989700	3.758300	-11.235000	23.741707	0.001060	20.692425
567.158460	-2.999900	3.757300	-11.270000	23.756220	0.001063	20.701761
568.154341	-2.985900	3.758800	-11.222000	23.773097	0.001061	20.701139
569.161394	-2.976300	3.758400	-11.185000	23.773398	0.001061	20.711873
570.160153	-2.985100	3.758600	-11.218000	23.754506	0.001061	20.703837
571.156149	-3.007200	3.757800	-11.300000	23.753910	0.001062	20.711775
572.157576	-2.991900	3.757400	-11.241000	23.775787	0.001061	20.699569
573.160360	-3.011600	3.754500	-11.306000	23.789182	0.001061	20.704465
574.155658	-2.976000	3.756900	-11.180000	23.793438	0.001064	20.699248
575.155423	-2.991900	3.756800	-11.239000	23.810696	0.001063	20.699957
576.155872	-2.995500	3.756500	-11.251000	23.809320	0.001061	20.702845
577.158501	-2.982900	3.757300	-11.207000	23.821670	0.001062	20.693891
578.158010	-2.999900	3.754200	-11.261000	23.848674	0.001061	20.703898
579.155400	-3.012600	3.754500	-11.309000	23.866299	0.001062	20.685534
580.159640	-2.999700	3.755400	-11.263000	23.860219	0.001063	20.689395
581.155934	-3.027200	3.753500	-11.362000	23.879736	0.001064	20.717502
582.157088	-2.979200	3.754700	-11.185000	23.870702	0.001065	20.679991
583.160173	-2.988600	3.754300	-11.218000	23.856915	0.001061	20.710740
584.158378	-2.984100	3.753900	-11.200000	23.847562	0.001062	20.707999
585.162324	-2.999300	3.753400	-11.256000	23.839339	0.001063	20.694063
586.159276	-3.002800	3.753300	-11.269000	23.909083	0.001062	20.690503
587.164204	-3.011600	3.751800	-11.298000	23.883819	0.001061	20.679868
588.158827	-2.997300	3.751500	-11.243000	23.908488	0.001063	20.697493
589.164024	-2.985700	3.752500	-11.203000	23.877476	0.001063	20.700061
590.166045	-3.000200	3.752000	-11.256000	23.853132	0.001060	20.705049
591.158782	-2.992300	3.753500	-11.230000	23.836213	0.001062	20.698041
592.161043	-3.007600	3.750000	-11.278000	23.812292	0.001064	20.678322
593.159687	-3.014700	3.751600	-11.309000	23.828192	0.001063	20.681937
594.161009	-2.996700	3.750800	-11.237000	23.814436	0.001061	20.683316
595.164834	-3.013000	3.750400	-11.299000	23.841838	0.001064	20.696569
596.161121	-2.982300	3.750800	-11.184000	23.879570	0.001063	20.686987
597.160742	-3.014400	3.749300	-11.300000	23.891655	0.001062	20.679665
598.161166	-2.990600	3.750100	-11.212000	23.876929	0.001064	20.706152
599.162009	-2.995700	3.750200	-11.234000	23.890341	0.001061	20.691150
600.162161	-2.993800	3.749700	-11.224000	23.892933	0.001062	20.675255
601.162347	-2.996100	3.747800	-11.228000	23.897956	0.001061	20.694044
602.162550	-3.007900	3.747500	-11.271000	23.907689	0.001059	20.686734
603.163599	-2.994700	3.748200	-11.224000	23.921451	0.001061	20.678248
604.165861	-2.986100	3.748700	-11.193000	23.924386	0.001062	20.682614
605.164569	-2.999600	3.747300	-11.240000	23.918761	0.001063	20.690251
606.165001	-2.988800	3.748600	-11.203000	23.896715	0.001063	20.671461
607.166049	-3.013400	3.745500	-11.286000	23.888904	0.001062	20.662205
608.165843	-3.024500	3.745400	-11.327000	23.892110	0.001062	20.685811
609.167327	-3.009200	3.746200	-11.271000	23.874743	0.001060	20.672188
610.170929	-3.008800	3.745700	-11.269000	23.881437	0.001063	20.681746
611.167059	-2.988100	3.745600	-11.190000	23.897987	0.001060	20.682694
612.165873	-2.987100	3.744600	-11.185000	23.897139	0.001062	20.683267
613.166929	-2.988200	3.744400	-11.188000	23.881885	0.001063	20.661331
614.166962	-2.984800	3.744900	-11.176000	23.877132	0.001062	20.651348
615.172197	-2.989900	3.744300	-11.194000	23.845198	0.001061	20.671012
616.172698	-2.984900	3.745200	-11.178000	23.823144	0.001061	20.681617
617.169607	-3.010200	3.743500	-11.266000	23.832921	0.001061	20.672927
618.168350	-3.010800	3.743300	-11.269000	23.841261	0.001060	20.673703
619.168638	-3.013800	3.742500	-11.279000	23.843748	0.001061	20.691846
620.169449	-3.051800	3.740800	-11.415000	23.853857	0.001061	20.656933
621.171548	-3.019000	3.741400	-11.294000	23.889199	0.001059	20.677201
622.170191	-2.985200	3.742900	-11.172000	23.896617	0.001060	20.644807
623.169867	-2.983400	3.742800	-11.165000	23.893848	0.001060	20.664318
624.170301	-3.004000	3.741200	-11.237000	23.907038	0.001061	20.680865
625.170670	-2.999500	3.741700	-11.222000	23.915875	0.001061	20.659378
626.171629	-2.987800	3.741600	-11.178000	23.949195	0.001061	20.658652
627.170641	-3.023400	3.739300	-11.304000	23.989060	0.001059	20.665439
628.172187	-2.988500	3.740800	-11.177000	23.970423	0.001060	20.668087
629.170932	-3.015100	3.739500	-11.274000	23.976214	0.001061	20.685275
630.172328	-3.020800	3.739500	-11.296000	23.967089	0.001062	20.673278
631.171874	-2.992500	3.738800	-11.187000	23.986247	0.001058	20.672102
632.175402	-2.998000	3.739100	-11.208000	24.008273	0.001060	20.667637
633.196790	-2.997700	3.738100	-11.205000	24.004914	0.001060	20.666165
634.172982	-2.990500	3.738500	-11.179000	23.994230	0.001059	20.656872
635.174098	-2.998300	3.737900	-11.206000	23.993837	0.001059	20.668333
636.175781	-3.002700	3.737400	-11.221000	24.015261	0.001058	20.634812
637.172563	-2.988400	3.738100	-11.170000	24.035622	0.001059	20.669460
638.173819	-3.003800	3.737700	-11.226000	24.019074	0.001058	20.666141
639.173030	-2.983000	3.737800	-11.149000	24.036291	0.001059	20.669657
640.173114	-3.009700	3.736400	-11.244000	24.049401	0.001059	20.659569
641.177547	-2.999500	3.736100	-11.205000	24.052366	0.001058	20.667286
642.173739	-3.007100	3.735700	-11.232000	24.058359	0.001059	20.666658
643.177889	-2.981500	3.736600	-11.140000	24.062166	0.001059	20.660518
644.174111	-2.991600	3.736800	-11.177000	24.072770	0.001059	20.688225
645.174853	-3.013100	3.735700	-11.256000	24.093148	0.001059	20.664564
646.176520	-2.989000	3.735800	-11.165000	24.091208	0.001058	20.674947
647.174029	-2.984200	3.735000	-11.144000	24.057211	0.001060	20.668826
648.174878	-2.990200	3.735700	-11.169000	24.079210	0.001059	20.656749
649.173920	-2.982100	3.734800	-11.136000	24.040841	0.001059	20.665211
650.174312	-3.003100	3.733500	-11.212000	24.026725	0.001057	20.656269
651.177631	-2.983200	3.733200	-11.136000	24.033326	0.001056	20.677115
652.176260	-2.980500	3.733500	-11.126000	24.031576	0.001058	20.679154
653.177477	-2.988100	3.733300	-11.154000	24.023139	0.001056	20.660734
654.175335	-2.999600	3.732500	-11.194000	24.009581	0.001058	20.659465
655.182045	-2.996900	3.732300	-11.184000	23.984344	0.001058	20.673987
656.176813	-3.011900	3.731600	-11.239000	23.945769	0.001058	20.664700
657.176501	-3.002000	3.732700	-11.205000	23.905504	0.001059	20.647554
658.176152	-3.009700	3.730900	-11.227000	23.916349	0.001057	20.671708
659.175473	-3.026000	3.730900	-11.288000	23.932732	0.001057	20.678655
660.177762	-3.010600	3.731100	-11.231000	23.941563	0.001056	20.661904
661.178509	-3.020700	3.729700	-11.264000	23.966180	0.001057	20.655770
662.175813	-2.997100	3.729900	-11.176000	23.978320	0.001057	20.669368
663.176091	-3.007900	3.729800	-11.218000	23.944995	0.001057	20.683366
664.176613	-3.010100	3.729400	-11.225000	23.933678	0.001059	20.678181
665.178631	-3.007700	3.730700	-11.220000	23.942484	0.001055	20.668518
666.178019	-3.013300	3.728900	-11.235000	23.949975	0.001057	20.657063
667.180824	-3.016300	3.728500	-11.246000	23.969091	0.001057	20.672915
668.179649	-3.016200	3.727600	-11.242000	23.974888	0.001057	20.662606
669.178658	-2.979300	3.729800	-11.111000	23.994200	0.001057	20.674861
670.179381	-2.989700	3.728600	-11.147000	24.018343	0.001055	20.673944
671.181402	-2.987600	3.727900	-11.137000	24.060146	0.001059	20.659914
672.178896	-2.996900	3.727700	-11.171000	24.046509	0.001056	20.674689
673.184311	-2.986000	3.727100	-11.128000	24.061816	0.001056	20.669177
674.184969	-2.990700	3.728500	-11.149000	24.062559	0.001054	20.669448
675.180867	-3.013500	3.727000	-11.230000	24.048246	0.001055	20.680225
676.185454	-2.999500	3.727600	-11.180000	24.065070	0.001055	20.672915
677.181338	-3.025400	3.725500	-11.269000	24.027173	0.001057	20.674738
678.179915	-3.016600	3.725600	-11.237000	24.024361	0.001055	20.668124
679.181123	-2.994800	3.725100	-11.155000	24.002336	0.001054	20.683021
680.182164	-3.032500	3.725100	-11.294000	24.007788	0.001055	20.682799
681.181521	-2.998800	3.724500	-11.168000	24.052569	0.001054	20.667490
682.185957	-3.012900	3.725200	-11.222000	24.025872	0.001056	20.681968
683.184961	-3.007400	3.725000	-11.202000	24.041007	0.001054	20.672490
684.183899	-3.001800	3.724300	-11.178000	24.066882	0.001055	20.686113
685.183673	-2.983300	3.724200	-11.109000	24.066654	0.001055	20.679720
686.183973	-3.014700	3.724100	-11.226000	24.072383	0.001056	20.661756
687.186721	-2.990800	3.723700	-11.136000	24.072457	0.001054	20.684592
688.183761	-3.001600	3.723200	-11.175000	24.053865	0.001054	20.698664
689.184040	-2.998100	3.722200	-11.158000	24.057450	0.001053	20.688508
690.183723	-2.982500	3.723800	-11.105000	24.094247	0.001054	20.674202
691.184816	-2.997200	3.723300	-11.159000	24.102186	0.001054	20.682640
692.185003	-2.995600	3.722900	-11.150000	24.109351	0.001055	20.677023
693.191486	-3.009900	3.721900	-11.202000	24.162723	0.001055	20.704477
694.187459	-3.004400	3.721100	-11.178000	24.141223	0.001052	20.673427
695.188850	-2.998000	3.720600	-11.154000	24.142764	0.001051	20.709589
696.186770	-2.981400	3.721700	-11.095000	24.148959	0.001052	20.684506
697.188877	-2.997400	3.720700	-11.151000	24.117757	0.001052	20.684506
698.189318	-3.002100	3.720900	-11.170000	24.122798	0.001053	20.673913
699.188573	-3.002300	3.719900	-11.167000	24.150543	0.001050	20.693682
700.191108	-3.022100	3.719600	-11.240000	24.154122	0.001053	20.683046
701.188959	-3.017600	3.720400	-11.226000	24.142408	0.001053	20.707809
702.188347	-3.003400	3.718200	-11.166000	24.158451	0.001052	20.669843
703.192255	-3.020400	3.717500	-11.227000	24.129060	0.001052	20.712915
704.189073	-3.012800	3.718100	-11.202000	24.147400	0.001051	20.718506
705.191247	-2.987800	3.718200	-11.107000	24.158218	0.001051	20.702329
706.189487	-2.979500	3.718800	-11.078000	24.118777	0.001052	20.699280
707.190039	-2.989800	3.717100	-11.111000	24.142586	0.001050	20.699453
708.189641	-2.984900	3.717400	-11.095000	24.117801	0.001051	20.698775
709.191222	-3.003800	3.717100	-11.165000	24.124867	0.001050	20.706812
710.189901	-3.016700	3.717000	-11.212000	24.109905	0.001052	20.707927
711.189540	-2.998700	3.717300	-11.146000	24.101622	0.001051	20.701990
712.190768	-3.027200	3.715400	-11.244000	24.105398	0.001049	20.701510
713.189168	-2.999100	3.716000	-11.143000	24.093278	0.001050	20.696466
714.193329	-2.994400	3.716300	-11.126000	24.124893	0.001048	20.696405
715.189811	-3.003700	3.715200	-11.158000	24.133279	0.001050	20.707188
716.191098	-2.989200	3.715200	-11.104000	24.148733	0.001050	20.687598
717.189645	-2.992500	3.714600	-11.115000	24.176919	0.001049	20.708759
718.190513	-2.983800	3.714900	-11.083000	24.202895	0.001047	20.699250
719.191158	-2.985000	3.714700	-11.087000	24.204055	0.001049	20.698043
720.190485	-3.000500	3.714700	-11.145000	24.243260	0.001047	20.713187
721.191045	-2.987600	3.714700	-11.097000	24.249743	0.001049	20.715897
722.192213	-3.013300	3.713800	-11.189000	24.225119	0.001047	20.725337
723.192109	-2.990300	3.714100	-11.105000	24.220791	0.001049	20.709615
724.194530	-3.020900	3.712400	-11.213000	24.234862	0.001047	20.694805
725.192600	-2.998600	3.712800	-11.132000	24.252279	0.001047	20.721285
726.195394	-3.016800	3.712500	-11.199000	24.290340	0.001048	20.726748
727.193934	-3.000100	3.713900	-11.140000	24.253857	0.001046	20.716704
728.192386	-3.011500	3.711500	-11.176000	24.222369	0.001048	20.701240
729.196239	-3.006800	3.711000	-11.158000	24.225550	0.001046	20.690679
730.197169	-3.051400	3.708900	-11.316000	24.208397	0.001046	20.718047
731.194547	-2.997000	3.712200	-11.124000	24.185332	0.001048	20.728103
732.194325	-2.992600	3.710200	-11.102000	24.195928	0.001044	20.725455
733.193597	-3.028800	3.709600	-11.234000	24.225630	0.001045	20.716840
734.194956	-3.002000	3.710600	-11.137000	24.221793	0.001046	20.716785
735.197488	-2.984400	3.711100	-11.075000	24.264883	0.001043	20.719704
736.195550	-3.000300	3.709600	-11.129000	24.277118	0.001043	20.730555
737.198001	-2.977500	3.710700	-11.048000	24.275823	0.001045	20.723091
738.196207	-3.002300	3.709000	-11.135000	24.306597	0.001044	20.727882
739.197586	-3.001700	3.708700	-11.131000	24.296370	0.001044	20.722839
740.197452	-3.014200	3.707400	-11.173000	24.306861	0.001043	20.726251
741.197482	-2.994400	3.708900	-11.105000	24.344847	0.001043	20.728320
742.198389	-3.013300	3.708200	-11.173000	24.334172	0.001043	20.736578
743.200385	-2.990300	3.708500	-11.088000	24.307549	0.001043	20.726467
744.198761	-2.992100	3.707400	-11.091000	24.300637	0.001042	20.728068
745.200197	-3.005700	3.707300	-11.141000	24.293393	0.001043	20.738346
746.200001	-2.999800	3.706500	-11.117000	24.306401	0.001040	20.744756
747.201846	-2.984800	3.707700	-11.066000	24.277119	0.001042	20.721072
748.201442	-3.003900	3.707400	-11.135000	24.315302	0.001042	20.739461
749.201094	-2.986300	3.706200	-11.067000	24.310625	0.001041	20.734768
750.203735	-3.005600	3.705500	-11.136000	24.292116	0.001040	20.732323
751.201460	-2.998000	3.705900	-11.110000	24.311797	0.001040	20.737367
752.202278	-3.006400	3.705100	-11.137000	24.335222	0.001043	20.742848
753.200024	-2.987300	3.704800	-11.065000	24.345621	0.001040	20.729097
754.202537	-3.005900	3.704600	-11.134000	24.340949	0.001041	20.740532
755.204758	-3.009200	3.704000	-11.144000	24.363631	0.001041	20.747165
756.203701	-3.003100	3.704500	-11.123000	24.345296	0.001041	20.732090
757.202796	-2.977900	3.704000	-11.027000	24.369745	0.001042	20.723425
758.204776	-2.994700	3.704200	-11.091000	24.352484	0.001039	20.745465
759.204870	-3.019500	3.702800	-11.180000	24.379493	0.001040	20.717557
760.204878	-2.983400	3.703700	-11.048000	24.369794	0.001039	20.739123
761.206590	-2.987500	3.703800	-11.065000	24.342405	0.001041	20.723499
762.204175	-2.985600	3.704000	-11.058000	24.307255	0.001038	20.750829
763.204807	-3.016900	3.701000	-11.163000	24.286273	0.001039	20.760128
764.204654	-3.005700	3.702100	-11.127000	24.295451	0.001037	20.748471
765.205029	-3.013400	3.702800	-11.157000	24.298514	0.001040	20.741112
766.207762	-3.033900	3.701500	-11.228000	24.295948	0.001038	20.732374
767.205397	-3.009500	3.701700	-11.139000	24.269772	0.001038	20.753059
768.209956	-2.986600	3.701200	-11.053000	24.287532	0.001039	20.747166
769.205866	-2.992800	3.701500	-11.076000	24.280073	0.001037	20.759125
770.205008	-2.994400	3.700800	-11.081000	24.303677	0.001038	20.742972
771.211314	-2.984800	3.700600	-11.044000	24.301314	0.001036	20.758620
772.205671	-2.993200	3.700600	-11.075000	24.284352	0.001038	20.754408
773.205261	-2.977500	3.699900	-11.015000	24.269195	0.001036	20.752955
774.205476	-2.989500	3.700300	-11.061000	24.283726	0.001035	20.761841
775.206099	-3.001200	3.698500	-11.099000	24.296262	0.001034	20.738853
776.205888	-2.992800	3.698400	-11.068000	24.272387	0.001035	20.771330
777.207767	-3.020800	3.699000	-11.173000	24.284027	0.001033	20.736537
778.206668	-2.981200	3.698700	-11.024000	24.282529	0.001033	20.750208
779.207575	-3.001300	3.698300	-11.099000	24.263001	0.001034	20.757647
780.207744	-2.997300	3.698300	-11.085000	24.222797	0.001034	20.759045
781.208259	-2.993300	3.697600	-11.067000	24.228445	0.001033	20.766133
782.207565	-2.993900	3.696800	-11.067000	24.230139	0.001035	20.749814
783.209102	-2.983600	3.699500	-11.037000	24.226283	0.001034	20.764913
784.211123	-2.990300	3.696800	-11.053000	24.238648	0.001033	20.764039
785.209730	-2.985900	3.696900	-11.037000	24.259766	0.001035	20.758195
786.210109	-3.002600	3.696900	-11.098000	24.247703	0.001032	20.755578
787.210168	-2.978300	3.696200	-11.008000	24.230163	0.001033	20.760270
788.210862	-3.008300	3.697300	-11.122000	24.254990	0.001033	20.761465
789.210103	-2.984200	3.696100	-11.029000	24.307680	0.001033	20.765954
790.211923	-2.998900	3.694700	-11.079000	24.314622	0.001030	20.744943
791.212379	-2.978700	3.694900	-11.005000	24.329729	0.001033	20.781435
792.212418	-2.983900	3.695400	-11.025000	24.381489	0.001031	20.782150
793.212437	-2.982200	3.695500	-11.020000	24.394502	0.001030	20.775290
794.211972	-2.984100	3.693800	-11.022000	24.384349	0.001030	20.757518
795.215151	-2.999100	3.693400	-11.076000	24.424971	0.001030	20.764132
796.211592	-2.961800	3.694500	-10.941000	24.406287	0.001030	20.766250
797.212115	-2.973200	3.693700	-10.981000	24.434719	0.001027	20.754470
798.218690	-2.998200	3.693800	-11.074000	24.427058	0.001032	20.765277
799.211239	-3.003300	3.692400	-11.087000	24.440986	0.001028	20.770715
800.212455	-3.011100	3.691500	-11.114000	24.440163	0.001029	20.774631
801.213216	-3.031500	3.691300	-11.189000	24.427599	0.001028	20.815606
802.211475	-2.999100	3.692800	-11.074000	24.443815	0.001028	20.783511
803.213914	-2.993100	3.691000	-11.047000	24.421154	0.001029	20.765518
804.216333	-3.000800	3.690400	-11.073000	24.430778	0.001028	20.781812
805.214335	-2.998100	3.691200	-11.065000	24.410136	0.001028	20.767741
806.214657	-2.981900	3.690600	-11.004000	24.442551	0.001028	20.787458
807.215208	-2.995800	3.690900	-11.056000	24.449585	0.001029	20.777920
808.216204	-2.994300	3.691000	-11.051000	24.470055	0.001029	20.774274
809.219886	-2.973600	3.691400	-10.975000	24.463843	0.001026	20.780845
810.215939	-3.003600	3.688700	-11.078000	24.471374	0.001026	20.787926
811.215311	-2.987400	3.690100	-11.022000	24.458098	0.001027	20.785512
812.217948	-2.988600	3.688100	-11.021000	24.460400	0.001026	20.797779
813.226257	-3.028700	3.688200	-11.169000	24.434609	0.001026	20.790870
814.216380	-2.999500	3.688300	-11.063000	24.405005	0.001026	20.792465
815.218307	-2.991100	3.688600	-11.032000	24.402071	0.001026	20.770555
816.217299	-3.014100	3.687700	-11.114000	24.426145	0.001026	20.788543
817.216539	-3.019400	3.686600	-11.130000	24.416987	0.001025	20.797373
818.217467	-3.005200	3.685600	-11.075000	24.443484	0.001024	20.785076
819.217658	-2.997200	3.687300	-11.050000	24.481692	0.001025	20.803020
820.218043	-3.012500	3.686500	-11.104000	24.464703	0.001025	20.794035
821.217453	-3.020800	3.687200	-11.137000	24.461223	0.001025	20.797656
822.220259	-3.006500	3.687900	-11.087000	24.502861	0.001025	20.806714
823.217215	-3.010200	3.686700	-11.096000	24.500965	0.001023	20.780156
824.217623	-3.018100	3.684900	-11.121000	24.510736	0.001023	20.777157
825.219886	-3.003900	3.685800	-11.071000	24.515167	0.001022	20.825225
826.217497	-2.993700	3.685000	-11.031000	24.471884	0.001023	20.805508
827.219670	-2.980700	3.684600	-10.981000	24.474125	0.001024	20.791160
828.217529	-3.012100	3.683500	-11.092000	24.466256	0.001022	20.799387
829.220246	-2.979100	3.684600	-10.976000	24.481951	0.001023	20.804701
830.219142	-3.014300	3.684300	-11.105000	24.503617	0.001022	20.814585
831.221068	-3.006800	3.684200	-11.076000	24.498344	0.001022	20.799812
832.221705	-2.993600	3.683600	-11.026000	24.495282	0.001022	20.814283
833.219041	-2.993100	3.684000	-11.024000	24.458738	0.001023	20.802275
834.221084	-3.003900	3.683800	-11.064000	24.453957	0.001019	20.817393
835.223090	-3.015100	3.682900	-11.103000	24.473580	0.001019	20.795355
836.227201	-2.983800	3.682700	-10.987000	24.475323	0.001021	20.809905
837.222705	-3.008000	3.682100	-11.075000	24.493404	0.001019	20.790588
838.224374	-3.011900	3.681600	-11.088000	24.535361	0.001019	20.808502
839.223009	-2.997800	3.683000	-11.040000	24.547519	0.001019	20.797941
840.224584	-2.985200	3.681700	-10.989000	24.578487	0.001020	20.791081
841.228697	-2.988600	3.682000	-11.003000	24.550127	0.001018	20.808145
842.226518	-3.030900	3.679700	-11.151000	24.568509	0.001018	20.811415
843.224023	-2.982000	3.681200	-10.976000	24.524332	0.001018	20.805497
844.225965	-2.970200	3.682200	-10.935000	24.508013	0.001017	20.802874
845.225478	-2.985000	3.680200	-10.984000	24.544770	0.001018	20.804666
846.229738	-2.993100	3.680200	-11.014000	24.564440	0.001019	20.819661
847.229009	-2.986000	3.680700	-10.989000	24.565312	0.001016	20.842820
848.227419	-3.013300	3.679900	-11.088000	24.563943	0.001017	20.816791
849.226017	-3.028500	3.679300	-11.142000	24.597465	0.001016	20.829563
850.228884	-2.985900	3.679500	-10.986000	24.623252	0.001016	20.817980
851.229074	-2.997600	3.678100	-11.024000	24.624081	0.001015	20.811225
852.231459	-3.005900	3.678500	-11.057000	24.635661	0.001016	20.834224
853.228283	-2.997100	3.677400	-11.020000	24.657220	0.001015	20.834994
854.228377	-3.008900	3.678300	-11.066000	24.658496	0.001015	20.822999
855.228114	-3.010400	3.677100	-11.068000	24.632900	0.001015	20.818651
856.227829	-3.001600	3.677200	-11.036000	24.653618	0.001015	20.843233
857.228167	-2.976700	3.678000	-10.947000	24.659957	0.001014	20.816404
858.227863	-3.021300	3.676100	-11.106000	24.639933	0.001013	20.833769
859.234823	-3.004300	3.676800	-11.045000	24.609463	0.001014	20.836860
860.228231	-2.986700	3.676800	-10.980000	24.622645	0.001016	20.838233
861.227853	-2.998300	3.676000	-11.021000	24.615981	0.001014	20.831546
862.231441	-3.019900	3.675100	-11.098000	24.586879	0.001013	20.814200
863.228248	-3.023600	3.675600	-11.113000	24.592077	0.001015	20.827002
864.228221	-3.006100	3.676700	-11.050000	24.599957	0.001014	20.841072
865.227737	-3.015700	3.675100	-11.082000	24.600976	0.001010	20.828819
866.228998	-3.019000	3.674500	-11.092000	24.611023	0.001012	20.863554
867.231487	-3.001900	3.674100	-11.029000	24.643904	0.001013	20.851977
868.230137	-3.010500	3.674900	-11.063000	24.634822	0.001011	20.849502
869.230259	-3.011900	3.674400	-11.066000	24.625715	0.001011	20.843210
870.229090	-3.007600	3.674900	-11.051000	24.616712	0.001011	20.839392
871.228320	-2.985200	3.673700	-10.965000	24.606310	0.001011	20.846498
872.233821	-3.004500	3.673200	-11.035000	24.638762	0.001011	20.831646
873.230956	-3.012600	3.672400	-11.063000	24.674128	0.001010	20.832046
874.231176	-3.009900	3.672200	-11.053000	24.663457	0.001011	20.826080
875.230961	-2.989800	3.672100	-10.978000	24.671711	0.001009	20.831991
876.230162	-3.004000	3.672100	-11.030000	24.664819	0.001009	20.840249
877.233811	-3.005900	3.672800	-11.039000	24.651490	0.001008	20.822607
878.233672	-3.013500	3.671400	-11.063000	24.622789	0.001007	20.842170
879.233009	-3.008200	3.671200	-11.043000	24.621021	0.001008	20.830914
880.234873	-3.018400	3.670500	-11.078000	24.617554	0.001009	20.837392
881.232644	-3.027200	3.670200	-11.109000	24.609128	0.001007	20.815662
882.232289	-2.996400	3.670500	-10.998000	24.612166	0.001006	20.835304
883.234914	-2.996600	3.671200	-11.000000	24.604525	0.001007	20.806302
884.232453	-2.986000	3.671200	-10.961000	24.582021	0.001006	20.827817
885.232539	-3.016600	3.668500	-11.065000	24.579977	0.001006	20.833353
886.232950	-3.027700	3.667600	-11.104000	24.585028	0.001006	20.822300
887.235629	-2.983300	3.670200	-10.949000	24.605667	0.001005	20.828784
888.235174	-2.990300	3.669300	-10.971000	24.627533	0.001005	20.821801
889.238687	-2.990200	3.668600	-10.969000	24.622206	0.001005	20.829732
890.236196	-2.999800	3.667900	-11.002000	24.637549	0.001004	20.827583
891.236416	-2.983000	3.669000	-10.944000	24.625091	0.001004	20.821721
892.234901	-2.998400	3.668200	-10.998000	24.642697	0.001004	20.803827
893.235927	-2.977800	3.669600	-10.926000	24.632700	0.001005	20.822719
894.236817	-2.985800	3.667600	-10.951000	24.656548	0.001005	20.803975
895.235644	-3.002700	3.666600	-11.007000	24.649018	0.001005	20.809695
896.235610	-2.991900	3.667000	-10.970000	24.682389	0.001004	20.821370
897.237187	-2.978500	3.667300	-10.922000	24.677265	0.001002	20.813858
898.236775	-3.008300	3.666100	-11.028000	24.687115	0.001002	20.791025
899.239347	-3.015600	3.665400	-11.052000	24.683684	0.001004	20.809393
900.240685	-3.000200	3.666200	-10.998000	24.690876	0.001001	20.807127
901.239337	-2.980400	3.665800	-10.925000	24.720515	0.001001	20.798937
902.238920	-3.004600	3.664200	-11.007000	24.710765	0.001001	20.815705
903.237703	-2.998800	3.666200	-10.993000	24.702560	0.001000	20.808420
904.245617	-3.006700	3.665200	-11.018000	24.702462	0.000999	20.795994
905.238369	-2.998400	3.664900	-10.988000	24.705199	0.001001	20.789257
906.239861	-2.989700	3.664100	-10.954000	24.691821	0.001001	20.826093
907.238238	-2.995200	3.664600	-10.975000	24.723528	0.000999	20.796745
908.238235	-3.000500	3.664000	-10.993000	24.745268	0.000998	20.792957
909.237998	-2.970400	3.665200	-10.886000	24.777152	0.000997	20.797927
910.238334	-3.005700	3.662900	-11.008000	24.795504	0.000997	20.806862
911.238656	-3.015400	3.662000	-11.042000	24.810863	0.000998	20.784817
912.240057	-2.998900	3.663000	-10.984000	24.808807	0.000997	20.774219
913.237619	-2.986900	3.662800	-10.940000	24.815569	0.000995	20.792859
914.238743	-3.044100	3.661300	-11.144000	24.785214	0.000995	20.778042
915.243787	-3.008900	3.661400	-11.016000	24.787404	0.000996	20.781189
916.238715	-3.022300	3.661600	-11.065000	24.773752	0.000996	20.781238
917.239015	-3.006100	3.661900	-11.007000	24.755404	0.000997	20.786060
918.239010	-3.010900	3.660500	-11.020000	24.748041	0.000994	20.811861
919.239149	-3.003800	3.659500	-10.991000	24.759043	0.000994	20.788763
920.237453	-3.011200	3.660800	-11.022000	24.778414	0.000995	20.790659
921.242355	-3.006800	3.661100	-11.007000	24.792588	0.000994	20.772641
922.238361	-3.010700	3.659900	-11.016000	24.764762	0.000993	20.785019
923.241525	-3.002600	3.659500	-10.986000	24.731521	0.000996	20.798128
924.239354	-3.030400	3.659500	-11.089000	24.691610	0.000993	20.784630
925.240203	-3.015900	3.659200	-11.035000	24.684946	0.000993	20.789322
926.243941	-3.029000	3.658300	-11.081000	24.683712	0.000992	20.771014
927.239478	-3.003400	3.659200	-10.989000	24.683509	0.000992	20.779820
928.240236	-3.018000	3.657600	-11.038000	24.662399	0.000991	20.782345
929.240061	-3.022700	3.657000	-11.053000	24.654022	0.000990	20.769671
930.242234	-2.986200	3.657900	-10.922000	24.660687	0.000993	20.787739
931.243267	-2.989000	3.658700	-10.935000	24.637434	0.000993	20.766777
932.244149	-2.989900	3.657500	-10.934000	24.650401	0.000991	20.781685
933.241274	-3.004900	3.657200	-10.988000	24.656274	0.000992	20.770982
934.243816	-3.022400	3.655800	-11.048000	24.671787	0.000990	20.769480
935.244267	-2.984800	3.656200	-10.911000	24.685540	0.000990	20.783754
936.244317	-2.980000	3.658500	-10.900000	24.692338	0.000990	20.771136
937.246737	-2.994600	3.656500	-10.949000	24.690154	0.000990	20.786488
938.245529	-2.976000	3.657200	-10.882000	24.685901	0.000988	20.760883
939.247074	-2.980900	3.656800	-10.899000	24.695302	0.000989	20.741392
940.246604	-2.985000	3.655200	-10.910000	24.670614	0.000989	20.770199
941.246603	-2.987100	3.656100	-10.921000	24.675389	0.000988	20.779258
942.249946	-3.000300	3.656700	-10.969000	24.648559	0.000987	20.754706
943.248289	-2.990100	3.654700	-10.926000	24.661863	0.000990	20.750038
944.248652	-2.992500	3.655200	-10.937000	24.658930	0.000988	20.754207
945.248446	-2.997800	3.655200	-10.957000	24.646147	0.000985	20.751811
946.249360	-2.997900	3.653400	-10.952000	24.604667	0.000987	20.746226
947.254173	-3.005800	3.653400	-10.980000	24.590264	0.000987	20.775396
948.250216	-3.019800	3.653900	-11.033000	24.579248	0.000983	20.756756
949.250049	-3.014600	3.652300	-11.008000	24.572963	0.000985	20.748553
950.250280	-2.992700	3.653400	-10.932000	24.587790	0.000985	20.771017
951.250016	-2.968600	3.654200	-10.846000	24.601237	0.000986	20.758905
952.252079	-2.986000	3.653800	-10.909000	24.595026	0.000987	20.763105
953.251225	-2.997900	3.652400	-10.948000	24.595468	0.000986	20.762600
954.250709	-3.023500	3.651600	-11.040000	24.614198	0.000985	20.768591
955.253345	-3.006000	3.652800	-10.979000	24.620592	0.000984	20.755567
956.253245	-2.990600	3.652000	-10.921000	24.642556	0.000984	20.760062
957.256370	-2.994000	3.651100	-10.930000	24.646257	0.000984	20.776104
958.257420	-3.017200	3.651400	-11.016000	24.659113	0.000984	20.757236
959.256988	-2.991100	3.650000	-10.916000	24.666600	0.000982	20.767594
960.254612	-3.004700	3.650600	-10.969000	24.670288	0.000983	20.742370
961.254081	-3.001900	3.650400	-10.957000	24.693337	0.000984	20.736576
962.256078	-2.991600	3.651000	-10.921000	24.711317	0.000981	20.762205
963.259094	-3.002400	3.648800	-10.954000	24.693159	0.000983	20.761528
964.254726	-2.995400	3.649700	-10.931000	24.681383	0.000981	20.762987
965.255700	-2.984100	3.650500	-10.891000	24.661807	0.000980	20.739550
966.257083	-3.003400	3.648100	-10.956000	24.644919	0.000979	20.759588
967.257195	-3.007400	3.647400	-10.968000	24.646514	0.000979	20.721832
968.258752	-2.988400	3.649400	-10.905000	24.635946	0.000978	20.752007
969.256267	-3.020800	3.648200	-11.020000	24.626618	0.000978	20.738854
970.261532	-2.994000	3.648100	-10.921000	24.672877	0.000979	20.758245
971.257270	-3.020800	3.645400	-11.010000	24.688790	0.000977	20.747660
972.256458	-2.995100	3.646400	-10.920000	24.687924	0.000978	20.744421
973.261232	-3.017000	3.646900	-11.002000	24.659051	0.000978	20.760019
974.259385	-3.010100	3.646200	-10.975000	24.677873	0.000977	20.753301
975.257508	-2.992400	3.645300	-10.907000	24.679143	0.000976	20.764059
976.258282	-2.982300	3.645100	-10.869000	24.666901	0.000976	20.745135
977.259528	-2.991500	3.646800	-10.908000	24.680511	0.000976	20.763535
978.260698	-3.008200	3.644600	-10.962000	24.695509	0.000975	20.765309
979.259933	-2.987400	3.645900	-10.890000	24.739593	0.000976	20.750277
980.259058	-2.993700	3.645500	-10.913000	24.756437	0.000976	20.743472
981.259746	-3.005000	3.644200	-10.950000	24.800456	0.000974	20.739284
982.261243	-3.002300	3.644100	-10.940000	24.807562	0.000974	20.745467
983.261059	-3.006200	3.644400	-10.955000	24.820275	0.000974	20.749692
984.270158	-2.998600	3.645000	-10.929000	24.848622	0.000973	20.748269
985.262055	-2.994200	3.643000	-10.907000	24.829448	0.000973	20.738034
986.263861	-2.992200	3.643000	-10.900000	24.797100	0.000973	20.738761
987.262957	-3.000400	3.642000	-10.926000	24.811673	0.000973	20.753386
988.262783	-3.010000	3.641900	-10.960000	24.804984	0.000972	20.736716
989.263421	-2.999900	3.642700	-10.927000	24.793203	0.000972	20.740066
990.264781	-2.984600	3.642000	-10.868000	24.808120	0.000973	20.730380
991.262631	-2.986900	3.642300	-10.879000	24.825913	0.000973	20.732115
992.264030	-3.008800	3.640900	-10.953000	24.830263	0.000969	20.742172
993.262887	-3.018500	3.641600	-10.990000	24.843743	0.000969	20.728199
994.262630	-3.008700	3.641600	-10.956000	24.868286	0.000969	20.739554
995.266673	-3.001700	3.640900	-10.929000	24.882569	0.000971	20.737768
996.264871	-2.989500	3.641300	-10.884000	24.872948	0.000970	20.751821
997.271118	-2.993600	3.639000	-10.893000	24.889514	0.000967	20.754222
998.264679	-3.008500	3.639900	-10.949000	24.868696	0.000969	20.735225
999.265689	-2.984700	3.640200	-10.864000	24.869868	0.000968	20.728340
1000.266815	-2.997800	3.640400	-10.913000	24.876979	0.000966	20.741167
1001.266020	-3.026500	3.637500	-11.008000	24.858014	0.000966	20.736357
1002.266038	-2.996200	3.638600	-10.901000	24.886764	0.000965	20.736289
1003.265913	-3.015300	3.638900	-10.971000	24.903379	0.000966	20.751069
1004.265213	-3.032400	3.637400	-11.028000	24.904747	0.000966	20.730156
1005.265842	-2.992500	3.638000	-10.886000	24.887813	0.000965	20.733549
1006.268056	-3.015600	3.637100	-10.967000	24.869941	0.000967	20.724619
1007.266985	-2.974400	3.638700	-10.822000	24.867953	0.000965	20.726417
1008.266697	-3.006600	3.637300	-10.935000	24.872554	0.000964	20.724872
1009.267326	-3.021300	3.635500	-10.983000	24.889341	0.000963	20.716589
1010.268050	-2.980300	3.636800	-10.837000	24.888249	0.000964	20.703163
1011.271362	-2.997900	3.637200	-10.903000	24.906452	0.000963	20.742773
1012.268137	-2.992200	3.636300	-10.880000	24.922011	0.000964	20.748433
1013.268502	-2.981400	3.635800	-10.838000	24.933975	0.000963	20.731516
1014.269490	-3.014300	3.634400	-10.953000	24.932085	0.000962	20.719661
1015.272059	-3.005000	3.633400	-10.918000	24.959490	0.000961	20.731522
1016.269117	-2.993200	3.635300	-10.880000	24.940318	0.000962	20.731245
1017.272099	-3.030400	3.634000	-11.011000	24.961852	0.000961	20.710658
1018.271973	-3.018900	3.633900	-10.968000	24.952153	0.000963	20.714199
1019.271426	-3.001000	3.635700	-10.909000	24.943276	0.000960	20.741326
1020.272322	-2.993900	3.633500	-10.877000	24.959515	0.000960	20.715899
1021.272056	-3.019500	3.633700	-10.971000	24.953822	0.000959	20.706390
1022.276761	-2.993600	3.633300	-10.876000	24.956558	0.000957	20.750865
1023.273750	-3.023300	3.632600	-10.981000	24.972944	0.000957	20.743130
1024.274259	-3.021700	3.632400	-10.975000	24.989797	0.000957	20.731596
1025.274437	-3.024000	3.630800	-10.978000	25.004821	0.000958	20.725339
1026.274234	-3.008500	3.631100	-10.923000	24.978662	0.000958	20.722790
1027.275944	-3.027900	3.630900	-10.993000	24.989300	0.000956	20.729200
1028.278163	-2.982800	3.632900	-10.835000	24.962006	0.000956	20.724563
1029.275236	-2.998500	3.630600	-10.885000	24.971558	0.000956	20.695742
1030.274891	-3.001800	3.631100	-10.898000	24.963104	0.000955	20.729933
1031.276049	-2.983800	3.631600	-10.835000	24.958478	0.000957	20.727186
1032.275296	-2.990200	3.631700	-10.858000	24.994085	0.000954	20.713613
1033.279435	-2.998400	3.630700	-10.885000	24.973128	0.000953	20.725296
1034.274991	-2.983700	3.629000	-10.827000	24.979901	0.000953	20.700798
1035.277428	-2.992300	3.630300	-10.861000	24.978379	0.000953	20.709703
1036.275817	-2.994500	3.630100	-10.868000	24.961177	0.000953	20.705712
1037.278835	-2.995300	3.628700	-10.867000	24.951477	0.000951	20.731066
1038.275575	-2.979800	3.630300	-10.817000	24.933600	0.000953	20.717388
1039.275591	-3.000600	3.628400	-10.886000	24.956054	0.000950	20.725702
1040.275653	-3.009800	3.627400	-10.916000	24.953698	0.000951	20.711482
1041.277232	-2.982700	3.627900	-10.820000	24.960164	0.000952	20.717973
1042.277431	-3.024100	3.628300	-10.971000	24.946937	0.000950	20.704221
1043.278365	-3.002100	3.628100	-10.891000	24.954299	0.000951	20.698808
1044.280978	-2.985000	3.628300	-10.829000	24.933292	0.000949	20.697164
1045.277855	-2.993200	3.628400	-10.859000	24.919396	0.000948	20.706925
1046.278603	-3.007300	3.627300	-10.908000	24.949710	0.000948	20.697995
1047.279042	-3.002500	3.627000	-10.889000	24.970814	0.000948	20.715386
1048.277971	-3.034500	3.625300	-10.999000	24.961102	0.000948	20.705163
1049.281921	-2.994300	3.627100	-10.859000	24.963464	0.000946	20.694731
1050.279008	-3.004300	3.625900	-10.892000	24.983777	0.000947	20.696153
1051.280332	-3.011700	3.624700	-10.914000	24.971869	0.000946	20.706961
1052.277870	-3.003600	3.624400	-10.885000	25.000292	0.000946	20.706093
1053.277118	-3.007800	3.625600	-10.904000	25.000464	0.000945	20.689668
1054.282986	-3.006800	3.625300	-10.900000	25.010886	0.000945	20.715780
1055.283594	-2.998800	3.624900	-10.868000	25.016432	0.000944	20.700008
1056.279104	-2.999400	3.625300	-10.872000	25.033983	0.000946	20.694866
1057.278528	-3.010900	3.622800	-10.907000	25.046590	0.000945	20.685234
1058.278812	-2.988500	3.623200	-10.826000	25.039155	0.000943	20.685832
1059.279302	-3.007800	3.623200	-10.896000	25.032198	0.000944	20.680745
1060.280467	-3.014500	3.623300	-10.921000	25.014328	0.000942	20.695525
1061.280115	-2.997100	3.622800	-10.856000	24.993439	0.000943	20.697317
1062.280038	-2.993700	3.623500	-10.847000	24.948985	0.000943	20.700113
1063.279540	-2.989800	3.622700	-10.830000	24.915475	0.000941	20.703937
1064.283308	-3.004700	3.623000	-10.885000	24.907591	0.000943	20.696972
1065.283017	-3.002700	3.621400	-10.873000	24.917585	0.000941	20.676181
1066.279038	-3.007300	3.622400	-10.893000	24.918462	0.000940	20.690813
1067.283170	-3.020100	3.619500	-10.930000	24.910775	0.000940	20.696849
1068.279509	-2.998600	3.622200	-10.860000	24.910401	0.000941	20.676082
1069.280088	-2.999400	3.620700	-10.859000	24.916100	0.000940	20.689865
1070.279531	-3.015700	3.619400	-10.913000	24.941359	0.000941	20.700519
1071.281783	-2.991800	3.620100	-10.829000	24.970844	0.000939	20.685542
1072.279769	-3.010400	3.618500	-10.892000	24.974973	0.000939	20.681151
1073.279263	-2.989800	3.619800	-10.822000	25.011223	0.000940	20.684821
1074.280362	-3.003900	3.619000	-10.870000	25.050872	0.000940	20.704233
1075.280958	-3.012200	3.618400	-10.898000	25.068747	0.000938	20.687562
1076.281757	-3.001000	3.617000	-10.853000	25.060490	0.000937	20.668366
1077.280896	-3.001900	3.618200	-10.861000	25.078298	0.000938	20.687192
1078.283211	-3.014900	3.617600	-10.905000	25.041375	0.000937	20.666722
1079.282266	-3.000800	3.618100	-10.855000	24.976905	0.000937	20.694946
1080.281466	-3.010000	3.616800	-10.885000	24.975985	0.000935	20.677899
1081.282867	-3.019200	3.615500	-10.914000	24.966961	0.000936	20.675005
1082.287241	-2.971600	3.617400	-10.747000	24.998310	0.000935	20.665219
1083.283819	-2.973500	3.617900	-10.757000	25.002144	0.000934	20.667645
1084.284012	-3.004100	3.615700	-10.861000	25.006936	0.000934	20.684785
1085.284037	-2.999000	3.616600	-10.845000	25.012978	0.000934	20.682315
1086.283345	-2.986400	3.615600	-10.797000	25.001193	0.000932	20.671433
1087.286641	-3.020400	3.614100	-10.915000	25.002359	0.000934	20.689200
1088.284398	-3.000700	3.614600	-10.845000	25.009641	0.000933	20.679913
1089.287606	-3.012800	3.613600	-10.886000	24.991942	0.000932	20.680640
1090.284103	-2.999400	3.614300	-10.839000	24.973421	0.000930	20.659676
1091.283943	-3.005700	3.612900	-10.856000	24.965832	0.000930	20.677191
1092.288209	-3.015600	3.613800	-10.896000	24.944973	0.000929	20.673324
1093.284815	-3.006700	3.614300	-10.865000	24.944249	0.000929	20.687772
1094.286123	-2.995400	3.614300	-10.826000	24.939875	0.000930	20.667258
1095.284010	-3.011600	3.613200	-10.879000	24.920525	0.000930	20.669647
1096.286610	-3.025400	3.611800	-10.926000	24.930795	0.000928	20.668576
1097.286300	-2.996300	3.613300	-10.825000	24.949090	0.000930	20.652324
1098.291880	-3.002800	3.612900	-10.848000	24.966194	0.000928	20.678978
1099.289872	-2.996000	3.611900	-10.821000	25.012684	0.000927	20.684865
1100.288984	-2.996500	3.611200	-10.820000	25.032371	0.000926	20.657682
1101.289209	-3.005600	3.610500	-10.851000	25.017991	0.000926	20.664586
1102.290278	-3.010500	3.611300	-10.870000	24.996434	0.000926	20.666181
1103.293873	-2.979400	3.611000	-10.758000	24.977459	0.000928	20.692182
1104.290395	-3.024000	3.608800	-10.911000	24.947753	0.000928	20.685599
1105.295124	-3.006400	3.609900	-10.851000	24.936532	0.000926	20.657738
1106.290117	-2.991500	3.610000	-10.798000	24.919397	0.000925	20.678948
1107.289830	-2.996800	3.608600	-10.813000	24.879787	0.000926	20.653889
1108.292247	-3.026300	3.608300	-10.918000	24.858374	0.000925	20.673178
1109.296940	-2.992600	3.609100	-10.799000	24.880376	0.000922	20.648790
1110.289757	-2.967900	3.610400	-10.714000	24.874977	0.000923	20.658071
1111.291102	-3.013000	3.607600	-10.868000	24.865124	0.000921	20.662407
1112.290857	-3.010300	3.606600	-10.856000	24.870916	0.000923	20.663953
1113.295602	-3.005800	3.607000	-10.841000	24.866934	0.000923	20.673708
1114.292670	-3.018200	3.607200	-10.886000	24.902795	0.000922	20.671294
1115.294140	-3.006900	3.607700	-10.847000	24.877997	0.000922	20.649246
1116.293809	-3.018200	3.605900	-10.882000	24.905103	0.000921	20.653218
1117.294043	-3.017900	3.605000	-10.877000	24.911263	0.000918	20.671731
1118.293839	-3.019400	3.604800	-10.883000	24.956780	0.000919	20.666207
1119.296479	-3.018300	3.605700	-10.881000	24.982939	0.000918	20.664963
1120.294429	-3.003600	3.604700	-10.826000	24.984129	0.000919	20.666632
1121.295623	-3.017500	3.605200	-10.877000	25.033035	0.000917	20.672575
1122.293834	-3.000800	3.604500	-10.816000	25.056353	0.000917	20.644295
1123.293281	-3.006100	3.604000	-10.832000	25.075001	0.000917	20.644049
1124.293577	-2.984300	3.604400	-10.756000	25.092300	0.000915	20.649087
1125.299437	-2.982300	3.604400	-10.748000	25.105599	0.000916	20.662438
1126.295110	-3.015200	3.603600	-10.864000	25.121934	0.000916	20.684529
1127.296959	-2.976000	3.603600	-10.724000	25.129038	0.000915	20.645663
1128.296794	-3.007300	3.602500	-10.833000	25.118229	0.000913	20.682706
1129.298846	-2.996200	3.602500	-10.793000	25.106323	0.000914	20.669804
1130.302033	-2.985900	3.602600	-10.755000	25.140704	0.000912	20.660695
1131.298727	-3.003200	3.601500	-10.815000	25.110372	0.000913	20.678137
1132.301073	-3.004800	3.602900	-10.825000	25.077928	0.000913	20.664532
1133.299369	-2.994400	3.602700	-10.787000	25.072983	0.000912	20.682805
1134.299242	-2.984700	3.602200	-10.749000	25.101397	0.000912	20.656323
1135.298088	-2.992800	3.602300	-10.780000	25.100827	0.000912	20.658121
1136.299259	-2.994900	3.600000	-10.781000	25.081412	0.000913	20.671350
1137.298915	-2.996400	3.600400	-10.787000	25.050034	0.000911	20.653127
1138.299893	-2.994100	3.601400	-10.782000	25.056230	0.000911	20.658873
1139.301129	-3.039900	3.599300	-10.941000	25.069358	0.000911	20.679165
1140.299580	-2.983200	3.600100	-10.739000	25.042605	0.000910	20.672224
1141.302120	-2.989300	3.600600	-10.762000	25.006687	0.000909	20.665092
1142.299493	-3.013000	3.598700	-10.841000	25.004000	0.000910	20.661447
1143.298973	-3.011700	3.598700	-10.837000	24.991718	0.000908	20.677095
1144.301062	-2.990800	3.599100	-10.762000	24.981804	0.000909	20.661927
1145.299975	-2.993500	3.599000	-10.773000	24.969841	0.000907	20.666989
1146.303778	-2.993200	3.598400	-10.770000	24.989313	0.000908	20.666620
1147.300658	-3.002100	3.598200	-10.800000	24.976454	0.000905	20.658928
1148.305130	-2.990500	3.598000	-10.758000	24.990779	0.000906	20.662875
1149.302279	-3.020300	3.595000	-10.857000	25.009821	0.000904	20.663023
1150.302606	-2.981000	3.596100	-10.719000	25.041323	0.000905	20.662875
1151.301887	-3.001900	3.596200	-10.795000	25.047488	0.000905	20.663848
1152.307139	-2.997700	3.595900	-10.778000	25.023876	0.000904	20.652947
1153.304245	-3.006900	3.594600	-10.808000	25.042298	0.000904	20.659112
1154.303956	-3.012000	3.595500	-10.828000	25.080282	0.000904	20.674010
1155.304651	-3.022000	3.593600	-10.859000	25.044635	0.000901	20.657191
1156.304313	-3.024200	3.593100	-10.864000	25.060131	0.000903	20.652830
1157.307757	-3.005300	3.593400	-10.798000	25.089711	0.000901	20.684898
1158.305520	-3.031400	3.592000	-10.887000	25.097716	0.000901	20.661163
1159.310774	-3.021800	3.592400	-10.855000	25.107665	0.000901	20.659296
1160.306021	-2.978200	3.592900	-10.698000	25.123381	0.000901	20.644251
1161.305532	-2.997500	3.592700	-10.769000	25.137704	0.000899	20.649621
1162.308951	-2.993800	3.593400	-10.756000	25.135814	0.000898	20.650095
1163.305549	-2.983300	3.592700	-10.717000	25.135367	0.000898	20.641110
1164.306805	-3.003200	3.591600	-10.785000	25.127196	0.000897	20.668472
1165.306377	-2.997800	3.591600	-10.766000	25.093758	0.000898	20.667148
1166.308430	-2.991500	3.591200	-10.742000	25.049806	0.000898	20.662856
1167.307706	-2.991800	3.591000	-10.743000	25.038947	0.000896	20.663810
1168.309973	-2.997600	3.590700	-10.763000	25.020672	0.000896	20.653525
1169.308743	-2.997600	3.589600	-10.758000	25.040886	0.000895	20.671447
1170.309920	-2.997100	3.590300	-10.759000	25.037217	0.000893	20.664444
1171.309438	-2.981300	3.590300	-10.703000	25.078980	0.000893	20.646621
1172.310388	-3.017000	3.588800	-10.826000	25.094966	0.000896	20.688751
1173.315111	-3.005300	3.590000	-10.787000	25.126594	0.000893	20.665497
1174.312362	-3.009700	3.588500	-10.799000	25.125103	0.000893	20.676804
1175.312616	-2.996000	3.589100	-10.752000	25.118638	0.000892	20.666045
1176.312106	-3.015900	3.588300	-10.821000	25.138334	0.000893	20.658316
1177.313216	-2.993800	3.587300	-10.739000	25.140279	0.000891	20.650309
1178.317762	-2.985300	3.589200	-10.714000	25.159821	0.000891	20.669456
1179.316886	-2.990100	3.587500	-10.726000	25.163968	0.000893	20.675042
1180.314959	-2.999500	3.587200	-10.759000	25.176242	0.000890	20.667449
1181.318235	-2.972700	3.586500	-10.661000	25.157036	0.000889	20.659073
1182.315827	-3.001800	3.585600	-10.762000	25.136653	0.000891	20.670854
1183.315303	-2.986700	3.587500	-10.713000	25.109338	0.000888	20.663821
1184.318419	-2.977700	3.586500	-10.679000	25.097879	0.000886	20.659904
1185.315205	-2.994100	3.585200	-10.732000	25.118361	0.000887	20.658654
1186.316361	-2.981400	3.585300	-10.688000	25.142358	0.000887	20.675159
1187.315724	-3.008700	3.586000	-10.788000	25.128519	0.000887	20.677862
1188.317179	-3.005300	3.585700	-10.773000	25.113718	0.000885	20.687660
1189.318729	-3.005300	3.583700	-10.769000	25.102314	0.000885	20.674315
1190.318467	-2.995800	3.585900	-10.740000	25.108381	0.000884	20.693209
1191.317123	-3.008700	3.584900	-10.785000	25.103688	0.000885	20.672849
1192.316828	-3.014000	3.583800	-10.800000	25.087211	0.000883	20.669585
1193.318499	-3.013200	3.582500	-10.793000	25.087058	0.000883	20.668483
1194.319605	-2.986100	3.583100	-10.698000	25.108018	0.000883	20.699958
1195.320866	-2.979600	3.583400	-10.677000	25.119109	0.000882	20.694970
1196.318171	-3.009100	3.581700	-10.776000	25.137309	0.000883	20.678151
1197.320485	-2.980500	3.581200	-10.673000	25.183497	0.000883	20.671888
1198.319468	-2.991700	3.582400	-10.716000	25.204805	0.000883	20.670995
1199.319548	-2.990500	3.581600	-10.708000	25.200702	0.000883	20.696749
1200.323252	-2.993200	3.582200	-10.720000	25.232345	0.000881	20.675885
1201.320189	-3.019800	3.579800	-10.809000	25.256013	0.000881	20.679734
1202.323543	-2.990500	3.581100	-10.708000	25.222905	0.000882	20.668778
1203.320949	-3.002000	3.581100	-10.750000	25.212539	0.000878	20.681132
1204.320747	-2.997300	3.579700	-10.729000	25.194653	0.000877	20.669812
1205.321459	-2.999700	3.580000	-10.738000	25.198254	0.000877	20.684334
1206.327288	-2.999600	3.578000	-10.731000	25.223806	0.000878	20.674425
1207.324240	-2.977700	3.579200	-10.657000	25.241183	0.000879	20.707994
1208.323273	-2.993000	3.578700	-10.710000	25.239097	0.000878	20.668913
1209.323343	-2.991700	3.577800	-10.702000	25.245617	0.000875	20.688737
1210.323529	-2.989900	3.578400	-10.698000	25.237840	0.000876	20.713647
1211.325405	-3.002800	3.577100	-10.740000	25.259264	0.000875	20.672090
1212.324302	-2.984300	3.579200	-10.681000	25.261551	0.000875	20.680552
1213.329437	-3.014900	3.577400	-10.784000	25.244703	0.000875	20.676438
1214.324095	-2.996800	3.577000	-10.719000	25.277614	0.000875	20.696681
1215.323503	-3.024000	3.576200	-10.814000	25.241992	0.000877	20.697900
1216.325305	-2.977300	3.575700	-10.645000	25.220022	0.000874	20.693386
1217.326625	-3.000400	3.575100	-10.725000	25.176779	0.000875	20.698337
1218.326103	-3.005200	3.575100	-10.743000	25.168879	0.000873	20.683292
1219.327894	-2.958100	3.575600	-10.576000	25.133946	0.000873	20.695640
1220.325278	-2.990000	3.575900	-10.690000	25.141086	0.000870	20.673408
1221.325284	-2.992200	3.575700	-10.698000	25.156445	0.000870	20.676500
1222.328100	-3.014600	3.572700	-10.770000	25.209024	0.000872	20.678550
1223.325975	-3.001900	3.574500	-10.727000	25.229026	0.000870	20.683933
1224.325902	-2.994000	3.573800	-10.699000	25.257092	0.000871	20.703104
1225.326279	-3.011200	3.573700	-10.760000	25.286777	0.000869	20.706355
1226.327190	-2.997400	3.574100	-10.711000	25.292867	0.000868	20.698719
1227.331296	-2.991400	3.572200	-10.685000	25.316731	0.000866	20.690910
1228.328992	-3.003200	3.571800	-10.725000	25.326102	0.000868	20.708856
1229.330902	-2.983400	3.572500	-10.657000	25.329825	0.000868	20.699316
1230.328591	-3.008000	3.571400	-10.742000	25.302717	0.000869	20.706238
1231.328961	-2.996900	3.572200	-10.704000	25.325936	0.000866	20.695412
1232.331243	-3.013400	3.571600	-10.763000	25.294885	0.000866	20.686045
1233.331518	-3.011300	3.571400	-10.753000	25.262569	0.000865	20.688213
1234.331085	-3.008700	3.571000	-10.741000	25.277914	0.000864	20.695560
1235.330065	-3.004300	3.571400	-10.728000	25.284378	0.000865	20.707267
1236.330776	-3.002000	3.569400	-10.715000	25.292382	0.000864	20.701077
1237.329880	-2.995800	3.570200	-10.694000	25.349192	0.000863	20.686993
1238.332956	-3.014600	3.568800	-10.757000	25.345690	0.000863	20.670673
1239.330113	-2.993700	3.569200	-10.684000	25.380266	0.000863	20.703023
1240.331494	-3.007500	3.568800	-10.733000	25.372018	0.000864	20.683360
1241.331408	-3.012300	3.568600	-10.749000	25.364438	0.000861	20.690448
1242.331179	-3.009000	3.569400	-10.740000	25.404226	0.000862	20.677294
1243.332526	-3.004800	3.567800	-10.719000	25.406232	0.000861	20.695904
1244.333817	-3.003700	3.568200	-10.716000	25.416994	0.000863	20.712403
1245.334827	-2.993400	3.567500	-10.678000	25.392366	0.000860	20.712803
1246.333481	-3.018500	3.567100	-10.766000	25.394856	0.000860	20.713406
1247.331905	-3.000000	3.567200	-10.700000	25.393905	0.000858	20.705339
1248.332648	-3.014400	3.565500	-10.746000	25.326874	0.000859	20.706786
1249.335488	-2.997900	3.566600	-10.692000	25.289242	0.000856	20.729695
1250.333737	-2.993400	3.566400	-10.674000	25.275277	0.000858	20.690541
1251.334989	-3.006900	3.566300	-10.722000	25.267126	0.000857	20.715075
1252.334259	-3.001800	3.564700	-10.699000	25.252657	0.000857	20.714774
1253.334238	-2.995900	3.564800	-10.679000	25.221364	0.000856	20.720815
1254.336027	-3.012000	3.563100	-10.731000	25.241820	0.000856	20.711005
1255.333149	-2.975500	3.564600	-10.605000	25.226161	0.000855	20.724682
1256.337432	-3.011400	3.563000	-10.728000	25.250842	0.000853	20.721486
1257.334148	-2.986300	3.564100	-10.642000	25.234785	0.000855	20.727176
1258.335857	-3.019100	3.562700	-10.755000	25.239385	0.000853	20.718518
1259.340194	-2.999600	3.563000	-10.686000	25.223548	0.000852	20.723956
1260.341105	-2.989800	3.563200	-10.652000	25.205356	0.000851	20.705216
1261.335872	-2.978600	3.564400	-10.615000	25.196953	0.000854	20.728550
1262.342700	-3.006800	3.561600	-10.708000	25.223977	0.000850	20.729128
1263.336482	-2.989500	3.562000	-10.647000	25.254773	0.000851	20.712630
1264.336849	-3.010100	3.560700	-10.715000	25.257631	0.000849	20.722139
1265.339788	-2.983900	3.560800	-10.624000	25.269665	0.000850	20.721892
1266.336378	-2.999500	3.559900	-10.677000	25.287678	0.000851	20.730021
1267.340351	-3.015600	3.559900	-10.734000	25.296111	0.000851	20.724263
1268.336849	-2.987200	3.561200	-10.637000	25.228804	0.000849	20.709317
1269.336967	-3.028700	3.559400	-10.779000	25.225921	0.000848	20.730606
1270.337790	-2.966400	3.560800	-10.561000	25.221493	0.000846	20.732324
1271.338479	-2.975200	3.560200	-10.590000	25.225198	0.000848	20.740311
1272.340325	-3.015100	3.557900	-10.726000	25.260146	0.000847	20.730828
1273.338933	-3.000900	3.558900	-10.678000	25.287985	0.000845	20.727010
1274.339416	-2.988700	3.559400	-10.637000	25.293946	0.000847	20.730151
1275.338775	-2.998600	3.558200	-10.669000	25.304237	0.000846	20.731000
1276.341745	-3.004300	3.557700	-10.687000	25.277718	0.000843	20.735668
1277.339241	-2.993100	3.557300	-10.646000	25.261115	0.000844	20.741759
1278.338091	-2.974000	3.558300	-10.582000	25.245708	0.000844	20.736721
1279.339059	-3.002100	3.556500	-10.675000	25.220279	0.000843	20.735373
1280.340050	-3.009700	3.556200	-10.701000	25.187476	0.000842	20.743218
1281.342337	-2.997300	3.555800	-10.655000	25.173650	0.000842	20.725544
1282.338856	-2.991300	3.555700	-10.635000	25.183465	0.000841	20.739665
1283.342601	-2.976400	3.557000	-10.586000	25.211409	0.000843	20.748754
1284.343990	-2.993700	3.554800	-10.640000	25.246585	0.000839	20.740921
1285.341801	-3.007300	3.555500	-10.691000	25.281582	0.000841	20.738599
1286.342270	-3.009200	3.553300	-10.690000	25.310591	0.000839	20.742596
1287.343361	-3.004900	3.553900	-10.678000	25.306390	0.000838	20.759241
1288.347868	-3.010300	3.555900	-10.703000	25.307880	0.000836	20.748883
1289.342659	-3.014000	3.553500	-10.709000	25.319312	0.000838	20.767000
1290.342489	-2.982300	3.554200	-10.598000	25.287844	0.000836	20.748206
1291.343708	-2.969800	3.554900	-10.556000	25.280337	0.000836	20.740194
1292.343721	-2.985000	3.553500	-10.606000	25.261422	0.000837	20.755343
1293.344006	-3.006800	3.551700	-10.678000	25.260133	0.000835	20.737928
1294.346633	-2.987700	3.552000	-10.612000	25.263010	0.000836	20.743187
1295.344910	-2.993300	3.552400	-10.632000	25.266267	0.000833	20.767321
1296.342634	-3.006500	3.550700	-10.675000	25.269150	0.000833	20.754093
1297.346096	-3.013700	3.548900	-10.694000	25.261648	0.000833	20.750829
1298.347527	-2.988600	3.549800	-10.607000	25.249345	0.000835	20.765504
1299.344171	-3.022000	3.549100	-10.724000	25.236367	0.000833	20.752474
1300.343765	-3.038400	3.548200	-10.780000	25.255454	0.000832	20.746981
1301.343992	-3.007700	3.549500	-10.675000	25.268781	0.000832	20.749930
1302.343295	-3.005600	3.548100	-10.663000	25.275467	0.000830	20.760436
1303.344127	-3.013800	3.549900	-10.697000	25.236643	0.000830	20.757967
1304.345741	-2.995500	3.548500	-10.628000	25.266071	0.000828	20.751950
1305.346089	-3.001600	3.547900	-10.648000	25.305470	0.000830	20.747412
1306.345119	-2.988500	3.548500	-10.603000	25.303802	0.000830	20.750004
1307.346250	-3.012600	3.548400	-10.689000	25.321545	0.000829	20.740792
1308.351054	-3.001000	3.547400	-10.645000	25.335190	0.000828	20.750700
1309.346432	-2.992300	3.547900	-10.616000	25.365241	0.000828	20.790357
1310.348855	-3.000200	3.545800	-10.637000	25.357514	0.000828	20.773115
1311.345889	-2.979600	3.546900	-10.568000	25.372153	0.000826	20.773115
1312.346420	-2.995800	3.546900	-10.624000	25.381523	0.000825	20.751230
1313.346517	-3.007900	3.544400	-10.660000	25.373545	0.000825	20.758866
1314.349445	-2.991200	3.546300	-10.606000	25.397922	0.000824	20.790456
1315.345173	-3.007700	3.545400	-10.662000	25.423102	0.000826	20.754099
1316.345789	-2.999000	3.546100	-10.634000	25.403637	0.000824	20.768220
1317.346694	-3.006800	3.545100	-10.659000	25.418723	0.000823	20.777204
1318.346608	-3.007900	3.544600	-10.660000	25.424285	0.000823	20.767616
1319.350457	-3.018500	3.544500	-10.698000	25.426922	0.000822	20.771687
1320.348457	-2.989800	3.545000	-10.598000	25.456296	0.000820	20.767992
1321.352654	-2.992200	3.543700	-10.601000	25.458583	0.000822	20.769341
1322.349585	-3.019800	3.543700	-10.700000	25.460546	0.000820	20.778424
1323.348269	-3.007300	3.543300	-10.655000	25.447870	0.000819	20.799360
1324.349591	-2.999700	3.541500	-10.622000	25.448343	0.000821	20.774704
1325.349156	-2.994300	3.542800	-10.606000	25.455971	0.000820	20.774778
1326.349147	-2.983700	3.542900	-10.570000	25.411659	0.000819	20.766317
1327.350246	-3.003900	3.541200	-10.637000	25.365554	0.000819	20.799206
1328.350048	-3.006000	3.542500	-10.647000	25.355889	0.000818	20.783338
1329.350259	-2.995800	3.540700	-10.607000	25.361427	0.000817	20.778941
1330.351642	-2.989900	3.540700	-10.585000	25.374796	0.000818	20.773873
1331.350737	-2.992400	3.539500	-10.589000	25.385013	0.000815	20.795986
1332.351581	-2.994300	3.539500	-10.597000	25.414940	0.000816	20.790949
1333.351943	-3.002000	3.539300	-10.623000	25.451170	0.000816	20.786078
1334.352535	-2.996700	3.538600	-10.602000	25.477194	0.000816	20.785659
1335.357245	-2.992000	3.539200	-10.588000	25.481910	0.000814	20.778066
1336.352894	-2.990500	3.538300	-10.580000	25.482112	0.000814	20.777321
1337.353143	-3.008700	3.537400	-10.641000	25.479457	0.000813	20.803104
1338.352102	-3.009600	3.538700	-10.648000	25.499509	0.000813	20.803326
1339.353345	-3.025500	3.536200	-10.698000	25.525085	0.000810	20.796768
1340.353138	-2.995200	3.537000	-10.593000	25.482787	0.000812	20.800284
1341.358064	-3.003100	3.538200	-10.625000	25.505205	0.000811	20.770166
1342.354737	-2.977400	3.537300	-10.531000	25.545387	0.000810	20.801509
1343.354321	-3.011100	3.535600	-10.643000	25.513680	0.000810	20.795271
1344.354342	-3.008100	3.535600	-10.634000	25.481076	0.000811	20.804730
1345.353319	-3.016500	3.535400	-10.664000	25.498822	0.000809	20.783196
1346.356694	-3.002900	3.536700	-10.620000	25.417730	0.000810	20.802759
1347.355018	-3.022500	3.534100	-10.681000	25.406250	0.000808	20.791706
1348.358412	-3.004300	3.535400	-10.621000	25.398639	0.000808	20.804453
1349.355433	-2.976500	3.535900	-10.523000	25.387141	0.000808	20.796226
1350.355906	-3.006100	3.533700	-10.622000	25.404661	0.000807	20.818086
1351.356658	-3.016600	3.533800	-10.659000	25.374587	0.000807	20.804958
1352.359725	-2.995800	3.532200	-10.581000	25.346401	0.000806	20.812692
1353.356221	-2.996000	3.533600	-10.585000	25.362113	0.000805	20.815192
1354.356742	-3.018400	3.530500	-10.656000	25.356790	0.000806	20.804631
1355.357752	-3.018000	3.532400	-10.660000	25.381744	0.000805	20.815937
1356.356977	-3.015700	3.531600	-10.649000	25.407593	0.000804	20.827667
1357.360198	-3.009400	3.532200	-10.629000	25.445988	0.000805	20.812643
1358.358153	-3.030000	3.530800	-10.696000	25.478991	0.000802	20.811645
1359.363669	-2.998900	3.530000	-10.585000	25.474245	0.000804	20.804034
1360.358122	-2.981100	3.531700	-10.527000	25.434109	0.000803	20.826793
1361.358218	-3.019400	3.530500	-10.658000	25.452322	0.000802	20.824219
1362.359975	-3.029900	3.530600	-10.696000	25.489875	0.000802	20.811670
1363.358925	-2.984100	3.532600	-10.540000	25.491641	0.000800	20.808227
1364.360439	-2.993500	3.529900	-10.565000	25.524140	0.000802	20.820475
1365.358808	-2.981400	3.530200	-10.524000	25.554033	0.000800	20.816830
1366.358192	-3.014100	3.528200	-10.633000	25.579282	0.000800	20.827015
1367.358370	-3.041300	3.527700	-10.727000	25.580993	0.000797	20.822095
1368.359368	-2.983300	3.529800	-10.529000	25.551966	0.000799	20.841307
1369.359114	-3.001100	3.527400	-10.584000	25.506591	0.000799	20.820869
1370.359245	-3.007300	3.528300	-10.610000	25.486834	0.000798	20.832323
1371.360759	-3.000300	3.526600	-10.580000	25.450599	0.000797	20.801626
1372.361284	-2.995500	3.527900	-10.567000	25.389465	0.000792	20.830802
1373.363493	-2.994700	3.527000	-10.561000	25.368210	0.000795	20.837908
1374.361429	-3.015500	3.526200	-10.631000	25.360679	0.000795	20.819915
1375.361703	-3.012900	3.525800	-10.622000	25.394457	0.000796	20.821590
1376.361889	-2.964000	3.526800	-10.453000	25.396064	0.000796	20.815143
1377.361834	-2.998000	3.527200	-10.574000	25.408814	0.000796	20.810401
1378.362401	-2.985700	3.526300	-10.527000	25.409163	0.000794	20.804589
1379.361128	-3.012200	3.523300	-10.611000	25.440573	0.000793	20.813844
1380.362627	-2.998200	3.524400	-10.566000	25.461778	0.000792	20.848887
1381.360731	-2.983500	3.524300	-10.514000	25.501986	0.000793	20.829521
1382.360613	-3.010800	3.523900	-10.609000	25.524374	0.000794	20.812175
1383.362115	-2.995300	3.523200	-10.553000	25.504402	0.000792	20.818197
1384.363992	-3.003600	3.523600	-10.581000	25.470032	0.000790	20.803597
1385.361416	-3.008200	3.522800	-10.595000	25.478053	0.000789	20.826824
1386.363986	-2.993300	3.522500	-10.542000	25.458823	0.000790	20.825531
1387.362494	-3.011800	3.523000	-10.609000	25.471277	0.000790	20.831399
1388.361549	-3.007700	3.521100	-10.590000	25.428081	0.000789	20.813154
1389.362799	-2.983600	3.522000	-10.507000	25.444528	0.000789	20.809755
1390.361610	-2.985900	3.521000	-10.512000	25.469088	0.000788	20.801226
1391.361369	-2.994500	3.520800	-10.542000	25.521896	0.000785	20.804471
1392.361536	-2.998600	3.520600	-10.556000	25.498761	0.000785	20.825808
1393.362542	-2.993300	3.519600	-10.535000	25.497970	0.000787	20.805574
1394.362252	-2.970000	3.520700	-10.456000	25.490942	0.000784	20.796146
1395.365166	-2.969200	3.520500	-10.452000	25.466021	0.000785	20.803363
1396.362113	-2.994700	3.519100	-10.537000	25.487864	0.000786	20.787839
1397.361854	-2.989300	3.518400	-10.517000	25.475367	0.000785	20.804212
1398.361886	-2.992800	3.517500	-10.526000	25.476483	0.000784	20.796799
1399.362325	-2.982600	3.518700	-10.493000	25.442523	0.000782	20.792094
1400.365408	-2.985800	3.517800	-10.502000	25.417846	0.000782	20.816152
1401.361328	-3.006900	3.516100	-10.571000	25.383001	0.000783	20.797759
1402.362814	-2.992300	3.515300	-10.518000	25.375673	0.000783	20.800832
1403.362008	-3.017700	3.516500	-10.611000	25.389594	0.000783	20.805801
1404.361760	-2.983900	3.518100	-10.497000	25.387453	0.000782	20.801281
1405.363873	-2.982300	3.516500	-10.486000	25.405612	0.000781	20.789168
1406.366689	-2.989400	3.515400	-10.507000	25.401859	0.000779	20.783503
1407.363660	-2.980500	3.515000	-10.475000	25.418036	0.000782	20.801170
1408.364486	-3.008900	3.513500	-10.570000	25.439015	0.000779	20.787149
1409.362694	-2.996000	3.515400	-10.532000	25.456161	0.000779	20.799150
1410.362378	-3.007300	3.513500	-10.565000	25.467327	0.000778	20.778121
1411.365795	-2.993300	3.513900	-10.517000	25.461318	0.000777	20.782518
1412.363443	-3.004400	3.512700	-10.553000	25.429810	0.000778	20.779328
1413.364357	-3.008300	3.512400	-10.566000	25.400190	0.000775	20.786095
1414.363414	-3.005900	3.513200	-10.559000	25.376463	0.000777	20.778866
1415.363379	-3.005800	3.511900	-10.555000	25.338262	0.000776	20.786976
1416.366069	-3.018300	3.512100	-10.600000	25.337919	0.000775	20.775725
1417.363014	-2.999100	3.512200	-10.533000	25.313816	0.000776	20.761956
1418.366879	-2.983700	3.512000	-10.478000	25.350399	0.000775	20.781619
1419.365526	-2.977000	3.512500	-10.455000	25.355771	0.000774	20.760934
1420.365461	-2.980800	3.511700	-10.467000	25.346486	0.000773	20.771051
1421.365296	-2.974400	3.511500	-10.443000	25.384662	0.000773	20.772400
1422.366117	-2.985900	3.510200	-10.480000	25.374801	0.000773	20.762972
1423.365066	-3.008200	3.509100	-10.556000	25.378554	0.000772	20.745403
1424.364645	-2.982400	3.509700	-10.466000	25.379775	0.000770	20.773182
1425.365022	-2.972900	3.510000	-10.434000	25.396977	0.000771	20.762479
1426.365200	-2.989800	3.509600	-10.492000	25.402122	0.000772	20.788509
1427.367685	-3.019800	3.507000	-10.589000	25.443258	0.000770	20.777185
1428.366008	-3.000600	3.507600	-10.522000	25.467860	0.000768	20.772966
1429.366905	-2.997500	3.507200	-10.511000	25.509515	0.000770	20.776864
1430.366456	-2.996300	3.507700	-10.509000	25.498882	0.000771	20.758600
1431.367205	-2.990500	3.507900	-10.490000	25.505738	0.000769	20.774494
1432.366940	-2.993300	3.507100	-10.497000	25.532258	0.000768	20.761297
1433.371274	-2.987800	3.507100	-10.477000	25.507982	0.000768	20.762997
1434.368395	-3.008700	3.506000	-10.548000	25.506768	0.000766	20.751346
1435.368357	-2.992700	3.507800	-10.497000	25.522821	0.000766	20.741388
1436.370245	-2.991000	3.505100	-10.483000	25.525329	0.000765	20.763348
1437.369086	-3.013700	3.506100	-10.565000	25.548298	0.000766	20.737576
1438.373534	-2.974700	3.505000	-10.425000	25.540321	0.000766	20.758489
1439.370178	-2.993100	3.505100	-10.490000	25.541443	0.000764	20.764832
1440.371484	-2.998800	3.505100	-10.510000	25.540395	0.000765	20.759511
1441.371029	-2.989000	3.503700	-10.472000	25.559182	0.000764	20.761309
1442.371227	-2.995000	3.505200	-10.497000	25.569422	0.000764	20.758317
1443.371606	-2.997400	3.503400	-10.500000	25.590625	0.000764	20.752583
1444.370595	-2.997300	3.503200	-10.499000	25.602477	0.000765	20.746468
1445.374638	-2.986800	3.503700	-10.465000	25.612667	0.000764	20.747220
1446.371095	-3.002600	3.502100	-10.515000	25.602526	0.000761	20.760269
1447.373600	-3.012800	3.501300	-10.547000	25.562358	0.000759	20.759283
1448.373130	-3.005900	3.500900	-10.522000	25.552143	0.000762	20.734325
1449.374317	-3.006100	3.500700	-10.522000	25.577589	0.000761	20.748975
1450.373314	-3.005800	3.499300	-10.517000	25.595260	0.000761	20.745385
1451.372809	-2.983600	3.501700	-10.446000	25.603537	0.000760	20.733783
1452.372787	-2.991200	3.500300	-10.469000	25.627989	0.000760	20.752177
1453.372458	-2.991100	3.500000	-10.468000	25.624365	0.000759	20.733838
1454.375287	-2.989100	3.500300	-10.462000	25.626708	0.000758	20.764167
1455.373780	-3.021000	3.498400	-10.567000	25.628817	0.000757	20.761543
1456.375130	-2.995500	3.499300	-10.481000	25.640773	0.000757	20.751266
1457.375907	-3.008900	3.497400	-10.522000	25.645825	0.000758	20.735002
1458.379697	-3.018600	3.496900	-10.554000	25.657805	0.000754	20.737077
1459.376643	-3.000000	3.498500	-10.495000	25.664463	0.000755	20.737601
1460.380374	-2.972700	3.498400	-10.398000	25.646376	0.000756	20.740298
1461.378355	-3.023400	3.496200	-10.570000	25.633703	0.000755	20.733259
1462.378647	-2.960800	3.498000	-10.356000	25.648050	0.000753	20.732496
1463.379235	-2.982700	3.496200	-10.427000	25.659828	0.000755	20.722039
1464.378418	-2.987200	3.496500	-10.444000	25.666683	0.000755	20.746943
1465.380149	-2.998700	3.496300	-10.483000	25.692905	0.000753	20.742934
1466.380397	-3.001800	3.495900	-10.492000	25.660827	0.000754	20.714982
1467.381153	-3.003500	3.495400	-10.498000	25.673979	0.000753	20.744788
1468.380470	-2.993600	3.494700	-10.461000	25.641282	0.000752	20.738500
1469.381387	-2.984100	3.495400	-10.429000	25.625635	0.000753	20.750761
1470.387329	-2.983300	3.493800	-10.422000	25.634752	0.000750	20.737158
1471.381874	-3.025400	3.492700	-10.566000	25.626702	0.000750	20.728598
1472.384322	-3.011300	3.492400	-10.515000	25.608418	0.000749	20.729201
1473.382254	-3.018800	3.491700	-10.539000	25.631901	0.000749	20.746623
1474.382210	-3.017800	3.491400	-10.536000	25.601962	0.000748	20.731252
1475.382410	-2.986200	3.492400	-10.428000	25.620178	0.000749	20.738168
1476.385645	-3.002900	3.490700	-10.480000	25.606769	0.000746	20.724700
1477.383694	-3.007300	3.490500	-10.496000	25.610994	0.000749	20.716614
1478.383555	-2.984600	3.492000	-10.421000	25.638253	0.000749	20.711749
1479.384669	-3.006300	3.489800	-10.490000	25.656867	0.000745	20.747516
1480.386925	-3.000700	3.491400	-10.475000	25.637965	0.000747	20.719521
1481.389619	-2.998200	3.488500	-10.456000	25.663783	0.000745	20.726012
1482.386867	-2.998500	3.491000	-10.466000	25.661374	0.000744	20.712685
1483.388512	-3.001300	3.488200	-10.468000	25.663017	0.000743	20.724294
1484.387379	-2.970300	3.490700	-10.366000	25.684236	0.000743	20.715734
1485.386796	-3.008200	3.487400	-10.489000	25.681827	0.000744	20.716159
1486.387082	-2.994600	3.487800	-10.443000	25.669289	0.000742	20.749087
1487.387407	-2.996900	3.488000	-10.452000	25.630577	0.000743	20.736284
1488.386586	-2.996300	3.486600	-10.446000	25.621031	0.000741	20.711996
1489.387545	-2.987500	3.486800	-10.416000	25.619320	0.000741	20.730193
1490.388167	-2.994700	3.486700	-10.441000	25.611650	0.000741	20.724386
1491.387412	-3.007700	3.485500	-10.482000	25.629590	0.000742	20.712057
1492.389136	-2.992100	3.485600	-10.428000	25.618910	0.000739	20.733100
1493.390434	-2.998000	3.486100	-10.451000	25.610614	0.000741	20.721449
1494.389338	-2.996300	3.484500	-10.440000	25.614814	0.000740	20.719977
1495.390754	-3.026400	3.484600	-10.544000	25.629830	0.000739	20.719411
1496.389058	-2.995100	3.485100	-10.438000	25.636562	0.000741	20.724276
1497.393260	-2.995600	3.483500	-10.434000	25.652840	0.000738	20.719288
1498.390909	-3.009600	3.483800	-10.483000	25.645366	0.000736	20.718894
1499.391323	-3.022100	3.482900	-10.524000	25.615299	0.000737	20.722361
1500.389683	-3.004300	3.482900	-10.463000	25.560968	0.000735	20.718056
1501.392069	-3.009100	3.482500	-10.477000	25.536889	0.000735	20.723746
1502.394403	-3.037900	3.480000	-10.570000	25.538029	0.000734	20.699286
1503.394724	-2.999200	3.480500	-10.437000	25.565867	0.000735	20.721554
1504.392148	-3.008300	3.481900	-10.472000	25.577701	0.000735	20.703092
1505.392663	-2.988700	3.481400	-10.404000	25.552035	0.000734	20.713826
1506.392415	-3.006100	3.480700	-10.463000	25.576040	0.000733	20.715174
1507.392082	-2.992600	3.480400	-10.415000	25.601737	0.000735	20.713955
1508.395649	-3.001600	3.481000	-10.448000	25.592528	0.000732	20.712767
1509.392423	-2.997500	3.480600	-10.432000	25.609052	0.000730	20.719405
1510.394478	-2.993500	3.480700	-10.419000	25.654502	0.000730	20.697248
1511.393197	-2.982400	3.479100	-10.375000	25.665171	0.000730	20.697057
1512.393629	-3.020900	3.479500	-10.510000	25.684452	0.000732	20.722590
1513.398300	-3.003500	3.479500	-10.449000	25.654748	0.000730	20.697021
1514.393312	-3.030300	3.476500	-10.534000	25.641327	0.000731	20.699188
1515.396255	-2.990200	3.478200	-10.399000	25.619764	0.000729	20.714991
1516.393631	-3.017100	3.477200	-10.490000	25.603890	0.000731	20.716592
1517.393323	-2.996200	3.477600	-10.419000	25.571191	0.000728	20.688491
1518.393959	-3.002600	3.476400	-10.437000	25.570382	0.000728	20.689576
1519.396296	-3.013400	3.476000	-10.475000	25.533905	0.000727	20.699885
1520.394430	-3.017600	3.475200	-10.486000	25.519072	0.000729	20.717707
1521.395192	-3.023300	3.473700	-10.501000	25.529741	0.000726	20.677684
1522.397186	-3.010000	3.474000	-10.456000	25.560909	0.000728	20.697133
1523.397631	-3.004500	3.474400	-10.438000	25.595301	0.000723	20.682833
1524.400839	-2.986800	3.475100	-10.377000	25.607490	0.000725	20.687015
1525.397192	-2.999600	3.474000	-10.420000	25.606822	0.000725	20.688715
1526.398977	-2.998500	3.473300	-10.413000	25.561995	0.000725	20.684946
1527.397652	-2.981000	3.472400	-10.350000	25.529007	0.000724	20.689750
1528.397819	-3.004500	3.472600	-10.433000	25.506889	0.000722	20.690772
1529.397625	-3.012500	3.471500	-10.457000	25.503020	0.000724	20.693525
1530.399613	-2.995800	3.470500	-10.395000	25.518706	0.000722	20.673239
1531.399083	-2.995500	3.471600	-10.398000	25.539879	0.000723	20.689762
1532.396284	-3.004700	3.470300	-10.426000	25.506013	0.000721	20.682305
1533.398120	-3.026300	3.469900	-10.500000	25.499403	0.000721	20.684201
1534.398762	-3.005300	3.470000	-10.427000	25.496404	0.000719	20.698736
1535.401311	-3.027800	3.469300	-10.504000	25.514157	0.000720	20.693329
1536.399195	-3.023900	3.468600	-10.487000	25.518032	0.000721	20.692479
1537.404084	-2.993700	3.469800	-10.387000	25.500918	0.000721	20.685249
1538.400184	-3.011700	3.467400	-10.441000	25.524305	0.000718	20.677915
1539.399973	-2.998900	3.468400	-10.400000	25.530450	0.000717	20.670334
1540.402551	-3.010900	3.467700	-10.440000	25.561384	0.000716	20.691919
1541.400959	-2.978200	3.468300	-10.326000	25.590007	0.000718	20.701225
1542.401626	-2.987700	3.468600	-10.362000	25.603888	0.000716	20.687664
1543.402709	-2.985300	3.468100	-10.352000	25.601037	0.000716	20.693336
1544.401921	-2.979000	3.466000	-10.324000	25.611847	0.000715	20.681906
1545.401781	-2.992500	3.467500	-10.376000	25.639977	0.000715	20.685503
1546.404562	-3.010300	3.467100	-10.435000	25.642865	0.000715	20.703104
1547.402702	-2.981900	3.468100	-10.340000	25.656237	0.000714	20.684764
1548.403342	-3.000100	3.465800	-10.396000	25.657451	0.000714	20.672232
1549.403056	-3.009300	3.464600	-10.425000	25.640640	0.000714	20.679056
1550.402674	-3.023700	3.464700	-10.475000	25.652589	0.000711	20.673513
1551.406430	-2.990800	3.466200	-10.366000	25.655606	0.000713	20.676543
1552.402055	-3.013200	3.464200	-10.437000	25.653148	0.000713	20.692094
1553.406034	-2.982900	3.464900	-10.334000	25.657648	0.000713	20.683811
1554.405434	-3.011100	3.463000	-10.427000	25.619628	0.000711	20.663641
1555.402645	-3.005600	3.463400	-10.408000	25.593368	0.000710	20.685159
1556.405125	-3.005400	3.463500	-10.407000	25.546413	0.000711	20.671192
1557.407081	-3.020500	3.461400	-10.454000	25.551539	0.000710	20.669228
1558.404750	-3.002300	3.461600	-10.391000	25.539282	0.000710	20.672092
1559.405142	-2.998400	3.462800	-10.382000	25.554470	0.000710	20.693511
1560.405557	-2.994800	3.461100	-10.364000	25.528582	0.000711	20.686004
1561.412786	-3.004000	3.460900	-10.396000	25.559278	0.000708	20.686959
1562.407910	-3.003300	3.460600	-10.392000	25.562576	0.000710	20.676994
1563.406144	-2.987100	3.461400	-10.337000	25.565912	0.000707	20.668964
1564.409733	-3.013500	3.460100	-10.424000	25.587263	0.000707	20.662430
1565.407916	-2.976300	3.459400	-10.294000	25.601923	0.000705	20.667671
1566.405625	-3.006200	3.458300	-10.395000	25.597876	0.000706	20.666926
1567.408550	-3.014800	3.457300	-10.422000	25.589795	0.000704	20.663551
1568.407918	-2.985900	3.458300	-10.325000	25.600862	0.000704	20.668028
1569.410229	-2.989500	3.458000	-10.336000	25.612211	0.000703	20.674685
1570.407253	-2.995400	3.457900	-10.357000	25.613935	0.000704	20.673571
1571.408758	-2.977400	3.456900	-10.291000	25.653015	0.000704	20.669198
1572.409798	-3.005800	3.455800	-10.387000	25.646884	0.000704	20.661143
1573.409812	-3.012300	3.455700	-10.409000	25.684976	0.000702	20.651986
1574.409317	-2.981400	3.456300	-10.303000	25.653193	0.000703	20.675542
1575.409090	-3.006800	3.453800	-10.384000	25.664658	0.000702	20.671410
1576.409190	-3.007300	3.454900	-10.389000	25.690997	0.000703	20.648075
1577.409119	-3.003800	3.455300	-10.378000	25.707942	0.000702	20.662727
1578.411483	-2.985500	3.455800	-10.316000	25.680212	0.000703	20.656685
1579.409403	-3.003900	3.454900	-10.378000	25.698305	0.000703	20.653520
1580.411121	-3.013400	3.452500	-10.402000	25.704491	0.000700	20.663527
1581.409605	-3.007800	3.452500	-10.384000	25.697588	0.000700	20.659912
1582.411409	-2.986300	3.454900	-10.316000	25.736248	0.000700	20.638524
1583.412807	-3.007400	3.452700	-10.383000	25.731656	0.000699	20.644344
1584.415365	-2.992800	3.452100	-10.330000	25.729768	0.000697	20.661415
1585.411861	-2.994400	3.452200	-10.335000	25.690090	0.000696	20.659494
1586.411348	-3.006400	3.452500	-10.377000	25.637468	0.000698	20.657850
1587.412395	-2.988200	3.452200	-10.315000	25.624433	0.000697	20.660880
1588.411913	-3.008800	3.450500	-10.381000	25.632508	0.000696	20.655239
1589.416027	-3.002400	3.451500	-10.361000	25.613354	0.000697	20.648329
1590.413558	-2.988000	3.451100	-10.311000	25.620160	0.000695	20.647578
1591.416915	-3.004900	3.449500	-10.365000	25.646775	0.000694	20.670044
1592.415641	-2.997700	3.450400	-10.342000	25.632245	0.000695	20.660665
1593.415709	-3.003200	3.449900	-10.359000	25.636347	0.000696	20.681857
1594.418069	-3.010500	3.449300	-10.383000	25.635133	0.000695	20.664041
1595.417657	-3.015100	3.448500	-10.396000	25.640302	0.000692	20.658325
1596.416502	-3.023200	3.447800	-10.422000	25.651681	0.000692	20.656004
1597.416964	-3.019700	3.446400	-10.406000	25.631461	0.000691	20.657507
1598.416868	-2.993900	3.448000	-10.322000	25.615238	0.000693	20.650695
1599.417538	-3.004300	3.446600	-10.353000	25.613227	0.000692	20.665273
1600.419572	-2.977100	3.448000	-10.264000	25.608236	0.000692	20.634178
1601.419160	-3.003200	3.445400	-10.346000	25.604630	0.000692	20.668968
1602.418906	-2.985100	3.447200	-10.290000	25.620811	0.000691	20.662459
1603.418286	-2.996200	3.445400	-10.323000	25.636618	0.000690	20.644192
1604.419055	-3.003400	3.446300	-10.350000	25.647224	0.000689	20.663857
1605.422451	-2.987100	3.445200	-10.290000	25.613803	0.000689	20.649729
1606.420084	-3.000800	3.443600	-10.331000	25.573036	0.000691	20.646243
1607.420659	-2.988700	3.444300	-10.293000	25.596145	0.000690	20.650961
1608.421734	-2.995600	3.444100	-10.315000	25.623675	0.000688	20.644470
1609.421318	-3.008300	3.443100	-10.357000	25.652602	0.000689	20.645548
1610.423309	-3.026300	3.441900	-10.415000	25.620419	0.000689	20.645467
1611.425363	-3.010600	3.442400	-10.363000	25.591124	0.000686	20.656350
1612.422143	-3.010700	3.441800	-10.361000	25.583196	0.000686	20.639376
1613.421862	-2.970400	3.442500	-10.225000	25.570479	0.000686	20.666438
1614.422692	-3.018400	3.439300	-10.380000	25.568811	0.000685	20.658598
1615.423085	-2.992900	3.441400	-10.299000	25.531359	0.000686	20.645165
1616.427019	-2.981500	3.441700	-10.260000	25.513424	0.000684	20.639481
1617.422132	-2.998900	3.441300	-10.319000	25.521450	0.000685	20.638059
1618.424343	-2.996600	3.440400	-10.309000	25.491060	0.000684	20.627928
1619.422803	-2.979700	3.441800	-10.254000	25.443720	0.000683	20.644402
1620.421466	-3.019000	3.439600	-10.383000	25.470261	0.000685	20.650666
1621.424116	-3.010200	3.439300	-10.351000	25.469200	0.000682	20.645333
1622.422199	-3.005400	3.438200	-10.332000	25.501301	0.000681	20.647223
1623.422910	-2.987600	3.440300	-10.277000	25.489503	0.000683	20.656714
1624.422597	-3.017600	3.438100	-10.374000	25.490196	0.000681	20.658832
1625.422999	-3.030500	3.437600	-10.416000	25.513087	0.000680	20.660009
1626.423015	-2.968100	3.438400	-10.205000	25.540300	0.000681	20.650826
1627.423672	-3.012600	3.437300	-10.355000	25.576532	0.000680	20.668723
1628.423669	-3.001900	3.436000	-10.313000	25.578543	0.000679	20.635651
1629.423955	-2.981600	3.437100	-10.247000	25.605135	0.000678	20.653352
1630.423837	-2.996800	3.437400	-10.300000	25.601505	0.000679	20.649231
1631.425552	-3.018200	3.434500	-10.364000	25.566096	0.000678	20.665355
1632.427249	-3.016400	3.433700	-10.356000	25.550050	0.000679	20.663939
1633.426187	-3.015600	3.433600	-10.353000	25.589660	0.000676	20.661044
1634.425882	-2.994700	3.435300	-10.287000	25.606331	0.000677	20.659769
1635.425443	-2.997500	3.434700	-10.294000	25.624327	0.000677	20.657928
1636.426111	-2.998000	3.433700	-10.292000	25.632334	0.000676	20.655539
1637.430465	-2.973700	3.435700	-10.216000	25.645522	0.000676	20.649343
1638.428713	-3.024700	3.433100	-10.382000	25.623266	0.000674	20.661131
1639.427042	-3.009400	3.432000	-10.328000	25.641237	0.000675	20.662111
1640.426407	-3.011600	3.432000	-10.335000	25.606743	0.000675	20.654492
1641.427523	-3.015900	3.432400	-10.350000	25.604707	0.000674	20.687539
1642.427701	-3.029300	3.431100	-10.393000	25.616541	0.000673	20.670973
1643.431308	-2.999100	3.431000	-10.289000	25.637037	0.000673	20.656469
1644.429147	-2.987500	3.431300	-10.250000	25.626805	0.000671	20.661840
1645.431293	-3.012600	3.431000	-10.336000	25.635977	0.000673	20.659198
1646.428924	-3.020900	3.429900	-10.360000	25.651109	0.000673	20.683407
1647.427989	-2.995400	3.431000	-10.276000	25.662918	0.000671	20.642632
1648.430869	-2.974400	3.430300	-10.200000	25.635935	0.000672	20.648249
1649.430782	-2.990600	3.429100	-10.254000	25.604524	0.000671	20.669335
1650.430894	-2.960300	3.431100	-10.156000	25.560697	0.000670	20.669890
1651.430142	-3.007300	3.428400	-10.308000	25.556717	0.000670	20.661151
1652.432252	-2.990900	3.428000	-10.252000	25.557024	0.000668	20.664304
1653.431931	-3.005800	3.426600	-10.298000	25.606947	0.000667	20.678407
1654.433288	-3.004800	3.427600	-10.299000	25.602342	0.000668	20.670463
1655.432996	-3.013500	3.426600	-10.325000	25.611937	0.000668	20.666349
1656.432817	-3.010200	3.426700	-10.315000	25.634329	0.000669	20.676036
1657.435162	-3.005900	3.426100	-10.298000	25.648989	0.000667	20.678906
1658.432516	-3.000600	3.425800	-10.278000	25.673495	0.000668	20.673647
1659.435426	-2.990700	3.427000	-10.248000	25.672152	0.000666	20.667082
1660.432811	-2.988200	3.426300	-10.237000	25.667823	0.000665	20.660363
1661.434406	-2.976100	3.425400	-10.193000	25.674145	0.000666	20.685681
1662.432808	-2.984500	3.425000	-10.221000	25.686363	0.000666	20.664286
1663.437231	-2.968400	3.426000	-10.168000	25.637738	0.000664	20.670925
1664.432113	-2.985400	3.424800	-10.223000	25.624379	0.000666	20.670784
1665.436843	-3.015500	3.423200	-10.322000	25.599945	0.000662	20.701724
1666.432515	-3.006500	3.422500	-10.289000	25.612398	0.000663	20.690996
1667.434140	-2.980900	3.423800	-10.203000	25.605414	0.000663	20.667859
1668.434525	-3.002600	3.423200	-10.278000	25.618603	0.000662	20.655498
1669.434671	-2.980000	3.422000	-10.196000	25.591048	0.000663	20.678562
1670.446868	-3.008900	3.422100	-10.296000	25.581078	0.000661	20.667125
1671.436063	-3.002800	3.421000	-10.272000	25.630056	0.000661	20.686444
1672.440019	-3.012300	3.419900	-10.301000	25.622361	0.000662	20.670655
1673.434747	-2.997400	3.420700	-10.253000	25.659706	0.000659	20.677343
1674.435496	-3.006200	3.418900	-10.276000	25.673635	0.000662	20.690860
1675.435874	-2.990300	3.420300	-10.226000	25.640687	0.000659	20.684794
1676.435265	-2.991600	3.420300	-10.231000	25.620589	0.000658	20.689739
1677.434990	-3.014100	3.418400	-10.302000	25.626646	0.000660	20.687288
1678.435150	-3.010000	3.417800	-10.286000	25.615095	0.000658	20.671892
1679.434075	-2.992300	3.419500	-10.231000	25.649902	0.000657	20.706378
1680.433912	-2.967700	3.418300	-10.143000	25.663316	0.000658	20.696617
1681.434484	-2.978400	3.418500	-10.181000	25.701922	0.000655	20.720222
1682.435483	-2.975900	3.418400	-10.172000	25.742299	0.000657	20.689652
1683.433676	-2.995700	3.417000	-10.236000	25.734397	0.000653	20.695940
1684.435591	-3.000900	3.416200	-10.251000	25.704430	0.000655	20.704721
1685.434168	-2.985600	3.416700	-10.200000	25.710505	0.000655	20.691856
1686.436295	-2.988100	3.415800	-10.206000	25.711854	0.000656	20.691314
1687.434409	-3.009100	3.416300	-10.279000	25.714134	0.000654	20.696924
1688.437471	-2.982600	3.416500	-10.189000	25.729283	0.000654	20.700286
1689.436590	-3.004100	3.414300	-10.256000	25.724544	0.000652	20.697897
1690.435591	-2.981700	3.416000	-10.185000	25.699021	0.000653	20.685063
1691.438063	-2.975500	3.416200	-10.164000	25.660629	0.000654	20.665940
1692.438695	-2.984200	3.413500	-10.186000	25.661126	0.000651	20.696788
1693.439690	-2.990100	3.414000	-10.207000	25.661874	0.000653	20.687581
1694.435711	-2.995900	3.412500	-10.223000	25.611132	0.000650	20.692095
1695.436051	-2.985100	3.413700	-10.189000	25.611402	0.000652	20.697108
1696.436049	-3.000300	3.413800	-10.242000	25.546738	0.000651	20.696652
1697.437353	-2.998500	3.412200	-10.231000	25.560983	0.000651	20.711906
1698.436957	-3.007200	3.411400	-10.257000	25.537645	0.000649	20.695580
1699.440292	-2.991600	3.411400	-10.204000	25.581382	0.000649	20.710108
1700.437246	-3.016100	3.410600	-10.285000	25.638452	0.000649	20.710526
1701.438138	-3.000600	3.411900	-10.237000	25.668967	0.000647	20.696128
1702.440690	-3.027600	3.409000	-10.321000	25.664791	0.000647	20.698573
1703.439571	-3.011700	3.408900	-10.265000	25.728000	0.000647	20.706585
1704.440070	-3.002500	3.409500	-10.236000	25.739281	0.000643	20.705588
1705.438328	-3.003100	3.409300	-10.238000	25.736945	0.000648	20.721735
1706.438869	-3.004900	3.409500	-10.244000	25.697040	0.000645	20.685443
1707.439422	-3.014700	3.407300	-10.270000	25.710055	0.000645	20.707053
1708.441391	-2.996800	3.407700	-10.211000	25.670352	0.000645	20.695623
1709.438553	-2.980000	3.409600	-10.159000	25.643719	0.000645	20.700642
1710.438771	-2.983700	3.408900	-10.170000	25.666061	0.000642	20.724980
1711.439505	-2.993800	3.407600	-10.200000	25.710405	0.000643	20.706456
1712.439670	-3.023300	3.405600	-10.295000	25.747397	0.000646	20.708051
1713.449289	-3.017100	3.405100	-10.272000	25.788514	0.000644	20.713316
1714.442031	-3.023100	3.406400	-10.297000	25.762803	0.000643	20.723052
1715.443118	-2.987500	3.405400	-10.173000	25.755079	0.000641	20.725251
1716.440996	-2.985300	3.405900	-10.167000	25.753062	0.000642	20.697618
1717.443740	-2.993800	3.405600	-10.194000	25.751768	0.000641	20.715286
1718.441021	-2.983700	3.406300	-10.162000	25.731690	0.000641	20.723095
1719.444163	-3.017900	3.404400	-10.272000	25.724916	0.000641	20.715342
1720.442710	-3.013200	3.404600	-10.258000	25.739820	0.000641	20.733158
1721.441632	-3.011900	3.404100	-10.252000	25.732788	0.000639	20.724672
1722.441985	-2.999700	3.404500	-10.211000	25.728214	0.000637	20.722448
1723.441221	-2.985900	3.404900	-10.166000	25.684067	0.000639	20.714615
1724.446430	-3.002000	3.403100	-10.215000	25.651916	0.000638	20.715514
1725.443904	-2.999900	3.403200	-10.207000	25.638893	0.000638	20.723298
1726.449195	-3.007400	3.402300	-10.231000	25.620058	0.000636	20.734728
1727.444015	-3.003200	3.401600	-10.214000	25.598488	0.000637	20.714486
1728.444158	-3.009900	3.400400	-10.233000	25.577169	0.000637	20.736698
1729.447529	-2.976000	3.403000	-10.126000	25.564096	0.000634	20.727837
1730.445276	-2.991700	3.401800	-10.176000	25.558161	0.000635	20.731834
1731.446353	-3.008100	3.400800	-10.229000	25.591400	0.000637	20.706892
1732.446462	-3.009000	3.400700	-10.232000	25.615827	0.000635	20.720046
1733.447509	-2.976700	3.400000	-10.120000	25.656158	0.000637	20.734001
1734.446692	-3.007500	3.398900	-10.221000	25.690320	0.000633	20.732277
1735.448350	-2.981400	3.400900	-10.138000	25.706248	0.000633	20.719351
1736.448450	-2.973700	3.400200	-10.111000	25.704133	0.000635	20.714855
1737.448176	-3.001200	3.399900	-10.202000	25.679469	0.000632	20.719480
1738.449600	-3.012600	3.398900	-10.238000	25.701178	0.000632	20.748399
1739.450061	-3.004700	3.398100	-10.208000	25.728931	0.000631	20.726488
1740.451959	-3.011600	3.397400	-10.231000	25.773182	0.000631	20.731581
1741.449082	-3.009800	3.397000	-10.223000	25.780262	0.000631	20.731581
1742.451290	-2.992500	3.399200	-10.171000	25.805721	0.000629	20.744827
1743.453117	-3.000100	3.397500	-10.192000	25.786920	0.000629	20.732104
1744.460803	-3.009900	3.398100	-10.227000	25.767290	0.000629	20.757432
1745.449750	-2.991600	3.396200	-10.160000	25.753919	0.000628	20.744476
1746.452606	-3.000000	3.395500	-10.185000	25.716903	0.000627	20.739537
1747.450905	-2.995300	3.396900	-10.174000	25.692006	0.000628	20.759575
1748.451027	-2.999200	3.395400	-10.182000	25.650493	0.000628	20.734949
1749.450501	-2.984100	3.397300	-10.137000	25.669646	0.000626	20.749445
1750.451717	-3.004700	3.393400	-10.196000	25.685624	0.000627	20.753639
1751.453836	-2.980200	3.394400	-10.115000	25.725676	0.000623	20.745504
1752.451724	-2.999700	3.394600	-10.182000	25.772556	0.000625	20.762722
1753.454474	-2.992400	3.393600	-10.154000	25.789850	0.000625	20.746428
1754.451675	-3.005200	3.392700	-10.195000	25.780213	0.000625	20.716832
1755.452500	-2.988600	3.393300	-10.140000	25.824167	0.000623	20.755770
1756.450357	-3.018500	3.392000	-10.237000	25.840590	0.000625	20.755198
1757.453015	-2.993000	3.392500	-10.152000	25.863718	0.000622	20.747137
1758.454144	-3.003700	3.391500	-10.185000	25.844163	0.000623	20.761159
1759.452281	-2.998700	3.392300	-10.172000	25.848002	0.000620	20.765014
1760.454093	-2.996300	3.392100	-10.163000	25.880165	0.000622	20.769349
1761.454277	-2.983400	3.392900	-10.121000	25.884125	0.000621	20.776647
1762.457926	-2.997300	3.391600	-10.164000	25.922534	0.000621	20.742211
1763.454845	-3.008800	3.390300	-10.199000	25.923226	0.000621	20.747649
1764.454823	-2.983900	3.390800	-10.117000	25.921761	0.000620	20.761350
1765.454160	-3.016300	3.389800	-10.224000	25.894742	0.000619	20.767398
1766.456690	-3.014800	3.389400	-10.217000	25.843742	0.000622	20.764528
1767.457242	-2.993300	3.390100	-10.146000	25.808966	0.000618	20.749983
1768.455497	-3.012800	3.389100	-10.210000	25.809837	0.000619	20.773144
1769.457046	-3.014800	3.387200	-10.211000	25.821588	0.000618	20.762189
1770.455529	-2.995700	3.387900	-10.148000	25.792770	0.000617	20.779234
1771.456120	-3.000300	3.386900	-10.160000	25.760500	0.000617	20.770053
1772.457052	-3.013600	3.385800	-10.202000	25.781539	0.000617	20.776488
1773.456458	-3.000000	3.387200	-10.160000	25.795848	0.000615	20.775213
1774.455655	-2.995100	3.387200	-10.143000	25.790802	0.000615	20.759239
1775.456939	-2.984900	3.386700	-10.108000	25.823777	0.000615	20.768655
1776.457839	-2.978000	3.385900	-10.082000	25.850161	0.000614	20.788995
1777.458311	-2.974900	3.385800	-10.071000	25.863021	0.000616	20.755920
1778.460254	-3.006800	3.385000	-10.177000	25.855531	0.000616	20.752189
1779.460365	-2.988400	3.385800	-10.118000	25.880160	0.000613	20.768396
1780.460100	-2.993800	3.384200	-10.131000	25.910213	0.000613	20.762077
1781.460185	-3.011300	3.383800	-10.189000	25.887810	0.000612	20.767546
1782.460003	-3.008500	3.383700	-10.178000	25.883911	0.000613	20.760310
1783.463851	-2.997100	3.384300	-10.142000	25.892333	0.000613	20.771616
1784.459164	-3.001900	3.383200	-10.154000	25.900057	0.000611	20.766573
1785.463012	-2.978100	3.382900	-10.073000	25.894460	0.000611	20.803624
1786.459507	-2.999500	3.382800	-10.146000	25.863511	0.000612	20.767792
1787.459692	-2.983300	3.382900	-10.091000	25.837789	0.000611	20.783679
1788.460966	-3.001600	3.382600	-10.151000	25.819852	0.000609	20.784153
1789.464445	-3.026300	3.381800	-10.233000	25.835429	0.000610	20.797903
1790.461027	-3.012600	3.381300	-10.186000	25.860445	0.000610	20.786998
1791.462214	-2.990700	3.381900	-10.114000	25.864019	0.000609	20.783475
1792.463212	-3.013100	3.379700	-10.182000	25.878001	0.000606	20.793254
1793.462451	-2.995300	3.380800	-10.126000	25.885742	0.000608	20.785384
1794.465023	-3.001800	3.380200	-10.145000	25.909893	0.000607	20.796369
1795.464086	-3.003500	3.380700	-10.153000	25.930685	0.000606	20.803506
1796.464096	-2.986600	3.379000	-10.091000	25.928251	0.000606	20.798691
1797.463729	-3.005200	3.378800	-10.153000	25.914061	0.000606	20.786806
1798.463322	-3.001400	3.378500	-10.139000	25.940712	0.000605	20.790821
1799.466774	-2.996500	3.377700	-10.120000	25.926731	0.000604	20.795267
1800.467441	-2.991300	3.378600	-10.105000	25.935073	0.000604	20.808863
1801.464615	-3.023900	3.377000	-10.210000	25.930322	0.000605	20.807884
1802.465571	-3.005700	3.378100	-10.152000	25.973375	0.000604	20.782384
1803.465678	-2.984700	3.379000	-10.084000	25.949967	0.000604	20.813395
1804.466731	-3.014800	3.378200	-10.184000	25.918792	0.000602	20.823801
1805.466118	-3.001900	3.375400	-10.132000	25.877558	0.000602	20.805611
1806.467353	-3.007100	3.375800	-10.151000	25.868314	0.000601	20.810550
1807.467705	-3.000800	3.377000	-10.133000	25.843494	0.000602	20.817385
1808.466135	-3.004900	3.376100	-10.143000	25.844095	0.000603	20.796178
1809.466462	-2.999800	3.375800	-10.126000	25.850305	0.000600	20.817114
1810.472815	-3.004900	3.375800	-10.143000	25.875670	0.000600	20.792335
1811.468404	-3.030200	3.374400	-10.224000	25.917848	0.000598	20.787292
1812.469925	-3.018300	3.374400	-10.184000	25.952431	0.000598	20.791689
1813.467956	-3.002500	3.373300	-10.127000	25.957353	0.000598	20.816548
1814.467861	-2.973100	3.375700	-10.035000	25.983458	0.000597	20.802945
1815.469956	-3.012100	3.373400	-10.159000	25.988300	0.000596	20.822508
1816.471606	-2.991600	3.372600	-10.088000	25.975631	0.000597	20.813573
1817.470192	-3.018900	3.372500	-10.180000	25.964475	0.000597	20.817539
1818.470267	-3.017400	3.372200	-10.174000	25.930721	0.000597	20.822508
1819.470764	-3.022900	3.371700	-10.191000	25.884767	0.000596	20.808112
1820.470675	-3.049600	3.370100	-10.276000	25.881463	0.000595	20.799577
1821.477800	-3.008700	3.371400	-10.143000	25.875247	0.000595	20.826049
1822.470976	-2.973900	3.372500	-10.028000	25.868131	0.000594	20.826961
1823.473324	-3.004800	3.370700	-10.127000	25.902402	0.000594	20.814922
1824.470980	-3.034000	3.369500	-10.222000	25.931941	0.000594	20.809510
1825.470940	-3.018100	3.369200	-10.167000	25.942820	0.000593	20.796732
1826.473832	-3.004000	3.369900	-10.123000	25.973130	0.000592	20.819122
1827.471040	-2.997100	3.369400	-10.098000	25.966450	0.000591	20.813359
1828.470538	-2.999800	3.369500	-10.107000	25.976686	0.000591	20.826013
1829.471986	-2.995200	3.369700	-10.093000	25.990439	0.000591	20.809485
1830.472392	-3.016000	3.367300	-10.154000	25.988086	0.000591	20.821819
1831.472679	-2.992900	3.368600	-10.080000	26.041040	0.000590	20.831401
1832.473738	-3.001800	3.368400	-10.110000	26.046501	0.000590	20.817447
1833.473227	-2.987800	3.368300	-10.063000	26.083145	0.000589	20.817755
1834.474505	-3.000200	3.365800	-10.096000	26.090972	0.000590	20.821352
1835.473521	-2.989800	3.369300	-10.071000	26.119904	0.000587	20.826715
1836.474294	-3.009000	3.366200	-10.129000	26.133865	0.000587	20.845009
1837.475977	-3.024100	3.366300	-10.177000	26.111190	0.000588	20.841666
1838.473625	-2.985400	3.367300	-10.051000	26.111141	0.000587	20.825970
1839.474360	-2.999500	3.366300	-10.096000	26.127405	0.000586	20.825717
1840.472936	-3.004400	3.365700	-10.111000	26.109302	0.000585	20.804209
1841.473039	-3.001200	3.366100	-10.101000	26.098896	0.000585	20.806081
1842.473589	-3.002300	3.363600	-10.097000	26.062381	0.000588	20.838618
1843.477046	-2.990800	3.364900	-10.062000	26.025934	0.000584	20.806266
1844.473646	-3.025300	3.363900	-10.176000	25.993775	0.000584	20.819475
1845.474044	-3.007600	3.364000	-10.117000	25.997520	0.000584	20.819918
1846.474125	-3.002600	3.362700	-10.094000	26.023703	0.000584	20.806870
1847.474615	-2.992900	3.363600	-10.066000	26.011206	0.000584	20.785779
1848.476925	-2.985100	3.363100	-10.038000	26.037242	0.000584	20.812412
1849.474240	-3.012000	3.362900	-10.128000	26.051130	0.000581	20.809296
1850.477258	-3.008100	3.362500	-10.113000	26.082552	0.000581	20.804358
1851.474609	-3.001200	3.362600	-10.090000	26.052595	0.000583	20.803656
1852.476070	-3.003800	3.361100	-10.094000	26.012138	0.000581	20.812320
1853.477363	-2.987600	3.363100	-10.046000	25.979452	0.000581	20.819783
1854.476013	-2.990000	3.361300	-10.049000	25.955057	0.000581	20.792430
1855.475863	-3.020700	3.360400	-10.149000	25.962370	0.000579	20.778440
1856.476952	-3.015400	3.359300	-10.129000	25.947739	0.000579	20.786975
1857.475928	-3.004500	3.359500	-10.093000	25.986464	0.000579	20.800750
1858.475848	-3.014400	3.359800	-10.127000	25.952165	0.000578	20.777671
1859.479530	-2.987600	3.360700	-10.038000	25.947200	0.000579	20.782166
1860.476953	-2.999100	3.359600	-10.075000	25.967501	0.000577	20.803510
1861.477419	-3.027700	3.359600	-10.171000	25.968714	0.000575	20.825591
1862.478213	-3.004600	3.358400	-10.089000	25.997258	0.000576	20.777456
1863.477585	-2.979200	3.359600	-10.007000	26.002971	0.000575	20.796471
1864.480832	-3.009300	3.357800	-10.104000	26.033205	0.000573	20.805985
1865.479339	-2.997500	3.358100	-10.065000	26.016688	0.000573	20.798399
1866.480442	-2.992500	3.357500	-10.046000	26.024962	0.000574	20.783479
1867.478920	-2.981700	3.358200	-10.012000	26.019924	0.000573	20.782685
1868.478461	-3.010200	3.356800	-10.104000	26.036823	0.000572	20.785912
1869.479165	-2.993200	3.356500	-10.045000	26.036596	0.000573	20.761976
1870.481037	-3.024000	3.355300	-10.145000	26.005853	0.000572	20.799841
1871.478762	-2.996800	3.357900	-10.062000	25.960889	0.000573	20.799712
1872.479478	-3.014200	3.356300	-10.116000	25.910971	0.000572	20.777538
1873.479794	-3.011400	3.355100	-10.103000	25.870852	0.000571	20.783228
1874.479309	-2.997800	3.355000	-10.056000	25.843574	0.000571	20.783326
1875.480440	-3.003800	3.356300	-10.080000	25.853720	0.000570	20.783561
1876.480109	-2.984300	3.354200	-10.008000	25.876173	0.000569	20.776245
1877.481273	-2.995900	3.354900	-10.050000	25.912516	0.000568	20.769607
1878.480764	-3.014200	3.353600	-10.108000	25.925892	0.000569	20.755542
1879.481570	-2.997900	3.353500	-10.053000	25.944225	0.000568	20.767797
1880.483685	-2.985000	3.353200	-10.008000	25.995319	0.000567	20.793999
1881.481654	-2.986200	3.354700	-10.017000	25.995822	0.000566	20.783599
1882.485126	-2.994900	3.354300	-10.045000	26.005120	0.000567	20.762120
1883.482346	-3.030400	3.352400	-10.157000	26.017243	0.000565	20.781413
1884.483114	-3.013400	3.351900	-10.100000	26.006137	0.000566	20.757452
1885.486331	-3.008000	3.352600	-10.083000	25.980530	0.000565	20.785305
1886.486336	-2.997900	3.351800	-10.047000	25.954002	0.000566	20.761498
1887.484134	-3.008100	3.350100	-10.076000	25.939623	0.000566	20.758432
1888.482950	-3.000400	3.351200	-10.054000	25.974904	0.000564	20.763531
1889.484866	-2.992600	3.350500	-10.025000	25.963130	0.000562	20.763556
1890.486296	-3.017500	3.349600	-10.106000	25.987916	0.000560	20.747680
1891.488782	-2.989700	3.350700	-10.017000	25.990314	0.000563	20.760521
1892.486701	-2.989300	3.349900	-10.013000	26.007272	0.000560	20.767128
1893.490729	-3.037900	3.348500	-10.171000	26.028792	0.000562	20.763144
1894.487657	-3.019600	3.348100	-10.110000	26.058799	0.000561	20.768637
1895.487372	-3.002100	3.348700	-10.052000	26.077186	0.000562	20.750127
1896.487859	-3.001700	3.349300	-10.053000	26.066056	0.000560	20.770713
1897.487811	-2.995800	3.348700	-10.032000	26.096055	0.000560	20.770035
1898.488410	-3.006300	3.347300	-10.062000	26.120754	0.000558	20.745539
1899.488106	-2.989900	3.347500	-10.008000	26.134218	0.000558	20.776613
1900.487639	-3.018500	3.346100	-10.099000	26.181430	0.000559	20.768577
1901.487182	-3.001100	3.347900	-10.047000	26.168592	0.000556	20.768953
1902.490443	-2.997100	3.346100	-10.028000	26.172293	0.000556	20.746119
1903.487972	-3.002700	3.345600	-10.045000	26.199619	0.000557	20.757930
1904.489289	-2.995800	3.346300	-10.024000	26.166956	0.000556	20.758299
1905.489789	-2.988500	3.345300	-9.995300	26.232697	0.000556	20.775998
1906.494998	-3.010200	3.345500	-10.070000	26.223952	0.000554	20.763417
1907.495688	-3.003200	3.344200	-10.040000	26.192216	0.000556	20.759501
1908.492455	-2.987900	3.343800	-9.988400	26.132288	0.000554	20.737214
1909.495332	-3.024300	3.343600	-10.110000	26.123941	0.000554	20.756329
1910.493934	-3.024200	3.343200	-10.109000	26.132711	0.000552	20.753761
1911.494607	-2.984700	3.344700	-9.982700	26.151041	0.000553	20.755110
1912.495154	-2.986300	3.344200	-9.985700	26.165547	0.000552	20.760203
1913.496742	-2.988400	3.342900	-9.989000	26.193037	0.000553	20.763171
1914.495647	-2.996200	3.343900	-10.018000	26.207567	0.000551	20.755960
1915.495774	-2.989800	3.343900	-9.995200	26.235773	0.000551	20.752536
1916.494830	-2.994200	3.341800	-10.005000	26.238635	0.000549	20.757783
1917.496035	-2.986600	3.343500	-9.983000	26.212076	0.000551	20.745318
1918.498946	-3.003400	3.341400	-10.034000	26.209007	0.000549	20.755985
1919.495692	-2.995200	3.340500	-10.005000	26.167109	0.000549	20.752764
1920.500267	-2.976000	3.341300	-9.942700	26.150821	0.000547	20.754889
1921.495359	-3.016900	3.340200	-10.077000	26.133361	0.000548	20.761053
1922.496210	-2.995400	3.339900	-10.004000	26.129114	0.000547	20.743508
1923.497310	-3.009500	3.339400	-10.049000	26.128495	0.000545	20.764224
1924.495903	-3.000700	3.339400	-10.019000	26.099018	0.000547	20.740294
1925.494195	-3.000100	3.341000	-10.023000	26.044742	0.000546	20.747400
1926.495902	-3.018600	3.339600	-10.080000	26.004512	0.000546	20.752974
1927.496318	-3.004300	3.338100	-10.028000	26.077181	0.000545	20.739690
1928.495909	-2.989300	3.338100	-9.977000	26.109865	0.000546	20.753564
1929.497097	-3.002700	3.337900	-10.021000	26.108247	0.000544	20.772328
1930.495547	-3.015700	3.336900	-10.062000	26.096634	0.000544	20.765401
1931.495601	-2.993100	3.338200	-9.990600	26.096861	0.000544	20.756145
1932.495455	-3.007700	3.336800	-10.035000	26.117342	0.000542	20.744956
1933.496277	-2.996600	3.336800	-9.997800	26.144295	0.000542	20.760659
1934.501937	-3.013100	3.335300	-10.048000	26.186689	0.000541	20.766749
1935.496816	-3.003700	3.337100	-10.022000	26.212984	0.000543	20.732479
1936.501907	-3.008200	3.335000	-10.032000	26.229345	0.000541	20.743231
1937.497940	-3.004800	3.335200	-10.020000	26.247054	0.000541	20.755812
1938.498484	-3.003300	3.334500	-10.014000	26.262220	0.000538	20.751612
1939.501183	-2.993700	3.334400	-9.981400	26.263531	0.000539	20.731117
1940.500741	-2.998300	3.334300	-9.996900	26.269793	0.000538	20.745946
1941.497674	-3.015700	3.334300	-10.054000	26.235252	0.000540	20.712655
1942.498137	-2.995000	3.333400	-9.982400	26.231201	0.000537	20.745571
1943.497656	-2.988900	3.334200	-9.964600	26.220643	0.000537	20.761514
1944.498322	-3.014600	3.333300	-10.048000	26.232764	0.000536	20.760418
1945.500104	-3.001400	3.331500	-9.997600	26.246251	0.000536	20.758798
1946.497771	-2.989100	3.332000	-9.958200	26.196774	0.000536	20.744640
1947.499526	-3.005900	3.332300	-10.015000	26.175467	0.000534	20.753576
1948.496888	-2.990200	3.333000	-9.965200	26.166306	0.000536	20.731093
1949.497496	-2.980900	3.332600	-9.932700	26.159197	0.000535	20.741493
1950.497325	-2.996500	3.331100	-9.980900	26.138979	0.000536	20.754844
1951.497995	-3.002200	3.330700	-9.998200	26.124571	0.000532	20.743685
1952.497561	-2.978900	3.332600	-9.926400	26.141056	0.000533	20.753138
1953.498189	-2.982400	3.331600	-9.935700	26.105266	0.000534	20.738512
1954.499101	-2.980300	3.331000	-9.926700	26.161329	0.000532	20.732256
1955.498113	-2.981700	3.329700	-9.927600	26.182133	0.000531	20.743204
1956.499279	-2.985600	3.329400	-9.940000	26.185737	0.000532	20.738765
1957.498108	-3.001400	3.328600	-9.989600	26.170165	0.000530	20.738765
1958.498825	-3.008600	3.328600	-10.012000	26.167506	0.000531	20.747946
1959.498456	-2.986000	3.329000	-9.939200	26.188917	0.000529	20.738167
1960.499410	-3.019700	3.326700	-10.044000	26.214440	0.000530	20.745797
1961.504707	-3.037500	3.325400	-10.099000	26.223000	0.000530	20.744441
1962.500381	-3.016200	3.326700	-10.033000	26.230605	0.000529	20.740230
1963.501627	-2.999600	3.326900	-9.977600	26.192103	0.000527	20.730936
1964.500717	-2.999100	3.325900	-9.973600	26.138040	0.000529	20.737778
1965.502504	-3.019400	3.326800	-10.044000	26.118368	0.000526	20.728917
1966.504416	-2.995200	3.326300	-9.962400	26.101128	0.000527	20.743838
1967.503391	-2.989500	3.325700	-9.941200	26.073912	0.000528	20.753475
1968.501637	-3.007700	3.325000	-9.999300	26.067249	0.000526	20.726391
1969.501992	-3.015200	3.323600	-10.021000	26.079292	0.000525	20.745605
1970.502205	-2.990300	3.324300	-9.939300	26.087069	0.000525	20.737772
1971.503156	-3.017100	3.323000	-10.025000	26.106295	0.000524	20.720104
1972.502902	-3.006200	3.323900	-9.991600	26.111252	0.000523	20.734569
1973.503062	-3.007000	3.324300	-9.994200	26.113685	0.000522	20.735117
1974.503466	-2.988400	3.324000	-9.932400	26.134228	0.000523	20.728731
1975.503256	-2.997100	3.322900	-9.958400	26.132193	0.000520	20.731429
1976.507072	-2.999200	3.323000	-9.965500	26.166015	0.000521	20.743129
1977.509521	-3.019000	3.321000	-10.024000	26.214071	0.000519	20.731675
1978.504022	-3.024500	3.322500	-10.048000	26.216797	0.000521	20.739156
1979.504004	-2.972400	3.322300	-9.874400	26.206423	0.000520	20.729680
1980.504395	-2.995700	3.321300	-9.948200	26.172205	0.000518	20.731330
1981.505385	-2.996600	3.320900	-9.949800	26.129631	0.000519	20.726009
1982.505446	-2.978900	3.321500	-9.893400	26.096347	0.000518	20.741404
1983.507157	-3.002100	3.321400	-9.969400	26.109959	0.000519	20.725208
1984.504682	-2.981900	3.320700	-9.901200	26.105743	0.000516	20.734723
1985.505867	-2.969000	3.322200	-9.862800	26.130048	0.000516	20.759146
1986.505497	-2.984000	3.320000	-9.906000	26.136311	0.000514	20.730351
1987.503740	-2.985400	3.320200	-9.909600	26.117963	0.000515	20.733726
1988.506767	-2.992100	3.318700	-9.928200	26.131421	0.000515	20.720220
1989.507235	-2.969200	3.319300	-9.854100	26.172529	0.000514	20.717905
1990.505643	-2.991700	3.318200	-9.926400	26.198524	0.000514	20.723638
1991.506771	-2.995500	3.317600	-9.937000	26.253761	0.000514	20.734576
1992.506123	-2.999900	3.317500	-9.951000	26.268363	0.000512	20.726964
1993.505760	-3.005400	3.316800	-9.967200	26.245568	0.000512	20.709272
1994.507160	-3.001200	3.316000	-9.950800	26.230396	0.000512	20.738597
1995.506138	-2.981600	3.317200	-9.889100	26.257720	0.000511	20.720061
1996.506885	-2.981600	3.316300	-9.886900	26.280784	0.000509	20.720480
1997.506869	-3.019500	3.315200	-10.010000	26.282328	0.000509	20.719187
1998.508578	-3.028000	3.316100	-10.040000	26.291464	0.000511	20.726946
1999.511622	-2.993500	3.316200	-9.926000	26.293603	0.000510	20.730992
2000.508188	-2.998200	3.315100	-9.938200	26.299093	0.000510	20.708059
2001.509467	-3.003200	3.313500	-9.949600	26.285484	0.000507	20.724255
2002.507669	-2.993400	3.315200	-9.922300	26.286906	0.000505	20.712881
2003.508054	-2.989700	3.314900	-9.910100	26.321771	0.000506	20.724687
2004.510134	-3.002600	3.314400	-9.950600	26.327506	0.000507	20.717174
2005.512450	-3.009900	3.312100	-9.968000	26.362694	0.000505	20.716503
2006.508433	-2.976500	3.314400	-9.863900	26.365500	0.000505	20.705572
2007.507656	-3.005200	3.313400	-9.956000	26.393017	0.000505	20.731806
2008.508020	-2.948400	3.314600	-9.771200	26.391828	0.000504	20.714490
2009.507277	-2.999600	3.311800	-9.933300	26.402728	0.000505	20.701261
2010.511534	-2.986900	3.313000	-9.894800	26.419044	0.000501	20.710548
2011.508379	-3.002300	3.309700	-9.935900	26.447594	0.000501	20.722649
2012.512053	-2.984500	3.311200	-9.881000	26.434293	0.000502	20.716867
2013.507621	-3.042400	3.310200	-10.070000	26.454750	0.000502	20.715143
2014.509670	-3.017500	3.308800	-9.982900	26.454334	0.000501	20.710457
2015.509708	-2.997800	3.310600	-9.923900	26.478944	0.000502	20.695363
2016.508984	-3.017200	3.309800	-9.985000	26.501538	0.000500	20.718549
2017.508589	-3.013600	3.308400	-9.968000	26.479985	0.000499	20.716326
2018.509270	-3.002000	3.308300	-9.930300	26.509501	0.000499	20.710432
2019.509493	-3.026700	3.307300	-10.009000	26.473951	0.000499	20.707889
2020.509493	-2.992000	3.308900	-9.899000	26.444801	0.000498	20.719842
2021.510357	-3.022900	3.306900	-9.994900	26.406889	0.000497	20.709712
2022.509955	-3.010900	3.307000	-9.955000	26.388417	0.000497	20.716751
2023.510303	-3.032800	3.305700	-10.024000	26.368082	0.000494	20.700579
2024.511343	-3.001800	3.307200	-9.925100	26.357702	0.000493	20.709589
2025.509449	-2.980900	3.306900	-9.856700	26.414934	0.000497	20.720168
2026.515376	-3.028800	3.305700	-10.011000	26.424743	0.000494	20.711061
2027.509334	-3.008500	3.305700	-9.944500	26.435177	0.000494	20.717755
2028.514267	-2.993200	3.305000	-9.891300	26.467433	0.000492	20.704657
2029.510943	-3.023000	3.304500	-9.987000	26.466189	0.000492	20.704355
2030.511111	-3.009000	3.304800	-9.943700	26.469485	0.000491	20.692019
2031.511795	-2.981700	3.306200	-9.856500	26.497593	0.000491	20.705574
2032.514289	-3.014200	3.304000	-9.957300	26.495737	0.000493	20.703234
2033.513404	-2.998700	3.303700	-9.905200	26.521657	0.000491	20.707003
2034.513447	-2.991500	3.303800	-9.882300	26.513466	0.000489	20.692131
2035.513252	-3.012000	3.302500	-9.946200	26.502782	0.000491	20.705574
2036.513586	-3.000700	3.304100	-9.912700	26.463383	0.000490	20.722873
2037.515622	-2.971000	3.303200	-9.813000	26.454176	0.000490	20.694649
2038.514066	-3.006200	3.302100	-9.925600	26.474264	0.000488	20.694453
2039.515187	-3.006800	3.301600	-9.924900	26.445862	0.000487	20.702415
2040.513659	-2.997900	3.301400	-9.895000	26.441292	0.000487	20.707305
2041.514176	-2.996900	3.300800	-9.891800	26.422918	0.000487	20.697372
2042.514237	-2.992400	3.301000	-9.876600	26.389863	0.000484	20.691176
2043.516709	-3.023400	3.299300	-9.974000	26.403949	0.000484	20.693954
2044.513890	-3.000000	3.301100	-9.902700	26.384956	0.000483	20.680553
2045.513536	-3.009400	3.300000	-9.928900	26.368119	0.000484	20.685443
2046.514237	-2.990100	3.299200	-9.863500	26.374497	0.000483	20.694699
2047.515664	-2.995700	3.300400	-9.885100	26.379920	0.000484	20.684975
2048.518158	-3.037100	3.298600	-10.017000	26.386470	0.000483	20.695352
2049.520359	-2.999300	3.298500	-9.892300	26.371152	0.000480	20.697027
2050.520413	-2.970600	3.298500	-9.797800	26.396132	0.000483	20.689889
2051.515250	-3.008300	3.297600	-9.919600	26.382940	0.000481	20.690856
2052.517316	-2.981100	3.297900	-9.830600	26.423022	0.000480	20.682777
2053.519109	-3.003700	3.297200	-9.902300	26.422226	0.000481	20.666327
2054.516718	-2.995300	3.296200	-9.871700	26.424689	0.000481	20.686349
2055.516850	-3.029500	3.295100	-9.981600	26.406738	0.000480	20.680634
2056.516088	-2.997400	3.295000	-9.875400	26.442854	0.000479	20.668568
2057.517747	-3.009700	3.294600	-9.914700	26.460793	0.000479	20.693240
2058.517322	-3.023400	3.295100	-9.961000	26.480079	0.000478	20.695555
2059.519501	-3.009900	3.294600	-9.915700	26.481997	0.000477	20.675670
2060.519299	-2.995600	3.295300	-9.870700	26.516328	0.000477	20.688368
2061.517929	-3.008700	3.293100	-9.906600	26.502054	0.000476	20.666432
2062.515993	-3.000200	3.293500	-9.880100	26.493741	0.000475	20.693641
2063.516729	-3.015800	3.294400	-9.934100	26.479086	0.000475	20.695506
2064.519938	-3.017800	3.292300	-9.934500	26.445942	0.000475	20.680683
2065.517854	-2.996700	3.292800	-9.866800	26.465577	0.000475	20.665329
2066.521914	-3.008100	3.292100	-9.902100	26.481151	0.000473	20.693314
2067.523867	-3.020700	3.291200	-9.941800	26.495174	0.000472	20.695081
2068.520329	-3.005100	3.291900	-9.890500	26.537052	0.000471	20.684544
2069.519722	-2.990200	3.291600	-9.841800	26.521038	0.000472	20.679826
2070.522450	-2.991400	3.292800	-9.848800	26.572055	0.000471	20.690807
2071.521001	-2.985300	3.291600	-9.825800	26.543160	0.000469	20.677880
2072.522459	-3.010300	3.290600	-9.903700	26.537622	0.000470	20.681797
2073.522891	-2.990100	3.290400	-9.837900	26.504025	0.000469	20.690702
2074.521662	-2.993300	3.290800	-9.849000	26.476298	0.000468	20.689384
2075.525220	-2.999700	3.289600	-9.866800	26.438626	0.000469	20.692771
2076.521530	-3.005000	3.288500	-9.880300	26.452233	0.000465	20.667090
2077.524806	-2.995800	3.289600	-9.853800	26.490535	0.000465	20.683305
2078.522667	-3.000800	3.288800	-9.868100	26.482473	0.000466	20.686581
2079.523496	-3.017500	3.287900	-9.920700	26.475562	0.000467	20.696705
2080.524937	-2.987900	3.287300	-9.821100	26.483109	0.000466	20.688644
2081.523833	-3.016600	3.287400	-9.915700	26.541774	0.000465	20.678858
2082.523726	-3.009200	3.287100	-9.890000	26.511927	0.000463	20.681099
2083.523730	-2.996000	3.287700	-9.848700	26.530893	0.000462	20.678352
2084.523985	-2.993900	3.288300	-9.843200	26.564182	0.000462	20.690952
2085.523637	-2.993500	3.286500	-9.836800	26.552316	0.000461	20.679972
2086.524650	-2.988900	3.286500	-9.821900	26.542501	0.000463	20.695238
2087.524474	-3.003000	3.284900	-9.863200	26.524258	0.000459	20.697289
2088.524181	-3.002000	3.285600	-9.862700	26.535751	0.000462	20.676597
2089.524335	-3.004200	3.285100	-9.868200	26.543046	0.000460	20.697209
2090.524194	-2.984900	3.284900	-9.804600	26.556695	0.000459	20.688642
2091.528311	-2.991500	3.284700	-9.825000	26.522254	0.000460	20.714716
2092.526318	-2.997700	3.283700	-9.843000	26.505799	0.000458	20.701020
2093.527547	-2.997000	3.283600	-9.840100	26.492358	0.000457	20.689879
2094.526802	-3.026000	3.283300	-9.934400	26.490684	0.000457	20.706691
2095.527214	-2.995200	3.283300	-9.833600	26.503096	0.000457	20.681706
2096.528389	-3.010900	3.282700	-9.882700	26.547388	0.000456	20.684976
2097.529613	-3.005500	3.280700	-9.858500	26.544631	0.000454	20.704018
2098.526490	-3.030500	3.281300	-9.942800	26.573324	0.000454	20.688289
2099.529250	-2.985400	3.281800	-9.796500	26.589687	0.000453	20.701419
2100.528803	-3.006200	3.279900	-9.859000	26.540428	0.000452	20.674660
2101.528809	-3.021600	3.280300	-9.911300	26.590225	0.000451	20.689157
2102.532598	-2.989200	3.281200	-9.807500	26.613215	0.000451	20.709898
2103.530057	-2.998900	3.280800	-9.837900	26.627806	0.000451	20.689002
2104.531519	-3.017000	3.279400	-9.892500	26.662114	0.000451	20.695518
2105.528565	-3.019400	3.279000	-9.899000	26.657355	0.000453	20.698795
2106.529542	-3.020200	3.277500	-9.897300	26.661122	0.000450	20.702108
2107.533607	-2.990900	3.279300	-9.807200	26.673269	0.000450	20.695353
2108.531003	-3.024900	3.278500	-9.916000	26.637497	0.000449	20.702065
2109.533197	-3.014900	3.277800	-9.881100	26.652038	0.000448	20.713839
2110.530720	-2.987500	3.277700	-9.791000	26.623438	0.000448	20.702157
2111.530769	-2.993000	3.277900	-9.810000	26.618103	0.000448	20.693948
2112.532251	-3.037800	3.275600	-9.949700	26.614550	0.000446	20.692273
2113.535369	-3.013000	3.276400	-9.870200	26.651548	0.000443	20.703389
2114.532301	-3.008900	3.275700	-9.854900	26.615469	0.000444	20.686558
2115.531018	-2.989100	3.276800	-9.794300	26.599211	0.000444	20.694398
2116.532526	-2.991300	3.276500	-9.800500	26.571382	0.000442	20.706252
2117.532259	-2.985100	3.275600	-9.777400	26.533524	0.000443	20.709449
2118.532267	-3.023400	3.274200	-9.897700	26.504578	0.000442	20.698844
2119.531708	-2.986400	3.274800	-9.779200	26.545886	0.000443	20.707176
2120.535818	-2.983200	3.275300	-9.769900	26.564209	0.000440	20.697618
2121.533186	-3.008200	3.273700	-9.847400	26.579970	0.000440	20.709196
2122.533692	-3.003700	3.273400	-9.831200	26.577986	0.000441	20.701510
2123.533668	-2.981400	3.273600	-9.759500	26.570285	0.000438	20.724117
2124.536507	-2.993100	3.272400	-9.792800	26.569985	0.000439	20.720970
2125.532343	-2.978500	3.273000	-9.748200	26.602237	0.000441	20.726365
2126.533435	-2.977600	3.270900	-9.738300	26.624528	0.000437	20.709892
2127.533267	-3.004100	3.271500	-9.827100	26.657912	0.000438	20.702674
2128.534627	-3.025200	3.269800	-9.891100	26.634427	0.000437	20.694711
2129.537354	-2.948200	3.272400	-9.645800	26.628711	0.000437	20.700820
2130.535694	-2.980000	3.272400	-9.751000	26.604069	0.000434	20.718248
2131.537175	-3.001600	3.270100	-9.815000	26.625539	0.000436	20.713752
2132.534915	-3.001900	3.269900	-9.815000	26.657335	0.000435	20.722010
2133.535686	-3.000800	3.268900	-9.807300	26.665035	0.000434	20.712681
2134.536872	-2.987800	3.269400	-9.767700	26.631443	0.000433	20.731069
2135.536687	-3.006400	3.268700	-9.826300	26.610016	0.000431	20.724227
2136.537527	-2.979800	3.269400	-9.741500	26.564361	0.000433	20.716264
2137.536853	-2.991600	3.268500	-9.777400	26.552163	0.000432	20.719177
2138.538373	-2.962200	3.268200	-9.679800	26.508668	0.000432	20.721923
2139.539165	-3.002400	3.268200	-9.812400	26.496281	0.000429	20.733181
2140.540170	-2.981700	3.267700	-9.742800	26.522862	0.000431	20.750891
2141.538280	-2.995800	3.265700	-9.782500	26.521153	0.000428	20.717403
2142.539096	-3.008800	3.265800	-9.825400	26.557597	0.000429	20.728432
2143.538855	-2.986400	3.266000	-9.752300	26.590909	0.000426	20.745798
2144.538942	-3.019400	3.265500	-9.857900	26.617665	0.000426	20.721959
2145.541937	-3.011700	3.264600	-9.831600	26.595399	0.000426	20.729922
2146.538646	-2.982700	3.264100	-9.733400	26.574516	0.000426	20.727896
2147.541975	-2.992900	3.265300	-9.771700	26.559268	0.000424	20.711145
2148.544535	-3.020000	3.263700	-9.854600	26.537337	0.000426	20.754535
2149.542518	-3.006800	3.262900	-9.809100	26.550600	0.000422	20.740840
2150.542866	-3.021800	3.261800	-9.855100	26.582294	0.000424	20.731922
2151.543103	-3.030000	3.262900	-9.884000	26.608886	0.000421	20.731627
2152.541301	-2.981400	3.262800	-9.726800	26.624721	0.000423	20.748968
2153.542054	-3.023200	3.261400	-9.857900	26.650809	0.000422	20.735364
2154.541862	-3.027200	3.260900	-9.870600	26.753545	0.000421	20.724378
2155.541957	-3.004800	3.262400	-9.801100	26.744155	0.000418	20.722998
2156.546283	-2.998300	3.261100	-9.776200	26.733982	0.000419	20.745014
2157.541532	-3.005600	3.259900	-9.796900	26.752962	0.000418	20.743708
2158.542037	-3.028500	3.259000	-9.868300	26.776738	0.000417	20.745327
2159.545104	-2.990300	3.259900	-9.746700	26.772445	0.000417	20.748123
2160.542030	-2.999500	3.259500	-9.775800	26.724819	0.000416	20.753345
2161.542571	-3.008200	3.258900	-9.801500	26.726845	0.000415	20.762021
2162.545164	-2.993600	3.258800	-9.754800	26.748044	0.000417	20.725485
2163.545048	-3.011000	3.258500	-9.810500	26.795222	0.000414	20.753480
2164.544894	-2.976600	3.257300	-9.694600	26.777074	0.000416	20.736182
2165.542609	-3.000900	3.257900	-9.775400	26.767391	0.000414	20.741145
2166.542326	-3.013700	3.257900	-9.817700	26.745813	0.000413	20.734623
2167.545416	-3.005400	3.255900	-9.784400	26.773669	0.000415	20.749353
2168.542997	-3.001200	3.255300	-9.768400	26.796924	0.000412	20.721050
2169.544005	-3.001100	3.255100	-9.767500	26.830455	0.000410	20.755715
2170.541004	-2.995400	3.255800	-9.751700	26.839164	0.000411	20.765419
2171.547359	-3.004900	3.255500	-9.781300	26.870734	0.000410	20.736945
2172.545776	-3.014000	3.254700	-9.808200	26.875597	0.000410	20.747998
2173.544396	-2.995000	3.255800	-9.749400	26.855173	0.000407	20.759231
2174.545765	-3.012200	3.252700	-9.797000	26.828709	0.000409	20.751114
2175.544876	-2.984800	3.252400	-9.707000	26.803838	0.000407	20.745547
2176.545371	-3.006700	3.252400	-9.778100	26.784380	0.000406	20.754433
2177.546973	-3.021200	3.251300	-9.822700	26.774697	0.000406	20.748491
2178.547195	-3.019700	3.251900	-9.818400	26.779137	0.000406	20.747739
2179.545080	-3.006700	3.252200	-9.777500	26.773551	0.000404	20.755874
2180.543920	-2.998500	3.251900	-9.749500	26.743351	0.000404	20.753485
2181.546514	-2.974100	3.252600	-9.671800	26.712591	0.000404	20.763337
2182.544033	-3.000700	3.250700	-9.753600	26.708248	0.000404	20.763713
2183.547910	-3.004700	3.250600	-9.766500	26.728228	0.000402	20.761040
2184.545738	-2.987000	3.249300	-9.705000	26.748759	0.000401	20.786898
2185.545450	-2.989900	3.249200	-9.712900	26.770869	0.000401	20.765979
2186.549726	-2.998400	3.248600	-9.739500	26.803286	0.000400	20.764433
2187.548845	-3.003500	3.248600	-9.755700	26.850885	0.000400	20.751600
2188.553614	-3.003800	3.249600	-9.760700	26.858430	0.000397	20.762980
2189.549864	-3.023600	3.247700	-9.818800	26.850854	0.000398	20.769587
2190.550838	-2.994000	3.248200	-9.724200	26.901586	0.000399	20.765123
2191.554899	-2.994600	3.247400	-9.723800	26.902057	0.000397	20.772235
2192.551359	-2.989300	3.247900	-9.706300	26.901653	0.000395	20.780837
2193.553918	-2.992900	3.245900	-9.713800	26.894611	0.000395	20.760479
2194.553123	-3.012500	3.247300	-9.781700	26.877457	0.000394	20.768836
2195.550384	-3.008600	3.244800	-9.761200	26.844325	0.000393	20.778196
2196.550688	-3.001900	3.246600	-9.745600	26.832107	0.000392	20.767807
2197.550503	-2.996700	3.245700	-9.725300	26.826822	0.000392	20.773873
2198.551193	-3.014500	3.244000	-9.777700	26.851165	0.000392	20.784600
2199.552830	-3.010600	3.245100	-9.768600	26.879410	0.000390	20.761790
2200.552766	-3.015400	3.243200	-9.778300	26.902810	0.000391	20.790061
2201.554543	-2.992700	3.243400	-9.704800	26.914451	0.000391	20.762412
2202.554386	-2.990300	3.243300	-9.697400	26.934734	0.000391	20.781385
2203.553555	-2.991500	3.243700	-9.701800	26.961678	0.000389	20.780030
2204.556077	-3.008800	3.241600	-9.752100	26.950337	0.000387	20.781428
2205.555024	-3.003100	3.242800	-9.736900	26.981904	0.000387	20.779033
2206.553428	-3.005300	3.242600	-9.743800	26.986098	0.000389	20.780406
2207.553861	-3.025300	3.239300	-9.798100	26.917826	0.000387	20.769124
2208.554034	-3.014000	3.240200	-9.764800	26.885460	0.000384	20.779728
2209.554997	-3.022400	3.239300	-9.789600	26.856395	0.000383	20.786065
2210.556154	-2.990500	3.239000	-9.685600	26.855924	0.000385	20.781323
2211.554108	-3.005800	3.238200	-9.731900	26.897120	0.000384	20.780547
2212.558875	-3.008000	3.238000	-9.738500	26.929258	0.000382	20.782518
2213.555845	-2.988100	3.239000	-9.677000	26.898039	0.000383	20.788109
2214.557050	-3.008800	3.236700	-9.737800	26.896422	0.000383	20.774155
2215.562546	-2.973800	3.238200	-9.628700	26.924047	0.000382	20.780596
2216.556746	-2.983300	3.237800	-9.657800	26.880389	0.000380	20.780319
2217.558456	-2.983400	3.236900	-9.655400	26.870431	0.000380	20.805868
2218.559000	-2.999600	3.235000	-9.703400	26.891871	0.000379	20.789020
2219.557230	-2.994700	3.235700	-9.689300	26.932026	0.000375	20.776291
2220.557773	-2.982800	3.238000	-9.657200	26.951781	0.000377	20.791889
2221.561622	-3.002300	3.236100	-9.714800	26.984811	0.000380	20.767732
2222.560041	-2.975700	3.235700	-9.626800	26.977334	0.000375	20.787240
2223.561512	-2.999900	3.234300	-9.701200	26.965368	0.000375	20.794647
2224.560400	-3.023200	3.235500	-9.780100	26.970953	0.000375	20.789358
2225.560219	-3.024500	3.232500	-9.775200	26.969441	0.000374	20.792104
2226.565657	-2.998100	3.232200	-9.689700	26.986929	0.000374	20.789776
2227.565508	-3.019500	3.233800	-9.763700	26.955038	0.000375	20.802751
2228.564704	-2.995900	3.232600	-9.683500	26.944591	0.000371	20.816427
2229.562891	-3.024600	3.230800	-9.771500	26.950574	0.000372	20.803003
2230.563724	-3.004100	3.231600	-9.707600	26.971981	0.000372	20.814099
2231.564606	-3.014300	3.230300	-9.735900	26.947064	0.000371	20.812276
2232.564327	-3.002700	3.229600	-9.695000	26.955282	0.000372	20.800152
2233.564878	-2.982000	3.231300	-9.634100	26.965729	0.000369	20.809235
2234.563952	-2.992900	3.230600	-9.668200	26.991834	0.000371	20.777639
2235.564104	-2.995800	3.230500	-9.677300	27.049869	0.000368	20.780052
2236.567621	-2.989700	3.229600	-9.654300	27.069409	0.000368	20.804444
2237.564692	-3.020200	3.227200	-9.745600	27.051211	0.000367	20.807479
2238.565083	-3.002400	3.228500	-9.691800	27.072225	0.000366	20.804431
2239.566453	-2.976500	3.227900	-9.607300	27.096398	0.000366	20.806931
2240.567921	-3.000400	3.226800	-9.680100	27.132651	0.000365	20.794554
2241.567224	-2.992600	3.227300	-9.657100	27.129008	0.000364	20.811753
2242.570267	-3.004300	3.225100	-9.687600	27.131512	0.000364	20.820435
2243.566361	-2.996600	3.227800	-9.671000	27.151808	0.000363	20.812874
2244.567955	-2.992100	3.227700	-9.655300	27.183841	0.000363	20.811901
2245.568729	-3.003100	3.225500	-9.685900	27.222968	0.000361	20.828496
2246.567307	-2.967300	3.225800	-9.571100	27.231729	0.000363	20.810281
2247.571817	-3.010900	3.224400	-9.707300	27.244848	0.000361	20.811624
2248.572691	-3.004300	3.223100	-9.681100	27.249488	0.000362	20.816765
2249.568887	-2.989400	3.223900	-9.635900	27.251723	0.000359	20.796254
2250.568902	-2.987300	3.222600	-9.626100	27.234582	0.000358	20.830694
2251.569727	-3.001400	3.222300	-9.669600	27.249764	0.000358	20.812301
2252.569781	-2.975900	3.223100	-9.590500	27.239914	0.000358	20.815669
2253.573636	-3.004600	3.220800	-9.676400	27.235089	0.000357	20.826463
2254.570141	-2.990400	3.220900	-9.630700	27.239712	0.000357	20.818311
2255.572557	-2.993500	3.220200	-9.638400	27.211801	0.000357	20.818212
2256.571997	-3.001500	3.221200	-9.667600	27.241255	0.000354	20.830294
2257.572037	-2.986800	3.221100	-9.619100	27.244205	0.000356	20.829943
2258.572324	-2.968000	3.221000	-9.558500	27.264597	0.000353	20.826747
2259.573441	-2.999700	3.221000	-9.661000	27.285234	0.000355	20.833280
2260.573263	-3.000300	3.219000	-9.656500	27.257404	0.000353	20.817615
2261.573607	-3.007800	3.217200	-9.674900	27.244058	0.000351	20.829795
2262.572981	-2.991300	3.217400	-9.622100	27.229763	0.000351	20.817313
2263.572447	-3.011400	3.215500	-9.682400	27.207038	0.000351	20.815792
2264.575268	-2.971600	3.217600	-9.560300	27.194279	0.000350	20.840417
2265.571157	-2.987700	3.215600	-9.606000	27.157955	0.000352	20.839444
2266.572758	-3.008900	3.215600	-9.674500	27.167108	0.000346	20.814511
2267.572376	-2.986900	3.215700	-9.604600	27.127538	0.000347	20.845361
2268.575069	-3.003300	3.214800	-9.653700	27.087961	0.000347	20.823101
2269.577822	-2.996100	3.214400	-9.630200	27.048210	0.000347	20.837652
2270.574825	-2.995100	3.214500	-9.626900	27.055325	0.000347	20.850971
2271.575650	-3.004200	3.212100	-9.648400	27.045804	0.000346	20.842344
2272.574103	-2.993200	3.213100	-9.616500	27.032400	0.000345	20.833132
2273.574741	-3.005800	3.210900	-9.650900	27.006621	0.000345	20.849407
2274.576663	-2.983200	3.213300	-9.584900	26.985202	0.000342	20.852997
2275.576843	-2.995800	3.210900	-9.617500	27.008476	0.000345	20.835152
2276.576602	-2.986000	3.211700	-9.588800	27.034139	0.000343	20.851950
2277.575657	-3.001700	3.211900	-9.640500	27.013271	0.000344	20.848508
2278.575092	-2.978100	3.211900	-9.564000	27.036007	0.000342	20.853354
2279.576422	-3.025200	3.208900	-9.706100	26.987719	0.000340	20.853631
2280.578811	-2.975700	3.209700	-9.549900	27.037342	0.000340	20.848058
2281.575689	-3.004600	3.208600	-9.640000	27.055760	0.000339	20.854253
2282.577310	-2.995600	3.209200	-9.612100	27.046900	0.000339	20.860990
2283.577103	-2.994800	3.208600	-9.607900	27.048339	0.000341	20.857221
2284.577034	-2.974900	3.209500	-9.546800	27.077270	0.000337	20.845540
2285.579521	-2.987200	3.208800	-9.584000	27.148368	0.000336	20.843552
2286.577839	-2.996700	3.205900	-9.606200	27.183027	0.000337	20.851858
2287.575832	-2.992200	3.206200	-9.593200	27.236027	0.000335	20.850165
2288.577080	-2.978300	3.204600	-9.543400	27.205930	0.000335	20.848816
2289.577301	-2.985000	3.206900	-9.571600	27.198039	0.000334	20.860793
2290.577746	-3.010000	3.204400	-9.643200	27.231557	0.000333	20.853256
2291.579046	-2.968200	3.206800	-9.518400	27.268871	0.000335	20.847640
2292.576970	-2.986500	3.205900	-9.573400	27.304597	0.000333	20.819567
2293.580020	-3.001700	3.203500	-9.613500	27.333074	0.000331	20.850109
2294.577814	-2.983000	3.203000	-9.553900	27.348262	0.000332	20.839783
2295.578288	-2.995000	3.202000	-9.589200	27.385369	0.000331	20.833490
2296.581338	-3.000000	3.203400	-9.610000	27.409731	0.000333	20.836187
2297.578507	-2.995800	3.200400	-9.586500	27.417590	0.000330	20.837929
2298.579493	-2.985300	3.202800	-9.560100	27.406236	0.000330	20.848318
2299.577122	-3.010000	3.199600	-9.630000	27.422432	0.000330	20.835214
2300.579098	-3.013600	3.200900	-9.644000	27.424911	0.000328	20.839130
2301.579006	-3.011700	3.201500	-9.641100	27.412632	0.000329	20.833416
2302.580435	-3.041800	3.198300	-9.727700	27.421692	0.000328	20.840633
2303.579040	-3.002400	3.197800	-9.599900	27.384408	0.000329	20.837739
2304.578699	-3.013900	3.197500	-9.636100	27.399662	0.000328	20.800928
2305.578880	-3.015800	3.196400	-9.638600	27.417964	0.000325	20.825503
2306.580652	-2.982200	3.197100	-9.533800	27.411592	0.000325	20.829999
2307.582949	-3.005700	3.196100	-9.605800	27.416256	0.000324	20.833268
2308.580314	-2.997900	3.198000	-9.585600	27.405342	0.000324	20.836988
2309.581755	-2.982300	3.196100	-9.530100	27.349205	0.000325	20.820343
2310.583687	-3.012600	3.194600	-9.622500	27.338786	0.000323	20.807966
2311.590338	-3.012500	3.193000	-9.618000	27.290609	0.000321	20.826360
2312.583905	-2.995500	3.194600	-9.567600	27.235035	0.000321	20.826409
2313.583694	-2.981500	3.194600	-9.523600	27.233296	0.000321	20.817548
2314.582208	-2.993900	3.193400	-9.559400	27.255629	0.000321	20.818201
2315.588655	-2.988500	3.194600	-9.547000	27.288357	0.000320	20.837370
2316.583003	-3.015200	3.190700	-9.619900	27.277295	0.000320	20.818183
2317.593642	-3.002300	3.191400	-9.579600	27.268045	0.000321	20.811249
2318.584974	-2.990700	3.193200	-9.548400	27.314258	0.000318	20.818854
2319.582909	-3.021900	3.189200	-9.636200	27.322528	0.000315	20.812949
2320.585877	-3.004800	3.190200	-9.584700	27.352946	0.000319	20.800874
2321.589414	-3.007600	3.189900	-9.593200	27.380339	0.000316	20.805197
2322.586675	-2.997700	3.189400	-9.560400	27.372051	0.000316	20.795436
2323.587446	-2.995900	3.190700	-9.557700	27.391406	0.000315	20.800209
2324.588362	-2.994200	3.188500	-9.545400	27.397386	0.000317	20.799587
2325.585255	-2.977600	3.187900	-9.491100	27.394932	0.000314	20.806127
2326.584825	-3.005400	3.186300	-9.576200	27.316249	0.000312	20.792882
2327.587511	-3.010500	3.186200	-9.590700	27.310470	0.000311	20.798923
2328.585845	-3.005500	3.185900	-9.573200	27.299133	0.000314	20.785148
2329.591730	-3.004400	3.187500	-9.575200	27.290239	0.000312	20.800383
2330.592448	-2.983500	3.185700	-9.503600	27.347916	0.000312	20.806245
2331.598889	-3.044400	3.183200	-9.688100	27.334455	0.000312	20.779902
2332.585689	-3.009300	3.182700	-9.576200	27.297046	0.000312	20.784471
2333.588243	-3.011200	3.183400	-9.585300	27.246933	0.000313	20.789539
2334.598104	-2.996400	3.185600	-9.544400	27.163102	0.000310	20.804793
2335.586429	-2.999700	3.182900	-9.546300	27.106015	0.000311	20.776301
2336.590992	-2.987400	3.183200	-9.508600	27.046017	0.000309	20.766694
2337.589001	-2.997900	3.182000	-9.538000	27.002395	0.000310	20.781147
2338.587975	-3.014300	3.181200	-9.587200	26.983217	0.000308	20.768499
2339.597527	-2.985400	3.180500	-9.493900	26.981742	0.000309	20.761326
2340.590289	-2.977900	3.181000	-9.471100	26.996597	0.000305	20.805662
2341.589558	-2.978600	3.180100	-9.471700	27.031665	0.000305	20.786875
2342.590206	-3.018700	3.178800	-9.595000	27.074901	0.000305	20.775828
2343.591726	-2.988700	3.179000	-9.499800	27.127899	0.000305	20.780767
2344.593674	-2.983000	3.179100	-9.482400	27.182843	0.000304	20.766801
2345.598086	-3.006400	3.177600	-9.551600	27.248571	0.000304	20.774117
2346.592463	-2.989300	3.176300	-9.493200	27.284445	0.000304	20.789339
2347.600065	-3.010800	3.176400	-9.563000	27.277307	0.000302	20.773625
2348.599444	-2.986800	3.177400	-9.489400	27.267108	0.000304	20.771426
2349.593043	-3.008000	3.175200	-9.549800	27.225136	0.000302	20.777098
2350.595688	-2.989900	3.174800	-9.490200	27.215219	0.000303	20.772338
2351.594824	-3.009300	3.173900	-9.550100	27.176906	0.000299	20.788330
2352.594903	-3.018700	3.172900	-9.577200	27.143618	0.000301	20.757221
2353.595702	-3.012400	3.172900	-9.556800	27.103221	0.000299	20.755946
2354.596235	-2.985300	3.174600	-9.475600	27.081785	0.000301	20.763785
2355.594788	-2.999900	3.172500	-9.516000	27.067396	0.000298	20.767807
2356.598202	-3.005300	3.172000	-9.531800	27.045537	0.000297	20.757677
2357.596706	-2.994000	3.172400	-9.497400	27.062884	0.000297	20.752837
2358.597680	-3.007800	3.171700	-9.539400	27.111678	0.000296	20.755442
2359.602985	-3.014800	3.169600	-9.554800	27.182662	0.000297	20.784637
2360.606305	-3.005000	3.168400	-9.519800	27.192660	0.000297	20.774304
2361.602317	-3.016300	3.168300	-9.555700	27.216659	0.000297	20.752924
2362.596611	-2.989200	3.167700	-9.467400	27.215790	0.000295	20.761058
2363.604260	-3.010400	3.168000	-9.536400	27.241472	0.000295	20.739475
2364.597763	-3.001900	3.167200	-9.506200	27.229467	0.000294	20.763910
2365.600419	-2.998000	3.167300	-9.494300	27.244772	0.000295	20.776934
2366.606341	-3.003700	3.164600	-9.504500	27.271997	0.000292	20.758325
2367.598312	-2.985900	3.166200	-9.452900	27.333243	0.000293	20.747862
2368.597010	-2.964400	3.165900	-9.384300	27.382661	0.000293	20.753004
2369.606605	-3.037400	3.163800	-9.607100	27.386640	0.000292	20.755585
2370.600773	-3.015900	3.162500	-9.536300	27.424193	0.000292	20.740731
2371.604288	-2.978500	3.163600	-9.421200	27.423305	0.000292	20.762125
2372.604270	-3.008000	3.161300	-9.508500	27.443872	0.000290	20.757211
2373.604417	-3.004300	3.162600	-9.500500	27.459376	0.000289	20.760481
2374.598185	-2.994100	3.162400	-9.467600	27.468257	0.000289	20.763252
2375.598371	-3.002300	3.160900	-9.489000	27.453225	0.000289	20.763776
2376.597710	-3.008100	3.160300	-9.504900	27.437672	0.000290	20.743860
2377.602304	-2.992500	3.158700	-9.451600	27.450966	0.000289	20.757710
2378.604007	-3.021000	3.158300	-9.539700	27.462926	0.000288	20.746034
2379.598027	-3.007700	3.158100	-9.497300	27.503163	0.000287	20.760438
2380.598963	-3.013400	3.156300	-9.509800	27.535705	0.000286	20.753350
2381.601603	-2.993400	3.155400	-9.445000	27.556465	0.000288	20.756694
2382.601829	-2.985900	3.155700	-9.421300	27.563736	0.000286	20.739353
2383.599392	-2.986900	3.155300	-9.423500	27.534720	0.000287	20.755205
2384.601919	-2.993400	3.155700	-9.444900	27.483369	0.000286	20.744791
2385.601183	-2.988800	3.154700	-9.427600	27.501983	0.000287	20.742655
2386.603233	-2.995000	3.154200	-9.444900	27.523735	0.000285	20.737512
2387.611177	-2.974300	3.154200	-9.380300	27.511230	0.000284	20.751011
2388.603419	-2.980400	3.153100	-9.395700	27.529065	0.000285	20.749040
2389.604343	-2.998700	3.152600	-9.452200	27.528056	0.000284	20.755137
2390.606433	-3.001300	3.153000	-9.462400	27.562685	0.000283	20.758210
2391.605421	-2.998600	3.150500	-9.445000	27.597557	0.000281	20.757736
2392.607474	-2.989300	3.150300	-9.416300	27.622532	0.000281	20.749201
2393.602395	-2.991500	3.149000	-9.419600	27.630176	0.000282	20.749306
2394.610540	-2.982700	3.149500	-9.392700	27.626015	0.000280	20.743222
2395.612918	-2.986800	3.149200	-9.406100	27.654477	0.000280	20.727291
2396.605598	-3.002000	3.146400	-9.444300	27.628475	0.000281	20.746173
2397.606571	-3.007300	3.146500	-9.462200	27.627551	0.000280	20.752355
2398.606287	-2.994100	3.146800	-9.419900	27.646553	0.000279	20.740181
2399.611404	-2.987600	3.145800	-9.396500	27.588801	0.000281	20.745132
2400.607438	-2.994700	3.143900	-9.413900	27.574217	0.000278	20.753692
2401.606217	-3.010400	3.143000	-9.460200	27.523621	0.000277	20.751623
2402.611047	-3.008300	3.142700	-9.452700	27.461020	0.000278	20.742220
2403.608930	-3.024600	3.140600	-9.497800	27.407965	0.000279	20.729147
2404.610250	-2.982900	3.142400	-9.372800	27.394352	0.000278	20.733470
2405.620297	-3.017900	3.141200	-9.478700	27.382226	0.000277	20.728384
2406.614021	-3.023300	3.139200	-9.490000	27.396666	0.000277	20.741014
2407.606746	-3.010100	3.139600	-9.448500	27.413909	0.000274	20.732757
2408.610928	-2.999200	3.137700	-9.409600	27.422026	0.000275	20.736655
2409.606445	-3.013900	3.139200	-9.459200	27.431606	0.000273	20.721161
2410.609944	-3.016400	3.137400	-9.462600	27.485627	0.000275	20.744217
2411.612974	-2.995100	3.137800	-9.396900	27.512852	0.000275	20.742211
2412.611042	-3.002200	3.136700	-9.416000	27.539048	0.000273	20.729685
2413.612765	-3.002500	3.134900	-9.410600	27.585090	0.000275	20.735235
2414.607313	-3.003500	3.134800	-9.413600	27.612838	0.000274	20.755568
2415.612602	-2.993100	3.134300	-9.380800	27.598138	0.000274	20.735087
2416.611905	-2.986400	3.134000	-9.358000	27.554172	0.000271	20.741585
2417.607979	-3.021800	3.132800	-9.464700	27.526490	0.000273	20.735543
2418.609534	-3.018100	3.130600	-9.447100	27.498214	0.000272	20.731276
2419.614120	-3.004200	3.131200	-9.406600	27.463939	0.000272	20.737096
2420.616411	-3.000000	3.130100	-9.389100	27.424778	0.000272	20.726147
2421.608800	-2.990200	3.129800	-9.358100	27.382157	0.000272	20.730685
2422.612797	-2.984400	3.129000	-9.337300	27.389429	0.000272	20.722353
2423.608714	-3.005700	3.127300	-9.397800	27.363659	0.000272	20.729146
2424.608171	-3.029100	3.126700	-9.469600	27.359515	0.000271	20.726400
2425.618543	-3.023300	3.126400	-9.451600	27.397944	0.000270	20.716695
2426.610206	-2.973400	3.127200	-9.297600	27.440712	0.000269	20.711830
2427.612669	-3.001800	3.123500	-9.374700	27.442395	0.000268	20.737706
2428.608946	-2.985800	3.124000	-9.326100	27.470152	0.000269	20.718690
2429.613433	-2.998300	3.123400	-9.364500	27.489702	0.000270	20.734092
2430.608710	-3.001300	3.122000	-9.368300	27.514306	0.000270	20.714274
2431.621839	-3.012600	3.121200	-9.401900	27.541119	0.000270	20.736986
2432.620694	-2.974300	3.121900	-9.284400	27.559743	0.000270	20.722532
2433.610633	-2.972700	3.120200	-9.274400	27.526430	0.000267	20.718412
2434.612525	-2.997400	3.120000	-9.349900	27.528866	0.000268	20.742202
2435.610161	-2.972900	3.119000	-9.271200	27.550171	0.000269	20.728075
2436.612950	-2.980300	3.118100	-9.291600	27.566138	0.000268	20.714268
2437.614274	-2.983700	3.117200	-9.299900	27.626285	0.000268	20.721682
2438.611607	-2.984300	3.116200	-9.299000	27.666712	0.000266	20.739129
2439.613453	-2.999300	3.113600	-9.337000	27.679085	0.000268	20.734984
2440.615963	-2.989000	3.114000	-9.306400	27.705074	0.000267	20.721307
2441.613471	-3.002900	3.114200	-9.351000	27.678712	0.000267	20.730815
2442.612810	-3.022600	3.111900	-9.405300	27.673584	0.000267	20.711903
2443.614181	-3.000600	3.111700	-9.335700	27.653591	0.000266	20.704113
2444.614550	-3.003000	3.110500	-9.338100	27.607932	0.000268	20.711749
2445.613161	-2.989600	3.110700	-9.298800	27.558703	0.000264	20.696828
2446.612024	-2.989100	3.109900	-9.294000	27.512837	0.000265	20.710425
2447.617311	-2.998100	3.107600	-9.315700	27.489720	0.000263	20.728419
2448.614670	-2.990000	3.108600	-9.293100	27.446060	0.000265	20.713892
2449.612792	-2.993200	3.105300	-9.293800	27.403740	0.000266	20.712568
2450.619153	-3.014800	3.105700	-9.361600	27.434124	0.000263	20.728911
2451.613761	-2.989300	3.106000	-9.283900	27.475256	0.000264	20.716712
2452.612693	-2.986400	3.104100	-9.269100	27.543682	0.000263	20.708743
2453.612689	-3.003500	3.103200	-9.319300	27.608519	0.000263	20.716133
2454.619307	-3.003200	3.102300	-9.316300	27.584412	0.000264	20.717482
2455.615047	-2.995000	3.101700	-9.288200	27.566107	0.000261	20.712340
2456.627858	-3.011400	3.099100	-9.331900	27.542593	0.000264	20.713811
2457.617745	-2.997400	3.098600	-9.286500	27.521093	0.000262	20.701661
2458.614479	-2.986400	3.099300	-9.254000	27.552612	0.000262	20.710141
2459.624546	-2.976000	3.097700	-9.217800	27.577766	0.000261	20.722174
2460.622546	-3.011000	3.097500	-9.325900	27.604229	0.000261	20.698065
2461.618733	-2.989800	3.096800	-9.257800	27.598923	0.000259	20.715487
2462.628762	-2.986200	3.096000	-9.243600	27.602050	0.000260	20.715789
2463.619983	-3.024900	3.094500	-9.358900	27.640960	0.000260	20.711317
2464.617769	-2.988800	3.093100	-9.242900	27.665127	0.000259	20.700073
2465.625757	-2.992000	3.093200	-9.253700	27.685982	0.000262	20.690238
2466.623075	-2.988800	3.093500	-9.244900	27.690541	0.000259	20.687239
2467.617965	-3.007300	3.090500	-9.292500	27.645941	0.000260	20.722020
2468.616745	-2.990600	3.090300	-9.241200	27.591536	0.000258	20.684344
2469.617448	-2.981900	3.089600	-9.211000	27.621842	0.000258	20.697769
2470.617425	-3.000100	3.087900	-9.262900	27.625905	0.000260	20.712765
2471.629453	-2.991400	3.088100	-9.236500	27.649026	0.000259	20.709002
2472.624535	-2.995700	3.087000	-9.246300	27.642024	0.000259	20.720450
2473.618938	-3.018600	3.083600	-9.306600	27.659564	0.000257	20.690681
2474.619229	-3.002500	3.084500	-9.260200	27.633940	0.000258	20.705202
2475.618058	-3.015300	3.082200	-9.292900	27.639626	0.000258	20.706656
2476.620507	-2.997900	3.083500	-9.242700	27.587589	0.000258	20.713091
2477.624544	-3.000800	3.082000	-9.247500	27.577246	0.000256	20.696519
2478.621510	-2.988900	3.080500	-9.206400	27.525439	0.000257	20.696550
2479.629170	-3.010700	3.079200	-9.269000	27.522304	0.000257	20.707622
2480.626183	-2.998000	3.078700	-9.229400	27.554950	0.000256	20.694475
2481.623839	-2.987200	3.077600	-9.192400	27.572184	0.000256	20.707074
2482.623693	-2.982400	3.076600	-9.175100	27.596340	0.000256	20.692497
2483.627241	-2.989300	3.076900	-9.197100	27.643811	0.000255	20.672458
2484.625853	-2.993500	3.073800	-9.200600	27.723835	0.000256	20.682810
2485.625426	-3.019300	3.073300	-9.278000	27.751188	0.000258	20.708915
2486.626049	-3.002500	3.073700	-9.226600	27.796597	0.000254	20.712413
2487.627722	-3.001400	3.072200	-9.219400	27.820729	0.000256	20.692602
2488.628066	-2.985500	3.070800	-9.167700	27.845448	0.000257	20.688556
2489.626224	-2.994000	3.069800	-9.190400	27.862555	0.000256	20.701981
2490.627841	-2.970800	3.068900	-9.114900	27.854375	0.000254	20.685212
2491.626617	-2.995800	3.067200	-9.187300	27.838859	0.000254	20.677182
2492.627276	-2.972000	3.066100	-9.111800	27.813093	0.000255	20.653145
2493.627090	-2.979700	3.066000	-9.135300	27.788765	0.000257	20.688883
2494.627329	-2.983400	3.063900	-9.139000	27.809226	0.000253	20.678654
2495.627270	-3.006900	3.063700	-9.211100	27.735634	0.000256	20.690891
2496.630401	-3.003700	3.061600	-9.194600	27.703710	0.000255	20.683895
2497.628169	-2.970600	3.063500	-9.100000	27.711898	0.000254	20.686919
2498.632631	-3.009300	3.059400	-9.205400	27.680530	0.000255	20.674793
2499.629405	-2.990700	3.059700	-9.149200	27.694617	0.000253	20.684228
2500.631092	-3.012400	3.056600	-9.206800	27.751808	0.000253	20.672552
2501.629325	-2.992300	3.056800	-9.146000	27.779135	0.000254	20.684881
2502.633401	-3.006600	3.055600	-9.185300	27.849750	0.000255	20.690041
2503.633185	-3.023100	3.053800	-9.231100	27.863297	0.000253	20.666689
2504.629349	-3.019200	3.054400	-9.219800	27.884149	0.000253	20.681038
2505.631075	-2.984900	3.054400	-9.115300	27.844801	0.000253	20.686957
2506.629104	-2.999900	3.052800	-9.157200	27.848668	0.000252	20.682313
2507.634205	-3.001800	3.050100	-9.154200	27.839943	0.000253	20.659305
2508.629330	-3.006200	3.049300	-9.165600	27.828416	0.000252	20.693227
2509.632611	-3.000800	3.047300	-9.143400	27.856757	0.000253	20.679074
2510.631562	-2.966700	3.048400	-9.042600	27.855473	0.000254	20.690585
2511.630371	-3.016300	3.045600	-9.185900	27.846944	0.000251	20.684371
2512.630685	-3.018400	3.045200	-9.190500	27.815807	0.000252	20.674370
2513.631104	-3.008800	3.045000	-9.160100	27.854457	0.000252	20.671543
2514.636203	-3.007200	3.042500	-9.148400	27.865244	0.000253	20.686668
2515.632657	-2.981800	3.041700	-9.069000	27.881562	0.000252	20.678909
2516.636057	-2.997300	3.040000	-9.110200	27.833497	0.000252	20.677949
2517.632366	-2.999300	3.038800	-9.113400	27.802646	0.000252	20.673928
2518.634384	-2.995200	3.038800	-9.100900	27.810460	0.000251	20.670411
2519.637129	-3.009600	3.037800	-9.142100	27.819687	0.000252	20.673060
2520.634211	-2.998400	3.036000	-9.102700	27.810564	0.000250	20.677155
2521.633438	-2.990300	3.034800	-9.074600	27.803204	0.000251	20.682550
2522.636612	-3.003000	3.034800	-9.112800	27.795170	0.000249	20.675413
2523.633725	-2.992900	3.032100	-9.074100	27.782351	0.000251	20.688118
2524.633924	-3.022300	3.031800	-9.161600	27.773797	0.000251	20.673818
2525.638063	-3.033200	3.029300	-9.187200	27.811220	0.000251	20.659795
2526.635583	-3.021800	3.027100	-9.146600	27.861680	0.000251	20.698729
2527.634635	-3.026900	3.027100	-9.161100	27.890400	0.000251	20.659352
2528.636529	-2.993900	3.026100	-9.058900	27.890406	0.000251	20.683544
2529.635859	-3.004200	3.023700	-9.082700	27.881498	0.000253	20.686906
2530.636446	-3.010500	3.024500	-9.103500	27.912119	0.000251	20.677896
2531.638559	-3.019100	3.022400	-9.124800	27.919186	0.000251	20.667937
2532.636136	-2.996600	3.022500	-9.056000	27.927812	0.000251	20.672353
2533.635231	-3.032000	3.019300	-9.152900	27.911850	0.000249	20.664822
2534.636241	-3.002600	3.019500	-9.065200	27.891666	0.000251	20.665370
2535.637279	-2.979500	3.020000	-8.996700	27.837041	0.000251	20.681043
2536.637118	-2.993400	3.017900	-9.033300	27.828756	0.000249	20.648045
2537.639240	-2.998000	3.015600	-9.039700	27.833321	0.000250	20.657856
2538.635256	-2.978800	3.014400	-8.978000	27.855384	0.000251	20.675795
2539.635261	-2.995800	3.013300	-9.025700	27.861833	0.000249	20.659051
2540.642538	-2.985800	3.012100	-8.993100	27.883302	0.000250	20.646043
2541.635545	-3.014500	3.010300	-9.072300	27.896095	0.000251	20.664137
2542.636051	-3.016500	3.009900	-9.078500	27.867835	0.000248	20.685957
2543.635179	-3.017000	3.006900	-9.070800	27.841097	0.000250	20.663786
2544.637672	-2.988000	3.007100	-8.984400	27.833834	0.000250	20.653631
2545.636406	-3.001600	3.006800	-9.024300	27.784438	0.000248	20.671250
2546.639019	-2.995500	3.004500	-8.998500	27.794632	0.000250	20.658749
2547.636135	-2.986000	3.003300	-8.966500	27.863289	0.000249	20.681381
2548.635638	-2.996600	3.001200	-8.991700	27.932914	0.000250	20.666582
2549.638430	-2.981200	3.001300	-8.945900	27.965443	0.000249	20.668029
2550.637313	-2.986900	3.000000	-8.959100	27.991303	0.000247	20.690267
2551.641330	-3.006500	2.997300	-9.011200	27.993738	0.000250	20.676122
2552.639324	-3.019200	2.997100	-9.047500	27.950791	0.000248	20.660867
2553.638956	-3.022500	2.994800	-9.049900	27.906313	0.000248	20.663989
2554.639582	-2.977800	2.994800	-8.916600	27.881846	0.000249	20.677773
2555.638797	-2.994800	2.992400	-8.960700	27.870222	0.000250	20.686463
2556.640113	-2.988100	2.992700	-8.941600	27.895460	0.000249	20.681991
2557.639454	-2.997900	2.989300	-8.960600	27.927494	0.000249	20.670136
2558.637779	-2.999600	2.988800	-8.964500	27.956433	0.000247	20.653268
2559.639913	-2.978500	2.987900	-8.898900	27.932805	0.000248	20.677379
2560.639763	-3.018400	2.984600	-9.007300	27.953857	0.000249	20.661583
2561.641087	-2.991600	2.984800	-8.928500	27.974089	0.000249	20.688588
2562.642693	-2.983400	2.984800	-8.903700	27.986588	0.000249	20.672243
2563.640936	-3.025600	2.980400	-9.016000	28.001191	0.000247	20.662759
2564.640725	-3.007600	2.981000	-8.964400	28.009792	0.000246	20.675212
2565.647326	-2.998900	2.980400	-8.936800	28.001117	0.000248	20.664108
2566.644687	-3.020400	2.978100	-8.994400	28.016166	0.000249	20.664558
2567.643305	-2.995300	2.977800	-8.918000	28.007443	0.000249	20.671899
2568.642766	-3.025400	2.974900	-8.999500	28.017140	0.000248	20.675022
2569.640481	-2.989500	2.974700	-8.892300	28.018626	0.000248	20.684105
2570.640528	-3.012000	2.971400	-8.949500	28.057129	0.000248	20.675921
2571.641173	-2.978700	2.972800	-8.853900	28.063228	0.000248	20.671154
2572.643606	-3.010500	2.969400	-8.938800	28.093991	0.000249	20.673673
2573.640741	-3.013900	2.968400	-8.945700	28.100139	0.000247	20.671801
2574.648011	-2.989300	2.969000	-8.873800	28.103216	0.000248	20.695289
2575.649018	-2.996700	2.964800	-8.883300	28.084284	0.000249	20.678601
2576.645715	-3.008100	2.963900	-8.915000	28.066470	0.000248	20.686747
2577.644044	-2.998200	2.962000	-8.879900	28.057080	0.000249	20.669233
2578.640353	-2.983200	2.961100	-8.833000	28.068612	0.000249	20.675151
2579.642707	-2.999700	2.959700	-8.877300	28.071034	0.000249	20.687073
2580.643587	-2.999000	2.959200	-8.873800	28.065479	0.000249	20.694759
2581.641211	-3.013600	2.956900	-8.909500	28.072220	0.000247	20.674990
2582.642683	-3.005700	2.955000	-8.881500	28.072440	0.000248	20.690386
2583.648117	-2.999000	2.954600	-8.859900	28.076881	0.000247	20.680157
2584.640275	-2.987000	2.952900	-8.819200	28.068898	0.000248	20.671646
2585.647237	-3.010400	2.950400	-8.880900	28.055978	0.000248	20.689936
2586.641577	-3.009000	2.947400	-8.867400	28.038892	0.000248	20.688858
2587.645381	-2.997500	2.947000	-8.833000	27.960794	0.000249	20.673308
2588.649994	-2.999300	2.946200	-8.836200	27.961241	0.000247	20.687984
2589.648338	-2.987000	2.944500	-8.794100	28.021635	0.000248	20.670062
2590.642658	-3.016300	2.943700	-8.876700	28.077699	0.000249	20.691887
2591.652109	-3.003500	2.940700	-8.831800	28.084146	0.000247	20.687946
2592.644109	-3.003700	2.939600	-8.829300	28.132856	0.000247	20.688617
2593.645424	-2.995800	2.937900	-8.800200	28.148245	0.000249	20.689885
2594.645917	-3.011500	2.935300	-8.838800	28.160118	0.000249	20.679551
2595.647848	-3.014800	2.935100	-8.847600	28.181881	0.000250	20.683443
2596.645182	-2.952900	2.935800	-8.667900	28.206884	0.000247	20.702927
2597.645238	-2.995500	2.932300	-8.782500	28.234946	0.000248	20.692298
2598.651165	-2.998100	2.930100	-8.782700	28.269277	0.000245	20.683239
2599.649406	-3.004100	2.929400	-8.799200	28.249075	0.000246	20.686608
2600.647686	-2.989100	2.927100	-8.748200	28.242799	0.000248	20.687402
2601.647851	-2.996100	2.927200	-8.769300	28.187226	0.000247	20.702576
2602.648324	-3.006200	2.925500	-8.793800	28.104980	0.000248	20.694220
2603.647717	-2.989800	2.922200	-8.735400	28.067023	0.000246	20.680191
2604.649509	-3.025700	2.919600	-8.832400	28.092207	0.000247	20.697957
2605.662794	-3.003300	2.920800	-8.770300	28.094489	0.000248	20.696935
2606.652910	-3.014300	2.917000	-8.790500	28.071409	0.000247	20.693616
2607.667228	-2.983000	2.916800	-8.699800	28.109677	0.000247	20.714596
2608.649005	-3.005800	2.913700	-8.756300	28.151400	0.000245	20.710132
2609.653152	-2.995000	2.912700	-8.722400	28.163353	0.000248	20.681385
2610.650367	-2.979300	2.910400	-8.670200	28.210168	0.000246	20.696275
2611.651128	-2.982400	2.909500	-8.675800	28.207757	0.000248	20.713290
2612.648820	-2.996600	2.908800	-8.714400	28.237435	0.000248	20.709029
2613.653697	-3.021100	2.904600	-8.772900	28.255550	0.000247	20.698818
2614.650810	-2.990300	2.905400	-8.686000	28.212663	0.000245	20.685035
2615.654160	-3.021100	2.903000	-8.769200	28.185793	0.000246	20.696392
2616.651795	-3.013200	2.901000	-8.739700	28.216161	0.000246	20.697094
2617.649966	-3.001200	2.898400	-8.698100	28.205323	0.000248	20.703252
2618.651149	-3.025100	2.895700	-8.758400	28.203230	0.000248	20.688816
2619.654003	-3.021800	2.895400	-8.748000	28.175125	0.000248	20.698928
2620.654417	-3.005700	2.893700	-8.696800	28.133965	0.000246	20.718658
2621.656243	-2.982500	2.893400	-8.628400	28.146381	0.000248	20.728314
2622.654382	-3.008000	2.889200	-8.690200	28.145262	0.000245	20.720548
2623.655685	-3.021000	2.886700	-8.719500	28.135713	0.000248	20.706667
2624.657135	-2.981000	2.886700	-8.604500	28.119846	0.000246	20.687847
2625.655926	-3.007500	2.884100	-8.672700	28.099781	0.000247	20.701315
2626.655787	-2.997100	2.883100	-8.639500	28.116737	0.000248	20.721231
2627.656301	-2.995800	2.879900	-8.626000	28.099328	0.000245	20.713662
2628.655851	-2.968100	2.881200	-8.550400	28.120841	0.000246	20.720620
2629.655077	-2.988700	2.876400	-8.595500	28.139381	0.000247	20.708463
2630.655726	-3.023700	2.874900	-8.691800	28.193262	0.000248	20.704860
2631.655002	-3.009000	2.873100	-8.643900	28.179953	0.000246	20.731766
2632.657842	-2.989800	2.871200	-8.582600	28.173352	0.000246	20.721801
2633.658655	-3.015800	2.867800	-8.646700	28.191298	0.000249	20.701460
2634.658016	-3.012900	2.866600	-8.635700	28.213103	0.000246	20.722940
2635.656880	-3.018800	2.863700	-8.643900	28.197028	0.000247	20.692055
2636.659860	-3.003900	2.863100	-8.599100	28.182159	0.000247	20.710278
2637.656723	-2.997100	2.861700	-8.576000	28.168549	0.000247	20.710327
2638.657435	-2.994200	2.861000	-8.565500	28.159661	0.000248	20.720345
2639.656311	-2.999000	2.857100	-8.567600	28.169869	0.000248	20.731572
2640.657504	-3.018300	2.855900	-8.619200	28.174970	0.000247	20.729120
2641.660359	-2.991900	2.854100	-8.537600	28.200696	0.000247	20.708551
2642.659631	-2.998600	2.851100	-8.548400	28.186322	0.000246	20.733437
2643.659967	-2.993000	2.849900	-8.529100	28.219375	0.000247	20.732100
2644.660488	-3.007200	2.848600	-8.565100	28.252537	0.000246	20.718071
2645.659882	-3.018100	2.845600	-8.587500	28.273796	0.000246	20.725251
2646.661773	-3.011100	2.844000	-8.562000	28.323610	0.000246	20.730836
2647.659885	-2.994500	2.842100	-8.508900	28.320251	0.000246	20.723661
2648.659691	-3.005700	2.838100	-8.528800	28.296485	0.000246	20.722491
2649.662683	-2.986200	2.837500	-8.472600	28.260241	0.000249	20.721561
2650.663939	-2.986600	2.835400	-8.467000	28.258749	0.000248	20.753250
2651.662886	-2.981100	2.834500	-8.448100	28.269856	0.000246	20.744518
2652.670015	-2.980900	2.831200	-8.437900	28.262656	0.000246	20.751495
2653.663680	-3.026900	2.827200	-8.556300	28.255268	0.000247	20.737891
2654.666314	-3.001300	2.826500	-8.481900	28.226460	0.000246	20.733069
2655.673727	-3.025100	2.824100	-8.542100	28.242173	0.000246	20.741776
2656.665968	-3.004800	2.821300	-8.476400	28.264569	0.000246	20.735876
2657.670421	-2.998200	2.820300	-8.454500	28.269481	0.000246	20.750779
2658.673470	-3.042400	2.816700	-8.566800	28.298525	0.000247	20.734029
2659.668944	-3.006300	2.814600	-8.460200	28.326003	0.000246	20.752213
2660.681709	-3.025100	2.812400	-8.507000	28.360232	0.000246	20.742582
2661.667509	-2.973600	2.810900	-8.357600	28.405113	0.000248	20.744626
2662.671850	-3.013900	2.808100	-8.462400	28.393188	0.000246	20.754904
2663.673306	-3.022700	2.804700	-8.475400	28.422456	0.000246	20.730321
2664.676777	-2.994100	2.802800	-8.391000	28.403168	0.000246	20.752625
2665.668089	-3.018800	2.800200	-8.451600	28.390656	0.000247	20.746664
2666.671868	-3.025600	2.796900	-8.461000	28.375954	0.000244	20.744188
2667.671038	-3.008200	2.794500	-8.405300	28.361894	0.000246	20.731927
2668.673697	-3.012500	2.791500	-8.408100	28.347070	0.000247	20.763943
2669.679254	-3.000800	2.790400	-8.372800	28.421372	0.000248	20.754361
2670.672657	-2.993100	2.786300	-8.338900	28.438017	0.000246	20.753104
2671.671973	-2.983700	2.784600	-8.307300	28.400250	0.000247	20.768179
2672.671189	-2.990300	2.782400	-8.319000	28.432422	0.000247	20.768807
2673.671833	-3.017600	2.778400	-8.383800	28.428991	0.000246	20.753972
2674.678818	-3.008600	2.775600	-8.348900	28.364529	0.000246	20.763979
2675.678899	-3.008600	2.774400	-8.345300	28.380386	0.000248	20.753393
2676.673694	-3.007600	2.769700	-8.328700	28.342268	0.000247	20.750098
2677.671650	-2.998500	2.768100	-8.299400	28.365391	0.000247	20.753467
2678.672222	-3.018700	2.764300	-8.343900	28.344665	0.000246	20.761521
2679.678069	-2.994000	2.760500	-8.262700	28.387517	0.000246	20.755357
2680.682353	-3.005700	2.758100	-8.289100	28.405055	0.000247	20.762112
2681.674459	-3.013200	2.756300	-8.304000	28.439135	0.000247	20.747591
2682.681027	-3.018700	2.752900	-8.309500	28.434713	0.000248	20.763528
2683.676528	-2.995500	2.750800	-8.237600	28.483309	0.000246	20.771213
2684.676656	-3.017600	2.745000	-8.281700	28.512274	0.000249	20.756286
2685.676488	-3.000600	2.743600	-8.231300	28.538958	0.000249	20.768934
2686.678093	-3.008400	2.740000	-8.241600	28.560658	0.000246	20.780357
2687.676189	-3.020300	2.735800	-8.261600	28.560976	0.000247	20.775935
2688.676599	-3.028900	2.732100	-8.275000	28.588453	0.000247	20.774685
2689.677889	-2.977900	2.731600	-8.134000	28.609412	0.000248	20.776353
2690.680630	-3.024700	2.727400	-8.248700	28.638845	0.000247	20.766168
2691.677550	-2.972100	2.724700	-8.097100	28.666290	0.000248	20.803768
2692.677538	-2.985800	2.721600	-8.125200	28.704867	0.000246	20.755853
2693.679579	-3.008000	2.718200	-8.176100	28.698545	0.000246	20.784099
2694.677885	-3.012800	2.713500	-8.174200	28.708718	0.000247	20.763051
2695.687414	-2.986500	2.710500	-8.093500	28.712031	0.000246	20.779191
2696.688451	-3.008100	2.707800	-8.143800	28.717784	0.000246	20.783089
2697.682489	-2.994400	2.703100	-8.093900	28.734198	0.000246	20.781130
2698.688109	-3.000900	2.698900	-8.097900	28.702506	0.000247	20.780502
2699.686165	-3.005800	2.695500	-8.100500	28.712935	0.000246	20.776782
2700.686329	-2.976500	2.693100	-8.015000	28.736741	0.000246	20.787959
2701.685348	-3.019500	2.687900	-8.113400	28.736832	0.000246	20.794689
2702.681617	-2.993700	2.684800	-8.036200	28.698818	0.000247	20.761140
2703.682383	-2.981700	2.682200	-7.996500	28.699931	0.000246	20.772692
2704.686074	-2.992900	2.678800	-8.016000	28.709810	0.000245	20.790704
2705.682308	-3.017700	2.673900	-8.068400	28.752793	0.000247	20.777575
2706.684813	-2.987200	2.669500	-7.972400	28.775485	0.000247	20.791424
2707.687382	-2.987600	2.665200	-7.961600	28.827751	0.000245	20.774847
2708.683822	-3.004600	2.660300	-7.992200	28.869415	0.000244	20.773671
2709.693968	-2.995600	2.658400	-7.961300	28.905082	0.000245	20.781152
2710.684681	-3.001700	2.652200	-7.960000	28.898168	0.000247	20.818758
2711.691572	-2.992800	2.647500	-7.922800	28.952188	0.000248	20.802532
2712.691077	-2.974300	2.645000	-7.866300	28.962585	0.000247	20.798782
2713.685315	-2.986700	2.638800	-7.880500	28.997784	0.000246	20.799157
2714.687362	-2.984900	2.634600	-7.862500	28.968868	0.000246	20.792309
2715.693550	-2.973000	2.631900	-7.823600	28.948111	0.000247	20.804588
2716.684063	-3.004500	2.626100	-7.888700	28.926162	0.000248	20.804760
2717.683561	-3.013700	2.620400	-7.896600	28.960390	0.000247	20.774285
2718.692453	-3.008000	2.617600	-7.872300	28.981470	0.000247	20.794575
2719.685616	-2.980900	2.610900	-7.781600	29.019211	0.000247	20.797512
2720.694491	-2.987000	2.605400	-7.781300	29.064461	0.000247	20.790000
2721.687553	-3.046300	2.600300	-7.919500	29.054768	0.000246	20.791139
2722.684509	-3.018000	2.596500	-7.835300	29.002263	0.000245	20.813153
2723.687048	-2.996400	2.590700	-7.761700	28.986824	0.000249	20.808503
2724.689303	-3.005800	2.585700	-7.771300	28.934748	0.000248	20.798712
2725.688938	-2.978100	2.581100	-7.685800	28.900513	0.000247	20.818275
2726.693488	-3.011200	2.574400	-7.750900	28.865782	0.000247	20.812210
2727.692070	-3.006000	2.569500	-7.723000	28.806005	0.000246	20.796563
2728.696500	-3.005600	2.563100	-7.702700	28.746615	0.000247	20.814500
2729.691523	-2.993100	2.559800	-7.659700	28.783307	0.000247	20.824433
2730.697086	-3.024900	2.553300	-7.723100	28.796187	0.000249	20.800898
2731.689072	-3.016700	2.547700	-7.684600	28.808168	0.000247	20.837148
2732.696982	-3.017700	2.540600	-7.665400	28.846795	0.000248	20.809205
2733.693064	-3.004600	2.534400	-7.613900	28.897573	0.000250	20.807252
2734.691579	-2.962200	2.531200	-7.496400	28.906766	0.000248	20.803238
2735.694022	-2.981100	2.523300	-7.521900	28.945450	0.000248	20.800011
2736.696058	-3.018400	2.515100	-7.590900	28.955504	0.000248	20.819149
2737.698605	-2.975700	2.511600	-7.473000	28.991761	0.000248	20.813003
2738.691436	-2.974300	2.505600	-7.451500	28.958964	0.000251	20.813625
2739.691211	-2.993600	2.499600	-7.482000	28.948139	0.000248	20.815996
