LabVIEW Measurement	
Writer_Version	2
Reader_Version	2
Separator	Tab
Decimal_Separator	.
Multi_Headings	No
X_Columns	One
Time_Pref	Absolute
Operator	admin
Description	Clolumns are: time, Current, Voltage, Power, Battery Temp, and Chamber Temp
Date	2024/08/16
Time	13:06:06.104549407958984375
***End_of_Header***	
	
Channels	6						
Samples	1	1	1	1	1	1	
Date	2024/09/11	2024/09/11	2024/09/11	2024/09/11	2024/09/11	2024/09/11	
Time	09:14:27.0222415924072265625	09:14:27.0282449722290039063	09:14:27.0341248512268066406	09:14:27.0043735504150390625	09:14:27.0043735504150390625	09:14:27.0043735504150390625	
X_Dimension	Time	Time	Time	Time	Time	Time	
X0	0.0000000000000000E+0	0.0000000000000000E+0	0.0000000000000000E+0	0.0000000000000000E+0	0.0000000000000000E+0	0.0000000000000000E+0	
Delta_X	1.000000	1.000000	1.000000	1.000000	1.000000	1.000000	
***End_of_Header***							
X_Value	Untitled	Untitled 1	Untitled 2	Untitled 3	Untitled 4	Untitled 5	Comment
0.000000	0.026526	4.095000	0.108530	20.960751	0.000902	20.696655
0.997755	-3.022300	3.917800	-11.840000	20.953018	0.000903	20.736339
1.996651	-3.012200	3.911500	-11.781000	20.941910	0.000902	20.702942
3.002259	-3.001000	3.906300	-11.722000	20.946274	0.000902	20.691659
4.000058	-3.003500	3.902800	-11.721000	20.944124	0.000900	20.680973
5.004830	-2.993400	3.898600	-11.669000	20.952780	0.000900	20.697692
6.003372	-2.975800	3.896900	-11.596000	20.963929	0.000900	20.693195
6.999208	-2.966200	3.895700	-11.554000	20.941124	0.000898	20.685559
8.000114	-3.005600	3.892200	-11.696000	20.961608	0.000897	20.693718
9.002915	-3.021200	3.890000	-11.752000	20.960953	0.000897	20.702073
10.001302	-3.020500	3.888100	-11.742000	20.960430	0.000896	20.705818
10.999890	-3.016200	3.886600	-11.721000	20.961951	0.000896	20.719193
12.005927	-3.018600	3.884400	-11.723000	20.957210	0.000896	20.707338
13.000714	-2.992600	3.883600	-11.621000	20.937756	0.000894	20.714436
14.002747	-3.015600	3.881900	-11.705000	20.964428	0.000893	20.728784
15.003759	-2.978200	3.880100	-11.554000	20.960953	0.000893	20.709660
16.002027	-2.999900	3.880200	-11.639000	20.983211	0.000893	20.720542
17.003750	-3.003500	3.878000	-11.647000	20.999999	0.000892	20.708409
18.002927	-2.992200	3.878600	-11.605000	20.986316	0.000890	20.701835
19.002188	-2.997600	3.876700	-11.620000	20.989013	0.000891	20.707379
20.006505	-2.988600	3.876400	-11.584000	20.991237	0.000890	20.713396
21.002496	-2.996300	3.874800	-11.608000	21.022403	0.000890	20.691935
22.006047	-2.982400	3.874500	-11.554000	21.012790	0.000890	20.705555
23.002419	-2.997700	3.874100	-11.613000	21.006676	0.000891	20.721727
24.005947	-3.006900	3.871500	-11.639000	21.020996	0.000889	20.707599
25.010064	-2.982300	3.871400	-11.545000	21.046571	0.000891	20.700462
26.012031	-2.992000	3.871100	-11.581000	21.042680	0.000888	20.723125
27.008961	-2.992300	3.871000	-11.582000	21.037294	0.000888	20.720582
28.008037	-2.995500	3.868900	-11.589000	21.052700	0.000888	20.711335
29.009070	-3.016400	3.868800	-11.669000	21.021740	0.000886	20.709765
30.007996	-2.983100	3.868400	-11.538000	21.056346	0.000887	20.725413
31.014192	-2.979700	3.868800	-11.527000	21.058364	0.000887	20.722691
32.010627	-2.977200	3.867600	-11.514000	21.077824	0.000888	20.713231
33.014406	-3.021600	3.864700	-11.675000	21.085385	0.000887	20.699455
34.013021	-2.983200	3.867500	-11.535000	21.095266	0.000885	20.697011
35.011271	-2.990200	3.866200	-11.560000	21.082565	0.000886	20.710860
36.015178	-3.000900	3.864900	-11.598000	21.103667	0.000888	20.712528
37.012866	-3.025100	3.862400	-11.683000	21.106879	0.000885	20.720008
38.011750	-3.016100	3.862800	-11.651000	21.115304	0.000887	20.706624
39.011891	-2.998500	3.862200	-11.579000	21.126387	0.000884	20.708701
40.012561	-2.999900	3.864100	-11.591000	21.125913	0.000885	20.721030
41.012633	-2.996800	3.863600	-11.576000	21.124130	0.000884	20.732998
42.014871	-2.992200	3.863100	-11.558000	21.141874	0.000884	20.699536
43.012115	-3.006300	3.861600	-11.607000	21.180464	0.000886	20.712061
44.012823	-2.995600	3.859700	-11.560000	21.172308	0.000884	20.729507
45.015353	-2.986800	3.862100	-11.534000	21.154189	0.000884	20.724185
46.015168	-2.996400	3.860900	-11.567000	21.157351	0.000884	20.723080
47.015871	-3.011000	3.858500	-11.617000	21.209173	0.000882	20.708062
48.013597	-2.976100	3.861000	-11.490000	21.187843	0.000881	20.734142
49.021926	-3.014800	3.860100	-11.636000	21.179425	0.000882	20.726195
50.014533	-3.018600	3.858000	-11.645000	21.196718	0.000883	20.729743
51.014816	-3.017800	3.858200	-11.641000	21.209580	0.000884	20.743085
52.019044	-3.006500	3.857400	-11.595000	21.246281	0.000881	20.714365
53.016628	-2.979200	3.856700	-11.489000	21.243233	0.000882	20.739766
54.015168	-2.985600	3.856800	-11.515000	21.239890	0.000882	20.734051
55.014827	-2.985300	3.858600	-11.518000	21.251486	0.000883	20.686379
56.017847	-3.008800	3.855000	-11.598000	21.245578	0.000881	20.712713
57.017715	-3.001400	3.856700	-11.574000	21.271695	0.000880	20.719401
58.015914	-2.961100	3.857200	-11.420000	21.270249	0.000883	20.731705
59.021752	-3.014900	3.855500	-11.624000	21.279465	0.000882	20.724329
60.017892	-2.994200	3.855200	-11.541000	21.259690	0.000884	20.726358
61.018140	-3.004700	3.855300	-11.583000	21.296552	0.000883	20.715819
62.023297	-2.994300	3.853400	-11.537000	21.304037	0.000882	20.732791
63.023410	-2.994600	3.853400	-11.539000	21.302264	0.000883	20.733388
64.022049	-3.018200	3.852200	-11.626000	21.308621	0.000882	20.735006
65.019443	-3.002300	3.852800	-11.566000	21.321491	0.000882	20.737925
66.019569	-2.983000	3.853900	-11.495000	21.333135	0.000883	20.736772
67.023606	-3.003500	3.852000	-11.569000	21.351389	0.000882	20.734172
68.026666	-3.001300	3.851400	-11.558000	21.348872	0.000883	20.726912
69.022182	-2.997800	3.851700	-11.546000	21.358898	0.000882	20.724140
70.025573	-3.009700	3.851600	-11.591000	21.360663	0.000880	20.744399
71.023544	-2.974300	3.852100	-11.456000	21.387700	0.000886	20.700324
72.022648	-3.005400	3.851300	-11.573000	21.382454	0.000883	20.708826
73.027268	-2.997200	3.851300	-11.541000	21.370083	0.000882	20.735332
74.032908	-3.019300	3.849500	-11.621000	21.385126	0.000883	20.748960
75.026758	-2.980500	3.850900	-11.477000	21.406354	0.000882	20.740801
76.025695	-2.982400	3.850900	-11.483000	21.418871	0.000881	20.722504
77.023953	-2.975000	3.849800	-11.452000	21.419737	0.000882	20.736173
78.025301	-2.997200	3.849000	-11.536000	21.425097	0.000882	20.738691
79.024996	-2.997500	3.850100	-11.539000	21.435743	0.000883	20.742705
80.025731	-2.980400	3.850000	-11.473000	21.427286	0.000882	20.720018
81.025328	-2.990700	3.849100	-11.509000	21.447557	0.000881	20.751207
82.027199	-3.005700	3.848100	-11.565000	21.454518	0.000882	20.738257
83.029199	-2.981200	3.848600	-11.472000	21.477182	0.000885	20.740072
84.027706	-2.981600	3.848900	-11.475000	21.454861	0.000882	20.737177
85.042875	-3.010000	3.846900	-11.578000	21.474486	0.000881	20.737373
86.032649	-2.989100	3.849000	-11.503000	21.497779	0.000883	20.749301
87.031182	-3.017000	3.846500	-11.604000	21.511962	0.000883	20.736939
88.031712	-3.007200	3.847600	-11.569000	21.516079	0.000882	20.748173
89.034406	-3.022700	3.845900	-11.623000	21.520818	0.000885	20.739163
90.029154	-2.997600	3.847500	-11.532000	21.517615	0.000883	20.745915
91.028128	-3.012100	3.845300	-11.580000	21.520965	0.000884	20.739784
92.028757	-3.014800	3.846300	-11.595000	21.537051	0.000885	20.732647
93.031239	-3.015900	3.845500	-11.597000	21.537149	0.000884	20.761670
94.039704	-2.983100	3.845200	-11.469000	21.527639	0.000885	20.747886
95.032085	-2.968600	3.845000	-11.413000	21.556724	0.000883	20.730521
96.036874	-3.001700	3.844600	-11.539000	21.551781	0.000884	20.747861
97.029933	-3.018500	3.844000	-11.602000	21.585873	0.000885	20.741672
98.030966	-2.996400	3.844600	-11.519000	21.577197	0.000886	20.733939
99.029577	-3.016800	3.844400	-11.597000	21.564199	0.000885	20.764081
100.035628	-2.989700	3.844900	-11.494000	21.614932	0.000886	20.741828
101.035573	-3.017000	3.842200	-11.591000	21.603673	0.000885	20.746684
102.031042	-3.015200	3.842000	-11.583000	21.608045	0.000886	20.731143
103.032753	-2.994400	3.843800	-11.510000	21.604597	0.000886	20.749978
104.032261	-2.992800	3.842900	-11.498000	21.610380	0.000887	20.757663
105.033681	-2.984700	3.844200	-11.472000	21.625298	0.000886	20.761211
106.030635	-2.997200	3.841500	-11.512000	21.643016	0.000887	20.752864
107.032004	-2.995200	3.843500	-11.511000	21.643694	0.000887	20.761129
108.044290	-2.984300	3.842800	-11.466000	21.643343	0.000887	20.755562
109.036491	-3.008400	3.842700	-11.559000	21.650997	0.000887	20.766067
110.035879	-2.986100	3.843100	-11.474000	21.677187	0.000889	20.752447
111.037328	-3.023000	3.841400	-11.611000	21.659281	0.000887	20.774357
112.034096	-2.986800	3.841300	-11.473000	21.672400	0.000888	20.761407
113.034115	-3.025700	3.841600	-11.622000	21.677350	0.000890	20.746446
114.032764	-2.976400	3.842100	-11.433000	21.676631	0.000888	20.757581
115.038047	-3.026400	3.840300	-11.620000	21.679376	0.000889	20.746103
116.037944	-3.009400	3.840000	-11.555000	21.720301	0.000889	20.755766
117.035500	-3.003000	3.840100	-11.530000	21.699945	0.000888	20.772852
118.034830	-2.998000	3.841000	-11.515000	21.713504	0.000891	20.758447
119.036994	-3.016000	3.838600	-11.575000	21.756968	0.000891	20.758324
120.048304	-2.996200	3.839500	-11.502000	21.757442	0.000892	20.758799
121.037830	-2.995300	3.840300	-11.501000	21.741579	0.000893	20.759518
122.034274	-3.016100	3.838700	-11.577000	21.757760	0.000890	20.768600
123.043521	-3.010600	3.839600	-11.559000	21.772789	0.000892	20.756141
124.034633	-2.996600	3.838600	-11.501000	21.784951	0.000890	20.763572
125.035717	-2.990000	3.838800	-11.477000	21.787500	0.000892	20.751898
126.036768	-2.985800	3.838500	-11.458000	21.797220	0.000892	20.761152
127.041214	-2.990300	3.837700	-11.475000	21.795667	0.000890	20.776194
128.035200	-3.007500	3.836700	-11.538000	21.812248	0.000893	20.779513
129.034935	-3.007400	3.838000	-11.541000	21.828951	0.000891	20.761617
130.042897	-2.981000	3.838500	-11.442000	21.835568	0.000894	20.763972
131.035845	-3.005100	3.836900	-11.529000	21.827897	0.000892	20.770045
132.037015	-2.992700	3.836800	-11.482000	21.852882	0.000892	20.756172
133.038283	-2.992500	3.837800	-11.484000	21.813236	0.000892	20.764854
134.042201	-2.959800	3.837800	-11.358000	21.841611	0.000895	20.768598
135.036602	-3.011000	3.834000	-11.543000	21.864120	0.000895	20.786862
136.040766	-3.013300	3.835100	-11.555000	21.853747	0.000896	20.778850
137.039393	-3.013900	3.835200	-11.557000	21.842827	0.000896	20.777877
138.038279	-2.986600	3.836400	-11.456000	21.843521	0.000897	20.772882
139.040093	-3.003500	3.835200	-11.518000	21.860428	0.000895	20.761829
140.037863	-3.012300	3.834400	-11.549000	21.896880	0.000898	20.774607
141.037787	-3.005200	3.834600	-11.523000	21.893188	0.000897	20.786559
142.041384	-3.006600	3.834900	-11.529000	21.900064	0.000896	20.798184
143.042749	-3.025400	3.832500	-11.594000	21.893408	0.000897	20.786305
144.042243	-3.014700	3.834200	-11.557000	21.913957	0.000897	20.771786
145.041864	-3.008100	3.833300	-11.530000	21.927988	0.000900	20.757381
146.044941	-3.008000	3.834100	-11.532000	21.944583	0.000898	20.792485
147.043443	-2.997500	3.834100	-11.492000	21.950129	0.000900	20.800407
148.046358	-2.995100	3.833300	-11.480000	21.973583	0.000899	20.785953
149.044925	-2.988700	3.833100	-11.454000	21.964265	0.000901	20.791799
150.042184	-3.013600	3.831700	-11.546000	21.956458	0.000899	20.767388
151.043045	-3.009500	3.831200	-11.530000	21.992399	0.000901	20.762588
152.040523	-3.004000	3.831000	-11.506000	22.011394	0.000900	20.784449
153.039542	-3.013300	3.832500	-11.548000	21.978018	0.000902	20.764788
154.044332	-2.980500	3.831400	-11.419000	21.964199	0.000901	20.788414
155.044423	-2.996500	3.831600	-11.480000	21.983653	0.000905	20.794137
156.045346	-2.993000	3.831000	-11.465000	21.978614	0.000902	20.772497
157.045610	-3.004100	3.831200	-11.509000	21.992415	0.000903	20.768768
158.041803	-3.003000	3.831100	-11.504000	21.981389	0.000904	20.771008
159.043162	-2.994400	3.830900	-11.469000	22.008486	0.000903	20.787701
160.045089	-2.989300	3.830200	-11.448000	22.018057	0.000904	20.780687
161.049374	-3.013900	3.828600	-11.538000	22.018579	0.000904	20.798280
162.043270	-2.976300	3.830600	-11.399000	22.035279	0.000904	20.789393
163.046831	-3.016100	3.828300	-11.545000	22.055466	0.000907	20.798696
164.053579	-3.008700	3.828200	-11.516000	22.030534	0.000905	20.804557
165.045091	-3.014900	3.829600	-11.545000	22.070989	0.000906	20.794796
166.045714	-2.984600	3.830100	-11.431000	22.102680	0.000906	20.817988
167.049150	-2.995400	3.828100	-11.465000	22.088260	0.000905	20.810664
168.047386	-3.011600	3.828000	-11.527000	22.091967	0.000907	20.805840
169.046784	-2.988100	3.828800	-11.439000	22.124099	0.000910	20.792016
170.049121	-2.991600	3.827700	-11.449000	22.125878	0.000909	20.794746
171.046575	-2.989600	3.827600	-11.442000	22.119150	0.000909	20.794173
172.048011	-2.992600	3.826100	-11.448000	22.117582	0.000910	20.794975
173.047397	-2.991600	3.828100	-11.452000	22.128769	0.000909	20.790527
174.048427	-3.008700	3.827000	-11.513000	22.137816	0.000911	20.809068
175.050471	-2.994500	3.826900	-11.459000	22.159021	0.000911	20.780986
176.050224	-3.003900	3.825900	-11.492000	22.167439	0.000908	20.807906
177.048801	-2.985700	3.827200	-11.426000	22.189526	0.000912	20.796829
178.046179	-2.985800	3.825400	-11.420000	22.162981	0.000913	20.804391
179.048226	-2.974600	3.826100	-11.380000	22.197822	0.000912	20.798497
180.049830	-3.002000	3.825400	-11.483000	22.199545	0.000912	20.789791
181.049893	-3.002800	3.825500	-11.486000	22.209057	0.000914	20.795995
182.052987	-3.016800	3.825200	-11.538000	22.237568	0.000915	20.809369
183.048974	-3.012700	3.825000	-11.523000	22.234907	0.000914	20.810498
184.055256	-2.986900	3.825700	-11.425000	22.236148	0.000913	20.799886
185.050823	-3.012300	3.823800	-11.516000	22.247153	0.000915	20.805690
186.053090	-2.980600	3.824000	-11.397000	22.248280	0.000917	20.803025
187.051514	-2.985000	3.824400	-11.414000	22.287413	0.000915	20.812811
188.051745	-2.997300	3.825500	-11.465000	22.287585	0.000915	20.811086
189.049961	-2.999400	3.824400	-11.470000	22.302991	0.000918	20.799011
190.050608	-2.998400	3.824800	-11.467000	22.303187	0.000917	20.798733
191.053753	-3.012800	3.822400	-11.515000	22.308142	0.000919	20.829299
192.050232	-3.009300	3.821900	-11.500000	22.332463	0.000918	20.834212
193.055130	-3.007600	3.823600	-11.499000	22.321972	0.000918	20.814699
194.052320	-3.013500	3.822300	-11.518000	22.338962	0.000918	20.797571
195.051074	-2.996600	3.822300	-11.451000	22.326528	0.000921	20.797923
196.053125	-3.000200	3.822800	-11.468000	22.349975	0.000920	20.801487
197.054910	-3.009200	3.821300	-11.499000	22.368940	0.000919	20.798193
198.049636	-2.974200	3.822900	-11.369000	22.350971	0.000921	20.825244
199.052749	-3.008600	3.821700	-11.495000	22.331581	0.000921	20.813889
200.049943	-2.985200	3.822000	-11.408000	22.338055	0.000922	20.827957
201.053574	-3.003300	3.822300	-11.477000	22.318854	0.000923	20.812998
202.058175	-2.969900	3.821800	-11.349000	22.334773	0.000925	20.833206
203.051354	-2.974300	3.821800	-11.366000	22.355134	0.000923	20.796697
204.053788	-2.980200	3.821800	-11.389000	22.362980	0.000926	20.805501
205.052765	-2.999700	3.819600	-11.457000	22.344888	0.000923	20.819627
206.053579	-3.010600	3.820300	-11.501000	22.386230	0.000925	20.828309
207.056030	-2.994000	3.821100	-11.439000	22.360808	0.000926	20.835094
208.060143	-3.000900	3.819900	-11.461000	22.380613	0.000926	20.826951
209.057255	-3.010900	3.818600	-11.497000	22.385128	0.000926	20.811558
210.057074	-3.013600	3.818500	-11.507000	22.405390	0.000926	20.825684
211.055697	-2.996300	3.819700	-11.444000	22.434444	0.000926	20.832494
212.055986	-3.002600	3.817600	-11.462000	22.418990	0.000927	20.834562
213.061859	-2.991500	3.818000	-11.420000	22.453227	0.000928	20.834709
214.057181	-2.995000	3.819200	-11.437000	22.456239	0.000929	20.840570
215.063570	-2.996100	3.817600	-11.437000	22.471463	0.000931	20.810298
216.061273	-3.008800	3.818400	-11.487000	22.474655	0.000930	20.827719
217.058384	-2.996700	3.816200	-11.435000	22.485267	0.000931	20.853045
218.060266	-2.979100	3.817600	-11.372000	22.478370	0.000933	20.845189
219.057291	-2.989200	3.816900	-11.408000	22.485023	0.000931	20.851377
220.074439	-2.982100	3.818700	-11.386000	22.482451	0.000931	20.828414
221.057793	-3.000500	3.817200	-11.452000	22.474696	0.000936	20.828708
222.056433	-3.012100	3.815900	-11.493000	22.468712	0.000933	20.836940
223.060266	-3.008400	3.814800	-11.475000	22.459716	0.000933	20.843578
224.065946	-3.013900	3.815000	-11.497000	22.491136	0.000935	20.844697
225.061100	-2.988000	3.816100	-11.402000	22.488597	0.000934	20.836940
226.061551	-3.001100	3.815600	-11.450000	22.489969	0.000934	20.869606
227.061734	-3.010900	3.813900	-11.482000	22.520367	0.000935	20.835092
228.058786	-2.986800	3.815700	-11.394000	22.504735	0.000937	20.826075
229.064326	-2.994700	3.814400	-11.422000	22.542439	0.000937	20.863360
230.060009	-2.989000	3.815100	-11.401000	22.533615	0.000936	20.857368
231.059829	-3.004700	3.813900	-11.458000	22.538349	0.000937	20.852627
232.058881	-2.998600	3.814900	-11.437000	22.539876	0.000937	20.829026
233.063294	-3.021000	3.813300	-11.518000	22.559980	0.000940	20.860540
234.059066	-3.012100	3.813800	-11.486000	22.578125	0.000940	20.810437
235.065269	-3.021000	3.813600	-11.520000	22.584271	0.000940	20.860687
236.060636	-3.009900	3.812600	-11.475000	22.581373	0.000940	20.860629
237.063571	-2.999500	3.813500	-11.438000	22.591446	0.000938	20.852700
238.060895	-2.997400	3.811300	-11.423000	22.591723	0.000942	20.843970
239.064423	-2.992300	3.813200	-11.409000	22.584793	0.000941	20.865951
240.069920	-2.984600	3.812800	-11.379000	22.609860	0.000941	20.815668
241.063659	-2.983900	3.811500	-11.373000	22.594866	0.000943	20.834315
242.061675	-2.995700	3.812300	-11.418000	22.627555	0.000942	20.827228
243.067578	-2.997500	3.811100	-11.423000	22.603934	0.000945	20.841975
244.068331	-3.005700	3.811000	-11.454000	22.581128	0.000946	20.819608
245.065623	-2.998300	3.809500	-11.421000	22.587463	0.000945	20.817892
246.063291	-2.995900	3.810900	-11.416000	22.599396	0.000945	20.819412
247.065974	-3.002300	3.809600	-11.436000	22.614145	0.000945	20.818538
248.064208	-3.012000	3.810900	-11.476000	22.596629	0.000945	20.830865
249.064405	-3.032100	3.809200	-11.548000	22.610880	0.000945	20.822854
250.067453	-2.999100	3.810000	-11.425000	22.631889	0.000947	20.804068
251.063785	-3.015000	3.808400	-11.482000	22.637268	0.000948	20.820835
252.061178	-3.001300	3.809700	-11.433000	22.638101	0.000949	20.801281
253.066323	-3.005100	3.807300	-11.441000	22.619083	0.000949	20.827751
254.066774	-3.000000	3.810200	-11.430000	22.642597	0.000951	20.807207
255.067024	-3.011800	3.807800	-11.467000	22.648874	0.000949	20.820606
256.069445	-2.998100	3.809000	-11.419000	22.656179	0.000952	20.810379
257.066046	-2.986500	3.809500	-11.376000	22.654065	0.000951	20.826280
258.071352	-3.014400	3.808200	-11.478000	22.687764	0.000949	20.823050
259.067534	-2.971700	3.809700	-11.321000	22.689984	0.000952	20.806308
260.063220	-2.980300	3.807400	-11.347000	22.709155	0.000953	20.814130
261.068072	-3.021700	3.806300	-11.501000	22.717455	0.000954	20.821022
262.063144	-2.998700	3.807300	-11.416000	22.708037	0.000952	20.827235
263.067365	-2.996000	3.806300	-11.402000	22.706592	0.000954	20.807296
264.066526	-2.985700	3.806500	-11.363000	22.694652	0.000954	20.822837
265.067694	-2.988600	3.807400	-11.378000	22.722996	0.000956	20.810451
266.067098	-2.996000	3.805400	-11.400000	22.708999	0.000956	20.815871
267.070405	-2.998800	3.806000	-11.413000	22.735874	0.000956	20.813868
268.067891	-2.987300	3.806700	-11.371000	22.736763	0.000957	20.806698
269.063479	-2.991900	3.805900	-11.386000	22.763646	0.000958	20.798540
270.064241	-3.012800	3.804200	-11.460000	22.778311	0.000956	20.824609
271.065882	-3.006400	3.805200	-11.439000	22.783435	0.000958	20.801768
272.066692	-2.986500	3.805200	-11.363000	22.763539	0.000957	20.806968
273.072314	-3.012700	3.804300	-11.460000	22.768240	0.000961	20.801245
274.068742	-2.998700	3.804600	-11.408000	22.775071	0.000958	20.810932
275.065487	-2.993200	3.803400	-11.383000	22.736639	0.000960	20.797091
276.066024	-3.011500	3.802900	-11.451000	22.757295	0.000960	20.812093
277.067727	-3.002800	3.802600	-11.417000	22.761000	0.000962	20.822442
278.065689	-3.002600	3.802700	-11.417000	22.759351	0.000962	20.801350
279.069171	-3.016800	3.801800	-11.468000	22.772425	0.000962	20.811601
280.066252	-2.999000	3.802400	-11.402000	22.795496	0.000964	20.815272
281.067513	-3.021300	3.801900	-11.486000	22.797862	0.000964	20.799625
282.069045	-2.969500	3.802700	-11.291000	22.792174	0.000964	20.818582
283.065309	-3.030200	3.801400	-11.517000	22.822866	0.000963	20.799543
284.073112	-3.005500	3.799800	-11.420000	22.788134	0.000965	20.806949
285.068141	-3.000200	3.802100	-11.406000	22.817945	0.000965	20.805992
286.079262	-2.986600	3.801400	-11.351000	22.826195	0.000966	20.782015
287.075816	-3.017500	3.799300	-11.463000	22.822751	0.000967	20.814126
288.070938	-3.017500	3.800500	-11.466000	22.853043	0.000969	20.789470
289.074807	-3.004200	3.801000	-11.417000	22.836633	0.000967	20.786307
290.072632	-3.007600	3.799100	-11.425000	22.836502	0.000967	20.796607
291.073731	-3.008100	3.799400	-11.427000	22.833017	0.000965	20.781263
292.070104	-3.010900	3.799700	-11.440000	22.844621	0.000967	20.780085
293.077559	-2.988900	3.798900	-11.353000	22.867266	0.000970	20.796607
294.073646	-2.955300	3.800700	-11.231000	22.872073	0.000967	20.791939
295.075861	-2.978900	3.800100	-11.319000	22.864949	0.000969	20.790492
296.072519	-3.009400	3.797800	-11.428000	22.880494	0.000967	20.798005
297.072018	-2.991100	3.797500	-11.358000	22.847510	0.000969	20.799100
298.079610	-3.000700	3.797900	-11.394000	22.858576	0.000971	20.785530
299.070197	-2.996800	3.797600	-11.380000	22.881791	0.000971	20.797883
300.076075	-2.979300	3.798800	-11.315000	22.899245	0.000970	20.794506
301.073776	-2.990600	3.797600	-11.357000	22.889355	0.000971	20.787917
302.078604	-3.003300	3.795600	-11.397000	22.910784	0.000973	20.795160
303.072411	-2.994600	3.796400	-11.368000	22.926949	0.000973	20.796182
304.077594	-3.010600	3.797100	-11.430000	22.914301	0.000972	20.760751
305.078607	-3.013900	3.796800	-11.442000	22.922347	0.000974	20.786830
306.079211	-3.003100	3.793600	-11.390000	22.917981	0.000973	20.805215
307.073960	-3.009600	3.794200	-11.419000	22.894039	0.000974	20.816317
308.073631	-2.994800	3.796100	-11.367000	22.913150	0.000975	20.773349
309.076698	-2.989900	3.794300	-11.343000	22.892693	0.000974	20.778932
310.076190	-3.016400	3.792700	-11.439000	22.918625	0.000974	20.788792
311.075074	-2.994400	3.795200	-11.364000	22.912897	0.000977	20.775940
312.078029	-3.006300	3.795400	-11.409000	22.904263	0.000976	20.790050
313.077963	-3.001100	3.794000	-11.384000	22.920690	0.000976	20.777109
314.083035	-3.003700	3.793300	-11.393000	22.939669	0.000977	20.765304
315.078808	-2.992000	3.793500	-11.349000	22.949183	0.000977	20.767250
316.080106	-3.001100	3.792600	-11.381000	22.952014	0.000977	20.792846
317.074809	-2.999200	3.792200	-11.372000	22.989401	0.000979	20.757284
318.075427	-2.986500	3.793200	-11.327000	22.988830	0.000977	20.772833
319.078098	-2.998800	3.792000	-11.371000	23.003598	0.000980	20.765344
320.077515	-2.991400	3.792000	-11.343000	22.982474	0.000981	20.782112
321.077120	-3.007000	3.791600	-11.400000	22.977928	0.000980	20.781351
322.077999	-2.994200	3.790700	-11.349000	22.992656	0.000980	20.796107
323.078657	-2.991100	3.792200	-11.342000	22.967745	0.000981	20.785373
324.084601	-2.991200	3.791400	-11.340000	22.989433	0.000983	20.763005
325.082101	-3.019100	3.790600	-11.443000	22.996980	0.000983	20.779577
326.077686	-3.005300	3.790100	-11.389000	22.989702	0.000981	20.755214
327.078293	-3.017200	3.789200	-11.431000	23.024672	0.000982	20.749949
328.079525	-3.007600	3.789800	-11.397000	23.030196	0.000985	20.781563
329.076395	-2.989900	3.790300	-11.331000	23.065238	0.000983	20.766888
330.081217	-2.993800	3.790900	-11.349000	23.074678	0.000984	20.781088
331.077176	-2.988300	3.789900	-11.325000	23.087699	0.000983	20.779911
332.077803	-2.997600	3.789600	-11.359000	23.088939	0.000986	20.762661
333.077594	-3.020800	3.788700	-11.443000	23.107769	0.000986	20.761615
334.077352	-2.989300	3.788900	-11.326000	23.104979	0.000983	20.768302
335.078047	-3.011700	3.787500	-11.406000	23.098550	0.000986	20.740048
336.079062	-3.014800	3.787000	-11.416000	23.113365	0.000985	20.776706
337.079860	-2.995900	3.787900	-11.347000	23.115478	0.000988	20.760331
338.077529	-3.003700	3.786300	-11.372000	23.134381	0.000988	20.773109
339.077529	-3.021900	3.786200	-11.440000	23.135801	0.000989	20.766944
340.081455	-2.991700	3.786900	-11.329000	23.136559	0.000990	20.772446
341.077620	-3.007200	3.786900	-11.387000	23.112271	0.000989	20.775609
342.077792	-3.017600	3.786900	-11.425000	23.140491	0.000986	20.752678
343.078432	-2.998300	3.786500	-11.352000	23.149188	0.000990	20.751435
344.078426	-3.024000	3.784700	-11.442000	23.156750	0.000991	20.792679
345.078978	-3.008500	3.786600	-11.391000	23.171336	0.000990	20.766044
346.081903	-2.989000	3.785200	-11.313000	23.199253	0.000990	20.768415
347.079791	-3.005300	3.783900	-11.371000	23.169606	0.000990	20.757198
348.080723	-3.020100	3.783600	-11.426000	23.206668	0.000992	20.763992
349.082511	-2.989600	3.784700	-11.313000	23.198567	0.000991	20.780530
350.079051	-2.995300	3.784800	-11.335000	23.213537	0.000991	20.765659
351.080524	-3.021200	3.783700	-11.430000	23.198934	0.000993	20.751025
352.080107	-3.006900	3.784500	-11.378000	23.219377	0.000992	20.756813
353.078314	-2.995000	3.784200	-11.332000	23.188940	0.000993	20.752390
354.081868	-2.999500	3.782200	-11.344000	23.176564	0.000993	20.736669
355.081196	-3.023200	3.781700	-11.430000	23.170544	0.000995	20.749602
356.081102	-2.974800	3.782500	-11.251000	23.141868	0.000993	20.753583
357.083858	-3.008800	3.782200	-11.378000	23.164082	0.000994	20.748343
358.085097	-2.983800	3.782900	-11.287000	23.199292	0.000996	20.770351
359.085910	-3.004700	3.780200	-11.357000	23.179868	0.000994	20.751834
360.081354	-3.007000	3.782000	-11.371000	23.202024	0.000995	20.753648
361.085063	-2.977600	3.782400	-11.262000	23.185913	0.000995	20.742244
362.087597	-3.018800	3.780100	-11.410000	23.199161	0.000995	20.732286
363.084735	-3.000200	3.781200	-11.342000	23.198468	0.000997	20.758619
364.085086	-2.992100	3.780300	-11.309000	23.226555	0.000995	20.743617
365.085263	-3.001100	3.780400	-11.345000	23.221488	0.000996	20.755136
366.088447	-2.991900	3.780900	-11.311000	23.246296	0.000996	20.750599
367.083183	-2.987500	3.779300	-11.289000	23.277726	0.000998	20.760761
368.082495	-2.992600	3.779700	-11.310000	23.278966	0.000996	20.755839
369.082906	-2.988500	3.778800	-11.292000	23.284986	0.000996	20.764717
370.084058	-2.997800	3.778100	-11.324000	23.299155	0.000998	20.724862
371.092506	-2.990700	3.780100	-11.303000	23.275646	0.000997	20.746821
372.086987	-2.992600	3.778000	-11.304000	23.283656	0.000999	20.751530
373.084814	-2.999500	3.776700	-11.327000	23.282865	0.000998	20.757375
374.089460	-2.990600	3.777500	-11.297000	23.283460	0.000999	20.724306
375.085077	-3.001200	3.776500	-11.333000	23.278802	0.001000	20.757097
376.087034	-2.983300	3.777900	-11.269000	23.324465	0.001001	20.752127
377.088741	-3.024100	3.775000	-11.414000	23.321202	0.001002	20.740321
378.084676	-3.014000	3.775800	-11.379000	23.339335	0.000998	20.743322
379.084836	-3.000900	3.776700	-11.332000	23.340746	0.001001	20.740468
380.089790	-3.031900	3.774900	-11.443000	23.354026	0.001000	20.749036
381.090578	-2.989700	3.775400	-11.287000	23.357696	0.001000	20.759827
382.092764	-2.993300	3.775200	-11.299000	23.366235	0.001002	20.760326
383.093176	-2.991500	3.774600	-11.290000	23.321594	0.001000	20.746878
384.088467	-2.998500	3.773600	-11.314000	23.329286	0.001002	20.732775
385.085183	-2.998800	3.774200	-11.316000	23.318698	0.001001	20.755829
386.093084	-3.019000	3.772600	-11.389000	23.319399	0.001003	20.725237
387.085902	-3.008800	3.773100	-11.352000	23.351814	0.001002	20.741130
388.084194	-3.012700	3.772700	-11.364000	23.349318	0.001003	20.750008
389.088687	-3.005100	3.771700	-11.334000	23.358242	0.001001	20.738089
390.087570	-3.012600	3.773700	-11.367000	23.345216	0.001003	20.739732
391.088598	-3.020700	3.772800	-11.396000	23.310475	0.001002	20.738105
392.088842	-3.001400	3.772100	-11.320000	23.334326	0.001001	20.738775
393.087066	-3.003500	3.772500	-11.329000	23.371708	0.001005	20.733093
394.087142	-3.010300	3.772600	-11.355000	23.379995	0.001003	20.732864
395.092157	-3.019600	3.770500	-11.384000	23.384766	0.001006	20.748078
396.093396	-3.007900	3.771500	-11.343000	23.413950	0.001003	20.738922
397.091414	-2.984300	3.772400	-11.257000	23.427538	0.001004	20.735946
398.092214	-2.993900	3.770900	-11.288000	23.419154	0.001005	20.749828
399.091594	-3.005400	3.771000	-11.332000	23.438842	0.001004	20.734474
400.090746	-3.023700	3.768900	-11.395000	23.442929	0.001004	20.732406
401.093903	-3.011400	3.770100	-11.353000	23.463318	0.001007	20.731981
402.094341	-2.998500	3.769800	-11.303000	23.463188	0.001007	20.726634
403.093376	-3.023600	3.766600	-11.387000	23.448825	0.001006	20.741636
404.096056	-3.003400	3.768100	-11.316000	23.461548	0.001006	20.725939
405.094648	-2.985800	3.769000	-11.253000	23.465324	0.001006	20.719766
406.089883	-3.013000	3.768100	-11.353000	23.433426	0.001009	20.726674
407.091628	-3.006000	3.767200	-11.323000	23.399301	0.001006	20.727084
408.092588	-2.996900	3.768100	-11.291000	23.391348	0.001006	20.732389
409.092903	-3.006600	3.766000	-11.321000	23.404643	0.001007	20.724851
410.090489	-3.019300	3.765200	-11.367000	23.419373	0.001007	20.722545
411.089622	-3.020000	3.765200	-11.370000	23.401469	0.001009	20.746802
412.093235	-3.000700	3.767400	-11.303000	23.404585	0.001008	20.730484
413.093423	-3.000200	3.766500	-11.299000	23.386274	0.001009	20.716871
414.093522	-2.978500	3.764800	-11.212000	23.397481	0.001010	20.738062
415.091177	-3.031200	3.765000	-11.411000	23.370311	0.001010	20.711778
416.096537	-3.023100	3.764200	-11.377000	23.408777	0.001011	20.723779
417.089697	-3.012100	3.764500	-11.337000	23.433205	0.001009	20.725030
418.093161	-2.994200	3.764600	-11.270000	23.418385	0.001011	20.709227
419.093963	-3.005100	3.763900	-11.310000	23.418996	0.001010	20.701304
420.093660	-2.991600	3.763900	-11.258000	23.412325	0.001011	20.725913
421.093163	-2.993300	3.764000	-11.266000	23.394919	0.001012	20.742133
422.094650	-3.012000	3.761200	-11.326000	23.396632	0.001012	20.727253
423.094636	-3.012400	3.761500	-11.330000	23.402333	0.001012	20.718742
424.096514	-2.973100	3.764800	-11.192000	23.415146	0.001011	20.726370
425.096587	-2.989900	3.763100	-11.250000	23.415970	0.001011	20.713919
426.096977	-3.024500	3.762200	-11.378000	23.430333	0.001011	20.710771
427.097470	-3.016300	3.760400	-11.341000	23.451449	0.001011	20.717712
428.094954	-2.999900	3.760400	-11.278000	23.455673	0.001013	20.720998
429.097766	-2.996800	3.760500	-11.267000	23.504461	0.001013	20.711105
430.098701	-2.992100	3.759600	-11.248000	23.527370	0.001013	20.700878
431.099490	-2.996100	3.760400	-11.265000	23.540263	0.001014	20.720916
432.099706	-3.009300	3.758400	-11.308000	23.531929	0.001012	20.732003
433.098394	-2.991300	3.759300	-11.245000	23.545417	0.001013	20.723712
434.096529	-2.996100	3.758500	-11.260000	23.551582	0.001012	20.715667
435.100140	-2.983500	3.760000	-11.217000	23.537963	0.001014	20.712920
436.097269	-3.013800	3.757500	-11.322000	23.520779	0.001013	20.722723
437.097430	-2.985500	3.759800	-11.224000	23.523944	0.001014	20.708824
438.099595	-2.990300	3.758900	-11.239000	23.516180	0.001014	20.714318
439.100209	-2.992000	3.758100	-11.243000	23.516425	0.001014	20.693225
440.098953	-2.980800	3.759200	-11.204000	23.527695	0.001014	20.700730
441.099467	-2.996400	3.757700	-11.257000	23.562746	0.001015	20.721643
442.100054	-3.007300	3.756700	-11.297000	23.539023	0.001015	20.711138
443.101979	-3.018600	3.756100	-11.337000	23.576643	0.001016	20.716133
444.100970	-3.007800	3.755900	-11.296000	23.605047	0.001014	20.709519
445.099216	-2.995000	3.756200	-11.249000	23.621796	0.001015	20.711612
446.108227	-3.005900	3.755400	-11.287000	23.607183	0.001015	20.705496
447.105646	-3.009200	3.754900	-11.298000	23.606335	0.001016	20.719346
448.100651	-2.985000	3.755100	-11.207000	23.582832	0.001016	20.693412
449.095264	-3.012400	3.754000	-11.308000	23.579326	0.001016	20.717400
450.101526	-3.014800	3.753800	-11.316000	23.556140	0.001017	20.705537
451.100485	-3.010100	3.755000	-11.302000	23.577254	0.001019	20.712004
452.096887	-2.998700	3.753200	-11.254000	23.592365	0.001017	20.698702
453.097085	-3.005800	3.753100	-11.279000	23.595334	0.001016	20.721120
454.098753	-2.994600	3.752800	-11.237000	23.561792	0.001018	20.712151
455.096799	-3.029300	3.752100	-11.364000	23.579521	0.001017	20.711432
456.102076	-2.982000	3.753800	-11.193000	23.592610	0.001017	20.721234
457.100232	-3.005700	3.751500	-11.276000	23.623982	0.001015	20.720915
458.100089	-3.012500	3.750900	-11.297000	23.588451	0.001018	20.710900
459.102598	-2.990900	3.751200	-11.218000	23.603195	0.001017	20.717146
460.100597	-2.993600	3.750800	-11.228000	23.598563	0.001015	20.711080
461.098628	-2.998900	3.750100	-11.245000	23.598506	0.001017	20.696797
462.102801	-3.002600	3.751000	-11.261000	23.610330	0.001018	20.726196
463.102283	-2.982200	3.751500	-11.187000	23.649758	0.001017	20.705030
464.096946	-3.003700	3.749200	-11.261000	23.643764	0.001020	20.698072
465.106052	-2.976600	3.749300	-11.159000	23.657839	0.001018	20.699854
466.104104	-2.979400	3.750000	-11.171000	23.660807	0.001019	20.693821
467.103919	-3.002300	3.748600	-11.253000	23.671326	0.001019	20.698203
468.108319	-3.021100	3.749000	-11.324000	23.666996	0.001022	20.717571
469.105589	-3.010600	3.747000	-11.279000	23.659633	0.001019	20.703550
470.106190	-3.019800	3.747800	-11.317000	23.677368	0.001019	20.712322
471.105784	-2.992600	3.747700	-11.214000	23.668537	0.001018	20.704890
472.102869	-3.005500	3.747100	-11.261000	23.647825	0.001019	20.683175
473.103558	-3.006500	3.746700	-11.262000	23.627088	0.001019	20.701268
474.110509	-2.996900	3.747800	-11.231000	23.620091	0.001020	20.693305
475.108376	-3.038200	3.744900	-11.376000	23.642287	0.001019	20.724569
476.113072	-3.006600	3.744400	-11.257000	23.658401	0.001020	20.707057
477.112910	-3.019600	3.743800	-11.304000	23.692445	0.001020	20.702306
478.111168	-3.002100	3.745400	-11.243000	23.691719	0.001020	20.715330
479.109553	-3.003500	3.744500	-11.245000	23.706225	0.001018	20.720865
480.115194	-2.995100	3.744400	-11.214000	23.740896	0.001022	20.727650
481.114337	-3.019600	3.744300	-11.306000	23.738980	0.001019	20.692062
482.106795	-3.005400	3.744800	-11.253000	23.732530	0.001021	20.706459
483.114846	-2.980500	3.744400	-11.159000	23.724417	0.001019	20.707334
484.111555	-2.992700	3.743900	-11.203000	23.734862	0.001019	20.712116
485.111980	-2.989000	3.742800	-11.186000	23.756559	0.001020	20.715378
486.114017	-3.005100	3.742200	-11.245000	23.759070	0.001022	20.706990
487.113364	-3.019300	3.742500	-11.299000	23.744507	0.001020	20.712304
488.109919	-3.015900	3.742100	-11.285000	23.785055	0.001020	20.706491
489.115581	-3.014000	3.742300	-11.279000	23.793625	0.001022	20.722671
490.109968	-3.011400	3.742100	-11.267000	23.814049	0.001021	20.716596
491.109879	-2.998900	3.740400	-11.215000	23.830640	0.001022	20.730862
492.119566	-3.008000	3.740400	-11.250000	23.850135	0.001020	20.721485
493.117963	-3.013000	3.739600	-11.267000	23.852670	0.001022	20.717863
494.113347	-3.007400	3.740100	-11.247000	23.848406	0.001021	20.724494
495.117490	-2.992100	3.742100	-11.195000	23.855874	0.001021	20.732931
496.113275	-3.013300	3.740200	-11.269000	23.856045	0.001022	20.725515
497.116075	-3.017700	3.738800	-11.282000	23.848789	0.001022	20.703539
498.115679	-3.007800	3.739300	-11.246000	23.866187	0.001020	20.722408
499.110638	-3.014400	3.738200	-11.267000	23.863399	0.001023	20.710603
500.115702	-3.005400	3.737900	-11.232000	23.869546	0.001024	20.713922
501.112410	-3.021900	3.738400	-11.296000	23.878547	0.001022	20.697342
502.111010	-3.000500	3.737400	-11.213000	23.881604	0.001021	20.706572
503.116294	-3.011600	3.737900	-11.256000	23.884041	0.001022	20.715181
504.118331	-2.992800	3.737900	-11.186000	23.854177	0.001023	20.728384
505.111669	-2.981500	3.737800	-11.143000	23.869627	0.001023	20.714003
506.116034	-3.009100	3.737400	-11.245000	23.836477	0.001023	20.703522
507.119182	-2.998200	3.735200	-11.198000	23.866937	0.001022	20.716047
508.116862	-3.004200	3.737300	-11.226000	23.877943	0.001022	20.721394
509.116934	-2.996900	3.735700	-11.194000	23.885818	0.001022	20.724075
510.114538	-2.993100	3.735900	-11.181000	23.882834	0.001023	20.723454
511.113985	-3.010000	3.734900	-11.241000	23.878546	0.001022	20.732431
512.116042	-2.999800	3.734400	-11.201000	23.857300	0.001022	20.718238
513.117658	-3.006800	3.733600	-11.224000	23.870205	0.001023	20.735447
514.118425	-3.007200	3.733200	-11.225000	23.862468	0.001021	20.721050
515.118946	-3.005300	3.734800	-11.223000	23.883250	0.001021	20.742838
516.123155	-2.997100	3.734100	-11.190000	23.884391	0.001024	20.716480
517.120418	-2.993700	3.734900	-11.180000	23.908931	0.001023	20.717854
518.120428	-3.001300	3.732400	-11.201000	23.926801	0.001020	20.713962
519.121801	-2.988600	3.732800	-11.155000	23.952057	0.001023	20.727909
520.117547	-2.977000	3.733700	-11.114000	23.937147	0.001023	20.725285
521.117598	-2.994300	3.732500	-11.175000	23.957405	0.001022	20.732324
522.119734	-3.002600	3.731400	-11.203000	23.958400	0.001022	20.731425
523.120599	-2.992000	3.730700	-11.161000	23.963870	0.001024	20.721737
524.123806	-2.990800	3.731300	-11.159000	23.956304	0.001024	20.740230
525.123545	-2.978700	3.732500	-11.117000	23.964269	0.001021	20.722612
526.121514	-3.009900	3.728500	-11.221000	23.945250	0.001023	20.735308
527.124573	-3.004600	3.730400	-11.207000	23.971484	0.001023	20.698076
528.126804	-2.975700	3.730600	-11.100000	23.969560	0.001022	20.733133
529.124273	-3.021900	3.728200	-11.265000	23.981282	0.001024	20.727819
530.123285	-3.002700	3.728300	-11.194000	24.011567	0.001025	20.729740
531.124306	-3.035700	3.727900	-11.315000	23.974581	0.001023	20.755714
532.123913	-3.015200	3.729300	-11.243000	23.957339	0.001022	20.732258
533.121960	-3.006600	3.728500	-11.209000	23.962361	0.001022	20.727811
534.129087	-3.013500	3.727900	-11.233000	23.992768	0.001022	20.733648
535.124587	-3.014200	3.726700	-11.232000	23.988513	0.001023	20.726061
536.124558	-2.981000	3.727300	-11.110000	23.962206	0.001022	20.739036
537.126172	-3.007600	3.727300	-11.209000	23.981339	0.001023	20.739730
538.125837	-3.003500	3.727900	-11.195000	23.986556	0.001021	20.732160
539.125307	-3.006500	3.727300	-11.205000	24.008501	0.001023	20.752745
540.124372	-3.002100	3.725800	-11.185000	24.003920	0.001022	20.731555
541.122861	-3.018500	3.725000	-11.242000	23.992311	0.001024	20.733190
542.121698	-3.007800	3.725900	-11.206000	24.005411	0.001023	20.756759
543.124809	-2.990300	3.725900	-11.140000	24.035059	0.001025	20.735757
544.123597	-2.990800	3.726900	-11.145000	24.006063	0.001023	20.735127
545.125647	-2.993500	3.725500	-11.150000	24.005386	0.001022	20.744406
546.125368	-3.006300	3.723700	-11.194000	24.062538	0.001024	20.746245
547.128657	-3.012800	3.724400	-11.219000	24.063059	0.001023	20.730646
548.124934	-3.026500	3.723600	-11.269000	24.074919	0.001024	20.757715
549.123890	-3.003700	3.723700	-11.184000	24.069914	0.001023	20.752695
550.125313	-3.006800	3.722700	-11.192000	24.056546	0.001022	20.751142
551.121389	-2.993600	3.724200	-11.148000	24.055396	0.001023	20.743825
552.126597	-3.018700	3.722500	-11.235000	24.037007	0.001023	20.750512
553.122014	-3.028500	3.721300	-11.268000	24.044514	0.001021	20.731962
554.126210	-3.017700	3.722600	-11.233000	24.024722	0.001024	20.755262
555.131904	-3.017100	3.720600	-11.224000	24.036908	0.001023	20.764165
556.124010	-3.007500	3.720800	-11.189000	24.045361	0.001023	20.767427
557.124149	-3.005900	3.721000	-11.184000	24.056904	0.001024	20.761933
558.127001	-3.005700	3.720600	-11.180000	24.082899	0.001022	20.750544
559.125810	-3.004200	3.720400	-11.176000	24.064297	0.001021	20.746113
560.128162	-3.026100	3.719100	-11.254000	24.091270	0.001022	20.758940
561.132830	-2.983900	3.719400	-11.097000	24.100220	0.001022	20.750372
562.131306	-3.006500	3.719800	-11.182000	24.113433	0.001024	20.750348
563.130024	-3.005400	3.719300	-11.177000	24.150861	0.001022	20.760861
564.134682	-2.997600	3.718900	-11.147000	24.124754	0.001023	20.764548
565.128465	-2.976200	3.720400	-11.072000	24.109772	0.001020	20.769437
566.131210	-2.962700	3.720100	-11.021000	24.075839	0.001022	20.769069
567.130783	-2.971700	3.719600	-11.052000	24.083411	0.001022	20.742049
568.130175	-2.978800	3.718200	-11.074000	24.090438	0.001022	20.774701
569.131195	-2.985000	3.718000	-11.097000	24.071225	0.001023	20.781985
570.136885	-3.001100	3.717900	-11.157000	24.089932	0.001020	20.759495
571.128901	-3.003500	3.717400	-11.163000	24.087601	0.001022	20.755735
572.127786	-2.995900	3.716700	-11.133000	24.091081	0.001022	20.755432
573.128494	-3.017000	3.715600	-11.209000	24.076743	0.001023	20.770924
574.129724	-2.993300	3.716400	-11.123000	24.064002	0.001024	20.760517
575.132953	-2.979000	3.715700	-11.068000	24.068795	0.001023	20.761531
576.141665	-2.986800	3.716000	-11.097000	24.042482	0.001021	20.761220
577.133859	-2.995500	3.714800	-11.126000	24.019095	0.001020	20.765741
578.132273	-2.981700	3.714500	-11.075000	24.040754	0.001021	20.772289
579.133529	-2.986200	3.714800	-11.090000	24.041048	0.001022	20.758833
580.135381	-3.000100	3.714300	-11.142000	24.049427	0.001021	20.775772
581.130320	-2.985300	3.714000	-11.085000	24.055859	0.001020	20.772265
582.134880	-2.997200	3.713800	-11.130000	24.088106	0.001022	20.777578
583.146109	-3.025500	3.711800	-11.228000	24.122267	0.001023	20.783865
584.132637	-3.024100	3.712300	-11.225000	24.113774	0.001020	20.764915
585.134318	-3.000400	3.713500	-11.141000	24.088684	0.001020	20.774840
586.138560	-2.994300	3.712500	-11.115000	24.094928	0.001019	20.766403
587.135057	-2.979200	3.712300	-11.058000	24.092507	0.001022	20.785786
588.135353	-2.988100	3.712400	-11.092000	24.074167	0.001021	20.774030
589.136867	-2.994000	3.710900	-11.109000	24.055345	0.001022	20.767482
590.133238	-3.003300	3.710900	-11.144000	24.085049	0.001021	20.773564
591.137080	-3.012300	3.710600	-11.175000	24.091969	0.001021	20.768651
592.137319	-3.013000	3.709200	-11.175000	24.116920	0.001019	20.783244
593.137105	-3.011100	3.710300	-11.171000	24.097806	0.001020	20.791100
594.138441	-3.003800	3.710200	-11.144000	24.084633	0.001018	20.782156
595.134721	-3.001500	3.710100	-11.135000	24.114687	0.001019	20.781952
596.135042	-3.016100	3.708000	-11.183000	24.123041	0.001020	20.768520
597.141477	-3.022900	3.709900	-11.214000	24.118363	0.001020	20.781372
598.136881	-3.003800	3.709400	-11.141000	24.144927	0.001022	20.778617
599.134980	-2.995200	3.709900	-11.111000	24.177546	0.001021	20.787152
600.135624	-3.015300	3.708500	-11.182000	24.195656	0.001018	20.794411
601.138575	-2.998000	3.708000	-11.116000	24.225764	0.001018	20.796635
602.131765	-3.012900	3.707500	-11.169000	24.239635	0.001020	20.779728
603.131977	-3.016300	3.707300	-11.181000	24.201883	0.001018	20.804924
604.140330	-3.008800	3.706400	-11.151000	24.230695	0.001018	20.788778
605.135710	-3.000200	3.706500	-11.120000	24.249913	0.001017	20.789563
606.136513	-2.970400	3.707300	-11.011000	24.263841	0.001019	20.802586
607.135717	-3.005600	3.705300	-11.136000	24.277802	0.001020	20.806159
608.144201	-3.003600	3.706000	-11.130000	24.299309	0.001020	20.796439
609.134631	-2.991500	3.706700	-11.087000	24.296147	0.001018	20.781413
610.135538	-2.979400	3.705800	-11.040000	24.340798	0.001017	20.800600
611.131235	-2.989900	3.706300	-11.080000	24.293694	0.001018	20.787487
612.135970	-3.020400	3.703000	-11.183000	24.292121	0.001015	20.779271
613.135936	-3.007200	3.704300	-11.139000	24.329854	0.001019	20.792466
614.137227	-2.986300	3.704200	-11.061000	24.331093	0.001018	20.795131
615.134208	-2.976800	3.704700	-11.028000	24.353634	0.001018	20.786923
616.136750	-2.994700	3.703500	-11.089000	24.380665	0.001018	20.777056
617.134257	-3.006300	3.701500	-11.127000	24.361856	0.001019	20.794223
618.139978	-2.999600	3.703400	-11.108000	24.374040	0.001018	20.797436
619.137769	-2.999200	3.702100	-11.102000	24.414556	0.001017	20.824806
620.134538	-2.975200	3.702500	-11.015000	24.417710	0.001017	20.802840
621.137188	-2.991200	3.700400	-11.067000	24.407231	0.001018	20.807500
622.138715	-3.023200	3.700600	-11.187000	24.392677	0.001019	20.815184
623.141243	-2.988400	3.700800	-11.058000	24.374594	0.001016	20.821226
624.137663	-2.978800	3.700300	-11.021000	24.347245	0.001017	20.798532
625.140354	-2.992200	3.700100	-11.069000	24.337336	0.001017	20.810876
626.140817	-3.012700	3.699900	-11.145000	24.341606	0.001015	20.804255
627.135315	-3.006100	3.699100	-11.117000	24.309098	0.001018	20.818585
628.146350	-3.008800	3.697800	-11.125000	24.278112	0.001016	20.817850
629.137733	-2.997100	3.699100	-11.085000	24.254763	0.001016	20.801541
630.141589	-3.021100	3.696700	-11.166000	24.279221	0.001017	20.797625
631.146083	-3.011300	3.699000	-11.138000	24.295740	0.001016	20.825575
632.137289	-3.007700	3.698000	-11.122000	24.305789	0.001015	20.816215
633.136420	-3.011300	3.697800	-11.134000	24.330490	0.001015	20.822976
634.144081	-2.980900	3.699200	-11.025000	24.340897	0.001014	20.820613
635.142306	-2.980700	3.698400	-11.023000	24.359258	0.001017	20.827652
636.139283	-3.020600	3.694900	-11.160000	24.340873	0.001016	20.809209
637.145853	-3.017600	3.694500	-11.147000	24.372134	0.001015	20.810697
638.141553	-2.999200	3.696500	-11.085000	24.369143	0.001015	20.810542
639.142507	-3.000000	3.695300	-11.085000	24.349935	0.001014	20.811662
640.145158	-2.978100	3.696900	-11.008000	24.354524	0.001014	20.823377
641.145075	-3.014000	3.694900	-11.135000	24.360016	0.001016	20.832680
642.144972	-2.980500	3.697300	-11.019000	24.343090	0.001015	20.828503
643.147321	-3.008600	3.695000	-11.116000	24.349031	0.001014	20.811703
644.147130	-2.995000	3.693800	-11.062000	24.383877	0.001013	20.832909
645.141809	-3.002800	3.693300	-11.088000	24.391611	0.001015	20.831659
646.148742	-3.005400	3.693700	-11.099000	24.390030	0.001014	20.814900
647.145354	-3.002800	3.694400	-11.092000	24.416922	0.001014	20.830498
648.147666	-2.965200	3.695700	-10.958000	24.407314	0.001013	20.821808
649.144314	-2.977800	3.693000	-10.996000	24.434319	0.001014	20.855537
650.144284	-2.983400	3.692800	-11.016000	24.456573	0.001015	20.829501
651.147399	-3.001800	3.692300	-11.082000	24.464502	0.001013	20.847412
652.146634	-3.017800	3.691600	-11.140000	24.457861	0.001013	20.848810
653.145568	-3.009700	3.691300	-11.109000	24.426432	0.001014	20.823444
654.142899	-3.005100	3.691400	-11.092000	24.440334	0.001013	20.836442
655.145885	-3.032500	3.690000	-11.189000	24.432071	0.001012	20.848541
656.147828	-3.001400	3.692200	-11.080000	24.442404	0.001013	20.835674
657.147891	-3.006400	3.689400	-11.090000	24.440839	0.001011	20.820828
658.147403	-3.010800	3.690900	-11.112000	24.435062	0.001013	20.852015
659.146885	-3.014600	3.689200	-11.120000	24.443260	0.001012	20.835110
660.151482	-3.011800	3.689400	-11.109000	24.430540	0.001012	20.841315
661.148291	-3.004100	3.688400	-11.079000	24.422334	0.001011	20.836402
662.147610	-3.023300	3.687900	-11.148000	24.419263	0.001011	20.857975
663.144314	-3.010400	3.687400	-11.099000	24.381223	0.001010	20.852057
664.148934	-2.986700	3.689800	-11.020000	24.369098	0.001010	20.838945
665.147866	-2.995300	3.689100	-11.049000	24.360859	0.001011	20.844905
666.148596	-3.034000	3.686200	-11.182000	24.382169	0.001009	20.836886
667.145178	-3.001300	3.686700	-11.064000	24.403112	0.001009	20.859791
668.146863	-3.004200	3.686400	-11.073000	24.407301	0.001008	20.841709
669.146111	-2.996400	3.686600	-11.046000	24.445242	0.001010	20.842314
670.148630	-3.001000	3.686500	-11.063000	24.450009	0.001010	20.865113
671.158421	-2.994200	3.685600	-11.034000	24.477119	0.001008	20.850113
672.148732	-2.995300	3.687300	-11.043000	24.524762	0.001007	20.830110
673.146598	-2.985600	3.687800	-11.009000	24.540113	0.001008	20.856890
674.148757	-3.006300	3.684900	-11.076000	24.550411	0.001009	20.858214
675.154052	-2.991800	3.685900	-11.026000	24.556743	0.001010	20.872152
676.151509	-2.990600	3.686300	-11.023000	24.575368	0.001007	20.860021
677.152731	-2.980700	3.684400	-10.981000	24.569046	0.001009	20.853204
678.152071	-2.985000	3.685200	-10.999000	24.585056	0.001007	20.862629
679.152830	-2.982100	3.685500	-10.989000	24.582865	0.001007	20.848103
680.154185	-3.009900	3.682800	-11.083000	24.587492	0.001006	20.848953
681.155714	-2.999600	3.684600	-11.051000	24.586148	0.001007	20.869414
682.148561	-2.998400	3.683700	-11.044000	24.586034	0.001005	20.839430
683.157229	-3.009000	3.683800	-11.083000	24.580559	0.001006	20.856695
684.152274	-2.996700	3.682600	-11.035000	24.545239	0.001006	20.876257
685.155527	-3.007400	3.681900	-11.072000	24.547790	0.001006	20.866963
686.152913	-3.002600	3.681700	-11.054000	24.521073	0.001005	20.857701
687.158357	-3.010600	3.680800	-11.080000	24.512990	0.001007	20.847696
688.155122	-2.986300	3.682400	-10.995000	24.464508	0.001005	20.859271
689.156113	-3.001300	3.681700	-11.047000	24.447502	0.001005	20.862125
690.155925	-3.003500	3.680500	-11.053000	24.418256	0.001003	20.876405
691.155012	-3.010700	3.680600	-11.080000	24.453744	0.001003	20.864593
692.155457	-3.009200	3.678800	-11.069000	24.430236	0.001003	20.864242
693.152684	-3.002200	3.680200	-11.047000	24.453345	0.001004	20.865615
694.154068	-2.980600	3.679300	-10.964000	24.472486	0.001003	20.858741
695.154598	-2.994100	3.679900	-11.016000	24.490519	0.001004	20.867349
696.155640	-3.002400	3.679400	-11.047000	24.505617	0.001004	20.864005
697.154334	-3.012800	3.678600	-11.081000	24.504444	0.001003	20.867096
698.156748	-3.008800	3.677800	-11.064000	24.503320	0.001001	20.870235
699.155833	-3.005400	3.677500	-11.050000	24.543628	0.001001	20.852357
700.154624	-3.004000	3.677800	-11.046000	24.542309	0.001003	20.850559
701.152632	-2.979000	3.679100	-10.959000	24.513473	0.001001	20.868568
702.154904	-3.003400	3.676400	-11.041000	24.531179	0.001001	20.864048
703.152414	-2.975100	3.678700	-10.943000	24.563485	0.001002	20.862797
704.158623	-3.000200	3.676300	-11.028000	24.586690	0.001001	20.849570
705.154744	-3.005600	3.676800	-11.050000	24.589412	0.001000	20.871741
706.154562	-3.015400	3.675800	-11.083000	24.609406	0.000999	20.869991
707.156064	-3.016300	3.675800	-11.086000	24.634898	0.001002	20.844364
708.151708	-2.992800	3.675400	-10.999000	24.644072	0.001000	20.844560
709.155374	-3.015300	3.674400	-11.079000	24.641563	0.001002	20.854844
710.160061	-2.997100	3.676100	-11.016000	24.627428	0.001001	20.844928
711.157312	-3.026600	3.674900	-11.120000	24.601185	0.000999	20.821442
712.151837	-3.002600	3.674400	-11.031000	24.571659	0.001002	20.868627
713.155809	-2.998800	3.674700	-11.019000	24.572824	0.000999	20.838503
714.159074	-2.986900	3.674600	-10.975000	24.572800	0.001001	20.861711
715.160147	-2.967500	3.675300	-10.905000	24.579750	0.001000	20.826013
716.161991	-3.001300	3.672800	-11.023000	24.608030	0.000997	20.834000
717.161110	-2.992800	3.674500	-10.996000	24.623103	0.000996	20.848175
718.157107	-3.012600	3.672400	-11.062000	24.647463	0.000999	20.831368
719.156099	-3.003600	3.672000	-11.028000	24.693917	0.000997	20.835782
720.160259	-2.988200	3.673200	-10.975000	24.689355	0.000998	20.843533
721.151294	-3.004100	3.671500	-11.029000	24.697885	0.000998	20.851143
722.151814	-2.977900	3.673200	-10.937000	24.722529	0.000997	20.843631
723.156644	-2.990200	3.671900	-10.979000	24.687979	0.000998	20.820815
724.158211	-3.009400	3.671300	-11.047000	24.686358	0.000997	20.841473
725.163867	-2.999100	3.669700	-11.005000	24.655221	0.000997	20.832988
726.162833	-3.004600	3.671400	-11.030000	24.621068	0.000996	20.837125
727.159655	-3.002300	3.671300	-11.022000	24.627855	0.000997	20.864322
728.156465	-2.981800	3.670400	-10.943000	24.624710	0.000997	20.819917
729.163494	-2.965000	3.671500	-10.884000	24.647588	0.000994	20.843820
730.157480	-2.996200	3.669000	-10.992000	24.648582	0.000997	20.827275
731.160476	-2.988800	3.670600	-10.970000	24.683663	0.000995	20.830235
732.159813	-3.011300	3.668400	-11.046000	24.699256	0.000995	20.819803
733.153976	-2.998500	3.669400	-11.002000	24.717823	0.000995	20.834641
734.154760	-3.001300	3.668800	-11.009000	24.718393	0.000995	20.842326
735.159609	-2.995000	3.667100	-10.982000	24.742662	0.000995	20.823532
736.153732	-2.974500	3.668600	-10.911000	24.767402	0.000994	20.819436
737.155931	-2.997800	3.666900	-10.991000	24.771923	0.000994	20.845784
738.159830	-2.975900	3.668200	-10.915000	24.773512	0.000993	20.833154
739.154463	-2.994200	3.667200	-10.979000	24.768934	0.000991	20.834724
740.161194	-2.986000	3.666700	-10.947000	24.710989	0.000993	20.817353
741.167919	-3.003200	3.667700	-11.014000	24.689914	0.000992	20.829395
742.171388	-2.983800	3.666800	-10.940000	24.665416	0.000994	20.819986
743.159592	-2.992300	3.666800	-10.971000	24.655795	0.000991	20.839728
744.160690	-2.997000	3.665300	-10.983000	24.646320	0.000995	20.837332
745.161818	-3.011600	3.665000	-11.036000	24.685702	0.000991	20.807151
746.159810	-3.018300	3.665500	-11.062000	24.684554	0.000991	20.815008
747.163045	-2.974500	3.665500	-10.902000	24.713622	0.000990	20.807667
748.157863	-3.006400	3.665400	-11.018000	24.735055	0.000989	20.821589
749.165843	-3.024000	3.662700	-11.075000	24.722917	0.000989	20.815098
750.165824	-2.995200	3.664100	-10.974000	24.764839	0.000989	20.828244
751.160266	-3.024800	3.663500	-11.080000	24.748050	0.000989	20.815663
752.161886	-2.984600	3.665200	-10.938000	24.739846	0.000989	20.822603
753.161822	-3.028100	3.662500	-11.090000	24.768090	0.000988	20.821549
754.161264	-2.994100	3.663100	-10.967000	24.752759	0.000989	20.799526
755.162132	-2.990400	3.663500	-10.955000	24.716051	0.000989	20.808208
756.162403	-3.007900	3.661300	-11.011000	24.703742	0.000988	20.827149
757.160508	-3.004600	3.661600	-11.001000	24.691302	0.000989	20.827469
758.163402	-3.013800	3.661200	-11.032000	24.662324	0.000987	20.824469
759.168233	-2.986600	3.661300	-10.934000	24.675970	0.000989	20.805446
760.167152	-2.983300	3.661400	-10.921000	24.694489	0.000988	20.821183
761.168744	-3.000400	3.660800	-10.983000	24.672256	0.000988	20.793658
762.168050	-3.012900	3.658500	-11.021000	24.666203	0.000987	20.803232
763.166655	-3.013400	3.658900	-11.024000	24.676452	0.000987	20.822050
764.163486	-3.003100	3.659600	-10.990000	24.704526	0.000985	20.808496
765.168030	-2.986600	3.659300	-10.928000	24.711361	0.000985	20.820097
766.164954	-2.997300	3.658700	-10.965000	24.742408	0.000987	20.807631
767.165715	-2.999700	3.659000	-10.974000	24.753202	0.000986	20.799971
768.169043	-3.000000	3.657400	-10.971000	24.784875	0.000984	20.818005
769.167620	-2.996200	3.657100	-10.955000	24.810559	0.000987	20.798263
770.169281	-2.986800	3.657500	-10.923000	24.792924	0.000985	20.796686
771.167694	-2.990400	3.657600	-10.936000	24.798960	0.000984	20.817442
772.170580	-2.987900	3.657400	-10.926000	24.754939	0.000984	20.800292
773.171327	-2.997400	3.656200	-10.958000	24.790188	0.000983	20.798208
774.166484	-2.977500	3.658000	-10.891000	24.789961	0.000983	20.803669
775.169112	-2.996300	3.656000	-10.954000	24.763592	0.000983	20.803760
776.168140	-3.003100	3.656200	-10.979000	24.804616	0.000983	20.791824
777.169487	-3.007500	3.655800	-10.993000	24.815304	0.000982	20.798283
778.169435	-2.970800	3.657200	-10.864000	24.827360	0.000983	20.806115
779.169583	-2.996600	3.655200	-10.953000	24.811037	0.000981	20.824346
780.168536	-2.999700	3.653800	-10.959000	24.829886	0.000981	20.793003
781.170707	-3.003800	3.654800	-10.977000	24.822099	0.000984	20.814585
782.167215	-2.977900	3.654300	-10.881000	24.818091	0.000982	20.802977
783.169232	-3.009400	3.654300	-10.996000	24.796351	0.000979	20.807237
784.174127	-2.992000	3.654500	-10.933000	24.823452	0.000982	20.800296
785.168670	-2.974800	3.654100	-10.869000	24.820830	0.000977	20.810467
786.170312	-3.006800	3.652900	-10.983000	24.835826	0.000980	20.803706
787.172698	-2.990900	3.654600	-10.928000	24.832381	0.000979	20.799775
788.168767	-3.008400	3.653000	-10.988000	24.824643	0.000979	20.816665
789.167075	-3.023100	3.652300	-11.041000	24.840055	0.000977	20.814589
790.170078	-2.983500	3.652800	-10.897000	24.831617	0.000977	20.790473
791.168966	-2.992300	3.653300	-10.931000	24.822640	0.000976	20.792370
792.175469	-2.995800	3.651300	-10.938000	24.806048	0.000976	20.790416
793.173605	-2.993600	3.651300	-10.929000	24.831585	0.000978	20.801820
794.172039	-2.989700	3.651300	-10.915000	24.855273	0.000978	20.802835
795.169478	-3.006100	3.649900	-10.972000	24.873047	0.000977	20.802655
796.179469	-2.996400	3.651700	-10.941000	24.846835	0.000977	20.804798
797.170656	-2.982900	3.650400	-10.887000	24.767503	0.000977	20.803417
798.169619	-2.986000	3.650800	-10.900000	24.793293	0.000977	20.797530
799.173781	-3.000100	3.648700	-10.945000	24.798409	0.000977	20.798872
800.175662	-3.010000	3.649200	-10.983000	24.786818	0.000975	20.796722
801.173357	-3.015300	3.647900	-10.999000	24.825650	0.000975	20.798709
802.178418	-3.008200	3.649300	-10.977000	24.822098	0.000975	20.766221
803.178197	-3.007400	3.649100	-10.973000	24.868765	0.000976	20.784607
804.176606	-2.998400	3.647800	-10.937000	24.881342	0.000975	20.807661
805.177238	-2.998000	3.647700	-10.935000	24.881236	0.000973	20.783374
806.179387	-2.987200	3.648100	-10.896000	24.881995	0.000974	20.793618
807.176517	-2.987700	3.648300	-10.899000	24.867748	0.000973	20.789751
808.179220	-2.984100	3.647200	-10.882000	24.863472	0.000973	20.770760
809.179804	-3.002400	3.646000	-10.946000	24.864377	0.000972	20.808653
810.181289	-2.998900	3.645400	-10.930000	24.835257	0.000974	20.791755
811.181431	-2.998000	3.646400	-10.930000	24.838638	0.000973	20.769543
812.183267	-2.973700	3.646300	-10.841000	24.775776	0.000973	20.775683
813.177855	-2.979900	3.645400	-10.861000	24.740129	0.000973	20.784955
814.177809	-2.994000	3.644700	-10.911000	24.727354	0.000971	20.783989
815.183009	-2.996900	3.645000	-10.922000	24.745750	0.000972	20.781112
816.178282	-2.991500	3.643900	-10.900000	24.777920	0.000971	20.798698
817.181931	-2.994000	3.645000	-10.912000	24.815587	0.000971	20.790981
818.181326	-2.999000	3.643800	-10.927000	24.849890	0.000974	20.771353
819.180727	-3.001700	3.643700	-10.937000	24.867142	0.000969	20.780134
820.183175	-3.015400	3.643200	-10.985000	24.913611	0.000972	20.785047
821.182706	-3.016000	3.641700	-10.982000	24.949801	0.000971	20.779170
822.183816	-2.993000	3.643000	-10.901000	24.933893	0.000970	20.792128
823.181122	-2.992600	3.642600	-10.900000	24.955974	0.000972	20.780151
824.178836	-2.997800	3.642500	-10.917000	24.966082	0.000970	20.784607
825.181451	-3.004000	3.641500	-10.938000	24.948148	0.000967	20.755226
826.183587	-2.998800	3.641500	-10.919000	24.960325	0.000968	20.774561
827.181656	-3.003300	3.640800	-10.933000	24.944964	0.000968	20.768151
828.181481	-2.998700	3.641000	-10.917000	24.969961	0.000968	20.797984
829.183603	-3.007000	3.641600	-10.950000	24.936299	0.000967	20.773205
830.180956	-3.037200	3.639500	-11.053000	24.893847	0.000967	20.784651
831.183000	-3.015700	3.640400	-10.978000	24.859002	0.000968	20.766274
832.180814	-3.002900	3.640400	-10.930000	24.847135	0.000967	20.764795
833.185979	-2.993000	3.640000	-10.893000	24.837914	0.000968	20.788257
834.180039	-2.991000	3.639600	-10.884000	24.829223	0.000967	20.783803
835.190352	-3.007100	3.639700	-10.944000	24.835260	0.000965	20.756196
836.185640	-3.016800	3.639000	-10.978000	24.858361	0.000966	20.770372
837.184971	-3.001500	3.638900	-10.921000	24.866727	0.000966	20.756957
838.183732	-3.002100	3.638200	-10.920000	24.854623	0.000965	20.778474
839.183367	-2.996000	3.638700	-10.899000	24.854289	0.000965	20.778140
840.186074	-3.004800	3.637300	-10.929000	24.830261	0.000967	20.788637
841.190170	-2.983400	3.638600	-10.855000	24.842194	0.000967	20.779277
842.188153	-3.007400	3.637100	-10.937000	24.863878	0.000965	20.774961
843.185864	-2.984700	3.637300	-10.853000	24.883712	0.000964	20.788704
844.187010	-3.005200	3.637300	-10.929000	24.902651	0.000965	20.774521
845.189756	-3.014800	3.637000	-10.963000	24.934775	0.000967	20.768831
846.189675	-2.994300	3.636200	-10.887000	24.942684	0.000965	20.766811
847.191918	-2.973100	3.635900	-10.808000	24.933872	0.000963	20.795899
848.196894	-3.017900	3.634600	-10.967000	24.907231	0.000964	20.752564
849.190082	-2.998600	3.635000	-10.899000	24.903329	0.000963	20.764769
850.195807	-3.014100	3.634500	-10.954000	24.931478	0.000962	20.765047
851.190377	-3.005500	3.633600	-10.920000	24.922593	0.000963	20.759448
852.189779	-3.008200	3.634100	-10.932000	24.949862	0.000963	20.756947
853.194739	-3.025300	3.635100	-10.996000	24.936554	0.000963	20.767771
854.213702	-2.984800	3.634700	-10.848000	24.968327	0.000963	20.763153
855.195035	-3.000000	3.634000	-10.900000	24.982443	0.000962	20.750768
856.197534	-2.996100	3.634100	-10.886000	25.006884	0.000960	20.760128
857.196455	-2.995500	3.633200	-10.882000	25.002992	0.000961	20.756696
858.195376	-3.020300	3.633600	-10.972000	25.016838	0.000960	20.770120
859.207088	-2.988900	3.634400	-10.861000	25.026058	0.000959	20.751399
860.194462	-2.997600	3.633100	-10.890000	25.042356	0.000960	20.758276
861.193816	-3.005200	3.633400	-10.918000	25.055354	0.000960	20.759470
862.201895	-2.996100	3.631700	-10.880000	25.089111	0.000958	20.762061
863.197850	-2.999400	3.630500	-10.888000	25.106384	0.000958	20.755219
864.197069	-2.991700	3.630300	-10.860000	25.127876	0.000957	20.742181
865.201881	-3.003800	3.631700	-10.907000	25.121158	0.000956	20.757248
866.200125	-3.013400	3.628800	-10.934000	25.139082	0.000955	20.761966
867.199396	-3.001800	3.629800	-10.895000	25.159433	0.000957	20.749205
868.197602	-2.995200	3.631000	-10.874000	25.111631	0.000953	20.763806
869.202024	-2.973100	3.630100	-10.791000	25.098066	0.000956	20.746868
870.197678	-2.993000	3.628800	-10.860000	25.109223	0.000953	20.758069
871.205148	-2.984600	3.629100	-10.830000	25.074945	0.000954	20.740254
872.201613	-2.987000	3.629400	-10.840000	25.047216	0.000952	20.767422
873.211125	-3.022200	3.626500	-10.959000	25.052534	0.000954	20.747630
874.206776	-3.033200	3.627400	-11.000000	25.083230	0.000953	20.759477
875.200901	-2.996600	3.628300	-10.871000	25.073856	0.000950	20.737264
876.202971	-3.010400	3.627500	-10.919000	25.036736	0.000952	20.758325
877.207111	-3.024700	3.625100	-10.963000	25.038447	0.000953	20.745343
878.204494	-3.036300	3.625200	-11.006000	25.059573	0.000951	20.742841
879.201060	-3.001000	3.626700	-10.883000	25.044230	0.000952	20.738345
880.209019	-3.002500	3.625500	-10.885000	25.054475	0.000948	20.746733
881.206802	-2.995000	3.627000	-10.862000	25.050290	0.000951	20.762447
882.204904	-2.991000	3.627600	-10.850000	25.046732	0.000949	20.738011
883.209281	-2.987100	3.626300	-10.831000	25.041861	0.000950	20.740235
884.209289	-2.982600	3.626400	-10.815000	25.067459	0.000948	20.741274
885.207688	-3.000000	3.625700	-10.876000	25.095848	0.000948	20.754600
886.213098	-3.010500	3.624500	-10.911000	25.116305	0.000948	20.743841
887.209040	-3.020200	3.624700	-10.946000	25.100369	0.000950	20.756767
888.206608	-2.998800	3.624700	-10.868000	25.108839	0.000947	20.734449
889.208702	-3.009200	3.622400	-10.898000	25.094515	0.000948	20.768435
890.211574	-3.009600	3.622900	-10.902000	25.062640	0.000947	20.720314
891.209820	-3.000600	3.623900	-10.872000	25.008343	0.000948	20.746893
892.209389	-3.007400	3.623300	-10.894000	24.985913	0.000946	20.730068
893.213335	-2.995200	3.623800	-10.854000	24.985686	0.000946	20.741694
894.209437	-3.025300	3.622600	-10.958000	25.009395	0.000945	20.742259
895.212912	-3.000300	3.620700	-10.862000	25.019486	0.000946	20.748596
896.213477	-3.001900	3.621300	-10.869000	25.062408	0.000945	20.739997
897.211422	-3.015200	3.621500	-10.918000	25.051894	0.000944	20.746512
898.213992	-2.992200	3.623000	-10.840000	25.063426	0.000943	20.764727
899.210215	-2.984600	3.622800	-10.811000	25.069902	0.000945	20.737088
900.212197	-3.007500	3.621700	-10.892000	25.042775	0.000942	20.733091
901.214072	-3.016200	3.620600	-10.919000	25.028775	0.000943	20.729943
902.220430	-3.011500	3.619800	-10.900000	25.001745	0.000944	20.738847
903.214375	-2.995200	3.620600	-10.842000	24.994130	0.000940	20.758706
904.219458	-2.991600	3.619200	-10.825000	25.024761	0.000942	20.731130
905.213894	-2.995100	3.621000	-10.844000	25.033729	0.000942	20.745822
906.215411	-3.006300	3.619800	-10.880000	25.024274	0.000940	20.741548
907.215539	-3.001000	3.619300	-10.860000	25.054922	0.000939	20.710669
908.218735	-2.991600	3.618500	-10.825000	25.070730	0.000940	20.738867
909.215387	-2.982700	3.619000	-10.792000	25.058490	0.000940	20.732745
910.213169	-3.018400	3.616300	-10.914000	25.064484	0.000940	20.734020
911.218896	-3.013100	3.617400	-10.897000	25.072181	0.000940	20.750756
912.216606	-2.996800	3.617300	-10.839000	25.068255	0.000940	20.720736
913.217755	-2.993200	3.617000	-10.825000	25.069837	0.000937	20.748403
914.213428	-2.989300	3.618000	-10.815000	25.073584	0.000939	20.740784
915.216572	-2.998300	3.616500	-10.842000	25.091858	0.000936	20.709341
916.217443	-2.981900	3.616700	-10.783000	25.112340	0.000935	20.738912
917.216458	-2.986400	3.616300	-10.799000	25.107064	0.000936	20.733141
918.219771	-2.968700	3.616700	-10.736000	25.118091	0.000938	20.740893
919.216564	-2.967700	3.616500	-10.731000	25.111430	0.000936	20.731360
920.219702	-2.977600	3.616100	-10.766000	25.133671	0.000935	20.742782
921.215698	-3.003200	3.613900	-10.850000	25.154078	0.000936	20.742406
922.223824	-2.996100	3.615500	-10.831000	25.141847	0.000933	20.747671
923.218782	-2.993200	3.614500	-10.818000	25.145692	0.000933	20.728771
924.219526	-2.987900	3.614800	-10.800000	25.171417	0.000934	20.756968
925.223514	-2.984100	3.613600	-10.782000	25.141833	0.000934	20.735328
926.220553	-2.998300	3.613900	-10.834000	25.130025	0.000932	20.721103
927.223150	-3.022000	3.610300	-10.909000	25.107713	0.000932	20.725258
928.221719	-3.010100	3.612900	-10.874000	25.118601	0.000931	20.726231
929.219586	-2.998400	3.612000	-10.829000	25.095002	0.000933	20.740473
930.218601	-2.976800	3.612900	-10.753000	25.078144	0.000932	20.740621
931.227027	-2.964000	3.612500	-10.706000	25.041742	0.000931	20.734425
932.224555	-3.005600	3.610800	-10.851000	24.986995	0.000929	20.740164
933.221651	-3.000900	3.610100	-10.832000	24.973558	0.000931	20.735685
934.227382	-3.014400	3.610800	-10.884000	24.946901	0.000931	20.742120
935.230007	-2.972400	3.611300	-10.733000	24.962515	0.000931	20.735032
936.219523	-3.007800	3.609500	-10.856000	24.971109	0.000927	20.705249
937.225756	-3.032700	3.608700	-10.943000	25.029571	0.000927	20.751606
938.222254	-2.986700	3.610600	-10.782000	25.013763	0.000927	20.740953
939.226546	-2.993500	3.609500	-10.803000	25.045705	0.000928	20.726549
940.230227	-2.984300	3.609500	-10.771000	25.069812	0.000926	20.725618
941.225657	-3.008200	3.607700	-10.851000	25.096134	0.000927	20.743507
942.226504	-2.974900	3.609300	-10.736000	25.061044	0.000928	20.745266
943.228194	-3.003000	3.607200	-10.831000	25.065246	0.000926	20.728621
944.223519	-3.024700	3.605600	-10.905000	25.058007	0.000926	20.741743
945.224941	-3.014400	3.606900	-10.871000	25.094916	0.000926	20.726636
946.225474	-2.993500	3.608000	-10.799000	25.088695	0.000925	20.751686
947.225923	-2.999700	3.607300	-10.819000	25.107508	0.000926	20.737380
948.228329	-3.006500	3.606300	-10.841000	25.086872	0.000926	20.740847
949.231283	-3.005800	3.605800	-10.837000	25.121443	0.000923	20.741886
950.225529	-2.998600	3.606400	-10.813000	25.160400	0.000924	20.740218
951.224952	-2.993200	3.605700	-10.791000	25.177585	0.000922	20.732814
952.229778	-2.986700	3.605500	-10.767000	25.170403	0.000923	20.751208
953.223967	-2.960800	3.606700	-10.678000	25.162814	0.000921	20.729364
954.227879	-2.975000	3.605200	-10.724000	25.127733	0.000921	20.745356
955.225432	-3.005400	3.602800	-10.826000	25.157440	0.000921	20.749101
956.225696	-3.005800	3.604700	-10.835000	25.165389	0.000923	20.730053
957.229054	-2.998000	3.603300	-10.802000	25.159371	0.000922	20.734443
958.227908	-3.001700	3.601800	-10.810000	25.164493	0.000921	20.741008
959.229272	-2.980800	3.602300	-10.736000	25.167019	0.000919	20.740225
960.233551	-3.005900	3.601300	-10.824000	25.204803	0.000921	20.726948
961.230954	-3.014500	3.602000	-10.857000	25.218240	0.000921	20.729533
962.227670	-3.017800	3.601800	-10.869000	25.228735	0.000918	20.756192
963.230861	-3.007000	3.600800	-10.826000	25.259573	0.000918	20.742581
964.228482	-2.986400	3.602300	-10.757000	25.254556	0.000919	20.746554
965.229309	-3.002400	3.600900	-10.811000	25.255022	0.000916	20.760298
966.230087	-2.988200	3.600100	-10.756000	25.195294	0.000916	20.730203
967.230590	-2.983400	3.600900	-10.741000	25.225709	0.000916	20.751257
968.232104	-2.983100	3.600100	-10.738000	25.222323	0.000916	20.755443
969.231530	-2.996700	3.600700	-10.788000	25.188937	0.000915	20.737098
970.232621	-2.997400	3.598100	-10.784000	25.223488	0.000914	20.752820
971.231356	-2.993800	3.600500	-10.778000	25.201584	0.000914	20.728932
972.232421	-2.989200	3.599900	-10.759000	25.210208	0.000914	20.751815
973.233391	-2.989400	3.600200	-10.760000	25.153353	0.000915	20.720340
974.229280	-2.990700	3.598600	-10.761000	25.173281	0.000913	20.740347
975.234594	-3.007000	3.596600	-10.813000	25.185137	0.000913	20.743715
976.232341	-3.003200	3.597800	-10.804000	25.172133	0.000914	20.749627
977.233845	-3.002800	3.597600	-10.803000	25.177010	0.000913	20.747885
978.233387	-3.007700	3.596400	-10.816000	25.176874	0.000911	20.749644
979.234873	-3.003300	3.597700	-10.804000	25.203046	0.000910	20.756953
980.230435	-3.014400	3.595400	-10.837000	25.210669	0.000913	20.730940
981.235214	-2.991000	3.597900	-10.761000	25.198942	0.000910	20.753308
982.237665	-3.001600	3.596600	-10.795000	25.165150	0.000909	20.753048
983.232502	-3.015900	3.595200	-10.842000	25.156617	0.000911	20.761077
984.237000	-3.014600	3.593900	-10.834000	25.168173	0.000909	20.742805
985.232923	-2.999200	3.596300	-10.784000	25.158401	0.000909	20.735366
986.235955	-3.022700	3.593400	-10.861000	25.176814	0.000909	20.758594
987.238047	-3.003300	3.594500	-10.795000	25.199226	0.000908	20.750747
988.233745	-2.984600	3.593800	-10.725000	25.234566	0.000908	20.768210
989.233510	-3.006700	3.594600	-10.806000	25.271869	0.000908	20.742124
990.237153	-2.960900	3.593900	-10.640000	25.289636	0.000907	20.761386
991.231863	-2.978900	3.593200	-10.702000	25.316099	0.000906	20.732479
992.233169	-2.994700	3.592400	-10.757000	25.303740	0.000903	20.755158
993.236756	-2.987800	3.593700	-10.736000	25.281317	0.000905	20.754930
994.234644	-2.980000	3.593600	-10.708000	25.236966	0.000905	20.739799
995.239448	-2.981700	3.593200	-10.713000	25.203403	0.000904	20.760156
996.238610	-2.973000	3.593200	-10.681000	25.191956	0.000904	20.740603
997.233415	-3.011700	3.591100	-10.814000	25.211369	0.000902	20.757248
998.239528	-2.984700	3.589700	-10.714000	25.221654	0.000902	20.749082
999.240575	-2.971400	3.591500	-10.671000	25.260006	0.000901	20.764354
1000.238645	-2.980500	3.591100	-10.701000	25.288849	0.000902	20.734990
1001.239873	-3.001500	3.589500	-10.773000	25.296569	0.000901	20.767399
1002.238344	-3.009100	3.588500	-10.798000	25.279379	0.000899	20.760571
1003.240769	-2.999500	3.589500	-10.765000	25.250662	0.000900	20.772517
1004.243671	-2.977200	3.587300	-10.678000	25.225233	0.000900	20.766426
1005.242171	-2.981400	3.589200	-10.700000	25.212027	0.000898	20.771660
1006.241246	-3.024400	3.586300	-10.845000	25.212541	0.000898	20.763167
1007.242554	-3.003900	3.588400	-10.778000	25.234535	0.000898	20.767705
1008.241132	-2.992500	3.588500	-10.738000	25.232394	0.000897	20.773616
1009.241102	-3.005500	3.585900	-10.777000	25.236914	0.000896	20.770567
1010.248672	-3.015400	3.587200	-10.815000	25.249592	0.000898	20.755320
1011.243074	-3.010000	3.586600	-10.795000	25.303471	0.000897	20.754888
1012.244226	-2.986300	3.586600	-10.710000	25.308813	0.000896	20.768787
1013.248124	-2.990800	3.586300	-10.724000	25.341723	0.000895	20.758208
1014.247169	-3.008000	3.585700	-10.785000	25.362739	0.000896	20.798276
1015.242815	-3.006400	3.584100	-10.774000	25.380977	0.000895	20.784346
1016.247651	-2.993500	3.585200	-10.732000	25.400540	0.000894	20.776015
1017.247494	-3.017700	3.583400	-10.812000	25.398025	0.000893	20.783447
1018.248154	-3.008700	3.584000	-10.781000	25.435696	0.000894	20.784764
1019.248755	-2.999900	3.583600	-10.749000	25.463597	0.000892	20.781962
1020.246431	-2.990900	3.584600	-10.719000	25.423405	0.000892	20.775741
1021.249264	-2.993500	3.584000	-10.727000	25.429096	0.000890	20.770550
1022.255511	-3.004300	3.582000	-10.760000	25.430033	0.000891	20.777182
1023.245610	-2.979200	3.584100	-10.677000	25.386462	0.000891	20.760930
1024.248226	-3.001600	3.582400	-10.751000	25.386528	0.000889	20.779964
1025.254786	-2.997200	3.582000	-10.734000	25.377409	0.000890	20.777445
1026.251478	-3.003100	3.581100	-10.753000	25.390306	0.000889	20.756729
1027.251459	-2.999100	3.580200	-10.736000	25.382915	0.000888	20.788189
1028.251174	-3.016300	3.580500	-10.799000	25.389323	0.000888	20.754794
1029.251018	-2.998400	3.580100	-10.733000	25.412283	0.000887	20.790178
1030.251525	-2.994100	3.581300	-10.722000	25.417054	0.000885	20.764622
1031.251283	-3.010000	3.580100	-10.775000	25.404445	0.000886	20.776617
1032.249321	-3.013400	3.578800	-10.784000	25.427705	0.000885	20.779585
1033.253611	-2.993900	3.579300	-10.715000	25.447799	0.000888	20.785538
1034.257617	-2.995500	3.579900	-10.721000	25.484352	0.000883	20.773407
1035.256403	-2.996200	3.581100	-10.728000	25.445267	0.000885	20.782521
1036.253051	-2.999300	3.579400	-10.735000	25.453790	0.000886	20.783968
1037.258936	-3.028100	3.578300	-10.834000	25.460436	0.000883	20.778788
1038.251994	-3.038800	3.578100	-10.872000	25.427702	0.000883	20.784323
1039.253781	-2.998800	3.578200	-10.729000	25.388191	0.000881	20.790168
1040.257413	-3.005700	3.577100	-10.751000	25.362170	0.000883	20.773049
1041.253302	-2.992600	3.576900	-10.702000	25.310382	0.000883	20.793122
1042.255847	-3.004600	3.576000	-10.743000	25.324066	0.000882	20.802120
1043.264406	-2.981700	3.577600	-10.667000	25.306488	0.000883	20.785893
1044.258326	-3.004600	3.576000	-10.743000	25.285409	0.000879	20.785591
1045.256491	-3.011200	3.575300	-10.765000	25.247523	0.000880	20.803978
1046.259366	-3.007400	3.575900	-10.751000	25.270370	0.000880	20.786613
1047.256969	-2.991100	3.574600	-10.691000	25.267365	0.000879	20.794502
1048.256101	-2.971600	3.574800	-10.620000	25.248044	0.000879	20.785535
1049.255301	-2.998800	3.573300	-10.715000	25.238826	0.000879	20.782919
1050.258529	-3.011600	3.572500	-10.759000	25.205798	0.000879	20.810451
1051.258742	-2.998500	3.573600	-10.715000	25.181060	0.000877	20.784193
1052.260282	-2.984900	3.574600	-10.669000	25.202208	0.000877	20.788356
1053.256322	-3.016500	3.571400	-10.772000	25.235244	0.000877	20.790702
1054.256639	-2.992700	3.573300	-10.693000	25.252718	0.000875	20.813461
1055.261975	-2.988100	3.573000	-10.675000	25.303690	0.000875	20.814852
1056.262130	-2.990100	3.572900	-10.682000	25.278416	0.000875	20.804175
1057.258043	-3.023500	3.572800	-10.800000	25.290971	0.000874	20.803978
1058.259586	-2.983900	3.571800	-10.656000	25.296239	0.000872	20.812587
1059.257500	-3.014100	3.571700	-10.764000	25.335428	0.000873	20.791717
1060.261058	-2.985100	3.570400	-10.657000	25.307640	0.000872	20.798429
1061.264133	-3.002700	3.571000	-10.721000	25.295571	0.000874	20.805278
1062.261982	-2.984700	3.571500	-10.659000	25.325690	0.000870	20.796163
1063.265802	-3.006200	3.570200	-10.732000	25.361653	0.000873	20.795763
1064.267914	-2.982000	3.570700	-10.646000	25.404176	0.000871	20.785830
1065.265774	-2.984000	3.569300	-10.650000	25.458055	0.000870	20.800104
1066.263890	-2.994200	3.570300	-10.689000	25.487329	0.000867	20.813380
1067.266834	-3.009700	3.568200	-10.737000	25.462532	0.000867	20.789901
1068.266607	-2.972100	3.570100	-10.609000	25.489942	0.000867	20.790874
1069.259557	-3.010100	3.567600	-10.737000	25.474165	0.000866	20.807273
1070.266318	-2.999600	3.568000	-10.701000	25.501470	0.000867	20.799131
1071.263370	-3.013900	3.567300	-10.749000	25.493719	0.000866	20.797512
1072.262914	-3.002200	3.568200	-10.712000	25.522147	0.000865	20.799033
1073.263675	-2.975600	3.567500	-10.614000	25.533104	0.000865	20.791071
1074.265040	-2.982100	3.566600	-10.635000	25.534104	0.000864	20.793023
1075.264648	-3.009100	3.564700	-10.725000	25.563898	0.000864	20.814409
1076.268723	-3.005400	3.567100	-10.719000	25.560943	0.000862	20.793898
1077.268173	-3.003200	3.566700	-10.709000	25.583703	0.000862	20.804902
1078.264563	-2.999900	3.565100	-10.693000	25.597971	0.000862	20.807378
1079.273301	-2.986300	3.565600	-10.646000	25.575879	0.000862	20.790881
1080.270192	-3.007800	3.565100	-10.722000	25.595611	0.000861	20.794576
1081.265932	-3.022800	3.562300	-10.767000	25.580950	0.000862	20.813991
1082.269481	-2.993000	3.564700	-10.668000	25.602675	0.000859	20.831067
1083.271210	-3.016200	3.563700	-10.748000	25.588885	0.000858	20.817219
1084.266614	-3.008600	3.562000	-10.715000	25.598499	0.000859	20.800796
1085.272413	-3.008500	3.563100	-10.719000	25.586280	0.000858	20.813654
1086.269443	-3.007300	3.562800	-10.713000	25.604986	0.000860	20.820113
1087.265939	-3.011200	3.561500	-10.723000	25.617495	0.000858	20.807072
1088.265567	-3.004900	3.561700	-10.702000	25.590627	0.000856	20.822287
1089.270996	-3.002100	3.561200	-10.690000	25.578530	0.000857	20.802078
1090.271000	-2.941200	3.563600	-10.479000	25.559897	0.000855	20.821770
1091.267482	-3.001200	3.560700	-10.686000	25.561012	0.000857	20.820046
1092.272076	-2.990600	3.560000	-10.645000	25.566464	0.000855	20.821254
1093.270558	-2.987500	3.559800	-10.633000	25.565894	0.000854	20.814043
1094.267632	-3.007700	3.559300	-10.704000	25.558690	0.000853	20.803015
1095.271336	-3.014300	3.558600	-10.726000	25.510538	0.000852	20.811082
1096.271579	-3.012900	3.557700	-10.718000	25.492669	0.000852	20.822536
1097.269381	-2.988700	3.558000	-10.633000	25.494932	0.000852	20.812480
1098.277261	-2.989600	3.558800	-10.638000	25.490420	0.000850	20.804156
1099.272902	-2.973200	3.559400	-10.582000	25.536090	0.000852	20.808294
1100.273695	-3.031300	3.556800	-10.780000	25.530578	0.000850	20.839267
1101.274854	-2.998000	3.556800	-10.661000	25.540923	0.000849	20.806983
1102.274707	-2.996200	3.559000	-10.663000	25.556633	0.000851	20.826553
1103.270412	-3.010400	3.556400	-10.705000	25.582950	0.000848	20.803671
1104.275806	-3.001500	3.557300	-10.676000	25.589437	0.000849	20.800703
1105.274406	-3.031700	3.555700	-10.779000	25.622093	0.000846	20.826862
1106.275322	-2.990000	3.557300	-10.633000	25.645901	0.000847	20.833230
1107.279290	-2.984900	3.556600	-10.616000	25.659347	0.000847	20.819708
1108.275148	-3.003800	3.553800	-10.674000	25.679157	0.000845	20.804992
1109.275546	-3.011400	3.555200	-10.704000	25.696201	0.000845	20.831119
1110.278269	-2.987600	3.554500	-10.617000	25.728021	0.000844	20.807130
1111.285175	-3.017700	3.553400	-10.722000	25.699869	0.000846	20.827217
1112.279720	-3.015500	3.552400	-10.711000	25.686308	0.000844	20.820708
1113.275304	-3.002300	3.552800	-10.666000	25.676352	0.000843	20.806916
1114.282517	-3.009400	3.552900	-10.691000	25.668610	0.000841	20.833752
1115.281049	-2.979900	3.554200	-10.590000	25.666281	0.000843	20.826672
1116.280347	-3.008900	3.553400	-10.690000	25.628398	0.000843	20.812332
1117.283744	-2.998900	3.553500	-10.655000	25.656038	0.000842	20.820178
1118.281315	-3.014100	3.552500	-10.707000	25.651660	0.000842	20.797289
1119.277576	-3.005700	3.551900	-10.675000	25.674586	0.000840	20.811306
1120.283843	-3.001400	3.552100	-10.661000	25.638291	0.000840	20.819897
1121.284270	-2.997100	3.550200	-10.640000	25.642246	0.000839	20.842360
1122.281614	-2.992400	3.551200	-10.626000	25.637661	0.000838	20.811204
1123.284498	-2.995000	3.551400	-10.634000	25.628919	0.000840	20.828976
1124.282270	-3.008200	3.550000	-10.678000	25.633898	0.000836	20.810744
1125.278842	-2.993400	3.549800	-10.625000	25.629786	0.000837	20.828898
1126.280671	-3.014400	3.549300	-10.698000	25.622166	0.000836	20.833099
1127.284656	-2.989600	3.549600	-10.611000	25.641179	0.000835	20.840815
1128.284617	-2.984300	3.550000	-10.594000	25.673736	0.000836	20.816616
1129.284534	-2.992800	3.549400	-10.621000	25.649992	0.000833	20.834493
1130.281606	-2.993200	3.548200	-10.619000	25.642477	0.000833	20.834532
1131.282222	-2.974500	3.549900	-10.557000	25.665690	0.000834	20.825130
1132.284978	-2.988600	3.548800	-10.605000	25.644281	0.000833	20.806473
1133.289485	-2.998900	3.547400	-10.637000	25.610524	0.000832	20.812398
1134.283616	-2.994000	3.547300	-10.619000	25.603792	0.000832	20.839776
1135.282275	-3.023800	3.544700	-10.717000	25.612028	0.000831	20.826710
1136.288482	-2.995900	3.546400	-10.624000	25.615763	0.000831	20.840418
1137.282845	-2.990400	3.545000	-10.600000	25.657934	0.000831	20.839151
1138.281604	-2.965000	3.547300	-10.515000	25.670393	0.000830	20.843130
1139.285672	-3.013800	3.544900	-10.683000	25.694435	0.000830	20.824129
1140.282060	-2.986200	3.544600	-10.585000	25.706618	0.000827	20.816926
1141.281470	-2.983200	3.545600	-10.576000	25.687441	0.000829	20.820898
1142.281494	-3.006900	3.543900	-10.655000	25.676444	0.000828	20.807482
1143.282221	-3.006100	3.544600	-10.653000	25.671786	0.000825	20.818451
1144.284127	-3.001300	3.543700	-10.635000	25.692809	0.000827	20.813962
1145.285340	-2.997800	3.543100	-10.620000	25.695925	0.000827	20.843643
1146.288073	-3.010700	3.541300	-10.661000	25.687631	0.000824	20.826304
1147.286959	-3.022700	3.543100	-10.709000	25.664789	0.000825	20.806208
1148.285101	-2.991200	3.543200	-10.598000	25.640873	0.000825	20.851887
1149.287534	-2.980600	3.542400	-10.558000	25.645440	0.000823	20.847465
1150.281914	-3.003800	3.541500	-10.636000	25.653952	0.000824	20.828040
1151.284626	-3.001400	3.540400	-10.625000	25.637712	0.000822	20.840178
1152.287821	-3.005000	3.539700	-10.636000	25.670962	0.000824	20.834218
1153.285358	-3.003900	3.540200	-10.633000	25.665905	0.000820	20.821553
1154.284347	-2.992200	3.540000	-10.591000	25.666790	0.000821	20.828606
1155.290426	-3.024800	3.538500	-10.702000	25.680131	0.000821	20.819720
1156.285281	-2.984200	3.540300	-10.563000	25.679275	0.000820	20.841145
1157.286611	-2.990600	3.538000	-10.579000	25.681195	0.000819	20.838806
1158.296791	-2.995900	3.540200	-10.605000	25.709950	0.000821	20.830704
1159.288567	-3.003600	3.537600	-10.623000	25.698578	0.000820	20.835877
1160.288249	-3.005200	3.539200	-10.635000	25.738571	0.000818	20.828158
1161.294150	-3.026900	3.536700	-10.705000	25.738725	0.000817	20.819304
1162.291232	-3.030400	3.538000	-10.719000	25.763482	0.000815	20.832317
1163.287132	-3.024500	3.538300	-10.700000	25.758769	0.000817	20.808617
1164.291405	-2.998100	3.537600	-10.604000	25.751825	0.000814	20.835306
1165.292562	-3.025500	3.534800	-10.692000	25.750790	0.000817	20.829525
1166.302846	-3.023700	3.535500	-10.690000	25.715221	0.000816	20.827464
1167.290844	-3.011800	3.534900	-10.644000	25.666262	0.000814	20.847041
1168.290209	-3.001600	3.537200	-10.616000	25.668948	0.000814	20.822713
1169.294569	-3.014100	3.536300	-10.657000	25.674155	0.000813	20.833632
1170.293028	-3.004700	3.535100	-10.620000	25.662833	0.000813	20.810881
1171.287912	-3.003200	3.535100	-10.615000	25.682367	0.000813	20.821491
1172.291048	-3.008300	3.534300	-10.631000	25.694777	0.000813	20.808827
1173.290306	-2.988500	3.533200	-10.558000	25.723588	0.000810	20.817850
1174.289355	-2.998200	3.532800	-10.590000	25.744488	0.000811	20.828886
1175.288000	-2.996800	3.534200	-10.589000	25.764255	0.000810	20.822663
1176.296379	-3.018900	3.533600	-10.665000	25.772882	0.000809	20.813784
1177.291698	-2.969200	3.532400	-10.487000	25.782386	0.000810	20.804365
1178.292215	-2.992800	3.533800	-10.575000	25.784005	0.000810	20.816422
1179.291236	-3.014200	3.530700	-10.641000	25.743554	0.000808	20.784325
1180.290513	-3.038000	3.530400	-10.724000	25.718965	0.000806	20.798034
1181.289136	-3.001800	3.531900	-10.601000	25.693358	0.000808	20.819729
1182.294750	-3.015100	3.530900	-10.645000	25.698583	0.000805	20.795105
1183.292784	-2.995900	3.529900	-10.574000	25.722991	0.000806	20.815354
1184.295654	-2.999600	3.528900	-10.584000	25.720799	0.000805	20.807463
1185.292288	-2.984800	3.532100	-10.542000	25.696308	0.000806	20.786656
1186.298423	-2.992700	3.530100	-10.563000	25.673624	0.000804	20.789951
1187.294784	-2.979600	3.531000	-10.520000	25.650611	0.000804	20.812831
1188.291120	-3.002500	3.528600	-10.593000	25.633948	0.000802	20.772387
1189.299905	-2.995500	3.529700	-10.572000	25.628697	0.000802	20.794614
1190.296991	-2.999700	3.527700	-10.581000	25.647165	0.000802	20.784713
1191.294136	-3.020900	3.527200	-10.653000	25.646431	0.000801	20.807684
1192.296167	-3.002500	3.525700	-10.585000	25.669693	0.000799	20.787900
1193.297647	-2.982800	3.527500	-10.520000	25.685734	0.000801	20.797847
1194.298990	-3.001100	3.527900	-10.586000	25.703615	0.000798	20.777874
1195.301239	-3.006000	3.526300	-10.598000	25.710703	0.000798	20.773614
1196.304531	-2.990600	3.526500	-10.546000	25.726988	0.000798	20.791394
1197.299767	-2.973900	3.527000	-10.487000	25.738853	0.000796	20.774862
1198.305590	-3.031100	3.525400	-10.684000	25.744477	0.000796	20.777191
1199.301207	-3.008000	3.525700	-10.604000	25.773409	0.000797	20.803882
1200.300146	-2.993300	3.524500	-10.549000	25.760353	0.000796	20.795984
1201.302572	-2.984400	3.524700	-10.518000	25.787868	0.000795	20.781897
1202.303365	-2.984800	3.525100	-10.520000	25.781397	0.000794	20.778715
1203.302929	-2.997500	3.523800	-10.562000	25.814332	0.000794	20.779556
1204.304339	-2.993800	3.524400	-10.550000	25.793032	0.000794	20.792300
1205.302614	-2.997900	3.522900	-10.560000	25.834162	0.000794	20.762017
1206.301872	-2.990500	3.522700	-10.532000	25.837278	0.000793	20.776528
1207.309272	-2.997500	3.522500	-10.558000	25.869064	0.000793	20.755352
1208.305455	-3.004300	3.521400	-10.578000	25.834762	0.000791	20.768310
1209.303077	-2.972400	3.522600	-10.469000	25.851077	0.000792	20.771423
1210.303645	-3.008900	3.521100	-10.593000	25.834173	0.000790	20.757287
1211.305952	-3.002500	3.520000	-10.568000	25.847568	0.000788	20.742767
1212.302410	-2.987500	3.520500	-10.516000	25.834595	0.000788	20.766719
1213.308903	-3.009100	3.521100	-10.593000	25.829410	0.000788	20.763408
1214.308150	-3.007200	3.518200	-10.579000	25.839834	0.000787	20.759180
1215.308186	-3.012700	3.519100	-10.601000	25.821807	0.000789	20.760512
1216.307394	-2.956000	3.521800	-10.409000	25.821871	0.000787	20.766740
1217.306828	-3.009600	3.519600	-10.591000	25.806872	0.000787	20.753569
1218.304756	-3.007400	3.518900	-10.582000	25.830740	0.000787	20.741984
1219.304747	-2.985600	3.517700	-10.501000	25.847268	0.000786	20.752897
1220.310547	-2.997600	3.518700	-10.547000	25.842238	0.000786	20.746421
1221.308172	-3.036700	3.516900	-10.679000	25.834945	0.000784	20.758536
1222.312270	-2.987400	3.517800	-10.508000	25.837247	0.000784	20.754211
1223.312306	-2.987000	3.517900	-10.507000	25.863232	0.000783	20.761822
1224.308376	-3.004300	3.517800	-10.566000	25.857209	0.000782	20.754349
1225.304216	-3.012100	3.514900	-10.586000	25.852455	0.000783	20.751470
1226.316699	-2.993800	3.517100	-10.529000	25.849012	0.000783	20.761762
1227.308056	-2.983700	3.517800	-10.495000	25.800825	0.000781	20.759824
1228.308765	-2.984800	3.515200	-10.492000	25.781194	0.000780	20.751958
1229.317511	-2.999500	3.514300	-10.540000	25.747540	0.000781	20.762250
1230.308207	-3.013600	3.514700	-10.591000	25.744576	0.000780	20.745048
1231.317853	-2.999200	3.513700	-10.537000	25.742695	0.000780	20.746004
1232.315421	-2.992600	3.513500	-10.513000	25.742515	0.000780	20.748194
1233.311606	-2.998300	3.513500	-10.533000	25.765661	0.000779	20.745364
1234.310837	-3.014200	3.512400	-10.585000	25.759654	0.000778	20.734589
1235.305903	-3.013200	3.512800	-10.585000	25.814181	0.000777	20.740523
1236.310106	-3.020000	3.511500	-10.604000	25.802836	0.000777	20.736239
1237.307662	-2.993700	3.511100	-10.510000	25.809737	0.000777	20.734635
1238.307866	-2.989100	3.510700	-10.493000	25.796356	0.000776	20.723091
1239.308741	-2.994700	3.510500	-10.512000	25.809605	0.000776	20.744935
1240.311104	-2.977300	3.510100	-10.449000	25.799488	0.000776	20.738092
1241.306792	-2.994900	3.510000	-10.511000	25.820200	0.000774	20.749414
1242.307071	-3.005200	3.508600	-10.543000	25.822054	0.000773	20.746535
1243.311984	-3.002300	3.509500	-10.535000	25.803913	0.000771	20.718827
1244.311596	-3.018900	3.509000	-10.592000	25.828921	0.000773	20.730673
1245.310955	-3.014500	3.510200	-10.580000	25.837222	0.000772	20.741857
1246.312051	-3.030100	3.506400	-10.623000	25.855776	0.000772	20.722088
1247.317539	-3.007100	3.508200	-10.549000	25.888612	0.000771	20.742746
1248.312300	-3.026900	3.508000	-10.617000	25.900126	0.000771	20.729657
1249.311513	-3.005500	3.507500	-10.540000	25.894307	0.000770	20.723337
1250.310606	-2.985200	3.507000	-10.467000	25.894046	0.000767	20.733032
1251.313486	-2.993700	3.507700	-10.500000	25.857816	0.000769	20.715601
1252.314315	-3.001100	3.507000	-10.523000	25.871796	0.000766	20.711627
1253.316096	-3.019800	3.505600	-10.585000	25.885548	0.000768	20.723547
1254.314719	-3.004300	3.506000	-10.532000	25.921809	0.000767	20.715403
1255.314255	-2.998200	3.506600	-10.511000	25.905330	0.000767	20.730618
1256.315445	-3.021400	3.503600	-10.584000	25.917593	0.000766	20.720177
1257.321341	-3.005700	3.503200	-10.528000	25.897460	0.000766	20.721288
1258.314745	-3.014000	3.504200	-10.561000	25.902269	0.000764	20.702410
1259.313331	-3.025000	3.503400	-10.597000	25.852009	0.000765	20.723994
1260.313498	-3.011000	3.504700	-10.552000	25.860025	0.000764	20.722562
1261.320154	-2.979800	3.504000	-10.439000	25.890004	0.000763	20.714272
1262.316552	-2.996000	3.503800	-10.496000	25.888726	0.000760	20.696391
1263.317291	-2.976900	3.503600	-10.429000	25.897783	0.000761	20.703120
1264.320562	-3.002000	3.501400	-10.510000	25.896757	0.000762	20.681699
1265.320466	-3.005900	3.501300	-10.524000	25.902779	0.000757	20.711932
1266.318348	-2.993100	3.501200	-10.478000	25.939634	0.000758	20.701067
1267.322793	-3.003200	3.500400	-10.512000	25.943726	0.000760	20.715611
1268.318458	-3.001200	3.501200	-10.506000	25.956241	0.000758	20.704475
1269.318998	-3.001200	3.500900	-10.506000	25.918231	0.000759	20.721766
1270.327032	-3.001100	3.498900	-10.499000	25.932032	0.000757	20.707181
1271.321261	-2.995600	3.499600	-10.482000	25.889668	0.000760	20.715831
1272.324515	-2.986400	3.498200	-10.446000	25.888365	0.000758	20.688916
1273.326222	-2.989600	3.498400	-10.456000	25.909995	0.000755	20.717285
1274.324575	-3.007200	3.497900	-10.518000	25.849482	0.000756	20.687313
1275.328785	-3.003900	3.499000	-10.510000	25.821397	0.000757	20.691818
1276.325859	-3.024900	3.494600	-10.569000	25.812274	0.000756	20.689291
1277.325365	-3.028000	3.495500	-10.582000	25.824961	0.000755	20.717686
1278.324747	-3.017800	3.496200	-10.549000	25.825401	0.000753	20.701056
1279.321734	-2.996500	3.495400	-10.473000	25.787411	0.000753	20.681859
1280.329543	-3.002600	3.495400	-10.494000	25.772273	0.000752	20.688940
1281.329538	-3.014900	3.494900	-10.536000	25.714626	0.000751	20.683192
1282.323488	-3.014300	3.495400	-10.536000	25.712762	0.000752	20.687484
1283.331421	-2.993100	3.495300	-10.461000	25.738994	0.000750	20.687280
1284.328908	-2.962400	3.496400	-10.356000	25.734485	0.000751	20.700296
1285.328616	-2.988800	3.494800	-10.445000	25.681467	0.000751	20.693036
1286.333557	-3.006700	3.494400	-10.505000	25.682150	0.000749	20.673332
1287.330401	-2.972700	3.496700	-10.393000	25.660882	0.000748	20.688956
1288.329861	-3.005700	3.493600	-10.499000	25.658457	0.000748	20.659965
1289.334915	-3.024500	3.492200	-10.561000	25.640941	0.000748	20.678410
1290.326075	-2.987300	3.491700	-10.431000	25.648316	0.000748	20.680127
1291.327667	-3.007900	3.492800	-10.503000	25.668062	0.000748	20.671036
1292.338498	-2.997800	3.491900	-10.467000	25.707229	0.000746	20.696627
1293.329685	-3.010300	3.490500	-10.506000	25.732330	0.000746	20.670153
1294.331037	-3.012300	3.491400	-10.516000	25.745344	0.000746	20.670424
1295.334059	-3.009000	3.490300	-10.501000	25.773204	0.000745	20.644351
1296.332723	-2.998000	3.490900	-10.463000	25.788269	0.000743	20.671814
1297.333534	-3.007000	3.490500	-10.496000	25.809453	0.000744	20.675551
1298.332089	-2.983000	3.489900	-10.408000	25.827317	0.000742	20.674530
1299.332279	-2.996700	3.490000	-10.457000	25.869839	0.000742	20.658448
1300.331602	-3.031500	3.488000	-10.572000	25.834854	0.000743	20.669772
1301.333196	-3.002200	3.487500	-10.470000	25.784617	0.000742	20.672888
1302.337003	-2.989500	3.489200	-10.429000	25.783958	0.000741	20.671277
1303.333227	-3.019900	3.486200	-10.527000	25.796045	0.000741	20.666348
1304.331772	-3.043800	3.485500	-10.608000	25.820745	0.000740	20.677411
1305.337609	-3.002200	3.486300	-10.465000	25.803923	0.000738	20.662408
1306.333455	-2.995700	3.485100	-10.438000	25.818679	0.000739	20.654944
1307.335987	-2.989800	3.485200	-10.419000	25.829829	0.000739	20.659507
1308.337579	-3.013400	3.484900	-10.500000	25.849426	0.000739	20.655486
1309.336512	-3.024500	3.483800	-10.535000	25.827706	0.000738	20.671127
1310.335060	-2.997700	3.485000	-10.445000	25.839849	0.000736	20.667677
1311.333787	-3.013100	3.484100	-10.496000	25.854930	0.000736	20.661489
1312.339559	-2.987700	3.484600	-10.410000	25.865429	0.000737	20.660182
1313.334970	-2.992000	3.484100	-10.424000	25.845484	0.000736	20.650576
1314.336951	-2.993600	3.484800	-10.430000	25.834425	0.000737	20.665073
1315.337302	-3.018800	3.481800	-10.510000	25.818906	0.000733	20.640471
1316.339976	-3.027000	3.482500	-10.541000	25.819004	0.000735	20.659065
1317.338675	-3.016000	3.482200	-10.500000	25.818655	0.000734	20.642591
1318.344407	-3.000600	3.482700	-10.450000	25.831572	0.000735	20.652723
1319.336150	-2.999200	3.481700	-10.441000	25.850006	0.000732	20.650377
1320.339087	-2.993400	3.481000	-10.418000	25.875161	0.000731	20.653836
1321.338877	-3.001000	3.481200	-10.447000	25.880818	0.000733	20.633912
1322.339170	-3.007100	3.479800	-10.463000	25.886361	0.000732	20.639956
1323.337065	-3.002800	3.480100	-10.449000	25.889756	0.000732	20.658541
1324.335879	-3.004400	3.478200	-10.449000	25.897276	0.000731	20.646654
1325.342327	-3.006600	3.478100	-10.456000	25.891467	0.000730	20.631808
1326.339075	-2.999900	3.479800	-10.438000	25.883013	0.000728	20.644179
1327.343088	-3.013300	3.477900	-10.479000	25.864257	0.000728	20.637664
1328.340263	-2.992200	3.477600	-10.404000	25.870678	0.000727	20.639374
1329.339061	-2.993200	3.477400	-10.408000	25.858587	0.000730	20.633391
1330.338579	-3.007300	3.477400	-10.456000	25.856619	0.000728	20.641372
1331.340744	-3.010000	3.475100	-10.458000	25.881229	0.000727	20.640490
1332.341866	-3.013100	3.476500	-10.472000	25.907678	0.000728	20.636239
1333.341094	-3.007200	3.474900	-10.449000	25.934981	0.000725	20.633797
1334.348984	-3.010900	3.475100	-10.461000	25.924119	0.000727	20.648016
1335.339735	-3.012600	3.474500	-10.466000	25.901774	0.000726	20.613710
1336.340694	-2.993000	3.474100	-10.397000	25.886452	0.000724	20.636728
1337.346034	-2.997900	3.473700	-10.412000	25.916059	0.000724	20.629485
1338.345875	-2.998700	3.472500	-10.411000	25.924897	0.000725	20.628407
1339.342311	-2.986100	3.473900	-10.372000	25.921188	0.000725	20.600495
1340.346034	-2.989200	3.473300	-10.381000	25.922752	0.000724	20.618664
1341.345044	-3.003800	3.472300	-10.429000	25.923421	0.000721	20.639728
1342.386363	-3.020400	3.471500	-10.484000	25.939063	0.000722	20.651176
1343.345572	-3.001200	3.471300	-10.417000	25.956576	0.000721	20.641743
1344.348706	-2.983000	3.470700	-10.352000	25.959882	0.000721	20.630363
1345.346790	-3.019100	3.470500	-10.477000	25.937644	0.000721	20.617978
1346.343155	-2.981500	3.471200	-10.348000	25.934057	0.000720	20.623858
1347.347603	-2.987600	3.470500	-10.368000	25.936060	0.000719	20.628716
1348.343635	-2.980100	3.469000	-10.337000	25.920983	0.000717	20.617835
1349.347891	-2.998700	3.469200	-10.402000	25.935827	0.000718	20.613781
1350.353281	-3.002700	3.469800	-10.417000	25.945049	0.000719	20.633480
1351.346490	-2.995100	3.469400	-10.390000	25.934294	0.000718	20.638323
1352.346538	-2.981300	3.470200	-10.345000	25.914928	0.000718	20.614122
1353.344234	-2.998300	3.467900	-10.397000	25.891453	0.000716	20.623257
1354.348388	-3.006900	3.466000	-10.421000	25.874951	0.000715	20.643667
1355.350362	-2.991500	3.468200	-10.374000	25.844566	0.000715	20.599386
1356.349926	-3.002700	3.467000	-10.409000	25.833158	0.000716	20.618275
1357.351005	-3.015200	3.466000	-10.449000	25.803740	0.000715	20.614328
1358.347431	-3.013200	3.464500	-10.438000	25.801821	0.000713	20.616668
1359.344738	-2.993400	3.466200	-10.375000	25.777506	0.000714	20.613106
1360.350401	-3.009900	3.465800	-10.431000	25.773763	0.000713	20.613140
1361.354616	-2.994100	3.464200	-10.369000	25.737531	0.000712	20.628431
1362.348901	-3.020100	3.463500	-10.459000	25.741106	0.000711	20.606414
1363.350121	-3.000500	3.463000	-10.389000	25.745893	0.000711	20.618337
1364.352793	-3.022000	3.463500	-10.465000	25.683851	0.000711	20.608650
1365.352070	-3.010200	3.463600	-10.426000	25.711006	0.000713	20.609846
1366.350430	-3.006700	3.463200	-10.411000	25.718903	0.000711	20.626316
1367.352597	-2.979600	3.463900	-10.319000	25.742451	0.000710	20.644755
1368.350670	-2.985900	3.462600	-10.337000	25.758373	0.000711	20.608585
1369.357583	-2.992900	3.461500	-10.359000	25.742829	0.000710	20.616207
1370.353875	-3.007500	3.460300	-10.406000	25.729882	0.000709	20.612685
1371.352437	-2.975200	3.460900	-10.295000	25.752461	0.000707	20.614502
1372.357522	-2.990600	3.461100	-10.350000	25.769458	0.000707	20.604072
1373.356899	-3.011800	3.459600	-10.419000	25.793794	0.000707	20.590583
1374.358222	-3.000200	3.461100	-10.382000	25.804937	0.000707	20.608891
1375.353816	-3.018500	3.457800	-10.437000	25.841480	0.000707	20.613832
1376.358231	-2.993300	3.457400	-10.348000	25.822968	0.000707	20.601398
1377.355375	-2.990500	3.459600	-10.345000	25.842184	0.000704	20.624024
1378.357106	-3.019000	3.456900	-10.435000	25.775826	0.000704	20.599088
1379.358451	-2.998000	3.457000	-10.364000	25.749133	0.000703	20.602622
1380.360221	-2.987100	3.457500	-10.326000	25.682224	0.000703	20.607016
1381.355282	-3.023100	3.457300	-10.450000	25.704104	0.000702	20.601016
1382.360456	-3.007000	3.455100	-10.388000	25.721069	0.000702	20.613316
1383.354627	-2.998400	3.455300	-10.360000	25.789762	0.000704	20.596492
1384.357565	-2.978300	3.455700	-10.290000	25.831962	0.000702	20.612805
1385.357158	-3.007000	3.454900	-10.388000	25.863784	0.000702	20.614427
1386.354133	-2.983200	3.455300	-10.306000	25.889942	0.000702	20.625533
1387.355977	-2.992200	3.454700	-10.336000	25.890360	0.000699	20.599870
1388.354011	-2.998500	3.454100	-10.356000	25.918250	0.000700	20.628367
1389.364842	-3.000000	3.454700	-10.364000	25.922720	0.000700	20.613890
1390.355451	-2.995300	3.455000	-10.348000	25.873141	0.000698	20.623353
1391.358757	-2.995200	3.452400	-10.340000	25.838752	0.000698	20.612988
1392.364859	-2.994300	3.453600	-10.340000	25.798877	0.000696	20.605649
1393.357335	-3.026400	3.450800	-10.441000	25.820983	0.000697	20.601301
1394.361523	-2.995400	3.451900	-10.338000	25.812890	0.000698	20.601706
1395.362216	-2.993900	3.451600	-10.333000	25.820802	0.000694	20.628624
1396.357444	-3.012800	3.451100	-10.396000	25.791263	0.000696	20.611751
1397.358572	-2.993700	3.452500	-10.335000	25.774516	0.000696	20.608206
1398.361018	-3.004300	3.450500	-10.365000	25.781698	0.000693	20.616369
1399.358086	-3.036900	3.449400	-10.475000	25.769940	0.000693	20.597444
1400.359789	-3.011500	3.448900	-10.384000	25.811532	0.000693	20.604136
1401.361242	-3.016200	3.448400	-10.400000	25.838407	0.000693	20.622126
1402.360461	-2.985600	3.449900	-10.299000	25.851871	0.000694	20.592973
1403.363549	-3.000300	3.447900	-10.343000	25.871592	0.000694	20.625591
1404.361110	-3.015700	3.448500	-10.398000	25.899263	0.000691	20.629682
1405.357444	-3.007000	3.447500	-10.366000	25.885482	0.000690	20.598764
1406.363057	-3.025600	3.447100	-10.428000	25.916083	0.000691	20.610066
1407.361510	-3.014500	3.447700	-10.392000	25.949247	0.000691	20.612090
1408.362711	-2.994400	3.446400	-10.319000	25.973589	0.000690	20.609043
1409.363536	-3.027300	3.444900	-10.428000	25.985090	0.000690	20.617281
1410.358427	-2.980400	3.446700	-10.271000	25.960951	0.000689	20.616263
1411.365483	-3.012700	3.444400	-10.375000	25.931392	0.000688	20.609799
1412.359087	-2.984300	3.444600	-10.279000	25.896232	0.000687	20.608616
1413.370467	-3.002600	3.443800	-10.339000	25.854277	0.000686	20.617205
1414.362256	-3.020900	3.443500	-10.401000	25.888013	0.000687	20.614110
1415.362041	-2.994400	3.444400	-10.313000	25.907003	0.000684	20.597624
1416.360832	-2.996300	3.442600	-10.313000	25.945554	0.000686	20.618812
1417.361099	-3.015000	3.442200	-10.377000	25.955436	0.000684	20.612618
1418.364475	-2.967300	3.443800	-10.217000	25.964359	0.000686	20.603089
1419.359955	-2.998600	3.440300	-10.315000	25.961400	0.000684	20.617663
1420.359161	-3.000700	3.440900	-10.324000	25.939792	0.000682	20.606383
1421.368395	-2.992400	3.441900	-10.298000	25.921560	0.000685	20.596126
1422.364963	-2.996000	3.441700	-10.310000	25.899542	0.000682	20.619055
1423.363822	-2.998600	3.439800	-10.313000	25.888944	0.000680	20.605087
1424.363303	-3.008300	3.439900	-10.347000	25.857291	0.000682	20.625924
1425.362759	-3.003600	3.440900	-10.334000	25.839515	0.000680	20.595260
1426.364324	-3.002600	3.439300	-10.326000	25.873203	0.000680	20.615354
1427.362527	-2.995400	3.439400	-10.301000	25.906359	0.000680	20.607883
1428.365931	-3.006100	3.438500	-10.336000	25.929442	0.000678	20.624437
1429.371618	-3.013100	3.438900	-10.360000	25.967277	0.000678	20.619299
1430.363668	-3.010800	3.437500	-10.349000	25.992733	0.000680	20.621641
1431.368288	-2.999000	3.437800	-10.307000	25.992942	0.000678	20.617583
1432.366752	-2.985400	3.436100	-10.258000	26.009105	0.000679	20.603000
1433.365529	-3.000700	3.436600	-10.312000	25.992315	0.000678	20.587551
1434.371583	-3.011700	3.435700	-10.346000	26.014817	0.000676	20.604946
1435.364269	-3.043000	3.435100	-10.451000	26.003063	0.000675	20.622062
1436.365421	-3.006300	3.434600	-10.324000	26.014044	0.000674	20.616499
1437.367930	-3.000400	3.435000	-10.305000	26.000076	0.000673	20.602463
1438.370210	-3.001900	3.434600	-10.309000	25.988210	0.000675	20.599075
1439.366292	-3.020800	3.434400	-10.373000	25.974081	0.000676	20.606218
1440.369585	-3.008600	3.433800	-10.330000	25.998739	0.000673	20.619614
1441.367772	-2.986600	3.433900	-10.255000	26.009516	0.000671	20.627124
1442.375865	-3.007600	3.432400	-10.322000	26.058407	0.000672	20.601800
1443.372017	-2.982000	3.434100	-10.239000	26.068191	0.000672	20.617797
1444.369200	-2.999500	3.432800	-10.296000	26.085988	0.000670	20.622877
1445.371701	-2.982800	3.433300	-10.240000	26.086309	0.000672	20.609447
1446.372250	-2.984500	3.430900	-10.237000	26.123269	0.000669	20.630465
1447.384290	-2.985400	3.431900	-10.245000	26.146664	0.000670	20.640698
1448.372052	-2.995300	3.431900	-10.279000	26.146270	0.000671	20.628922
1449.371026	-2.988800	3.432300	-10.257000	26.145682	0.000670	20.600826
1450.370757	-2.996800	3.430200	-10.279000	26.174039	0.000667	20.623633
1451.370611	-3.006100	3.429800	-10.309000	26.164306	0.000668	20.620016
1452.370772	-3.006600	3.428500	-10.308000	26.199170	0.000668	20.620911
1453.374646	-3.020000	3.428400	-10.352000	26.161427	0.000667	20.620443
1454.376583	-3.012700	3.426900	-10.323000	26.133534	0.000667	20.599998
1455.370012	-3.035900	3.427000	-10.402000	26.141950	0.000667	20.619838
1456.371226	-2.999800	3.428400	-10.283000	26.134795	0.000667	20.624977
1457.371710	-3.014300	3.426300	-10.327000	26.131838	0.000664	20.623428
1458.371301	-3.012200	3.424600	-10.314000	26.091140	0.000666	20.613827
1459.371648	-3.014900	3.424800	-10.325000	26.071836	0.000665	20.593954
1460.373054	-2.998500	3.425300	-10.270000	26.101221	0.000664	20.622062
1461.370800	-3.009500	3.424900	-10.306000	26.109882	0.000664	20.624125
1462.372421	-3.007300	3.424500	-10.297000	26.078329	0.000662	20.614232
1463.374736	-2.998800	3.424400	-10.268000	26.067568	0.000662	20.617171
1464.370272	-2.988700	3.425100	-10.235000	26.055548	0.000664	20.622163
1465.371711	-3.011800	3.424000	-10.311000	26.081294	0.000663	20.642345
1466.373717	-2.988400	3.425200	-10.235000	26.042447	0.000660	20.626545
1467.374811	-2.974900	3.424400	-10.186000	26.051410	0.000660	20.605201
1468.368669	-2.986200	3.423700	-10.222000	26.078860	0.000660	20.631363
1469.371624	-2.990900	3.423400	-10.238000	26.113835	0.000660	20.624305
1470.369302	-3.009700	3.422200	-10.297000	26.114182	0.000661	20.602839
1471.371245	-2.999700	3.422600	-10.265000	26.173007	0.000657	20.626864
1472.377925	-2.995500	3.421900	-10.249000	26.148004	0.000659	20.624973
1473.374359	-3.005000	3.420100	-10.276000	26.150686	0.000658	20.636204
1474.387229	-3.024000	3.420000	-10.342000	26.160615	0.000657	20.614410
1475.373690	-3.012300	3.420300	-10.302000	26.167037	0.000657	20.620864
1476.379050	-3.005900	3.420200	-10.280000	26.127625	0.000658	20.638163
1477.371341	-3.002900	3.420800	-10.272000	26.141077	0.000658	20.621805
1478.374122	-2.997700	3.419600	-10.250000	26.092444	0.000654	20.627942
1479.378409	-2.998300	3.419600	-10.252000	26.042695	0.000655	20.623949
1480.378046	-2.985100	3.419300	-10.206000	26.046987	0.000656	20.617355
1481.376089	-3.003800	3.418400	-10.266000	26.053021	0.000652	20.639542
1482.378499	-2.984400	3.417800	-10.199000	26.038714	0.000654	20.640340
1483.376093	-2.973800	3.418400	-10.165000	26.030688	0.000653	20.634172
1484.372462	-2.972400	3.417700	-10.158000	26.042663	0.000652	20.629607
1485.379670	-2.984600	3.417600	-10.199000	26.033537	0.000653	20.618066
1486.375296	-3.002600	3.416800	-10.258000	26.076186	0.000652	20.638161
1487.377193	-3.003300	3.416000	-10.258000	26.062691	0.000652	20.617012
1488.377306	-3.013300	3.416500	-10.293000	26.058246	0.000652	20.627721
1489.378207	-3.011200	3.415500	-10.284000	26.033595	0.000650	20.636619
1490.378462	-2.982300	3.415600	-10.186000	26.041469	0.000650	20.641211
1491.376363	-2.994600	3.414500	-10.223000	26.040157	0.000650	20.647481
1492.375304	-2.980000	3.414600	-10.174000	26.042367	0.000648	20.636898
1493.378370	-2.989200	3.414000	-10.203000	26.029452	0.000649	20.640517
1494.388402	-2.975500	3.414300	-10.158000	26.020943	0.000648	20.624854
1495.376138	-3.014200	3.412900	-10.286000	26.030427	0.000649	20.612096
1496.379455	-3.017400	3.412600	-10.296000	26.054127	0.000648	20.633066
1497.379988	-2.983000	3.412600	-10.179000	26.077636	0.000647	20.625391
1498.382974	-2.997900	3.411500	-10.227000	26.101759	0.000648	20.619757
1499.383101	-2.999800	3.411700	-10.232000	26.101055	0.000647	20.643234
1500.381463	-3.006900	3.410700	-10.255000	26.068102	0.000646	20.638098
1501.381465	-3.016000	3.410200	-10.284000	26.055308	0.000646	20.665076
1502.381450	-3.014400	3.411000	-10.282000	26.029193	0.000645	20.641680
1503.382516	-2.997400	3.408700	-10.216000	26.002688	0.000644	20.643026
1504.379990	-3.006300	3.410300	-10.251000	25.953505	0.000643	20.663316
1505.384297	-2.975300	3.410000	-10.145000	25.972526	0.000643	20.654923
1506.379867	-2.991200	3.408400	-10.195000	26.003865	0.000643	20.652270
1507.384428	-2.980700	3.408800	-10.160000	26.046433	0.000645	20.648097
1508.382030	-3.021200	3.406800	-10.291000	26.054151	0.000644	20.645419
1509.382563	-2.984600	3.407600	-10.170000	26.058093	0.000641	20.652226
1510.382111	-2.977800	3.408500	-10.148000	26.027293	0.000639	20.635029
1511.379971	-2.981300	3.406800	-10.155000	26.040795	0.000640	20.657606
1512.381980	-3.002000	3.405700	-10.223000	26.033023	0.000640	20.658332
1513.382550	-2.982200	3.405700	-10.155000	26.062969	0.000639	20.657126
1514.381718	-2.988400	3.405400	-10.175000	26.048798	0.000638	20.650947
1515.385855	-3.000800	3.403800	-10.212000	26.116291	0.000638	20.656649
1516.384278	-2.998900	3.404000	-10.207000	26.106996	0.000639	20.665802
1517.384379	-3.016600	3.403800	-10.266000	26.074626	0.000639	20.645129
1518.384089	-3.000300	3.404300	-10.213000	26.092954	0.000638	20.650743
1519.387645	-3.003300	3.403400	-10.219000	26.124533	0.000637	20.664457
1520.384499	-2.997200	3.403800	-10.201000	26.133423	0.000637	20.654422
1521.387809	-3.018100	3.403500	-10.270000	26.115561	0.000637	20.659235
1522.383629	-3.014300	3.401900	-10.253000	26.099913	0.000636	20.672911
1523.390997	-2.981800	3.402300	-10.144000	26.100663	0.000636	20.641418
1524.386531	-2.977700	3.402900	-10.131000	26.130365	0.000636	20.662730
1525.385640	-2.993100	3.400300	-10.176000	26.163927	0.000633	20.663264
1526.388843	-2.975700	3.401300	-10.120000	26.178021	0.000635	20.668892
1527.387864	-2.972300	3.401600	-10.109000	26.177536	0.000632	20.648487
1528.387018	-2.999300	3.400800	-10.199000	26.213334	0.000634	20.672135
1529.387862	-3.020700	3.398000	-10.264000	26.229895	0.000633	20.657006
1530.392136	-2.972300	3.401000	-10.108000	26.233826	0.000633	20.660483
1531.384312	-2.991100	3.401300	-10.172000	26.243815	0.000632	20.672893
1532.389023	-2.995200	3.398600	-10.178000	26.210193	0.000630	20.662813
1533.391562	-2.996400	3.399700	-10.186000	26.212104	0.000633	20.682754
1534.386572	-2.998900	3.397200	-10.187000	26.189453	0.000630	20.686545
1535.386837	-2.998900	3.396700	-10.184000	26.188700	0.000628	20.655914
1536.393504	-2.989400	3.398700	-10.159000	26.199685	0.000629	20.677860
1537.388815	-3.008600	3.396700	-10.218000	26.207523	0.000630	20.674830
1538.394840	-2.989600	3.396500	-10.153000	26.198846	0.000629	20.681759
1539.389228	-2.994000	3.396600	-10.169000	26.175955	0.000628	20.684835
1540.388758	-2.995100	3.396400	-10.172000	26.112335	0.000628	20.695351
1541.388927	-3.010400	3.396000	-10.222000	26.083667	0.000625	20.657060
1542.388098	-2.995900	3.394900	-10.169000	26.079164	0.000629	20.647792
1543.389390	-3.002800	3.395000	-10.194000	26.048271	0.000629	20.686458
1544.386718	-2.988800	3.394100	-10.144000	26.045413	0.000626	20.643278
1545.384223	-2.991900	3.395100	-10.157000	26.077926	0.000627	20.664568
1546.388244	-2.991300	3.395200	-10.155000	26.105173	0.000625	20.695267
1547.389322	-2.989800	3.394200	-10.147000	26.100103	0.000622	20.706295
1548.392314	-3.004700	3.392300	-10.192000	26.117876	0.000624	20.673890
1549.389791	-3.010500	3.392700	-10.213000	26.089101	0.000623	20.687653
1550.385850	-2.980500	3.391300	-10.107000	26.089837	0.000622	20.675115
1551.386470	-2.976400	3.392700	-10.096000	26.105046	0.000623	20.682336
1552.386886	-2.988300	3.391200	-10.133000	26.143207	0.000622	20.674687
1553.385921	-3.015000	3.390900	-10.222000	26.134265	0.000621	20.694153
1554.386063	-3.021400	3.390500	-10.243000	26.101206	0.000623	20.699342
1555.386295	-3.019400	3.389000	-10.232000	26.093170	0.000621	20.700752
1556.390397	-2.989700	3.390200	-10.135000	26.064576	0.000621	20.675812
1557.393889	-2.996100	3.389400	-10.153000	26.069101	0.000622	20.691265
1558.390054	-2.976600	3.391700	-10.095000	26.085580	0.000621	20.697392
1559.387192	-3.001800	3.388500	-10.171000	26.095778	0.000618	20.703846
1560.390116	-2.995400	3.389800	-10.152000	26.083339	0.000620	20.695614
1561.389427	-3.005500	3.388000	-10.181000	26.090064	0.000618	20.695259
1562.393126	-3.016800	3.386600	-10.214000	26.111020	0.000618	20.694504
1563.393346	-3.003400	3.388700	-10.176000	26.123227	0.000616	20.684957
1564.388494	-2.987400	3.387800	-10.119000	26.171515	0.000617	20.712144
1565.391506	-2.990800	3.386900	-10.129000	26.193582	0.000616	20.703972
1566.393208	-3.002800	3.386900	-10.169000	26.238709	0.000618	20.709491
1567.395746	-2.992500	3.385900	-10.131000	26.257750	0.000615	20.718669
1568.388430	-2.992900	3.385600	-10.132000	26.312491	0.000615	20.704928
1569.394752	-3.016700	3.385100	-10.211000	26.278640	0.000613	20.709790
1570.391855	-3.001100	3.384400	-10.156000	26.287628	0.000614	20.713608
1571.387622	-2.968300	3.384200	-10.044000	26.277610	0.000613	20.719661
1572.395625	-3.011800	3.383800	-10.190000	26.312184	0.000610	20.699878
1573.393077	-3.015900	3.384700	-10.207000	26.316005	0.000614	20.705140
1574.394135	-3.009300	3.383400	-10.181000	26.296030	0.000612	20.693600
1575.395590	-3.008900	3.382300	-10.176000	26.273529	0.000612	20.713188
1576.393767	-3.023700	3.382400	-10.225000	26.269498	0.000612	20.712457
1577.389893	-2.997400	3.383100	-10.139000	26.261731	0.000611	20.705599
1578.390178	-2.999300	3.382000	-10.143000	26.272327	0.000609	20.707713
1579.395309	-2.989500	3.382800	-10.112000	26.241342	0.000610	20.719725
1580.395637	-2.993600	3.381800	-10.123000	26.232909	0.000608	20.716465
1581.395557	-2.998600	3.381300	-10.137000	26.216562	0.000608	20.708098
1582.401781	-3.010900	3.380700	-10.177000	26.251961	0.000608	20.705738
1583.398035	-3.021000	3.379900	-10.210000	26.271063	0.000607	20.715452
1584.394873	-3.000000	3.380200	-10.140000	26.279639	0.000607	20.714114
1585.397810	-3.016600	3.379300	-10.193000	26.266294	0.000608	20.716824
1586.396441	-3.006700	3.379700	-10.160000	26.295328	0.000607	20.735097
1587.395592	-3.015900	3.377100	-10.184000	26.305574	0.000604	20.718366
1588.395479	-2.992100	3.378500	-10.108000	26.314622	0.000603	20.735521
1589.397670	-2.986000	3.379500	-10.090000	26.330202	0.000606	20.721306
1590.397755	-2.974000	3.379900	-10.051000	26.313457	0.000605	20.748576
1591.400961	-3.045000	3.377400	-10.283000	26.289516	0.000603	20.727360
1592.399528	-2.998400	3.376500	-10.121000	26.260299	0.000602	20.736405
1593.399795	-2.980500	3.378200	-10.067000	26.242127	0.000603	20.739954
1594.404695	-2.973200	3.376800	-10.039000	26.245163	0.000602	20.720245
1595.398114	-3.009200	3.375600	-10.157000	26.256546	0.000602	20.734056
1596.399109	-3.001800	3.375200	-10.131000	26.265862	0.000601	20.723502
1597.401754	-2.987700	3.375000	-10.082000	26.311590	0.000599	20.747173
1598.397479	-2.995900	3.374000	-10.107000	26.322816	0.000600	20.743282
1599.398591	-2.984700	3.376000	-10.075000	26.357414	0.000599	20.737750
1600.398320	-2.986800	3.376200	-10.082000	26.383976	0.000598	20.736945
1601.400294	-3.000300	3.374400	-10.123000	26.396897	0.000600	20.735232
1602.398027	-3.005200	3.373800	-10.137000	26.440369	0.000599	20.758064
1603.401195	-3.020000	3.372600	-10.183000	26.425648	0.000596	20.722877
1604.399963	-3.016400	3.373000	-10.173000	26.405942	0.000596	20.744798
1605.399786	-3.020300	3.371900	-10.183000	26.392442	0.000598	20.736919
1606.396298	-3.007700	3.371800	-10.141000	26.348276	0.000596	20.761757
1607.399310	-2.990500	3.372600	-10.085000	26.325169	0.000598	20.738060
1608.400810	-3.005500	3.371500	-10.133000	26.350161	0.000596	20.743737
1609.400397	-2.990800	3.371000	-10.081000	26.370701	0.000595	20.735456
1610.406785	-2.993000	3.371300	-10.089000	26.358893	0.000594	20.739711
1611.405784	-3.016000	3.369600	-10.162000	26.372877	0.000595	20.754714
1612.401526	-3.007400	3.369900	-10.133000	26.369598	0.000595	20.751893
1613.410410	-3.009000	3.368200	-10.134000	26.374568	0.000595	20.736972
1614.400800	-3.006500	3.368500	-10.127000	26.386810	0.000594	20.747854
1615.401962	-3.004600	3.368400	-10.120000	26.379078	0.000593	20.753360
1616.405252	-2.986600	3.368400	-10.059000	26.356856	0.000594	20.742405
1617.397742	-2.958000	3.368400	-9.962200	26.398178	0.000593	20.746478
1618.400541	-2.990000	3.367500	-10.068000	26.385042	0.000594	20.762199
1619.403520	-3.012400	3.367000	-10.142000	26.413043	0.000592	20.740555
1620.405005	-2.982400	3.368300	-10.043000	26.415704	0.000593	20.754610
1621.401326	-3.003100	3.366100	-10.107000	26.411774	0.000591	20.781480
1622.402063	-3.002800	3.365800	-10.106000	26.414362	0.000591	20.748044
1623.404499	-3.010700	3.365600	-10.131000	26.402665	0.000588	20.759996
1624.398694	-3.013300	3.365400	-10.139000	26.415305	0.000590	20.774124
1625.400509	-3.004900	3.364400	-10.109000	26.402724	0.000588	20.751521
1626.400026	-2.997500	3.363800	-10.083000	26.360772	0.000588	20.753453
1627.404620	-2.998400	3.363600	-10.084000	26.340668	0.000588	20.776397
1628.400067	-2.999800	3.363200	-10.087000	26.339433	0.000586	20.746706
1629.402054	-2.995400	3.362700	-10.071000	26.363289	0.000587	20.739387
1630.402886	-2.992000	3.362900	-10.060000	26.389563	0.000586	20.756311
1631.401376	-2.987800	3.363500	-10.049000	26.339409	0.000586	20.759959
1632.403338	-2.999000	3.361000	-10.079000	26.364583	0.000587	20.741162
1633.403810	-2.992400	3.363400	-10.064000	26.329078	0.000586	20.755266
1634.401555	-2.994100	3.362300	-10.066000	26.322038	0.000584	20.753407
1635.399627	-3.003900	3.362100	-10.099000	26.290439	0.000583	20.743934
1636.403571	-3.008200	3.361000	-10.108000	26.277942	0.000583	20.769783
1637.401195	-3.005900	3.360900	-10.102000	26.290536	0.000581	20.735022
1638.404379	-3.009200	3.359800	-10.109000	26.329526	0.000584	20.729636
1639.403935	-3.010900	3.360200	-10.116000	26.360313	0.000583	20.759631
1640.403511	-2.997600	3.360700	-10.072000	26.354471	0.000580	20.747595
1641.406629	-3.005900	3.359600	-10.098000	26.386358	0.000581	20.755935
1642.407108	-2.992400	3.359100	-10.051000	26.417373	0.000580	20.761029
1643.409278	-2.981100	3.360200	-10.016000	26.423360	0.000578	20.765624
1644.410294	-3.010100	3.358400	-10.107000	26.454339	0.000578	20.753138
1645.412245	-2.999000	3.358800	-10.072000	26.497968	0.000578	20.741040
1646.406548	-3.021300	3.358000	-10.144000	26.495440	0.000578	20.751302
1647.411518	-2.998100	3.356600	-10.062000	26.531047	0.000577	20.732091
1648.426962	-3.001900	3.357200	-10.078000	26.508672	0.000578	20.746110
1649.409924	-3.015600	3.356100	-10.119000	26.480997	0.000577	20.749587
1650.411875	-3.010400	3.356500	-10.104000	26.478021	0.000577	20.743276
1651.418376	-2.994600	3.356000	-10.049000	26.462042	0.000578	20.733378
1652.424978	-3.010600	3.356300	-10.104000	26.445857	0.000576	20.741767
1653.421078	-2.995900	3.354800	-10.048000	26.426418	0.000575	20.762059
1654.417830	-3.009800	3.354500	-10.096000	26.439361	0.000574	20.739505
1655.414723	-3.018900	3.355200	-10.128000	26.438730	0.000574	20.750252
1656.417597	-2.979700	3.354100	-9.993500	26.449750	0.000573	20.729559
1657.418523	-2.992400	3.354200	-10.036000	26.475090	0.000572	20.742701
1658.416866	-3.008200	3.354200	-10.089000	26.449349	0.000573	20.755235
1659.414979	-3.020800	3.353000	-10.127000	26.411391	0.000572	20.754067
1660.416751	-2.997500	3.353100	-10.050000	26.389606	0.000572	20.756828
1661.413490	-2.994900	3.352800	-10.040000	26.380314	0.000570	20.747489
1662.412266	-3.002200	3.352400	-10.064000	26.381268	0.000571	20.742284
1663.413455	-3.014300	3.351800	-10.102000	26.378643	0.000570	20.742016
1664.413297	-3.008300	3.351300	-10.081000	26.399412	0.000571	20.739182
1665.414704	-2.987500	3.350800	-10.009000	26.342966	0.000571	20.720384
1666.413425	-2.987900	3.350400	-10.009000	26.337329	0.000569	20.735582
1667.411222	-3.005600	3.349500	-10.066000	26.335720	0.000568	20.733490
1668.416872	-2.984000	3.352200	-10.002000	26.323199	0.000568	20.736080
1669.418550	-3.010900	3.349900	-10.085000	26.317247	0.000570	20.730098
1670.419907	-2.989600	3.349600	-10.013000	26.259697	0.000570	20.724893
1671.424658	-2.970500	3.350300	-9.950900	26.267222	0.000567	20.745733
1672.420459	-3.016700	3.348100	-10.099000	26.288381	0.000570	20.734753
1673.420098	-3.004400	3.348000	-10.057000	26.338802	0.000566	20.730424
1674.424624	-3.013800	3.347500	-10.088000	26.347656	0.000568	20.725097
1675.416950	-2.991300	3.347500	-10.012000	26.379858	0.000566	20.733280
1676.421550	-2.987700	3.348400	-10.004000	26.421627	0.000566	20.725474
1677.425283	-2.998700	3.346900	-10.036000	26.415071	0.000566	20.740222
1678.432390	-3.003100	3.346200	-10.048000	26.391157	0.000564	20.726143
1679.423299	-3.015900	3.346500	-10.093000	26.399395	0.000564	20.745330
1680.423928	-2.997900	3.346500	-10.031000	26.403070	0.000564	20.732902
1681.424467	-2.989600	3.345700	-10.002000	26.388736	0.000564	20.735091
1682.422358	-3.015100	3.343800	-10.080000	26.387261	0.000562	20.734557
1683.426637	-2.998300	3.344700	-10.027000	26.356450	0.000562	20.726349
1684.422363	-3.014400	3.343400	-10.077000	26.344038	0.000562	20.702494
1685.422304	-2.975100	3.344600	-9.948700	26.333683	0.000563	20.744246
1686.424827	-2.982700	3.346100	-9.978800	26.354806	0.000562	20.727541
1687.427666	-3.004900	3.344600	-10.050000	26.364567	0.000561	20.727395
1688.422353	-3.017900	3.343100	-10.088000	26.368547	0.000561	20.724282
1689.422754	-3.020800	3.342600	-10.096000	26.359451	0.000559	20.722252
1690.426160	-3.000100	3.342300	-10.026000	26.368948	0.000560	20.730849
1691.428945	-3.005600	3.343400	-10.048000	26.382411	0.000559	20.737269
1692.429101	-3.003600	3.341600	-10.036000	26.367605	0.000560	20.728077
1693.430136	-3.001200	3.341400	-10.027000	26.361302	0.000560	20.726484
1694.428721	-2.990100	3.341400	-9.990200	26.331628	0.000560	20.718946
1695.427706	-2.987900	3.342300	-9.984400	26.275472	0.000556	20.726522
1696.430767	-3.012500	3.340600	-10.062000	26.242177	0.000557	20.711554
1697.427272	-2.995500	3.340100	-10.004000	26.242336	0.000556	20.736845
1698.429198	-3.022600	3.338900	-10.091000	26.268311	0.000555	20.740189
1699.427090	-3.016000	3.340100	-10.073000	26.289289	0.000556	20.717647
1700.432587	-3.008000	3.340100	-10.046000	26.314960	0.000554	20.726852
1701.430250	-2.992600	3.339500	-9.992000	26.291213	0.000552	20.729539
1702.432862	-2.993900	3.338600	-9.994500	26.246741	0.000553	20.731788
1703.430161	-3.010300	3.338400	-10.048000	26.263665	0.000552	20.721295
1704.429277	-3.022600	3.337200	-10.086000	26.260073	0.000551	20.716736
1705.430767	-2.981700	3.338900	-9.952900	26.242761	0.000549	20.719728
1706.429104	-2.996000	3.338000	-9.999400	26.265142	0.000549	20.702863
1707.431586	-3.006500	3.336100	-10.030000	26.319789	0.000549	20.734075
1708.427502	-3.006500	3.334900	-10.024000	26.306069	0.000548	20.722183
1709.431606	-3.016000	3.336000	-10.061000	26.356381	0.000548	20.731022
1710.442123	-2.990700	3.335900	-9.975100	26.393182	0.000549	20.710634
1711.432127	-2.996700	3.334300	-9.990600	26.428152	0.000546	20.727765
1712.429476	-3.002800	3.335700	-10.015000	26.459578	0.000546	20.727583
1713.434069	-2.983000	3.335500	-9.948600	26.434333	0.000548	20.731133
1714.432250	-2.986600	3.333800	-9.955700	26.439655	0.000547	20.726524
1715.437123	-3.017500	3.334200	-10.060000	26.464899	0.000544	20.729138
1716.435102	-3.019700	3.332100	-10.061000	26.490470	0.000543	20.710743
1717.436767	-2.984600	3.333200	-9.947100	26.495344	0.000544	20.713271
1718.438977	-3.001100	3.332200	-9.999400	26.485618	0.000543	20.735739
1719.433796	-3.013400	3.332700	-10.042000	26.483744	0.000542	20.728640
1720.436475	-3.013500	3.331800	-10.039000	26.477297	0.000542	20.714572
1721.443134	-3.016400	3.331200	-10.047000	26.442485	0.000541	20.714669
1722.441625	-3.004000	3.331400	-10.006000	26.469956	0.000540	20.712883
1723.437242	-3.006500	3.330000	-10.010000	26.453578	0.000539	20.733406
1724.439298	-2.994100	3.329900	-9.969400	26.448437	0.000540	20.725868
1725.440156	-2.994400	3.330400	-9.971100	26.451691	0.000540	20.733406
1726.443116	-3.007000	3.329900	-10.012000	26.430898	0.000539	20.726732
1727.438281	-3.011800	3.329100	-10.026000	26.380166	0.000537	20.734064
1728.438642	-2.988500	3.329000	-9.948500	26.364174	0.000538	20.717990
1729.440247	-2.976300	3.330200	-9.910100	26.418899	0.000537	20.703291
1730.437823	-2.991900	3.329300	-9.959800	26.454463	0.000538	20.737141
1731.446045	-3.019400	3.328800	-10.050000	26.442247	0.000536	20.726284
1732.441361	-3.018100	3.327500	-10.042000	26.484606	0.000536	20.725238
1733.442930	-3.001700	3.328700	-9.991500	26.471349	0.000534	20.723767
1734.439398	-2.993700	3.328200	-9.963300	26.513249	0.000535	20.737908
1735.444654	-2.987900	3.327700	-9.941500	26.518669	0.000535	20.719647
1736.449511	-2.997000	3.326100	-9.967000	26.521572	0.000533	20.715453
1737.441833	-3.016500	3.324700	-10.028000	26.529580	0.000532	20.708329
1738.444346	-2.988200	3.326500	-9.939200	26.546222	0.000533	20.725058
1739.443605	-3.000800	3.323900	-9.972900	26.554979	0.000531	20.722007
1740.445673	-3.002500	3.325600	-9.984100	26.547941	0.000531	20.728683
1741.444271	-3.001900	3.324800	-9.980200	26.562806	0.000530	20.716598
1742.446639	-2.991700	3.324300	-9.944800	26.591663	0.000531	20.729960
1743.444880	-2.987500	3.324500	-9.930800	26.612284	0.000530	20.728878
1744.440064	-2.998400	3.323200	-9.963300	26.644395	0.000529	20.719432
1745.457389	-3.002000	3.324000	-9.978100	26.670360	0.000528	20.723724
1746.443851	-2.994400	3.323800	-9.951200	26.650138	0.000526	20.716671
1747.441759	-2.996500	3.321700	-9.952600	26.663223	0.000525	20.733146
1748.443043	-2.988800	3.322800	-9.930600	26.674653	0.000528	20.721876
1749.444159	-3.012200	3.320700	-10.001000	26.705636	0.000526	20.706556
1750.442491	-2.991300	3.320400	-9.929900	26.737197	0.000527	20.735444
1751.444117	-3.001800	3.319700	-9.963900	26.727948	0.000525	20.718083
1752.445331	-2.984600	3.321600	-9.912700	26.654590	0.000525	20.723992
1753.443730	-2.998900	3.320500	-9.955600	26.642823	0.000523	20.710739
1754.447914	-3.014500	3.319600	-10.006000	26.587142	0.000524	20.718776
1755.445783	-3.003800	3.318800	-9.967300	26.563932	0.000524	20.707298
1756.443402	-2.991500	3.319700	-9.930100	26.552878	0.000522	20.727482
1757.450966	-3.004600	3.318700	-9.970100	26.559204	0.000525	20.721513
1758.453825	-2.991500	3.318700	-9.925300	26.542587	0.000523	20.722352
1759.447613	-3.003400	3.318000	-9.964200	26.517864	0.000522	20.725003
1760.448111	-2.990600	3.317600	-9.920100	26.505103	0.000522	20.723082
1761.447966	-2.979800	3.319600	-9.890800	26.502612	0.000521	20.716310
1762.452915	-2.977800	3.318800	-9.880200	26.499709	0.000521	20.711021
1763.452425	-2.982500	3.316900	-9.890600	26.554018	0.000520	20.722937
1764.450709	-3.006700	3.317300	-9.973800	26.580904	0.000521	20.702547
1765.451365	-3.018100	3.314800	-10.003000	26.627637	0.000519	20.707801
1766.457983	-2.991800	3.314700	-9.916000	26.624395	0.000517	20.708335
1767.448072	-2.985000	3.315400	-9.895700	26.610851	0.000518	20.710367
1768.451530	-2.997100	3.314900	-9.933600	26.608867	0.000517	20.711692
1769.451861	-2.972300	3.316300	-9.855900	26.597814	0.000519	20.730927
1770.449190	-3.002700	3.315300	-9.952600	26.610538	0.000516	20.718588
1771.454262	-3.025200	3.313300	-10.022000	26.620503	0.000516	20.710112
1772.454335	-2.989000	3.314200	-9.905200	26.616718	0.000516	20.721481
1773.454876	-2.965500	3.313600	-9.825500	26.600827	0.000515	20.705505
1774.453711	-3.011500	3.311300	-9.970400	26.584911	0.000515	20.723646
1775.452351	-2.997300	3.311300	-9.923600	26.629744	0.000514	20.723196
1776.453349	-3.001400	3.311700	-9.938800	26.649796	0.000512	20.731501
1777.456434	-2.992300	3.312200	-9.909600	26.669522	0.000513	20.714821
1778.449730	-3.021800	3.310600	-10.003000	26.702380	0.000513	20.699963
1779.450824	-3.015000	3.309400	-9.976300	26.712780	0.000512	20.735077
1780.456349	-3.017300	3.311400	-9.990500	26.704654	0.000511	20.700827
1781.451822	-3.009700	3.308800	-9.957200	26.725648	0.000509	20.711503
1782.451593	-3.004000	3.310000	-9.942800	26.722735	0.000509	20.721851
1783.457016	-3.025900	3.309600	-10.014000	26.754031	0.000508	20.715857
1784.454382	-2.987600	3.309800	-9.887700	26.810345	0.000509	20.724114
1785.453977	-3.000600	3.307900	-9.924800	26.826174	0.000506	20.705414
1786.455280	-3.003000	3.308200	-9.932800	26.817928	0.000508	20.717987
1787.457373	-2.984100	3.309500	-9.875500	26.829935	0.000507	20.705403
1788.455239	-3.001600	3.307700	-9.926200	26.823043	0.000507	20.703688
1789.450366	-2.980000	3.308300	-9.858100	26.816429	0.000505	20.697512
1790.456446	-3.015500	3.307300	-9.972000	26.772849	0.000504	20.685937
1791.455402	-3.005500	3.306900	-9.937900	26.769863	0.000501	20.713283
1792.455945	-3.009400	3.306800	-9.950200	26.778400	0.000502	20.706219
1793.458574	-3.001500	3.305000	-9.918000	26.764314	0.000502	20.711022
1794.457894	-2.993600	3.305400	-9.894700	26.770795	0.000502	20.712797
1795.456570	-3.000000	3.304300	-9.912000	26.767203	0.000503	20.710134
1796.461418	-3.002200	3.305000	-9.921700	26.707755	0.000502	20.706790
1797.461306	-3.004800	3.302900	-9.923900	26.686726	0.000500	20.705088
1798.456258	-3.012900	3.304200	-9.954100	26.654629	0.000501	20.707909
1799.461080	-3.017100	3.304300	-9.968400	26.654848	0.000499	20.717138
1800.456501	-3.013300	3.301600	-9.947800	26.690693	0.000496	20.716190
1801.457773	-3.014700	3.302200	-9.952800	26.728363	0.000498	20.712811
1802.458320	-2.990100	3.302300	-9.873400	26.746126	0.000496	20.702693
1803.457353	-2.970000	3.302700	-9.807800	26.713670	0.000495	20.695192
1804.458178	-3.010600	3.301000	-9.937300	26.669555	0.000495	20.707741
1805.460599	-3.000300	3.301600	-9.904500	26.642355	0.000495	20.711217
1806.463891	-2.980500	3.301000	-9.837300	26.672638	0.000494	20.685234
1807.462363	-2.996000	3.301000	-9.887900	26.673328	0.000493	20.697783
1808.463466	-3.001700	3.298900	-9.901600	26.630976	0.000493	20.704519
1809.461287	-2.995000	3.299800	-9.881700	26.635596	0.000492	20.703473
1810.461679	-2.981600	3.299600	-9.836600	26.570650	0.000491	20.695084
1811.460279	-3.000900	3.300600	-9.903600	26.563054	0.000491	20.688871
1812.465495	-3.016800	3.297400	-9.946200	26.550863	0.000492	20.692263
1813.466573	-2.983600	3.299800	-9.843700	26.589795	0.000491	20.706744
1814.458516	-2.981000	3.298400	-9.831700	26.619958	0.000491	20.693916
1815.461446	-2.993400	3.298400	-9.872400	26.650942	0.000490	20.684286
1816.463036	-3.010300	3.296500	-9.922500	26.685917	0.000488	20.695740
1817.460402	-2.993000	3.297200	-9.867200	26.717238	0.000486	20.690719
1818.465844	-2.999900	3.297500	-9.891000	26.743105	0.000488	20.703449
1819.469718	-2.973300	3.298100	-9.804800	26.783687	0.000488	20.673599
1820.461268	-3.002300	3.296800	-9.897600	26.718605	0.000486	20.696834
1821.463635	-2.988400	3.296000	-9.847400	26.666218	0.000487	20.700118
1822.468675	-3.004000	3.294500	-9.895600	26.675034	0.000487	20.692385
1823.464307	-2.992900	3.296300	-9.863700	26.682507	0.000486	20.704641
1824.463390	-3.013800	3.293200	-9.922700	26.722003	0.000484	20.694561
1825.479350	-2.977000	3.294200	-9.805600	26.715158	0.000483	20.701430
1826.473154	-2.988500	3.295200	-9.846900	26.740625	0.000485	20.690049
1827.464533	-2.985800	3.293300	-9.832100	26.785827	0.000482	20.691399
1828.469110	-2.988100	3.292700	-9.838100	26.816081	0.000483	20.700482
1829.467716	-2.978400	3.294300	-9.810000	26.787810	0.000481	20.692445
1830.465124	-2.978500	3.292300	-9.804200	26.745716	0.000482	20.669561
1831.466933	-2.969300	3.291400	-9.772400	26.761171	0.000481	20.691266
1832.463907	-2.985800	3.291400	-9.826400	26.767000	0.000481	20.675314
1833.467314	-2.981600	3.290900	-9.810300	26.745584	0.000481	20.700251
1834.467559	-2.987900	3.291800	-9.833100	26.724011	0.000480	20.676663
1835.467634	-2.992400	3.290900	-9.847000	26.674139	0.000479	20.681053
1836.467355	-2.983900	3.290500	-9.816200	26.621712	0.000477	20.690938
1837.475115	-2.994100	3.289300	-9.846100	26.576213	0.000478	20.693090
1838.468109	-3.002100	3.289900	-9.875400	26.607659	0.000477	20.673964
1839.468446	-2.956000	3.289600	-9.722300	26.613718	0.000477	20.689540
1840.465743	-3.015100	3.288600	-9.914000	26.614529	0.000474	20.679923
1841.472174	-3.008400	3.288900	-9.892800	26.658165	0.000475	20.666415
1842.470339	-2.990200	3.290100	-9.836100	26.678591	0.000474	20.702600
1843.470392	-2.998700	3.288500	-9.859500	26.697106	0.000474	20.686125
1844.473641	-3.012200	3.287300	-9.900900	26.747316	0.000474	20.679231
1845.471134	-3.026800	3.287200	-9.948600	26.745707	0.000470	20.663388
1846.470608	-3.046700	3.285000	-10.008000	26.779191	0.000471	20.684253
1847.475087	-3.010500	3.286200	-9.892000	26.774246	0.000472	20.685445
1848.474850	-2.982400	3.288200	-9.806300	26.741899	0.000470	20.706030
1849.471527	-3.000400	3.286400	-9.859300	26.703746	0.000471	20.683792
1850.466801	-2.982600	3.286300	-9.800100	26.684132	0.000467	20.671183
1851.468250	-3.002700	3.285800	-9.865700	26.683781	0.000469	20.671305
1852.468187	-3.012600	3.283500	-9.890700	26.659727	0.000468	20.700705
1853.469947	-3.023800	3.282900	-9.926600	26.694157	0.000465	20.677944
1854.471678	-3.012400	3.283000	-9.889100	26.749954	0.000467	20.677142
1855.471156	-3.005700	3.283200	-9.866500	26.771551	0.000465	20.697909
1856.472853	-3.000600	3.283700	-9.852900	26.816412	0.000466	20.684217
1857.478514	-3.018100	3.282900	-9.907200	26.840063	0.000463	20.672435
1858.478452	-3.031000	3.281800	-9.946000	26.858357	0.000465	20.693677
1859.474922	-3.015100	3.282700	-9.896600	26.830777	0.000464	20.668314
1860.477861	-2.988500	3.281000	-9.804300	26.829217	0.000463	20.671013
1861.474741	-2.997300	3.280700	-9.832400	26.796775	0.000461	20.695294
1862.472461	-3.000400	3.281500	-9.845100	26.805808	0.000462	20.670235
1863.480388	-2.988900	3.280800	-9.805100	26.805166	0.000461	20.684290
1864.476954	-3.002300	3.279000	-9.842900	26.831443	0.000462	20.684632
1865.488389	-2.982100	3.279300	-9.778600	26.878249	0.000460	20.668631
1866.479901	-2.979000	3.279200	-9.767800	26.871574	0.000459	20.685629
1867.477720	-3.001400	3.279700	-9.842700	26.867778	0.000459	20.679914
1868.477744	-2.984800	3.279400	-9.785700	26.856932	0.000459	20.693666
1869.479204	-2.991500	3.277500	-9.803300	26.885926	0.000456	20.678722
1870.475650	-3.025600	3.276200	-9.911100	26.869518	0.000456	20.689252
1871.478073	-2.981200	3.278100	-9.772000	26.860704	0.000457	20.680388
1872.483263	-3.009400	3.277600	-9.861700	26.851782	0.000456	20.688961
1873.477698	-3.017400	3.275100	-9.881400	26.806026	0.000455	20.687051
1874.478440	-3.016200	3.274600	-9.876300	26.779229	0.000454	20.673384
1875.479308	-3.001000	3.275900	-9.830100	26.792627	0.000453	20.672156
1876.480269	-2.981500	3.275600	-9.765200	26.830500	0.000453	20.675622
1877.481022	-3.003300	3.274800	-9.834300	26.862445	0.000452	20.669335
1878.481656	-3.011400	3.274000	-9.858900	26.902322	0.000452	20.669603
1879.482096	-3.017500	3.272900	-9.874900	26.911112	0.000452	20.688401
1880.488238	-3.007500	3.271700	-9.837600	26.949753	0.000450	20.684109
1881.487402	-2.984400	3.274900	-9.772000	26.963476	0.000449	20.674673
1882.487847	-2.979600	3.273800	-9.752500	26.987595	0.000451	20.695611
1883.481538	-2.991100	3.272700	-9.787700	27.008123	0.000449	20.666940
1884.480132	-3.010400	3.272100	-9.849200	27.028168	0.000447	20.666709
1885.491000	-2.995600	3.271100	-9.796700	27.045613	0.000449	20.692790
1886.488674	-3.013100	3.270900	-9.854400	27.042566	0.000447	20.693994
1887.484959	-3.004900	3.270200	-9.825700	27.075510	0.000446	20.689666
1888.484974	-2.982500	3.270500	-9.753400	27.099010	0.000447	20.688170
1889.496392	-3.020500	3.269300	-9.874100	27.103881	0.000445	20.682637
1890.484934	-3.003500	3.270100	-9.820700	27.102044	0.000446	20.691222
1891.490587	-2.981800	3.269600	-9.747700	27.106179	0.000444	20.685897
1892.481289	-2.978300	3.270400	-9.739400	27.095419	0.000444	20.672229
1893.484419	-3.017700	3.269300	-9.864700	27.103289	0.000444	20.691051
1894.485542	-3.021700	3.266500	-9.868200	27.096713	0.000441	20.669262
1895.491353	-3.015800	3.267300	-9.852500	27.115123	0.000441	20.698687
1896.486005	-3.036700	3.264600	-9.911800	27.108052	0.000441	20.695842
1897.483231	-3.012800	3.266800	-9.840800	27.086171	0.000440	20.707501
1898.487464	-2.984700	3.267400	-9.750900	27.040306	0.000439	20.700730
1899.485228	-2.978100	3.267800	-9.730400	26.991947	0.000437	20.702833
1900.484251	-2.979000	3.266600	-9.729800	26.934387	0.000436	20.691891
1901.485893	-2.984500	3.267200	-9.748700	26.961371	0.000436	20.693422
1902.487473	-3.004700	3.265000	-9.809600	26.974997	0.000436	20.680570
1903.484613	-2.994100	3.265700	-9.776900	26.992987	0.000436	20.693446
1904.484288	-2.994100	3.266100	-9.777000	27.039471	0.000436	20.675232
1905.488915	-3.006300	3.263400	-9.809900	27.039460	0.000435	20.692766
1906.487479	-2.998500	3.264100	-9.786900	27.041912	0.000434	20.688594
1907.491279	-2.990200	3.264600	-9.760700	27.073549	0.000432	20.688168
1908.491742	-2.997900	3.263100	-9.780200	27.078288	0.000431	20.672544
1909.490818	-3.009000	3.262900	-9.817400	27.039217	0.000431	20.701532
1910.490701	-3.004700	3.262800	-9.802600	27.047389	0.000430	20.677979
1911.488304	-2.981600	3.262500	-9.726500	27.055501	0.000432	20.686138
1912.492869	-3.019800	3.262400	-9.850600	27.068339	0.000432	20.696205
1913.487751	-2.997900	3.261400	-9.776400	27.060324	0.000430	20.684350
1914.495067	-3.012700	3.260600	-9.821500	27.067722	0.000431	20.700801
1915.487832	-2.991500	3.260400	-9.752700	27.097497	0.000428	20.703719
1916.492157	-3.031600	3.258800	-9.877500	27.092963	0.000428	20.702952
1917.495752	-3.012800	3.259000	-9.817000	27.090716	0.000426	20.686941
1918.494557	-3.022900	3.257100	-9.845000	27.079460	0.000426	20.688897
1919.492761	-3.006200	3.259300	-9.796700	27.035637	0.000424	20.681334
1920.499194	-3.011400	3.258300	-9.810800	27.036629	0.000426	20.704619
1921.492948	-3.014300	3.257600	-9.817500	27.085142	0.000425	20.701251
1922.491458	-3.021700	3.256800	-9.839300	27.098354	0.000424	20.698416
1923.488600	-3.003400	3.257700	-9.782200	27.109197	0.000422	20.689881
1924.499949	-2.988100	3.257300	-9.732700	27.126339	0.000422	20.694794
1925.489461	-2.974800	3.257400	-9.688900	27.158930	0.000422	20.702443
1926.489409	-2.962300	3.259000	-9.652400	27.164321	0.000420	20.695536
1927.493766	-2.988100	3.255300	-9.725500	27.150552	0.000422	20.702077
1928.494999	-2.988200	3.255500	-9.727700	27.143928	0.000420	20.708217
1929.492362	-2.978300	3.256300	-9.697200	27.153055	0.000418	20.718346
1930.489193	-3.000900	3.255200	-9.767500	27.149644	0.000419	20.685516
1931.489593	-2.997500	3.255600	-9.757000	27.183129	0.000419	20.704497
1932.492637	-3.000100	3.252100	-9.755700	27.196450	0.000417	20.708886
1933.494478	-2.975400	3.255400	-9.684600	27.199725	0.000416	20.671400
1934.491487	-3.005400	3.252200	-9.772800	27.213650	0.000415	20.694891
1935.493508	-3.003400	3.252800	-9.768400	27.175163	0.000415	20.712607
1936.493477	-3.001000	3.252600	-9.760200	27.149453	0.000415	20.718991
1937.490294	-3.005000	3.250900	-9.767100	27.112209	0.000413	20.698600
1938.493977	-2.966500	3.252100	-9.646400	27.103855	0.000415	20.692569
1939.492275	-3.019800	3.250900	-9.814700	27.040956	0.000413	20.712764
1940.497393	-3.005700	3.250400	-9.767700	26.995803	0.000411	20.699598
1941.496258	-3.017400	3.249700	-9.804600	26.994860	0.000412	20.698175
1942.494170	-2.988400	3.250100	-9.711000	26.978950	0.000412	20.705884
1943.497233	-2.984300	3.251900	-9.703800	26.947213	0.000408	20.715221
1944.499850	-2.983100	3.250300	-9.695400	26.988223	0.000409	20.685336
1945.495990	-2.991700	3.249900	-9.720400	26.962870	0.000410	20.711051
1946.501287	-3.011300	3.247700	-9.778900	26.969603	0.000408	20.699329
1947.501511	-3.007800	3.248100	-9.768900	26.988102	0.000408	20.719356
1948.495131	-3.009200	3.247300	-9.770900	26.996541	0.000408	20.718833
1949.499620	-2.985700	3.248300	-9.697400	27.019970	0.000405	20.709203
1950.499732	-2.999900	3.246600	-9.738900	27.050266	0.000406	20.705057
1951.500518	-3.009800	3.246000	-9.769000	27.087766	0.000405	20.714796
1952.500549	-3.000700	3.246700	-9.741100	27.139094	0.000403	20.702407
1953.494248	-2.999400	3.246900	-9.738000	27.178598	0.000404	20.720329
1954.497036	-2.992000	3.245400	-9.708300	27.205131	0.000404	20.711929
1955.503011	-3.007200	3.245000	-9.756500	27.254567	0.000403	20.719454
1956.499705	-3.014000	3.243500	-9.775300	27.239641	0.000401	20.726726
1957.495472	-2.999800	3.246100	-9.735900	27.280953	0.000401	20.712330
1958.499413	-2.985400	3.245000	-9.686200	27.287975	0.000401	20.704694
1959.498743	-2.982500	3.243000	-9.671900	27.297402	0.000400	20.717023
1960.502360	-2.993800	3.242400	-9.706200	27.305477	0.000398	20.708075
1961.501421	-2.985800	3.243900	-9.684700	27.253082	0.000399	20.719857
1962.502042	-2.987500	3.243600	-9.688800	27.283722	0.000398	20.717486
1963.503170	-3.002600	3.240800	-9.729500	27.297634	0.000398	20.722946
1964.503833	-3.009800	3.242300	-9.757400	27.288193	0.000397	20.707284
1965.498170	-2.996300	3.241200	-9.710700	27.299121	0.000395	20.733451
1966.498633	-3.011600	3.241400	-9.760200	27.309768	0.000397	20.726617
1967.496713	-2.994700	3.240300	-9.702500	27.338437	0.000394	20.717524
1968.497023	-2.975800	3.239800	-9.640600	27.336382	0.000394	20.719724
1969.501021	-2.995800	3.239100	-9.702300	27.343199	0.000392	20.732746
1970.498865	-2.980300	3.240900	-9.658500	27.344613	0.000391	20.729427
1971.499782	-3.013800	3.238000	-9.757600	27.355624	0.000393	20.717269
1972.499860	-3.009300	3.239000	-9.746800	27.339937	0.000391	20.727568
1973.501957	-3.000000	3.237700	-9.711900	27.307376	0.000389	20.721366
1974.500707	-2.963600	3.237500	-9.593500	27.320356	0.000391	20.717827
1975.505955	-2.979500	3.238000	-9.646800	27.329904	0.000388	20.730278
1976.502258	-3.000200	3.236800	-9.709900	27.337061	0.000386	20.731787
1977.511663	-3.001400	3.235300	-9.709900	27.292462	0.000387	20.724856
1978.507810	-2.972600	3.237300	-9.622300	27.248998	0.000385	20.722862
1979.504715	-3.002400	3.235900	-9.714600	27.251802	0.000386	20.709086
1980.507453	-2.975500	3.236200	-9.626900	27.211176	0.000384	20.710896
1981.510426	-2.988100	3.235300	-9.665400	27.232946	0.000383	20.739434
1982.513041	-3.012700	3.233200	-9.739200	27.245542	0.000384	20.742620
1983.507683	-3.008300	3.233300	-9.726100	27.218575	0.000382	20.716442
1984.508539	-3.007000	3.232800	-9.718800	27.268664	0.000383	20.746912
1985.506843	-2.997500	3.234000	-9.692500	27.279468	0.000382	20.720794
1986.509458	-3.029500	3.231500	-9.788500	27.284109	0.000380	20.726411
1987.509155	-3.002000	3.233000	-9.704400	27.274380	0.000380	20.717098
1988.513300	-2.995800	3.234600	-9.688100	27.253254	0.000381	20.734255
1989.509076	-3.009900	3.230100	-9.721600	27.270054	0.000376	20.746887
1990.508123	-3.032800	3.230200	-9.795000	27.287253	0.000378	20.738583
1991.512718	-3.000300	3.230200	-9.690900	27.290517	0.000375	20.731909
1992.509538	-2.991600	3.229100	-9.658600	27.266331	0.000376	20.731288
1993.511497	-3.007800	3.228900	-9.711700	27.290541	0.000373	20.728614
1994.512177	-2.998400	3.228900	-9.680500	27.305552	0.000376	20.726644
1995.520086	-2.997100	3.230300	-9.679100	27.303667	0.000373	20.735653
1996.510559	-3.009900	3.228000	-9.715800	27.304381	0.000373	20.724991
1997.512693	-2.986900	3.228700	-9.641500	27.247029	0.000374	20.737477
1998.513577	-2.985400	3.227600	-9.634400	27.184429	0.000371	20.747058
1999.515736	-3.001800	3.226800	-9.684200	27.221525	0.000372	20.737902
2000.515098	-2.987500	3.226900	-9.640000	27.217851	0.000372	20.743690
2001.512004	-2.938600	3.227700	-9.483600	27.229708	0.000370	20.745660
2002.518190	-2.995000	3.225800	-9.660300	27.254342	0.000369	20.732979
2003.515779	-3.001600	3.225100	-9.678400	27.228706	0.000369	20.729004
2004.521677	-3.026800	3.223400	-9.755800	27.202089	0.000366	20.739216
2005.514479	-3.012100	3.225300	-9.714000	27.198245	0.000368	20.750524
2006.515325	-3.037000	3.223100	-9.787300	27.220824	0.000366	20.732930
2007.519620	-3.001300	3.223900	-9.675000	27.235971	0.000364	20.748166
2008.517159	-2.995600	3.223800	-9.656100	27.263263	0.000366	20.718244
2009.516253	-2.984500	3.223000	-9.618200	27.236574	0.000365	20.731229
2010.513730	-2.994100	3.223200	-9.649400	27.208244	0.000363	20.753468
2011.517326	-2.983300	3.222600	-9.612600	27.171786	0.000363	20.728177
2012.515826	-2.983100	3.221900	-9.610700	27.159543	0.000363	20.752374
2013.520163	-3.004600	3.223100	-9.683900	27.125515	0.000361	20.750393
2014.516978	-3.007000	3.220600	-9.682900	27.167969	0.000359	20.758004
2015.518816	-3.012900	3.220600	-9.702400	27.187962	0.000359	20.755828
2016.518979	-3.003100	3.221700	-9.673900	27.252280	0.000358	20.769313
2017.519811	-3.009100	3.218800	-9.684700	27.312194	0.000357	20.745653
2018.521357	-3.036300	3.219100	-9.771900	27.359897	0.000358	20.766614
2019.518364	-2.974500	3.219100	-9.572800	27.374473	0.000356	20.755199
2020.522315	-3.018300	3.218600	-9.713000	27.373447	0.000355	20.748002
2021.520399	-2.996700	3.218700	-9.645000	27.385895	0.000357	20.760526
2022.519470	-2.992900	3.216700	-9.627300	27.407226	0.000355	20.758277
2023.521019	-2.998500	3.217400	-9.645900	27.405922	0.000353	20.753172
2024.526444	-3.011100	3.215700	-9.681600	27.438152	0.000353	20.762363
2025.520724	-2.997400	3.216700	-9.640300	27.456643	0.000352	20.766267
2026.524918	-3.005200	3.215100	-9.660700	27.483351	0.000352	20.757575
2027.521766	-3.016000	3.214400	-9.693000	27.521452	0.000349	20.767459
2028.522603	-3.007700	3.214800	-9.668000	27.571914	0.000351	20.741892
2029.526868	-3.012500	3.213800	-9.680300	27.557523	0.000350	20.741163
2030.522612	-3.006100	3.212800	-9.656600	27.490048	0.000348	20.779486
2031.524830	-2.987700	3.213800	-9.600800	27.489130	0.000350	20.767182
2032.524541	-3.016100	3.212600	-9.688000	27.512936	0.000349	20.760788
2033.522921	-3.019300	3.211300	-9.695400	27.512416	0.000345	20.774490
2034.522782	-3.016000	3.211600	-9.685200	27.547389	0.000347	20.738553
2035.527374	-3.008600	3.211000	-9.659800	27.587432	0.000345	20.775050
2036.522226	-2.999900	3.212500	-9.635900	27.585463	0.000343	20.764061
2037.522945	-3.025200	3.210900	-9.712600	27.597220	0.000343	20.762139
2038.526469	-3.002700	3.210600	-9.639400	27.625664	0.000342	20.768000
2039.522637	-3.017800	3.211500	-9.690600	27.631367	0.000342	20.760462
2040.522938	-3.020600	3.208400	-9.690300	27.674756	0.000341	20.778044
2041.527490	-2.983700	3.210000	-9.576800	27.653963	0.000340	20.785097
2042.528096	-2.977200	3.210400	-9.557400	27.628095	0.000341	20.778981
2043.526431	-2.996800	3.208100	-9.612800	27.582011	0.000339	20.773863
2044.526480	-2.976200	3.207800	-9.546200	27.526669	0.000340	20.788356
2045.527354	-2.989000	3.207600	-9.586000	27.506865	0.000340	20.776965
2046.525314	-2.966800	3.207100	-9.513800	27.460620	0.000339	20.766000
2047.525573	-2.994500	3.205700	-9.599000	27.453515	0.000338	20.782086
2048.528869	-3.017900	3.205300	-9.671600	27.477128	0.000337	20.772177
2049.526208	-2.970000	3.207100	-9.524400	27.483158	0.000334	20.779666
2050.524951	-2.994700	3.205400	-9.597600	27.520946	0.000336	20.785443
2051.526701	-3.008200	3.205500	-9.642300	27.528524	0.000333	20.812982
2052.528806	-2.989300	3.204300	-9.576900	27.519293	0.000333	20.786150
2053.535786	-2.961100	3.204700	-9.489000	27.478014	0.000334	20.787767
2054.525574	-3.011500	3.203000	-9.644100	27.467077	0.000331	20.786722
2055.528839	-2.992300	3.202600	-9.582200	27.485290	0.000332	20.782286
2056.533887	-3.004100	3.201600	-9.617100	27.504952	0.000330	20.791162
2057.528590	-3.007700	3.202500	-9.631300	27.537144	0.000329	20.770920
2058.534536	-3.006500	3.201900	-9.625600	27.538329	0.000329	20.793923
2059.528486	-2.998400	3.201500	-9.599200	27.522222	0.000328	20.795262
2060.534286	-2.990600	3.199900	-9.567300	27.518272	0.000328	20.779907
2061.535111	-3.005000	3.201300	-9.617800	27.506455	0.000328	20.795519
2062.535723	-2.968800	3.200200	-9.499600	27.534658	0.000326	20.803506
2063.531648	-2.999200	3.199500	-9.595500	27.532243	0.000326	20.790170
2064.532512	-3.021300	3.198000	-9.661100	27.513236	0.000326	20.765831
2065.530948	-3.022400	3.197500	-9.663200	27.545826	0.000324	20.812845
2066.528151	-2.993000	3.198500	-9.571200	27.595549	0.000325	20.794123
2067.531448	-2.992400	3.198900	-9.571500	27.596190	0.000322	20.807096
2068.530641	-3.012700	3.197600	-9.632700	27.649982	0.000323	20.783461
2069.526571	-3.016300	3.197800	-9.645100	27.661630	0.000321	20.811778
2070.529899	-2.994200	3.196900	-9.570000	27.703387	0.000321	20.802587
2071.532543	-3.034900	3.195300	-9.696100	27.725231	0.000319	20.801810
2072.530936	-3.014100	3.196800	-9.633500	27.734896	0.000320	20.803002
2073.530683	-3.014700	3.192900	-9.624000	27.782352	0.000318	20.807136
2074.534385	-2.980000	3.194500	-9.519000	27.825468	0.000317	20.794104
2075.533781	-2.984700	3.193000	-9.529200	27.826012	0.000317	20.805083
2076.532734	-3.004300	3.192300	-9.589700	27.837465	0.000318	20.805229
2077.529957	-2.999900	3.192800	-9.577300	27.841417	0.000315	20.802568
2078.538922	-3.013700	3.191800	-9.617900	27.839085	0.000315	20.800696
2079.535642	-2.993200	3.191700	-9.552100	27.824820	0.000315	20.816210
2080.535650	-3.007000	3.190300	-9.591900	27.807218	0.000315	20.805608
2081.534643	-2.989700	3.191900	-9.540500	27.800344	0.000314	20.801536
2082.539341	-2.983300	3.191500	-9.520500	27.781235	0.000313	20.810753
2083.533949	-2.992400	3.189400	-9.543000	27.806642	0.000311	20.804554
2084.533794	-3.018800	3.188200	-9.623600	27.828494	0.000309	20.799520
2085.538580	-2.993100	3.188900	-9.543900	27.829811	0.000310	20.838302
2086.530278	-3.004400	3.186900	-9.573800	27.803731	0.000307	20.805418
2087.532482	-3.018200	3.186900	-9.617600	27.824039	0.000308	20.814476
2088.531352	-2.974200	3.188100	-9.480700	27.847802	0.000306	20.834599
2089.535109	-3.012900	3.187900	-9.604000	27.856899	0.000306	20.808667
2090.533621	-3.008600	3.187200	-9.587100	27.866152	0.000307	20.821772
2091.533952	-2.976600	3.187000	-9.485400	27.879658	0.000305	20.840581
2092.541377	-2.981100	3.185400	-9.495100	27.926286	0.000304	20.807854
2093.536596	-2.984200	3.186700	-9.508400	27.924873	0.000302	20.831561
2094.535107	-2.997900	3.183400	-9.542300	27.953055	0.000303	20.831477
2095.537203	-3.017900	3.186400	-9.615500	27.962223	0.000300	20.816524
2096.536573	-3.010000	3.184300	-9.584100	27.943235	0.000301	20.824913
2097.542824	-3.023100	3.182500	-9.620200	27.946293	0.000300	20.827990
2098.539703	-2.991200	3.182800	-9.519400	27.925565	0.000298	20.845534
2099.538704	-2.998000	3.182400	-9.540200	27.924127	0.000300	20.822276
2100.541623	-3.005700	3.182700	-9.565600	27.934626	0.000298	20.832369
2101.539024	-2.993700	3.180500	-9.519300	27.951948	0.000298	20.829416
2102.539633	-3.015800	3.180800	-9.591500	27.973521	0.000298	20.842594
2103.541392	-2.991300	3.181300	-9.515300	27.976915	0.000298	20.847433
2104.537723	-3.006600	3.178800	-9.556500	27.985952	0.000296	20.842778
2105.545048	-3.007500	3.179600	-9.561000	27.964307	0.000295	20.838061
2106.549432	-2.982700	3.179600	-9.482500	28.007284	0.000296	20.845284
2107.542787	-2.980100	3.178500	-9.471800	27.996848	0.000294	20.862280
2108.541982	-2.957100	3.179400	-9.400700	28.026863	0.000296	20.844604
2109.546076	-2.990800	3.176900	-9.500800	27.984759	0.000294	20.837311
2110.544345	-2.968200	3.179200	-9.435800	27.945902	0.000293	20.844667
2111.546982	-3.011500	3.176100	-9.563600	27.925514	0.000293	20.842637
2112.544160	-2.999400	3.176000	-9.524500	27.924669	0.000293	20.840838
2113.543819	-2.982900	3.175000	-9.469100	27.871060	0.000291	20.823393
2114.549191	-3.016300	3.175700	-9.577500	27.863813	0.000291	20.829849
2115.543075	-3.004900	3.174400	-9.537600	27.828263	0.000289	20.821098
2116.551465	-3.002200	3.174200	-9.528700	27.843980	0.000291	20.834071
2117.546949	-2.978800	3.173900	-9.453400	27.848570	0.000289	20.824466
2118.545120	-3.017600	3.172500	-9.572800	27.876452	0.000286	20.832139
2119.548960	-2.995400	3.172600	-9.502200	27.934155	0.000287	20.840429
2120.542278	-2.997000	3.171200	-9.503300	27.948686	0.000284	20.838934
2121.545756	-2.992500	3.172200	-9.491600	27.978751	0.000284	20.850703
2122.550346	-3.020100	3.170900	-9.575500	27.934266	0.000285	20.831058
2123.546392	-3.007500	3.170900	-9.535800	27.919977	0.000284	20.851289
2124.545219	-3.010100	3.171300	-9.544800	27.895262	0.000285	20.819776
2125.549463	-3.003700	3.168300	-9.516000	27.878146	0.000281	20.849964
2126.549290	-3.005200	3.167700	-9.518600	27.867116	0.000281	20.815156
2127.551134	-3.018400	3.169300	-9.565300	27.877650	0.000282	20.800629
2128.546297	-2.976300	3.167900	-9.427700	27.860776	0.000280	20.820630
2129.547274	-2.989300	3.167000	-9.465800	27.829114	0.000279	20.810101
2130.545895	-3.007500	3.165700	-9.519700	27.812613	0.000279	20.814831
2131.548750	-3.012000	3.164900	-9.531500	27.833427	0.000281	20.804484
2132.547925	-3.001000	3.166100	-9.499700	27.811127	0.000278	20.810491
2133.550354	-2.981300	3.166000	-9.438000	27.766018	0.000276	20.803027
2134.549123	-2.988700	3.165500	-9.460200	27.795133	0.000275	20.831852
2135.550669	-2.993000	3.165100	-9.472300	27.815839	0.000274	20.809543
2136.551698	-3.015100	3.163100	-9.535600	27.883247	0.000273	20.808158
2137.551754	-3.007600	3.161600	-9.507400	27.912334	0.000270	20.811830
2138.552640	-3.016400	3.162900	-9.538400	27.935068	0.000273	20.812900
2139.556997	-2.994200	3.162600	-9.469000	27.956557	0.000273	20.810822
2140.554390	-3.015500	3.163200	-9.536200	27.994001	0.000272	20.813423
2141.549740	-2.986700	3.161200	-9.440800	28.022205	0.000271	20.801984
2142.556034	-2.985700	3.160900	-9.436200	28.024065	0.000270	20.801959
2143.555270	-2.999700	3.160100	-9.478400	27.963925	0.000269	20.799746
2144.556365	-2.999400	3.160400	-9.478200	27.920973	0.000269	20.834748
2145.551044	-2.949800	3.161200	-9.323000	27.873717	0.000270	20.785765
2146.550555	-2.999800	3.157100	-9.470100	27.846164	0.000268	20.804975
2147.552130	-2.987800	3.158200	-9.435500	27.835594	0.000269	20.798605
2148.550569	-3.006700	3.156400	-9.489200	27.848169	0.000266	20.797036
2149.550062	-3.000300	3.155800	-9.465900	27.888360	0.000267	20.800502
2150.552371	-3.008200	3.155500	-9.491600	27.931361	0.000265	20.813910
2151.551700	-2.992700	3.155100	-9.442000	27.981877	0.000267	20.818289
2152.562320	-3.027000	3.154300	-9.546800	28.006262	0.000263	20.799212
2153.552649	-2.978000	3.154100	-9.392300	28.039962	0.000263	20.805159
2154.553629	-2.984200	3.155600	-9.416200	28.051689	0.000263	20.809852
2155.557458	-3.005400	3.152800	-9.474300	28.053223	0.000263	20.794327
2156.555149	-2.996100	3.153100	-9.446100	28.015527	0.000261	20.792891
2157.553695	-2.988100	3.153400	-9.421000	27.977734	0.000259	20.785196
2158.554523	-3.012800	3.150200	-9.489700	27.978531	0.000260	20.783627
2159.558758	-2.987300	3.151500	-9.413700	27.993110	0.000259	20.783603
2160.554506	-2.987000	3.150000	-9.408100	28.026229	0.000258	20.800344
2161.558125	-3.002600	3.149300	-9.454700	28.050615	0.000258	20.795969
2162.556013	-3.005200	3.147100	-9.456400	28.064383	0.000259	20.797025
2163.559979	-2.983500	3.148100	-9.391400	28.062402	0.000256	20.771323
2164.556506	-2.997800	3.146300	-9.431100	28.080519	0.000255	20.773914
2165.559150	-2.980400	3.147100	-9.379000	28.078261	0.000257	20.779701
2166.556269	-3.010600	3.145900	-9.470100	28.067088	0.000254	20.793584
2167.559086	-3.001700	3.146800	-9.444400	28.043114	0.000255	20.767554
2168.557182	-3.002500	3.145300	-9.443400	28.029914	0.000253	20.792674
2169.559248	-2.999700	3.145300	-9.434000	28.032159	0.000253	20.774545
2170.560250	-3.001900	3.143300	-9.433700	27.992012	0.000252	20.784868
2171.562094	-2.993400	3.143100	-9.408200	27.937644	0.000251	20.777561
2172.566205	-3.016300	3.142100	-9.476500	27.868888	0.000250	20.788965
2173.560219	-2.980400	3.143000	-9.365900	27.825267	0.000248	20.740321
2174.566586	-2.996200	3.141100	-9.409800	27.743346	0.000250	20.759821
2175.562182	-3.021700	3.138700	-9.483300	27.713034	0.000250	20.783847
2176.566521	-2.997600	3.140600	-9.413300	27.691879	0.000250	20.769671
2177.564813	-2.977100	3.140400	-9.347100	27.699949	0.000248	20.774472
2178.566258	-3.007500	3.138300	-9.437000	27.685813	0.000248	20.772101
2179.563418	-2.993300	3.138400	-9.393000	27.663403	0.000249	20.750024
2180.562923	-2.966800	3.141800	-9.319300	27.686769	0.000247	20.772115
2181.564129	-2.997800	3.138500	-9.407700	27.739493	0.000246	20.772540
2182.559068	-3.003900	3.136400	-9.420000	27.777356	0.000244	20.757063
2183.563692	-2.998800	3.135700	-9.402600	27.815651	0.000245	20.775214
2184.562551	-2.990100	3.135800	-9.374800	27.816291	0.000243	20.756418
2185.561291	-2.997300	3.134400	-9.394400	27.809092	0.000244	20.779520
2186.565733	-2.984800	3.133800	-9.352100	27.808694	0.000243	20.772480
2187.562771	-3.011400	3.132900	-9.433800	27.820594	0.000241	20.757903
2188.561251	-3.006100	3.132700	-9.415900	27.834631	0.000241	20.770608
2189.562544	-3.003600	3.130800	-9.402800	27.863442	0.000239	20.759775
2190.563457	-3.005000	3.132300	-9.412000	27.874146	0.000241	20.761539
2191.561914	-3.008100	3.130200	-9.415100	27.915495	0.000241	20.754319
2192.563064	-3.001100	3.129300	-9.390100	27.913261	0.000239	20.743535
2193.560565	-2.999800	3.129900	-9.387700	27.879390	0.000238	20.766818
2194.565002	-3.003000	3.127400	-9.389300	27.850326	0.000237	20.742781
2195.561308	-2.985000	3.126600	-9.331800	27.875514	0.000237	20.778089
2196.565554	-3.009100	3.126200	-9.405800	27.880855	0.000236	20.757860
2197.575801	-3.024100	3.125400	-9.450100	27.878898	0.000235	20.749252
2198.562891	-2.999000	3.126200	-9.374600	27.859776	0.000236	20.752766
2199.571675	-2.979900	3.125300	-9.311900	27.906634	0.000235	20.741132
2200.565673	-3.023800	3.123300	-9.443300	27.944612	0.000234	20.747114
2201.565382	-2.967100	3.123900	-9.266400	27.967296	0.000235	20.768999
2202.564093	-2.987800	3.123200	-9.330700	28.004427	0.000233	20.774605
2203.563090	-2.999000	3.122200	-9.363000	28.038983	0.000232	20.762448
2204.565456	-3.005900	3.121100	-9.380600	28.076205	0.000230	20.757717
2205.564961	-3.008200	3.119900	-9.384000	28.105650	0.000234	20.750374
2206.567817	-3.007900	3.120600	-9.384700	28.126617	0.000229	20.766740
2207.565598	-2.996300	3.118900	-9.344100	28.164781	0.000229	20.747312
2208.562507	-2.995800	3.118100	-9.339900	28.192423	0.000228	20.760443
2209.571542	-3.019800	3.117300	-9.412400	28.180988	0.000229	20.729015
2210.565507	-2.999400	3.119600	-9.355700	28.163032	0.000230	20.755509
2211.567189	-2.996000	3.117800	-9.340300	28.123444	0.000228	20.750269
2212.569203	-3.021300	3.114600	-9.408900	28.061789	0.000228	20.757430
2213.570772	-2.993900	3.115000	-9.324400	28.021945	0.000228	20.752883
2214.567337	-3.005100	3.113900	-9.356400	28.032838	0.000227	20.756736
2215.565114	-3.012500	3.113600	-9.378900	28.061197	0.000229	20.732177
2216.570338	-3.004900	3.113700	-9.355500	28.048673	0.000226	20.736640
2217.565862	-2.982500	3.112500	-9.281400	28.041923	0.000225	20.756398
2218.571981	-3.000400	3.111700	-9.335800	28.036512	0.000227	20.760909
2219.568925	-2.986900	3.110600	-9.289900	28.058083	0.000226	20.753699
2220.568195	-3.006000	3.109500	-9.346400	28.075078	0.000225	20.730028
2221.566510	-3.022000	3.108400	-9.392400	28.093351	0.000224	20.775451
2222.570066	-3.029300	3.107100	-9.411000	28.139859	0.000223	20.736447
2223.575401	-3.006300	3.106300	-9.337900	28.145404	0.000224	20.745349
2224.569581	-2.979400	3.107700	-9.258000	28.126817	0.000224	20.735171
2225.569322	-2.998300	3.105800	-9.311100	28.164763	0.000223	20.724533
2226.567205	-3.014400	3.104400	-9.357100	28.187539	0.000221	20.751258
2227.572339	-2.990300	3.104500	-9.281900	28.129643	0.000221	20.740387
2228.570154	-2.989800	3.103800	-9.279100	28.115550	0.000220	20.744693
2229.571242	-2.992800	3.102800	-9.283900	28.128607	0.000222	20.742189
2230.570816	-2.953500	3.102600	-9.162300	28.126758	0.000219	20.729896
2231.571621	-2.998700	3.100300	-9.296300	28.161974	0.000219	20.752074
2232.578521	-2.996900	3.100500	-9.289900	28.176430	0.000219	20.743867
2233.574950	-2.987400	3.099500	-9.258400	28.181987	0.000219	20.722908
2234.570979	-3.017400	3.096700	-9.342600	28.221559	0.000218	20.726238
2235.572542	-2.981000	3.098400	-9.235500	28.199497	0.000218	20.729630
2236.575536	-3.006600	3.095500	-9.305000	28.158497	0.000220	20.726287
2237.571608	-2.988500	3.095500	-9.249900	28.108668	0.000217	20.730178
2238.571513	-2.988200	3.094000	-9.243900	28.088851	0.000218	20.732040
2239.573453	-3.013900	3.094200	-9.324100	28.107474	0.000217	20.718543
2240.574570	-3.015100	3.095100	-9.330800	28.147377	0.000218	20.720781
2241.573453	-2.984600	3.093800	-9.233000	28.174767	0.000217	20.729390
2242.573897	-3.022900	3.091900	-9.345700	28.225053	0.000216	20.730230
2243.575143	-3.000200	3.089900	-9.269400	28.256617	0.000216	20.729292
2244.576531	-2.980400	3.090600	-9.210200	28.237190	0.000215	20.727276
2245.573887	-3.033800	3.089000	-9.369400	28.190541	0.000215	20.739581
2246.574309	-2.998400	3.088700	-9.259800	28.160990	0.000216	20.735435
2247.575553	-3.011600	3.086900	-9.294500	28.158178	0.000214	20.722172
2248.576831	-2.994900	3.086100	-9.242200	28.109942	0.000213	20.726718
2249.577174	-3.024300	3.085400	-9.330300	28.104761	0.000214	20.737624
2250.579686	-3.011200	3.084600	-9.287200	28.127335	0.000213	20.726209
2251.577584	-2.999400	3.084400	-9.250100	28.150438	0.000213	20.744252
2252.577993	-3.012100	3.082400	-9.283500	28.143989	0.000213	20.718793
2253.584101	-3.018400	3.082900	-9.304400	28.124013	0.000212	20.720020
2254.576262	-3.022200	3.081000	-9.310400	28.157648	0.000212	20.727328
2255.578781	-3.015600	3.079600	-9.285800	28.160969	0.000213	20.713127
2256.579951	-3.023700	3.078600	-9.306900	28.202643	0.000211	20.718099
2257.579383	-3.007900	3.077600	-9.256100	28.237847	0.000211	20.724619
2258.579197	-3.028400	3.076900	-9.316900	28.225010	0.000211	20.704107
2259.577668	-3.000500	3.075900	-9.228100	28.190135	0.000210	20.728740
2260.579217	-3.037700	3.075300	-9.339700	28.161949	0.000210	20.700836
2261.579497	-3.006600	3.075200	-9.245100	28.101962	0.000209	20.717736
2262.579469	-3.023700	3.071700	-9.287100	28.040791	0.000210	20.718273
2263.581174	-3.001200	3.073000	-9.221200	28.043593	0.000209	20.725836
2264.576054	-2.997600	3.071700	-9.207100	28.053558	0.000208	20.716899
2265.576283	-3.015100	3.071500	-9.258800	28.082145	0.000208	20.708217
2266.583569	-3.012400	3.070000	-9.246900	28.122787	0.000209	20.711673
2267.580135	-3.012700	3.070200	-9.248200	28.176407	0.000209	20.710177
2268.582537	-3.001000	3.069300	-9.210300	28.208845	0.000207	20.722920
2269.591353	-2.999300	3.066700	-9.197600	28.224085	0.000207	20.698433
2270.584857	-3.008500	3.066200	-9.223300	28.199038	0.000208	20.723004
2271.580596	-3.013300	3.066600	-9.240200	28.185514	0.000208	20.695637
2272.579621	-3.010600	3.063400	-9.222500	28.144961	0.000205	20.724040
2273.583763	-2.986000	3.064300	-9.148600	28.136279	0.000207	20.702021
2274.582392	-3.016100	3.061600	-9.233300	28.155434	0.000207	20.717986
2275.581909	-3.001100	3.061600	-9.187100	28.217035	0.000207	20.706983
2276.583656	-2.971700	3.061900	-9.098200	28.216997	0.000208	20.706944
2277.583016	-2.963600	3.060000	-9.067600	28.239242	0.000205	20.717488
2278.582796	-2.988500	3.059100	-9.140900	28.260061	0.000203	20.709050
2279.583998	-2.976600	3.058400	-9.102100	28.272762	0.000205	20.694811
2280.585546	-2.992700	3.057600	-9.149200	28.309086	0.000205	20.705780
2281.580927	-3.017100	3.055700	-9.217900	28.310547	0.000207	20.710570
2282.586478	-2.973200	3.057500	-9.089800	28.287545	0.000204	20.709695
2283.588744	-2.982500	3.054900	-9.110400	28.277257	0.000205	20.708346
2284.583807	-2.985800	3.053800	-9.116900	28.269299	0.000205	20.720249
2285.587604	-2.977200	3.054200	-9.092100	28.293521	0.000204	20.701487
2286.586466	-3.021900	3.051200	-9.220300	28.319917	0.000203	20.722850
2287.583115	-3.005600	3.049100	-9.162700	28.350332	0.000202	20.712697
2288.589619	-3.021400	3.048300	-9.209100	28.301070	0.000205	20.718572
2289.591385	-2.990400	3.047300	-9.111700	28.253904	0.000203	20.699531
2290.584728	-2.998900	3.046700	-9.136000	28.231721	0.000202	20.698060
2291.591279	-3.013400	3.045300	-9.174200	28.249786	0.000202	20.713879
2292.589749	-2.986800	3.044700	-9.092200	28.260182	0.000202	20.699214
2293.588741	-2.998000	3.043500	-9.123500	28.314702	0.000202	20.688199
2294.590026	-3.026800	3.039300	-9.198100	28.271595	0.000203	20.685100
2295.590035	-3.002300	3.041100	-9.129600	28.237420	0.000203	20.699531
2296.591909	-3.010300	3.040600	-9.152800	28.225515	0.000202	20.687070
2297.589820	-2.992800	3.039900	-9.096500	28.239474	0.000201	20.681683
2298.587940	-3.000800	3.038000	-9.115300	28.259749	0.000201	20.688346
2299.585609	-2.999200	3.036800	-9.107600	28.327805	0.000202	20.693806
2300.587462	-2.974800	3.037200	-9.033600	28.325183	0.000202	20.705867
2301.589084	-2.985100	3.033900	-9.055600	28.330170	0.000202	20.681962
2302.587081	-3.001400	3.032100	-9.099900	28.307434	0.000201	20.712652
2303.589341	-3.030200	3.032300	-9.186800	28.288282	0.000201	20.706644
2304.589870	-2.991700	3.031500	-9.067500	28.296904	0.000202	20.707265
2305.588800	-3.003700	3.029300	-9.096600	28.231998	0.000202	20.700710
2306.588267	-3.003700	3.028800	-9.096600	28.221540	0.000201	20.696819
2307.592923	-2.996800	3.028200	-9.073300	28.197136	0.000199	20.704967
2308.592640	-3.004900	3.026800	-9.093000	28.237372	0.000199	20.698060
2309.588459	-2.989400	3.026300	-9.044400	28.249991	0.000199	20.690849
2310.586787	-3.009600	3.023900	-9.100100	28.207376	0.000200	20.684455
2311.591158	-2.981900	3.023100	-9.013600	28.210901	0.000199	20.696540
2312.588958	-3.008300	3.022900	-9.091100	28.229958	0.000199	20.675895
2313.593164	-2.974700	3.021400	-8.987100	28.273586	0.000200	20.685682
2314.591852	-2.991600	3.018700	-9.030000	28.331932	0.000199	20.682314
2315.594982	-2.997400	3.017800	-9.044700	28.383911	0.000198	20.677753
2316.596586	-2.992600	3.017100	-9.028700	28.432328	0.000198	20.700431
2317.603528	-2.976900	3.016000	-8.977200	28.445488	0.000199	20.694242
2318.588771	-2.993900	3.016000	-9.028400	28.435274	0.000200	20.692017
2319.596210	-3.017100	3.013100	-9.090500	28.386667	0.000198	20.682899
2320.607643	-2.995300	3.012400	-9.022300	28.327164	0.000197	20.693635
2321.589703	-3.005400	3.011400	-9.049000	28.306021	0.000198	20.679458
2322.591356	-3.011300	3.009300	-9.061400	28.230647	0.000199	20.673269
2323.592747	-2.987100	3.009500	-8.988200	28.191619	0.000197	20.705577
2324.593107	-2.999300	3.006100	-9.015800	28.153168	0.000197	20.701954
2325.594655	-3.003200	3.005100	-9.024000	28.111624	0.000196	20.689053
2326.599279	-3.000900	3.004400	-9.014300	28.077468	0.000198	20.692129
2327.601664	-2.988500	3.004300	-8.976900	28.071854	0.000197	20.697857
2328.596354	-2.970000	3.002600	-8.916100	28.051357	0.000197	20.687655
2329.593890	-2.976900	3.001000	-8.932700	28.019666	0.000199	20.694161
2330.596548	-2.998800	2.998800	-8.991600	28.046383	0.000199	20.690709
2331.597207	-3.006800	2.998600	-9.015700	28.075830	0.000198	20.677676
2332.602120	-3.001900	2.997500	-8.997600	28.092991	0.000197	20.686891
2333.601376	-3.000100	2.995300	-8.985600	28.147326	0.000196	20.671888
2334.598289	-3.023300	2.994700	-9.052700	28.215423	0.000196	20.679280
2335.598844	-2.997300	2.994800	-8.974700	28.230844	0.000197	20.677261
2336.600611	-3.015600	2.992700	-9.023600	28.272408	0.000196	20.686867
2337.594493	-3.012400	2.990000	-9.006300	28.310965	0.000195	20.687756
2338.597592	-3.011300	2.988000	-8.996500	28.321229	0.000196	20.684339
2339.596492	-3.019600	2.987500	-9.020400	28.359829	0.000194	20.686696
2340.596469	-3.001600	2.987300	-8.965600	28.373776	0.000195	20.692679
2341.596366	-3.019700	2.985400	-9.013300	28.400775	0.000194	20.700901
2342.597857	-3.008500	2.982800	-8.972900	28.410626	0.000194	20.698966
2343.597596	-3.012400	2.982000	-8.981500	28.421927	0.000196	20.690904
2344.602992	-3.005800	2.979300	-8.953100	28.433193	0.000195	20.687076
2345.598757	-2.999000	2.980400	-8.937100	28.439120	0.000196	20.684984
2346.602046	-2.979300	2.979100	-8.874100	28.416664	0.000195	20.689872
2347.600257	-2.996800	2.976000	-8.917100	28.460877	0.000195	20.684133
2348.601404	-3.009400	2.973600	-8.946800	28.456542	0.000196	20.678819
2349.599401	-2.997400	2.973000	-8.910100	28.454406	0.000195	20.686152
2350.598930	-3.000300	2.971400	-8.913600	28.452280	0.000195	20.697289
2351.597733	-3.005700	2.970600	-8.927700	28.476006	0.000196	20.697473
2352.597059	-2.994300	2.969400	-8.889300	28.466745	0.000194	20.701424
2353.602033	-2.980400	2.968000	-8.845400	28.431950	0.000193	20.696256
2354.605438	-3.029800	2.966000	-8.984900	28.402551	0.000194	20.699844
2355.601152	-3.008700	2.963500	-8.914800	28.389824	0.000195	20.675646
2356.604377	-3.011200	2.964200	-8.925000	28.413731	0.000195	20.683599
2357.604503	-3.013700	2.961600	-8.923800	28.469958	0.000194	20.673362
2358.601326	-2.990200	2.960500	-8.851100	28.519987	0.000193	20.678226
2359.602709	-3.004000	2.959100	-8.888300	28.555565	0.000194	20.688927
2360.600666	-3.034600	2.955600	-8.967400	28.575786	0.000195	20.694119
2361.599035	-3.021100	2.955500	-8.927600	28.621972	0.000195	20.701755
2362.602051	-2.988500	2.954700	-8.827800	28.576087	0.000194	20.678299
2363.597632	-3.022500	2.951900	-8.920900	28.576329	0.000194	20.711737
2364.600439	-3.006800	2.952300	-8.876000	28.582366	0.000193	20.705015
2365.601513	-2.994500	2.951100	-8.835900	28.543712	0.000193	20.700698
2366.601286	-3.014300	2.947700	-8.882900	28.490567	0.000193	20.687006
2367.601316	-3.014200	2.946600	-8.880400	28.478751	0.000193	20.695970
2368.601724	-2.956900	2.945000	-8.706900	28.496099	0.000194	20.700165
2369.602368	-3.009400	2.943900	-8.858100	28.525003	0.000194	20.702720
2370.607142	-2.975700	2.942800	-8.756600	28.565929	0.000194	20.698892
2371.599782	-3.003400	2.939800	-8.828300	28.538910	0.000193	20.719571
2372.605686	-2.993000	2.938200	-8.791300	28.518038	0.000194	20.706137
2373.602188	-3.005500	2.938100	-8.829400	28.543365	0.000191	20.706514
2374.602104	-2.991500	2.936700	-8.784200	28.559193	0.000192	20.691158
2375.604369	-3.004300	2.933400	-8.811100	28.560183	0.000192	20.687887
2376.606755	-2.977200	2.933100	-8.730600	28.564337	0.000192	20.714358
2377.608383	-2.996100	2.930100	-8.778300	28.566185	0.000193	20.687769
2378.604331	-3.004200	2.928700	-8.796400	28.591089	0.000193	20.699101
2379.610291	-3.006200	2.926900	-8.797600	28.577907	0.000192	20.704317
2380.608748	-2.970000	2.926100	-8.689700	28.629150	0.000192	20.704718
2381.608463	-2.994400	2.924300	-8.755800	28.624854	0.000192	20.704658
2382.606255	-2.979500	2.922900	-8.708000	28.640584	0.000193	20.700112
2383.607300	-2.998300	2.921100	-8.757500	28.656891	0.000193	20.707054
2384.608811	-3.014600	2.919000	-8.798600	28.691063	0.000194	20.684097
2385.612662	-3.006500	2.916800	-8.768100	28.701395	0.000192	20.698773
2386.608256	-3.000600	2.916600	-8.750200	28.728566	0.000192	20.716185
2387.611110	-3.012900	2.913300	-8.775800	28.734360	0.000192	20.713012
2388.612145	-2.992400	2.913500	-8.717800	28.748337	0.000193	20.718556
2389.612207	-2.987600	2.912300	-8.700100	28.749472	0.000191	20.708793
2390.608743	-3.002300	2.909000	-8.733300	28.772032	0.000192	20.698800
2391.613631	-3.028700	2.906500	-8.801300	28.807286	0.000192	20.697329
2392.609190	-2.996300	2.906600	-8.707200	28.822698	0.000193	20.703846
2393.607511	-2.977500	2.904700	-8.647400	28.812440	0.000191	20.711056
2394.609771	-3.002700	2.901100	-8.710500	28.832209	0.000191	20.712479
2395.612131	-3.000500	2.899900	-8.700100	28.831160	0.000192	20.709051
2396.611306	-2.998300	2.898600	-8.690100	28.788690	0.000193	20.722220
2397.613956	-2.982500	2.896700	-8.638200	28.698612	0.000193	20.704979
2398.606307	-3.010600	2.894400	-8.713100	28.625197	0.000194	20.718280
2399.610781	-2.975900	2.893600	-8.609400	28.587714	0.000193	20.691433
2400.610567	-3.007400	2.890600	-8.691200	28.614369	0.000192	20.710219
2401.612409	-3.016300	2.887800	-8.709200	28.619488	0.000191	20.696408
2402.608812	-3.019100	2.887100	-8.715400	28.609602	0.000192	20.713953
2403.608175	-3.010100	2.884600	-8.681500	28.566614	0.000192	20.730403
2404.610324	-3.038500	2.881600	-8.755300	28.599740	0.000191	20.722039
2405.608425	-3.006800	2.881300	-8.661900	28.617751	0.000192	20.713626
2406.610356	-3.001200	2.879400	-8.640700	28.646963	0.000192	20.685673
2407.608781	-2.984000	2.878100	-8.587100	28.678407	0.000190	20.720191
2408.615450	-2.980600	2.877000	-8.574400	28.724108	0.000191	20.720229
2409.615489	-2.977800	2.874200	-8.558300	28.775863	0.000191	20.722576
2410.609023	-2.976800	2.873700	-8.553200	28.776188	0.000193	20.698720
2411.613193	-2.968200	2.871100	-8.520900	28.764905	0.000191	20.714382
2412.609730	-2.987500	2.868700	-8.569200	28.768200	0.000191	20.727185
2413.611342	-2.982600	2.865700	-8.546700	28.782744	0.000192	20.718127
2414.611273	-3.001900	2.864300	-8.596600	28.800935	0.000190	20.731711
2415.608865	-3.001200	2.862000	-8.588200	28.814644	0.000190	20.708061
2416.611838	-3.007000	2.859800	-8.597600	28.852963	0.000192	20.730543
2417.614489	-3.000100	2.857900	-8.572800	28.886609	0.000190	20.740256
2418.612708	-2.966700	2.857700	-8.475900	28.907657	0.000193	20.734908
2419.619730	-2.994100	2.854600	-8.545800	28.956846	0.000191	20.700536
2420.616722	-3.023100	2.852800	-8.623400	28.985084	0.000193	20.724246
2421.614948	-3.007300	2.851100	-8.572900	29.040207	0.000189	20.750388
2422.615699	-3.003900	2.847200	-8.551000	29.056062	0.000191	20.718946
2423.617924	-2.983300	2.846700	-8.491500	29.069408	0.000193	20.733816
2424.614478	-2.973700	2.844700	-8.458400	29.103604	0.000191	20.721805
2425.616850	-2.997200	2.842800	-8.517900	29.096341	0.000189	20.712590
2426.617074	-2.988700	2.840400	-8.488200	29.100722	0.000191	20.732652
2427.620369	-3.007400	2.838000	-8.532600	29.091165	0.000192	20.727289
2428.617123	-3.006800	2.834200	-8.521100	29.121343	0.000193	20.733516
2429.617077	-2.989000	2.833900	-8.468900	29.094580	0.000191	20.737369
2430.619101	-2.990800	2.831200	-8.467000	29.013964	0.000191	20.731058
2431.618764	-3.020300	2.829200	-8.544400	29.009019	0.000191	20.731292
2432.620306	-2.992000	2.826600	-8.456400	29.009140	0.000192	20.709127
2433.623173	-2.985600	2.825200	-8.432900	29.016248	0.000192	20.727195
2434.617821	-2.991200	2.822200	-8.440700	29.007884	0.000191	20.739158
2435.617529	-3.011100	2.819900	-8.490300	28.996977	0.000193	20.737177
2436.637523	-3.009500	2.816200	-8.474200	28.999655	0.000191	20.730392
2437.623759	-2.977000	2.815900	-8.380300	29.038584	0.000190	20.719354
2438.629095	-2.997100	2.813500	-8.432100	29.058688	0.000191	20.743404
2439.625883	-2.995400	2.810200	-8.416500	29.089528	0.000191	20.737969
2440.629027	-3.017300	2.806800	-8.467600	29.119416	0.000193	20.736790
2441.624938	-2.985900	2.806300	-8.378300	29.142220	0.000188	20.732268
2442.625465	-3.015900	2.801300	-8.447900	29.180514	0.000190	20.737191
2443.627259	-2.986500	2.801200	-8.363900	29.196007	0.000192	20.742372
2444.622881	-2.993300	2.798600	-8.376400	29.200882	0.000190	20.748707
2445.623497	-2.994200	2.796000	-8.371500	29.203380	0.000191	20.749802
2446.622811	-3.002500	2.792500	-8.383400	29.203874	0.000191	20.737024
2447.627666	-2.998300	2.790000	-8.364000	29.228040	0.000190	20.763274
2448.626831	-2.996700	2.787200	-8.351600	29.245148	0.000193	20.730253
2449.628906	-3.015000	2.784200	-8.393600	29.199546	0.000190	20.742145
2450.629896	-3.015600	2.782100	-8.388000	29.187821	0.000192	20.725113
2451.628973	-3.014500	2.780100	-8.378400	29.183925	0.000191	20.752009
2452.627866	-3.004200	2.777200	-8.342200	29.188426	0.000191	20.769822
2453.632507	-2.999200	2.774600	-8.320300	29.144099	0.000190	20.740800
2454.626541	-2.993500	2.771700	-8.296300	29.116350	0.000191	20.745081
2455.627164	-3.005500	2.769500	-8.322600	29.064805	0.000190	20.762845
2456.636231	-2.992600	2.765600	-8.275800	29.082943	0.000191	20.743188
2457.627543	-3.003600	2.762900	-8.298000	29.047335	0.000191	20.763260
2458.629786	-3.016000	2.759400	-8.321400	28.985592	0.000189	20.750363
2459.625965	-3.008600	2.757000	-8.293900	29.008278	0.000189	20.747142
2460.633979	-3.030200	2.753900	-8.343300	28.997250	0.000189	20.746936
2461.630614	-3.004800	2.750300	-8.263700	28.997890	0.000190	20.751848
2462.629718	-3.013100	2.747000	-8.275600	29.049646	0.000190	20.756580
2463.629138	-2.978900	2.746700	-8.180800	29.050515	0.000191	20.765990
2464.628192	-2.984600	2.742800	-8.185400	29.096247	0.000190	20.767025
2465.627642	-3.032200	2.737800	-8.300900	29.090964	0.000190	20.768340
2466.636490	-2.988100	2.735400	-8.172500	29.042760	0.000190	20.756280
2467.632984	-3.012800	2.731100	-8.227800	29.036919	0.000192	20.749446
2468.629097	-2.998300	2.729000	-8.181900	29.071732	0.000191	20.780731
2469.634448	-2.986700	2.726600	-8.142700	29.133643	0.000189	20.754920
2470.633559	-3.000600	2.722300	-8.167400	29.150282	0.000190	20.769316
2471.630534	-2.988700	2.718700	-8.124100	29.129529	0.000189	20.740817
2472.634173	-2.963100	2.716300	-8.047300	29.075452	0.000190	20.757926
2473.630954	-2.991300	2.712700	-8.113100	29.003330	0.000189	20.776770
2474.631193	-3.016800	2.708100	-8.168100	28.983336	0.000191	20.774169
2475.636151	-3.011300	2.704200	-8.141000	29.012431	0.000190	20.747058
2476.631261	-3.002400	2.702200	-8.112000	29.036975	0.000189	20.772262
2477.630967	-2.976100	2.698200	-8.029500	29.074345	0.000190	20.790475
2478.638487	-3.000400	2.694200	-8.082400	29.119495	0.000189	20.770536
2479.633126	-3.028400	2.690800	-8.147900	29.181656	0.000189	20.750196
2480.634442	-2.960800	2.687600	-7.955500	29.256191	0.000189	20.763668
2481.636934	-2.985400	2.683800	-8.009700	29.276349	0.000191	20.780665
2482.642650	-3.006400	2.678700	-8.052200	29.346004	0.000190	20.774999
2483.643321	-2.984600	2.675600	-7.984200	29.389793	0.000189	20.782150
2484.640034	-2.993500	2.670900	-7.994000	29.391423	0.000190	20.766248
2485.639502	-3.007000	2.667000	-8.018200	29.387839	0.000188	20.775438
2486.641047	-3.007500	2.663800	-8.009400	29.387237	0.000192	20.780048
2487.639514	-2.983600	2.659200	-7.931900	29.384657	0.000189	20.772705
2488.639278	-3.028500	2.653300	-8.033900	29.406200	0.000189	20.776401
2489.637733	-2.978100	2.650800	-7.893300	29.428179	0.000188	20.764414
2490.638666	-3.006300	2.644600	-7.949800	29.461505	0.000189	20.765289
2491.641177	-2.969800	2.643900	-7.851200	29.475510	0.000191	20.787941
2492.641876	-3.029200	2.636300	-7.984400	29.513927	0.000192	20.777827
2493.643001	-3.024600	2.633700	-7.964800	29.527471	0.000192	20.772988
2494.640152	-2.972900	2.628600	-7.813500	29.583604	0.000190	20.783579
2495.644254	-3.028500	2.623200	-7.943900	29.624911	0.000191	20.768323
2496.645471	-2.998800	2.619900	-7.855500	29.610486	0.000191	20.784601
2497.643075	-3.011200	2.613200	-7.868000	29.609511	0.000189	20.780299
2498.644933	-2.994100	2.610300	-7.814600	29.535533	0.000191	20.785382
2499.642919	-3.023700	2.602700	-7.869000	29.520191	0.000192	20.785563
2500.645801	-2.995600	2.599300	-7.785500	29.544941	0.000193	20.793917
2501.645869	-3.005600	2.594700	-7.797600	29.572633	0.000191	20.766831
2502.646854	-2.978000	2.589700	-7.711100	29.623285	0.000193	20.768107
2503.643029	-2.981500	2.583500	-7.702300	29.624022	0.000191	20.774065
2504.647764	-3.000800	2.578700	-7.736700	29.622383	0.000190	20.795646
2505.650494	-2.995900	2.572800	-7.706300	29.585623	0.000191	20.793676
2506.650300	-2.945500	2.568700	-7.564700	29.577109	0.000192	20.777506
2507.648575	-2.997600	2.562000	-7.679300	29.538238	0.000190	20.791428
2508.654801	-3.028800	2.555900	-7.740500	29.494361	0.000191	20.799356
2509.652446	-3.004900	2.550700	-7.663900	29.501780	0.000194	20.798300
2510.645687	-3.013200	2.544500	-7.666000	29.495810	0.000191	20.792756
2511.652596	-2.957200	2.539400	-7.507500	29.491418	0.000193	20.794018
2512.649522	-2.988500	2.532900	-7.567300	29.458407	0.000193	20.802469
2513.650559	-2.988700	2.526600	-7.550700	29.482024	0.000192	20.793558
2514.649199	-2.982300	2.519800	-7.513600	29.520174	0.000192	20.792184
2515.654664	-2.999000	2.513000	-7.535700	29.563714	0.000193	20.795772
2516.652857	-3.013900	2.505600	-7.549400	29.593914	0.000192	20.792076
2517.651179	-2.991500	2.502900	-7.486400	29.572651	0.000194	20.809522
2518.655459	-3.001200	2.495000	-7.487600	29.552847	0.000193	20.788611
