LabVIEW Measurement	
Writer_Version	2
Reader_Version	2
Separator	Tab
Decimal_Separator	.
Multi_Headings	No
X_Columns	One
Time_Pref	Absolute
Operator	admin
Description	Clolumns are: time, Current, Voltage, Power, Battery Temp, and Chamber Temp
Date	2024/08/16
Time	13:06:06.104549407958984375
***End_of_Header***	
	
Channels	6						
Samples	1	1	1	1	1	1	
Date	2024/08/28	2024/08/28	2024/08/28	2024/08/28	2024/08/28	2024/08/28	
Time	14:51:26.9301400184631347656	14:51:26.9371342658996582031	14:51:26.94406890869140625	14:51:26.8989071846008300781	14:51:26.8989071846008300781	14:51:26.8989071846008300781	
X_Dimension	Time	Time	Time	Time	Time	Time	
X0	0.0000000000000000E+0	0.0000000000000000E+0	0.0000000000000000E+0	0.0000000000000000E+0	0.0000000000000000E+0	0.0000000000000000E+0	
Delta_X	1.000000	1.000000	1.000000	1.000000	1.000000	1.000000	
***End_of_Header***							
X_Value	Untitled	Untitled 1	Untitled 2	Untitled 3	Untitled 4	Untitled 5	Comment
0.000000	0.009531	4.106700	0.039120	21.002280	0.000950	20.693620
1.005357	-2.999900	3.943100	-11.828000	20.992079	0.000949	20.669190
2.004122	-3.009300	3.937400	-11.848000	21.010936	0.000947	20.699907
3.010151	-3.008900	3.931400	-11.828000	20.994270	0.000944	20.684659
4.010145	-3.013600	3.929100	-11.839000	21.001062	0.000945	20.702833
5.001765	-2.979100	3.927200	-11.699000	21.009619	0.000945	20.713764
5.995622	-3.020600	3.921400	-11.844000	20.986987	0.000944	20.699187
7.016274	-3.005700	3.919500	-11.780000	21.005451	0.000941	20.717656
8.003879	-3.009000	3.917400	-11.787000	21.003179	0.000941	20.729134
9.017134	-3.007500	3.916300	-11.777000	21.001609	0.000940	20.712865
10.026354	-3.000900	3.914000	-11.744000	21.005974	0.000942	20.716282
11.009821	-3.012500	3.911500	-11.783000	21.007421	0.000940	20.704926
12.012554	-2.991600	3.910600	-11.699000	20.999541	0.000940	20.706054
13.006555	-3.001200	3.908400	-11.728000	21.015414	0.000939	20.685418
14.017679	-2.977300	3.908800	-11.636000	21.029031	0.000937	20.720378
15.017697	-2.984900	3.906000	-11.658000	21.038014	0.000938	20.713715
16.014402	-3.004100	3.905300	-11.730000	21.028484	0.000936	20.712717
17.004996	-2.988100	3.904100	-11.665000	21.041209	0.000936	20.717860
18.009568	-2.992700	3.904600	-11.683000	21.044054	0.000935	20.721653
19.007866	-3.001100	3.901900	-11.709000	21.052538	0.000934	20.713069
20.011595	-3.006300	3.900600	-11.725000	21.054237	0.000934	20.712872
21.010869	-2.994200	3.900800	-11.678000	21.061291	0.000933	20.733206
22.018674	-3.013700	3.899200	-11.749000	21.079330	0.000934	20.719005
23.008818	-2.985400	3.898800	-11.638000	21.085598	0.000931	20.731913
24.005750	-3.001900	3.898400	-11.700000	21.078136	0.000932	20.725398
25.007897	-2.987100	3.898200	-11.643000	21.083056	0.000931	20.693806
26.013221	-2.990800	3.897300	-11.655000	21.104559	0.000930	20.714843
27.018968	-2.997200	3.896900	-11.679000	21.107280	0.000932	20.726100
28.016922	-2.994800	3.896100	-11.667000	21.121378	0.000932	20.735935
29.014620	-2.996500	3.895100	-11.671000	21.093983	0.000931	20.716592
30.009719	-2.973300	3.894100	-11.577000	21.096532	0.000930	20.722936
31.026066	-3.014200	3.893000	-11.733000	21.122825	0.000929	20.729321
32.008141	-2.998000	3.894700	-11.674000	21.134602	0.000929	20.721661
33.018226	-2.976400	3.892700	-11.585000	21.132558	0.000927	20.740006
34.014627	-3.013900	3.892100	-11.729000	21.138524	0.000928	20.720368
35.022747	-2.997300	3.891000	-11.661000	21.142488	0.000926	20.721963
36.026110	-3.013000	3.891900	-11.725000	21.135149	0.000928	20.725054
37.014443	-2.985300	3.890700	-11.615000	21.143281	0.000929	20.732714
38.017286	-2.978000	3.889800	-11.584000	21.145472	0.000928	20.735854
39.011213	-2.999700	3.890100	-11.668000	21.145079	0.000927	20.728348
40.013666	-2.995700	3.888700	-11.649000	21.172466	0.000925	20.740097
41.018351	-3.005900	3.889700	-11.690000	21.158769	0.000926	20.733982
42.009606	-2.995700	3.887200	-11.644000	21.178677	0.000926	20.734930
43.012856	-3.008300	3.885700	-11.689000	21.183441	0.000927	20.734481
44.026150	-2.990400	3.888100	-11.626000	21.200449	0.000924	20.731579
45.019580	-2.998000	3.886400	-11.651000	21.227989	0.000927	20.726886
46.025239	-2.992300	3.885600	-11.625000	21.213990	0.000923	20.743230
47.029255	-3.002100	3.886300	-11.666000	21.231658	0.000924	20.722496
48.015666	-2.992300	3.886200	-11.628000	21.213573	0.000923	20.756563
49.018450	-3.016500	3.885200	-11.718000	21.223445	0.000923	20.731351
50.016713	-2.973100	3.886500	-11.552000	21.238637	0.000924	20.736117
51.013355	-2.968300	3.884800	-11.530000	21.240108	0.000924	20.730950
52.020520	-3.018600	3.882700	-11.719000	21.240354	0.000923	20.757275
53.018701	-3.005800	3.881500	-11.665000	21.258561	0.000923	20.745144
54.030602	-2.984600	3.884300	-11.592000	21.257319	0.000921	20.746745
55.020815	-2.986200	3.882500	-11.593000	21.264305	0.000923	20.749468
56.022054	-2.993700	3.882500	-11.622000	21.271162	0.000920	20.750163
57.019870	-2.988300	3.881300	-11.595000	21.278851	0.000922	20.759752
58.019152	-2.992600	3.882200	-11.617000	21.296281	0.000921	20.741154
59.031833	-2.983400	3.881400	-11.579000	21.296411	0.000921	20.753138
60.025918	-3.001400	3.882100	-11.650000	21.310328	0.000922	20.744301
61.025702	-3.005300	3.881100	-11.663000	21.324325	0.000921	20.766840
62.033385	-3.009500	3.880300	-11.677000	21.323075	0.000921	20.776021
63.038054	-2.982800	3.879700	-11.571000	21.327660	0.000921	20.745519
64.022497	-2.995800	3.879900	-11.622000	21.307361	0.000920	20.749394
65.028292	-2.988300	3.880800	-11.595000	21.350816	0.000920	20.771058
66.019515	-2.991600	3.879900	-11.605000	21.348415	0.000921	20.751585
67.018545	-3.014200	3.878400	-11.689000	21.355703	0.000921	20.751291
68.029926	-3.005400	3.879600	-11.658000	21.346845	0.000920	20.751912
69.020184	-3.003000	3.877900	-11.644000	21.361955	0.000921	20.755649
70.022437	-2.975700	3.878800	-11.541000	21.354951	0.000919	20.771402
71.019410	-2.991900	3.878400	-11.602000	21.372388	0.000919	20.771778
72.029705	-2.999700	3.876800	-11.628000	21.354558	0.000919	20.761526
73.024372	-3.001000	3.877900	-11.637000	21.387121	0.000919	20.761862
74.022306	-3.011600	3.877400	-11.676000	21.400121	0.000919	20.770601
75.019621	-2.976900	3.879900	-11.549000	21.397383	0.000920	20.756008
76.031006	-3.028300	3.875500	-11.735000	21.401314	0.000920	20.762786
77.031414	-3.011100	3.875100	-11.667000	21.432167	0.000920	20.784173
78.019300	-3.021700	3.876100	-11.711000	21.412835	0.000919	20.762459
79.027250	-3.019000	3.876000	-11.700000	21.427477	0.000919	20.783748
80.033898	-3.008300	3.874400	-11.655000	21.442862	0.000919	20.760260
81.027086	-3.010900	3.874900	-11.667000	21.418424	0.000919	20.787966
82.023345	-3.014000	3.873800	-11.675000	21.427428	0.000920	20.763784
83.030017	-3.005100	3.874700	-11.643000	21.451596	0.000920	20.768999
84.026708	-3.005100	3.875300	-11.645000	21.462667	0.000920	20.764904
85.018686	-2.996700	3.873600	-11.605000	21.464293	0.000920	20.774117
86.023271	-3.010600	3.872600	-11.656000	21.477308	0.000917	20.763906
87.034962	-2.987700	3.875300	-11.577000	21.493673	0.000917	20.789764
88.022216	-3.003500	3.872900	-11.630000	21.512480	0.000918	20.774918
89.045450	-2.997300	3.873300	-11.606000	21.510160	0.000919	20.779709
90.023201	-2.997700	3.874400	-11.612000	21.520732	0.000918	20.779856
91.023309	-3.012600	3.872300	-11.665000	21.512726	0.000918	20.773267
92.028219	-3.011900	3.872400	-11.663000	21.523804	0.000919	20.763489
93.027557	-2.977900	3.874200	-11.536000	21.506222	0.000919	20.789519
94.026386	-3.002600	3.870800	-11.622000	21.524923	0.000920	20.786895
95.023915	-2.986800	3.873300	-11.568000	21.535625	0.000920	20.778637
96.019517	-3.006100	3.872200	-11.638000	21.549163	0.000920	20.798822
97.021878	-2.994600	3.870600	-11.590000	21.585853	0.000920	20.765835
98.030793	-3.001400	3.872200	-11.621000	21.564898	0.000918	20.778058
99.026655	-2.997300	3.871900	-11.603000	21.579619	0.000919	20.773822
100.023234	-2.986400	3.872300	-11.564000	21.593679	0.000920	20.779357
101.038460	-3.015000	3.869600	-11.666000	21.557489	0.000918	20.789609
102.034401	-2.998300	3.869600	-11.601000	21.587790	0.000920	20.782472
103.034971	-2.968700	3.871900	-11.492000	21.596269	0.000921	20.781001
104.039530	-2.996100	3.869700	-11.593000	21.627745	0.000919	20.779782
105.024732	-3.005000	3.870500	-11.629000	21.619796	0.000922	20.804544
106.030245	-3.000500	3.869800	-11.611000	21.630588	0.000920	20.771247
107.025723	-2.999000	3.869500	-11.603000	21.635424	0.000920	20.787467
108.032508	-2.998900	3.870300	-11.605000	21.642932	0.000919	20.790238
109.030470	-3.009900	3.870200	-11.647000	21.649958	0.000920	20.802485
110.044759	-3.012400	3.869200	-11.655000	21.657089	0.000921	20.775009
111.038132	-3.028900	3.868700	-11.717000	21.664874	0.000919	20.805085
112.044555	-3.005700	3.869500	-11.629000	21.662178	0.000921	20.808551
113.029553	-2.986300	3.868700	-11.553000	21.656142	0.000920	20.791604
114.038922	-3.010400	3.868200	-11.644000	21.679660	0.000922	20.802812
115.047043	-2.999100	3.867600	-11.599000	21.678884	0.000922	20.801087
116.033720	-3.007700	3.868000	-11.633000	21.699404	0.000921	20.789855
117.040390	-2.998000	3.868200	-11.596000	21.689177	0.000921	20.795742
118.040816	-3.000200	3.867400	-11.601000	21.714793	0.000921	20.792454
119.041174	-2.989200	3.867600	-11.560000	21.726034	0.000921	20.797066
120.037625	-3.011000	3.865800	-11.638000	21.717825	0.000920	20.803549
121.038439	-3.003000	3.865600	-11.608000	21.741121	0.000921	20.794147
122.036644	-3.007900	3.866100	-11.628000	21.757801	0.000920	20.791875
123.040649	-2.991100	3.865900	-11.562000	21.748171	0.000922	20.801203
124.041665	-3.009800	3.865500	-11.631000	21.755456	0.000920	20.798537
125.040981	-3.009100	3.865600	-11.631000	21.778540	0.000921	20.821166
126.046805	-3.011100	3.865600	-11.639000	21.762285	0.000922	20.809165
127.031455	-3.015400	3.865400	-11.655000	21.765577	0.000922	20.821943
128.043181	-3.000300	3.864700	-11.593000	21.785875	0.000924	20.807170
129.041307	-2.997100	3.865400	-11.584000	21.737618	0.000924	20.813875
130.039469	-2.992100	3.865800	-11.566000	21.763952	0.000924	20.814626
131.048650	-3.026800	3.863500	-11.693000	21.794419	0.000924	20.790592
132.045259	-2.998900	3.865000	-11.590000	21.783923	0.000922	20.824183
133.046016	-3.016600	3.863500	-11.653000	21.789984	0.000924	20.787575
134.038820	-3.034800	3.862800	-11.722000	21.804996	0.000923	20.801178
135.042553	-2.985500	3.864800	-11.537000	21.797188	0.000924	20.827976
136.055401	-3.001800	3.864000	-11.597000	21.820581	0.000924	20.823888
137.060025	-2.998400	3.864200	-11.586000	21.805667	0.000923	20.833617
138.047570	-2.997400	3.863400	-11.579000	21.828627	0.000924	20.822933
139.045060	-3.008800	3.864200	-11.626000	21.829599	0.000923	20.823431
140.043922	-3.017400	3.862800	-11.654000	21.838533	0.000925	20.812934
141.048039	-3.019100	3.862900	-11.662000	21.840151	0.000926	20.816449
142.045314	-2.993700	3.863400	-11.565000	21.863233	0.000925	20.840026
143.047252	-3.005700	3.861900	-11.607000	21.856429	0.000927	20.823259
144.042502	-2.999200	3.861900	-11.582000	21.874823	0.000927	20.831713
145.054173	-3.003700	3.861700	-11.599000	21.886617	0.000926	20.819336
146.049094	-2.988300	3.862500	-11.541000	21.887368	0.000927	20.835734
147.041740	-2.970000	3.861300	-11.466000	21.908512	0.000927	20.827976
148.047765	-3.004100	3.861000	-11.597000	21.892031	0.000928	20.832816
149.047183	-2.996000	3.862100	-11.570000	21.923207	0.000927	20.818503
150.045294	-3.029400	3.858400	-11.687000	21.938421	0.000927	20.821879
151.042470	-3.012700	3.860900	-11.629000	21.931618	0.000928	20.819810
152.063246	-3.003100	3.860000	-11.591000	21.934207	0.000927	20.815290
153.049141	-2.996200	3.859600	-11.562000	21.965821	0.000927	20.819434
154.052812	-2.991900	3.860100	-11.548000	21.956993	0.000928	20.839046
155.043414	-3.016400	3.858800	-11.639000	21.954617	0.000927	20.832875
156.048903	-3.005700	3.860200	-11.601000	21.967936	0.000929	20.812069
157.046924	-3.006500	3.860400	-11.606000	21.960807	0.000929	20.813941
158.048804	-2.981000	3.860500	-11.507000	21.965968	0.000931	20.815788
159.052480	-3.002900	3.858900	-11.586000	21.970754	0.000932	20.835752
160.049329	-2.998400	3.859500	-11.570000	21.969635	0.000932	20.805234
161.056600	-3.008200	3.857000	-11.602000	21.961003	0.000932	20.804655
162.058782	-3.025200	3.857100	-11.666000	21.964287	0.000933	20.797036
163.054163	-3.002400	3.858500	-11.584000	21.977231	0.000933	20.806674
164.061675	-3.012200	3.856900	-11.616000	21.975206	0.000934	20.806070
165.058941	-2.998100	3.858000	-11.565000	21.992862	0.000934	20.804303
166.051527	-2.983500	3.857900	-11.508000	21.983136	0.000933	20.799309
167.046929	-2.974900	3.858900	-11.479000	21.978571	0.000935	20.806593
168.055650	-2.989300	3.858200	-11.531000	21.988721	0.000934	20.798262
169.052981	-3.000600	3.857400	-11.573000	21.974055	0.000933	20.793538
170.053825	-3.015800	3.856200	-11.628000	22.006296	0.000934	20.787406
171.054345	-2.982400	3.857400	-11.502000	22.000833	0.000935	20.809438
172.055552	-2.991100	3.855700	-11.532000	22.017232	0.000935	20.814000
173.059470	-2.994600	3.856300	-11.546000	22.033230	0.000935	20.794454
174.060367	-3.005400	3.856100	-11.586000	22.014137	0.000935	20.777237
175.059895	-3.000700	3.855300	-11.567000	22.011786	0.000935	20.805230
176.058069	-3.014500	3.854600	-11.619000	22.040973	0.000936	20.791300
177.056600	-3.010800	3.853300	-11.600000	22.057133	0.000937	20.797520
178.055049	-3.009800	3.854100	-11.599000	22.052789	0.000935	20.791749
179.055860	-3.006700	3.854100	-11.586000	22.033117	0.000939	20.809514
180.061205	-2.993400	3.854600	-11.538000	22.040141	0.000939	20.770552
181.060825	-3.019700	3.854000	-11.636000	22.047319	0.000936	20.799550
182.060264	-3.006400	3.853500	-11.584000	22.049663	0.000937	20.783404
183.065028	-3.021100	3.854600	-11.644000	22.071794	0.000939	20.782799
184.068734	-2.996900	3.853700	-11.548000	22.088763	0.000938	20.791253
185.066805	-3.006900	3.854300	-11.588000	22.085504	0.000938	20.778507
186.068666	-3.014200	3.854200	-11.617000	22.072488	0.000939	20.782546
187.056312	-3.009100	3.853500	-11.594000	22.070888	0.000939	20.789954
188.060254	-3.010700	3.852000	-11.596000	22.081659	0.000939	20.772287
189.079334	-3.004800	3.853000	-11.577000	22.085440	0.000939	20.774650
190.061598	-3.007200	3.852100	-11.583000	22.097934	0.000940	20.802805
191.068330	-2.984900	3.854300	-11.503000	22.119303	0.000943	20.790059
192.063020	-2.996800	3.853800	-11.549000	22.152798	0.000943	20.776178
193.065609	-2.975600	3.851800	-11.460000	22.138264	0.000943	20.775852
194.062109	-2.997100	3.852200	-11.545000	22.093737	0.000941	20.771103
195.067986	-3.016100	3.850000	-11.611000	22.118095	0.000943	20.774626
196.065851	-2.993700	3.852000	-11.530000	22.105031	0.000943	20.767710
197.076134	-2.990600	3.850800	-11.515000	22.120014	0.000942	20.789823
198.076469	-2.991900	3.852300	-11.523000	22.114022	0.000943	20.779083
199.061659	-2.976300	3.852200	-11.464000	22.124171	0.000945	20.790666
200.059334	-2.996900	3.851000	-11.539000	22.118937	0.000945	20.764563
201.067861	-3.006300	3.851400	-11.577000	22.127985	0.000944	20.757974
202.058077	-2.998700	3.851500	-11.549000	22.155282	0.000947	20.764440
203.060252	-2.973900	3.851500	-11.453000	22.147851	0.000944	20.763639
204.060568	-2.979100	3.851100	-11.473000	22.181974	0.000945	20.785475
205.061697	-2.980400	3.850700	-11.475000	22.184588	0.000945	20.768177
206.068670	-3.009600	3.849700	-11.584000	22.160231	0.000945	20.771766
207.080961	-3.010500	3.848500	-11.585000	22.168591	0.000947	20.783456
208.063266	-2.992900	3.849300	-11.518000	22.190246	0.000947	20.766730
209.070822	-3.004300	3.848300	-11.561000	22.194256	0.000949	20.763632
210.073102	-2.994600	3.849400	-11.525000	22.210782	0.000949	20.767376
211.070385	-2.985400	3.848500	-11.488000	22.223845	0.000948	20.769550
212.075822	-2.964000	3.850000	-11.411000	22.219730	0.000949	20.773017
213.068578	-2.988800	3.848900	-11.503000	22.224581	0.000950	20.773132
214.083329	-3.000400	3.848200	-11.545000	22.220221	0.000949	20.772086
215.074594	-2.979400	3.848500	-11.465000	22.227879	0.000950	20.732810
216.063971	-2.975400	3.848000	-11.447000	22.223887	0.000949	20.751574
217.062633	-3.000000	3.846500	-11.539000	22.252774	0.000950	20.762005
218.061826	-3.015900	3.845200	-11.597000	22.254896	0.000951	20.769820
219.067610	-3.006500	3.846900	-11.565000	22.269348	0.000952	20.748729
220.068262	-3.026300	3.847200	-11.642000	22.252848	0.000951	20.771562
221.081449	-3.009900	3.846100	-11.575000	22.272712	0.000954	20.743088
222.071879	-2.998500	3.846900	-11.532000	22.229643	0.000952	20.758286
223.067995	-3.008300	3.847000	-11.572000	22.236901	0.000951	20.765553
224.069874	-2.993900	3.847800	-11.519000	22.209354	0.000953	20.753618
225.073258	-3.008900	3.846300	-11.571000	22.232787	0.000952	20.753846
226.074585	-3.019400	3.845100	-11.608000	22.255166	0.000953	20.745908
227.069702	-2.995900	3.844800	-11.516000	22.274835	0.000955	20.766076
228.074086	-3.006100	3.845800	-11.560000	22.267192	0.000955	20.754630
229.069607	-3.011300	3.845000	-11.577000	22.298438	0.000955	20.747984
230.064653	-2.998600	3.844000	-11.526000	22.314759	0.000957	20.742041
231.068774	-3.020900	3.845000	-11.615000	22.326393	0.000959	20.756536
232.083169	-2.998100	3.845600	-11.529000	22.339954	0.000958	20.745933
233.073356	-2.996500	3.844200	-11.517000	22.333422	0.000957	20.744608
234.072875	-3.010300	3.844200	-11.571000	22.331290	0.000960	20.742947
235.080594	-2.999500	3.842600	-11.524000	22.319322	0.000957	20.736179
236.071456	-3.003500	3.845700	-11.549000	22.327274	0.000959	20.743667
237.082505	-3.001000	3.843800	-11.534000	22.324678	0.000960	20.742491
238.078959	-3.015300	3.843000	-11.587000	22.331283	0.000958	20.755269
239.081017	-2.998700	3.843000	-11.522000	22.344436	0.000960	20.748051
240.079244	-2.982100	3.842700	-11.458000	22.362160	0.000961	20.760583
241.073939	-3.014300	3.842900	-11.582000	22.344843	0.000960	20.759838
242.074781	-2.988300	3.842500	-11.480000	22.367491	0.000963	20.755016
243.086426	-3.008800	3.842500	-11.560000	22.364755	0.000961	20.731887
244.071892	-2.987700	3.842400	-11.479000	22.371654	0.000963	20.750176
245.084908	-2.987400	3.844000	-11.483000	22.386880	0.000963	20.758310
246.078821	-3.010600	3.839800	-11.558000	22.420694	0.000964	20.750446
247.071823	-2.986100	3.842500	-11.472000	22.419551	0.000964	20.745982
248.084515	-3.019600	3.840100	-11.593000	22.433281	0.000963	20.738869
249.069348	-3.007100	3.841000	-11.550000	22.427845	0.000965	20.748124
250.076100	-3.009800	3.840700	-11.559000	22.428988	0.000963	20.749743
251.069304	-2.996800	3.841300	-11.510000	22.443185	0.000968	20.761590
252.074319	-2.982000	3.840500	-11.451000	22.472793	0.000966	20.734815
253.076931	-2.997200	3.840400	-11.510000	22.482034	0.000966	20.757821
254.080225	-2.994000	3.839400	-11.494000	22.480108	0.000967	20.738823
255.089320	-3.000800	3.839200	-11.519000	22.493870	0.000970	20.737432
256.075800	-2.997200	3.838900	-11.503000	22.466434	0.000966	20.729870
257.076374	-3.015700	3.839800	-11.577000	22.478256	0.000969	20.743132
258.083543	-3.000800	3.838600	-11.518000	22.480133	0.000970	20.757814
259.077297	-3.014700	3.837700	-11.569000	22.484141	0.000970	20.731482
260.078665	-2.991900	3.839500	-11.486000	22.493333	0.000971	20.744007
261.080485	-3.010400	3.839400	-11.556000	22.503472	0.000974	20.726659
262.080697	-3.008100	3.838000	-11.544000	22.487954	0.000973	20.747628
263.080020	-2.995500	3.839100	-11.499000	22.510002	0.000971	20.718025
264.082447	-3.021400	3.837600	-11.594000	22.503742	0.000973	20.734042
265.083475	-2.990000	3.837600	-11.474000	22.496795	0.000974	20.720919
266.079537	-3.008300	3.835900	-11.538000	22.517833	0.000974	20.732981
267.075862	-2.989600	3.837300	-11.471000	22.526264	0.000974	20.728148
268.083814	-2.995700	3.837300	-11.495000	22.554736	0.000974	20.745285
269.088321	-2.996500	3.836500	-11.495000	22.518208	0.000976	20.734779
270.100254	-2.999000	3.835700	-11.502000	22.571004	0.000976	20.725541
271.081152	-2.987900	3.837700	-11.466000	22.566694	0.000978	20.732131
272.082943	-2.985200	3.836600	-11.452000	22.573469	0.000978	20.724217
273.107797	-3.003900	3.835300	-11.519000	22.592749	0.000978	20.724561
274.082123	-3.005200	3.834300	-11.522000	22.587272	0.000978	20.718126
275.091715	-2.996300	3.835800	-11.491000	22.574931	0.000977	20.728526
276.086190	-3.010500	3.835100	-11.545000	22.589835	0.000977	20.730177
277.080266	-3.000500	3.833900	-11.503000	22.610584	0.000978	20.732467
278.080690	-3.002700	3.834400	-11.512000	22.586514	0.000978	20.750560
279.080316	-3.028000	3.833300	-11.606000	22.597918	0.000980	20.727367
280.082566	-3.017600	3.832800	-11.565000	22.594113	0.000980	20.740627
281.084126	-3.018200	3.833800	-11.570000	22.609679	0.000979	20.720180
282.082703	-2.992100	3.834800	-11.473000	22.626290	0.000979	20.735870
283.078652	-3.011000	3.832200	-11.537000	22.607729	0.000980	20.739091
284.083248	-2.986100	3.833900	-11.447000	22.611745	0.000980	20.723198
285.094597	-3.014500	3.832100	-11.550000	22.603329	0.000980	20.713819
286.084139	-3.034400	3.831300	-11.625000	22.620862	0.000982	20.734227
287.090611	-2.997900	3.833000	-11.489000	22.623955	0.000981	20.721203
288.080230	-3.003300	3.831600	-11.506000	22.632868	0.000984	20.728234
289.095549	-3.013000	3.831400	-11.543000	22.640916	0.000983	20.717328
290.091538	-2.988300	3.832200	-11.450000	22.654718	0.000985	20.733524
291.085814	-3.003000	3.833000	-11.509000	22.657330	0.000984	20.719544
292.088981	-2.988600	3.832600	-11.452000	22.662334	0.000985	20.726927
293.088298	-2.999200	3.831400	-11.491000	22.660220	0.000986	20.719593
294.088662	-3.023900	3.830100	-11.581000	22.665451	0.000985	20.725782
295.084763	-2.991300	3.831600	-11.460000	22.664350	0.000985	20.726576
296.094847	-2.995900	3.831100	-11.476000	22.657225	0.000987	20.715645
297.084567	-3.011300	3.831000	-11.535000	22.662081	0.000987	20.729519
298.085425	-3.021700	3.829200	-11.570000	22.684845	0.000988	20.719604
299.093767	-2.996200	3.830100	-11.474000	22.660865	0.000989	20.701272
300.091084	-2.962300	3.830500	-11.346000	22.663600	0.000990	20.739576
301.085846	-3.007200	3.828900	-11.513000	22.681760	0.000989	20.722203
302.084551	-2.996200	3.828200	-11.468000	22.653855	0.000991	20.710847
303.094707	-3.014600	3.829600	-11.544000	22.681907	0.000990	20.727566
304.092114	-2.982400	3.829500	-11.419000	22.663592	0.000990	20.712540
305.091122	-2.981100	3.829800	-11.416000	22.682527	0.000989	20.722498
306.093084	-2.996000	3.828400	-11.469000	22.670718	0.000990	20.722522
307.091646	-3.015700	3.828800	-11.546000	22.690396	0.000992	20.709041
308.087459	-2.974100	3.828100	-11.384000	22.681076	0.000993	20.696386
309.088335	-2.986900	3.827800	-11.433000	22.677166	0.000992	20.713334
310.088132	-3.004800	3.827500	-11.500000	22.691718	0.000994	20.713211
311.093486	-2.989500	3.827500	-11.441000	22.699113	0.000994	20.704022
312.093727	-2.998300	3.827500	-11.475000	22.729506	0.000995	20.696059
313.091614	-2.990100	3.826600	-11.441000	22.726445	0.000996	20.728082
314.102798	-2.980300	3.827700	-11.407000	22.742490	0.000995	20.708592
315.098438	-2.995200	3.826400	-11.460000	22.748643	0.000994	20.712385
316.108147	-2.986600	3.825900	-11.424000	22.763170	0.000996	20.697064
317.105962	-3.005300	3.826900	-11.500000	22.786363	0.000996	20.719825
318.097941	-2.985900	3.826300	-11.424000	22.772759	0.000996	20.712361
319.096626	-3.019200	3.824000	-11.544000	22.810422	0.000997	20.724960
320.094239	-3.002800	3.824600	-11.484000	22.825396	0.000996	20.712933
321.096087	-3.020800	3.823300	-11.548000	22.803199	0.000996	20.705395
322.098090	-2.998100	3.824000	-11.464000	22.799641	0.000997	20.719849
323.102197	-3.022900	3.823000	-11.555000	22.789480	0.000999	20.709196
324.105890	-3.006800	3.823700	-11.496000	22.797943	0.000999	20.716727
325.106930	-2.986600	3.824200	-11.421000	22.798817	0.000999	20.704798
326.100008	-2.993400	3.823900	-11.446000	22.808111	0.001001	20.703678
327.107753	-2.999800	3.823800	-11.470000	22.816859	0.001000	20.712916
328.108628	-3.014400	3.822900	-11.523000	22.816557	0.001001	20.707398
329.112073	-2.993900	3.822700	-11.443000	22.821364	0.001001	20.699884
330.108838	-3.004500	3.822700	-11.484000	22.803059	0.001003	20.700513
331.104386	-2.998100	3.822500	-11.458000	22.771967	0.001003	20.703032
332.100965	-2.996900	3.821900	-11.453000	22.780707	0.001003	20.688078
333.124926	-3.023500	3.822900	-11.557000	22.781759	0.001003	20.718058
334.110959	-3.010700	3.822200	-11.507000	22.782780	0.001005	20.679722
335.101415	-3.000600	3.821000	-11.464000	22.834999	0.001004	20.704535
336.115872	-3.006300	3.822300	-11.489000	22.826472	0.001005	20.699786
337.102735	-2.994600	3.821100	-11.441000	22.818058	0.001005	20.688037
338.105474	-2.998100	3.820700	-11.453000	22.818882	0.001006	20.694552
339.109732	-3.000700	3.820800	-11.464000	22.819355	0.001006	20.691233
340.108831	-3.004800	3.819700	-11.476000	22.827149	0.001006	20.686712
341.111560	-2.997800	3.820500	-11.452000	22.829646	0.001006	20.691584
342.105125	-3.036800	3.818100	-11.592000	22.834452	0.001007	20.703513
343.109536	-2.998100	3.819000	-11.449000	22.832559	0.001009	20.685494
344.113732	-2.990600	3.820800	-11.425000	22.799427	0.001009	20.690236
345.108648	-3.014400	3.818100	-11.509000	22.816116	0.001009	20.702213
346.109727	-3.003400	3.818500	-11.466000	22.807449	0.001008	20.676933
347.104869	-3.005500	3.817900	-11.474000	22.822760	0.001010	20.688479
348.113489	-3.002600	3.817600	-11.462000	22.792849	0.001009	20.689810
349.108219	-2.989200	3.818500	-11.414000	22.791773	0.001010	20.681145
350.111051	-3.007900	3.817800	-11.482000	22.782029	0.001011	20.701258
351.107739	-3.025300	3.817800	-11.548000	22.823387	0.001013	20.664449
352.091218	-2.987400	3.818300	-11.405000	22.811302	0.001012	20.671784
353.093198	-3.009200	3.816800	-11.485000	22.822016	0.001014	20.656437
354.113802	-3.003000	3.817200	-11.462000	22.834045	0.001012	20.659479
355.127439	-2.997300	3.817200	-11.441000	22.849615	0.001012	20.671759
356.112538	-2.997500	3.817600	-11.443000	22.854096	0.001014	20.690948
357.115338	-3.007500	3.815000	-11.473000	22.873901	0.001014	20.682813
358.114943	-2.973500	3.816800	-11.349000	22.894774	0.001014	20.692346
359.120450	-2.994700	3.816500	-11.428000	22.897460	0.001016	20.687924
360.113483	-2.956400	3.816700	-11.283000	22.924917	0.001014	20.661376
361.089586	-2.985700	3.815900	-11.391000	22.920871	0.001016	20.672496
362.113211	-3.009200	3.815600	-11.480000	22.936815	0.001017	20.690843
363.111355	-3.014200	3.814400	-11.496000	22.950564	0.001018	20.655776
364.111699	-2.995800	3.816500	-11.432000	22.951707	0.001015	20.657395
365.117643	-3.002300	3.814700	-11.450000	22.961792	0.001017	20.669398
366.111562	-3.005500	3.814600	-11.464000	22.959279	0.001019	20.677312
367.115137	-2.972300	3.815400	-11.339000	22.976218	0.001018	20.670101
368.120994	-2.987800	3.813400	-11.391000	22.978437	0.001020	20.680860
369.116481	-2.986800	3.814600	-11.393000	23.019626	0.001018	20.675187
370.112555	-3.008600	3.814200	-11.474000	23.024236	0.001021	20.668425
371.091463	-3.008000	3.812400	-11.467000	23.019700	0.001020	20.663880
372.113689	-3.018400	3.811900	-11.505000	23.055314	0.001020	20.664477
373.093180	-2.998600	3.811700	-11.429000	23.050484	0.001020	20.677656
374.111822	-2.979200	3.814200	-11.361000	23.062110	0.001021	20.669391
375.128988	-3.016600	3.810800	-11.495000	23.062209	0.001020	20.677551
376.121264	-3.017300	3.811400	-11.498000	23.047139	0.001021	20.657708
377.112328	-3.005300	3.810100	-11.449000	23.079987	0.001022	20.681615
378.117932	-3.008100	3.810700	-11.462000	23.068059	0.001023	20.660651
379.109657	-2.994500	3.810400	-11.410000	23.080902	0.001021	20.683954
380.115894	-2.991800	3.810700	-11.400000	23.123202	0.001025	20.669440
381.125340	-2.983200	3.811100	-11.367000	23.111870	0.001023	20.661403
382.122229	-2.995600	3.809200	-11.410000	23.093833	0.001024	20.657553
383.122064	-2.990700	3.810600	-11.396000	23.092690	0.001024	20.669686
384.129215	-3.002300	3.810100	-11.439000	23.104919	0.001025	20.637840
385.116394	-2.985400	3.808800	-11.370000	23.120331	0.001023	20.675099
386.099029	-3.025800	3.807900	-11.520000	23.125063	0.001024	20.662295
387.102643	-3.014400	3.807600	-11.477000	23.120429	0.001026	20.664290
388.115586	-3.021700	3.806600	-11.501000	23.099332	0.001027	20.673023
389.124380	-2.984900	3.808000	-11.365000	23.098736	0.001026	20.648715
390.112098	-3.004200	3.808500	-11.440000	23.067985	0.001027	20.643506
391.115906	-3.013200	3.807100	-11.471000	23.084288	0.001026	20.654153
392.101746	-2.998300	3.807700	-11.416000	23.074529	0.001027	20.668084
393.132177	-2.996700	3.806800	-11.407000	23.049246	0.001029	20.653654
394.124278	-2.983900	3.807500	-11.359000	23.041976	0.001030	20.666760
395.121055	-3.011300	3.806300	-11.460000	23.019653	0.001029	20.667627
396.124621	-3.008700	3.805700	-11.449000	23.026286	0.001030	20.650563
397.121695	-3.030200	3.805800	-11.531000	23.033409	0.001030	20.669082
398.125664	-3.008600	3.804300	-11.445000	23.084288	0.001030	20.664585
399.117799	-3.015600	3.805200	-11.474000	23.083986	0.001030	20.650057
400.123988	-2.992500	3.804700	-11.384000	23.104530	0.001030	20.667799
401.126324	-3.001300	3.804900	-11.418000	23.123587	0.001031	20.671249
402.122973	-2.993600	3.805100	-11.388000	23.137734	0.001032	20.664561
403.124850	-3.000300	3.803700	-11.411000	23.124201	0.001031	20.646256
404.120932	-2.984000	3.805000	-11.353000	23.089363	0.001032	20.658290
405.123076	-3.001200	3.803400	-11.413000	23.092903	0.001031	20.660416
406.132502	-2.995600	3.803100	-11.391000	23.073176	0.001033	20.642069
407.125836	-2.998400	3.804200	-11.406000	23.083212	0.001032	20.665404
408.106724	-2.998500	3.803700	-11.405000	23.090138	0.001033	20.648634
409.111970	-3.021200	3.802000	-11.485000	23.131158	0.001034	20.670774
410.106868	-3.020100	3.802400	-11.482000	23.110591	0.001033	20.656801
411.129782	-3.014900	3.802500	-11.464000	23.125782	0.001033	20.660170
412.132914	-2.999900	3.802800	-11.406000	23.159566	0.001034	20.664627
413.125605	-3.002600	3.802600	-11.416000	23.165840	0.001033	20.674234
414.127557	-3.031200	3.800100	-11.518000	23.174112	0.001035	20.664979
415.132194	-3.006000	3.802500	-11.429000	23.172300	0.001037	20.673595
416.134735	-2.982800	3.801800	-11.338000	23.169226	0.001036	20.671937
417.110740	-3.009600	3.799300	-11.433000	23.165553	0.001035	20.678214
418.126753	-2.997500	3.800500	-11.391000	23.179390	0.001037	20.675959
419.134126	-3.005500	3.799600	-11.418000	23.196277	0.001038	20.671544
420.132505	-3.002400	3.799900	-11.408000	23.172790	0.001037	20.666499
421.134963	-2.993200	3.800200	-11.374000	23.187858	0.001036	20.657416
422.147913	-3.006200	3.800700	-11.425000	23.148193	0.001039	20.658919
423.113173	-2.995900	3.799900	-11.382000	23.164974	0.001038	20.667676
424.135676	-2.996000	3.799500	-11.381000	23.174960	0.001039	20.675313
425.133474	-2.985200	3.798800	-11.340000	23.212609	0.001038	20.681273
426.129594	-2.989100	3.798500	-11.354000	23.177841	0.001040	20.667293
427.133518	-3.003400	3.798600	-11.408000	23.209672	0.001040	20.687814
428.146212	-3.003100	3.798100	-11.404000	23.215073	0.001042	20.682794
429.132446	-3.010600	3.796400	-11.428000	23.205782	0.001042	20.668740
430.116201	-2.980700	3.798200	-11.320000	23.224658	0.001041	20.668691
431.137702	-3.000400	3.796400	-11.389000	23.218655	0.001042	20.688755
432.114533	-3.002900	3.797700	-11.403000	23.201695	0.001041	20.672706
433.119103	-2.981600	3.796200	-11.317000	23.205978	0.001040	20.669885
434.117306	-3.029100	3.794600	-11.492000	23.226225	0.001042	20.675478
435.117890	-3.019100	3.795400	-11.458000	23.237352	0.001041	20.665291
436.123199	-2.998100	3.795000	-11.377000	23.234489	0.001044	20.660050
437.122928	-2.981000	3.796900	-11.318000	23.226593	0.001042	20.673949
438.117509	-3.009300	3.793700	-11.415000	23.227083	0.001043	20.671596
439.119604	-2.979000	3.795600	-11.306000	23.236970	0.001042	20.678660
440.118630	-2.991400	3.794300	-11.349000	23.250593	0.001045	20.660067
441.117019	-2.968900	3.795100	-11.266000	23.257609	0.001044	20.688913
442.118954	-2.998900	3.794600	-11.379000	23.292066	0.001044	20.675554
443.135519	-3.008600	3.792600	-11.408000	23.310045	0.001044	20.692151
444.143802	-2.975000	3.795000	-11.289000	23.294113	0.001044	20.668596
445.143359	-3.005700	3.792700	-11.399000	23.305086	0.001045	20.679594
446.141066	-2.986300	3.793100	-11.326000	23.288225	0.001046	20.691146
447.138353	-3.012700	3.791000	-11.419000	23.286504	0.001044	20.680886
448.141537	-2.997500	3.792000	-11.365000	23.302068	0.001046	20.682260
449.137154	-3.010100	3.792000	-11.412000	23.316384	0.001044	20.670053
450.140897	-2.996800	3.792300	-11.362000	23.314141	0.001045	20.693886
451.142241	-2.972700	3.792500	-11.273000	23.289115	0.001045	20.681606
452.139149	-3.016500	3.790100	-11.432000	23.317821	0.001047	20.678132
453.153605	-2.985700	3.790500	-11.316000	23.343294	0.001046	20.661461
454.140258	-3.007900	3.789700	-11.398000	23.351810	0.001046	20.677584
455.140324	-2.975300	3.791400	-11.279000	23.366924	0.001046	20.672343
456.142849	-2.998800	3.791100	-11.367000	23.364772	0.001047	20.684887
457.150214	-3.011000	3.789900	-11.411000	23.377742	0.001048	20.695516
458.143278	-2.999500	3.790100	-11.367000	23.383720	0.001048	20.690127
459.123674	-2.978500	3.790500	-11.288000	23.384267	0.001048	20.684985
460.150148	-3.000600	3.789900	-11.371000	23.404013	0.001048	20.679646
461.145811	-2.999100	3.789400	-11.363000	23.385766	0.001048	20.702137
462.125577	-3.014900	3.788900	-11.422000	23.366020	0.001049	20.688508
463.133153	-3.021700	3.787800	-11.443000	23.377244	0.001048	20.670833
464.126688	-3.011900	3.786900	-11.404000	23.394047	0.001047	20.680088
465.127035	-2.995500	3.787600	-11.344000	23.387024	0.001048	20.700552
466.129307	-3.022000	3.786700	-11.442000	23.372580	0.001050	20.689393
467.129377	-3.012200	3.786300	-11.404000	23.366128	0.001049	20.707110
468.136352	-2.992300	3.786500	-11.329000	23.375019	0.001049	20.688993
469.130043	-2.989600	3.787300	-11.321000	23.370982	0.001047	20.676410
470.131628	-2.981200	3.787000	-11.289000	23.380019	0.001051	20.679779
471.146920	-3.003000	3.784900	-11.365000	23.387206	0.001051	20.696467
472.153973	-3.013900	3.784300	-11.405000	23.377352	0.001051	20.668096
473.133243	-3.006100	3.785200	-11.377000	23.385020	0.001050	20.699017
474.150984	-2.998000	3.784300	-11.345000	23.364646	0.001051	20.697563
475.154186	-2.982200	3.784600	-11.284000	23.413200	0.001052	20.694546
476.152268	-3.003800	3.784100	-11.365000	23.381694	0.001051	20.692364
477.156247	-2.979500	3.784100	-11.274000	23.388145	0.001053	20.682234
478.132041	-3.014000	3.784100	-11.404000	23.390805	0.001050	20.687271
479.137922	-2.996500	3.783100	-11.334000	23.390927	0.001052	20.697352
480.139378	-2.986200	3.783700	-11.298000	23.382062	0.001052	20.707907
481.158811	-2.982600	3.783300	-11.283000	23.400080	0.001054	20.698939
482.164663	-3.034100	3.781400	-11.471000	23.387560	0.001053	20.699667
483.134407	-2.996400	3.781800	-11.330000	23.372470	0.001052	20.691180
484.136735	-2.985900	3.782600	-11.294000	23.351623	0.001054	20.695891
485.133151	-3.003200	3.781700	-11.355000	23.362153	0.001053	20.703601
486.133615	-3.011200	3.780000	-11.381000	23.391306	0.001055	20.690144
487.156783	-3.001200	3.779800	-11.343000	23.404201	0.001052	20.688370
488.150865	-2.985100	3.782700	-11.290000	23.405343	0.001054	20.716070
489.165884	-2.973500	3.782000	-11.244000	23.422023	0.001055	20.683948
490.157882	-2.986000	3.779600	-11.283000	23.421396	0.001054	20.726944
491.165530	-3.032000	3.778800	-11.455000	23.444095	0.001056	20.727411
492.156201	-3.019300	3.778300	-11.406000	23.462145	0.001056	20.693818
493.155068	-2.990900	3.779700	-11.304000	23.486049	0.001054	20.711142
494.134781	-3.022400	3.777500	-11.416000	23.491368	0.001057	20.712206
495.139513	-3.012400	3.779200	-11.384000	23.489027	0.001055	20.691840
496.150857	-3.006700	3.778100	-11.358000	23.484233	0.001056	20.707899
497.152218	-3.004200	3.778900	-11.350000	23.516546	0.001055	20.694295
498.157722	-2.997200	3.778900	-11.325000	23.505520	0.001055	20.715486
499.137479	-2.988800	3.779100	-11.293000	23.520078	0.001055	20.722968
500.137775	-3.021100	3.775800	-11.406000	23.506353	0.001056	20.718219
501.139813	-2.980700	3.777900	-11.259000	23.526318	0.001055	20.712153
502.136692	-2.995800	3.776600	-11.313000	23.510383	0.001059	20.709455
503.162031	-2.995000	3.776200	-11.309000	23.512741	0.001057	20.731735
504.138803	-2.990900	3.776300	-11.294000	23.501413	0.001057	20.715163
505.137706	-2.995700	3.776700	-11.313000	23.497418	0.001057	20.702623
506.143509	-3.015300	3.775000	-11.382000	23.494955	0.001058	20.717699
507.155594	-2.991800	3.774700	-11.292000	23.498732	0.001057	20.727175
508.166876	-3.000900	3.774900	-11.327000	23.540929	0.001057	20.731541
509.160364	-3.019100	3.773300	-11.390000	23.542698	0.001058	20.741850
510.169406	-2.988700	3.775300	-11.282000	23.544811	0.001058	20.731165
511.170860	-3.003200	3.773200	-11.331000	23.574210	0.001058	20.711798
512.160144	-3.007100	3.774300	-11.347000	23.580279	0.001059	20.694172
513.156229	-2.993400	3.773000	-11.294000	23.604443	0.001058	20.710336
514.167120	-2.999100	3.773100	-11.315000	23.633613	0.001058	20.720140
515.163769	-3.011900	3.771900	-11.359000	23.643405	0.001058	20.729957
516.146839	-3.005500	3.772700	-11.338000	23.641132	0.001057	20.722461
517.143599	-2.999900	3.772300	-11.315000	23.610259	0.001057	20.734186
518.146842	-3.004300	3.771900	-11.331000	23.581407	0.001059	20.735609
519.144578	-3.014200	3.771600	-11.367000	23.584360	0.001059	20.745208
520.145623	-3.002600	3.771500	-11.323000	23.581179	0.001056	20.725897
521.146479	-2.978300	3.772000	-11.233000	23.547263	0.001059	20.736943
522.148561	-2.987900	3.771400	-11.268000	23.568002	0.001057	20.735447
523.157713	-3.017600	3.768600	-11.371000	23.545168	0.001058	20.741955
524.164254	-3.001100	3.769400	-11.311000	23.525375	0.001058	20.707888
525.159870	-3.007000	3.769100	-11.333000	23.518420	0.001056	20.728893
526.165220	-3.000300	3.770000	-11.310000	23.490985	0.001057	20.723202
527.168532	-3.012600	3.768900	-11.353000	23.489418	0.001058	20.738229
528.171034	-2.982900	3.770900	-11.246000	23.492912	0.001060	20.729402
529.168838	-3.005600	3.767000	-11.321000	23.506605	0.001058	20.726532
530.147191	-2.989100	3.768000	-11.260000	23.520789	0.001060	20.721783
531.146541	-2.996900	3.767700	-11.291000	23.538209	0.001058	20.742566
532.144635	-2.969800	3.769500	-11.193000	23.568433	0.001057	20.733034
533.151004	-2.974900	3.768400	-11.209000	23.584378	0.001059	20.745699
534.163857	-2.992800	3.766800	-11.272000	23.602996	0.001058	20.737336
535.165885	-3.001500	3.765500	-11.302000	23.586687	0.001059	20.748962
536.160306	-3.004300	3.766300	-11.314000	23.619935	0.001060	20.760957
537.196970	-3.015000	3.765900	-11.353000	23.622644	0.001061	20.729532
538.173957	-3.000600	3.766200	-11.299000	23.646366	0.001060	20.729131
539.149922	-2.990200	3.765500	-11.258000	23.660891	0.001059	20.747013
540.151143	-3.022200	3.764700	-11.377000	23.683494	0.001059	20.744544
541.148292	-2.980400	3.766000	-11.223000	23.694992	0.001060	20.726199
542.165453	-2.983400	3.765100	-11.232000	23.692564	0.001060	20.746525
543.197962	-2.983800	3.764900	-11.233000	23.683971	0.001059	20.757350
544.170543	-3.024800	3.763900	-11.384000	23.667442	0.001060	20.760220
545.176961	-2.988700	3.764000	-11.248000	23.649610	0.001061	20.772689
546.189497	-3.009800	3.764300	-11.329000	23.657871	0.001060	20.764849
547.171901	-3.005900	3.763400	-11.311000	23.683827	0.001058	20.758629
548.151310	-2.995800	3.764000	-11.274000	23.683029	0.001059	20.745025
549.171289	-2.991100	3.764300	-11.258000	23.703610	0.001060	20.755229
550.171733	-3.024100	3.762600	-11.377000	23.711840	0.001061	20.745935
551.180999	-2.980900	3.763400	-11.217000	23.745515	0.001058	20.750301
552.178814	-2.998400	3.762300	-11.280000	23.720916	0.001061	20.749346
553.152584	-3.002200	3.762100	-11.293000	23.726056	0.001061	20.764930
554.177269	-2.990400	3.761900	-11.249000	23.750150	0.001059	20.763957
555.176260	-3.026300	3.760000	-11.378000	23.741711	0.001061	20.750280
556.157195	-3.017900	3.759600	-11.345000	23.767935	0.001062	20.750969
557.177209	-3.003500	3.759800	-11.291000	23.740261	0.001060	20.754042
558.154440	-2.994200	3.759300	-11.255000	23.715189	0.001061	20.776321
559.152903	-2.996200	3.759300	-11.263000	23.720157	0.001061	20.779879
560.177087	-3.000600	3.759100	-11.277000	23.738128	0.001060	20.768025
561.174500	-2.984000	3.759300	-11.217000	23.711441	0.001060	20.756915
562.173306	-2.995600	3.759100	-11.261000	23.725892	0.001060	20.764766
563.175582	-2.988100	3.758600	-11.230000	23.733858	0.001061	20.781288
564.174225	-3.017600	3.757100	-11.337000	23.755132	0.001060	20.753305
565.178782	-3.004300	3.758400	-11.290000	23.740864	0.001060	20.767449
566.157562	-2.991100	3.759100	-11.243000	23.740220	0.001060	20.771545
567.152490	-2.989300	3.758100	-11.233000	23.751433	0.001061	20.794168
568.157594	-3.012800	3.756500	-11.316000	23.752877	0.001060	20.793244
569.152687	-2.996100	3.755200	-11.250000	23.763200	0.001060	20.776568
570.151404	-2.984000	3.756800	-11.209000	23.753244	0.001062	20.760896
571.155519	-3.005400	3.756400	-11.289000	23.739050	0.001059	20.786968
572.164497	-3.028500	3.756100	-11.374000	23.743576	0.001060	20.789135
573.180550	-2.993100	3.755100	-11.238000	23.751535	0.001059	20.789528
574.174406	-2.986300	3.755700	-11.215000	23.708874	0.001059	20.766196
575.176608	-2.976400	3.755800	-11.177000	23.734664	0.001060	20.803433
576.173895	-2.987900	3.754900	-11.218000	23.746554	0.001061	20.773154
577.182579	-3.020300	3.754100	-11.337000	23.798819	0.001060	20.800427
578.161318	-2.985800	3.755200	-11.212000	23.786671	0.001060	20.799626
579.179296	-2.997700	3.754300	-11.253000	23.810684	0.001060	20.786245
580.178257	-3.014600	3.754300	-11.316000	23.826289	0.001061	20.794779
581.186324	-2.989600	3.753100	-11.220000	23.850676	0.001061	20.777032
582.182618	-2.984100	3.754600	-11.202000	23.847415	0.001062	20.791306
583.188665	-2.991200	3.752300	-11.223000	23.848434	0.001061	20.789009
584.161161	-2.997400	3.751700	-11.243000	23.845916	0.001062	20.784113
585.162889	-2.983500	3.752600	-11.194000	23.831060	0.001062	20.794347
586.161717	-2.989600	3.751100	-11.213000	23.859580	0.001062	20.787383
587.161224	-2.998400	3.751300	-11.246000	23.864750	0.001061	20.806792
588.161364	-2.985600	3.751200	-11.199000	23.870946	0.001061	20.803048
589.164785	-3.002400	3.750800	-11.260000	23.885052	0.001059	20.820036
590.186830	-2.991500	3.751400	-11.221000	23.848991	0.001062	20.779136
591.160522	-3.016900	3.749000	-11.309000	23.880250	0.001062	20.802419
592.161959	-2.981900	3.750300	-11.182000	23.900779	0.001061	20.810202
593.164269	-3.003600	3.749900	-11.261000	23.893010	0.001062	20.804309
594.183600	-3.016500	3.748400	-11.306000	23.870491	0.001060	20.810652
595.162864	-3.010100	3.749000	-11.283000	23.845275	0.001064	20.783470
596.165903	-2.991200	3.749100	-11.213000	23.843783	0.001061	20.813268
597.161978	-3.005500	3.747800	-11.262000	23.840098	0.001061	20.801039
598.162221	-2.988000	3.747700	-11.197000	23.867444	0.001062	20.794794
599.184047	-2.995600	3.747200	-11.225000	23.871307	0.001062	20.807677
600.177023	-2.994100	3.747100	-11.218000	23.851219	0.001061	20.799388
601.177574	-2.994800	3.747300	-11.221000	23.852988	0.001062	20.794049
602.161120	-2.986600	3.748600	-11.194000	23.850193	0.001060	20.829179
603.164999	-3.008900	3.745400	-11.268000	23.835184	0.001063	20.827879
604.162344	-3.000100	3.747300	-11.241000	23.835786	0.001060	20.805250
605.166642	-2.981700	3.747000	-11.171000	23.838469	0.001060	20.803673
606.184451	-3.002400	3.746000	-11.246000	23.833691	0.001061	20.806943
607.182502	-2.982500	3.746700	-11.174000	23.863427	0.001062	20.801197
608.175071	-2.998600	3.745400	-11.230000	23.894604	0.001061	20.805907
609.164777	-2.999600	3.744500	-11.231000	23.899259	0.001061	20.821006
610.164972	-3.003700	3.743800	-11.245000	23.896121	0.001063	20.816437
611.162305	-3.001000	3.744300	-11.236000	23.911270	0.001061	20.794170
612.162804	-3.000000	3.744100	-11.231000	23.895200	0.001062	20.799392
613.189522	-2.992500	3.742900	-11.200000	23.880811	0.001060	20.814835
614.182701	-2.988800	3.744600	-11.190000	23.885067	0.001062	20.801085
615.192583	-2.988300	3.743200	-11.185000	23.884237	0.001063	20.811633
616.171449	-3.008600	3.741200	-11.254000	23.952978	0.001062	20.821294
617.164877	-2.989100	3.743100	-11.187000	23.958449	0.001061	20.813505
618.166059	-3.002400	3.742200	-11.235000	23.950208	0.001061	20.824206
619.169391	-3.017000	3.740300	-11.284000	23.957227	0.001061	20.812753
620.164445	-3.016300	3.740700	-11.282000	23.973492	0.001061	20.841866
621.173670	-2.981000	3.741500	-11.152000	23.989225	0.001061	20.810228
622.166596	-2.991600	3.740000	-11.188000	23.994338	0.001061	20.830529
623.193972	-3.011700	3.739900	-11.262000	24.024076	0.001061	20.824316
624.189874	-2.989400	3.741500	-11.184000	24.020742	0.001060	20.835196
625.171039	-3.003300	3.739600	-11.230000	23.999760	0.001060	20.810362
626.190834	-2.992400	3.741300	-11.194000	23.979723	0.001063	20.838157
627.168449	-2.978600	3.739100	-11.137000	23.983334	0.001061	20.822338
628.177958	-3.008500	3.739300	-11.249000	23.950205	0.001060	20.842221
629.189197	-3.001800	3.738300	-11.221000	23.961252	0.001061	20.822953
630.201713	-3.004900	3.738100	-11.232000	23.947147	0.001061	20.832043
631.171562	-2.976100	3.738800	-11.126000	23.934441	0.001061	20.835896
632.191242	-3.002900	3.737500	-11.223000	23.964825	0.001059	20.830329
633.198222	-3.004200	3.737600	-11.227000	23.981545	0.001060	20.839510
634.197396	-2.987600	3.737800	-11.165000	23.996724	0.001059	20.853783
635.173030	-3.002200	3.736900	-11.218000	23.990431	0.001061	20.828506
636.191107	-3.000300	3.736700	-11.210000	23.981864	0.001058	20.827502
637.196869	-3.003900	3.736100	-11.222000	23.986862	0.001059	20.833462
638.169695	-2.998800	3.736700	-11.204000	23.994182	0.001060	20.832742
639.176230	-3.012700	3.735200	-11.252000	23.997190	0.001060	20.837656
640.203599	-3.000100	3.734900	-11.205000	24.001992	0.001059	20.859540
641.191406	-2.998300	3.733900	-11.195000	23.999474	0.001059	20.847058
642.196895	-3.009400	3.734800	-11.239000	23.994046	0.001060	20.858683
643.205970	-2.993100	3.735400	-11.179000	23.993727	0.001059	20.867372
644.174807	-3.003400	3.734600	-11.216000	24.018859	0.001059	20.849429
645.176606	-3.011600	3.733200	-11.242000	24.067175	0.001060	20.840986
646.183032	-2.989000	3.734200	-11.161000	24.042062	0.001059	20.830973
647.183897	-2.996000	3.733600	-11.185000	24.074862	0.001059	20.858652
648.177642	-3.003800	3.733400	-11.214000	24.081033	0.001059	20.853461
649.175838	-3.026900	3.731200	-11.293000	24.085246	0.001058	20.840617
650.200726	-3.005200	3.732800	-11.216000	24.081586	0.001058	20.864446
651.178664	-2.992600	3.732300	-11.169000	24.101099	0.001059	20.841344
652.199592	-3.004300	3.731500	-11.209000	24.089420	0.001057	20.856657
653.199588	-2.999200	3.731400	-11.190000	24.121789	0.001058	20.823689
654.182685	-2.990500	3.730800	-11.156000	24.106783	0.001056	20.822863
655.178154	-3.012800	3.730700	-11.239000	24.096953	0.001058	20.869901
656.180254	-2.985300	3.732100	-11.141000	24.063264	0.001057	20.838485
657.178791	-2.985200	3.731300	-11.138000	24.081401	0.001057	20.865209
658.180310	-2.999300	3.729500	-11.185000	24.076901	0.001054	20.852636
659.184704	-3.001900	3.729500	-11.194000	24.053857	0.001056	20.840905
660.179404	-2.982600	3.730500	-11.126000	24.064307	0.001056	20.840480
661.182253	-3.005100	3.728800	-11.204000	24.046390	0.001057	20.848116
662.182103	-2.998300	3.729000	-11.180000	24.014811	0.001055	20.838731
663.183279	-2.985800	3.729300	-11.133000	24.031310	0.001055	20.842475
664.184774	-3.003400	3.728100	-11.196000	24.037922	0.001056	20.844365
665.179380	-3.013000	3.727900	-11.231000	24.033877	0.001054	20.854532
666.181609	-3.011900	3.728400	-11.229000	24.057958	0.001054	20.840751
667.182349	-3.000500	3.727400	-11.183000	24.075875	0.001056	20.846865
668.186401	-2.994400	3.727000	-11.159000	24.121107	0.001055	20.848133
669.190103	-2.989400	3.727900	-11.144000	24.106580	0.001056	20.827875
670.187231	-3.008200	3.728000	-11.214000	24.099317	0.001055	20.836238
671.186508	-3.028100	3.726500	-11.284000	24.118816	0.001055	20.824500
672.184831	-3.009400	3.725700	-11.211000	24.116305	0.001056	20.844741
673.207664	-2.996200	3.726100	-11.163000	24.113045	0.001055	20.813022
674.202608	-3.006200	3.725900	-11.199000	24.107127	0.001053	20.833165
675.211032	-3.005800	3.725600	-11.197000	24.103345	0.001055	20.817992
676.210979	-2.997600	3.726500	-11.168000	24.098071	0.001053	20.809858
677.210108	-2.986300	3.725300	-11.124000	24.124766	0.001053	20.823355
678.212196	-3.012900	3.725000	-11.222000	24.136456	0.001054	20.832234
679.206905	-2.990100	3.725200	-11.138000	24.146464	0.001053	20.799125
680.206505	-3.036400	3.722000	-11.301000	24.167289	0.001053	20.825701
681.187481	-2.991400	3.725200	-11.143000	24.166687	0.001052	20.822253
682.185471	-3.007000	3.724400	-11.198000	24.181937	0.001052	20.812893
683.190562	-2.996500	3.724300	-11.158000	24.184325	0.001053	20.830461
684.189680	-2.982700	3.723100	-11.104000	24.200692	0.001054	20.822695
685.185251	-2.973900	3.723700	-11.073000	24.178677	0.001051	20.825744
686.192099	-2.994600	3.723600	-11.150000	24.167534	0.001054	20.829740
687.186173	-3.011500	3.721400	-11.205000	24.193780	0.001051	20.811021
688.191129	-3.010600	3.722700	-11.206000	24.219258	0.001052	20.807652
689.191028	-2.991600	3.721800	-11.133000	24.215801	0.001051	20.809401
690.189159	-3.008900	3.722100	-11.197000	24.219072	0.001051	20.812208
691.188452	-2.992200	3.720700	-11.132000	24.220595	0.001050	20.808046
692.199982	-3.013800	3.720600	-11.212000	24.243237	0.001050	20.821747
693.191924	-3.006400	3.720700	-11.185000	24.232886	0.001050	20.797615
694.216456	-2.998200	3.720000	-11.152000	24.218981	0.001052	20.811642
695.193717	-2.985100	3.721200	-11.107000	24.232014	0.001049	20.805275
696.197629	-3.003000	3.719000	-11.167000	24.174447	0.001049	20.780724
697.195311	-2.986800	3.718900	-11.105000	24.167030	0.001049	20.809321
698.195014	-3.010100	3.718800	-11.193000	24.166827	0.001050	20.809117
699.189489	-3.001200	3.718800	-11.160000	24.179321	0.001048	20.796993
700.198609	-2.988400	3.718600	-11.112000	24.200587	0.001051	20.816426
701.193982	-3.016700	3.717600	-11.213000	24.232235	0.001047	20.784159
702.194873	-2.997000	3.718100	-11.142000	24.230792	0.001049	20.814006
703.192273	-2.997800	3.717100	-11.141000	24.248111	0.001049	20.803877
704.193119	-2.983400	3.718000	-11.092000	24.242088	0.001049	20.830552
705.198368	-2.978700	3.717000	-11.071000	24.232511	0.001047	20.783488
706.198674	-3.008000	3.717700	-11.182000	24.219226	0.001047	20.800983
707.196445	-2.999200	3.715600	-11.142000	24.270107	0.001048	20.798440
708.191805	-3.005600	3.717200	-11.170000	24.252911	0.001048	20.799684
709.196541	-3.000600	3.715800	-11.148000	24.282292	0.001049	20.778894
710.202221	-3.011900	3.714400	-11.187000	24.277191	0.001049	20.796062
711.197702	-3.015200	3.714900	-11.199000	24.271371	0.001048	20.801605
712.194985	-3.020600	3.715400	-11.222000	24.277761	0.001047	20.796635
713.198173	-2.992800	3.714400	-11.114000	24.304011	0.001047	20.791672
714.194157	-2.990100	3.713400	-11.102000	24.296840	0.001047	20.792066
715.201617	-2.995300	3.714500	-11.125000	24.321402	0.001047	20.791100
716.194513	-3.011200	3.713600	-11.180000	24.346975	0.001047	20.774079
717.195340	-2.996800	3.714700	-11.131000	24.362646	0.001046	20.778894
718.195975	-2.997200	3.713500	-11.128000	24.354457	0.001047	20.794387
719.201885	-2.994200	3.712400	-11.115000	24.394062	0.001046	20.783857
720.198478	-2.981300	3.715400	-11.076000	24.410842	0.001047	20.790261
721.197604	-3.003000	3.712700	-11.147000	24.415324	0.001046	20.780057
722.199963	-3.001600	3.712100	-11.141000	24.413286	0.001046	20.778487
723.198928	-2.995900	3.713000	-11.123000	24.423806	0.001046	20.789516
724.199265	-3.018400	3.711000	-11.200000	24.428386	0.001046	20.810705
725.198467	-3.003700	3.712000	-11.149000	24.436088	0.001046	20.788561
726.195830	-2.977700	3.712900	-11.055000	24.439925	0.001044	20.800471
727.210672	-2.998500	3.712200	-11.130000	24.425739	0.001045	20.787662
728.204988	-2.995500	3.711900	-11.118000	24.407331	0.001046	20.798118
729.208370	-3.011100	3.710600	-11.172000	24.415065	0.001046	20.776479
730.202588	-2.997700	3.710200	-11.121000	24.371085	0.001045	20.774557
731.205822	-3.006800	3.710600	-11.154000	24.391899	0.001044	20.799706
732.206280	-2.976600	3.711700	-11.046000	24.399972	0.001043	20.784097
733.204980	-3.004300	3.709400	-11.143000	24.412720	0.001043	20.787876
734.204110	-2.999700	3.708400	-11.123000	24.423817	0.001043	20.763922
735.200665	-2.994100	3.708500	-11.103000	24.430858	0.001044	20.782840
736.198972	-3.008500	3.706400	-11.149000	24.431901	0.001043	20.759230
737.201889	-3.009800	3.707700	-11.158000	24.396902	0.001044	20.782439
738.206650	-3.008500	3.707000	-11.150000	24.382667	0.001042	20.789496
739.202975	-3.003200	3.707700	-11.134000	24.359661	0.001043	20.783486
740.210356	-2.989400	3.707900	-11.084000	24.368733	0.001041	20.771724
741.208957	-3.009000	3.707500	-11.155000	24.381151	0.001043	20.778017
742.203179	-3.014700	3.707100	-11.174000	24.407465	0.001041	20.774544
743.205247	-3.014900	3.706700	-11.175000	24.414008	0.001040	20.777789
744.201889	-3.025700	3.706300	-11.213000	24.382212	0.001042	20.774815
745.200438	-3.026700	3.705400	-11.214000	24.382783	0.001040	20.778706
746.204861	-3.017500	3.705600	-11.180000	24.352722	0.001042	20.779370
747.209242	-2.995000	3.706600	-11.100000	24.355902	0.001040	20.778767
748.210639	-3.002900	3.704700	-11.124000	24.333508	0.001038	20.748241
749.207258	-3.017600	3.705300	-11.181000	24.381866	0.001040	20.768304
750.207512	-2.985800	3.705400	-11.063000	24.368454	0.001039	20.783298
751.206239	-3.014400	3.703900	-11.163000	24.376538	0.001040	20.783347
752.207182	-2.995100	3.704700	-11.095000	24.372823	0.001039	20.764448
753.204235	-2.991700	3.703800	-11.080000	24.363101	0.001039	20.767496
754.207552	-3.008300	3.703300	-11.139000	24.334010	0.001037	20.787626
755.207437	-2.997600	3.703600	-11.100000	24.322739	0.001038	20.764466
756.209262	-3.005100	3.703900	-11.128000	24.295814	0.001039	20.768277
757.216915	-3.009600	3.701200	-11.138000	24.342830	0.001039	20.763282
758.209870	-3.012700	3.703600	-11.156000	24.337704	0.001036	20.774736
759.210259	-2.977000	3.702700	-11.022000	24.347655	0.001038	20.770493
760.214631	-3.021400	3.700200	-11.179000	24.372048	0.001035	20.771256
761.210872	-2.979200	3.701500	-11.027000	24.367254	0.001035	20.776879
762.206795	-2.978100	3.702000	-11.024000	24.384183	0.001037	20.775369
763.205932	-2.987200	3.702100	-11.058000	24.412817	0.001037	20.769008
764.206341	-3.006300	3.700600	-11.124000	24.411344	0.001034	20.789815
765.214814	-2.990600	3.701100	-11.068000	24.436001	0.001035	20.771404
766.209185	-3.004900	3.699600	-11.115000	24.431716	0.001034	20.768053
767.211072	-3.004000	3.700000	-11.114000	24.432391	0.001036	20.777740
768.208449	-2.993500	3.699900	-11.075000	24.443297	0.001036	20.749800
769.207349	-3.002200	3.698100	-11.102000	24.430095	0.001036	20.783971
770.212799	-2.995700	3.699300	-11.082000	24.397760	0.001035	20.755324
771.209211	-2.991100	3.701400	-11.071000	24.418402	0.001034	20.786465
772.215539	-3.008200	3.698500	-11.124000	24.404598	0.001034	20.760762
773.213650	-3.006200	3.699500	-11.121000	24.374496	0.001033	20.764703
774.209776	-2.986700	3.699300	-11.047000	24.308691	0.001033	20.766020
775.212791	-2.989800	3.698300	-11.056000	24.317353	0.001033	20.770916
776.215841	-2.998000	3.697100	-11.083000	24.331256	0.001033	20.750249
777.214879	-2.995900	3.697100	-11.075000	24.347775	0.001031	20.756863
778.213625	-2.983500	3.698900	-11.034000	24.376380	0.001031	20.758058
779.215021	-3.008700	3.696400	-11.119000	24.366650	0.001034	20.752564
780.210580	-2.996100	3.697400	-11.078000	24.404437	0.001031	20.771506
781.219185	-3.007000	3.695400	-11.110000	24.432770	0.001031	20.773379
782.212854	-2.992700	3.696600	-11.062000	24.437539	0.001032	20.759196
783.217222	-2.992200	3.696200	-11.059000	24.416474	0.001031	20.778366
784.215930	-3.009200	3.694600	-11.117000	24.409010	0.001031	20.760446
785.214782	-2.995300	3.693900	-11.063000	24.406395	0.001032	20.753081
786.216015	-2.979100	3.695900	-11.009000	24.420598	0.001031	20.743148
787.213920	-2.986200	3.695300	-11.034000	24.430719	0.001031	20.740974
788.214290	-3.000000	3.693900	-11.080000	24.452736	0.001029	20.766382
789.213764	-3.007600	3.693500	-11.107000	24.459346	0.001030	20.767798
790.214255	-3.001900	3.692300	-11.083000	24.457904	0.001029	20.751652
791.215355	-3.020100	3.692800	-11.150000	24.436587	0.001031	20.747809
792.213999	-3.027300	3.692800	-11.178000	24.422482	0.001029	20.756418
793.217646	-2.995500	3.693200	-11.061000	24.435593	0.001029	20.749183
794.217016	-3.008900	3.691400	-11.105000	24.455387	0.001027	20.753394
795.218822	-3.019700	3.691300	-11.146000	24.435033	0.001027	20.754311
796.214547	-2.988900	3.692500	-11.034000	24.476427	0.001028	20.750321
797.216224	-2.992600	3.691000	-11.045000	24.469829	0.001027	20.743226
798.218806	-2.996300	3.691400	-11.060000	24.463789	0.001026	20.728158
799.219393	-3.005100	3.690000	-11.087000	24.409830	0.001026	20.778814
800.219055	-3.003500	3.690900	-11.085000	24.375272	0.001026	20.756472
801.215880	-2.994300	3.691300	-11.052000	24.345396	0.001024	20.752106
802.217630	-2.993100	3.691300	-11.047000	24.314249	0.001026	20.738878
803.218010	-2.998600	3.691400	-11.068000	24.321609	0.001028	20.762858
804.216366	-3.020500	3.688800	-11.141000	24.335642	0.001026	20.748959
805.216869	-2.993600	3.690200	-11.046000	24.332407	0.001027	20.749981
806.220421	-2.987400	3.688600	-11.019000	24.335856	0.001025	20.743010
807.216870	-2.967600	3.690200	-10.950000	24.378125	0.001025	20.752697
808.226211	-3.004500	3.689600	-11.085000	24.400425	0.001025	20.741876
809.220990	-3.007000	3.688700	-11.091000	24.434835	0.001025	20.753638
810.223209	-2.999800	3.688700	-11.064000	24.458638	0.001027	20.731050
811.222357	-2.984400	3.688300	-11.005000	24.458386	0.001024	20.745497
812.223221	-2.993800	3.687300	-11.038000	24.499349	0.001023	20.749610
813.222398	-2.983800	3.688700	-11.005000	24.496740	0.001023	20.738458
814.228479	-3.017600	3.687300	-11.126000	24.483974	0.001021	20.749832
815.224031	-2.973700	3.687600	-10.965000	24.508083	0.001023	20.749364
816.221394	-3.013900	3.687100	-11.111000	24.527158	0.001024	20.747165
817.224439	-3.022600	3.684800	-11.137000	24.565037	0.001021	20.730169
818.227746	-2.979200	3.687500	-10.984000	24.557102	0.001022	20.727422
819.228792	-2.997100	3.686500	-11.049000	24.532178	0.001022	20.756470
820.223684	-3.003200	3.685000	-11.065000	24.543121	0.001024	20.747060
821.227569	-3.015100	3.685000	-11.108000	24.518368	0.001022	20.738821
822.229970	-2.995000	3.686400	-11.040000	24.560925	0.001021	20.732681
823.224059	-2.984500	3.686200	-10.998000	24.554211	0.001021	20.724995
824.228090	-2.992300	3.686400	-11.030000	24.553658	0.001022	20.754314
825.224018	-3.002500	3.684600	-11.063000	24.542789	0.001022	20.731079
826.226631	-2.996400	3.684900	-11.041000	24.543955	0.001019	20.717075
827.225166	-3.001100	3.683600	-11.054000	24.550522	0.001019	20.736468
828.225272	-2.991000	3.684100	-11.017000	24.568577	0.001018	20.745101
829.224368	-3.004500	3.683600	-11.067000	24.552762	0.001019	20.727335
830.228232	-3.008700	3.683100	-11.080000	24.544532	0.001021	20.733303
831.225518	-2.989200	3.683500	-11.010000	24.548471	0.001018	20.727297
832.225811	-2.994700	3.682600	-11.028000	24.501765	0.001018	20.726904
833.228348	-3.010500	3.681700	-11.083000	24.495278	0.001018	20.749320
834.232619	-2.998200	3.682700	-11.040000	24.512316	0.001016	20.731325
835.233506	-3.008200	3.681900	-11.075000	24.497586	0.001016	20.734090
836.228817	-3.001500	3.682500	-11.052000	24.484605	0.001016	20.723911
837.237321	-3.012200	3.680100	-11.085000	24.472986	0.001017	20.731695
838.247824	-3.012000	3.680800	-11.086000	24.472121	0.001018	20.718972
839.232063	-2.991500	3.680600	-11.009000	24.451921	0.001017	20.727630
840.235236	-3.014600	3.679000	-11.089000	24.479031	0.001015	20.722587
841.233243	-3.005000	3.680900	-11.060000	24.473563	0.001014	20.727058
842.233069	-2.992000	3.680400	-11.011000	24.476570	0.001014	20.711108
843.240078	-3.008900	3.680400	-11.073000	24.448889	0.001014	20.717476
844.236872	-2.996500	3.679000	-11.023000	24.463534	0.001015	20.729798
845.238820	-3.015800	3.678500	-11.091000	24.477540	0.001015	20.719194
846.238845	-2.994500	3.679200	-11.017000	24.476718	0.001016	20.711730
847.235484	-2.999800	3.678800	-11.035000	24.459139	0.001015	20.734399
848.234828	-3.004600	3.677800	-11.049000	24.452516	0.001013	20.717321
849.243022	-3.027200	3.676700	-11.129000	24.435502	0.001014	20.714476
850.243136	-2.981300	3.677500	-10.962000	24.441622	0.001014	20.713978
851.243269	-2.993900	3.677600	-11.009000	24.443512	0.001013	20.741480
852.244845	-3.006700	3.676000	-11.052000	24.488312	0.001012	20.717673
853.240993	-3.013400	3.676300	-11.077000	24.505780	0.001014	20.697739
854.243088	-2.993800	3.676800	-11.007000	24.534300	0.001012	20.704543
855.248591	-3.004500	3.676200	-11.044000	24.526371	0.001011	20.714132
856.249332	-3.022900	3.675500	-11.110000	24.552142	0.001014	20.709643
857.245566	-3.012300	3.675600	-11.072000	24.586265	0.001013	20.700731
858.240102	-2.993400	3.675000	-10.999000	24.595814	0.001011	20.716478
859.243202	-3.010300	3.674500	-11.060000	24.597704	0.001011	20.710788
860.239925	-3.003600	3.674900	-11.037000	24.602657	0.001010	20.713387
861.241690	-2.991400	3.676400	-10.997000	24.591187	0.001011	20.707093
862.247022	-2.998500	3.674300	-11.017000	24.595961	0.001011	20.708090
863.243585	-2.984000	3.674400	-10.964000	24.601632	0.001008	20.704297
864.244488	-3.010000	3.674700	-11.058000	24.558678	0.001010	20.708614
865.244452	-3.008800	3.672400	-11.048000	24.578452	0.001009	20.715179
866.244310	-3.004700	3.674300	-11.040000	24.542807	0.001008	20.716398
867.244370	-3.017700	3.673800	-11.085000	24.568234	0.001011	20.729583
868.243123	-2.999600	3.674500	-11.021000	24.564349	0.001008	20.706717
869.238804	-3.003500	3.673100	-11.032000	24.561587	0.001009	20.697036
870.243628	-3.012300	3.672200	-11.062000	24.525499	0.001008	20.722741
871.241141	-3.016700	3.672000	-11.076000	24.507044	0.001007	20.687152
872.245224	-3.004100	3.672600	-11.032000	24.482420	0.001007	20.710338
873.242205	-3.012000	3.671400	-11.058000	24.480701	0.001008	20.705294
874.243687	-3.014900	3.672100	-11.070000	24.450381	0.001006	20.687201
875.242996	-2.998000	3.671500	-11.005000	24.444734	0.001004	20.718997
876.242261	-3.013700	3.670800	-11.061000	24.453412	0.001006	20.703047
877.245062	-3.005500	3.671400	-11.034000	24.488165	0.001005	20.682909
878.245120	-2.986900	3.671300	-10.965000	24.487121	0.001006	20.695140
879.241426	-2.968000	3.671800	-10.896000	24.507835	0.001008	20.714027
880.241771	-2.999000	3.670700	-11.007000	24.530495	0.001006	20.679860
881.243477	-2.988400	3.669800	-10.966000	24.526585	0.001003	20.697750
882.241106	-2.992200	3.669600	-10.978000	24.544501	0.001003	20.710036
883.246245	-2.976400	3.670400	-10.923000	24.580889	0.001002	20.683481
884.243734	-3.012600	3.668500	-11.050000	24.571511	0.001003	20.699204
885.243580	-3.002700	3.668600	-11.015000	24.565767	0.001003	20.706243
886.241692	-2.994900	3.669100	-10.987000	24.555787	0.001004	20.694806
887.243541	-2.994000	3.669900	-10.987000	24.589413	0.001001	20.702467
888.246337	-3.012100	3.667200	-11.045000	24.582349	0.001001	20.686369
889.247192	-2.979400	3.668800	-10.929000	24.608836	0.001002	20.690662
890.245733	-2.985400	3.668600	-10.952000	24.619876	0.001001	20.701266
891.251412	-3.002900	3.667700	-11.011000	24.618066	0.001001	20.689966
892.247956	-2.998400	3.667300	-10.995000	24.607492	0.001000	20.695952
893.249366	-2.980900	3.666600	-10.929000	24.557033	0.001000	20.699376
894.252654	-2.995800	3.667300	-10.986000	24.530587	0.001000	20.686591
895.247695	-3.008500	3.667800	-11.033000	24.551251	0.001000	20.695945
896.250803	-3.000000	3.665600	-10.996000	24.595101	0.001002	20.681146
897.248887	-3.013200	3.665600	-11.045000	24.580900	0.000999	20.705306
898.248679	-3.001000	3.665200	-10.998000	24.590075	0.000998	20.678474
899.252605	-2.993500	3.665800	-10.971000	24.596144	0.000999	20.678874
900.253139	-3.009100	3.665100	-11.027000	24.593782	0.000998	20.688358
901.250277	-3.019400	3.663500	-11.060000	24.622012	0.000998	20.686338
902.257926	-2.987400	3.664700	-10.947000	24.600293	0.000998	20.693943
903.253839	-3.023300	3.664500	-11.076000	24.589829	0.000997	20.683444
904.255403	-2.990200	3.665300	-10.959000	24.575376	0.000997	20.670837
905.270078	-2.990700	3.664400	-10.957000	24.582489	0.000997	20.686510
906.254682	-3.004300	3.663600	-11.006000	24.589203	0.000996	20.685186
907.258718	-2.974300	3.664300	-10.897000	24.569552	0.000995	20.670683
908.254345	-2.991800	3.664300	-10.961000	24.570221	0.000998	20.679415
909.255715	-3.004500	3.663400	-11.005000	24.562869	0.000995	20.688161
910.258347	-3.003700	3.662600	-11.000000	24.584428	0.000995	20.686085
911.260279	-3.003100	3.662000	-10.996000	24.633955	0.000994	20.673190
912.258538	-3.011100	3.661800	-11.025000	24.593162	0.000994	20.686313
913.260406	-3.008300	3.663300	-11.020000	24.594310	0.000994	20.681301
914.259043	-3.010000	3.661000	-11.017000	24.609032	0.000994	20.686117
915.260016	-3.007200	3.659700	-11.004000	24.603282	0.000992	20.692675
916.261798	-3.015800	3.660500	-11.038000	24.633279	0.000993	20.692903
917.261078	-3.001300	3.660900	-10.987000	24.634102	0.000993	20.700367
918.256351	-3.001400	3.660200	-10.985000	24.610100	0.000993	20.677230
919.257057	-2.999400	3.660800	-10.979000	24.640164	0.000994	20.682267
920.261988	-2.993600	3.659600	-10.954000	24.680207	0.000992	20.684515
921.263597	-2.979600	3.661500	-10.908000	24.689160	0.000992	20.685913
922.262753	-3.009700	3.659100	-11.012000	24.707619	0.000991	20.691160
923.263152	-3.004600	3.658900	-10.992000	24.713958	0.000992	20.667647
924.265466	-2.990800	3.660400	-10.947000	24.735938	0.000992	20.686861
925.263545	-3.015200	3.657000	-11.026000	24.715400	0.000992	20.672888
926.271580	-3.003900	3.658600	-10.990000	24.735521	0.000991	20.688340
927.265459	-2.998700	3.658700	-10.971000	24.737883	0.000989	20.694979
928.263543	-2.999300	3.657300	-10.968000	24.742755	0.000989	20.689436
929.261934	-3.003500	3.656900	-10.983000	24.724212	0.000991	20.699278
930.263510	-3.015100	3.657800	-11.027000	24.746689	0.000988	20.689116
931.261212	-2.996000	3.656900	-10.955000	24.758526	0.000989	20.684873
932.265347	-3.013100	3.655400	-11.013000	24.778167	0.000988	20.695102
933.260665	-3.016000	3.655100	-11.023000	24.786500	0.000987	20.698723
934.262777	-2.986200	3.655800	-10.915000	24.745916	0.000986	20.702566
935.261281	-3.003600	3.655700	-10.979000	24.729661	0.000987	20.676295
936.267117	-3.016700	3.655600	-11.026000	24.719039	0.000987	20.696931
937.267017	-3.030800	3.654300	-11.074000	24.701759	0.000987	20.684331
938.265999	-3.011600	3.654300	-11.003000	24.688424	0.000989	20.681855
939.266853	-3.016000	3.653500	-11.018000	24.717628	0.000987	20.695990
940.265321	-2.991700	3.655300	-10.934000	24.728814	0.000986	20.694413
941.266846	-2.998700	3.653600	-10.955000	24.746248	0.000986	20.683931
942.266072	-2.992500	3.653000	-10.930000	24.757931	0.000985	20.695182
943.264915	-2.966700	3.654900	-10.840000	24.772455	0.000985	20.691266
944.269207	-2.992400	3.653600	-10.932000	24.796373	0.000985	20.726651
945.271196	-2.994900	3.652100	-10.936000	24.830838	0.000984	20.686320
946.264613	-2.984300	3.653500	-10.902000	24.826334	0.000983	20.699819
947.264391	-3.007600	3.652500	-10.984000	24.817633	0.000985	20.690138
948.267874	-2.987900	3.651400	-10.908000	24.810939	0.000983	20.696697
949.265039	-2.992200	3.652400	-10.928000	24.806858	0.000983	20.709672
950.267464	-3.011800	3.651100	-10.995000	24.767944	0.000983	20.679625
951.265849	-3.007900	3.649900	-10.978000	24.750413	0.000983	20.701389
952.265662	-2.989900	3.650500	-10.914000	24.746350	0.000982	20.695889
953.270510	-2.992800	3.651400	-10.926000	24.743442	0.000982	20.715257
954.273714	-3.003500	3.650100	-10.963000	24.752517	0.000981	20.699233
955.267404	-3.018300	3.650000	-11.015000	24.775595	0.000980	20.715282
956.267897	-3.011700	3.648500	-10.987000	24.776761	0.000982	20.698432
957.271344	-2.989500	3.650300	-10.912000	24.766520	0.000980	20.693371
958.273034	-2.991900	3.651000	-10.923000	24.778657	0.000979	20.696068
959.274363	-3.003000	3.649800	-10.960000	24.790358	0.000981	20.682205
960.273485	-2.988900	3.649100	-10.906000	24.814460	0.000978	20.687902
961.278364	-2.990700	3.648600	-10.911000	24.821921	0.000979	20.713410
962.273248	-3.005400	3.648000	-10.963000	24.813344	0.000980	20.669710
963.273426	-2.994400	3.647900	-10.923000	24.782602	0.000980	20.684379
964.273236	-3.003500	3.647000	-10.953000	24.754824	0.000978	20.696806
965.272491	-2.983900	3.648700	-10.886000	24.717847	0.000977	20.692890
966.274253	-2.998800	3.648500	-10.940000	24.684355	0.000976	20.725190
967.275725	-3.003000	3.647700	-10.953000	24.681421	0.000977	20.697589
968.272871	-2.994600	3.647700	-10.922000	24.684404	0.000977	20.696314
969.273019	-3.009200	3.646600	-10.973000	24.701064	0.000977	20.693592
970.271107	-2.987700	3.647200	-10.896000	24.694375	0.000978	20.694467
971.275617	-3.018300	3.646000	-11.002000	24.691670	0.000976	20.698390
972.274509	-2.992700	3.645100	-10.906000	24.688884	0.000976	20.695594
973.277679	-2.998700	3.646300	-10.932000	24.699849	0.000974	20.707547
974.277485	-3.008200	3.644800	-10.962000	24.709625	0.000974	20.719728
975.281005	-2.988100	3.646000	-10.892000	24.713797	0.000974	20.706845
976.275398	-2.989200	3.646100	-10.899000	24.739662	0.000973	20.723792
977.278915	-2.992500	3.644600	-10.906000	24.782640	0.000974	20.696272
978.276321	-3.013400	3.644100	-10.980000	24.777492	0.000972	20.724772
979.273506	-2.987600	3.645000	-10.889000	24.811184	0.000974	20.711168
980.276328	-3.004700	3.643000	-10.944000	24.836819	0.000972	20.701808
981.280473	-3.015600	3.642800	-10.984000	24.861337	0.000973	20.694645
982.277362	-2.995500	3.642500	-10.910000	24.877425	0.000971	20.705102
983.274865	-3.014700	3.641500	-10.976000	24.851962	0.000970	20.712264
984.276360	-2.985900	3.642600	-10.875000	24.852361	0.000971	20.715036
985.275365	-3.012600	3.642300	-10.972000	24.865516	0.000971	20.707375
986.278445	-2.988800	3.641800	-10.883000	24.867381	0.000969	20.721102
987.276726	-2.994200	3.641600	-10.903000	24.868988	0.000970	20.725085
988.277726	-2.988600	3.640700	-10.879000	24.850146	0.000969	20.722770
989.277998	-2.997100	3.640500	-10.910000	24.882100	0.000970	20.722598
990.281184	-2.979700	3.641300	-10.849000	24.885578	0.000970	20.717554
991.284398	-2.997800	3.640400	-10.913000	24.881271	0.000970	20.719869
992.281730	-3.002200	3.639600	-10.925000	24.888848	0.000966	20.712775
993.279062	-2.982200	3.640400	-10.856000	24.893229	0.000967	20.728552
994.279932	-2.994500	3.641000	-10.901000	24.878982	0.000966	20.717098
995.283025	-3.005600	3.639000	-10.936000	24.852802	0.000966	20.727807
996.285132	-2.980100	3.638800	-10.843000	24.828879	0.000968	20.720867
997.280874	-3.007500	3.638500	-10.942000	24.796647	0.000967	20.725030
998.280656	-2.980000	3.640000	-10.846000	24.797886	0.000968	20.729118
999.282506	-3.001000	3.638700	-10.919000	24.818398	0.000965	20.718883
1000.284895	-2.983300	3.638400	-10.854000	24.806863	0.000966	20.707780
1001.279015	-2.981400	3.638500	-10.847000	24.823319	0.000965	20.734728
1002.281665	-2.983900	3.638400	-10.855000	24.822951	0.000964	20.727246
1003.280802	-2.991000	3.637300	-10.878000	24.807532	0.000964	20.722202
1004.293038	-3.026600	3.635700	-11.003000	24.831400	0.000963	20.724819
1005.283008	-3.005800	3.636200	-10.928000	24.839376	0.000962	20.728557
1006.280147	-2.998900	3.637600	-10.907000	24.838333	0.000963	20.716604
1007.286611	-3.015500	3.635700	-10.961000	24.827092	0.000963	20.724764
1008.288052	-2.990800	3.637200	-10.877000	24.807004	0.000960	20.730208
1009.286264	-3.012900	3.634900	-10.950000	24.775195	0.000962	20.720096
1010.286585	-3.013200	3.634400	-10.951000	24.759431	0.000961	20.728459
1011.286575	-2.987400	3.635200	-10.857000	24.739562	0.000959	20.731279
1012.286277	-2.993500	3.634600	-10.879000	24.711261	0.000959	20.720896
1013.291858	-3.000100	3.633200	-10.899000	24.744189	0.000958	20.738768
1014.291703	-2.987900	3.633900	-10.857000	24.743237	0.000959	20.740183
1015.287219	-2.986100	3.635000	-10.854000	24.781263	0.000960	20.729505
1016.292083	-2.988600	3.632800	-10.856000	24.789228	0.000958	20.720903
1017.290011	-3.001900	3.632600	-10.904000	24.792357	0.000957	20.742536
1018.294849	-2.992100	3.632600	-10.868000	24.793296	0.000958	20.738736
1019.290471	-2.980500	3.633600	-10.829000	24.772685	0.000958	20.756460
1020.293592	-3.005900	3.632200	-10.917000	24.768734	0.000956	20.743485
1021.292192	-3.009600	3.632600	-10.932000	24.780017	0.000955	20.735842
1022.292208	-3.000000	3.633200	-10.899000	24.824331	0.000956	20.726260
1023.291546	-3.007900	3.631400	-10.921000	24.814354	0.000955	20.737584
1024.292990	-2.979100	3.630800	-10.815000	24.821441	0.000955	20.738059
1025.292618	-2.980600	3.631300	-10.823000	24.822760	0.000955	20.753134
1026.290042	-2.981400	3.631200	-10.825000	24.838025	0.000954	20.758971
1027.293309	-3.010400	3.630300	-10.928000	24.858316	0.000954	20.757524
1028.293469	-2.981200	3.631000	-10.823000	24.862967	0.000954	20.744648
1029.298884	-2.993500	3.630300	-10.866000	24.860206	0.000956	20.758473
1030.294119	-3.004200	3.629700	-10.904000	24.858788	0.000952	20.751360
1031.293323	-2.995700	3.629400	-10.871000	24.846456	0.000953	20.748466
1032.292746	-3.012000	3.628600	-10.927000	24.835460	0.000953	20.748336
1033.290746	-3.014000	3.628500	-10.935000	24.840308	0.000954	20.762684
1034.293787	-3.013900	3.629700	-10.938000	24.853438	0.000953	20.748361
1035.293993	-2.991000	3.629800	-10.855000	24.882459	0.000953	20.738132
1036.291270	-2.975300	3.629800	-10.798000	24.904289	0.000951	20.751508
1037.290738	-3.024100	3.627700	-10.969000	24.929474	0.000950	20.746914
1038.291446	-2.995000	3.628800	-10.867000	24.931584	0.000951	20.753774
1039.289803	-3.004500	3.627100	-10.896000	24.944566	0.000951	20.750683
1040.293139	-3.011400	3.628000	-10.925000	24.918682	0.000950	20.741297
1041.291725	-2.991400	3.628900	-10.854000	24.967039	0.000949	20.774187
1042.290774	-2.997700	3.627500	-10.872000	24.973155	0.000952	20.759938
1043.296517	-2.980100	3.627400	-10.808000	24.988076	0.000948	20.754051
1044.295636	-2.984200	3.626200	-10.820000	24.993720	0.000951	20.762087
1045.301898	-2.983200	3.626600	-10.818000	25.019602	0.000947	20.772420
1046.293689	-2.987100	3.626300	-10.831000	25.044361	0.000947	20.749383
1047.298578	-3.022200	3.623700	-10.950000	25.061538	0.000947	20.781799
1048.297585	-2.996800	3.624000	-10.860000	25.073623	0.000947	20.756945
1049.296212	-2.967100	3.625600	-10.756000	25.064998	0.000946	20.760615
1050.300822	-3.012900	3.623800	-10.917000	25.076512	0.000946	20.758423
1051.298369	-3.007600	3.622900	-10.895000	25.084910	0.000945	20.797200
1052.299201	-2.984900	3.623800	-10.816000	25.087793	0.000947	20.772593
1053.298152	-2.981900	3.624400	-10.807000	25.075358	0.000946	20.761058
1054.298442	-2.987000	3.623100	-10.822000	25.044883	0.000943	20.768873
1055.298145	-2.983800	3.622800	-10.808000	25.023381	0.000945	20.776214
1056.302813	-2.978300	3.622100	-10.786000	25.030589	0.000944	20.749309
1057.299673	-2.961300	3.623900	-10.729000	25.050275	0.000941	20.763854
1058.300178	-3.015600	3.621100	-10.919000	25.050226	0.000943	20.781823
1059.295982	-2.987300	3.621200	-10.817000	25.073297	0.000942	20.768947
1060.294901	-2.986300	3.622700	-10.817000	25.060470	0.000943	20.770770
1061.301830	-2.992700	3.621400	-10.836000	25.064722	0.000941	20.782150
1062.299121	-3.029400	3.619100	-10.962000	25.062433	0.000942	20.781275
1063.299436	-2.991900	3.621000	-10.832000	25.060722	0.000941	20.786670
1064.297890	-3.017500	3.618800	-10.919000	25.070708	0.000941	20.770616
1065.295259	-2.995100	3.620800	-10.843000	25.025835	0.000941	20.781047
1066.298271	-2.982100	3.620200	-10.795000	25.001320	0.000940	20.787735
1067.297431	-3.010500	3.619500	-10.896000	25.003958	0.000939	20.776632
1068.296061	-2.997800	3.617900	-10.844000	25.005750	0.000940	20.778430
1069.298398	-2.994600	3.618300	-10.834000	24.965891	0.000939	20.793424
1070.300610	-3.001700	3.618300	-10.860000	24.965125	0.000939	20.804509
1071.299716	-2.997100	3.617300	-10.841000	24.976536	0.000939	20.772340
1072.301630	-3.002300	3.617600	-10.861000	24.968953	0.000936	20.762358
1073.300562	-3.009700	3.616500	-10.884000	24.988597	0.000939	20.757894
1074.303803	-3.007900	3.617300	-10.880000	24.999087	0.000938	20.794977
1075.298881	-3.000700	3.618500	-10.856000	24.966290	0.000935	20.753521
1076.302555	-2.993700	3.616600	-10.825000	24.969481	0.000937	20.784225
1077.303387	-2.998900	3.615400	-10.840000	24.996008	0.000936	20.778609
1078.303133	-2.990300	3.616200	-10.812000	24.954315	0.000932	20.790814
1079.300787	-3.000600	3.616100	-10.849000	24.954707	0.000934	20.781251
1080.302938	-2.995400	3.616100	-10.830000	24.925915	0.000934	20.812095
1081.302773	-3.000400	3.615300	-10.846000	24.946106	0.000932	20.773566
1082.304347	-2.984600	3.617200	-10.794000	24.944517	0.000934	20.794730
1083.309527	-2.999600	3.616600	-10.848000	24.993125	0.000932	20.786146
1084.307190	-3.024300	3.612500	-10.923000	25.020578	0.000934	20.788099
1085.314903	-3.008300	3.614500	-10.873000	25.000382	0.000932	20.781577
1086.305394	-3.015700	3.614000	-10.898000	25.018461	0.000930	20.789767
1087.302423	-3.003000	3.613700	-10.851000	25.005554	0.000931	20.783449
1088.305173	-2.988600	3.613600	-10.799000	24.954794	0.000930	20.770432
1089.302216	-2.999000	3.612900	-10.835000	24.960064	0.000929	20.808912
1090.308725	-2.998100	3.611400	-10.826000	24.969316	0.000929	20.780740
1091.307156	-2.998600	3.612800	-10.832000	24.974739	0.000929	20.798986
1092.305041	-3.011600	3.611800	-10.876000	24.981703	0.000927	20.786061
1093.304743	-3.005200	3.612300	-10.855000	24.989359	0.000927	20.794694
1094.309335	-3.011700	3.611700	-10.875000	24.978218	0.000927	20.787779
1095.309118	-2.990800	3.611300	-10.798000	24.984261	0.000927	20.813759
1096.306854	-2.999900	3.610400	-10.830000	24.946948	0.000927	20.793851
1097.306755	-3.002900	3.610400	-10.840000	24.930463	0.000927	20.798642
1098.311334	-2.986000	3.609900	-10.778000	24.956396	0.000925	20.797644
1099.314749	-2.999600	3.608700	-10.822000	24.983476	0.000925	20.807756
1100.309992	-2.990400	3.608700	-10.790000	25.002739	0.000924	20.792952
1101.311452	-3.004400	3.609800	-10.844000	25.002095	0.000923	20.805108
1102.307654	-2.996400	3.609400	-10.814000	24.995776	0.000922	20.795920
1103.308603	-2.986900	3.609100	-10.779000	25.030339	0.000924	20.814492
1104.310711	-3.017300	3.608900	-10.888000	24.990384	0.000924	20.802361
1105.316130	-3.031600	3.607100	-10.934000	24.985366	0.000924	20.804911
1106.314850	-3.024300	3.607100	-10.909000	24.967132	0.000920	20.813636
1107.310168	-3.013400	3.607500	-10.869000	24.976856	0.000922	20.793999
1108.313080	-3.007600	3.607000	-10.847000	24.989856	0.000921	20.812737
1109.313193	-3.012800	3.606000	-10.862000	24.980163	0.000921	20.818655
1110.316516	-3.005000	3.606800	-10.837000	25.008579	0.000920	20.813987
1111.312686	-3.012000	3.606500	-10.862000	25.029468	0.000920	20.821204
1112.312427	-3.012500	3.605100	-10.859000	25.074790	0.000918	20.806481
1113.314734	-3.009300	3.605300	-10.849000	25.080746	0.000917	20.812934
1114.310813	-3.006600	3.605700	-10.839000	25.051834	0.000917	20.840810
1115.314077	-3.021500	3.605300	-10.892000	25.007561	0.000918	20.821974
1116.310371	-3.020400	3.604700	-10.886000	25.016382	0.000915	20.833673
1117.313243	-3.007600	3.604100	-10.838000	25.004482	0.000915	20.830262
1118.313026	-2.993700	3.605500	-10.793000	24.991199	0.000917	20.827836
1119.317132	-3.009800	3.604300	-10.847000	24.981402	0.000916	20.828907
1120.313846	-3.025200	3.603200	-10.899000	24.969844	0.000914	20.844806
1121.311028	-2.986900	3.604800	-10.765000	24.973420	0.000914	20.808568
1122.311491	-3.017700	3.603700	-10.873000	25.004125	0.000916	20.825637
1123.314592	-2.999700	3.602800	-10.806000	24.992862	0.000915	20.840409
1124.315051	-3.013400	3.602700	-10.855000	25.056901	0.000915	20.829301
1125.314095	-3.026700	3.601600	-10.899000	25.091235	0.000914	20.815403
1126.316155	-2.998800	3.602900	-10.804000	25.085021	0.000913	20.832398
1127.314050	-3.008300	3.601400	-10.833000	25.134763	0.000913	20.832072
1128.320922	-2.996100	3.602600	-10.793000	25.138339	0.000913	20.825704
1129.314790	-2.986700	3.600600	-10.753000	25.137597	0.000913	20.829701
1130.312833	-3.009900	3.600000	-10.834000	25.129033	0.000913	20.855716
1131.319904	-2.993300	3.599800	-10.774000	25.096222	0.000912	20.840322
1132.321496	-2.994300	3.600800	-10.781000	25.070967	0.000912	20.833463
1133.318095	-3.001600	3.599800	-10.804000	25.051251	0.000910	20.828844
1134.317356	-3.006300	3.599900	-10.821000	25.042122	0.000911	20.842914
1135.313224	-2.989800	3.599300	-10.760000	25.047987	0.000911	20.822723
1136.316503	-2.990900	3.599400	-10.763000	24.995155	0.000908	20.835125
1137.326075	-3.012600	3.598800	-10.840000	25.021908	0.000908	20.837323
1138.317359	-2.994400	3.598600	-10.775000	25.030289	0.000909	20.826295
1139.343626	-2.973300	3.600300	-10.703000	25.062329	0.000908	20.850395
1140.318315	-3.002800	3.597800	-10.803000	25.070187	0.000908	20.858758
1141.318151	-3.009600	3.596700	-10.824000	25.075033	0.000907	20.842286
1142.320150	-3.003100	3.597600	-10.803000	25.065187	0.000907	20.835248
1143.317949	-3.015500	3.595800	-10.842000	25.074162	0.000908	20.834300
1144.317628	-2.987600	3.598800	-10.749000	25.052385	0.000906	20.836147
1145.318902	-2.992900	3.597200	-10.764000	25.057728	0.000907	20.835820
1146.318351	-2.991300	3.597200	-10.759000	25.081811	0.000906	20.852408
1147.319697	-2.989400	3.596800	-10.751000	25.081989	0.000904	20.808492
1148.316218	-3.010600	3.594700	-10.822000	25.093227	0.000903	20.827360
1149.318555	-3.000800	3.596500	-10.791000	25.102269	0.000904	20.832168
1150.323656	-2.994000	3.596600	-10.767000	25.146612	0.000903	20.814095
1151.321353	-2.986400	3.594900	-10.734000	25.116071	0.000903	20.820420
1152.318594	-2.987500	3.594600	-10.738000	25.172889	0.000902	20.823880
1153.324217	-2.988300	3.593100	-10.735000	25.191886	0.000903	20.827778
1154.321756	-3.002600	3.594200	-10.791000	25.210568	0.000901	20.824723
1155.320732	-3.009100	3.593500	-10.812000	25.214371	0.000902	20.829963
1156.322639	-3.030700	3.591900	-10.884000	25.204054	0.000900	20.808226
1157.318795	-3.014600	3.592300	-10.827000	25.218492	0.000902	20.816558
1158.321740	-2.998500	3.592300	-10.771000	25.196050	0.000900	20.834803
1159.322620	-2.994700	3.591900	-10.756000	25.187377	0.000899	20.808553
1160.318331	-3.004400	3.591200	-10.789000	25.167859	0.000899	20.835899
1161.321028	-2.994800	3.592600	-10.757000	25.192387	0.000898	20.822592
1162.319731	-3.012100	3.591500	-10.817000	25.211954	0.000897	20.807149
1163.322880	-3.017100	3.590200	-10.831000	25.227441	0.000897	20.807998
1164.323038	-3.008300	3.591600	-10.804000	25.245412	0.000897	20.811816
1165.321527	-2.983100	3.590100	-10.708000	25.224135	0.000898	20.807998
1166.327227	-2.960800	3.591400	-10.631000	25.214382	0.000893	20.813854
1167.320698	-3.009100	3.588500	-10.797000	25.213690	0.000895	20.811262
1168.324262	-3.001900	3.588800	-10.772000	25.223877	0.000894	20.801575
1169.325956	-2.988000	3.588600	-10.722000	25.240057	0.000893	20.806914
1170.326945	-3.001700	3.589100	-10.773000	25.244038	0.000893	20.819445
1171.326611	-3.000000	3.588500	-10.765000	25.217223	0.000893	20.794894
1172.324714	-3.000400	3.586500	-10.759000	25.252815	0.000894	20.813084
1173.321833	-2.984700	3.588100	-10.707000	25.238874	0.000892	20.795295
1174.325564	-3.009200	3.586800	-10.792000	25.239788	0.000892	20.800005
1175.325103	-3.009600	3.587300	-10.795000	25.196485	0.000892	20.808213
1176.328006	-3.014700	3.587100	-10.813000	25.142354	0.000893	20.789433
1177.325838	-2.994200	3.586500	-10.737000	25.134472	0.000893	20.816607
1178.325137	-3.004800	3.585900	-10.775000	25.162412	0.000891	20.789180
1179.328574	-3.008200	3.586000	-10.787000	25.167852	0.000890	20.812660
1180.327788	-3.030900	3.584300	-10.864000	25.157063	0.000889	20.791871
1181.327817	-3.033700	3.583500	-10.871000	25.177194	0.000890	20.795485
1182.324195	-3.011200	3.584800	-10.794000	25.177722	0.000890	20.791748
1183.327418	-3.001100	3.584600	-10.757000	25.198276	0.000887	20.788675
1184.325785	-2.971300	3.584800	-10.651000	25.190376	0.000889	20.797339
1185.329410	-2.990100	3.584900	-10.718000	25.169539	0.000887	20.814353
1186.329117	-3.003900	3.583100	-10.762000	25.178562	0.000888	20.792591
1187.328018	-3.004200	3.584000	-10.765000	25.170900	0.000886	20.806711
1188.327816	-2.999700	3.583000	-10.747000	25.222736	0.000886	20.769610
1189.327563	-2.989500	3.583600	-10.711000	25.225490	0.000885	20.780909
1190.326863	-2.988800	3.582200	-10.706000	25.227183	0.000884	20.791144
1191.330394	-3.013300	3.582200	-10.792000	25.246239	0.000885	20.769972
1192.324596	-3.005900	3.580900	-10.763000	25.287197	0.000883	20.785964
1193.327278	-2.998700	3.582000	-10.741000	25.300150	0.000884	20.780004
1194.329012	-2.990900	3.582500	-10.715000	25.320641	0.000883	20.786827
1195.328024	-2.999200	3.581800	-10.741000	25.320481	0.000883	20.778132
1196.331991	-3.008300	3.579500	-10.767000	25.315042	0.000880	20.779782
1197.329423	-3.013400	3.580900	-10.789000	25.250441	0.000882	20.776087
1198.332187	-3.003500	3.579500	-10.750000	25.228513	0.000882	20.797221
1199.331601	-2.998000	3.581000	-10.734000	25.241149	0.000881	20.776241
1200.328054	-2.992100	3.580700	-10.712000	25.214026	0.000880	20.757546
1201.329994	-3.016900	3.578100	-10.793000	25.188491	0.000880	20.762730
1202.336473	-3.007500	3.580700	-10.768000	25.179941	0.000879	20.794924
1203.331782	-2.996100	3.579600	-10.723000	25.184118	0.000877	20.794376
1204.330687	-2.975700	3.579600	-10.650000	25.185136	0.000879	20.775958
1205.329641	-2.999600	3.578400	-10.733000	25.151302	0.000877	20.783716
1206.332213	-2.994300	3.577900	-10.713000	25.133127	0.000877	20.777799
1207.339499	-2.988200	3.577200	-10.688000	25.139218	0.000879	20.782965
1208.331758	-3.011600	3.575900	-10.769000	25.137678	0.000876	20.769565
1209.337053	-2.976600	3.578200	-10.650000	25.174095	0.000876	20.789055
1210.333435	-3.008300	3.576300	-10.758000	25.169593	0.000875	20.791173
1211.332730	-3.011000	3.576300	-10.766000	25.130195	0.000875	20.771062
1212.331776	-3.016500	3.575800	-10.785000	25.120301	0.000875	20.782466
1213.330978	-2.988900	3.576400	-10.688000	25.133869	0.000874	20.733023
1214.330051	-2.999100	3.574200	-10.718000	25.116970	0.000873	20.767743
1215.329997	-2.996400	3.574300	-10.709000	25.105879	0.000873	20.761825
1216.331057	-3.010900	3.573700	-10.758000	25.114951	0.000874	20.746750
1217.334477	-2.997200	3.574900	-10.713000	25.158055	0.000872	20.781013
1218.332762	-2.986700	3.574800	-10.675000	25.184553	0.000871	20.759724
1219.335166	-3.024300	3.571800	-10.800000	25.203690	0.000872	20.774196
1220.336508	-2.999700	3.572900	-10.717000	25.221588	0.000869	20.759921
1221.335202	-3.002500	3.572700	-10.725000	25.216049	0.000868	20.754835
1222.335391	-3.007300	3.572200	-10.741000	25.226758	0.000870	20.759897
1223.335386	-3.007400	3.571500	-10.739000	25.232321	0.000868	20.764059
1224.334282	-3.009500	3.571600	-10.748000	25.250249	0.000868	20.743178
1225.337410	-2.995200	3.571300	-10.695000	25.230708	0.000869	20.761966
1226.337676	-2.995500	3.572000	-10.699000	25.221710	0.000866	20.759096
1227.335103	-2.981800	3.571000	-10.647000	25.228371	0.000867	20.758197
1228.338517	-3.000600	3.570600	-10.712000	25.223851	0.000866	20.758400
1229.339887	-3.009300	3.571100	-10.745000	25.214399	0.000863	20.760765
1230.335773	-2.991500	3.570000	-10.678000	25.194146	0.000863	20.774571
1231.337550	-3.014700	3.569200	-10.759000	25.185050	0.000864	20.748843
1232.338352	-2.986100	3.570500	-10.661000	25.210854	0.000864	20.752938
1233.335982	-3.006500	3.568300	-10.727000	25.199268	0.000863	20.742728
1234.338827	-2.975800	3.571700	-10.627000	25.245478	0.000861	20.759724
1235.339897	-3.004300	3.568000	-10.718000	25.245110	0.000864	20.763623
1236.341535	-3.012700	3.567300	-10.746000	25.274660	0.000861	20.769109
1237.339625	-3.004900	3.567900	-10.720000	25.251397	0.000862	20.744804
1238.342666	-2.991500	3.568100	-10.673000	25.263823	0.000861	20.755383
1239.344153	-3.004600	3.567300	-10.717000	25.237075	0.000860	20.732795
1240.340634	-3.000700	3.568700	-10.707000	25.260468	0.000860	20.748221
1241.339764	-2.987600	3.567800	-10.658000	25.291294	0.000860	20.743609
1242.343484	-3.005300	3.566400	-10.717000	25.269864	0.000861	20.753862
1243.342549	-2.988500	3.567600	-10.660000	25.234370	0.000859	20.757108
1244.342197	-3.010500	3.565800	-10.734000	25.196563	0.000858	20.745703
1245.342372	-2.988800	3.565700	-10.656000	25.211277	0.000858	20.728706
1246.343709	-3.020500	3.564500	-10.765000	25.241951	0.000857	20.750968
1247.361274	-2.982100	3.565500	-10.632000	25.234941	0.000858	20.758154
1248.343781	-3.015900	3.564000	-10.747000	25.267055	0.000855	20.744403
1249.342053	-3.017700	3.563700	-10.754000	25.251519	0.000854	20.724063
1250.348566	-3.026300	3.562000	-10.778000	25.228997	0.000854	20.747445
1251.346162	-2.992300	3.564800	-10.666000	25.239706	0.000854	20.746343
1252.347800	-2.994900	3.563300	-10.671000	25.222379	0.000855	20.742697
1253.346364	-3.020400	3.561100	-10.754000	25.236890	0.000853	20.738774
1254.345060	-3.007000	3.562500	-10.712000	25.263515	0.000854	20.730418
1255.348684	-3.000100	3.562000	-10.685000	25.255781	0.000852	20.721703
1256.354996	-3.024000	3.561200	-10.768000	25.274990	0.000853	20.738146
1257.354358	-3.000300	3.561900	-10.686000	25.265097	0.000852	20.733903
1258.347692	-3.000800	3.562200	-10.689000	25.257093	0.000853	20.738195
1259.349093	-2.983900	3.561500	-10.625000	25.261540	0.000852	20.737918
1260.352245	-3.017600	3.560900	-10.744000	25.240729	0.000850	20.736938
1261.353951	-2.973400	3.562200	-10.590000	25.226536	0.000850	20.734543
1262.350450	-2.986300	3.560800	-10.632000	25.226953	0.000849	20.743970
1263.352906	-3.029400	3.559600	-10.782000	25.229744	0.000849	20.738237
1264.353033	-3.007500	3.561000	-10.709000	25.246236	0.000849	20.751951
1265.352819	-3.003500	3.559700	-10.690000	25.241440	0.000848	20.746187
1266.354196	-3.005900	3.559200	-10.697000	25.248377	0.000848	20.741772
1267.352365	-3.014800	3.559600	-10.731000	25.215808	0.000846	20.746057
1268.354235	-3.006900	3.559600	-10.703000	25.199971	0.000847	20.737744
1269.354385	-2.976500	3.559400	-10.593000	25.201762	0.000846	20.737645
1270.351341	-2.983000	3.557900	-10.613000	25.202025	0.000846	20.729848
1271.353577	-3.011100	3.556000	-10.707000	25.191953	0.000845	20.722582
1272.354346	-3.007800	3.557000	-10.698000	25.199559	0.000845	20.724053
1273.353430	-3.021800	3.555700	-10.744000	25.186433	0.000844	20.736006
1274.354538	-3.007800	3.557100	-10.698000	25.181434	0.000844	20.721504
1275.356558	-3.028800	3.554700	-10.765000	25.208078	0.000842	20.718855
1276.358394	-2.995600	3.555600	-10.650000	25.189211	0.000844	20.710345
1277.360981	-2.990700	3.555500	-10.633000	25.169123	0.000843	20.723369
1278.355895	-2.999500	3.555100	-10.663000	25.167307	0.000841	20.734823
1279.357002	-2.973900	3.556900	-10.576000	25.178838	0.000841	20.706569
1280.359174	-2.993800	3.554200	-10.640000	25.209083	0.000841	20.731719
1281.362210	-3.000100	3.553400	-10.659000	25.225067	0.000840	20.719791
1282.359985	-3.006000	3.554000	-10.682000	25.208881	0.000837	20.737206
1283.357930	-3.013800	3.553000	-10.707000	25.200177	0.000838	20.722777
1284.353871	-3.002500	3.554200	-10.669000	25.167441	0.000839	20.719310
1285.356656	-3.019600	3.552400	-10.726000	25.159069	0.000838	20.733665
1286.357756	-3.018400	3.552400	-10.721000	25.179512	0.000835	20.724790
1287.357703	-3.037200	3.550900	-10.783000	25.154885	0.000838	20.738474
1288.355647	-3.007800	3.551400	-10.680000	25.193761	0.000835	20.720603
1289.360909	-3.011000	3.551800	-10.694000	25.218939	0.000835	20.727864
1290.358629	-2.977500	3.553200	-10.578000	25.252888	0.000835	20.715005
1291.358730	-2.975600	3.552700	-10.571000	25.275140	0.000835	20.718854
1292.354946	-3.024500	3.549600	-10.734000	25.302150	0.000832	20.721317
1293.359241	-3.011200	3.548700	-10.684000	25.294128	0.000834	20.710891
1294.358532	-3.003400	3.550200	-10.662000	25.332097	0.000831	20.696856
1295.357056	-2.990400	3.549300	-10.612000	25.337169	0.000832	20.723762
1296.354323	-2.999200	3.549100	-10.643000	25.351434	0.000831	20.733344
1297.362754	-2.996300	3.550000	-10.635000	25.370022	0.000830	20.710755
1298.356564	-3.007500	3.548900	-10.672000	25.364852	0.000831	20.731170
1299.360915	-2.993700	3.548100	-10.620000	25.331170	0.000828	20.715368
1300.361855	-3.005600	3.547600	-10.662000	25.353218	0.000830	20.720436
1301.358264	-3.009300	3.547600	-10.675000	25.341332	0.000829	20.709449
1302.362240	-3.004300	3.548300	-10.657000	25.343994	0.000828	20.711648
1303.359286	-3.002800	3.548500	-10.654000	25.322198	0.000828	20.706832
1304.360795	-3.005400	3.547300	-10.660000	25.257401	0.000827	20.704363
1305.359487	-2.997000	3.548100	-10.633000	25.248201	0.000828	20.724051
1306.367781	-3.012400	3.545500	-10.679000	25.259738	0.000825	20.711451
1307.367352	-3.003000	3.544800	-10.645000	25.258444	0.000824	20.722480
1308.376811	-3.012800	3.545700	-10.682000	25.302284	0.000824	20.714813
1309.363283	-2.995900	3.545600	-10.622000	25.298831	0.000825	20.697120
1310.363982	-2.987800	3.545900	-10.594000	25.314636	0.000825	20.721526
1311.365111	-3.023600	3.544300	-10.715000	25.355082	0.000823	20.707134
1312.362065	-3.009800	3.543400	-10.663000	25.342559	0.000824	20.715423
1313.366489	-3.000800	3.544400	-10.635000	25.312557	0.000823	20.703790
1314.368110	-3.015900	3.544000	-10.687000	25.351654	0.000824	20.707011
1315.371504	-2.986500	3.544200	-10.584000	25.337291	0.000823	20.692588
1316.371316	-2.980900	3.544300	-10.565000	25.320739	0.000821	20.717696
1317.366722	-2.985400	3.543500	-10.576000	25.306449	0.000821	20.720418
1318.366625	-2.970100	3.543500	-10.523000	25.331428	0.000821	20.707091
1319.367656	-2.981700	3.541500	-10.558000	25.316887	0.000820	20.694861
1320.370152	-2.995000	3.542100	-10.607000	25.309884	0.000820	20.712012
1321.367641	-2.999100	3.543400	-10.626000	25.305909	0.000818	20.706599
1322.367001	-2.991700	3.541900	-10.595000	25.280310	0.000820	20.705552
1323.364028	-3.003300	3.542000	-10.636000	25.341554	0.000818	20.689282
1324.365352	-2.982800	3.539600	-10.556000	25.348135	0.000819	20.698735
1325.369471	-2.999800	3.538900	-10.614000	25.337028	0.000819	20.707024
1326.367772	-2.967400	3.540300	-10.505000	25.375652	0.000816	20.714987
1327.364648	-3.000700	3.540300	-10.623000	25.377866	0.000818	20.699665
1328.364515	-2.983500	3.540300	-10.562000	25.377045	0.000817	20.687933
1329.365836	-3.010600	3.538400	-10.651000	25.343915	0.000816	20.694972
1330.366384	-3.010100	3.537800	-10.648000	25.350600	0.000813	20.693624
1331.368524	-3.000200	3.537600	-10.613000	25.347123	0.000815	20.676380
1332.365771	-2.994500	3.538400	-10.594000	25.315459	0.000815	20.708601
1333.369599	-2.998800	3.538200	-10.609000	25.306168	0.000814	20.687890
1334.366194	-2.994900	3.536900	-10.592000	25.291969	0.000813	20.690230
1335.368701	-3.007500	3.538600	-10.641000	25.277924	0.000812	20.699837
1336.375374	-3.019100	3.536900	-10.677000	25.296440	0.000811	20.702781
1337.370691	-3.016200	3.537100	-10.668000	25.331767	0.000812	20.684670
1338.371623	-2.976500	3.537000	-10.527000	25.296415	0.000811	20.694221
1339.368699	-3.014100	3.535700	-10.656000	25.319801	0.000811	20.676922
1340.373748	-3.034400	3.534400	-10.723000	25.300746	0.000810	20.712795
1341.371902	-3.022100	3.534500	-10.679000	25.330074	0.000810	20.711895
1342.379474	-3.003100	3.535300	-10.616000	25.331564	0.000809	20.683518
1343.371697	-3.004000	3.534900	-10.618000	25.350306	0.000810	20.706131
1344.370780	-3.008600	3.534000	-10.631000	25.361339	0.000808	20.696346
1345.366829	-3.029800	3.532400	-10.702000	25.363087	0.000808	20.691937
1346.371161	-2.998700	3.534000	-10.596000	25.389328	0.000807	20.678456
1347.375815	-2.993600	3.534900	-10.581000	25.369152	0.000808	20.706563
1348.370813	-3.006700	3.532100	-10.619000	25.339126	0.000806	20.666453
1349.376304	-2.975700	3.532800	-10.512000	25.342260	0.000805	20.691887
1350.373710	-3.001900	3.531800	-10.601000	25.342365	0.000805	20.699105
1351.372099	-3.001200	3.532300	-10.601000	25.344922	0.000805	20.694086
1352.372674	-2.995100	3.532100	-10.578000	25.326057	0.000803	20.691740
1353.373851	-2.996400	3.533200	-10.586000	25.335876	0.000804	20.693064
1354.378120	-3.010100	3.530500	-10.626000	25.300090	0.000803	20.687478
1355.372161	-3.015000	3.531100	-10.644000	25.275785	0.000802	20.694844
1356.373477	-3.005200	3.530300	-10.608000	25.266781	0.000803	20.673474
1357.371791	-2.989900	3.531100	-10.556000	25.204251	0.000800	20.663799
1358.376653	-2.992400	3.529100	-10.559000	25.216408	0.000799	20.683593
1359.372801	-2.989700	3.530800	-10.554000	25.184194	0.000799	20.690607
1360.376307	-3.014200	3.528000	-10.634000	25.189886	0.000800	20.684942
1361.379989	-2.987500	3.529200	-10.543000	25.195357	0.000800	20.681900
1362.372430	-2.995300	3.529000	-10.569000	25.204754	0.000800	20.689912
1363.376230	-2.993500	3.527400	-10.558000	25.248333	0.000800	20.684825
1364.379554	-3.010300	3.526800	-10.616000	25.270953	0.000799	20.687147
1365.385364	-3.009600	3.526900	-10.613000	25.300778	0.000799	20.684850
1366.381570	-3.001700	3.525900	-10.582000	25.310524	0.000797	20.698903
1367.380375	-2.991800	3.527100	-10.551000	25.275307	0.000798	20.687726
1368.382587	-3.012400	3.526000	-10.621000	25.271505	0.000796	20.686753
1369.386481	-3.027400	3.525500	-10.672000	25.223487	0.000796	20.688330
1370.380672	-2.996800	3.526500	-10.566000	25.273873	0.000796	20.691976
1371.383007	-3.019000	3.523800	-10.636000	25.276675	0.000796	20.694316
1372.379835	-2.992800	3.525400	-10.550000	25.300791	0.000794	20.676327
1373.381276	-2.991600	3.525200	-10.545000	25.320006	0.000795	20.690880
1374.380972	-3.001900	3.524100	-10.577000	25.305324	0.000794	20.673766
1375.382741	-3.022300	3.522800	-10.645000	25.306741	0.000794	20.682776
1376.381247	-3.043000	3.522100	-10.717000	25.291733	0.000795	20.654428
1377.382126	-3.007700	3.523700	-10.598000	25.326053	0.000793	20.688417
1378.382642	-2.995700	3.523000	-10.553000	25.345366	0.000793	20.667977
1379.386422	-3.012400	3.523800	-10.614000	25.370222	0.000792	20.664485
1380.384063	-2.985800	3.523900	-10.521000	25.346758	0.000790	20.693085
1381.384318	-3.002900	3.524400	-10.582000	25.386603	0.000790	20.675718
1382.385220	-3.009700	3.521700	-10.598000	25.394924	0.000791	20.683127
1383.381796	-2.995900	3.521400	-10.548000	25.420479	0.000790	20.688873
1384.385769	-2.990400	3.521600	-10.530000	25.390129	0.000788	20.660291
1385.386785	-3.009600	3.520900	-10.596000	25.377183	0.000788	20.667681
1386.382171	-2.994200	3.521700	-10.543000	25.428027	0.000787	20.686495
1387.381546	-2.981600	3.521200	-10.497000	25.438740	0.000788	20.699625
1388.382699	-2.976200	3.521600	-10.480000	25.434344	0.000787	20.688571
1389.382193	-2.997400	3.519100	-10.546000	25.435184	0.000785	20.686095
1390.386489	-3.004600	3.518400	-10.570000	25.447768	0.000784	20.664116
1391.383484	-3.011200	3.519100	-10.595000	25.436257	0.000787	20.686225
1392.384082	-2.986600	3.519300	-10.510000	25.439188	0.000786	20.692962
1393.386742	-3.007500	3.517900	-10.579000	25.431185	0.000784	20.693461
1394.386827	-2.995100	3.518500	-10.536000	25.464815	0.000782	20.687875
1395.389442	-2.979400	3.518800	-10.483000	25.484272	0.000784	20.697932
1396.393963	-3.005300	3.516600	-10.568000	25.484370	0.000781	20.684278
1397.388223	-2.989800	3.516200	-10.512000	25.512706	0.000783	20.701356
1398.389275	-2.985300	3.517500	-10.500000	25.463024	0.000781	20.688448
1399.386353	-3.000200	3.516900	-10.550000	25.452514	0.000782	20.680263
1400.391261	-3.001300	3.514800	-10.547000	25.409796	0.000780	20.686206
1401.391856	-2.985800	3.515700	-10.496000	25.387578	0.000780	20.714159
1402.393265	-3.000700	3.515600	-10.548000	25.393962	0.000781	20.677418
1403.390941	-3.027200	3.514500	-10.637000	25.388228	0.000779	20.681619
1404.388800	-2.982000	3.515300	-10.481000	25.365611	0.000780	20.691152
1405.392246	-3.009300	3.514200	-10.573000	25.381495	0.000778	20.686238
1406.385806	-2.988000	3.514200	-10.499000	25.383978	0.000776	20.698690
1407.391860	-3.012600	3.512700	-10.581000	25.370585	0.000776	20.691405
1408.391330	-2.969600	3.514200	-10.435000	25.340461	0.000776	20.692451
1409.389744	-2.996600	3.513300	-10.527000	25.342307	0.000776	20.691460
1410.388322	-2.961100	3.513900	-10.404000	25.308306	0.000776	20.692409
1411.390620	-2.993600	3.513300	-10.517000	25.275346	0.000779	20.715268
1412.390307	-3.014400	3.511900	-10.585000	25.269655	0.000773	20.698173
1413.392160	-2.987900	3.512700	-10.495000	25.250194	0.000775	20.684323
1414.393733	-2.977200	3.511900	-10.454000	25.241497	0.000774	20.695981
1415.393827	-2.998400	3.509900	-10.523000	25.252880	0.000776	20.687020
1416.392428	-2.991800	3.510100	-10.500000	25.268490	0.000774	20.687045
1417.393908	-3.019700	3.509200	-10.595000	25.284099	0.000771	20.706986
1418.396263	-2.994600	3.509400	-10.509000	25.330655	0.000773	20.693511
1419.391078	-2.994500	3.510000	-10.510000	25.363305	0.000774	20.686940
1420.394719	-3.010000	3.508600	-10.560000	25.383194	0.000772	20.692212
1421.392861	-2.992700	3.508200	-10.497000	25.397888	0.000771	20.718822
1422.395351	-3.013000	3.508000	-10.569000	25.427637	0.000769	20.691319
1423.399296	-3.008600	3.508500	-10.554000	25.409417	0.000767	20.688197
1424.397639	-3.016500	3.507500	-10.579000	25.418340	0.000770	20.709012
1425.397653	-2.985800	3.508100	-10.473000	25.442348	0.000770	20.710361
1426.394508	-3.008600	3.507000	-10.551000	25.454079	0.000769	20.708390
1427.401502	-3.013000	3.505800	-10.562000	25.471795	0.000771	20.705317
1428.400750	-2.978900	3.506200	-10.442000	25.474070	0.000769	20.695274
1429.401363	-3.013900	3.506100	-10.566000	25.510151	0.000768	20.707799
1430.399450	-2.989400	3.505300	-10.478000	25.513253	0.000768	20.692896
1431.396556	-2.987200	3.505800	-10.470000	25.519993	0.000767	20.719106
1432.397666	-3.005300	3.505900	-10.534000	25.514781	0.000765	20.694430
1433.402118	-2.999600	3.504000	-10.509000	25.486175	0.000765	20.705059
1434.399757	-3.005900	3.504400	-10.532000	25.422480	0.000767	20.697047
1435.395413	-3.020100	3.502400	-10.576000	25.423081	0.000765	20.701445
1436.399423	-2.999500	3.503800	-10.509000	25.387292	0.000765	20.726675
1437.398925	-3.004200	3.503600	-10.524000	25.359560	0.000765	20.711631
1438.400541	-3.009000	3.502300	-10.538000	25.355083	0.000763	20.714722
1439.401730	-3.012000	3.502200	-10.547000	25.339506	0.000763	20.714728
1440.402525	-2.978100	3.503300	-10.431000	25.329516	0.000765	20.703748
1441.420458	-3.012300	3.501400	-10.546000	25.375291	0.000762	20.715098
1442.404210	-2.999900	3.501600	-10.503000	25.385459	0.000764	20.696383
1443.403295	-2.997300	3.501200	-10.493000	25.428797	0.000760	20.707658
1444.403564	-2.994600	3.501500	-10.484000	25.426767	0.000762	20.707043
1445.403802	-2.997100	3.501200	-10.492000	25.438051	0.000761	20.699407
1446.404227	-2.981700	3.501300	-10.439000	25.448341	0.000760	20.716379
1447.403230	-2.984000	3.500600	-10.445000	25.408425	0.000760	20.731774
1448.402957	-3.003200	3.498200	-10.504000	25.376493	0.000758	20.719150
1449.403513	-2.992200	3.499800	-10.471000	25.342990	0.000757	20.703053
1450.410233	-3.019600	3.497100	-10.559000	25.331086	0.000756	20.728086
1451.406388	-3.017000	3.498200	-10.553000	25.352980	0.000757	20.709291
1452.407111	-3.027700	3.497100	-10.586000	25.359647	0.000756	20.716459
1453.407247	-3.004900	3.496300	-10.505000	25.344382	0.000756	20.704925
1454.406764	-3.002200	3.497400	-10.498000	25.358801	0.000754	20.715135
1455.412924	-2.964300	3.497800	-10.368000	25.369815	0.000755	20.721928
1456.407508	-3.003900	3.496400	-10.501000	25.387532	0.000754	20.716958
1457.412138	-3.002100	3.495500	-10.492000	25.362253	0.000754	20.723344
1458.407755	-2.988400	3.496000	-10.446000	25.354502	0.000755	20.735950
1459.404670	-2.978400	3.496100	-10.412000	25.361959	0.000754	20.730636
1460.408830	-3.024300	3.494600	-10.568000	25.368325	0.000755	20.738451
1461.411497	-2.999000	3.495500	-10.482000	25.378161	0.000752	20.728887
1462.405317	-2.992500	3.494500	-10.456000	25.369116	0.000752	20.723597
1463.409021	-3.007200	3.494800	-10.509000	25.378186	0.000751	20.718005
1464.411307	-3.010800	3.493200	-10.515000	25.351227	0.000749	20.728394
1465.411150	-3.037000	3.493200	-10.608000	25.337931	0.000750	20.730692
1466.411266	-2.992000	3.492700	-10.448000	25.313277	0.000751	20.719687
1467.406760	-2.978200	3.494300	-10.405000	25.310247	0.000748	20.735138
1468.406300	-3.005700	3.491900	-10.494000	25.333387	0.000749	20.723283
1469.408399	-2.965000	3.493400	-10.356000	25.359335	0.000750	20.734639
1470.413779	-2.998500	3.491200	-10.468000	25.391016	0.000748	20.716663
1471.415151	-2.993700	3.492300	-10.452000	25.425241	0.000748	20.743445
1472.415735	-2.979200	3.491300	-10.399000	25.449722	0.000748	20.738630
1473.416475	-3.002300	3.490100	-10.477000	25.437923	0.000749	20.736265
1474.416151	-3.000300	3.489600	-10.469000	25.457731	0.000747	20.705893
1475.415964	-3.001200	3.488900	-10.470000	25.431803	0.000746	20.740077
1476.419331	-3.024700	3.488900	-10.552000	25.453873	0.000747	20.737109
1477.419127	-2.966800	3.489400	-10.351000	25.446539	0.000746	20.741598
1478.417189	-3.005000	3.487600	-10.479000	25.410376	0.000746	20.741320
1479.418558	-2.993400	3.489600	-10.445000	25.413786	0.000745	20.725303
1480.415308	-2.983800	3.488500	-10.408000	25.447833	0.000747	20.750484
1481.424398	-2.984300	3.488100	-10.408000	25.481738	0.000743	20.746124
1482.425653	-2.991200	3.487600	-10.431000	25.462697	0.000744	20.740754
1483.418082	-2.993900	3.488000	-10.442000	25.472018	0.000745	20.744425
1484.418427	-2.974500	3.487500	-10.372000	25.446962	0.000742	20.738703
1485.418386	-2.989800	3.486900	-10.425000	25.463764	0.000741	20.747516
1486.416633	-2.984300	3.486800	-10.404000	25.471246	0.000742	20.755029
1487.419219	-3.015000	3.486000	-10.509000	25.446465	0.000743	20.749111
1488.420004	-2.993600	3.486000	-10.434000	25.497736	0.000742	20.744646
1489.419456	-2.988500	3.485300	-10.413000	25.511030	0.000740	20.745668
1490.420890	-2.991200	3.484200	-10.420000	25.518186	0.000739	20.730094
1491.420451	-2.994400	3.485100	-10.434000	25.522190	0.000739	20.741228
1492.420369	-2.987900	3.484600	-10.411000	25.501618	0.000740	20.755657
1493.424143	-2.970300	3.484400	-10.349000	25.508743	0.000738	20.763761
1494.421030	-2.995000	3.484000	-10.433000	25.532252	0.000738	20.745644
1495.421315	-3.005600	3.483700	-10.469000	25.541107	0.000737	20.762123
1496.419514	-3.003500	3.482400	-10.458000	25.572881	0.000737	20.739978
1497.424087	-3.017700	3.480300	-10.501000	25.574549	0.000737	20.755404
1498.422310	-2.990600	3.483200	-10.416000	25.573776	0.000736	20.737558
1499.422329	-2.982900	3.481000	-10.382000	25.580018	0.000736	20.759001
1500.426368	-2.990300	3.481000	-10.408000	25.595395	0.000736	20.762591
1501.424011	-2.985500	3.481800	-10.393000	25.583102	0.000735	20.782488
1502.422917	-2.996200	3.480000	-10.425000	25.591968	0.000735	20.765787
1503.422071	-2.992500	3.479400	-10.411000	25.609884	0.000735	20.758176
1504.421668	-3.021300	3.478800	-10.509000	25.620117	0.000735	20.756599
1505.422063	-3.011200	3.478300	-10.474000	25.604807	0.000734	20.766827
1506.420433	-3.021300	3.476500	-10.503000	25.646929	0.000733	20.777838
1507.419660	-3.019700	3.477800	-10.501000	25.647897	0.000732	20.765060
1508.420926	-2.996900	3.478600	-10.425000	25.648597	0.000732	20.763866
1509.424392	-3.001900	3.478100	-10.439000	25.659822	0.000731	20.775141
1510.424522	-2.998800	3.477300	-10.427000	25.682464	0.000730	20.757578
1511.422378	-3.004800	3.477200	-10.447000	25.677688	0.000731	20.771273
1512.424306	-3.002800	3.477300	-10.440000	25.646457	0.000731	20.762190
1513.426892	-3.019600	3.475200	-10.492000	25.649590	0.000728	20.751112
1514.424943	-2.994300	3.476400	-10.408000	25.637585	0.000728	20.787420
1515.425273	-3.019100	3.474200	-10.488000	25.660662	0.000728	20.763181
1516.428439	-2.996400	3.475800	-10.413000	25.641288	0.000730	20.767905
1517.422250	-2.980400	3.476500	-10.361000	25.617162	0.000727	20.763588
1518.421768	-2.990700	3.474700	-10.391000	25.640215	0.000729	20.767301
1519.425826	-3.015800	3.473700	-10.475000	25.630846	0.000729	20.769746
1520.428308	-2.990400	3.473300	-10.386000	25.627314	0.000726	20.779949
1521.426497	-2.982600	3.474200	-10.361000	25.620202	0.000728	20.777547
1522.426242	-3.009000	3.472600	-10.447000	25.588049	0.000726	20.760428
1523.421351	-2.994600	3.472300	-10.396000	25.589514	0.000725	20.765219
1524.429656	-3.007000	3.471000	-10.436000	25.596394	0.000725	20.787776
1525.433444	-3.016100	3.472200	-10.472000	25.584468	0.000724	20.793342
1526.427548	-3.002200	3.470900	-10.419000	25.546869	0.000724	20.785928
1527.431742	-2.996800	3.470400	-10.399000	25.548653	0.000725	20.787246
1528.423980	-2.989000	3.471200	-10.373000	25.555484	0.000723	20.781777
1529.428346	-3.020700	3.468900	-10.477000	25.506901	0.000724	20.780404
1530.431999	-3.008300	3.471500	-10.442000	25.485973	0.000723	20.793052
1531.430682	-2.964300	3.470900	-10.288000	25.499592	0.000721	20.789659
1532.428281	-3.014900	3.467700	-10.453000	25.469545	0.000722	20.796944
1533.434465	-2.984900	3.471000	-10.359000	25.452399	0.000722	20.797744
1534.431355	-2.988900	3.468700	-10.366000	25.474106	0.000720	20.790145
1535.434337	-3.005600	3.468400	-10.423000	25.502363	0.000720	20.787700
1536.431756	-3.009700	3.467000	-10.433000	25.490559	0.000719	20.798606
1537.431855	-3.001500	3.468500	-10.409000	25.505343	0.000720	20.784529
1538.433029	-3.022000	3.466500	-10.476000	25.497855	0.000718	20.815890
1539.431174	-3.014400	3.466300	-10.448000	25.530514	0.000719	20.814074
1540.432010	-2.975300	3.467000	-10.313000	25.573748	0.000717	20.808655
1541.432961	-3.006400	3.466300	-10.420000	25.578518	0.000719	20.811075
1542.433996	-2.975100	3.467900	-10.316000	25.590566	0.000717	20.794726
1543.430076	-3.001800	3.465500	-10.402000	25.567138	0.000717	20.791111
1544.433372	-3.007600	3.464800	-10.419000	25.572828	0.000715	20.802041
1545.436471	-3.011200	3.463600	-10.429000	25.571387	0.000713	20.799646
1546.450695	-2.985800	3.465300	-10.345000	25.577126	0.000715	20.795452
1547.440301	-3.012200	3.463500	-10.431000	25.606625	0.000714	20.798999
1548.436603	-2.994600	3.461700	-10.365000	25.640408	0.000713	20.811592
1549.436635	-3.024400	3.461300	-10.467000	25.609574	0.000712	20.805280
1550.432267	-2.985200	3.462800	-10.336000	25.604650	0.000713	20.814085
1551.435820	-2.976500	3.463500	-10.308000	25.600352	0.000711	20.789380
1552.439524	-3.000900	3.462100	-10.388000	25.580333	0.000713	20.785397
1553.435104	-2.976100	3.462800	-10.304000	25.565789	0.000712	20.807300
1554.441487	-2.993600	3.461700	-10.361000	25.545763	0.000711	20.806629
1555.435786	-3.015400	3.459600	-10.432000	25.530354	0.000711	20.801585
1556.435030	-3.016700	3.459700	-10.434000	25.554685	0.000711	20.825071
1557.438041	-3.021200	3.460200	-10.453000	25.578959	0.000711	20.811044
1558.437225	-2.993400	3.458300	-10.351000	25.630745	0.000709	20.819431
1559.433941	-3.005900	3.458500	-10.395000	25.605024	0.000709	20.814935
1560.432133	-3.015700	3.457500	-10.426000	25.613627	0.000708	20.805083
1561.436536	-3.022900	3.458200	-10.452000	25.591259	0.000708	20.809172
1562.442445	-3.029700	3.457700	-10.475000	25.586709	0.000708	20.820723
1563.436029	-2.978400	3.459100	-10.301000	25.587678	0.000707	20.824541
1564.432341	-3.002900	3.458100	-10.383000	25.562312	0.000707	20.795274
1565.434775	-2.988300	3.458700	-10.334000	25.592921	0.000707	20.815107
1566.433170	-2.979200	3.457400	-10.299000	25.593270	0.000705	20.828735
1567.435118	-2.998000	3.456200	-10.361000	25.594760	0.000705	20.823593
1568.438657	-2.972900	3.458600	-10.279000	25.609469	0.000704	20.826037
1569.437105	-3.015100	3.455800	-10.419000	25.572497	0.000704	20.829209
1570.440977	-2.995500	3.456900	-10.355000	25.597397	0.000705	20.827189
1571.438977	-2.982200	3.454700	-10.301000	25.594484	0.000704	20.833273
1572.439641	-2.991500	3.454200	-10.333000	25.599831	0.000703	20.827263
1573.445520	-2.984000	3.455100	-10.309000	25.628574	0.000705	20.833845
1574.442518	-3.001200	3.454400	-10.366000	25.627140	0.000704	20.793050
1575.438828	-3.002900	3.454200	-10.371000	25.638452	0.000702	20.830490
1576.441615	-2.991300	3.453000	-10.328000	25.654252	0.000704	20.844461
1577.437862	-3.024100	3.452600	-10.439000	25.665907	0.000701	20.832460
1578.438440	-2.994700	3.452000	-10.337000	25.663498	0.000703	20.832885
1579.444519	-2.996100	3.451800	-10.341000	25.667477	0.000700	20.833563
1580.440515	-3.006200	3.452600	-10.377000	25.698334	0.000701	20.846537
1581.443728	-3.012500	3.450200	-10.393000	25.691602	0.000701	20.852577
1582.440339	-3.015800	3.451700	-10.408000	25.697292	0.000700	20.824154
1583.445797	-2.973700	3.451100	-10.261000	25.723948	0.000700	20.844763
1584.448460	-2.995900	3.451300	-10.339000	25.749267	0.000699	20.857867
1585.443548	-3.007200	3.448800	-10.370000	25.727829	0.000697	20.852929
1586.444666	-3.008700	3.449100	-10.377000	25.727265	0.000697	20.850466
1587.443643	-3.008100	3.448400	-10.370000	25.690119	0.000698	20.841605
1588.444474	-3.003600	3.448500	-10.356000	25.696826	0.000696	20.844074
1589.444948	-3.003000	3.449400	-10.358000	25.702938	0.000697	20.856851
1590.444513	-3.016800	3.447800	-10.400000	25.713649	0.000698	20.851962
1591.448675	-2.969000	3.448400	-10.237000	25.678163	0.000698	20.852830
1592.445642	-3.002700	3.447300	-10.349000	25.687391	0.000695	20.850719
1593.447393	-2.992500	3.447100	-10.314000	25.706102	0.000696	20.837745
1594.448090	-3.012100	3.447500	-10.382000	25.691860	0.000696	20.858526
1595.448563	-3.001200	3.446900	-10.344000	25.720565	0.000693	20.848952
1596.449034	-3.000000	3.447700	-10.342000	25.714673	0.000694	20.858680
1597.455617	-3.011000	3.445900	-10.374000	25.741507	0.000695	20.867141
1598.449916	-3.009500	3.444900	-10.367000	25.757931	0.000692	20.849974
1599.449107	-2.985800	3.445200	-10.286000	25.774078	0.000691	20.859081
1600.450290	-2.983300	3.445100	-10.277000	25.753885	0.000691	20.844962
1601.448562	-2.993500	3.443300	-10.307000	25.761609	0.000688	20.826643
1602.451383	-2.968400	3.444800	-10.224000	25.747007	0.000689	20.825251
1603.451271	-2.991600	3.443000	-10.299000	25.719333	0.000690	20.872369
1604.448916	-3.010500	3.443100	-10.365000	25.693713	0.000689	20.850430
1605.453878	-2.999000	3.442900	-10.324000	25.678980	0.000688	20.856495
1606.455151	-2.963000	3.444400	-10.204000	25.663027	0.000688	20.860861
1607.452754	-3.011800	3.441800	-10.364000	25.649165	0.000688	20.855473
1608.453131	-3.005000	3.442400	-10.344000	25.619423	0.000688	20.833189
1609.453265	-3.002600	3.440500	-10.329000	25.613635	0.000687	20.832592
1610.451764	-3.020400	3.440000	-10.389000	25.594075	0.000688	20.848509
1611.456220	-3.010100	3.441000	-10.357000	25.580219	0.000686	20.844550
1612.465899	-2.986200	3.440300	-10.272000	25.584038	0.000686	20.845067
1613.452152	-2.995200	3.439400	-10.301000	25.614873	0.000684	20.833361
1614.457042	-2.991000	3.439600	-10.286000	25.613935	0.000685	20.847118
1615.454554	-2.970800	3.439800	-10.218000	25.627780	0.000684	20.842530
1616.458740	-2.982600	3.438400	-10.254000	25.642611	0.000684	20.824710
1617.457207	-2.990100	3.440100	-10.285000	25.646314	0.000682	20.814205
1618.462425	-3.019600	3.437700	-10.379000	25.675112	0.000685	20.816576
1619.457380	-3.007700	3.437200	-10.337000	25.660201	0.000684	20.827678
1620.454898	-3.004300	3.438300	-10.329000	25.618191	0.000686	20.841909
1621.456950	-3.007800	3.437400	-10.338000	25.595180	0.000684	20.812161
1622.458282	-2.995500	3.437400	-10.295000	25.595970	0.000684	20.820541
1623.457427	-2.994700	3.437800	-10.294000	25.556594	0.000683	20.828885
1624.457625	-3.001000	3.435300	-10.307000	25.554276	0.000683	20.813281
1625.456698	-3.003000	3.435100	-10.315000	25.532166	0.000682	20.834698
1626.457681	-3.017100	3.434700	-10.361000	25.556955	0.000680	20.830196
1627.460959	-3.003000	3.435700	-10.317000	25.576417	0.000679	20.811335
1628.458811	-2.984700	3.435400	-10.252000	25.615100	0.000679	20.812727
1629.459738	-3.019900	3.432600	-10.364000	25.591721	0.000679	20.799679
1630.459403	-2.988600	3.434900	-10.264000	25.607920	0.000678	20.825904
1631.458740	-3.013100	3.432800	-10.342000	25.602150	0.000678	20.817739
1632.460267	-2.998600	3.433700	-10.295000	25.634383	0.000679	20.822136
1633.461324	-2.965400	3.433000	-10.179000	25.630029	0.000679	20.826298
1634.465075	-2.989400	3.431800	-10.258000	25.622672	0.000676	20.812271
1635.460194	-2.999000	3.432500	-10.293000	25.648655	0.000678	20.801857
1636.460701	-3.001500	3.431500	-10.298000	25.665283	0.000677	20.820928
1637.460569	-2.988900	3.430000	-10.249000	25.679936	0.000679	20.802929
1638.464450	-2.991800	3.431600	-10.266000	25.662119	0.000674	20.790724
1639.461349	-2.993200	3.429700	-10.265000	25.626712	0.000676	20.798310
1640.461172	-2.987700	3.431000	-10.250000	25.630752	0.000676	20.791936
1641.462197	-3.020500	3.429300	-10.357000	25.641861	0.000673	20.810681
1642.461609	-3.002500	3.430600	-10.300000	25.661952	0.000673	20.830859
1643.463265	-3.000700	3.428600	-10.288000	25.675821	0.000672	20.801641
1644.462969	-2.991500	3.428600	-10.255000	25.660316	0.000672	20.824948
1645.462937	-2.971200	3.429600	-10.189000	25.713997	0.000673	20.819596
1646.463185	-2.994100	3.429300	-10.266000	25.699755	0.000670	20.810507
1647.462040	-3.005100	3.427200	-10.298000	25.669958	0.000670	20.800494
1648.466354	-3.004300	3.427000	-10.295000	25.642185	0.000672	20.813851
1649.465876	-3.005400	3.428900	-10.304000	25.670234	0.000670	20.800297
1650.465613	-2.988900	3.428100	-10.244000	25.705536	0.000669	20.820107
1651.469894	-3.008500	3.425500	-10.304000	25.690926	0.000670	20.808278
1652.467821	-3.006200	3.425100	-10.295000	25.688884	0.000668	20.800063
1653.468471	-2.987100	3.426900	-10.235000	25.638647	0.000669	20.806030
1654.470205	-3.003300	3.425500	-10.287000	25.637199	0.000668	20.786558
1655.468446	-3.016400	3.424000	-10.328000	25.613674	0.000669	20.808450
1656.468194	-3.003700	3.425000	-10.286000	25.603061	0.000670	20.799213
1657.470509	-3.011700	3.424400	-10.312000	25.612741	0.000667	20.807513
1658.471268	-2.995000	3.425400	-10.256000	25.594636	0.000665	20.793123
1659.477199	-2.996200	3.422900	-10.255000	25.563721	0.000666	20.798110
1660.474540	-2.978600	3.424200	-10.198000	25.570386	0.000665	20.798166
1661.470806	-2.986400	3.423000	-10.222000	25.594808	0.000663	20.771958
1662.471355	-3.028000	3.420700	-10.357000	25.590988	0.000666	20.801313
1663.472194	-2.972000	3.423200	-10.173000	25.618885	0.000663	20.805623
1664.472516	-2.965200	3.422200	-10.146000	25.606746	0.000662	20.799595
1665.472535	-3.004800	3.421900	-10.281000	25.606169	0.000663	20.799490
1666.471340	-2.994000	3.420800	-10.241000	25.595059	0.000662	20.801134
1667.469887	-2.989600	3.421000	-10.226000	25.609303	0.000663	20.795999
1668.476400	-2.988200	3.421700	-10.224000	25.608456	0.000661	20.802261
1669.471831	-3.005300	3.420200	-10.278000	25.634852	0.000661	20.789416
1670.476043	-2.998600	3.419900	-10.254000	25.672993	0.000662	20.797379
1671.474332	-3.002200	3.419100	-10.264000	25.727128	0.000661	20.795802
1672.477802	-3.007200	3.418600	-10.280000	25.737293	0.000661	20.799848
1673.474794	-3.015200	3.417300	-10.303000	25.717522	0.000661	20.791369
1674.470657	-2.994200	3.418800	-10.236000	25.681092	0.000660	20.805987
1675.473232	-3.022400	3.417300	-10.328000	25.655030	0.000659	20.795457
1676.475178	-2.994600	3.417200	-10.232000	25.646164	0.000658	20.802200
1677.471629	-3.010600	3.416200	-10.284000	25.667255	0.000657	20.792089
1678.472757	-3.012900	3.416300	-10.291000	25.703611	0.000657	20.785457
1679.471731	-3.011500	3.417500	-10.290000	25.735362	0.000657	20.816874
1680.474228	-3.006000	3.416100	-10.268000	25.719680	0.000657	20.786424
1681.477010	-2.999700	3.416500	-10.247000	25.746520	0.000655	20.777347
1682.474817	-3.034000	3.415300	-10.361000	25.770521	0.000655	20.782964
1683.476633	-3.015900	3.415500	-10.299000	25.768412	0.000656	20.772785
1684.478825	-2.982200	3.416300	-10.186000	25.765108	0.000656	20.787484
1685.481237	-2.960200	3.417600	-10.116000	25.789378	0.000656	20.761127
1686.479645	-2.985900	3.414900	-10.195000	25.782475	0.000654	20.778850
1687.478671	-3.017600	3.413400	-10.299000	25.758831	0.000655	20.794455
1688.478169	-3.006200	3.413800	-10.261000	25.754527	0.000654	20.780174
1689.477269	-2.999900	3.413600	-10.239000	25.745435	0.000652	20.780525
1690.478256	-2.982700	3.415000	-10.185000	25.769167	0.000651	20.775439
1691.479698	-2.988600	3.415300	-10.206000	25.753240	0.000653	20.761812
1692.475918	-3.003200	3.412600	-10.246000	25.757513	0.000652	20.788863
1693.480500	-3.008100	3.413100	-10.266000	25.780968	0.000653	20.787293
1694.479777	-3.012300	3.410100	-10.271000	25.798041	0.000653	20.780261
1695.485270	-2.999200	3.411400	-10.231000	25.821544	0.000651	20.782059
1696.482491	-2.988900	3.412200	-10.198000	25.832677	0.000651	20.773802
1697.481873	-3.023400	3.410300	-10.310000	25.816996	0.000649	20.780335
1698.485782	-3.000700	3.409800	-10.231000	25.852648	0.000649	20.779639
1699.484039	-3.014000	3.409300	-10.275000	25.859606	0.000647	20.777620
1700.487803	-3.010400	3.409100	-10.262000	25.873797	0.000647	20.791401
1701.479099	-3.002100	3.409800	-10.236000	25.837201	0.000648	20.780243
1702.485071	-2.968200	3.410500	-10.122000	25.851533	0.000646	20.761449
1703.486445	-3.024000	3.407700	-10.303000	25.820368	0.000647	20.757170
1704.489501	-2.996000	3.409200	-10.212000	25.846599	0.000644	20.776407
1705.490037	-3.019500	3.408000	-10.290000	25.852336	0.000644	20.780274
1706.481240	-2.987700	3.407700	-10.181000	25.840990	0.000646	20.770773
1707.483154	-3.005400	3.408100	-10.242000	25.876341	0.000646	20.793009
1708.485856	-2.999600	3.406000	-10.215000	25.895147	0.000644	20.774917
1709.482283	-2.991000	3.407200	-10.190000	25.925875	0.000643	20.763587
1710.483122	-2.994400	3.405800	-10.197000	25.947721	0.000643	20.782215
1711.482946	-3.034000	3.404700	-10.329000	25.960237	0.000642	20.763495
1712.481456	-2.996200	3.405200	-10.202000	25.937467	0.000643	20.772387
1713.480970	-2.996000	3.405500	-10.202000	25.914788	0.000643	20.775208
1714.483634	-2.980000	3.404600	-10.145000	25.896632	0.000641	20.775461
1715.480290	-2.974800	3.406100	-10.131000	25.873099	0.000641	20.770312
1716.479217	-2.978700	3.404600	-10.140000	25.818580	0.000641	20.765805
1717.480575	-2.993800	3.404700	-10.192000	25.810366	0.000640	20.773201
1718.483139	-2.984900	3.403600	-10.158000	25.830356	0.000639	20.758668
1719.480582	-3.002700	3.402200	-10.215000	25.850064	0.000639	20.771354
1720.482831	-3.009600	3.403800	-10.243000	25.854134	0.000639	20.775442
1721.481790	-3.006500	3.403200	-10.231000	25.852155	0.000635	20.752591
1722.483792	-3.014300	3.402800	-10.256000	25.886660	0.000637	20.771607
1723.488770	-2.990000	3.402300	-10.171000	25.899165	0.000636	20.749081
1724.486552	-3.002600	3.401800	-10.212000	25.912276	0.000636	20.744234
1725.485533	-2.995700	3.401400	-10.188000	25.869626	0.000635	20.764451
1726.487622	-3.003800	3.401200	-10.215000	25.822529	0.000634	20.761237
1727.487758	-2.995500	3.400900	-10.186000	25.804194	0.000635	20.752776
1728.483419	-2.996300	3.400500	-10.187000	25.767008	0.000634	20.769477
1729.489896	-2.998100	3.399600	-10.191000	25.745538	0.000635	20.767352
1730.490042	-2.999800	3.400200	-10.199000	25.727355	0.000634	20.746717
1731.485846	-3.012300	3.397500	-10.233000	25.772078	0.000633	20.763664
1732.485416	-3.010500	3.398300	-10.230000	25.773298	0.000633	20.758725
1733.486698	-2.981800	3.399100	-10.134000	25.806567	0.000634	20.777920
1734.485274	-2.986900	3.397600	-10.146000	25.798543	0.000631	20.758953
1735.494307	-3.014700	3.396800	-10.239000	25.765647	0.000632	20.733496
1736.489359	-2.984800	3.397900	-10.141000	25.720036	0.000631	20.772557
1737.488485	-2.995700	3.397100	-10.176000	25.727938	0.000631	20.741613
1738.489338	-2.983100	3.397600	-10.135000	25.724487	0.000630	20.755690
1739.489294	-3.005800	3.395900	-10.206000	25.758384	0.000631	20.767927
1740.489545	-2.994400	3.395800	-10.167000	25.763097	0.000630	20.748479
1741.489638	-2.990900	3.397600	-10.161000	25.770975	0.000629	20.743590
1742.493517	-2.989900	3.395500	-10.150000	25.785437	0.000627	20.766652
1743.491431	-2.995300	3.396300	-10.172000	25.792818	0.000628	20.771695
1744.488164	-3.009500	3.395100	-10.216000	25.828692	0.000628	20.749409
1745.492169	-2.994800	3.395100	-10.167000	25.858226	0.000628	20.771018
1746.491714	-3.020400	3.393700	-10.249000	25.891419	0.000626	20.742248
1747.492227	-3.002300	3.394100	-10.188000	25.880735	0.000626	20.744317
1748.491278	-2.980100	3.394400	-10.114000	25.834167	0.000626	20.756806
1749.491472	-3.013500	3.392900	-10.224000	25.818804	0.000626	20.729519
1750.492393	-3.000600	3.394700	-10.185000	25.828925	0.000626	20.765292
1751.497746	-3.024900	3.392300	-10.260000	25.830034	0.000626	20.751706
1752.495769	-3.013900	3.392600	-10.223000	25.840597	0.000626	20.743824
1753.494379	-3.027300	3.390500	-10.262000	25.868445	0.000625	20.747144
1754.493757	-3.010800	3.391600	-10.210000	25.893982	0.000625	20.731071
1755.495515	-2.996600	3.390300	-10.158000	25.907903	0.000624	20.744108
1756.499495	-2.995200	3.390900	-10.155000	25.905683	0.000621	20.724808
1757.493025	-3.008900	3.391100	-10.202000	25.912445	0.000622	20.742507
1758.502061	-2.992500	3.391300	-10.147000	25.884199	0.000623	20.762022
1759.497977	-2.995900	3.390300	-10.156000	25.880080	0.000621	20.735124
1760.496890	-3.001300	3.390000	-10.173000	25.846893	0.000620	20.739718
1761.496754	-3.024900	3.389000	-10.250000	25.820834	0.000619	20.750051
1762.495153	-3.003200	3.388400	-10.175000	25.835246	0.000620	20.744614
1763.496672	-2.980200	3.389400	-10.100000	25.819436	0.000618	20.729680
1764.497345	-2.992400	3.389400	-10.141000	25.814048	0.000620	20.749398
1765.501982	-2.993900	3.388100	-10.142000	25.820638	0.000620	20.738000
1766.495086	-2.984400	3.388200	-10.110000	25.851638	0.000616	20.733578
1767.500964	-3.010700	3.387700	-10.198000	25.853955	0.000617	20.733061
1768.499753	-3.004100	3.387500	-10.175000	25.842529	0.000618	20.727747
1769.500352	-2.980100	3.387700	-10.094000	25.805687	0.000616	20.733412
1770.501399	-2.998200	3.386700	-10.153000	25.799428	0.000616	20.739454
1771.496598	-3.001900	3.385000	-10.160000	25.822410	0.000616	20.730771
1772.499859	-3.028900	3.385400	-10.252000	25.861912	0.000615	20.723510
1773.502649	-2.996300	3.387200	-10.149000	25.879456	0.000615	20.732126
1774.499935	-3.003900	3.385700	-10.169000	25.916663	0.000613	20.731572
1775.499493	-3.000300	3.384800	-10.154000	25.906930	0.000614	20.737441
1776.500150	-3.019700	3.384600	-10.219000	25.899665	0.000615	20.716391
1777.502461	-3.018900	3.384600	-10.216000	25.903252	0.000614	20.717149
1778.503715	-2.984600	3.384500	-10.100000	25.925085	0.000613	20.735765
1779.503327	-2.990900	3.383800	-10.119000	25.930081	0.000613	20.718498
1780.500553	-3.006600	3.382600	-10.169000	25.886487	0.000611	20.719748
1781.503991	-3.003200	3.383400	-10.160000	25.866111	0.000614	20.719194
1782.505441	-3.005000	3.382800	-10.165000	25.811812	0.000612	20.740040
1783.507723	-2.991500	3.382600	-10.117000	25.816403	0.000610	20.738013
1784.509071	-3.013500	3.380700	-10.187000	25.761396	0.000609	20.725906
1785.507407	-2.989800	3.383000	-10.114000	25.740332	0.000609	20.732723
1786.510801	-3.012700	3.382000	-10.188000	25.751832	0.000608	20.713454
1787.508444	-2.990200	3.382300	-10.112000	25.732656	0.000608	20.707469
1788.508187	-3.015800	3.380000	-10.193000	25.697926	0.000609	20.718578
1789.509312	-2.985200	3.381400	-10.093000	25.740706	0.000608	20.725512
1790.510102	-2.989700	3.380600	-10.106000	25.759514	0.000606	20.716429
1791.510823	-2.981900	3.380500	-10.080000	25.789823	0.000607	20.737866
1792.510138	-3.019700	3.379500	-10.205000	25.806417	0.000607	20.728930
1793.510463	-3.023300	3.378300	-10.212000	25.813504	0.000605	20.718030
1794.516285	-3.002400	3.379200	-10.145000	25.781026	0.000604	20.716700
1795.511443	-2.981200	3.377700	-10.068000	25.751790	0.000606	20.727637
1796.511688	-2.981600	3.379300	-10.075000	25.770322	0.000604	20.732976
1797.510245	-3.003000	3.376200	-10.137000	25.773308	0.000603	20.711792
1798.508420	-2.987500	3.377100	-10.087000	25.800490	0.000605	20.703534
1799.511068	-2.985100	3.378000	-10.082000	25.787837	0.000603	20.721645
1800.514272	-2.988600	3.377500	-10.092000	25.788088	0.000601	20.713836
1801.515636	-3.012800	3.377600	-10.175000	25.852241	0.000603	20.724226
1802.537732	-3.005500	3.375400	-10.144000	25.821707	0.000601	20.696871
1803.513432	-2.972600	3.376400	-10.036000	25.804322	0.000600	20.708806
1804.549473	-2.986800	3.375800	-10.082000	25.797811	0.000601	20.721233
1805.519773	-2.999500	3.375200	-10.123000	25.824496	0.000600	20.693509
1806.513507	-3.011900	3.375900	-10.167000	25.837866	0.000598	20.688447
1807.515379	-3.004300	3.374000	-10.135000	25.873972	0.000598	20.707175
1808.516479	-3.014400	3.373900	-10.169000	25.879176	0.000597	20.695332
1809.514286	-2.979400	3.374500	-10.053000	25.908526	0.000598	20.704429
1810.519565	-2.988000	3.374800	-10.083000	25.939106	0.000597	20.696743
1811.517461	-3.004700	3.374000	-10.137000	25.956967	0.000597	20.708524
1812.515226	-2.989500	3.372700	-10.081000	25.970710	0.000596	20.710477
1813.520061	-2.991700	3.372600	-10.090000	25.983379	0.000596	20.716567
1814.517953	-2.993700	3.372100	-10.094000	25.989955	0.000595	20.686188
1815.517998	-3.005100	3.370700	-10.128000	25.980229	0.000593	20.704867
1816.519576	-2.994500	3.370800	-10.093000	25.974890	0.000595	20.710884
1817.538614	-3.026100	3.371000	-10.200000	25.983612	0.000595	20.700205
1818.518204	-3.029200	3.370400	-10.208000	25.990262	0.000592	20.677486
1819.517894	-2.996500	3.372200	-10.104000	25.953879	0.000594	20.713483
1820.516847	-3.002400	3.370500	-10.118000	25.960756	0.000593	20.701899
1821.518372	-3.007300	3.370500	-10.135000	25.980088	0.000593	20.697613
1822.535144	-3.026200	3.368100	-10.191000	25.975841	0.000592	20.694768
1823.535116	-2.986400	3.368900	-10.059000	25.976092	0.000592	20.699762
1824.533915	-2.956100	3.370900	-9.963800	25.982553	0.000592	20.700089
1825.539042	-3.015000	3.369200	-10.157000	25.965654	0.000592	20.700181
1826.540320	-3.003700	3.368100	-10.116000	25.948866	0.000588	20.686633
1827.527031	-2.981100	3.368200	-10.040000	25.926665	0.000588	20.700841
1828.520967	-3.013000	3.366600	-10.142000	25.926267	0.000590	20.690482
1829.522435	-3.006900	3.367900	-10.126000	25.932507	0.000588	20.688216
1830.520436	-3.010000	3.367900	-10.136000	25.929148	0.000588	20.680099
1831.517999	-3.005800	3.366100	-10.117000	25.915859	0.000587	20.680499
1832.519850	-2.996600	3.367600	-10.091000	25.864192	0.000586	20.692607
1833.520871	-2.994400	3.365900	-10.078000	25.838532	0.000587	20.678209
1834.522535	-2.988300	3.367700	-10.063000	25.826585	0.000584	20.688019
1835.527766	-2.991600	3.365600	-10.066000	25.845864	0.000587	20.690791
1836.523999	-3.002900	3.366100	-10.106000	25.852950	0.000586	20.698385
1837.529042	-2.986500	3.366900	-10.054000	25.856384	0.000585	20.678124
1838.524476	-3.020700	3.364800	-10.163000	25.908223	0.000584	20.681363
1839.528347	-2.996300	3.363500	-10.077000	25.895455	0.000585	20.678967
1840.525595	-2.993300	3.364600	-10.070000	25.919795	0.000585	20.689670
1841.524917	-3.004900	3.362700	-10.104000	25.930828	0.000583	20.692694
1842.521654	-2.985400	3.362500	-10.038000	25.944711	0.000584	20.656377
1843.530946	-3.009800	3.362800	-10.120000	25.946802	0.000582	20.677920
1844.524786	-2.993800	3.362500	-10.066000	25.972490	0.000583	20.680969
1845.528009	-3.007500	3.362500	-10.112000	25.978969	0.000581	20.675149
1846.527379	-3.005800	3.362600	-10.105000	25.963670	0.000581	20.669262
1847.549805	-2.995400	3.361500	-10.069000	25.944467	0.000582	20.691222
1848.555714	-3.001900	3.362100	-10.092000	25.945760	0.000578	20.672131
1849.568595	-3.005200	3.361000	-10.100000	25.945484	0.000579	20.680390
1850.533597	-2.989100	3.361000	-10.045000	25.963223	0.000579	20.673554
1851.526294	-2.987600	3.361500	-10.042000	25.975640	0.000578	20.693144
1852.525230	-2.998000	3.360500	-10.074000	25.998287	0.000578	20.673221
1853.543531	-2.969100	3.361500	-9.980000	26.014885	0.000578	20.689424
1854.551719	-3.003700	3.359800	-10.090000	26.015528	0.000578	20.695287
1855.552148	-3.010500	3.361000	-10.117000	26.046351	0.000577	20.669353
1856.532466	-2.989200	3.359700	-10.042000	26.020370	0.000577	20.680235
1857.529313	-2.980000	3.360500	-10.014000	26.038824	0.000577	20.671275
1858.533919	-3.015000	3.358500	-10.125000	26.045124	0.000576	20.680450
1859.535393	-3.005900	3.357600	-10.091000	26.040111	0.000574	20.676361
1860.533959	-3.009200	3.358200	-10.105000	26.055213	0.000576	20.684423
1861.534501	-3.011600	3.356900	-10.109000	26.060243	0.000574	20.677623
1862.539418	-2.988200	3.357400	-10.031000	26.086817	0.000574	20.670183
1863.535776	-3.021200	3.356600	-10.140000	26.082888	0.000573	20.665287
1864.560118	-2.993500	3.356100	-10.046000	26.078120	0.000573	20.683257
1865.557994	-3.005400	3.356500	-10.086000	26.046104	0.000573	20.672899
1866.542013	-2.972200	3.356300	-9.974600	25.999903	0.000571	20.672000
1867.538363	-2.981300	3.356300	-10.006000	26.002582	0.000570	20.672794
1868.539060	-2.993800	3.354800	-10.043000	25.978764	0.000570	20.675892
1869.542467	-3.002100	3.354900	-10.071000	25.983011	0.000570	20.672098
1870.543638	-2.999000	3.353800	-10.057000	25.923440	0.000570	20.680054
1871.542077	-3.006500	3.354200	-10.083000	25.907165	0.000570	20.655168
1872.560713	-2.999000	3.354600	-10.060000	25.929992	0.000569	20.678576
1873.539044	-2.991800	3.353500	-10.032000	25.954111	0.000568	20.679099
1874.568739	-2.974200	3.353200	-9.970600	26.010162	0.000569	20.675194
1875.563490	-2.981900	3.354400	-10.002000	26.015188	0.000566	20.681193
1876.556339	-3.005900	3.353700	-10.080000	25.992675	0.000568	20.664263
1877.544407	-2.998700	3.353400	-10.054000	25.963299	0.000567	20.675053
1878.540428	-3.022500	3.351900	-10.130000	25.981251	0.000565	20.675545
1879.547661	-2.997100	3.352100	-10.046000	25.973081	0.000564	20.694840
1880.543861	-2.978400	3.351800	-9.980700	26.007452	0.000564	20.682430
1881.544651	-3.005500	3.350700	-10.070000	26.011675	0.000564	20.667705
1882.567971	-3.021000	3.351100	-10.123000	25.996776	0.000564	20.698257
1883.545479	-3.016100	3.350200	-10.103000	25.987876	0.000563	20.672718
1884.545091	-3.024600	3.348300	-10.126000	25.982513	0.000561	20.656423
1885.546073	-3.010100	3.350700	-10.085000	25.962023	0.000563	20.668555
1886.544343	-2.989500	3.350300	-10.015000	25.984174	0.000562	20.690337
1887.546118	-2.979800	3.350900	-9.983000	25.984523	0.000562	20.694008
1888.566169	-3.011100	3.348700	-10.082000	25.974784	0.000561	20.674263
1889.545525	-3.025800	3.349300	-10.132000	25.948054	0.000561	20.665900
1890.586249	-2.976300	3.350600	-9.970200	25.970033	0.000559	20.691778
1891.560805	-2.966800	3.347400	-9.929300	25.971204	0.000559	20.664028
1892.563169	-3.012000	3.347900	-10.082000	25.970480	0.000560	20.703608
1893.544822	-3.018600	3.347200	-10.103000	25.921746	0.000558	20.692104
1894.547595	-3.008300	3.346200	-10.064000	25.913544	0.000558	20.683390
1895.545844	-3.001700	3.347800	-10.048000	25.835787	0.000555	20.694893
1896.553071	-3.000500	3.346500	-10.039000	25.850646	0.000556	20.703183
1897.547060	-2.981400	3.346300	-9.975700	25.835616	0.000557	20.693299
1898.545284	-3.031700	3.344900	-10.139000	25.877691	0.000556	20.682459
1899.550175	-2.988900	3.345800	-9.998300	25.910185	0.000556	20.689498
1900.549791	-3.020100	3.345200	-10.102000	25.897018	0.000555	20.701877
1901.575158	-2.995600	3.344300	-10.017000	25.910828	0.000557	20.679712
1902.570127	-3.060600	3.342300	-10.228000	25.928407	0.000554	20.692158
1903.575172	-3.008300	3.346200	-10.064000	25.877506	0.000556	20.681800
1904.569755	-2.997900	3.345400	-10.028000	25.908038	0.000553	20.690662
1905.567810	-2.991700	3.343600	-10.002000	25.914143	0.000553	20.700114
1906.550151	-2.999100	3.343100	-10.025000	25.945342	0.000552	20.686886
1907.552913	-3.005000	3.343000	-10.044000	26.001382	0.000554	20.690082
1908.549933	-3.026600	3.341900	-10.114000	26.016600	0.000551	20.704899
1909.554966	-2.978300	3.343200	-9.956600	26.009049	0.000552	20.682137
1910.553230	-2.997300	3.342300	-10.017000	26.039749	0.000551	20.711088
1911.557588	-2.990100	3.342000	-9.991700	26.059864	0.000553	20.697632
1912.553718	-2.987300	3.342100	-9.983700	26.066096	0.000551	20.692514
1913.554609	-3.016300	3.341500	-10.078000	26.099871	0.000552	20.701320
1914.553510	-3.024900	3.340900	-10.105000	26.089115	0.000550	20.697625
1915.553485	-2.967500	3.341300	-9.914200	26.052852	0.000549	20.702441
1916.549566	-2.995900	3.340800	-10.007000	26.043781	0.000548	20.723200
1917.552986	-3.010900	3.340500	-10.056000	26.057386	0.000547	20.697988
1918.553791	-2.995800	3.339300	-10.003000	26.035482	0.000548	20.712965
1919.551691	-3.005100	3.339100	-10.033000	26.013381	0.000545	20.696923
1920.555908	-3.024800	3.338400	-10.096000	26.047556	0.000548	20.716087
1921.556160	-2.993200	3.338000	-9.990200	26.067940	0.000545	20.710489
1922.556632	-3.002500	3.337900	-10.021000	26.091210	0.000545	20.700678
1923.555905	-3.013200	3.338900	-10.060000	26.118972	0.000544	20.701072
1924.576236	-3.004600	3.336900	-10.025000	26.109363	0.000544	20.726980
1925.556607	-3.004300	3.337800	-10.027000	26.077053	0.000543	20.723914
1926.556489	-3.003700	3.336800	-10.022000	26.081171	0.000542	20.707662
1927.552220	-3.015000	3.336500	-10.059000	26.140109	0.000542	20.713777
1928.553344	-3.000900	3.336500	-10.011000	26.140703	0.000541	20.707261
1929.556575	-3.003300	3.335900	-10.018000	26.144380	0.000542	20.705740
1930.553205	-2.982200	3.335500	-9.945400	26.148976	0.000540	20.713678
1931.556653	-2.984500	3.336500	-9.956900	26.145716	0.000540	20.707557
1932.553652	-2.999300	3.336100	-10.004000	26.164419	0.000539	20.699323
1933.578526	-3.014900	3.334700	-10.053000	26.169254	0.000538	20.713191
1934.592791	-2.994200	3.334400	-9.982300	26.150239	0.000538	20.721585
1935.576134	-2.980400	3.335200	-9.939400	26.132968	0.000538	20.720827
1936.558538	-2.999800	3.333200	-9.998300	26.096087	0.000538	20.725495
1937.578301	-2.982600	3.334300	-9.943000	26.083248	0.000536	20.712594
1938.581832	-3.001500	3.334600	-10.008000	26.055503	0.000536	20.710321
1939.586595	-2.986400	3.333300	-9.953700	26.088390	0.000536	20.728193
1940.583463	-3.004600	3.332500	-10.012000	26.069164	0.000536	20.717884
1941.582627	-3.009400	3.332200	-10.027000	26.081728	0.000537	20.716282
1942.582154	-3.004000	3.331000	-10.005000	26.100132	0.000536	20.714860
1943.594558	-2.977000	3.333400	-9.921900	26.098992	0.000535	20.725569
1944.585209	-2.991000	3.331500	-9.964400	26.086098	0.000534	20.702180
1945.583003	-3.006800	3.331100	-10.015000	26.107707	0.000534	20.712513
1946.564043	-3.012000	3.331400	-10.033000	26.101370	0.000536	20.727958
1947.561686	-2.998800	3.331600	-9.990100	26.125307	0.000534	20.724983
1948.594084	-3.003400	3.329800	-9.999400	26.159013	0.000534	20.722342
1949.594100	-3.008000	3.329700	-10.015000	26.212260	0.000533	20.718474
1950.585620	-2.982300	3.330000	-9.928800	26.202945	0.000531	20.720020
1951.588730	-2.988500	3.328300	-9.945400	26.195567	0.000531	20.729676
1952.579176	-2.994600	3.327800	-9.963700	26.194378	0.000532	20.725636
1953.598818	-2.981000	3.328600	-9.920700	26.180541	0.000531	20.714102
1954.577180	-2.998700	3.328500	-9.980000	26.165294	0.000530	20.720593
1955.588991	-3.021700	3.328300	-10.056000	26.210292	0.000530	20.717920
1956.585402	-2.977100	3.328300	-9.908300	26.211806	0.000530	20.715647
1957.590782	-2.999900	3.326900	-9.978200	26.235594	0.000527	20.728647
1958.588396	-2.996700	3.328100	-9.972100	26.242751	0.000527	20.730150
1959.588171	-2.983700	3.328300	-9.929300	26.250423	0.000526	20.733118
1960.589909	-3.002700	3.325300	-9.983900	26.257445	0.000528	20.728321
1961.589899	-3.001500	3.325600	-9.980700	26.255680	0.000527	20.725124
1962.586422	-2.991200	3.325400	-9.945700	26.220967	0.000525	20.740502
1963.587061	-2.976900	3.327200	-9.903400	26.241280	0.000526	20.720611
1964.583955	-2.997200	3.325800	-9.967000	26.236513	0.000522	20.713449
1965.584727	-2.980100	3.325000	-9.907700	26.261790	0.000526	20.727471
1966.585223	-2.994000	3.323900	-9.951300	26.274878	0.000524	20.734935
1967.589757	-2.972800	3.325000	-9.883400	26.265050	0.000522	20.730273
1968.591892	-2.982400	3.323700	-9.911400	26.234546	0.000523	20.705307
1969.587575	-3.007700	3.321600	-9.990000	26.207259	0.000523	20.730045
1970.592834	-3.000400	3.322400	-9.967300	26.152253	0.000522	20.726929
1971.571456	-3.000400	3.321800	-9.964400	26.139139	0.000521	20.738408
1972.570155	-3.037900	3.321600	-10.090000	26.099102	0.000519	20.758397
1973.591728	-2.996600	3.320800	-9.949300	26.051544	0.000519	20.715352
1974.571279	-2.996500	3.322000	-9.953600	26.087188	0.000518	20.742159
1975.571935	-2.993400	3.320800	-9.939700	26.093047	0.000518	20.740933
1976.573518	-3.006300	3.319800	-9.979800	26.098538	0.000518	20.740761
1977.594281	-2.990000	3.320000	-9.925200	26.074496	0.000519	20.746001
1978.573253	-3.005300	3.319900	-9.975700	26.102093	0.000517	20.749075
1979.570149	-3.012600	3.319700	-9.999700	26.134972	0.000516	20.740385
1980.574149	-3.007100	3.318100	-9.976200	26.139379	0.000517	20.747659
1981.573998	-2.993000	3.319000	-9.932000	26.134415	0.000516	20.741722
1982.575519	-3.021200	3.318400	-10.025000	26.166392	0.000517	20.741137
1983.574491	-3.012700	3.318400	-9.996100	26.180830	0.000514	20.739998
1984.573730	-3.013400	3.317700	-9.996700	26.179114	0.000515	20.735903
1985.574484	-3.010200	3.315800	-9.979600	26.157261	0.000514	20.737178
1986.574595	-3.000900	3.318300	-9.955800	26.146935	0.000515	20.743398
1987.575232	-2.988700	3.317100	-9.912800	26.144405	0.000512	20.756028
1988.579123	-2.986700	3.317000	-9.905100	26.171197	0.000511	20.750707
1989.598808	-2.978700	3.318200	-9.881700	26.184936	0.000511	20.750289
1990.581382	-3.019700	3.315600	-10.012000	26.192241	0.000512	20.719221
1991.597192	-3.001200	3.315200	-9.949300	26.181284	0.000510	20.764637
1992.597385	-2.991500	3.316500	-9.920400	26.165897	0.000509	20.753442
1993.611896	-3.022400	3.314800	-10.017000	26.155019	0.000509	20.743460
1994.601893	-3.027500	3.312600	-10.027000	26.192591	0.000509	20.766041
1995.579425	-2.992800	3.314600	-9.918600	26.192738	0.000509	20.773302
1996.579181	-2.981700	3.314600	-9.882100	26.208186	0.000508	20.760376
1997.584058	-2.978500	3.314200	-9.871000	26.232980	0.000507	20.763006
1998.576778	-3.016800	3.312500	-9.991600	26.285923	0.000507	20.758837
1999.582006	-2.999500	3.314100	-9.940400	26.294538	0.000507	20.750425
2000.578425	-3.017200	3.311700	-9.991700	26.317461	0.000508	20.743590
2001.599857	-3.004700	3.313200	-9.953200	26.336234	0.000506	20.755346
2002.581252	-2.990600	3.311800	-9.903600	26.324072	0.000505	20.761615
2003.604570	-3.004000	3.311700	-9.946900	26.335249	0.000505	20.762416
2004.604311	-2.993600	3.311700	-9.912100	26.334207	0.000504	20.764688
2005.603305	-3.000100	3.311100	-9.932400	26.355934	0.000504	20.762816
2006.604183	-2.988500	3.310600	-9.893300	26.394025	0.000503	20.756054
2007.608741	-3.001600	3.311500	-9.938700	26.382189	0.000504	20.763599
2008.608635	-2.979200	3.311200	-9.863700	26.405029	0.000503	20.736768
2009.609182	-3.014900	3.308400	-9.973500	26.383255	0.000500	20.780791
2010.607601	-3.005300	3.310000	-9.946600	26.415702	0.000498	20.776893
2011.586357	-2.975500	3.312000	-9.852800	26.426210	0.000499	20.762324
2012.585452	-3.006600	3.308100	-9.945500	26.423508	0.000498	20.770988
2013.601852	-2.993100	3.309700	-9.904900	26.436944	0.000501	20.763630
2014.588573	-2.979000	3.308700	-9.855200	26.386808	0.000498	20.768242
2015.588256	-2.992300	3.308800	-9.900100	26.337131	0.000497	20.766204
2016.594646	-3.000200	3.308100	-9.923500	26.323026	0.000498	20.772417
2017.595087	-3.012200	3.307000	-9.960300	26.317438	0.000498	20.779130
2018.600959	-3.008800	3.307700	-9.951500	26.303836	0.000497	20.771149
2019.586505	-3.002000	3.305500	-9.922700	26.293456	0.000496	20.767356
2020.594606	-2.992300	3.307100	-9.894600	26.282310	0.000494	20.785553
2021.587126	-2.990900	3.306400	-9.886700	26.285288	0.000494	20.782381
2022.591729	-2.986000	3.307300	-9.874400	26.220972	0.000494	20.779389
2023.592019	-3.003700	3.305700	-9.928400	26.199893	0.000493	20.763896
2024.598423	-2.995900	3.304800	-9.900100	26.189966	0.000494	20.762455
2025.594691	-3.001500	3.304200	-9.916800	26.238444	0.000496	20.771341
2026.595758	-2.970500	3.305900	-9.819100	26.302115	0.000493	20.764678
2027.618380	-3.010100	3.304600	-9.946000	26.328714	0.000491	20.765806
2028.604108	-3.019900	3.302600	-9.972500	26.363284	0.000491	20.779686
2029.614698	-3.034900	3.301000	-10.017000	26.404995	0.000491	20.771822
2030.611947	-3.007200	3.303100	-9.932000	26.414290	0.000491	20.792544
2031.619157	-3.015900	3.303000	-9.960100	26.448924	0.000491	20.777568
2032.608193	-3.007500	3.303700	-9.934600	26.477228	0.000491	20.774249
2033.595082	-3.002500	3.301700	-9.913000	26.489524	0.000491	20.770013
2034.591523	-2.997300	3.302400	-9.897700	26.506506	0.000487	20.788505
2035.643257	-3.020600	3.300800	-9.969500	26.510727	0.000487	20.793696
2036.630641	-2.981100	3.303300	-9.846700	26.509515	0.000486	20.778252
2037.652460	-3.005700	3.299400	-9.915300	26.514183	0.000487	20.791954
2038.649017	-2.984300	3.300000	-9.847200	26.531685	0.000485	20.784891
2039.636234	-2.998000	3.299600	-9.891100	26.498917	0.000486	20.777557
2040.642674	-2.999900	3.299100	-9.896100	26.499664	0.000485	20.793955
2041.638647	-3.011100	3.298500	-9.931000	26.501760	0.000485	20.795588
2042.634101	-2.998200	3.299400	-9.890600	26.482493	0.000482	20.791394
2043.617391	-2.970300	3.299900	-9.800200	26.448454	0.000482	20.798907
2044.611905	-3.013900	3.298200	-9.939100	26.437562	0.000484	20.779424
2045.615717	-3.000800	3.298600	-9.897300	26.428145	0.000484	20.788925
2046.611219	-3.006500	3.297600	-9.911800	26.416162	0.000485	20.798692
2047.595639	-2.975700	3.298600	-9.813800	26.433935	0.000481	20.783839
2048.595150	-2.981100	3.297600	-9.828100	26.425303	0.000479	20.791759
2049.610750	-2.999700	3.296700	-9.888500	26.444198	0.000479	20.792732
2050.598065	-3.016400	3.297300	-9.944300	26.503133	0.000480	20.801710
2051.599061	-3.008400	3.295700	-9.914000	26.497252	0.000478	20.797221
2052.601599	-3.039100	3.293400	-10.008000	26.518137	0.000477	20.777436
2053.600556	-2.998800	3.295000	-9.880100	26.556638	0.000477	20.805706
2054.601212	-2.996000	3.295100	-9.871100	26.568064	0.000476	20.790164
2055.594528	-3.003800	3.294700	-9.895600	26.544944	0.000477	20.804382
2056.599837	-3.004700	3.293500	-9.894600	26.530775	0.000475	20.797726
2057.598662	-3.001700	3.294400	-9.887500	26.557330	0.000473	20.802609
2058.600146	-2.987000	3.294800	-9.839800	26.589957	0.000474	20.777085
2059.598084	-2.986600	3.293100	-9.833400	26.611728	0.000474	20.793754
2060.598864	-2.980400	3.293900	-9.815900	26.604292	0.000473	20.797659
2061.600452	-3.024200	3.292000	-9.953400	26.638252	0.000472	20.827056
2062.606687	-2.997000	3.293500	-9.869200	26.634870	0.000471	20.797104
2063.606349	-3.015600	3.291000	-9.922500	26.663170	0.000470	20.805639
2064.596618	-3.002000	3.290900	-9.877200	26.623973	0.000470	20.812702
2065.606306	-3.005300	3.292300	-9.893400	26.605462	0.000470	20.809267
2066.619868	-3.016900	3.289900	-9.924300	26.601885	0.000471	20.807567
2067.625172	-2.980000	3.290200	-9.803500	26.563734	0.000470	20.798614
2068.619086	-2.995300	3.290600	-9.854300	26.532197	0.000471	20.815276
2069.618735	-3.029400	3.289800	-9.965300	26.546361	0.000468	20.806281
2070.618258	-2.976400	3.289400	-9.789700	26.558147	0.000469	20.817180
2071.642714	-3.009700	3.289800	-9.899800	26.592758	0.000470	20.805505
2072.642380	-2.987400	3.288600	-9.823700	26.597922	0.000468	20.819705
2073.638485	-2.977900	3.289400	-9.793800	26.608048	0.000466	20.809969
2074.650487	-2.989800	3.288500	-9.830900	26.582014	0.000464	20.812722
2075.650008	-2.983700	3.289300	-9.813000	26.601157	0.000466	20.823431
2076.619031	-3.021200	3.286300	-9.926400	26.602100	0.000465	20.820112
2077.621190	-3.007200	3.288400	-9.887400	26.604085	0.000464	20.811201
2078.620831	-2.994800	3.286700	-9.842300	26.617121	0.000463	20.828572
2079.622202	-3.009000	3.286200	-9.886400	26.659098	0.000464	20.804865
2080.622298	-3.017200	3.286100	-9.913100	26.634523	0.000466	20.806238
2081.629138	-3.000700	3.286400	-9.860100	26.629139	0.000462	20.829275
2082.623761	-2.992500	3.285800	-9.831900	26.593414	0.000461	20.810906
2083.615036	-2.996300	3.285200	-9.842200	26.589494	0.000461	20.808862
2084.623465	-3.019500	3.284700	-9.917100	26.567748	0.000458	20.821140
2085.619867	-3.001200	3.284300	-9.855500	26.568072	0.000459	20.815303
2086.625093	-2.999100	3.284900	-9.850000	26.613452	0.000458	20.833419
2087.607064	-2.999400	3.284700	-9.850500	26.629520	0.000458	20.816381
2088.609689	-2.997400	3.284800	-9.845000	26.675840	0.000459	20.826911
2089.606460	-3.003200	3.282700	-9.857800	26.667001	0.000457	20.834620
2090.612907	-3.006100	3.283000	-9.867800	26.714783	0.000458	20.816276
2091.604130	-2.996900	3.282700	-9.837200	26.753504	0.000456	20.819170
2092.606309	-2.996300	3.282100	-9.833000	26.766496	0.000457	20.823223
2093.606530	-2.972900	3.282500	-9.757400	26.770720	0.000455	20.805659
2094.611300	-3.008100	3.281000	-9.868100	26.751950	0.000455	20.825193
2095.606692	-3.014700	3.279900	-9.886700	26.746933	0.000454	20.830581
2096.614153	-2.987400	3.280100	-9.797900	26.792549	0.000452	20.862692
2097.604601	-2.998200	3.280000	-9.832900	26.759464	0.000452	20.835593
2098.606052	-3.009600	3.278600	-9.866700	26.759887	0.000454	20.843130
2099.607870	-3.007200	3.279000	-9.858800	26.728963	0.000453	20.822945
2100.605681	-2.978600	3.278400	-9.763400	26.731118	0.000450	20.832699
2101.610226	-2.992600	3.278600	-9.810600	26.734524	0.000451	20.821425
2102.608655	-3.010500	3.278400	-9.868200	26.729833	0.000448	20.816234
2103.610782	-2.975000	3.279900	-9.756400	26.723408	0.000450	20.832059
2104.606226	-2.992900	3.276900	-9.806800	26.716505	0.000450	20.847404
2105.611668	-3.029000	3.275900	-9.921000	26.717417	0.000448	20.837890
2106.649585	-3.012400	3.277600	-9.872600	26.730978	0.000448	20.833032
2107.627807	-2.991800	3.277800	-9.805300	26.717399	0.000446	20.840242
2108.609796	-3.005200	3.276200	-9.844500	26.704518	0.000447	20.825397
2109.610987	-2.983800	3.276600	-9.774300	26.729319	0.000446	20.826148
2110.653463	-2.993000	3.276200	-9.804900	26.742542	0.000447	20.825692
2111.632898	-2.998600	3.275000	-9.819200	26.743865	0.000443	20.815643
2112.613077	-2.959200	3.275500	-9.691400	26.736638	0.000445	20.842515
2113.610176	-3.000500	3.274100	-9.823000	26.723677	0.000443	20.827114
2114.617913	-3.024000	3.273500	-9.898000	26.741280	0.000444	20.822053
2115.611446	-3.000000	3.274200	-9.821800	26.719537	0.000444	20.812995
2116.616293	-2.992400	3.274300	-9.795600	26.727561	0.000442	20.793562
2117.623919	-2.964200	3.275100	-9.706800	26.704102	0.000440	20.810754
2118.615681	-3.006300	3.273700	-9.839600	26.676643	0.000439	20.814442
2119.616557	-2.992000	3.273300	-9.791900	26.654611	0.000441	20.802251
2120.620528	-2.996300	3.272200	-9.803700	26.596792	0.000439	20.807663
2121.617031	-2.996700	3.271000	-9.800700	26.609509	0.000437	20.807645
2122.614529	-2.980500	3.271300	-9.749600	26.634526	0.000440	20.805292
2123.620517	-2.995400	3.271100	-9.797000	26.655977	0.000436	20.816900
2124.617259	-2.977000	3.270500	-9.734300	26.685697	0.000436	20.792251
2125.618307	-2.993300	3.269900	-9.787300	26.653203	0.000437	20.817904
2126.619093	-3.004000	3.269100	-9.819200	26.650495	0.000435	20.807596
2127.620246	-3.022000	3.268400	-9.876500	26.662146	0.000434	20.819783
2128.625614	-2.985400	3.269500	-9.759500	26.620469	0.000434	20.788791
2129.617949	-3.023800	3.268300	-9.881000	26.616224	0.000433	20.788317
2130.622055	-2.980200	3.269400	-9.742100	26.633455	0.000433	20.789044
2131.620820	-3.003000	3.267400	-9.810100	26.656015	0.000432	20.791808
2132.623494	-3.008600	3.267800	-9.830600	26.654331	0.000432	20.801495
2133.667654	-3.003800	3.266300	-9.809900	26.685466	0.000432	20.810036
2134.655129	-3.026600	3.265500	-9.882000	26.709648	0.000430	20.802580
2135.668164	-3.019600	3.265500	-9.859800	26.687279	0.000430	20.789100
2136.637864	-3.037000	3.264200	-9.912200	26.716698	0.000430	20.797813
2137.641842	-2.997600	3.265600	-9.787800	26.754159	0.000430	20.792801
2138.658373	-3.036300	3.263800	-9.908200	26.755200	0.000430	20.788158
2139.660015	-3.011300	3.264000	-9.827900	26.737830	0.000429	20.795351
2140.654745	-2.999800	3.264400	-9.791800	26.723926	0.000428	20.796071
2141.662957	-2.992300	3.266700	-9.774400	26.693173	0.000427	20.796921
2142.654055	-3.014700	3.264100	-9.838300	26.673769	0.000427	20.790690
2143.640023	-3.003500	3.264000	-9.802700	26.625782	0.000427	20.785123
2144.647764	-2.994600	3.263200	-9.771200	26.618382	0.000425	20.774365
2145.640097	-2.977500	3.263200	-9.715300	26.634604	0.000425	20.784508
2146.646879	-2.997500	3.263600	-9.780900	26.648582	0.000422	20.782439
2147.647246	-3.001700	3.262000	-9.790300	26.617868	0.000423	20.765313
2148.648400	-2.994800	3.262600	-9.769800	26.602635	0.000424	20.780346
2149.646926	-3.003700	3.261100	-9.794500	26.601244	0.000420	20.784164
2150.657817	-3.010700	3.260600	-9.815700	26.578922	0.000418	20.751766
2151.663585	-3.011300	3.260600	-9.818000	26.545113	0.000421	20.777525
2152.671989	-2.998300	3.260200	-9.774400	26.579529	0.000419	20.778456
2153.676557	-2.982700	3.260500	-9.724700	26.621655	0.000418	20.783345
2154.668367	-2.989400	3.259500	-9.742000	26.657176	0.000417	20.779225
2155.666793	-2.989400	3.259800	-9.744000	26.668098	0.000416	20.754168
2156.665649	-3.001600	3.258700	-9.780900	26.645140	0.000416	20.786092
2157.663283	-3.019800	3.257500	-9.835900	26.636081	0.000416	20.759440
2158.663799	-2.998600	3.258100	-9.769100	26.602991	0.000414	20.784497
2159.648935	-3.016000	3.256300	-9.820000	26.606746	0.000414	20.748917
2160.653991	-2.988100	3.257900	-9.733900	26.601551	0.000416	20.770248
2161.640617	-3.002900	3.256100	-9.776500	26.637925	0.000415	20.756553
2162.657652	-3.015900	3.256100	-9.818800	26.671860	0.000413	20.765063
2163.648878	-3.027000	3.254900	-9.850700	26.714527	0.000412	20.752482
2164.675763	-3.008800	3.255800	-9.795000	26.706370	0.000412	20.752341
2165.667199	-2.989700	3.254700	-9.729600	26.725057	0.000410	20.770181
2166.666991	-3.001000	3.254600	-9.766300	26.734919	0.000409	20.747852
2167.672412	-3.011700	3.253600	-9.797800	26.740204	0.000409	20.761702
2168.671247	-2.982800	3.255000	-9.707900	26.717769	0.000410	20.760483
2169.672554	-2.981600	3.253100	-9.698800	26.763963	0.000406	20.761406
2170.660798	-2.993700	3.254200	-9.740400	26.777363	0.000408	20.746904
2171.670416	-2.978900	3.253000	-9.688800	26.803074	0.000406	20.753788
2172.664773	-3.005900	3.253200	-9.777700	26.797918	0.000406	20.761406
2173.672370	-3.005900	3.253100	-9.777400	26.843692	0.000403	20.743893
2174.670308	-2.991500	3.251800	-9.726300	26.807716	0.000404	20.753714
2175.664410	-2.981600	3.251000	-9.691800	26.821479	0.000405	20.751905
2176.676122	-3.011300	3.251300	-9.789600	26.798469	0.000403	20.747262
2177.672168	-2.996600	3.250600	-9.740100	26.755065	0.000403	20.747718
2178.664356	-3.018200	3.248900	-9.804600	26.771766	0.000400	20.762614
2179.665708	-3.018400	3.251400	-9.813300	26.750985	0.000401	20.768747
2180.670900	-2.983700	3.250700	-9.697400	26.776427	0.000399	20.759713
2181.673857	-3.014300	3.247500	-9.788200	26.823917	0.000400	20.758150
2182.665842	-3.007900	3.248200	-9.769700	26.829405	0.000398	20.753236
2183.673139	-2.983400	3.249300	-9.693200	26.811460	0.000398	20.740883
2184.683594	-3.014700	3.247400	-9.789700	26.851593	0.000399	20.738087
2185.668618	-3.012200	3.247700	-9.781500	26.833453	0.000398	20.750194
2186.673315	-3.001000	3.247200	-9.743700	26.880530	0.000395	20.729724
2187.688559	-2.992600	3.247100	-9.715500	26.918082	0.000397	20.743777
2188.669282	-2.990100	3.246900	-9.706900	26.927764	0.000396	20.737391
2189.683810	-3.005200	3.245700	-9.753100	26.959932	0.000393	20.752196
2190.685039	-3.029100	3.244400	-9.826100	26.986980	0.000393	20.749997
2191.671847	-2.987400	3.245800	-9.695600	26.998627	0.000394	20.752702
2192.679550	-2.997500	3.245000	-9.726000	26.999668	0.000392	20.737626
2193.673871	-3.011800	3.245000	-9.772400	27.009919	0.000392	20.746987
2194.687330	-2.993500	3.243300	-9.708300	27.019625	0.000390	20.746316
2195.676111	-3.005300	3.243400	-9.746800	26.999343	0.000392	20.733981
2196.681843	-3.005300	3.243600	-9.746900	26.993448	0.000390	20.738957
2197.671618	-2.999800	3.242700	-9.726000	27.007226	0.000388	20.741908
2198.676586	-2.985200	3.242500	-9.679000	26.996252	0.000389	20.741304
2199.659394	-3.017300	3.242000	-9.780900	27.012981	0.000386	20.754335
2200.663362	-3.007300	3.240200	-9.743300	27.040579	0.000386	20.749371
2201.653892	-3.010900	3.240200	-9.754900	27.055128	0.000386	20.736502
2202.662100	-2.989400	3.240200	-9.685400	27.084164	0.000387	20.748634
2203.659884	-2.997600	3.239000	-9.707300	27.077644	0.000384	20.747766
2204.658856	-3.017700	3.238200	-9.770900	27.094861	0.000385	20.755124
2205.683934	-3.002700	3.240400	-9.728900	27.049202	0.000383	20.749508
2206.681228	-3.045000	3.236500	-9.853600	27.058938	0.000383	20.728479
2207.676237	-3.004900	3.238300	-9.729600	27.059832	0.000383	20.732697
2208.690854	-2.995100	3.238000	-9.697100	27.090998	0.000383	20.733221
2209.676219	-2.998000	3.237500	-9.705300	27.090949	0.000381	20.737439
2210.684327	-2.993300	3.236400	-9.686600	27.090484	0.000381	20.756413
2211.674014	-3.010700	3.236700	-9.742500	27.117633	0.000382	20.729188
2212.677301	-2.997500	3.236900	-9.701500	27.138230	0.000380	20.745163
2213.683711	-3.017000	3.236000	-9.761800	27.133938	0.000379	20.727569
2214.688813	-2.989900	3.236700	-9.676800	27.160792	0.000377	20.702419
2215.693838	-2.993400	3.235800	-9.684900	27.155533	0.000379	20.730797
2216.686401	-3.001800	3.234100	-9.707000	27.186183	0.000376	20.713733
2217.679061	-3.006600	3.234200	-9.723100	27.187670	0.000377	20.744628
2218.678276	-2.978000	3.233100	-9.627200	27.215839	0.000375	20.727916
2219.689085	-2.991100	3.231800	-9.665900	27.214939	0.000375	20.736968
2220.674111	-3.001100	3.235700	-9.708300	27.215410	0.000373	20.730803
2221.680410	-2.963200	3.234300	-9.582200	27.209240	0.000374	20.731235
2222.684661	-3.002300	3.232100	-9.702600	27.219219	0.000372	20.727522
2223.681248	-3.047000	3.229500	-9.837900	27.190788	0.000373	20.740178
2224.684640	-3.009800	3.231100	-9.724500	27.153221	0.000373	20.735583
2225.688886	-2.989500	3.230600	-9.655600	27.111661	0.000371	20.719387
2226.688917	-2.999300	3.231900	-9.692400	27.095411	0.000372	20.710157
2227.646608	-3.008200	3.229100	-9.712900	27.048264	0.000370	20.708260
2228.648109	-2.991300	3.228700	-9.656000	27.006895	0.000369	20.738731
2229.643975	-3.022300	3.228900	-9.757500	26.971515	0.000369	20.724962
2230.648871	-3.018600	3.228700	-9.744800	26.970823	0.000367	20.727585
2231.650504	-3.015200	3.227900	-9.730800	26.995415	0.000366	20.733349
2232.648274	-3.007400	3.228100	-9.706700	27.010657	0.000366	20.727814
2233.647386	-2.987300	3.227700	-9.641000	27.030190	0.000364	20.723275
2234.653414	-2.998200	3.228500	-9.679000	27.044433	0.000367	20.721477
2235.649022	-2.982400	3.226300	-9.620200	27.017233	0.000366	20.693173
2236.650916	-3.021900	3.224500	-9.742300	26.989421	0.000365	20.726373
2237.646805	-2.997000	3.224900	-9.663700	26.956643	0.000365	20.739878
2238.688287	-2.997700	3.225200	-9.668000	26.957016	0.000363	20.700897
2239.689810	-2.999300	3.224800	-9.670700	26.909074	0.000363	20.711009
2240.685538	-2.982100	3.224900	-9.616700	26.951365	0.000360	20.701378
2241.691105	-3.007600	3.223900	-9.694700	26.927226	0.000361	20.729738
2242.698817	-2.978500	3.222700	-9.598600	26.929950	0.000362	20.708768
2243.671444	-3.014700	3.225200	-9.722400	26.933796	0.000361	20.705049
2244.651562	-3.012000	3.222500	-9.704700	26.908983	0.000360	20.706650
2245.651825	-3.003400	3.221600	-9.673800	26.930785	0.000359	20.711504
2246.651654	-3.009200	3.221400	-9.692300	26.920111	0.000358	20.703141
2247.650368	-2.947600	3.222400	-9.497400	26.942199	0.000356	20.715870
2248.650353	-2.989100	3.221100	-9.627500	26.931312	0.000358	20.708715
2249.650614	-2.980200	3.219000	-9.591900	26.944662	0.000356	20.703647
2250.652540	-3.000500	3.219500	-9.657500	26.917044	0.000357	20.703376
2251.648882	-3.018300	3.218600	-9.713100	26.871328	0.000356	20.724739
2252.654468	-2.994300	3.218000	-9.635100	26.886320	0.000356	20.714209
2253.653366	-2.999700	3.219100	-9.655000	26.887270	0.000355	20.704258
2254.658844	-3.001600	3.219700	-9.663400	26.896645	0.000354	20.692821
2255.650805	-2.986700	3.216800	-9.606800	26.918221	0.000352	20.712621
2256.661914	-2.994200	3.217700	-9.633700	26.944455	0.000352	20.685894
2257.657594	-2.970900	3.215800	-9.553300	26.951430	0.000352	20.713299
2258.669014	-3.009500	3.216500	-9.678300	26.946017	0.000351	20.701690
2259.677917	-3.003800	3.216800	-9.661800	26.884766	0.000349	20.694152
2260.674953	-2.974900	3.216000	-9.565900	26.855885	0.000349	20.695933
2261.685237	-2.996100	3.214600	-9.630500	26.864471	0.000348	20.708360
2262.679149	-3.006500	3.214100	-9.662700	26.889390	0.000348	20.715399
2263.656069	-3.024700	3.213100	-9.718000	26.924284	0.000349	20.700699
2264.654297	-2.996400	3.212900	-9.625600	26.955559	0.000347	20.715079
2265.654008	-3.000000	3.213300	-9.638800	26.983623	0.000346	20.699677
2266.657370	-3.003900	3.212200	-9.648200	27.002612	0.000345	20.691746
2267.657459	-3.001000	3.212200	-9.639200	27.047354	0.000346	20.690748
2268.659213	-3.018600	3.211600	-9.693400	27.100361	0.000344	20.680045
2269.658210	-2.988500	3.210300	-9.592300	27.156488	0.000342	20.696667
2270.654857	-2.983600	3.210400	-9.577700	27.133503	0.000342	20.696783
2271.659219	-2.991500	3.210600	-9.603100	27.113562	0.000342	20.686684
2272.656885	-2.993400	3.210000	-9.607900	27.145278	0.000342	20.690133
2273.670314	-3.004800	3.209000	-9.641600	27.144978	0.000342	20.705005
2274.684288	-2.997000	3.208900	-9.616200	27.153285	0.000339	20.701507
2275.663057	-3.033600	3.207000	-9.727700	27.144831	0.000339	20.705806
2276.681329	-2.991100	3.208900	-9.596900	27.149154	0.000338	20.688816
2277.682570	-3.018400	3.207500	-9.680100	27.173557	0.000337	20.692023
2278.662675	-3.029300	3.206800	-9.713000	27.188722	0.000337	20.694001
2279.680738	-3.006800	3.206100	-9.639100	27.183170	0.000334	20.689838
2280.687233	-3.012400	3.206000	-9.657100	27.173717	0.000336	20.689814
2281.676999	-2.997600	3.205600	-9.607100	27.173124	0.000334	20.687794
2282.680806	-3.003100	3.205500	-9.624800	27.123574	0.000334	20.676838
2283.667442	-3.016500	3.204200	-9.664000	27.078810	0.000334	20.692985
2284.661807	-2.998100	3.203900	-9.604600	27.049181	0.000332	20.707759
2285.677889	-2.975800	3.205500	-9.538400	27.041759	0.000332	20.705037
2286.686009	-2.999900	3.203500	-9.608800	27.110024	0.000332	20.683126
2287.682518	-2.996800	3.203900	-9.600300	27.123703	0.000332	20.691194
2288.673510	-2.990100	3.202300	-9.574100	27.167547	0.000334	20.688823
2289.673661	-3.012900	3.201100	-9.642800	27.161799	0.000331	20.687783
2290.662399	-2.971900	3.201300	-9.512700	27.137560	0.000329	20.678102
2291.666813	-3.012100	3.199700	-9.636500	27.110160	0.000329	20.697488
2292.666414	-3.017900	3.199900	-9.656300	27.114526	0.000330	20.693343
2293.666415	-3.032100	3.198500	-9.696800	27.088903	0.000330	20.663304
2294.667618	-3.015400	3.199300	-9.645600	27.053763	0.000330	20.678225
2295.670036	-3.032300	3.197400	-9.693800	27.019229	0.000328	20.675264
2296.667913	-2.977200	3.200500	-9.527200	27.016253	0.000330	20.657571
2297.664950	-2.996800	3.198900	-9.585700	27.003044	0.000328	20.666574
2298.688087	-2.990900	3.198000	-9.563800	26.996621	0.000326	20.672918
2299.664994	-2.983500	3.197200	-9.537900	26.991337	0.000325	20.682303
2300.667902	-2.988600	3.195800	-9.550500	27.000589	0.000325	20.670269
2301.665290	-2.975700	3.197100	-9.512400	27.000118	0.000325	20.677382
2302.699896	-3.003400	3.196900	-9.601000	26.985906	0.000324	20.670202
2303.688699	-2.989200	3.196300	-9.553000	26.985679	0.000324	20.669500
2304.687782	-2.986900	3.196400	-9.546500	26.988337	0.000324	20.678337
2305.691132	-3.002000	3.194000	-9.586600	26.972753	0.000321	20.674993
2306.702098	-3.001800	3.192600	-9.581600	26.970070	0.000321	20.643843
2307.702213	-3.000000	3.192800	-9.577700	27.009450	0.000321	20.679181
2308.666754	-3.015700	3.192800	-9.627800	27.037030	0.000321	20.668035
2309.667252	-2.998400	3.192100	-9.569700	27.024024	0.000320	20.677716
2310.704474	-2.983000	3.192600	-9.522600	27.043013	0.000320	20.666465
2311.674593	-2.991900	3.194400	-9.556400	27.059734	0.000319	20.673799
2312.672449	-3.006500	3.189900	-9.589900	27.108424	0.000319	20.660177
2313.676703	-3.002800	3.190100	-9.578300	27.122561	0.000318	20.648315
2314.675999	-2.970100	3.192200	-9.480600	27.133753	0.000320	20.690396
2315.673903	-2.997900	3.188800	-9.559100	27.163625	0.000318	20.659745
2316.675305	-3.015400	3.189100	-9.614500	27.162689	0.000316	20.682988
2317.669833	-2.996000	3.188500	-9.552500	27.150187	0.000316	20.659980
2318.674869	-2.991800	3.187800	-9.536800	27.123493	0.000315	20.680550
2319.669957	-2.995200	3.186700	-9.544100	27.126566	0.000313	20.663251
2320.696681	-2.997800	3.187000	-9.552600	27.158875	0.000314	20.672039
2321.692628	-2.997000	3.186100	-9.547400	27.164239	0.000314	20.648508
2322.673223	-2.982200	3.185200	-9.497700	27.179503	0.000317	20.660542
2323.695337	-3.012000	3.187400	-9.598500	27.178983	0.000313	20.654328
2324.704748	-2.953400	3.187100	-9.411300	27.235999	0.000311	20.659520
2325.697197	-2.966200	3.184600	-9.445200	27.215201	0.000314	20.673690
2326.705077	-3.001000	3.183000	-9.551300	27.197001	0.000310	20.680041
2327.695431	-3.015900	3.182400	-9.596400	27.143332	0.000311	20.661146
2328.703877	-3.006200	3.184600	-9.571500	27.113184	0.000310	20.664490
2329.703671	-3.000200	3.182600	-9.546800	27.056364	0.000309	20.681790
2330.694545	-2.962500	3.182700	-9.427500	27.016312	0.000308	20.676124
2331.701387	-2.986600	3.181800	-9.501600	27.012369	0.000308	20.657458
2332.681017	-2.996500	3.182300	-9.534700	26.980387	0.000307	20.671765
2333.678154	-2.970800	3.179900	-9.446200	27.005953	0.000308	20.673767
2334.684288	-3.004400	3.179700	-9.552700	27.030293	0.000305	20.673114
2335.681353	-2.995400	3.179300	-9.522600	27.092827	0.000306	20.658241
2336.701591	-2.997300	3.177500	-9.522600	27.139525	0.000305	20.696676
2337.705096	-2.965300	3.179000	-9.426000	27.211929	0.000304	20.663760
2338.699420	-3.002200	3.177700	-9.539700	27.228281	0.000303	20.669777
2339.703363	-3.014200	3.176400	-9.572300	27.281855	0.000303	20.677199
2340.703051	-2.984500	3.177200	-9.481700	27.256401	0.000303	20.682889
2341.699069	-3.006300	3.176100	-9.546700	27.253475	0.000304	20.666668
2342.684473	-3.016700	3.174700	-9.576500	27.220704	0.000302	20.642712
2343.687869	-3.007500	3.174400	-9.546100	27.168230	0.000304	20.651574
2344.683364	-2.994500	3.175000	-9.507000	27.184828	0.000302	20.654043
2345.705703	-2.996500	3.175700	-9.515200	27.232545	0.000302	20.669798
2346.700950	-2.999300	3.173100	-9.516100	27.249295	0.000302	20.660092
2347.706558	-3.003500	3.172900	-9.529500	27.316255	0.000300	20.653952
2348.704211	-3.014200	3.173400	-9.564400	27.349103	0.000300	20.666608
2349.710971	-3.003000	3.171500	-9.523600	27.399902	0.000300	20.677410
2350.709263	-3.021200	3.170100	-9.576200	27.417941	0.000299	20.685127
2351.715194	-2.989800	3.170300	-9.477400	27.466395	0.000298	20.660377
2352.684010	-2.992300	3.170000	-9.484000	27.472295	0.000299	20.673900
2353.685932	-2.994300	3.169100	-9.488900	27.516191	0.000298	20.673493
2354.683297	-2.987700	3.168900	-9.466900	27.483728	0.000298	20.657426
2355.683987	-2.990300	3.170300	-9.479400	27.500157	0.000297	20.673482
2356.708868	-3.005700	3.167000	-9.518300	27.501466	0.000296	20.661996
2357.697806	-3.024800	3.166700	-9.577100	27.520097	0.000295	20.652291
2358.702084	-3.023500	3.166700	-9.574200	27.522851	0.000293	20.661701
2359.710837	-2.998900	3.165900	-9.493400	27.535024	0.000294	20.675846
2360.704649	-3.001900	3.166000	-9.503300	27.504992	0.000293	20.674080
2361.714267	-3.008700	3.164400	-9.520000	27.455831	0.000294	20.670613
2362.710343	-3.012600	3.163000	-9.527600	27.464217	0.000293	20.679524
2363.711538	-3.004900	3.164400	-9.507800	27.429138	0.000293	20.655136
2364.707082	-3.011800	3.162700	-9.525000	27.397039	0.000293	20.701558
2365.684503	-3.015100	3.162100	-9.532700	27.392853	0.000289	20.673163
2366.685433	-2.989800	3.162000	-9.453000	27.363624	0.000290	20.676001
2367.691669	-3.006600	3.160600	-9.501700	27.345988	0.000289	20.655888
2368.683581	-2.998200	3.159800	-9.472000	27.349801	0.000289	20.693392
2369.683835	-2.991500	3.159200	-9.449700	27.386426	0.000290	20.669541
2370.691606	-2.987700	3.159500	-9.437400	27.387393	0.000289	20.669566
2371.688015	-2.989800	3.157800	-9.439500	27.391464	0.000288	20.675084
2372.687715	-3.000100	3.157200	-9.471700	27.428698	0.000288	20.693578
2373.687521	-2.990100	3.157600	-9.439400	27.400768	0.000286	20.678281
2374.690433	-3.001700	3.156300	-9.473100	27.397615	0.000287	20.682696
2375.693382	-2.987300	3.156500	-9.428300	27.420319	0.000288	20.693683
2376.690366	-3.007800	3.154800	-9.488300	27.429267	0.000286	20.675182
2377.692559	-3.017500	3.154900	-9.519000	27.411022	0.000285	20.674845
2378.692952	-2.989700	3.154800	-9.431200	27.417149	0.000286	20.681010
2379.715395	-2.966100	3.155500	-9.358400	27.461794	0.000285	20.692735
2380.691833	-2.977600	3.154500	-9.392700	27.447190	0.000284	20.674248
2381.726345	-2.990500	3.151800	-9.424100	27.416971	0.000284	20.674192
2382.690398	-3.005700	3.151800	-9.472700	27.404772	0.000285	20.676619
2383.694026	-3.000300	3.152700	-9.458100	27.376786	0.000285	20.666956
2384.707244	-3.009300	3.150400	-9.479000	27.346302	0.000284	20.677069
2385.691597	-2.996500	3.149900	-9.437800	27.361955	0.000284	20.669106
2386.697956	-3.012500	3.149000	-9.485200	27.360136	0.000282	20.702366
2387.691931	-2.997400	3.148400	-9.435000	27.358826	0.000280	20.686823
2388.707937	-3.001500	3.147900	-9.447900	27.349260	0.000282	20.699486
2389.691206	-3.001900	3.146500	-9.444500	27.379328	0.000280	20.687058
2390.705287	-2.989500	3.146800	-9.406200	27.417872	0.000279	20.690747
2391.711231	-3.009200	3.145900	-9.466100	27.435561	0.000279	20.679619
2392.723370	-3.017800	3.144600	-9.488700	27.471502	0.000280	20.690174
2393.714150	-3.015000	3.144100	-9.478500	27.505540	0.000278	20.679847
2394.690166	-2.988300	3.144200	-9.393100	27.515290	0.000280	20.683493
2395.693903	-2.979100	3.142400	-9.360200	27.546369	0.000279	20.683469
2396.696875	-3.008400	3.143000	-9.454800	27.526227	0.000277	20.699240
2397.695618	-3.019800	3.140800	-9.483200	27.498048	0.000276	20.678948
2398.692036	-3.006000	3.141000	-9.440400	27.504824	0.000278	20.685766
2399.691147	-3.001900	3.140200	-9.425600	27.531613	0.000277	20.691857
2400.691609	-2.998500	3.139700	-9.412600	27.510057	0.000276	20.691031
2401.694116	-3.018900	3.138800	-9.474800	27.511219	0.000277	20.693623
2402.696831	-2.977500	3.138800	-9.345100	27.518027	0.000276	20.698102
2403.696167	-2.983300	3.137100	-9.358000	27.498195	0.000276	20.709918
2404.696745	-2.981000	3.138800	-9.355800	27.455566	0.000278	20.676510
2405.696114	-3.007700	3.136200	-9.432300	27.433334	0.000276	20.691130
2406.697060	-3.000400	3.137200	-9.411300	27.472550	0.000275	20.683167
2407.698191	-3.015000	3.134300	-9.448100	27.490612	0.000273	20.698970
2408.694617	-3.001000	3.133600	-9.403000	27.473817	0.000273	20.696297
2409.696320	-2.989700	3.133800	-9.367900	27.468071	0.000275	20.696679
2410.697945	-3.006900	3.132700	-9.417500	27.501623	0.000272	20.684442
2411.694666	-2.995600	3.131200	-9.378500	27.473688	0.000275	20.703754
2412.699499	-2.996000	3.131800	-9.382100	27.423265	0.000273	20.692380
2413.701023	-3.000900	3.130100	-9.391100	27.439185	0.000271	20.711242
2414.697963	-2.996400	3.130700	-9.379900	27.411182	0.000274	20.680223
2415.695506	-3.003200	3.129500	-9.398200	27.398041	0.000271	20.705886
2416.716014	-3.005300	3.127700	-9.398700	27.374737	0.000272	20.705675
2417.698391	-3.017600	3.126200	-9.432000	27.370023	0.000270	20.689078
2418.725871	-2.987700	3.126800	-9.340800	27.339986	0.000271	20.681147
2419.702462	-2.998500	3.123900	-9.366000	27.347748	0.000271	20.692749
2420.702587	-2.992000	3.124300	-9.347300	27.372729	0.000271	20.707923
2421.701927	-3.001500	3.123300	-9.372300	27.401040	0.000271	20.701790
2422.729125	-3.017100	3.122000	-9.418400	27.399204	0.000268	20.708952
2423.722083	-2.995200	3.121200	-9.347900	27.423761	0.000268	20.710898
2424.732001	-3.016200	3.122100	-9.415800	27.476589	0.000269	20.712837
2425.728881	-2.996400	3.121100	-9.350900	27.441695	0.000269	20.712819
2426.730825	-3.002000	3.121300	-9.369100	27.456501	0.000268	20.715387
2427.729123	-3.026800	3.117700	-9.435500	27.500827	0.000270	20.696444
2428.702362	-3.023300	3.118600	-9.428300	27.530873	0.000268	20.716718
2429.735556	-2.986500	3.119700	-9.315300	27.486242	0.000267	20.714014
2430.703832	-2.995500	3.116300	-9.333300	27.465651	0.000269	20.700884
2431.703847	-3.010800	3.114300	-9.374700	27.444167	0.000268	20.723842
2432.707251	-2.987900	3.115200	-9.307000	27.388056	0.000266	20.692521
2433.710420	-2.999400	3.114700	-9.342300	27.394410	0.000266	20.721200
2434.707139	-2.993900	3.115600	-9.326300	27.421129	0.000265	20.704456
2435.704727	-3.008400	3.112900	-9.364300	27.421845	0.000265	20.728886
2436.712080	-2.991700	3.112500	-9.310800	27.462499	0.000264	20.739440
2437.714312	-2.970700	3.111400	-9.242300	27.464416	0.000266	20.712444
2438.729666	-2.992700	3.110200	-9.306700	27.468294	0.000266	20.719665
2439.732162	-3.001400	3.109200	-9.330700	27.467725	0.000264	20.721938
2440.738223	-3.000600	3.108600	-9.327700	27.507491	0.000266	20.706943
2441.728946	-2.997600	3.107200	-9.312900	27.539984	0.000264	20.716876
2442.746762	-2.969400	3.108200	-9.228300	27.554146	0.000264	20.731601
2443.738863	-3.002100	3.104400	-9.318800	27.559819	0.000263	20.712651
2444.727583	-2.993700	3.105100	-9.294600	27.531299	0.000265	20.706715
2445.739672	-3.005000	3.104200	-9.327400	27.541513	0.000263	20.718415
2446.726437	-3.007800	3.102700	-9.330600	27.602524	0.000264	20.718162
2447.711742	-3.013300	3.101500	-9.343600	27.585713	0.000263	20.724007
2448.742520	-3.000500	3.102100	-9.306200	27.650760	0.000263	20.706005
2449.716815	-3.013300	3.099700	-9.339600	27.619366	0.000263	20.742696
2450.714826	-2.989700	3.100800	-9.269700	27.615418	0.000263	20.711695
2451.716540	-3.012500	3.098600	-9.333300	27.643943	0.000263	20.712423
2452.720056	-3.017900	3.097000	-9.345100	27.629052	0.000262	20.736321
2453.716340	-3.009500	3.096900	-9.319400	27.636941	0.000262	20.705851
2454.728410	-3.015100	3.095300	-9.332200	27.586097	0.000263	20.708271
2455.713448	-3.009800	3.096500	-9.318900	27.634578	0.000262	20.711060
2456.718083	-2.998900	3.094100	-9.277500	27.614567	0.000261	20.733599
2457.721931	-2.992100	3.094200	-9.257200	27.636121	0.000263	20.733002
2458.717142	-2.965300	3.094400	-9.174600	27.653995	0.000261	20.724435
2459.728259	-3.005100	3.092100	-9.290100	27.672868	0.000260	20.745324
2460.722481	-3.007700	3.091200	-9.296500	27.716260	0.000262	20.729244
2461.719134	-3.014200	3.089000	-9.309900	27.732360	0.000261	20.737860
2462.718775	-2.997700	3.088600	-9.257400	27.755594	0.000259	20.720937
2463.715490	-2.991900	3.089400	-9.242200	27.765286	0.000261	20.733062
2464.719757	-2.988800	3.087500	-9.227100	27.789933	0.000259	20.717087
2465.720289	-3.001500	3.087700	-9.266700	27.834422	0.000259	20.739103
2466.738114	-2.969400	3.086400	-9.164300	27.856534	0.000260	20.726743
2467.720297	-3.016800	3.084400	-9.303900	27.870936	0.000260	20.729859
2468.726032	-2.985700	3.083000	-9.203600	27.880959	0.000259	20.744214
2469.725447	-2.987800	3.082400	-9.208900	27.866201	0.000259	20.744534
2470.724118	-3.001900	3.081900	-9.250100	27.832555	0.000260	20.741018
2471.721786	-2.984500	3.081200	-9.195000	27.846860	0.000258	20.755415
2472.723186	-3.005900	3.078500	-9.252300	27.812314	0.000260	20.732974
2473.722004	-3.000300	3.078500	-9.234200	27.747368	0.000258	20.738738
2474.719226	-3.002600	3.078500	-9.241900	27.685123	0.000257	20.751017
2475.721151	-3.020600	3.077200	-9.294000	27.692222	0.000258	20.739195
2476.722795	-3.013700	3.074100	-9.263800	27.680987	0.000260	20.743536
2477.722646	-2.965500	3.075900	-9.120600	27.682718	0.000258	20.752391
2478.754764	-3.000700	3.073800	-9.221900	27.668606	0.000258	20.747674
2479.743281	-3.004900	3.073000	-9.232700	27.666299	0.000258	20.729704
2480.742135	-3.002400	3.071400	-9.220100	27.676317	0.000256	20.742156
2481.741156	-2.992700	3.071300	-9.190400	27.687626	0.000259	20.762545
2482.741738	-3.044900	3.069300	-9.344300	27.720267	0.000255	20.750821
2483.742718	-2.997900	3.069300	-9.200400	27.779414	0.000257	20.743487
2484.751026	-3.021000	3.068200	-9.267400	27.794393	0.000257	20.754769
2485.741242	-3.009900	3.067600	-9.231600	27.792184	0.000256	20.749226
2486.739747	-3.008300	3.065700	-9.222100	27.727708	0.000258	20.740291
2487.742907	-3.017000	3.064400	-9.242700	27.678955	0.000256	20.761407
2488.746168	-3.010600	3.063600	-9.221300	27.683912	0.000255	20.764024
2489.742311	-2.993000	3.063300	-9.166000	27.670743	0.000253	20.752668
2490.747507	-2.986200	3.061900	-9.142100	27.688470	0.000256	20.756283
2491.745297	-3.015200	3.059500	-9.224300	27.693824	0.000255	20.754084
2492.756810	-3.005400	3.058900	-9.192600	27.696658	0.000257	20.754565
2493.746034	-3.014000	3.056900	-9.212600	27.703053	0.000256	20.762896
2494.744792	-3.000600	3.057900	-9.174700	27.750788	0.000254	20.750241
2495.746755	-2.992900	3.055600	-9.144300	27.721478	0.000257	20.752040
2496.748140	-3.006300	3.054700	-9.182400	27.710267	0.000256	20.769208
2497.750493	-2.977100	3.054200	-9.091100	27.708861	0.000254	20.768267
2498.726338	-2.973800	3.054000	-9.080200	27.738416	0.000257	20.770982
2499.724172	-2.977300	3.052100	-9.086100	27.729114	0.000255	20.748345
2500.727461	-3.013800	3.049700	-9.189800	27.721471	0.000254	20.769103
2501.732378	-2.994400	3.050800	-9.134400	27.695091	0.000254	20.781438
2502.723123	-3.009800	3.049600	-9.177700	27.744834	0.000256	20.762268
2503.726857	-3.005300	3.048600	-9.160700	27.773251	0.000254	20.786123
2504.768593	-2.993900	3.046400	-9.119600	27.778109	0.000254	20.763037
2505.753461	-3.032200	3.046500	-9.236800	27.808692	0.000253	20.764891
2506.753869	-3.000500	3.044400	-9.133800	27.841500	0.000254	20.777996
2507.730085	-3.004800	3.043000	-9.143200	27.868298	0.000253	20.779836
2508.752054	-2.999300	3.041900	-9.121800	27.857989	0.000253	20.767564
2509.749511	-3.007800	3.039700	-9.141800	27.824435	0.000253	20.759872
2510.756938	-3.024100	3.039800	-9.192100	27.818034	0.000252	20.784725
2511.752653	-2.977400	3.039200	-9.046900	27.800846	0.000254	20.763160
2512.757595	-2.984200	3.037800	-9.064400	27.843653	0.000252	20.799129
2513.748152	-3.014100	3.036900	-9.152400	27.868249	0.000252	20.779787
2514.751565	-3.006500	3.036100	-9.126900	27.874594	0.000255	20.769103
2515.757839	-3.002100	3.034100	-9.107100	27.902518	0.000254	20.794363
2516.760044	-2.982300	3.033400	-9.045600	27.935390	0.000252	20.778611
2517.763558	-2.999300	3.032500	-9.093800	27.956020	0.000250	20.776141
2518.753689	-3.014800	3.030200	-9.134800	27.958993	0.000252	20.791462
2519.759396	-3.006000	3.029200	-9.105100	27.926464	0.000252	20.784325
2520.757107	-3.017800	3.028300	-9.138400	27.868298	0.000250	20.786949
2521.732574	-2.984900	3.026700	-9.033300	27.889871	0.000251	20.785902
2522.761326	-3.016800	3.025600	-9.126200	27.904598	0.000251	20.799775
2523.756860	-2.998100	3.025300	-9.068600	27.881789	0.000250	20.782035
2524.760427	-3.013800	3.024000	-9.112600	27.873432	0.000252	20.818668
2525.735085	-2.972200	3.021800	-8.979000	27.893714	0.000253	20.798304
2526.739580	-2.994900	3.020400	-9.045500	27.931604	0.000252	20.780490
2527.754966	-3.016700	3.020500	-9.111100	27.933635	0.000251	20.787749
2528.755745	-3.043900	3.016800	-9.181600	27.897856	0.000253	20.785877
2529.760356	-2.995100	3.017800	-9.037900	27.861734	0.000252	20.771333
2530.760411	-3.010500	3.017100	-9.081400	27.822728	0.000251	20.801303
2531.762582	-2.976400	3.015400	-8.974300	27.829348	0.000251	20.786155
2532.762331	-3.021300	3.013000	-9.102000	27.861758	0.000251	20.795540
2533.741843	-2.989900	3.012600	-9.005600	27.906685	0.000250	20.797608
2534.762063	-2.993600	3.011600	-9.014900	27.888936	0.000250	20.811987
2535.760368	-2.964900	3.010400	-8.924500	27.860663	0.000250	20.800127
2536.763692	-2.994600	3.008000	-9.007000	27.817099	0.000252	20.807492
2537.756851	-2.961400	3.009300	-8.910300	27.730235	0.000248	20.820596
2538.740583	-2.992500	3.005200	-8.992300	27.733306	0.000252	20.795238
2539.748457	-3.014200	3.003600	-9.051800	27.689559	0.000250	20.802898
2540.741612	-3.020600	3.002800	-9.069300	27.655615	0.000250	20.787233
2541.738001	-2.993400	3.002500	-8.986800	27.665908	0.000250	20.810867
2542.737399	-2.975800	3.002500	-8.933900	27.666900	0.000249	20.827511
2543.743201	-3.003500	2.999600	-9.007600	27.705280	0.000252	20.791690
2544.750419	-3.015300	2.998400	-9.039800	27.758383	0.000254	20.808145
2545.766851	-3.021200	2.997000	-9.053100	27.785117	0.000252	20.806125
2546.766273	-3.028400	2.996900	-9.074500	27.863772	0.000252	20.799937
2547.762486	-3.004800	2.995100	-8.998200	27.866892	0.000252	20.798335
2548.764220	-3.001000	2.993100	-8.981100	27.929346	0.000248	20.798132
2549.758389	-3.016800	2.993200	-9.028200	27.941772	0.000250	20.820596
2550.767493	-2.981700	2.990900	-8.917000	27.945541	0.000251	20.800207
2551.767911	-3.013900	2.989400	-9.008500	27.990048	0.000251	20.801384
2552.767854	-2.999600	2.988100	-8.961700	28.031641	0.000248	20.808637
2553.745543	-3.014700	2.986500	-9.000500	28.059310	0.000252	20.824635
2554.743404	-2.995700	2.986800	-8.946100	28.044641	0.000251	20.804180
2555.744864	-2.978600	2.985200	-8.890800	28.046885	0.000251	20.826826
2556.746371	-2.994700	2.982500	-8.931300	28.041417	0.000249	20.797615
2557.750224	-2.993300	2.982300	-8.924800	28.037024	0.000251	20.809315
2558.773636	-2.971800	2.981800	-8.860400	28.035060	0.000249	20.827251
2559.746789	-3.009400	2.978900	-8.962200	28.017631	0.000250	20.823932
2560.747802	-3.000300	2.977800	-8.932600	28.034889	0.000250	20.824234
2561.742824	-2.991000	2.975800	-8.900200	28.020635	0.000249	20.812258
2562.764942	-2.984000	2.974900	-8.875600	28.011654	0.000250	20.825502
2563.778709	-2.995100	2.972800	-8.902600	28.023853	0.000249	20.816919
2564.766424	-3.002500	2.969700	-8.915800	28.029205	0.000249	20.833212
2565.750412	-2.975300	2.971300	-8.839200	28.038260	0.000248	20.828101
2566.749763	-3.011300	2.968600	-8.938300	28.042816	0.000250	20.830318
2567.753689	-2.992900	2.969000	-8.885200	28.077917	0.000250	20.816813
2568.749935	-2.987200	2.965400	-8.856600	28.086102	0.000249	20.836432
2569.750951	-3.006400	2.964000	-8.909900	28.090017	0.000248	20.819985
2570.753404	-2.987200	2.962700	-8.849200	28.125440	0.000247	20.848057
2571.754332	-3.011400	2.961500	-8.917100	28.144329	0.000249	20.845262
2572.751694	-3.011900	2.961200	-8.917000	28.126853	0.000249	20.822928
2573.752439	-3.036900	2.957200	-8.978200	28.106398	0.000249	20.845957
2574.752527	-2.976600	2.957600	-8.802600	28.084309	0.000248	20.834153
2575.754505	-3.011400	2.955800	-8.900600	28.078308	0.000247	20.834276
2576.774311	-2.987700	2.955600	-8.828700	28.056543	0.000247	20.828014
2577.774251	-2.990300	2.953000	-8.828900	28.060636	0.000246	20.823125
2578.775987	-3.034600	2.949600	-8.949800	28.016358	0.000248	20.822176
2579.755584	-2.997800	2.950500	-8.843900	28.021815	0.000247	20.814393
2580.754777	-3.003400	2.947900	-8.852200	28.077415	0.000248	20.826739
2581.786477	-3.028400	2.946400	-8.921300	28.088021	0.000248	20.830304
2582.775290	-2.998700	2.944900	-8.830500	28.066459	0.000248	20.834676
2583.776359	-2.971000	2.945100	-8.748500	28.072429	0.000247	20.826935
2584.761487	-2.999100	2.943800	-8.827800	28.110361	0.000248	20.819128
2585.789404	-3.016200	2.939400	-8.864800	28.132247	0.000249	20.840211
2586.753359	-3.021700	2.939500	-8.881000	28.148788	0.000248	20.830785
2587.769126	-2.973500	2.937500	-8.734000	28.182270	0.000247	20.791473
2588.758834	-2.997100	2.936000	-8.798300	28.187335	0.000248	20.805107
2589.782473	-3.001600	2.935100	-8.808600	28.211592	0.000247	20.818148
2590.764739	-3.034400	2.930800	-8.892400	28.253360	0.000247	20.800931
2591.757417	-3.018000	2.929900	-8.841000	28.246376	0.000246	20.785365
2592.762242	-2.992300	2.930800	-8.769200	28.182563	0.000247	20.812630
2593.757638	-3.023000	2.928400	-8.852100	28.171559	0.000247	20.818622
2594.778918	-3.000600	2.926200	-8.780100	28.193622	0.000245	20.804798
2595.787027	-2.992400	2.924800	-8.751200	28.189034	0.000247	20.794016
2596.776149	-2.998300	2.923800	-8.765900	28.136162	0.000248	20.799582
2597.758923	-3.030600	2.920100	-8.848000	28.131794	0.000247	20.802297
2598.758262	-3.005200	2.919000	-8.771800	28.146346	0.000247	20.805567
2599.760049	-2.996200	2.918300	-8.743100	28.155937	0.000246	20.805739
2600.786386	-2.980000	2.918900	-8.697300	28.181272	0.000249	20.815124
2601.758394	-2.979100	2.916100	-8.686700	28.216968	0.000248	20.803646
2602.758345	-3.002900	2.914200	-8.749500	28.217212	0.000246	20.792512
2603.761992	-2.976100	2.912200	-8.666100	28.203114	0.000247	20.806294
2604.767160	-3.001000	2.910000	-8.732100	28.158372	0.000248	20.784009
2605.788887	-2.995500	2.908700	-8.712400	28.140676	0.000247	20.799386
2606.765383	-2.991400	2.907200	-8.695500	28.116924	0.000247	20.800130
2607.768337	-2.998800	2.904400	-8.708700	28.078276	0.000246	20.784933
2608.768783	-2.985400	2.904000	-8.668400	28.099326	0.000246	20.799010
2609.767393	-3.016200	2.900300	-8.746200	28.163277	0.000247	20.809810
2610.764515	-2.990000	2.900700	-8.671100	28.192924	0.000247	20.796509
2611.769195	-3.001300	2.898100	-8.696300	28.184900	0.000249	20.770887
2612.767305	-3.009100	2.895500	-8.711500	28.168269	0.000247	20.769791
2613.772429	-3.025800	2.892700	-8.751200	28.193922	0.000247	20.799410
2614.765669	-3.014100	2.892800	-8.718500	28.178599	0.000249	20.777346
2615.788273	-3.007100	2.890900	-8.691800	28.148156	0.000247	20.793640
2616.803633	-2.981900	2.889200	-8.612900	28.154311	0.000246	20.773757
2617.768495	-2.996400	2.887600	-8.651300	28.155521	0.000248	20.766440
2618.793818	-3.030000	2.885200	-8.739500	28.144573	0.000246	20.796197
2619.786206	-2.992700	2.882900	-8.626400	28.173077	0.000247	20.789330
2620.770918	-2.995900	2.881200	-8.631000	28.204901	0.000246	20.785333
2621.772080	-2.980700	2.881100	-8.586300	28.227751	0.000247	20.782734
2622.772163	-2.993100	2.878500	-8.613400	28.219347	0.000248	20.786601
2623.790539	-3.021000	2.873700	-8.680400	28.231997	0.000245	20.786060
2624.798059	-2.981400	2.874000	-8.567800	28.222075	0.000247	20.772278
2625.771529	-3.007700	2.871600	-8.635900	28.225899	0.000246	20.793671
2626.773962	-3.033200	2.869500	-8.702400	28.248651	0.000247	20.775327
2627.777329	-2.999400	2.867600	-8.600000	28.298521	0.000245	20.770062
2628.778578	-3.006000	2.867000	-8.615800	28.304074	0.000245	20.770437
2629.778385	-2.992400	2.865100	-8.572800	28.294729	0.000247	20.780469
2630.770463	-3.028600	2.862100	-8.666600	28.311041	0.000247	20.776503
2631.796267	-3.005600	2.860600	-8.597200	28.305170	0.000247	20.777230
2632.774900	-3.025100	2.858700	-8.646000	28.278602	0.000245	20.762334
2633.773571	-2.989200	2.856500	-8.536700	28.280162	0.000246	20.752999
2634.776841	-3.000700	2.855400	-8.567000	28.274608	0.000244	20.765425
2635.793334	-2.992300	2.852700	-8.535200	28.252108	0.000247	20.737080
2636.796096	-2.975300	2.851800	-8.483600	28.220610	0.000245	20.764164
2637.771993	-2.968000	2.849700	-8.457300	28.263020	0.000247	20.772724
2638.798161	-2.954800	2.847700	-8.413500	28.253608	0.000245	20.757558
2639.788581	-3.012200	2.843800	-8.565400	28.299288	0.000246	20.768938
2640.788538	-2.994100	2.841700	-8.506800	28.301448	0.000244	20.752145
2641.802104	-2.979700	2.841200	-8.465600	28.287466	0.000244	20.768414
2642.799671	-3.030500	2.836800	-8.596400	28.265657	0.000245	20.746455
2643.775497	-3.028300	2.835900	-8.587100	28.229865	0.000245	20.773008
2644.771549	-2.983400	2.832700	-8.449900	28.262318	0.000245	20.761112
2645.778074	-3.002800	2.832100	-8.503500	28.280531	0.000246	20.781347
2646.776686	-3.007700	2.829000	-8.507700	28.250049	0.000246	20.764881
2647.775084	-2.983700	2.827700	-8.436500	28.277884	0.000247	20.748808
2648.798778	-3.010800	2.825000	-8.504300	28.319430	0.000247	20.756026
2649.791934	-3.007600	2.822100	-8.486400	28.376060	0.000247	20.747140
2650.788227	-3.001500	2.819800	-8.462800	28.406099	0.000244	20.764111
2651.777634	-3.020600	2.817200	-8.507900	28.416312	0.000248	20.769180
2652.776292	-3.011300	2.816200	-8.479800	28.415426	0.000249	20.744579
2653.773443	-2.988000	2.813800	-8.406200	28.410961	0.000244	20.751463
2654.775565	-2.987900	2.810600	-8.395600	28.408956	0.000246	20.747073
2655.776087	-3.012800	2.808600	-8.460800	28.429820	0.000244	20.758601
2656.774869	-3.003600	2.807000	-8.429600	28.450489	0.000245	20.748594
2657.801273	-3.004500	2.804400	-8.424300	28.426371	0.000244	20.763188
2658.779563	-2.992700	2.801400	-8.383000	28.393294	0.000246	20.747424
2659.784050	-2.978900	2.798900	-8.337200	28.311790	0.000246	20.754498
2660.775039	-2.998600	2.796000	-8.383100	28.305020	0.000247	20.742465
2661.778694	-2.994400	2.794000	-8.365200	28.308574	0.000247	20.754105
2662.790470	-2.977200	2.792100	-8.311600	28.297516	0.000247	20.745816
2663.802593	-3.031600	2.786800	-8.447300	28.290864	0.000246	20.765197
2664.778741	-3.010300	2.786100	-8.386000	28.340547	0.000246	20.773496
2665.777673	-3.025400	2.782900	-8.417700	28.346247	0.000246	20.742725
2666.782421	-3.010000	2.780200	-8.367500	28.349495	0.000244	20.772074
2667.778471	-2.983100	2.776600	-8.282200	28.404386	0.000245	20.755274
2668.779479	-3.000400	2.775200	-8.325600	28.395966	0.000245	20.731622
2669.778911	-3.001100	2.772700	-8.320000	28.392817	0.000244	20.743150
2670.779199	-3.011800	2.766800	-8.332600	28.428701	0.000246	20.743248
2671.777492	-2.992700	2.766100	-8.276900	28.454232	0.000243	20.745724
2672.785340	-3.002500	2.763900	-8.297300	28.496081	0.000246	20.735236
2673.777258	-2.997000	2.759900	-8.270000	28.544559	0.000247	20.739960
2674.780290	-3.001800	2.755700	-8.271700	28.583653	0.000246	20.748039
2675.781807	-3.016400	2.754300	-8.306500	28.589903	0.000245	20.769032
2676.781098	-3.015900	2.750300	-8.292500	28.636266	0.000246	20.739388
2677.782782	-3.009500	2.747900	-8.268300	28.667727	0.000245	20.751161
2678.795482	-2.990200	2.745800	-8.209000	28.732439	0.000245	20.733364
2679.805409	-3.015000	2.740800	-8.262700	28.771192	0.000248	20.750589
2680.796201	-3.001700	2.738300	-8.218500	28.783675	0.000245	20.740403
2681.807058	-3.006100	2.735100	-8.220500	28.779121	0.000247	20.733445
2682.817138	-3.002200	2.733800	-8.205900	28.762364	0.000245	20.748334
2683.810603	-2.983800	2.730200	-8.143900	28.767841	0.000245	20.746265
2684.780102	-2.998900	2.725100	-8.170200	28.766558	0.000245	20.719841
2685.822411	-3.005800	2.721400	-8.178900	28.778619	0.000248	20.745268
2686.812312	-3.001000	2.719200	-8.159500	28.758702	0.000245	20.739430
2687.780890	-3.004900	2.716400	-8.161700	28.822418	0.000245	20.741025
2688.784500	-2.956500	2.714400	-8.024000	28.839865	0.000246	20.752911
2689.783937	-3.005000	2.708600	-8.137500	28.883063	0.000245	20.736683
2690.808585	-2.986200	2.703500	-8.072400	28.880587	0.000247	20.731344
2691.804809	-3.016100	2.700300	-8.143300	28.858215	0.000245	20.734411
2692.809103	-3.021200	2.698000	-8.149800	28.875807	0.000245	20.736012
2693.786098	-2.989700	2.694600	-8.054500	28.874988	0.000244	20.747041
2694.788065	-2.999800	2.691100	-8.071400	28.855000	0.000244	20.723585
2695.799444	-2.951300	2.687800	-7.931800	28.843924	0.000245	20.728074
2696.787246	-3.003900	2.682200	-8.056600	28.823457	0.000244	20.757245
2697.794450	-2.978300	2.680100	-7.980600	28.821997	0.000243	20.726374
2698.786182	-2.991500	2.674600	-8.000100	28.845262	0.000245	20.737484
2699.795333	-3.019200	2.669200	-8.058400	28.834210	0.000245	20.732988
2700.786089	-3.005900	2.665600	-8.011700	28.804807	0.000246	20.723283
2701.791649	-3.020300	2.663200	-8.042800	28.768343	0.000244	20.745348
2702.785937	-3.031000	2.657400	-8.053600	28.755456	0.000245	20.737582
2703.786768	-3.015100	2.654700	-8.003600	28.728252	0.000245	20.744319
2704.806677	-2.979100	2.650300	-7.893500	28.736156	0.000245	20.735212
2705.811345	-3.003200	2.645200	-7.942700	28.752729	0.000244	20.712075
2706.817321	-3.002100	2.641700	-7.929800	28.790087	0.000246	20.734059
2707.791052	-3.001400	2.637900	-7.916900	28.843153	0.000245	20.732514
2708.790375	-3.014700	2.633600	-7.938800	28.854401	0.000246	20.726775
2709.795548	-3.011100	2.626200	-7.906200	28.825787	0.000247	20.746788
2710.793539	-3.009400	2.623300	-7.892600	28.765414	0.000245	20.727224
2711.791864	-2.985500	2.620500	-7.823100	28.775463	0.000246	20.725967
2712.810830	-3.000900	2.614500	-7.845000	28.793406	0.000247	20.724126
2713.809942	-3.041500	2.607500	-7.929300	28.793950	0.000245	20.710923
2714.790407	-3.004400	2.604400	-7.823200	28.819117	0.000246	20.719205
2715.791021	-2.988700	2.599000	-7.766900	28.794372	0.000246	20.718461
2716.794008	-3.018900	2.592600	-7.824300	28.720671	0.000247	20.739054
2717.817820	-3.015600	2.587700	-7.802900	28.685139	0.000245	20.721281
2718.818126	-2.979800	2.584800	-7.701400	28.661747	0.000244	20.724748
2719.817132	-3.020900	2.577800	-7.786500	28.709966	0.000244	20.723055
2720.794583	-2.980700	2.572600	-7.667100	28.706200	0.000246	20.713571
2721.796844	-3.029200	2.566000	-7.771900	28.715071	0.000247	20.697849
2722.793097	-2.998800	2.561200	-7.679900	28.757932	0.000244	20.713996
2723.795286	-2.990000	2.555700	-7.640100	28.734671	0.000246	20.730870
2724.817039	-3.011800	2.550100	-7.678600	28.752705	0.000247	20.705886
2725.822447	-2.974900	2.545700	-7.570600	28.795320	0.000246	20.711829
2726.805833	-2.973600	2.538900	-7.548400	28.808842	0.000246	20.727347
2727.798133	-2.996800	2.532900	-7.589500	28.844921	0.000247	20.709637
2728.800051	-3.036300	2.524300	-7.663200	28.826289	0.000246	20.728327
2729.798666	-3.023200	2.518200	-7.611800	28.805676	0.000246	20.722261
2730.821380	-3.002000	2.512300	-7.540400	28.784518	0.000247	20.703318
2731.814897	-3.010100	2.507700	-7.547000	28.761582	0.000246	20.704397
2732.837583	-2.982800	2.501400	-7.460500	28.716093	0.000246	20.721639
2733.815611	-2.999100	2.495200	-7.482500	28.747576	0.000246	20.716841
