LabVIEW Measurement	
Writer_Version	2
Reader_Version	2
Separator	Tab
Decimal_Separator	.
Multi_Headings	No
X_Columns	One
Time_Pref	Absolute
Operator	admin
Description	Clolumns are: time, Current, Voltage, Power, Battery Temp, and Chamber Temp
Date	2024/08/16
Time	13:06:06.104549407958984375
***End_of_Header***	
	
Channels	6						
Samples	1	1	1	1	1	1	
Date	2024/09/04	2024/09/04	2024/09/04	2024/09/04	2024/09/04	2024/09/04	
Time	17:03:47.7617425918579101563	17:03:47.772678375244140625	17:03:47.7795462608337402344	17:03:47.74387359619140625	17:03:47.74387359619140625	17:03:47.74387359619140625	
X_Dimension	Time	Time	Time	Time	Time	Time	
X0	0.0000000000000000E+0	0.0000000000000000E+0	0.0000000000000000E+0	0.0000000000000000E+0	0.0000000000000000E+0	0.0000000000000000E+0	
Delta_X	1.000000	1.000000	1.000000	1.000000	1.000000	1.000000	
***End_of_Header***							
X_Value	Untitled	Untitled 1	Untitled 2	Untitled 3	Untitled 4	Untitled 5	Comment
0.000000	0.026506	4.101300	0.108600	21.016520	0.000926	20.838732
1.002712	-3.002700	3.932700	-11.808000	20.996856	0.000926	20.864108
2.007745	-3.011800	3.924500	-11.819000	21.011626	0.000926	20.857545
3.000854	-3.001900	3.920800	-11.768000	21.021478	0.000926	20.849381
4.000138	-2.977800	3.917400	-11.664000	21.013473	0.000924	20.864133
5.001837	-3.009400	3.912600	-11.773000	21.024298	0.000925	20.871166
6.002744	-3.010000	3.910800	-11.770000	21.018955	0.000924	20.870090
7.003810	-2.993100	3.907700	-11.695000	21.013014	0.000924	20.854192
8.004778	-3.001500	3.906600	-11.724000	21.006126	0.000922	20.868164
9.003622	-2.994900	3.903200	-11.689000	21.023829	0.000922	20.854577
10.004372	-2.993300	3.901100	-11.676000	21.049754	0.000920	20.863438
11.005422	-2.976800	3.900800	-11.610000	21.035537	0.000920	20.855856
12.002753	-3.001000	3.897600	-11.696000	21.018585	0.000919	20.882995
13.006282	-2.993100	3.895700	-11.659000	21.040412	0.000919	20.865947
14.007059	-3.008200	3.896300	-11.720000	21.044056	0.000919	20.846359
15.008053	-2.997900	3.894400	-11.674000	21.042234	0.000919	20.872511
16.005186	-3.026900	3.891500	-11.779000	21.042580	0.000917	20.868589
17.010678	-3.016800	3.891400	-11.737000	21.069823	0.000918	20.857433
18.005811	-2.974100	3.892600	-11.576000	21.068549	0.000915	20.883183
19.009313	-2.976400	3.890300	-11.578000	21.059236	0.000915	20.889515
20.008331	-2.999700	3.889000	-11.665000	21.057167	0.000914	20.875593
21.008492	-3.001300	3.888500	-11.670000	21.069966	0.000912	20.860895
22.007154	-2.998700	3.887300	-11.656000	21.100423	0.000913	20.867652
23.012590	-3.005600	3.885900	-11.678000	21.091767	0.000912	20.891234
24.008693	-2.980800	3.887600	-11.587000	21.090370	0.000910	20.896948
25.009621	-3.002400	3.886100	-11.665000	21.104937	0.000911	20.867424
26.014110	-3.006200	3.883600	-11.673000	21.100345	0.000911	20.872788
27.009360	-2.984000	3.885700	-11.593000	21.129255	0.000912	20.880369
28.009707	-2.997000	3.883300	-11.637000	21.130727	0.000909	20.878048
29.014384	-3.019200	3.881700	-11.718000	21.106275	0.000910	20.884883
30.009135	-2.985800	3.882700	-11.592000	21.117153	0.000910	20.873954
31.013525	-3.013600	3.881100	-11.695000	21.148478	0.000909	20.871623
32.012269	-3.009400	3.881400	-11.679000	21.116196	0.000908	20.870626
33.008686	-3.003900	3.880800	-11.656000	21.148977	0.000907	20.875915
34.013104	-3.014100	3.879900	-11.693000	21.140963	0.000907	20.883072
35.015247	-3.008700	3.877700	-11.665000	21.138144	0.000906	20.878355
36.012769	-3.000100	3.879200	-11.637000	21.156428	0.000909	20.882894
37.013521	-3.014900	3.876600	-11.687000	21.150088	0.000906	20.877975
38.019045	-3.002200	3.877900	-11.641000	21.173241	0.000904	20.851824
39.013306	-2.996800	3.876800	-11.617000	21.181397	0.000906	20.863302
40.012814	-2.978300	3.876600	-11.545000	21.176884	0.000906	20.882494
41.016845	-2.986400	3.876400	-11.576000	21.185234	0.000905	20.877570
42.012880	-3.003300	3.875300	-11.637000	21.179497	0.000904	20.893167
43.013027	-2.996900	3.874400	-11.610000	21.209807	0.000905	20.887453
44.018421	-2.999400	3.874700	-11.620000	21.204036	0.000903	20.869353
45.015740	-3.020800	3.874400	-11.702000	21.214715	0.000905	20.865812
46.014962	-2.995500	3.874500	-11.605000	21.244704	0.000904	20.861673
47.017045	-3.013600	3.874300	-11.675000	21.219406	0.000901	20.877615
48.014764	-2.993300	3.873500	-11.593000	21.243776	0.000902	20.866434
49.014349	-3.000700	3.871800	-11.617000	21.252180	0.000903	20.859668
50.017786	-3.012300	3.871900	-11.661000	21.255774	0.000902	20.869901
51.020672	-3.010800	3.870900	-11.654000	21.242725	0.000903	20.851632
52.014769	-3.030200	3.871000	-11.729000	21.253049	0.000901	20.873339
53.018553	-2.999500	3.872200	-11.613000	21.268615	0.000901	20.887488
54.015011	-2.974000	3.873500	-11.519000	21.265298	0.000901	20.844343
55.014766	-2.985400	3.870900	-11.555000	21.282010	0.000901	20.852527
56.016310	-3.001500	3.870700	-11.617000	21.294481	0.000901	20.861209
57.013973	-2.989300	3.871100	-11.570000	21.292634	0.000898	20.856043
58.014477	-2.988800	3.869200	-11.562000	21.316707	0.000900	20.865427
59.018290	-2.999200	3.869200	-11.604000	21.306877	0.000900	20.866499
60.013771	-3.005500	3.868700	-11.626000	21.321170	0.000900	20.856142
61.015667	-2.992400	3.868200	-11.574000	21.327158	0.000900	20.833211
62.017740	-2.997600	3.869500	-11.598000	21.321841	0.000898	20.855866
63.015156	-2.988600	3.867000	-11.555000	21.346491	0.000900	20.857293
64.016682	-2.988600	3.869700	-11.563000	21.339846	0.000899	20.861550
65.020150	-2.999300	3.868100	-11.601000	21.361800	0.000900	20.842738
66.019310	-2.990100	3.867300	-11.563000	21.348707	0.000899	20.865200
67.017932	-3.019200	3.866700	-11.674000	21.357135	0.000898	20.852769
68.022592	-2.994800	3.868000	-11.583000	21.376244	0.000899	20.833957
69.018045	-2.992100	3.867200	-11.569000	21.387238	0.000899	20.833102
70.021360	-3.010800	3.865100	-11.635000	21.379355	0.000902	20.867887
71.021405	-3.001000	3.865500	-11.598000	21.393621	0.000899	20.845652
72.019702	-2.979000	3.866700	-11.517000	21.369901	0.000899	20.868386
73.019225	-3.005200	3.865100	-11.614000	21.422534	0.000901	20.851821
74.022652	-2.994600	3.866000	-11.574000	21.403751	0.000900	20.854364
75.020090	-2.995200	3.864800	-11.574000	21.426770	0.000897	20.856059
76.021081	-2.999100	3.865100	-11.591000	21.425319	0.000898	20.849866
77.021661	-3.001400	3.864200	-11.596000	21.441757	0.000899	20.845450
78.020691	-3.001100	3.863500	-11.594000	21.439763	0.000898	20.847248
79.022584	-3.007000	3.864400	-11.618000	21.451832	0.000898	20.840358
80.023897	-3.006300	3.862300	-11.611000	21.449409	0.000900	20.841252
81.021494	-2.977700	3.864500	-11.506000	21.458314	0.000897	20.838783
82.021903	-2.979000	3.864100	-11.510000	21.460283	0.000900	20.861615
83.024022	-2.990600	3.862600	-11.551000	21.458087	0.000899	20.852306
84.020673	-2.985500	3.862300	-11.530000	21.465842	0.000898	20.842522
85.021690	-3.014900	3.861600	-11.641000	21.486989	0.000897	20.824327
86.023179	-2.975900	3.863200	-11.496000	21.469806	0.000900	20.844591
87.022366	-2.996300	3.862200	-11.572000	21.496268	0.000900	20.831241
88.024822	-2.990800	3.863300	-11.554000	21.513397	0.000899	20.828940
89.027981	-3.005100	3.861200	-11.602000	21.509483	0.000900	20.832610
90.023113	-2.999800	3.860500	-11.579000	21.501303	0.000899	20.846236
91.024114	-2.978900	3.861900	-11.503000	21.515618	0.000898	20.841594
92.022918	-2.997700	3.861400	-11.574000	21.512795	0.000900	20.844458
93.026037	-2.992300	3.860800	-11.552000	21.532874	0.000901	20.849377
94.023341	-2.986400	3.859800	-11.525000	21.532776	0.000899	20.846434
95.026775	-3.015000	3.859100	-11.633000	21.543526	0.000899	20.830165
96.024684	-2.990100	3.860300	-11.542000	21.534321	0.000899	20.807678
97.024452	-3.007600	3.858200	-11.603000	21.537292	0.000899	20.834358
98.026509	-3.009000	3.858700	-11.611000	21.542129	0.000901	20.846784
99.028244	-3.005500	3.858500	-11.596000	21.536695	0.000901	20.820959
100.026732	-2.987400	3.858800	-11.527000	21.570407	0.000901	20.821502
101.029113	-2.977400	3.858700	-11.488000	21.578467	0.000899	20.825300
102.028398	-2.995200	3.856600	-11.550000	21.571611	0.000902	20.821759
103.027321	-2.999000	3.857100	-11.566000	21.592909	0.000900	20.825053
104.028587	-2.988700	3.856700	-11.525000	21.580989	0.000900	20.847737
105.026150	-3.026000	3.856400	-11.668000	21.590263	0.000902	20.849906
106.028687	-3.014700	3.856100	-11.624000	21.621116	0.000903	20.831468
107.026602	-3.006600	3.856200	-11.592000	21.623262	0.000901	20.819867
108.028512	-3.016100	3.855700	-11.628000	21.604182	0.000901	20.825428
109.027059	-3.028600	3.855700	-11.676000	21.636356	0.000900	20.829176
110.027271	-3.008100	3.856700	-11.600000	21.621071	0.000902	20.825260
111.029220	-2.996000	3.855800	-11.551000	21.639249	0.000900	20.814527
112.039108	-2.982100	3.857300	-11.502000	21.660900	0.000904	20.828608
113.028902	-3.003900	3.856800	-11.584000	21.640675	0.000902	20.819748
114.031518	-3.020900	3.856100	-11.647000	21.651074	0.000901	20.826361
115.030250	-2.992400	3.855600	-11.536000	21.668802	0.000901	20.818972
116.029660	-2.994800	3.856500	-11.549000	21.679082	0.000901	20.808872
117.031986	-2.993400	3.854600	-11.537000	21.704913	0.000903	20.831878
118.031693	-3.005500	3.854500	-11.584000	21.706512	0.000902	20.828262
119.031857	-3.006500	3.854900	-11.588000	21.696587	0.000902	20.817856
120.033789	-2.999200	3.854000	-11.558000	21.698759	0.000903	20.809123
121.033377	-2.994700	3.855100	-11.544000	21.719037	0.000903	20.814245
122.033422	-2.981000	3.853600	-11.486000	21.729011	0.000902	20.809054
123.034953	-3.018600	3.852800	-11.629000	21.725789	0.000903	20.809622
124.033804	-3.004600	3.852600	-11.575000	21.731158	0.000903	20.795555
125.033378	-3.007300	3.851700	-11.580000	21.740875	0.000902	20.821876
126.036512	-2.988200	3.853400	-11.513000	21.740658	0.000902	20.806011
127.035177	-2.976100	3.852400	-11.464000	21.750054	0.000905	20.802614
128.036857	-2.983400	3.853200	-11.494000	21.769137	0.000905	20.808436
129.036796	-2.980300	3.852100	-11.479000	21.764296	0.000905	20.812126
130.038631	-2.999700	3.852700	-11.556000	21.778311	0.000905	20.797230
131.039333	-3.022500	3.850100	-11.634000	21.766843	0.000907	20.802346
132.034854	-2.995200	3.851000	-11.532000	21.781327	0.000907	20.815420
133.038480	-2.994300	3.852900	-11.534000	21.790525	0.000908	20.797600
134.040162	-2.986400	3.852100	-11.503000	21.800227	0.000909	20.819164
135.036254	-3.028200	3.849900	-11.657000	21.799655	0.000908	20.813850
136.039859	-2.970100	3.851800	-11.440000	21.790703	0.000907	20.791140
137.040034	-2.982600	3.850500	-11.484000	21.805458	0.000907	20.801166
138.039365	-2.990000	3.851000	-11.514000	21.822014	0.000908	20.785020
139.037616	-2.988300	3.850400	-11.505000	21.831884	0.000910	20.804382
140.039412	-2.989900	3.849700	-11.509000	21.832605	0.000909	20.798465
141.036139	-2.991700	3.850000	-11.517000	21.841511	0.000910	20.796474
142.038056	-2.992900	3.850400	-11.522000	21.864196	0.000909	20.794049
143.038394	-3.019700	3.847900	-11.618000	21.838610	0.000910	20.811588
144.041768	-3.003300	3.848900	-11.558000	21.836172	0.000910	20.803933
145.039729	-2.987900	3.850500	-11.504000	21.863969	0.000910	20.800461
146.040938	-2.988000	3.848800	-11.499000	21.865987	0.000911	20.802481
147.042424	-2.985600	3.848300	-11.487000	21.887852	0.000907	20.785011
148.041455	-2.994500	3.848800	-11.524000	21.897149	0.000911	20.790523
149.040190	-2.992000	3.848400	-11.512000	21.888622	0.000909	20.801429
150.044193	-2.989500	3.848000	-11.503000	21.875205	0.000913	20.794638
151.041006	-3.013800	3.847300	-11.593000	21.887946	0.000911	20.803597
152.039273	-2.996700	3.847500	-11.528000	21.887068	0.000912	20.799399
153.039540	-3.015600	3.845900	-11.597000	21.893157	0.000910	20.820192
154.041374	-3.002300	3.847500	-11.550000	21.893004	0.000913	20.788272
155.041026	-3.017400	3.847100	-11.607000	21.891756	0.000911	20.793660
156.041214	-2.997900	3.846800	-11.530000	21.891307	0.000914	20.807435
157.042521	-3.001100	3.845800	-11.541000	21.909583	0.000912	20.793487
158.043000	-3.003700	3.845700	-11.550000	21.921821	0.000912	20.796728
159.042871	-2.991500	3.846300	-11.504000	21.907684	0.000914	20.806759
160.043801	-3.014000	3.846100	-11.591000	21.914069	0.000916	20.805089
161.044165	-3.005200	3.845400	-11.554000	21.933066	0.000915	20.809406
162.046152	-3.008000	3.845000	-11.565000	21.944908	0.000917	20.782379
163.043549	-2.999700	3.844300	-11.531000	21.943630	0.000915	20.785368
164.048153	-2.986000	3.845900	-11.483000	21.960683	0.000918	20.762608
165.044798	-3.000500	3.844700	-11.534000	21.971404	0.000916	20.788040
166.045465	-3.009600	3.844200	-11.568000	21.988827	0.000918	20.796471
167.049689	-2.994500	3.844900	-11.511000	21.992715	0.000919	20.795148
168.042731	-3.019900	3.843200	-11.605000	21.993909	0.000918	20.792550
169.046396	-2.995700	3.843900	-11.513000	22.011459	0.000918	20.784514
170.047229	-3.024800	3.842100	-11.621000	22.023448	0.000918	20.773756
171.045705	-2.982500	3.844900	-11.466000	22.022245	0.000919	20.808113
172.047742	-2.995200	3.843100	-11.509000	22.015338	0.000917	20.784129
173.044201	-2.999000	3.841900	-11.520000	22.035182	0.000919	20.796882
174.044742	-2.968300	3.843700	-11.408000	22.060807	0.000921	20.790293
175.047504	-2.995600	3.842200	-11.508000	22.049312	0.000920	20.790639
176.045704	-3.019100	3.841200	-11.596000	22.083586	0.000921	20.794131
177.046514	-3.013000	3.842200	-11.576000	22.068031	0.000921	20.787093
178.047139	-2.985500	3.843900	-11.474000	22.039262	0.000923	20.781527
179.046324	-3.038800	3.841100	-11.672000	22.066610	0.000921	20.795628
180.047274	-3.000200	3.841200	-11.523000	22.066807	0.000920	20.787291
181.051250	-3.017000	3.839600	-11.584000	22.070275	0.000922	20.800246
182.049123	-3.003000	3.839600	-11.528000	22.072264	0.000922	20.788486
183.047828	-2.989300	3.841800	-11.484000	22.072614	0.000924	20.787414
184.047077	-3.008700	3.839900	-11.552000	22.095546	0.000923	20.771016
185.047966	-2.994700	3.840200	-11.499000	22.096666	0.000925	20.780198
186.049137	-3.018800	3.840000	-11.589000	22.109182	0.000925	20.786565
187.047925	-2.992300	3.841000	-11.492000	22.110721	0.000922	20.766295
188.047853	-2.989900	3.840400	-11.482000	22.129740	0.000924	20.783439
189.049225	-3.025400	3.837800	-11.610000	22.128240	0.000923	20.784308
190.051186	-2.993900	3.839300	-11.493000	22.130085	0.000924	20.781888
191.049638	-3.006800	3.838900	-11.541000	22.156834	0.000927	20.784012
192.052091	-2.983200	3.839800	-11.452000	22.152419	0.000926	20.760151
193.050586	-2.995600	3.837800	-11.494000	22.159493	0.000924	20.760121
194.051316	-3.013400	3.837400	-11.563000	22.137885	0.000927	20.770257
195.054204	-3.002700	3.838000	-11.522000	22.144190	0.000928	20.770879
196.054960	-3.019700	3.837200	-11.585000	22.162656	0.000928	20.784625
197.054937	-3.017900	3.836200	-11.576000	22.161437	0.000930	20.793362
198.053203	-3.009500	3.838000	-11.549000	22.183967	0.000930	20.778935
199.052194	-2.997500	3.837000	-11.500000	22.171082	0.000929	20.764137
200.054001	-2.992800	3.837000	-11.482000	22.148320	0.000929	20.783074
201.052527	-2.985500	3.837100	-11.455000	22.150712	0.000932	20.771245
202.053065	-2.997800	3.835600	-11.497000	22.155271	0.000930	20.766800
203.052545	-3.005000	3.836600	-11.526000	22.165542	0.000932	20.750530
204.054058	-2.988100	3.836300	-11.462000	22.188743	0.000934	20.769018
205.054110	-2.996800	3.836200	-11.495000	22.194603	0.000933	20.767299
206.052829	-3.012600	3.835800	-11.553000	22.185522	0.000934	20.774802
207.053275	-3.028300	3.835000	-11.612000	22.220695	0.000934	20.797216
208.054185	-3.013900	3.836600	-11.562000	22.211564	0.000934	20.774798
209.052301	-3.008400	3.836600	-11.541000	22.220344	0.000936	20.776951
210.054310	-2.999000	3.835800	-11.503000	22.224631	0.000935	20.766544
211.054044	-3.010200	3.834100	-11.541000	22.255832	0.000936	20.751791
212.055403	-2.992400	3.835500	-11.476000	22.252320	0.000934	20.762499
213.052293	-3.013100	3.832700	-11.547000	22.259591	0.000937	20.737536
214.053464	-2.998600	3.833200	-11.493000	22.273625	0.000936	20.764865
215.055079	-2.997300	3.833600	-11.490000	22.293612	0.000937	20.743152
216.053683	-2.979700	3.834700	-11.426000	22.295827	0.000938	20.769553
217.057453	-3.003600	3.833100	-11.513000	22.304977	0.000936	20.746945
218.054073	-3.003700	3.832700	-11.512000	22.313348	0.000936	20.763863
219.054545	-2.976500	3.834600	-11.413000	22.318655	0.000938	20.753056
220.055741	-3.002700	3.832400	-11.506000	22.330819	0.000938	20.764762
221.053308	-3.002400	3.831700	-11.503000	22.338243	0.000936	20.765083
222.054601	-3.007700	3.832600	-11.526000	22.342706	0.000940	20.739206
223.056356	-2.997500	3.832100	-11.486000	22.362915	0.000939	20.740950
224.056689	-2.987700	3.833500	-11.452000	22.361144	0.000939	20.749134
225.056393	-3.000700	3.830400	-11.493000	22.358031	0.000938	20.756449
226.055823	-2.994600	3.831500	-11.473000	22.337740	0.000940	20.734232
227.055575	-2.985200	3.832300	-11.439000	22.337641	0.000941	20.731288
228.055659	-2.988600	3.832000	-11.451000	22.344793	0.000942	20.764056
229.056003	-3.012800	3.829900	-11.537000	22.339259	0.000941	20.745711
230.055268	-3.022600	3.829500	-11.573000	22.357928	0.000942	20.728369
231.059658	-3.005500	3.830000	-11.511000	22.369045	0.000940	20.724329
232.055403	-3.003700	3.828000	-11.496000	22.378388	0.000942	20.769721
233.057308	-3.008300	3.829800	-11.520000	22.413397	0.000942	20.753096
234.054025	-2.995100	3.830000	-11.471000	22.401860	0.000943	20.756716
235.055728	-3.001800	3.829300	-11.494000	22.410753	0.000944	20.759458
236.055627	-2.991200	3.830900	-11.457000	22.400839	0.000945	20.759961
237.059845	-3.019500	3.828700	-11.559000	22.413722	0.000945	20.756741
238.055892	-3.018900	3.826200	-11.550000	22.427375	0.000947	20.735324
239.055455	-3.017700	3.826400	-11.546000	22.419029	0.000945	20.748305
240.054960	-3.009400	3.827200	-11.515000	22.438087	0.000947	20.760278
241.055290	-2.989800	3.828500	-11.446000	22.428045	0.000947	20.752592
242.056056	-3.006700	3.826700	-11.505000	22.437786	0.000947	20.739587
243.060286	-3.004600	3.828100	-11.500000	22.438787	0.000949	20.758608
244.056775	-2.996800	3.828700	-11.473000	22.454959	0.000952	20.748251
245.056938	-3.003300	3.828900	-11.498000	22.464774	0.000950	20.743381
246.059495	-2.989500	3.827300	-11.440000	22.451892	0.000951	20.750869
247.060658	-2.969800	3.826600	-11.363000	22.486129	0.000950	20.740585
248.055857	-3.000800	3.827300	-11.483000	22.472202	0.000952	20.735172
249.061346	-2.990600	3.825600	-11.440000	22.476685	0.000950	20.759577
250.058429	-2.970300	3.828500	-11.371000	22.500510	0.000952	20.727486
251.059340	-3.003300	3.826200	-11.491000	22.500333	0.000953	20.754336
252.058014	-2.998000	3.825500	-11.468000	22.511671	0.000953	20.740561
253.060382	-3.028300	3.824700	-11.581000	22.501778	0.000953	20.755309
254.057965	-2.994600	3.825300	-11.455000	22.503420	0.000955	20.755532
255.058106	-3.008300	3.823800	-11.502000	22.488541	0.000955	20.743001
256.062282	-2.996600	3.824900	-11.460000	22.488393	0.000956	20.740008
257.060277	-3.001100	3.823100	-11.472000	22.483383	0.000958	20.716496
258.062366	-2.996200	3.825500	-11.461000	22.487846	0.000957	20.735192
259.061316	-3.005000	3.823800	-11.489000	22.508328	0.000955	20.746696
260.066728	-2.980800	3.823100	-11.394000	22.480093	0.000958	20.726953
261.064510	-3.013400	3.823500	-11.521000	22.485301	0.000956	20.736437
262.061907	-3.031300	3.822400	-11.586000	22.492329	0.000957	20.754855
263.060533	-3.008500	3.822500	-11.499000	22.503090	0.000961	20.736234
264.061657	-3.024400	3.823300	-11.562000	22.500851	0.000959	20.733992
265.062454	-3.016700	3.821800	-11.528000	22.518265	0.000959	20.752855
266.061738	-3.005600	3.821500	-11.485000	22.527857	0.000962	20.751556
267.062262	-3.024600	3.821700	-11.558000	22.525564	0.000963	20.748785
268.064026	-2.988800	3.822800	-11.424000	22.556091	0.000964	20.740477
269.063734	-3.006800	3.820600	-11.487000	22.545123	0.000963	20.723328
270.066896	-3.010900	3.821500	-11.505000	22.578929	0.000965	20.728263
271.063464	-2.984200	3.822500	-11.406000	22.573549	0.000965	20.746583
272.062646	-3.004700	3.820700	-11.480000	22.573100	0.000967	20.740443
273.065913	-3.002200	3.820100	-11.467000	22.590237	0.000965	20.736744
274.062632	-2.978500	3.823000	-11.385000	22.586623	0.000966	20.736917
275.061065	-2.987100	3.821200	-11.413000	22.608498	0.000968	20.729429
276.068710	-2.995900	3.821300	-11.448000	22.594069	0.000968	20.734893
277.065370	-2.993300	3.819700	-11.432000	22.618933	0.000968	20.754107
278.064186	-2.990100	3.819200	-11.418000	22.595106	0.000969	20.743992
279.066968	-2.993700	3.819700	-11.434000	22.614190	0.000970	20.741295
280.065916	-2.997000	3.819700	-11.446000	22.600980	0.000970	20.734227
281.070402	-3.000800	3.819000	-11.459000	22.625938	0.000971	20.746423
282.067641	-3.004000	3.818100	-11.468000	22.656008	0.000972	20.767060
283.066901	-3.007200	3.817400	-11.478000	22.640308	0.000972	20.748014
284.068294	-3.023000	3.816900	-11.538000	22.634297	0.000972	20.743891
285.065819	-3.017300	3.817700	-11.518000	22.638055	0.000972	20.755242
286.070395	-3.010700	3.817400	-11.491000	22.642982	0.000975	20.744529
287.065652	-3.005300	3.816400	-11.469000	22.646666	0.000974	20.743003
288.065083	-2.984600	3.818800	-11.396000	22.678699	0.000972	20.764183
289.066729	-3.009000	3.815800	-11.481000	22.675731	0.000973	20.741769
290.066199	-3.019500	3.816100	-11.521000	22.672960	0.000975	20.743736
291.065154	-3.012200	3.815600	-11.491000	22.660100	0.000973	20.764521
292.068433	-2.980500	3.818300	-11.380000	22.645993	0.000974	20.735691
293.064443	-2.992100	3.816700	-11.418000	22.647088	0.000976	20.757177
294.065326	-2.999600	3.815500	-11.444000	22.651389	0.000975	20.756269
295.072513	-2.995200	3.815100	-11.426000	22.657065	0.000975	20.761955
296.066709	-2.998400	3.815400	-11.439000	22.678688	0.000975	20.758483
297.068913	-2.983400	3.815300	-11.381000	22.708057	0.000974	20.756606
298.068429	-3.001800	3.814600	-11.449000	22.711095	0.000973	20.757752
299.070256	-3.006800	3.814700	-11.469000	22.721055	0.000977	20.753505
300.070295	-2.995700	3.814800	-11.426000	22.704813	0.000977	20.782281
301.066660	-3.014100	3.812100	-11.490000	22.739112	0.000976	20.751204
302.070920	-3.009700	3.812600	-11.474000	22.738215	0.000975	20.748408
303.067361	-2.989900	3.812600	-11.399000	22.720470	0.000978	20.771411
304.065796	-3.011000	3.812200	-11.477000	22.719449	0.000978	20.762328
305.069897	-2.988300	3.812800	-11.393000	22.716757	0.000978	20.771486
306.067303	-2.998200	3.814200	-11.435000	22.723084	0.000981	20.787780
307.067616	-3.008100	3.812300	-11.466000	22.733942	0.000979	20.784432
308.070280	-3.016500	3.812500	-11.500000	22.764610	0.000978	20.774376
309.071640	-2.980300	3.812500	-11.362000	22.781375	0.000980	20.739485
310.067427	-3.005900	3.810900	-11.454000	22.798764	0.000981	20.771605
311.067793	-3.007400	3.810900	-11.459000	22.790590	0.000982	20.759623
312.072414	-2.999000	3.811400	-11.429000	22.808704	0.000980	20.782036
313.069080	-2.986200	3.811700	-11.381000	22.779679	0.000980	20.771926
314.072904	-2.976300	3.811800	-11.344000	22.785009	0.000983	20.778214
315.070542	-2.970900	3.811900	-11.323000	22.801028	0.000985	20.763441
316.072004	-2.977600	3.810900	-11.346000	22.783564	0.000984	20.761593
317.071279	-3.006400	3.809900	-11.452000	22.813877	0.000984	20.769200
318.073170	-3.003000	3.810300	-11.442000	22.795492	0.000984	20.778758
319.073745	-3.002500	3.809700	-11.437000	22.805259	0.000986	20.773369
320.070536	-2.991800	3.809900	-11.398000	22.827406	0.000987	20.767106
321.069897	-2.970100	3.810800	-11.317000	22.853088	0.000986	20.761065
322.071358	-2.997600	3.810500	-11.421000	22.867336	0.000987	20.761115
323.069238	-3.006100	3.808100	-11.447000	22.896478	0.000987	20.777983
324.070109	-3.003400	3.808600	-11.438000	22.907191	0.000985	20.783974
325.072591	-3.000500	3.808300	-11.426000	22.937303	0.000988	20.791383
326.070917	-2.995600	3.809000	-11.409000	22.885642	0.000988	20.771868
327.070584	-3.006200	3.807400	-11.444000	22.871871	0.000988	20.769926
328.070723	-2.994800	3.808200	-11.403000	22.897256	0.000988	20.767382
329.069682	-2.996800	3.808800	-11.413000	22.907462	0.000988	20.778082
330.073563	-2.983800	3.808800	-11.364000	22.915138	0.000989	20.796203
331.075042	-2.988500	3.807500	-11.378000	22.908137	0.000988	20.787293
332.070811	-3.000900	3.806400	-11.422000	22.887988	0.000991	20.767106
333.073205	-2.996600	3.806900	-11.405000	22.897503	0.000991	20.772845
334.075619	-3.026300	3.805100	-11.515000	22.902438	0.000991	20.774944
335.072227	-3.001500	3.805700	-11.422000	22.924731	0.000991	20.784003
336.070801	-2.997900	3.806700	-11.411000	22.907570	0.000992	20.791940
337.072941	-2.999600	3.804100	-11.410000	22.916764	0.000992	20.780288
338.072273	-2.993800	3.804100	-11.388000	22.910582	0.000992	20.783578
339.073186	-2.994100	3.803800	-11.387000	22.931563	0.000992	20.771407
340.072425	-3.006200	3.804400	-11.434000	22.951637	0.000994	20.776346
341.073273	-3.005400	3.805700	-11.436000	22.946081	0.000994	20.778841
342.073558	-2.995800	3.802700	-11.391000	22.982028	0.000993	20.784036
343.073928	-3.017700	3.804100	-11.478000	22.973860	0.000994	20.772059
344.073981	-3.007600	3.803400	-11.437000	22.993012	0.000995	20.771807
345.075193	-2.990600	3.802100	-11.370000	23.000184	0.000995	20.776623
346.075300	-2.993800	3.802700	-11.383000	23.004473	0.000997	20.786135
347.077404	-2.994100	3.802500	-11.385000	23.021455	0.000996	20.762847
348.079524	-3.005800	3.802600	-11.429000	23.040606	0.000998	20.793890
349.076639	-2.993100	3.803900	-11.383000	23.045368	0.000997	20.776376
350.074961	-2.995300	3.800400	-11.382000	23.042878	0.000997	20.775778
351.075449	-2.991400	3.801800	-11.372000	23.056251	0.000999	20.787755
352.075440	-3.004800	3.802100	-11.424000	23.066761	0.000999	20.787380
353.076208	-3.021900	3.800600	-11.483000	23.065518	0.000997	20.785661
354.079379	-2.997300	3.800400	-11.389000	23.090520	0.000998	20.798385
355.076761	-2.993600	3.799400	-11.373000	23.091820	0.000999	20.790679
356.076094	-3.015800	3.799500	-11.458000	23.110497	0.000999	20.787108
357.074720	-3.013900	3.799300	-11.449000	23.114036	0.001000	20.798715
358.076859	-2.977900	3.800600	-11.317000	23.111217	0.000999	20.786407
359.076505	-2.982800	3.801200	-11.336000	23.104917	0.001002	20.803328
360.083481	-3.008600	3.798200	-11.425000	23.095528	0.001002	20.791549
361.074857	-2.993300	3.800700	-11.375000	23.092594	0.000999	20.781023
362.075858	-3.001100	3.799400	-11.402000	23.078324	0.001000	20.785690
363.078816	-3.004900	3.798600	-11.413000	23.073069	0.001002	20.786589
364.077361	-3.006100	3.797800	-11.416000	23.080040	0.001003	20.790254
365.079444	-3.017100	3.797000	-11.455000	23.097449	0.001002	20.793000
366.078439	-2.987200	3.798200	-11.345000	23.108802	0.001004	20.776400
367.078995	-3.011400	3.796100	-11.431000	23.115435	0.001005	20.806281
368.078762	-2.984600	3.799300	-11.339000	23.126993	0.001002	20.809328
369.079921	-3.009800	3.797400	-11.428000	23.140193	0.001005	20.796951
370.079685	-3.001600	3.797500	-11.396000	23.126491	0.001006	20.793178
371.079309	-3.004900	3.797900	-11.411000	23.160239	0.001006	20.796175
372.079206	-3.010800	3.795800	-11.428000	23.133169	0.001006	20.796551
373.082007	-2.991700	3.795600	-11.353000	23.154808	0.001009	20.803061
374.082705	-2.985300	3.796900	-11.333000	23.191221	0.001006	20.806359
375.081190	-2.989900	3.796800	-11.350000	23.191620	0.001006	20.800121
376.085689	-3.024200	3.794400	-11.474000	23.183104	0.001008	20.786371
377.079447	-2.982500	3.795400	-11.319000	23.201976	0.001007	20.793429
378.083689	-2.996400	3.796000	-11.373000	23.197200	0.001007	20.807609
379.081061	-3.012800	3.794700	-11.431000	23.205539	0.001007	20.808380
380.086354	-3.001700	3.795100	-11.392000	23.208057	0.001009	20.793360
381.083975	-2.996100	3.792500	-11.361000	23.199689	0.001008	20.797301
382.080598	-2.992200	3.793900	-11.351000	23.214455	0.001009	20.801193
383.085219	-3.011100	3.793700	-11.422000	23.225786	0.001009	20.811126
384.081789	-3.012700	3.792100	-11.423000	23.219911	0.001010	20.820411
385.082556	-2.986500	3.792200	-11.324000	23.256387	0.001012	20.808128
386.087867	-3.000000	3.792600	-11.377000	23.251907	0.001012	20.796052
387.081429	-2.987300	3.792600	-11.328000	23.265504	0.001010	20.813946
388.085311	-2.996900	3.791700	-11.363000	23.246801	0.001011	20.798996
389.084195	-2.979900	3.792500	-11.300000	23.243843	0.001011	20.819739
390.083611	-3.008000	3.790700	-11.401000	23.273675	0.001012	20.811229
391.083817	-3.008400	3.791100	-11.403000	23.264587	0.001011	20.808285
392.084424	-2.991400	3.790900	-11.339000	23.253257	0.001013	20.805465
393.083176	-3.008100	3.791100	-11.402000	23.273597	0.001014	20.803564
394.083920	-3.009300	3.790600	-11.405000	23.250364	0.001014	20.819636
395.087972	-3.002800	3.788400	-11.374000	23.260798	0.001013	20.804488
396.084404	-2.991500	3.789700	-11.336000	23.234524	0.001014	20.821779
397.084146	-3.002700	3.789400	-11.378000	23.244637	0.001014	20.818638
398.088609	-3.003000	3.788600	-11.375000	23.215603	0.001015	20.799025
399.083444	-2.998600	3.788000	-11.357000	23.233982	0.001014	20.818865
400.084583	-2.970800	3.789600	-11.256000	23.219861	0.001015	20.819887
401.088599	-3.003400	3.788300	-11.376000	23.226432	0.001015	20.801342
402.086926	-2.994600	3.788700	-11.345000	23.225613	0.001015	20.822332
403.084262	-3.011900	3.786800	-11.405000	23.246229	0.001013	20.808854
404.085430	-3.006800	3.787200	-11.384000	23.269133	0.001016	20.820427
405.084562	-3.003200	3.787700	-11.374000	23.255569	0.001017	20.805411
406.085839	-3.013500	3.787400	-11.411000	23.293616	0.001015	20.826945
407.084968	-3.012400	3.785700	-11.402000	23.299766	0.001017	20.816514
408.086986	-2.999300	3.787400	-11.358000	23.292147	0.001017	20.825948
409.090673	-2.994500	3.785700	-11.335000	23.325269	0.001017	20.821685
410.090420	-2.982900	3.786600	-11.294000	23.331839	0.001019	20.826372
411.088922	-3.001000	3.785800	-11.359000	23.315832	0.001018	20.825977
412.094207	-2.999900	3.785500	-11.354000	23.337693	0.001019	20.830343
413.093020	-2.994200	3.785600	-11.334000	23.337347	0.001017	20.837109
414.091499	-2.992000	3.786200	-11.327000	23.339363	0.001017	20.837233
415.092997	-3.005800	3.784400	-11.374000	23.318749	0.001021	20.819892
416.089505	-2.991900	3.784300	-11.321000	23.332493	0.001020	20.828925
417.090000	-2.996900	3.783700	-11.338000	23.331646	0.001017	20.821912
418.092566	-2.998300	3.783800	-11.344000	23.340807	0.001021	20.823981
419.093312	-3.023600	3.781800	-11.434000	23.339767	0.001020	20.839534
420.090378	-2.989700	3.785100	-11.315000	23.338146	0.001020	20.821314
421.097578	-2.977200	3.783100	-11.262000	23.330901	0.001021	20.821640
422.093802	-3.035400	3.782500	-11.480000	23.338347	0.001021	20.820568
423.092921	-2.999000	3.782500	-11.343000	23.354585	0.001020	20.824040
424.096065	-2.968200	3.784500	-11.231000	23.357222	0.001019	20.833794
425.094433	-3.001900	3.782300	-11.352000	23.358567	0.001023	20.831350
426.094659	-2.992000	3.781600	-11.313000	23.351150	0.001022	20.849045
427.097779	-3.014100	3.780800	-11.394000	23.364174	0.001022	20.834125
428.099027	-2.988600	3.782400	-11.302000	23.343585	0.001022	20.844308
429.097903	-3.006900	3.780200	-11.366000	23.342787	0.001022	20.833552
430.104127	-2.997300	3.781000	-11.331000	23.340919	0.001022	20.848275
431.101041	-2.999000	3.780700	-11.338000	23.347098	0.001023	20.838821
432.098855	-2.989100	3.780300	-11.299000	23.354964	0.001023	20.826790
433.103216	-3.000800	3.780600	-11.343000	23.341841	0.001025	20.839715
434.101307	-2.997500	3.780600	-11.331000	23.361838	0.001024	20.837947
435.105117	-2.992500	3.779100	-11.308000	23.362040	0.001025	20.850951
436.101089	-3.007800	3.778700	-11.364000	23.369338	0.001026	20.853050
437.110625	-2.994500	3.777600	-11.310000	23.397047	0.001026	20.846209
438.109014	-3.024100	3.776800	-11.420000	23.384254	0.001026	20.836232
439.103269	-3.014400	3.777500	-11.386000	23.359580	0.001026	20.848012
440.104334	-3.016900	3.776300	-11.392000	23.398722	0.001025	20.848362
441.105799	-3.007500	3.777600	-11.360000	23.412717	0.001027	20.826828
442.103807	-2.997500	3.776400	-11.319000	23.432368	0.001027	20.847472
443.104580	-3.000200	3.776600	-11.330000	23.452305	0.001026	20.846594
444.107194	-2.985500	3.777200	-11.276000	23.473119	0.001026	20.840430
445.105249	-3.035500	3.775600	-11.459000	23.487812	0.001027	20.857528
446.104558	-3.001800	3.775500	-11.333000	23.502032	0.001028	20.830057
447.104980	-2.975900	3.776200	-11.236000	23.497524	0.001026	20.862047
448.108177	-2.997700	3.775200	-11.316000	23.460829	0.001029	20.864619
449.107725	-2.997100	3.775800	-11.315000	23.455182	0.001028	20.862752
450.104492	-3.003500	3.774200	-11.334000	23.435515	0.001028	20.843515
451.104484	-2.997200	3.774700	-11.312000	23.443183	0.001028	20.859734
452.103838	-3.005500	3.774000	-11.343000	23.444631	0.001029	20.839376
453.104591	-2.974900	3.774800	-11.228000	23.451377	0.001028	20.836180
454.109150	-2.999300	3.773900	-11.318000	23.472265	0.001029	20.847634
455.105865	-2.997500	3.772900	-11.308000	23.516389	0.001029	20.867680
456.103727	-3.003500	3.772000	-11.328000	23.532973	0.001031	20.849692
457.111274	-3.013100	3.772500	-11.366000	23.525376	0.001028	20.861990
458.105875	-3.009200	3.772300	-11.351000	23.518384	0.001032	20.849766
459.105959	-2.999800	3.772800	-11.316000	23.520778	0.001031	20.840313
460.113185	-3.020600	3.771600	-11.391000	23.504243	0.001029	20.860721
461.110378	-3.023400	3.770100	-11.397000	23.508253	0.001031	20.869482
462.107111	-2.987200	3.772300	-11.268000	23.526755	0.001031	20.836347
463.108320	-3.012500	3.771900	-11.361000	23.565640	0.001030	20.869161
464.108639	-2.970000	3.771200	-11.200000	23.556308	0.001031	20.864073
465.107793	-2.995100	3.771400	-11.294000	23.564521	0.001030	20.865669
466.113237	-2.991200	3.770200	-11.276000	23.576301	0.001031	20.864675
467.111796	-2.975800	3.771300	-11.222000	23.577700	0.001029	20.861336
468.110779	-2.991100	3.770600	-11.277000	23.577198	0.001030	20.866048
469.113794	-3.000900	3.770000	-11.313000	23.564781	0.001033	20.864981
470.112669	-3.006900	3.769600	-11.334000	23.593082	0.001033	20.856368
471.114279	-2.973300	3.769200	-11.206000	23.590648	0.001033	20.845393
472.114303	-2.998000	3.767700	-11.295000	23.617357	0.001032	20.870745
473.114224	-2.992800	3.768500	-11.278000	23.615597	0.001034	20.867558
474.115140	-3.000700	3.767500	-11.304000	23.608177	0.001032	20.860595
475.113419	-2.986900	3.766700	-11.250000	23.597825	0.001035	20.867761
476.112798	-2.988600	3.767900	-11.260000	23.604900	0.001033	20.864422
477.113455	-2.999300	3.766800	-11.296000	23.614133	0.001032	20.862298
478.113430	-3.009000	3.765400	-11.330000	23.604230	0.001032	20.868965
479.115877	-3.005800	3.766400	-11.320000	23.636323	0.001031	20.875059
480.117648	-2.997100	3.766100	-11.287000	23.650935	0.001034	20.868846
481.115119	-3.009400	3.766200	-11.333000	23.630051	0.001032	20.862134
482.115577	-2.996900	3.766500	-11.286000	23.602170	0.001034	20.865004
483.115257	-2.984700	3.765100	-11.237000	23.606978	0.001033	20.868401
484.117372	-3.005600	3.764400	-11.313000	23.613156	0.001033	20.874594
485.120492	-2.982900	3.765300	-11.230000	23.625148	0.001036	20.858168
486.114996	-2.990900	3.763700	-11.256000	23.618536	0.001035	20.870504
487.116374	-3.000500	3.762500	-11.289000	23.669990	0.001034	20.873724
488.118391	-2.998000	3.763200	-11.281000	23.670143	0.001036	20.876722
489.119127	-3.008700	3.762000	-11.318000	23.705244	0.001033	20.878248
490.117150	-3.011800	3.761200	-11.327000	23.713136	0.001034	20.877625
491.117213	-2.990500	3.763300	-11.253000	23.723195	0.001035	20.888658
492.117514	-3.017200	3.761400	-11.348000	23.728846	0.001035	20.881522
493.118385	-2.999000	3.761200	-11.279000	23.715628	0.001034	20.892451
494.117625	-2.968100	3.762600	-11.167000	23.721534	0.001036	20.880830
495.120557	-3.021200	3.760400	-11.359000	23.766408	0.001036	20.891206
496.118961	-3.005500	3.760900	-11.302000	23.768279	0.001035	20.882178
497.119525	-3.003900	3.760300	-11.293000	23.777890	0.001034	20.876167
498.120497	-3.018000	3.759900	-11.346000	23.758077	0.001035	20.890914
499.119675	-3.026800	3.759500	-11.377000	23.761240	0.001036	20.886973
500.120096	-2.998600	3.760300	-11.274000	23.762013	0.001036	20.878740
501.121786	-3.013000	3.760000	-11.327000	23.738869	0.001035	20.893467
502.122458	-2.970700	3.760400	-11.170000	23.726170	0.001034	20.878839
503.126917	-3.001000	3.759600	-11.281000	23.744667	0.001036	20.882686
504.123267	-2.993700	3.758300	-11.250000	23.743973	0.001036	20.872033
505.122993	-3.010000	3.757700	-11.310000	23.713661	0.001037	20.874358
506.127845	-3.034200	3.756300	-11.395000	23.705370	0.001037	20.872210
507.127946	-2.997900	3.758700	-11.267000	23.699517	0.001037	20.877248
508.131454	-3.011900	3.757100	-11.314000	23.708626	0.001037	20.900129
509.124123	-3.003100	3.758100	-11.285000	23.763239	0.001040	20.879495
510.130331	-2.990500	3.756800	-11.233000	23.737923	0.001038	20.874976
511.131372	-2.987600	3.755800	-11.220000	23.757988	0.001039	20.877075
512.126417	-2.994500	3.756000	-11.246000	23.782998	0.001038	20.867539
513.130100	-2.987900	3.757800	-11.226000	23.791185	0.001040	20.858678
514.128505	-2.989100	3.756000	-11.226000	23.789343	0.001040	20.872952
515.129158	-2.997700	3.756200	-11.259000	23.808958	0.001039	20.866541
516.128992	-2.995900	3.754600	-11.247000	23.793767	0.001039	20.854629
517.129653	-2.985100	3.753200	-11.202000	23.835953	0.001039	20.862788
518.128142	-2.983000	3.754000	-11.196000	23.863980	0.001039	20.865761
519.125854	-2.995500	3.754200	-11.244000	23.819205	0.001042	20.851211
520.129234	-2.959800	3.755400	-11.114000	23.833416	0.001039	20.857874
521.128409	-3.002100	3.753000	-11.266000	23.825298	0.001040	20.852580
522.128118	-2.989700	3.752600	-11.217000	23.848071	0.001040	20.858818
523.129547	-3.013100	3.752200	-11.305000	23.833757	0.001042	20.868172
524.128677	-2.998700	3.752800	-11.252000	23.831195	0.001038	20.852802
525.130461	-3.001000	3.751700	-11.258000	23.803270	0.001040	20.860364
526.132276	-3.010000	3.750600	-11.288000	23.813846	0.001040	20.860537
527.130595	-3.006300	3.750900	-11.276000	23.799206	0.001041	20.847755
528.130197	-3.007600	3.751700	-11.282000	23.800280	0.001040	20.870642
529.131296	-3.000700	3.751400	-11.255000	23.828328	0.001038	20.874583
530.129925	-2.998700	3.751100	-11.248000	23.854731	0.001042	20.852220
531.131026	-2.989200	3.750900	-11.210000	23.838185	0.001041	20.849380
532.131694	-2.988800	3.751700	-11.212000	23.880024	0.001041	20.845814
533.134097	-3.002400	3.749800	-11.257000	23.876990	0.001040	20.844194
534.134015	-2.993100	3.750000	-11.223000	23.884551	0.001038	20.836129
535.133070	-3.020600	3.748800	-11.323000	23.892791	0.001039	20.857193
536.133269	-2.999500	3.749800	-11.246000	23.872532	0.001041	20.836405
537.131938	-2.990300	3.749200	-11.210000	23.862257	0.001040	20.819938
538.131307	-3.001300	3.747500	-11.247000	23.878856	0.001039	20.850807
539.133704	-3.003300	3.748700	-11.256000	23.864794	0.001041	20.849982
540.138247	-3.007200	3.748100	-11.270000	23.910040	0.001041	20.848886
541.134322	-3.010200	3.747100	-11.278000	23.880103	0.001039	20.843996
542.135587	-2.993900	3.747100	-11.215000	23.887393	0.001039	20.851306
543.135850	-3.016300	3.747500	-11.302000	23.904864	0.001040	20.850807
544.136650	-2.970700	3.747700	-11.132000	23.914995	0.001041	20.862388
545.135383	-2.997500	3.746500	-11.228000	23.912207	0.001040	20.817395
546.136378	-3.012200	3.745300	-11.280000	23.910814	0.001042	20.852032
547.136498	-3.002200	3.745200	-11.241000	23.900435	0.001042	20.851108
548.136292	-2.998200	3.744400	-11.226000	23.919995	0.001041	20.838953
549.139033	-3.001900	3.745500	-11.242000	23.917463	0.001039	20.820294
550.140118	-3.016800	3.744500	-11.296000	23.921763	0.001041	20.830295
551.140569	-3.022200	3.743600	-11.313000	23.887225	0.001042	20.828379
552.139624	-3.003100	3.744200	-11.243000	23.893914	0.001040	20.822284
553.145560	-2.996900	3.745300	-11.224000	23.912857	0.001038	20.816150
554.139851	-3.010000	3.743000	-11.266000	23.869157	0.001039	20.810737
555.140925	-2.991900	3.745000	-11.202000	23.879536	0.001041	20.843428
556.141537	-2.995200	3.743700	-11.212000	23.888294	0.001040	20.821390
557.140793	-2.999500	3.744300	-11.229000	23.925127	0.001040	20.827505
558.140756	-3.002200	3.743100	-11.236000	23.926644	0.001040	20.824284
559.141895	-3.009500	3.742900	-11.262000	23.950266	0.001041	20.846549
560.148114	-3.036100	3.740300	-11.354000	23.975926	0.001039	20.820125
561.140726	-3.006100	3.741800	-11.247000	23.975527	0.001039	20.832053
562.141283	-2.995300	3.741300	-11.205000	23.958407	0.001039	20.831954
563.142315	-3.010400	3.740700	-11.259000	23.956811	0.001040	20.817078
564.144642	-3.006200	3.740400	-11.243000	23.986176	0.001037	20.847472
565.148122	-3.005300	3.739700	-11.238000	23.968632	0.001039	20.822768
566.147914	-3.001400	3.739900	-11.223000	24.008743	0.001040	20.822215
567.145986	-2.997800	3.740500	-11.211000	23.997794	0.001038	20.827830
568.146244	-2.987900	3.740100	-11.175000	23.992248	0.001039	20.814208
569.145954	-3.002300	3.738800	-11.224000	23.963151	0.001038	20.819642
570.152837	-2.986300	3.739500	-11.166000	23.989978	0.001040	20.810035
571.150148	-2.972700	3.737900	-11.111000	23.991018	0.001039	20.819613
572.147610	-2.980500	3.739100	-11.143000	23.976414	0.001038	20.817770
573.147837	-3.014200	3.737300	-11.264000	23.964717	0.001039	20.802721
574.147885	-3.001700	3.737600	-11.217000	23.962427	0.001039	20.828399
575.146292	-3.010300	3.735300	-11.244000	23.976759	0.001038	20.830918
576.149529	-2.997200	3.736800	-11.199000	23.969766	0.001040	20.827698
577.150547	-3.014800	3.736300	-11.262000	24.010107	0.001037	20.797505
578.149620	-3.036000	3.735700	-11.341000	24.005404	0.001038	20.814125
579.148754	-3.009700	3.736300	-11.245000	24.006695	0.001040	20.818264
580.150050	-3.007200	3.734900	-11.231000	24.022618	0.001038	20.839922
581.150445	-3.001900	3.734500	-11.210000	24.030335	0.001037	20.818264
582.151884	-2.980700	3.735100	-11.132000	24.034689	0.001038	20.809829
583.153094	-3.007500	3.735300	-11.233000	24.056688	0.001038	20.818141
584.156643	-2.977700	3.736400	-11.123000	24.057604	0.001039	20.810051
585.152457	-3.008600	3.733900	-11.232000	24.072635	0.001037	20.815168
586.154500	-3.022100	3.733100	-11.280000	24.067685	0.001037	20.803092
587.152563	-2.982600	3.733700	-11.136000	24.082686	0.001037	20.818136
588.152029	-3.006500	3.732800	-11.222000	24.077416	0.001036	20.796256
589.151764	-2.980900	3.733400	-11.128000	24.104660	0.001036	20.820734
590.151888	-2.984100	3.732800	-11.136000	24.089059	0.001039	20.824527
591.164396	-3.017100	3.731500	-11.258000	24.099263	0.001037	20.807260
592.152983	-3.005400	3.732300	-11.215000	24.111481	0.001039	20.809557
593.153454	-2.987600	3.732400	-11.149000	24.107723	0.001039	20.817642
594.152891	-2.999900	3.732500	-11.195000	24.083365	0.001040	20.823559
595.153080	-2.992000	3.730900	-11.161000	24.093388	0.001038	20.807058
596.154473	-3.006700	3.731100	-11.218000	24.071246	0.001038	20.814249
597.156707	-3.005700	3.731300	-11.214000	24.053851	0.001039	20.810080
598.153726	-2.975800	3.731900	-11.103000	24.025833	0.001039	20.798577
599.158130	-3.010600	3.730000	-11.228000	24.016673	0.001038	20.799348
600.154305	-2.998300	3.730000	-11.183000	24.037772	0.001040	20.808179
601.153158	-3.023600	3.729300	-11.275000	24.053049	0.001040	20.811646
602.154137	-3.002300	3.729000	-11.195000	24.038023	0.001035	20.804163
603.157059	-3.005700	3.729500	-11.208000	24.013511	0.001039	20.781478
604.154774	-3.015200	3.727100	-11.237000	24.027070	0.001038	20.810723
605.156365	-2.997100	3.729600	-11.178000	24.022091	0.001039	20.796721
606.156552	-2.995000	3.727900	-11.164000	24.016915	0.001039	20.793426
607.157150	-2.996700	3.728300	-11.172000	24.023583	0.001039	20.799166
608.157398	-2.970900	3.728300	-11.075000	24.007824	0.001041	20.809440
609.157848	-3.016300	3.726600	-11.239000	24.038437	0.001038	20.792725
610.158178	-2.981800	3.727400	-11.112000	24.042240	0.001038	20.797961
611.158114	-2.993600	3.726400	-11.154000	24.079269	0.001038	20.810442
612.158757	-2.995600	3.727100	-11.164000	24.068440	0.001038	20.799581
613.158147	-2.989700	3.725900	-11.139000	24.093768	0.001039	20.811707
614.157969	-2.978300	3.725500	-11.094000	24.139153	0.001038	20.785629
615.160674	-3.029200	3.724200	-11.280000	24.105337	0.001038	20.799602
616.157618	-2.993100	3.724400	-11.146000	24.069879	0.001038	20.798653
617.160089	-3.001500	3.725600	-11.181000	24.088740	0.001038	20.783905
618.161873	-3.006500	3.723500	-11.194000	24.070770	0.001036	20.797177
619.160254	-3.004500	3.724500	-11.190000	24.077990	0.001039	20.788296
620.161381	-2.998100	3.723800	-11.162000	24.095379	0.001037	20.787244
621.160047	-3.012300	3.723400	-11.215000	24.092144	0.001037	20.789215
622.161180	-3.007800	3.722800	-11.197000	24.091499	0.001037	20.789516
623.166866	-3.024800	3.722200	-11.258000	24.084057	0.001037	20.785847
624.161361	-2.995400	3.722100	-11.148000	24.103293	0.001036	20.789017
625.168766	-3.004900	3.722300	-11.184000	24.124534	0.001034	20.779975
626.161321	-3.018200	3.720200	-11.226000	24.115404	0.001036	20.814439
627.162322	-3.007400	3.721200	-11.190000	24.136978	0.001035	20.786291
628.166574	-3.016700	3.721200	-11.225000	24.132743	0.001036	20.794372
629.168786	-3.004100	3.720100	-11.174000	24.120875	0.001035	20.756864
630.166499	-2.986900	3.722000	-11.117000	24.123588	0.001036	20.769543
631.166431	-2.994200	3.720900	-11.140000	24.110396	0.001033	20.779071
632.165205	-2.994300	3.720700	-11.140000	24.101861	0.001035	20.795168
633.167640	-2.988700	3.719500	-11.115000	24.145351	0.001033	20.785206
634.166676	-2.993500	3.719900	-11.134000	24.124998	0.001033	20.788026
635.167004	-2.993700	3.719800	-11.133000	24.160454	0.001034	20.805570
636.167026	-3.002400	3.719100	-11.166000	24.142111	0.001034	20.803294
637.165443	-2.994000	3.718600	-11.133000	24.171248	0.001036	20.790793
638.173002	-3.014600	3.717400	-11.204000	24.168309	0.001033	20.774094
639.169870	-3.009000	3.719100	-11.189000	24.151039	0.001032	20.802291
640.169667	-2.985000	3.718500	-11.097000	24.114317	0.001033	20.781107
641.167915	-2.982600	3.718300	-11.089000	24.092491	0.001032	20.794305
642.171795	-2.993400	3.718300	-11.129000	24.113584	0.001030	20.790804
643.172783	-3.005200	3.716800	-11.168000	24.115977	0.001032	20.780402
644.170918	-3.016400	3.716300	-11.209000	24.165410	0.001032	20.774979
645.173756	-3.027100	3.716700	-11.249000	24.125551	0.001031	20.775779
646.170807	-2.992600	3.717000	-11.122000	24.143092	0.001030	20.785786
647.170170	-3.013100	3.714800	-11.193000	24.155285	0.001032	20.773359
648.169955	-3.001600	3.715300	-11.149000	24.181380	0.001031	20.787204
649.171658	-3.006600	3.714600	-11.168000	24.187353	0.001031	20.771858
650.169997	-2.997000	3.715300	-11.134000	24.205666	0.001031	20.770312
651.171086	-3.026200	3.713600	-11.237000	24.247910	0.001030	20.790874
652.176729	-2.974100	3.715600	-11.049000	24.227480	0.001030	20.768485
653.174455	-2.994100	3.714200	-11.118000	24.253824	0.001031	20.781633
654.172393	-2.995200	3.713900	-11.123000	24.230563	0.001030	20.792914
655.177298	-2.987700	3.714600	-11.096000	24.236975	0.001030	20.769473
656.174379	-2.995400	3.714000	-11.123000	24.212896	0.001029	20.765235
657.173974	-3.005200	3.712600	-11.156000	24.223098	0.001031	20.792065
658.175773	-3.030500	3.712200	-11.248000	24.229293	0.001029	20.788795
659.173892	-3.000000	3.712300	-11.136000	24.202619	0.001031	20.780532
660.177136	-2.986500	3.712200	-11.085000	24.187841	0.001029	20.774718
661.175403	-2.997900	3.711600	-11.125000	24.139770	0.001028	20.789566
662.177027	-3.009800	3.711600	-11.170000	24.149870	0.001027	20.762712
663.175930	-2.968300	3.713900	-11.022000	24.167809	0.001030	20.747039
664.176989	-3.003200	3.711100	-11.144000	24.169154	0.001027	20.769251
665.178576	-2.995800	3.710800	-11.116000	24.143074	0.001029	20.763957
666.176572	-2.972300	3.712200	-11.033000	24.154248	0.001028	20.782276
667.176538	-2.989200	3.710100	-11.090000	24.135535	0.001028	20.769671
668.180593	-3.005000	3.709800	-11.146000	24.159990	0.001028	20.759111
669.175956	-2.988900	3.709700	-11.086000	24.166786	0.001029	20.770195
670.175637	-2.988100	3.709300	-11.083000	24.178230	0.001028	20.782148
671.181685	-2.977400	3.709900	-11.045000	24.199350	0.001028	20.740268
672.182784	-3.006200	3.709000	-11.149000	24.205791	0.001030	20.749100
673.178224	-2.997500	3.710200	-11.121000	24.211390	0.001029	20.740965
674.181279	-3.013800	3.707700	-11.174000	24.243933	0.001026	20.780247
675.178465	-3.015200	3.707900	-11.179000	24.249355	0.001026	20.755338
676.177938	-2.978400	3.708700	-11.045000	24.274778	0.001027	20.760451
677.181728	-3.008700	3.708400	-11.156000	24.294758	0.001026	20.766269
678.178934	-2.988700	3.708000	-11.080000	24.298186	0.001026	20.752637
679.178837	-3.002300	3.705800	-11.126000	24.274453	0.001027	20.740684
680.181702	-3.022600	3.706300	-11.202000	24.262109	0.001027	20.767184
681.188038	-3.006000	3.706900	-11.142000	24.258480	0.001027	20.745050
682.182629	-2.978600	3.706500	-11.039000	24.223845	0.001027	20.740655
683.183109	-3.024900	3.705300	-11.207000	24.218891	0.001026	20.757972
684.182633	-3.012700	3.705500	-11.162000	24.199337	0.001025	20.757799
685.182492	-2.988100	3.705100	-11.071000	24.195201	0.001025	20.752703
686.185148	-3.001800	3.705100	-11.120000	24.199628	0.001026	20.758566
687.182754	-2.993700	3.704400	-11.088000	24.238313	0.001026	20.758487
688.184920	-3.026900	3.704600	-11.213000	24.234285	0.001025	20.764404
689.181893	-2.991700	3.704700	-11.082000	24.264040	0.001026	20.748732
690.186831	-3.008500	3.703800	-11.141000	24.260801	0.001024	20.736473
691.184169	-2.997100	3.703000	-11.097000	24.316401	0.001023	20.734873
692.181465	-2.981200	3.703300	-11.039000	24.327745	0.001024	20.755262
693.187938	-3.009200	3.701300	-11.137000	24.335431	0.001023	20.765818
694.181557	-2.976700	3.702300	-11.019000	24.333068	0.001022	20.757757
695.181355	-2.980900	3.703200	-11.038000	24.344461	0.001023	20.752590
696.186172	-2.983200	3.700900	-11.039000	24.327288	0.001022	20.769977
697.181805	-3.007600	3.701300	-11.132000	24.346840	0.001024	20.750235
698.182105	-2.990000	3.701600	-11.067000	24.349902	0.001024	20.751885
699.186007	-3.000200	3.701300	-11.103000	24.364703	0.001024	20.766258
700.182981	-2.997000	3.700500	-11.088000	24.368558	0.001024	20.753056
701.183622	-2.995000	3.700300	-11.081000	24.331838	0.001021	20.762213
702.187549	-3.018600	3.700700	-11.170000	24.368134	0.001021	20.751208
703.182945	-3.002900	3.700300	-11.110000	24.368829	0.001022	20.753802
704.184797	-2.999800	3.699400	-11.096000	24.335068	0.001019	20.759290
705.184298	-2.986900	3.699600	-11.048000	24.356786	0.001020	20.745040
706.183225	-3.002400	3.699200	-11.106000	24.376338	0.001021	20.767973
707.183660	-2.992400	3.699300	-11.069000	24.375018	0.001022	20.757166
708.185058	-2.995000	3.699500	-11.078000	24.383727	0.001019	20.743617
709.183729	-2.992500	3.698300	-11.066000	24.409422	0.001019	20.732884
710.184468	-2.973000	3.700000	-11.000000	24.371212	0.001020	20.735804
711.185149	-3.006800	3.696500	-11.114000	24.377682	0.001019	20.729965
712.186907	-2.998100	3.697000	-11.081000	24.367156	0.001020	20.730785
713.185698	-2.994000	3.697000	-11.068000	24.380912	0.001018	20.752173
714.183814	-3.001400	3.696800	-11.093000	24.393944	0.001017	20.755764
715.186407	-3.001500	3.696500	-11.094000	24.421633	0.001020	20.738496
716.187100	-3.001300	3.695200	-11.089000	24.424247	0.001018	20.743015
717.185169	-2.983800	3.695600	-11.026000	24.450713	0.001017	20.755818
718.187109	-2.974700	3.696900	-10.996000	24.449591	0.001017	20.736199
719.187134	-2.987700	3.695300	-11.039000	24.469914	0.001017	20.739993
720.190951	-3.015300	3.695700	-11.143000	24.461107	0.001019	20.741114
721.189648	-3.002900	3.696400	-11.099000	24.505728	0.001018	20.757434
722.188008	-2.998700	3.695000	-11.079000	24.487125	0.001016	20.740665
723.188681	-2.990500	3.694800	-11.049000	24.499737	0.001015	20.742887
724.189146	-3.014500	3.693600	-11.133000	24.468865	0.001017	20.739889
725.188516	-2.977100	3.695500	-11.001000	24.471853	0.001016	20.736249
726.190558	-3.007300	3.693900	-11.108000	24.462377	0.001017	20.756613
727.188672	-2.996300	3.693400	-11.066000	24.444068	0.001016	20.737296
728.192040	-2.994400	3.693000	-11.057000	24.471110	0.001015	20.739296
729.191717	-2.994400	3.694100	-11.061000	24.488695	0.001017	20.738446
730.192363	-2.987300	3.692800	-11.031000	24.481635	0.001016	20.729940
731.194207	-3.000800	3.692100	-11.078000	24.454992	0.001017	20.738772
732.193920	-3.008600	3.691300	-11.104000	24.457881	0.001015	20.743568
733.191951	-2.999600	3.690800	-11.070000	24.417930	0.001015	20.733358
734.196749	-2.990300	3.690800	-11.036000	24.429150	0.001018	20.738925
735.195934	-2.998200	3.691100	-11.066000	24.411938	0.001016	20.733037
736.193294	-3.012700	3.690700	-11.118000	24.422759	0.001015	20.721607
737.196575	-3.020500	3.691100	-11.147000	24.440522	0.001017	20.730419
738.194621	-2.988100	3.690700	-11.027000	24.450693	0.001014	20.727347
739.195340	-2.988300	3.690500	-11.027000	24.446814	0.001016	20.727248
740.194086	-2.994100	3.689600	-11.046000	24.453036	0.001014	20.723533
741.201592	-3.013400	3.688400	-11.113000	24.431398	0.001016	20.719369
742.194336	-2.993700	3.689300	-11.043000	24.445602	0.001013	20.744999
743.194619	-3.006900	3.687800	-11.087000	24.440629	0.001012	20.748545
744.199744	-2.990000	3.689100	-11.030000	24.457594	0.001013	20.736641
745.195712	-3.004900	3.687600	-11.080000	24.433067	0.001014	20.717249
746.194912	-3.014200	3.687800	-11.115000	24.417372	0.001014	20.742282
747.202316	-2.982000	3.687200	-10.994000	24.431333	0.001012	20.734477
748.195387	-3.005100	3.686600	-11.077000	24.445335	0.001013	20.728135
749.195193	-2.988700	3.686000	-11.016000	24.465140	0.001012	20.734729
750.194921	-3.004600	3.687100	-11.076000	24.477847	0.001012	20.742736
751.197613	-2.969300	3.688300	-10.951000	24.469763	0.001012	20.734151
752.195700	-2.989000	3.686000	-11.016000	24.490065	0.001013	20.733183
753.200714	-2.997000	3.685400	-11.045000	24.470442	0.001012	20.726771
754.200074	-2.995300	3.686700	-11.042000	24.476364	0.001011	20.728445
755.201279	-3.012400	3.686000	-11.102000	24.470220	0.001012	20.736506
756.197840	-2.987900	3.685000	-11.010000	24.486288	0.001011	20.742197
757.202383	-2.985100	3.685600	-11.000000	24.525464	0.001011	20.726499
758.201327	-2.984300	3.684700	-10.996000	24.514024	0.001010	20.709804
759.200257	-2.969900	3.684900	-10.943000	24.530786	0.001009	20.731365
760.202297	-3.002000	3.684200	-11.059000	24.499028	0.001010	20.745495
761.201273	-2.982300	3.684300	-10.986000	24.509425	0.001008	20.722735
762.200500	-2.998100	3.684800	-11.046000	24.512532	0.001007	20.732965
763.198397	-2.982900	3.683800	-10.987000	24.515072	0.001008	20.738832
764.204507	-3.000200	3.684700	-11.054000	24.507407	0.001007	20.730668
765.201921	-3.015700	3.683000	-11.106000	24.524474	0.001009	20.734041
766.201017	-2.992700	3.682800	-11.021000	24.533700	0.001007	20.771274
767.203574	-3.017500	3.681000	-11.107000	24.539593	0.001007	20.733562
768.202373	-3.019900	3.680800	-11.114000	24.543422	0.001007	20.738828
769.201136	-2.983300	3.682200	-10.984000	24.548399	0.001005	20.740028
770.202374	-2.993900	3.682100	-11.022000	24.537525	0.001007	20.745714
771.202388	-2.998200	3.681900	-11.038000	24.543324	0.001006	20.747264
772.204344	-2.994100	3.680400	-11.018000	24.572225	0.001004	20.747812
773.202270	-3.008000	3.679400	-11.067000	24.557427	0.001007	20.738655
774.200761	-3.006300	3.680300	-11.063000	24.583989	0.001007	20.750608
775.200970	-3.002000	3.680200	-11.046000	24.619229	0.001006	20.738551
776.201741	-3.001400	3.680100	-11.044000	24.594484	0.001003	20.733162
777.202528	-2.974700	3.679600	-10.944000	24.614750	0.001004	20.741644
778.200699	-2.992000	3.678800	-11.005000	24.580204	0.001005	20.724050
779.201768	-2.996100	3.677900	-11.019000	24.574735	0.001003	20.741797
780.205608	-2.991500	3.679500	-11.006000	24.581277	0.001005	20.741248
781.201746	-2.997200	3.678500	-11.024000	24.575857	0.001001	20.759993
782.202945	-2.998400	3.677100	-11.024000	24.541606	0.001002	20.776836
783.202831	-2.984200	3.677600	-10.974000	24.543349	0.001001	20.751082
784.202077	-3.013900	3.676800	-11.080000	24.542625	0.001003	20.730915
785.202887	-2.998100	3.677300	-11.023000	24.566426	0.001003	20.767125
786.206843	-3.000100	3.677700	-11.032000	24.546952	0.001001	20.744740
787.203139	-3.013600	3.674700	-11.073000	24.547750	0.001002	20.763085
788.203923	-2.993300	3.677100	-11.006000	24.552948	0.001000	20.750756
789.206465	-3.005500	3.676500	-11.048000	24.539543	0.000998	20.744893
790.203858	-2.987900	3.675600	-10.981000	24.552529	0.001000	20.754604
791.204669	-3.025400	3.673200	-11.112000	24.592101	0.001000	20.747367
792.209905	-3.005300	3.675900	-11.046000	24.572077	0.000999	20.750509
793.207530	-3.005400	3.673900	-11.040000	24.577998	0.001000	20.739381
794.205750	-2.987700	3.675100	-10.979000	24.586726	0.000999	20.752406
795.213971	-2.981400	3.676000	-10.958000	24.574493	0.000997	20.742028
796.206466	-2.960600	3.674600	-10.878000	24.619213	0.000998	20.747545
797.206462	-3.006300	3.673800	-11.043000	24.604712	0.000999	20.739158
798.211036	-2.999500	3.672100	-11.013000	24.604791	0.000998	20.743030
799.205466	-2.981200	3.674200	-10.953000	24.595266	0.000997	20.741533
800.205931	-2.990800	3.671100	-10.978000	24.607819	0.000997	20.747017
801.209015	-3.007200	3.671200	-11.038000	24.589669	0.000997	20.761997
802.209429	-2.989000	3.672300	-10.975000	24.582704	0.000994	20.752163
803.207585	-2.973800	3.672800	-10.921000	24.585465	0.000995	20.731699
804.208567	-3.006800	3.671200	-11.037000	24.538213	0.000995	20.749723
805.207670	-3.004200	3.670800	-11.027000	24.524430	0.000996	20.751066
806.209513	-2.988700	3.671400	-10.971000	24.541644	0.000994	20.741311
807.208281	-2.994000	3.670900	-10.990000	24.555747	0.000996	20.739814
808.210586	-3.024400	3.668900	-11.094000	24.552571	0.000995	20.741844
809.210155	-3.018400	3.668600	-11.072000	24.591317	0.000994	20.768393
810.210620	-2.981900	3.671400	-10.946000	24.572710	0.000994	20.764896
811.210194	-3.004900	3.670300	-11.028000	24.602983	0.000995	20.757813
812.210921	-3.004100	3.670400	-11.025000	24.623726	0.000995	20.756341
813.212204	-3.002500	3.668300	-11.013000	24.637253	0.000994	20.771811
814.212686	-2.991300	3.669300	-10.975000	24.640663	0.000995	20.751525
815.213606	-3.035000	3.667100	-11.129000	24.639517	0.000994	20.750848
816.212101	-3.019000	3.668000	-11.072000	24.630292	0.000993	20.758188
817.211777	-3.012400	3.667600	-11.047000	24.638646	0.000995	20.769415
818.213861	-3.027200	3.666500	-11.097000	24.641008	0.000992	20.761828
819.212153	-2.999000	3.667500	-10.998000	24.644218	0.000992	20.769316
820.212385	-3.032600	3.666000	-11.116000	24.636283	0.000990	20.756613
821.214591	-3.010500	3.666000	-11.036000	24.667096	0.000993	20.760979
822.211921	-3.013000	3.667100	-11.045000	24.688030	0.000993	20.764916
823.211454	-3.017200	3.665700	-11.060000	24.657345	0.000991	20.761152
824.214077	-3.025200	3.665400	-11.088000	24.644184	0.000992	20.741781
825.212414	-3.013600	3.665800	-11.046000	24.664133	0.000991	20.747574
826.214868	-3.014700	3.665300	-11.049000	24.682832	0.000993	20.762071
827.217176	-2.995400	3.664900	-10.977000	24.720062	0.000991	20.770033
828.213541	-3.023000	3.663900	-11.075000	24.691855	0.000992	20.769229
829.214063	-3.001300	3.666000	-11.002000	24.694468	0.000989	20.764739
830.217104	-2.997800	3.665900	-10.989000	24.674894	0.000990	20.755053
831.215827	-2.975400	3.664400	-10.902000	24.675490	0.000991	20.776514
832.214682	-3.014600	3.664500	-11.046000	24.714851	0.000988	20.760536
833.222229	-2.988000	3.663500	-10.945000	24.709235	0.000990	20.752529
834.217285	-2.997600	3.665000	-10.985000	24.727761	0.000991	20.758793
835.217167	-2.993900	3.663600	-10.967000	24.752725	0.000989	20.778629
836.218914	-2.990000	3.663500	-10.953000	24.738924	0.000989	20.755770
837.217597	-3.004900	3.662800	-11.005000	24.747897	0.000990	20.771887
838.217622	-2.997800	3.663100	-10.980000	24.736828	0.000989	20.774056
839.219182	-3.000600	3.662800	-10.990000	24.734844	0.000989	20.771591
840.218712	-2.984000	3.663400	-10.931000	24.697487	0.000987	20.768242
841.218775	-2.988300	3.662400	-10.943000	24.696493	0.000988	20.779573
842.219084	-2.988800	3.662500	-10.946000	24.658387	0.000986	20.755085
843.221630	-2.991700	3.661200	-10.952000	24.694101	0.000985	20.776225
844.219563	-2.988600	3.663200	-10.946000	24.700318	0.000983	20.763496
845.218224	-2.997100	3.659900	-10.968000	24.727448	0.000986	20.770332
846.220061	-2.984800	3.661000	-10.925000	24.703276	0.000986	20.788276
847.220243	-2.990700	3.660400	-10.947000	24.711432	0.000985	20.777020
848.220467	-2.987600	3.660800	-10.936000	24.721728	0.000985	20.777870
849.221373	-2.989100	3.658900	-10.935000	24.723392	0.000984	20.795661
850.220230	-3.019800	3.659300	-11.049000	24.745053	0.000985	20.791319
851.222465	-2.999300	3.660200	-10.977000	24.737395	0.000985	20.784582
852.221585	-2.984600	3.659700	-10.921000	24.780337	0.000982	20.790692
853.222194	-3.010800	3.657800	-11.010000	24.759873	0.000982	20.779164
854.229251	-2.983600	3.659100	-10.916000	24.762309	0.000983	20.791092
855.225820	-3.014900	3.656900	-11.023000	24.739379	0.000983	20.764762
856.228142	-3.016500	3.656100	-11.026000	24.778349	0.000980	20.774472
857.227878	-3.007100	3.655600	-10.991000	24.798389	0.000981	20.778937
858.225963	-2.990500	3.656500	-10.934000	24.824498	0.000981	20.786173
859.226752	-2.996400	3.656600	-10.956000	24.816417	0.000981	20.782330
860.225639	-2.976600	3.657200	-10.885000	24.817534	0.000983	20.774917
861.226624	-2.995100	3.655800	-10.947000	24.825320	0.000981	20.790317
862.227552	-2.995000	3.655700	-10.947000	24.833302	0.000979	20.797854
863.230052	-2.991900	3.656000	-10.936000	24.843889	0.000980	20.789038
864.227922	-2.993200	3.654600	-10.939000	24.867564	0.000980	20.784351
865.228220	-3.007300	3.653800	-10.987000	24.867692	0.000978	20.790643
866.232356	-2.996900	3.654200	-10.950000	24.862491	0.000980	20.793483
867.229955	-2.994200	3.654300	-10.941000	24.865576	0.000980	20.805114
868.231341	-3.015300	3.653200	-11.014000	24.863436	0.000979	20.794431
869.230333	-3.003800	3.653300	-10.973000	24.843421	0.000979	20.799000
870.229495	-3.002100	3.653000	-10.966000	24.849090	0.000981	20.785249
871.227071	-2.997900	3.654400	-10.955000	24.773772	0.000979	20.802595
872.231197	-2.991000	3.653300	-10.926000	24.773196	0.000978	20.793009
873.228295	-3.001900	3.653500	-10.966000	24.742534	0.000978	20.808705
874.230306	-3.003300	3.651900	-10.967000	24.769195	0.000977	20.782829
875.227552	-2.988700	3.652300	-10.914000	24.786031	0.000978	20.805416
876.232526	-3.011100	3.652400	-10.997000	24.773792	0.000976	20.787917
877.227827	-3.007200	3.651800	-10.981000	24.788143	0.000978	20.795681
878.229310	-3.006700	3.649900	-10.972000	24.815221	0.000977	20.791088
879.234237	-3.007300	3.650300	-10.976000	24.785830	0.000977	20.796204
880.230575	-2.989400	3.650700	-10.911000	24.801766	0.000976	20.792283
881.230171	-2.975800	3.650900	-10.863000	24.815591	0.000978	20.803787
882.233874	-2.971100	3.651900	-10.849000	24.803110	0.000976	20.802166
883.231345	-2.980300	3.650300	-10.878000	24.813208	0.000977	20.805663
884.231522	-3.015100	3.649800	-11.003000	24.824970	0.000976	20.815096
885.233801	-3.015500	3.648500	-11.002000	24.813553	0.000977	20.797474
886.231225	-3.003900	3.649200	-10.960000	24.793443	0.000974	20.812379
887.232626	-2.986300	3.649900	-10.899000	24.799527	0.000976	20.812321
888.238282	-2.996400	3.648000	-10.928000	24.794236	0.000976	20.812227
889.233298	-2.983200	3.649700	-10.886000	24.799084	0.000975	20.800497
890.232420	-3.002000	3.648500	-10.950000	24.804605	0.000975	20.808409
891.236198	-2.992300	3.649300	-10.919000	24.794010	0.000974	20.819112
892.232393	-2.978100	3.649100	-10.867000	24.795053	0.000973	20.819685
893.234135	-2.996400	3.647800	-10.928000	24.844513	0.000972	20.822382
894.234219	-3.023200	3.647100	-11.025000	24.849386	0.000972	20.814944
895.236658	-3.009700	3.647100	-10.976000	24.872087	0.000972	20.818761
896.237408	-3.004100	3.645800	-10.951000	24.880266	0.000972	20.807530
897.233388	-3.011700	3.646000	-10.980000	24.887899	0.000969	20.838898
898.236413	-2.981800	3.646600	-10.872000	24.909602	0.000972	20.809472
899.236278	-3.007600	3.645600	-10.963000	24.895532	0.000971	20.820481
900.235726	-2.976900	3.647000	-10.855000	24.927484	0.000972	20.810350
901.236929	-2.980800	3.647400	-10.871000	24.910452	0.000971	20.822179
902.235054	-2.996000	3.644200	-10.918000	24.894189	0.000970	20.814865
903.236078	-2.997500	3.643900	-10.921000	24.891950	0.000969	20.823049
904.238848	-2.996100	3.644300	-10.918000	24.914326	0.000970	20.823696
905.236413	-2.987900	3.645600	-10.892000	24.892422	0.000969	20.827316
906.237586	-2.998700	3.644400	-10.928000	24.905473	0.000967	20.821923
907.239752	-3.003600	3.642800	-10.940000	24.941573	0.000970	20.823544
908.237913	-3.002300	3.643700	-10.939000	24.923076	0.000969	20.837694
909.238180	-2.990800	3.643800	-10.896000	24.947415	0.000969	20.813285
910.239312	-3.015800	3.642800	-10.985000	24.961562	0.000968	20.821321
911.238653	-2.994600	3.643300	-10.909000	24.965045	0.000967	20.822447
912.239086	-2.981600	3.643700	-10.863000	24.965912	0.000966	20.811463
913.238825	-2.996900	3.642400	-10.916000	24.985699	0.000965	20.827530
914.239676	-2.980200	3.643000	-10.855000	24.999102	0.000965	20.840035
915.245454	-3.012000	3.640600	-10.965000	24.999948	0.000965	20.817652
916.238583	-3.006200	3.641600	-10.946000	24.997734	0.000965	20.832498
917.246084	-3.001300	3.640300	-10.924000	24.965489	0.000963	20.824788
918.241894	-3.004000	3.639600	-10.932000	24.957561	0.000965	20.850969
919.241336	-2.983100	3.640600	-10.860000	24.979114	0.000964	20.824240
920.241666	-3.004700	3.640400	-10.938000	24.945353	0.000962	20.835397
921.241106	-3.011200	3.640200	-10.961000	24.983863	0.000964	20.810041
922.240731	-2.994200	3.638800	-10.894000	24.972057	0.000964	20.836597
923.241117	-2.993900	3.641000	-10.899000	25.006718	0.000964	20.841042
924.247116	-3.001700	3.640300	-10.926000	25.003683	0.000962	20.825193
925.243913	-2.970200	3.639500	-10.809000	25.005901	0.000963	20.827420
926.244007	-2.991200	3.638100	-10.882000	24.984718	0.000963	20.838873
927.244078	-3.014900	3.638500	-10.969000	24.996433	0.000960	20.842098
928.240453	-2.973800	3.638100	-10.818000	24.990991	0.000961	20.822885
929.246018	-3.007500	3.637400	-10.938000	25.017892	0.000960	20.833765
930.243936	-3.022700	3.637800	-10.995000	25.019358	0.000962	20.820065
931.241668	-2.991200	3.637100	-10.879000	25.023790	0.000962	20.847747
932.244574	-2.991100	3.637000	-10.877000	25.023121	0.000959	20.844704
933.243116	-2.986300	3.637200	-10.860000	25.069490	0.000959	20.852843
934.242040	-3.007900	3.637500	-10.940000	25.092989	0.000959	20.850353
935.242155	-3.006900	3.637200	-10.936000	25.083965	0.000958	20.832286
936.244936	-2.994800	3.636400	-10.888000	25.076358	0.000960	20.835082
937.251085	-2.993200	3.637000	-10.885000	25.093909	0.000958	20.839897
938.250046	-2.999500	3.635300	-10.903000	25.064156	0.000957	20.842747
939.247253	-2.989700	3.634600	-10.865000	25.043401	0.000957	20.823810
940.246976	-3.001400	3.634600	-10.907000	25.030972	0.000957	20.846421
941.244244	-2.993000	3.635200	-10.879000	25.013848	0.000956	20.855310
942.246369	-3.008700	3.632900	-10.929000	24.976756	0.000958	20.841787
943.252557	-3.026200	3.632900	-10.992000	24.971831	0.000957	20.854386
944.247149	-3.011500	3.633500	-10.940000	24.986824	0.000958	20.848573
945.248400	-2.992500	3.634300	-10.873000	24.966540	0.000956	20.850973
946.244296	-2.975000	3.633600	-10.808000	24.998987	0.000954	20.828540
947.246449	-3.007900	3.632100	-10.923000	25.000827	0.000954	20.853146
948.246049	-2.996900	3.633400	-10.888000	25.022512	0.000954	20.851204
949.246100	-2.983200	3.632900	-10.837000	25.034099	0.000953	20.864732
950.245832	-3.005500	3.631100	-10.913000	25.089590	0.000954	20.846942
951.254900	-3.012700	3.631200	-10.939000	25.074903	0.000953	20.870603
952.248432	-2.989000	3.632100	-10.855000	25.053775	0.000953	20.856982
953.248652	-3.013800	3.630900	-10.942000	25.043280	0.000952	20.864938
954.247268	-3.002800	3.630100	-10.899000	25.020833	0.000952	20.845252
955.246399	-2.996800	3.631800	-10.882000	25.016828	0.000950	20.871576
956.249335	-2.994500	3.631000	-10.872000	25.006814	0.000951	20.844930
957.248219	-2.984900	3.631000	-10.837000	25.022053	0.000950	20.828459
958.246899	-3.015100	3.629200	-10.942000	25.011040	0.000949	20.858656
959.249114	-3.014800	3.630500	-10.944000	24.994758	0.000948	20.865071
960.248635	-2.999200	3.628300	-10.880000	25.019223	0.000946	20.862601
961.250826	-2.994500	3.629600	-10.867000	24.987224	0.000949	20.872207
962.249758	-3.014700	3.627800	-10.935000	24.980163	0.000948	20.860853
963.252207	-3.001300	3.627200	-10.885000	24.975592	0.000947	20.861480
964.251710	-2.999100	3.627100	-10.877000	24.987554	0.000946	20.858314
965.251105	-2.974900	3.628300	-10.793000	25.006670	0.000947	20.870390
966.252344	-2.994800	3.628100	-10.865000	25.010975	0.000947	20.854323
967.251695	-2.991800	3.628300	-10.855000	25.002699	0.000948	20.855973
968.248340	-3.002500	3.626900	-10.888000	24.996977	0.000948	20.865875
969.252490	-2.981000	3.626900	-10.811000	24.994989	0.000946	20.849182
970.251566	-3.009900	3.625800	-10.912000	25.002600	0.000945	20.854925
971.252950	-2.990300	3.626500	-10.843000	24.995465	0.000944	20.865307
972.274977	-3.000400	3.624400	-10.873000	25.044567	0.000944	20.870497
973.250255	-2.970000	3.626700	-10.770000	25.056031	0.000945	20.875841
974.250672	-2.999600	3.625600	-10.875000	25.079250	0.000945	20.870700
975.255250	-2.981900	3.626600	-10.812000	25.109205	0.000944	20.865682
976.250804	-3.010000	3.624900	-10.910000	25.115546	0.000943	20.881530
977.250586	-3.010100	3.622900	-10.904000	25.126434	0.000942	20.865435
978.254240	-2.980400	3.625000	-10.802000	25.157681	0.000943	20.861242
979.257032	-2.998700	3.623700	-10.865000	25.148978	0.000943	20.874315
980.252827	-2.996900	3.625300	-10.863000	25.146321	0.000942	20.888242
981.252764	-3.001100	3.623200	-10.873000	25.146464	0.000944	20.902609
982.252895	-2.983500	3.624700	-10.813000	25.152654	0.000943	20.889858
983.255560	-3.010100	3.622700	-10.904000	25.179403	0.000942	20.880202
984.252192	-2.984600	3.622500	-10.811000	25.189646	0.000940	20.885269
985.256010	-2.986100	3.624100	-10.821000	25.166277	0.000941	20.887413
986.255712	-3.000600	3.622900	-10.870000	25.109151	0.000939	20.875585
987.252535	-3.014600	3.621600	-10.917000	25.074321	0.000940	20.894199
988.254353	-2.990700	3.623000	-10.834000	25.033777	0.000939	20.888114
989.252753	-3.004800	3.619200	-10.873000	25.020000	0.000938	20.883294
990.252986	-3.012700	3.619000	-10.902000	25.028359	0.000938	20.891210
991.254419	-3.003700	3.620700	-10.875000	25.057892	0.000937	20.866803
992.253543	-3.026500	3.619800	-10.954000	25.090454	0.000937	20.881472
993.255243	-3.002200	3.619100	-10.863000	25.073302	0.000938	20.893177
994.257563	-2.991700	3.619900	-10.829000	25.116285	0.000935	20.914037
995.256558	-2.990700	3.619400	-10.824000	25.113274	0.000937	20.895844
996.258678	-3.004000	3.619100	-10.871000	25.092865	0.000936	20.890055
997.264475	-2.984900	3.617200	-10.795000	25.066488	0.000934	20.885388
998.261088	-2.999900	3.619400	-10.857000	25.057115	0.000934	20.879299
999.258205	-2.991500	3.618700	-10.824000	25.042443	0.000935	20.885908
1000.263370	-3.004200	3.615600	-10.860000	25.035810	0.000933	20.869767
1001.260261	-3.004900	3.617900	-10.871000	25.071158	0.000933	20.893395
1002.258349	-3.000000	3.616300	-10.848000	25.085008	0.000932	20.865574
1003.263159	-3.008000	3.617400	-10.881000	25.101195	0.000934	20.874237
1004.261758	-2.998200	3.617000	-10.844000	25.132590	0.000934	20.886312
1005.259845	-3.009000	3.616600	-10.882000	25.103158	0.000933	20.875259
1006.267793	-2.986600	3.615900	-10.798000	25.147557	0.000933	20.862932
1007.261840	-3.005900	3.616700	-10.870000	25.153224	0.000934	20.893750
1008.262409	-2.983300	3.615500	-10.786000	25.148172	0.000931	20.879670
1009.264539	-3.021100	3.614200	-10.917000	25.117328	0.000930	20.871940
1010.267977	-2.994400	3.614900	-10.824000	25.114067	0.000932	20.857761
1011.262478	-3.015500	3.614500	-10.899000	25.140964	0.000932	20.877176
1012.265003	-3.003100	3.613700	-10.851000	25.164083	0.000930	20.884263
1013.261962	-3.015300	3.614400	-10.898000	25.157077	0.000929	20.873911
1014.261925	-2.995500	3.613800	-10.824000	25.165574	0.000928	20.890026
1015.264003	-2.996200	3.614500	-10.829000	25.189534	0.000929	20.878045
1016.262494	-3.010500	3.613700	-10.878000	25.173426	0.000929	20.857608
1017.261771	-2.998900	3.612800	-10.833000	25.175862	0.000928	20.861001
1018.263231	-3.016600	3.613800	-10.900000	25.172782	0.000927	20.883986
1019.265026	-2.997800	3.611900	-10.826000	25.212824	0.000926	20.853065
1020.263244	-2.996400	3.612200	-10.822000	25.192983	0.000925	20.859224
1021.263487	-3.012900	3.611200	-10.879000	25.171582	0.000924	20.867610
1022.266729	-2.984200	3.613800	-10.783000	25.159626	0.000925	20.856083
1023.263079	-2.986400	3.612100	-10.785000	25.149133	0.000927	20.863091
1024.264127	-3.033400	3.609200	-10.947000	25.165639	0.000925	20.851687
1025.265537	-3.005300	3.609600	-10.847000	25.193028	0.000922	20.864484
1026.265299	-3.001400	3.610500	-10.836000	25.202597	0.000925	20.866979
1027.265441	-2.995400	3.609500	-10.811000	25.213439	0.000924	20.856528
1028.266238	-3.021100	3.609000	-10.901000	25.193328	0.000924	20.875690
1029.270442	-3.023100	3.608400	-10.908000	25.175056	0.000923	20.863986
1030.265552	-3.011700	3.607600	-10.864000	25.166082	0.000921	20.849288
1031.265566	-2.999900	3.608600	-10.824000	25.192851	0.000922	20.853402
1032.270349	-2.992100	3.609900	-10.800000	25.218005	0.000921	20.844991
1033.267150	-3.010800	3.607000	-10.859000	25.207344	0.000923	20.855624
1034.267107	-3.001600	3.608100	-10.829000	25.232872	0.000920	20.846641
1035.275010	-2.995100	3.608100	-10.803000	25.225542	0.000922	20.849712
1036.272091	-2.978100	3.606300	-10.739000	25.244581	0.000921	20.841326
1037.270940	-2.996000	3.607100	-10.806000	25.224145	0.000920	20.850207
1038.272584	-3.001800	3.607700	-10.828000	25.221193	0.000920	20.851984
1039.272144	-3.006200	3.607100	-10.842000	25.212416	0.000920	20.860716
1040.270246	-2.986500	3.606700	-10.770000	25.204009	0.000918	20.858914
1041.275541	-3.031000	3.604200	-10.922000	25.169979	0.000919	20.856993
1042.274150	-2.991000	3.605400	-10.783000	25.193471	0.000920	20.859240
1043.274044	-2.993400	3.605900	-10.793000	25.201948	0.000919	20.866801
1044.274957	-3.007300	3.604100	-10.838000	25.191730	0.000918	20.828095
1045.269899	-2.978300	3.605100	-10.736000	25.218970	0.000918	20.835055
1046.271538	-3.009700	3.603100	-10.842000	25.210420	0.000917	20.856815
1047.269692	-2.978500	3.605400	-10.737000	25.187750	0.000917	20.845436
1048.271369	-2.979200	3.604000	-10.736000	25.171560	0.000918	20.853838
1049.270926	-3.007200	3.602100	-10.832000	25.173794	0.000918	20.836641
1050.269374	-2.976700	3.604100	-10.726000	25.160121	0.000915	20.830502
1051.269508	-2.999600	3.602300	-10.804000	25.139315	0.000918	20.833796
1052.273751	-2.997900	3.602100	-10.797000	25.127030	0.000916	20.833792
1053.275063	-3.034400	3.601400	-10.927000	25.156983	0.000916	20.849162
1054.272913	-2.987600	3.601400	-10.757000	25.158893	0.000916	20.848708
1055.279371	-3.009700	3.601300	-10.838000	25.179596	0.000916	20.832509
1056.279302	-2.994900	3.602500	-10.788000	25.177854	0.000915	20.847355
1057.280675	-2.991200	3.601900	-10.771000	25.207078	0.000914	20.822642
1058.275910	-3.011200	3.599800	-10.838000	25.196314	0.000913	20.850715
1059.275826	-3.004900	3.600000	-10.817000	25.214926	0.000914	20.817245
1060.272360	-3.010400	3.599400	-10.835000	25.223550	0.000913	20.838704
1061.273688	-2.977000	3.599900	-10.716000	25.231299	0.000912	20.806656
1062.284110	-3.011700	3.598100	-10.835000	25.205221	0.000915	20.847329
1063.272792	-2.997900	3.598300	-10.786000	25.241307	0.000911	20.837091
1064.275665	-2.984200	3.599100	-10.738000	25.230416	0.000913	20.852709
1065.272690	-3.001200	3.596600	-10.792000	25.212366	0.000913	20.837433
1066.272024	-2.996800	3.598100	-10.782000	25.208830	0.000911	20.810176
1067.276546	-2.998400	3.599100	-10.789000	25.195729	0.000910	20.849179
1068.273682	-2.993000	3.595900	-10.760000	25.208993	0.000909	20.834047
1069.274518	-3.003800	3.597500	-10.805000	25.167234	0.000908	20.831953
1070.278616	-3.023200	3.595000	-10.867000	25.143787	0.000908	20.830699
1071.274420	-3.010500	3.596700	-10.827000	25.135576	0.000907	20.827198
1072.275794	-2.995500	3.596200	-10.771000	25.165554	0.000908	20.849705
1073.279639	-2.995900	3.595000	-10.769000	25.179571	0.000907	20.835329
1074.278662	-2.991100	3.596000	-10.754000	25.237584	0.000905	20.837621
1075.277129	-2.991000	3.595800	-10.754000	25.238425	0.000905	20.821871
1076.278021	-3.011100	3.594300	-10.822000	25.275603	0.000904	20.840704
1077.276980	-3.014700	3.594000	-10.834000	25.284202	0.000904	20.849812
1078.278357	-3.002200	3.593900	-10.789000	25.303490	0.000904	20.838832
1079.277392	-3.002700	3.592800	-10.786000	25.328938	0.000902	20.855373
1080.275871	-3.009300	3.592900	-10.809000	25.327512	0.000900	20.834503
1081.278413	-3.007700	3.593100	-10.806000	25.340911	0.000902	20.832309
1082.278896	-3.008400	3.592600	-10.806000	25.350902	0.000904	20.811521
1083.276881	-2.982100	3.593800	-10.716000	25.343564	0.000901	20.836869
1084.279863	-3.014500	3.592300	-10.825000	25.325073	0.000899	20.825415
1085.277349	-3.000700	3.591200	-10.775000	25.310306	0.000898	20.810115
1086.279326	-3.022500	3.591600	-10.854000	25.337696	0.000898	20.827658
1087.282743	-3.014200	3.590800	-10.821000	25.313784	0.000897	20.831150
1088.277750	-2.997800	3.590400	-10.762000	25.323923	0.000899	20.840381
1089.278454	-3.012400	3.591000	-10.816000	25.275252	0.000895	20.821387
1090.280102	-3.003400	3.590800	-10.784000	25.250522	0.000897	20.801774
1091.279729	-3.013500	3.589800	-10.817000	25.283256	0.000898	20.805241
1092.282453	-2.997200	3.590200	-10.760000	25.277786	0.000896	20.821086
1093.282803	-3.014100	3.590200	-10.820000	25.270205	0.000895	20.823432
1094.280064	-3.010200	3.589400	-10.803000	25.236945	0.000897	20.830816
1095.280996	-3.005300	3.589400	-10.786000	25.254563	0.000895	20.819581
1096.283822	-3.013900	3.588400	-10.814000	25.233339	0.000894	20.838575
1097.282551	-3.013200	3.588500	-10.812000	25.191655	0.000894	20.820908
1098.281653	-3.012400	3.586800	-10.805000	25.187651	0.000894	20.814043
1099.280687	-3.005500	3.587500	-10.781000	25.183273	0.000891	20.821028
1100.282338	-3.029300	3.586000	-10.862000	25.189683	0.000892	20.833153
1101.282841	-3.011900	3.587400	-10.804000	25.224407	0.000892	20.807323
1102.282075	-3.013700	3.587300	-10.810000	25.232485	0.000890	20.818277
1103.284129	-3.001200	3.588400	-10.768000	25.228308	0.000889	20.793696
1104.285358	-2.990700	3.586600	-10.725000	25.213914	0.000888	20.838987
1105.281466	-3.015200	3.585600	-10.810000	25.203721	0.000889	20.805995
1106.284052	-3.003300	3.585200	-10.765000	25.170635	0.000889	20.814979
1107.285118	-2.999600	3.585600	-10.754000	25.176180	0.000888	20.841881
1108.283421	-2.993700	3.585200	-10.733000	25.217092	0.000888	20.813730
1109.284661	-3.022600	3.584200	-10.832000	25.227088	0.000886	20.805748
1110.284010	-2.980800	3.584600	-10.684000	25.249881	0.000885	20.818199
1111.291126	-2.992600	3.585600	-10.729000	25.243786	0.000887	20.822986
1112.284085	-3.005400	3.583300	-10.768000	25.236181	0.000885	20.826255
1113.284061	-3.016200	3.584400	-10.810000	25.248135	0.000884	20.803645
1114.284042	-3.015400	3.582300	-10.802000	25.247293	0.000884	20.806118
1115.289244	-3.000800	3.584500	-10.756000	25.251942	0.000884	20.809363
1116.283907	-3.007400	3.582900	-10.773000	25.267026	0.000883	20.810283
1117.284818	-2.996300	3.582000	-10.730000	25.284101	0.000883	20.817469
1118.287933	-2.990800	3.580900	-10.708000	25.257778	0.000883	20.814274
1119.285980	-3.019600	3.581100	-10.813000	25.204509	0.000882	20.817217
1120.285681	-3.004000	3.582700	-10.761000	25.251240	0.000882	20.812925
1121.284853	-2.993300	3.581200	-10.717000	25.251367	0.000881	20.801200
1122.286410	-3.003500	3.582000	-10.758000	25.284651	0.000880	20.795737
1123.286879	-3.011700	3.579900	-10.780000	25.291657	0.000880	20.805615
1124.288240	-2.984800	3.581800	-10.689000	25.284947	0.000880	20.800775
1125.287935	-2.968500	3.579800	-10.625000	25.313286	0.000881	20.810736
1126.290810	-2.988900	3.581100	-10.702000	25.328767	0.000880	20.798779
1127.290498	-3.012900	3.579000	-10.781000	25.324168	0.000878	20.786575
1128.290351	-3.013200	3.580200	-10.786000	25.318181	0.000878	20.815177
1129.294137	-3.003200	3.577900	-10.744000	25.328053	0.000876	20.802330
1130.290241	-3.024800	3.578800	-10.823000	25.291641	0.000876	20.826936
1131.291529	-2.992000	3.577800	-10.704000	25.288409	0.000877	20.803303
1132.290166	-2.984100	3.577600	-10.675000	25.288783	0.000876	20.813635
1133.291902	-2.966300	3.577900	-10.612000	25.284808	0.000873	20.775031
1134.292929	-3.014500	3.576700	-10.781000	25.280213	0.000875	20.795073
1135.293316	-3.013600	3.576200	-10.777000	25.298478	0.000875	20.795395
1136.297312	-3.005800	3.577000	-10.751000	25.263909	0.000873	20.805257
1137.292222	-3.003000	3.576600	-10.738000	25.227097	0.000874	20.774462
1138.292085	-2.982900	3.577400	-10.670000	25.232120	0.000873	20.794203
1139.292618	-2.992200	3.577400	-10.703000	25.219845	0.000872	20.788992
1140.295220	-3.022800	3.574200	-10.803000	25.205257	0.000871	20.793787
1141.291688	-3.011000	3.575400	-10.765000	25.233344	0.000872	20.766509
1142.292462	-3.020400	3.574600	-10.795000	25.238342	0.000871	20.780536
1143.291351	-3.009300	3.574400	-10.756000	25.281100	0.000870	20.781266
1144.291413	-2.995000	3.573200	-10.701000	25.278094	0.000870	20.776825
1145.292646	-3.014900	3.573200	-10.771000	25.273573	0.000870	20.782243
1146.294601	-3.008700	3.572100	-10.746000	25.276657	0.000869	20.771115
1147.296664	-2.999600	3.572800	-10.716000	25.266194	0.000871	20.782895
1148.295161	-3.022400	3.572500	-10.796000	25.305740	0.000867	20.780400
1149.297486	-2.972300	3.574700	-10.624000	25.299527	0.000867	20.780800
1150.298801	-2.998400	3.573000	-10.712000	25.317481	0.000867	20.798353
1151.295742	-2.976800	3.572500	-10.633000	25.326375	0.000866	20.798274
1152.293347	-2.998000	3.572200	-10.708000	25.359661	0.000866	20.775746
1153.301494	-3.005700	3.572000	-10.735000	25.357222	0.000867	20.781357
1154.296654	-3.009500	3.570500	-10.745000	25.385609	0.000866	20.782833
1155.305250	-3.011200	3.570400	-10.749000	25.403532	0.000864	20.776175
1156.298024	-2.986900	3.571600	-10.666000	25.392770	0.000865	20.799507
1157.299100	-2.980200	3.569900	-10.638000	25.395854	0.000863	20.775577
1158.298170	-3.010500	3.569300	-10.744000	25.417083	0.000863	20.785988
1159.301828	-3.006300	3.568400	-10.726000	25.404161	0.000862	20.767797
1160.300694	-3.009500	3.567900	-10.736000	25.352915	0.000860	20.768024
1161.303017	-2.998100	3.568500	-10.696000	25.356295	0.000863	20.767624
1162.299386	-3.010900	3.568400	-10.743000	25.368946	0.000862	20.782698
1163.303650	-3.007500	3.566800	-10.726000	25.394795	0.000860	20.737054
1164.302213	-3.003900	3.567300	-10.713000	25.399000	0.000860	20.776365
1165.300736	-3.011000	3.565500	-10.735000	25.365025	0.000861	20.783977
1166.303769	-3.005800	3.566700	-10.719000	25.381002	0.000859	20.791010
1167.303150	-3.000600	3.566700	-10.701000	25.341665	0.000857	20.768107
1168.301950	-2.982300	3.567600	-10.638000	25.393309	0.000859	20.767806
1169.304490	-3.014900	3.565200	-10.748000	25.401410	0.000859	20.759819
1170.301940	-3.007700	3.565200	-10.720000	25.404100	0.000858	20.755882
1171.302170	-3.018300	3.564700	-10.759000	25.412049	0.000858	20.765286
1172.300957	-3.025000	3.565700	-10.785000	25.426638	0.000857	20.759547
1173.302473	-2.994700	3.563900	-10.671000	25.421522	0.000856	20.745400
1174.304051	-3.013300	3.562700	-10.735000	25.433774	0.000855	20.770981
1175.304537	-2.993000	3.564500	-10.666000	25.421497	0.000856	20.757704
1176.304706	-3.000700	3.563700	-10.692000	25.404847	0.000856	20.760425
1177.305259	-2.997900	3.563400	-10.681000	25.388871	0.000856	20.765246
1178.304520	-2.984500	3.564500	-10.637000	25.387971	0.000855	20.769558
1179.310465	-3.002500	3.564100	-10.701000	25.394705	0.000854	20.758776
1180.306844	-2.980900	3.562800	-10.620000	25.408847	0.000854	20.769657
1181.303971	-2.998300	3.561800	-10.679000	25.392196	0.000851	20.768585
1182.307814	-2.987000	3.563400	-10.643000	25.397218	0.000853	20.747549
1183.304209	-3.007000	3.561100	-10.706000	25.410883	0.000852	20.747994
1184.303048	-2.996500	3.560800	-10.669000	25.432801	0.000851	20.757675
1185.303175	-2.991600	3.560800	-10.652000	25.404818	0.000851	20.780785
1186.303909	-3.002100	3.560200	-10.687000	25.381877	0.000851	20.739731
1187.304338	-2.976300	3.562000	-10.601000	25.347947	0.000848	20.747861
1188.302807	-2.968600	3.561900	-10.572000	25.338034	0.000848	20.753556
1189.302516	-2.990000	3.559200	-10.641000	25.325181	0.000848	20.743969
1190.306287	-2.976700	3.561200	-10.599000	25.333809	0.000848	20.759745
1191.305294	-2.998700	3.559000	-10.671000	25.315987	0.000846	20.756075
1192.307630	-3.001800	3.559300	-10.683000	25.314521	0.000846	20.752706
1193.307451	-2.993800	3.559900	-10.657000	25.341636	0.000846	20.736782
1194.306271	-2.994900	3.558000	-10.655000	25.361243	0.000846	20.759316
1195.307108	-3.005600	3.557200	-10.690000	25.355306	0.000845	20.742448
1196.308033	-3.010300	3.557000	-10.705000	25.360299	0.000844	20.765006
1197.305357	-2.997400	3.557200	-10.661000	25.407598	0.000842	20.735686
1198.307930	-2.973600	3.558500	-10.580000	25.402650	0.000844	20.750632
1199.306088	-3.010600	3.555300	-10.703000	25.414455	0.000843	20.722656
1200.305663	-3.019700	3.555300	-10.735000	25.409084	0.000843	20.743816
1201.309515	-2.984600	3.555800	-10.612000	25.436225	0.000843	20.751630
1202.307448	-2.986100	3.556500	-10.618000	25.433220	0.000843	20.734861
1203.307988	-2.977500	3.556200	-10.587000	25.434410	0.000841	20.734634
1204.314153	-2.980400	3.555600	-10.596000	25.444129	0.000841	20.762412
1205.314964	-3.014500	3.554700	-10.715000	25.422088	0.000841	20.752133
1206.309455	-3.002300	3.554900	-10.672000	25.432871	0.000841	20.734036
1207.312952	-3.002200	3.554800	-10.670000	25.435704	0.000839	20.738778
1208.308298	-2.997500	3.554300	-10.652000	25.475966	0.000841	20.737009
1209.309227	-3.008700	3.554700	-10.693000	25.490570	0.000838	20.737924
1210.310644	-2.987700	3.554800	-10.620000	25.448104	0.000836	20.738902
1211.310297	-3.026000	3.552600	-10.749000	25.467984	0.000837	20.747960
1212.325420	-2.977700	3.554500	-10.582000	25.482769	0.000835	20.750954
1213.312704	-2.998200	3.552400	-10.650000	25.495793	0.000836	20.734160
1214.314106	-3.010500	3.551800	-10.691000	25.453667	0.000835	20.732160
1215.315530	-2.993900	3.552800	-10.635000	25.435975	0.000836	20.749482
1216.314160	-3.000100	3.551900	-10.654000	25.449594	0.000836	20.760313
1217.313174	-3.041800	3.549000	-10.794000	25.423402	0.000833	20.734011
1218.318600	-3.011600	3.549700	-10.689000	25.435675	0.000834	20.742068
1219.312851	-2.999200	3.550400	-10.648000	25.432698	0.000834	20.731966
1220.315026	-3.009200	3.551600	-10.686000	25.464133	0.000834	20.734135
1221.316203	-2.988300	3.550600	-10.609000	25.448005	0.000835	20.749234
1222.315539	-3.005000	3.549000	-10.664000	25.467586	0.000833	20.761785
1223.318179	-2.998800	3.549200	-10.643000	25.458389	0.000832	20.747808
1224.315968	-2.987300	3.549800	-10.603000	25.498351	0.000831	20.728193
1225.316413	-3.005800	3.548300	-10.665000	25.516987	0.000831	20.747857
1226.318732	-2.996400	3.548800	-10.633000	25.537962	0.000828	20.759439
1227.315959	-2.992700	3.548600	-10.618000	25.573097	0.000830	20.754895
1228.318978	-3.001800	3.547400	-10.648000	25.559106	0.000829	20.750801
1229.319559	-2.991400	3.548300	-10.614000	25.573914	0.000828	20.759983
1230.319894	-2.991000	3.547900	-10.612000	25.605768	0.000828	20.750248
1231.319974	-2.984600	3.546600	-10.584000	25.591186	0.000826	20.736551
1232.319366	-2.985300	3.547500	-10.589000	25.584851	0.000827	20.751527
1233.323188	-3.004200	3.546200	-10.652000	25.540068	0.000827	20.743536
1234.324407	-3.000800	3.545400	-10.638000	25.505006	0.000825	20.750525
1235.325049	-3.010500	3.544300	-10.669000	25.493177	0.000827	20.767096
1236.326224	-3.010700	3.545300	-10.671000	25.484452	0.000826	20.752644
1237.322055	-2.984100	3.544900	-10.578000	25.510594	0.000823	20.728634
1238.323370	-2.997900	3.545100	-10.627000	25.512733	0.000824	20.756862
1239.324328	-2.994300	3.544300	-10.612000	25.482987	0.000823	20.758284
1240.322968	-2.987700	3.543800	-10.586000	25.499410	0.000823	20.749646
1241.321787	-2.992100	3.543300	-10.601000	25.481870	0.000821	20.745309
1242.331113	-2.990100	3.543500	-10.595000	25.506619	0.000820	20.728436
1243.321705	-3.007000	3.542700	-10.651000	25.526947	0.000823	20.755015
1244.322125	-3.023200	3.541200	-10.704000	25.546978	0.000820	20.750949
1245.323491	-3.002900	3.541500	-10.634000	25.556244	0.000820	20.741288
1246.325560	-3.001100	3.540500	-10.624000	25.556495	0.000820	20.760981
1247.325576	-3.009900	3.541200	-10.657000	25.532120	0.000818	20.749778
1248.323502	-2.972300	3.542600	-10.529000	25.502473	0.000817	20.762206
1249.329837	-2.968800	3.542400	-10.515000	25.515890	0.000818	20.753394
1250.322334	-3.000900	3.541400	-10.627000	25.501656	0.000818	20.771343
1251.323794	-3.013600	3.539400	-10.665000	25.472529	0.000817	20.758689
1252.327542	-3.011200	3.540600	-10.661000	25.455305	0.000815	20.763678
1253.329076	-3.001200	3.539300	-10.621000	25.424116	0.000817	20.746109
1254.323193	-3.005200	3.538300	-10.632000	25.446284	0.000815	20.751300
1255.333047	-3.006300	3.538800	-10.638000	25.472082	0.000816	20.734056
1256.327168	-2.984200	3.539200	-10.560000	25.466293	0.000815	20.747210
1257.325651	-2.992600	3.538500	-10.589000	25.525711	0.000814	20.746661
1258.325472	-3.002200	3.537200	-10.617000	25.546412	0.000814	20.735681
1259.327540	-3.004100	3.538400	-10.629000	25.558437	0.000814	20.746336
1260.329765	-2.990400	3.538000	-10.578000	25.543874	0.000812	20.713217
1261.326352	-3.014300	3.536500	-10.658000	25.582388	0.000812	20.761855
1262.327657	-2.996700	3.537500	-10.600000	25.594191	0.000812	20.745733
1263.326746	-3.002400	3.536800	-10.617000	25.630966	0.000812	20.741416
1264.326851	-3.025300	3.534900	-10.693000	25.608478	0.000815	20.744435
1265.328593	-2.981600	3.537100	-10.545000	25.579157	0.000813	20.763352
1266.326127	-3.004900	3.535700	-10.623000	25.546826	0.000812	20.744632
1267.325814	-3.010400	3.534500	-10.639000	25.541583	0.000812	20.758808
1268.326248	-3.012700	3.535400	-10.650000	25.548287	0.000813	20.751790
1269.325718	-2.988800	3.534900	-10.564000	25.554893	0.000810	20.750837
1270.326279	-2.992000	3.533700	-10.571000	25.548234	0.000811	20.766910
1271.325910	-3.001700	3.532700	-10.602000	25.545618	0.000812	20.762386
1272.330986	-2.993500	3.533200	-10.575000	25.565399	0.000810	20.762811
1273.335940	-2.998400	3.532300	-10.590000	25.587560	0.000810	20.760885
1274.328104	-2.987000	3.533100	-10.553000	25.596378	0.000809	20.773535
1275.331215	-3.020500	3.531100	-10.665000	25.605619	0.000809	20.767169
1276.335549	-3.021400	3.530300	-10.664000	25.609219	0.000807	20.757034
1277.330162	-2.998900	3.532500	-10.592000	25.627081	0.000808	20.755059
1278.333910	-3.004000	3.532100	-10.609000	25.608964	0.000809	20.744924
1279.336609	-2.993800	3.530300	-10.568000	25.587095	0.000806	20.758996
1280.330889	-2.998500	3.531500	-10.588000	25.594674	0.000804	20.740528
1281.333530	-2.995100	3.529600	-10.570000	25.597227	0.000804	20.770594
1282.334366	-2.987500	3.530000	-10.544000	25.610368	0.000803	20.782370
1283.335608	-3.002200	3.528100	-10.591000	25.609251	0.000802	20.793102
1284.335377	-3.022100	3.528500	-10.661000	25.610122	0.000802	20.774536
1285.332570	-2.985300	3.529800	-10.537000	25.616904	0.000802	20.786089
1286.336090	-2.980900	3.527700	-10.515000	25.621649	0.000801	20.767147
1287.336611	-2.986700	3.528500	-10.538000	25.625623	0.000799	20.763552
1288.333297	-3.000100	3.526900	-10.580000	25.623336	0.000797	20.786386
1289.334530	-2.991500	3.526300	-10.547000	25.607609	0.000799	20.767271
1290.336397	-2.983100	3.527500	-10.521000	25.548840	0.000797	20.760406
1291.334084	-2.998800	3.526000	-10.573000	25.522793	0.000798	20.782139
1292.336006	-3.005700	3.526000	-10.597000	25.448216	0.000795	20.762249
1293.337241	-3.006600	3.525200	-10.597000	25.457113	0.000796	20.768339
1294.336556	-2.995800	3.526800	-10.565000	25.464245	0.000796	20.773130
1295.336705	-3.023500	3.525000	-10.656000	25.460763	0.000794	20.777220
1296.342629	-2.989900	3.525500	-10.540000	25.478160	0.000796	20.792793
1297.344832	-3.003000	3.524300	-10.582000	25.474653	0.000796	20.749442
1298.338092	-3.008000	3.524800	-10.602000	25.441999	0.000794	20.776395
1299.335247	-3.003200	3.525200	-10.585000	25.424602	0.000793	20.757977
1300.338535	-3.013400	3.524500	-10.620000	25.432453	0.000793	20.770128
1301.337438	-2.997100	3.522600	-10.556000	25.468515	0.000793	20.787375
1302.338150	-2.990400	3.524700	-10.539000	25.507454	0.000793	20.770528
1303.338863	-3.009600	3.521200	-10.596000	25.536403	0.000793	20.776366
1304.343089	-2.980500	3.523000	-10.499000	25.533743	0.000792	20.806411
1305.341341	-2.989000	3.523300	-10.530000	25.573727	0.000791	20.779710
1306.341522	-3.006500	3.522100	-10.588000	25.606726	0.000789	20.806213
1307.338674	-2.985400	3.522100	-10.514000	25.610921	0.000789	20.789564
1308.340019	-3.010900	3.520100	-10.597000	25.630573	0.000792	20.788438
1309.339764	-2.972000	3.522300	-10.467000	25.630405	0.000788	20.776890
1310.340888	-2.989600	3.521600	-10.527000	25.622277	0.000789	20.787692
1311.338886	-3.014400	3.519100	-10.607000	25.649265	0.000788	20.774968
1312.340314	-3.014000	3.519700	-10.607000	25.661986	0.000788	20.765934
1313.342809	-3.013900	3.519300	-10.606000	25.629477	0.000785	20.786863
1314.344536	-3.031500	3.518700	-10.666000	25.598573	0.000785	20.766256
1315.340757	-3.008100	3.520700	-10.590000	25.623492	0.000785	20.778481
1316.346148	-3.014000	3.517700	-10.601000	25.631045	0.000785	20.785593
1317.344256	-3.022100	3.518800	-10.632000	25.624214	0.000783	20.806708
1318.343010	-3.025300	3.517500	-10.639000	25.651695	0.000781	20.781676
1319.343144	-3.003100	3.517600	-10.563000	25.625926	0.000781	20.801315
1320.343860	-3.003800	3.517100	-10.564000	25.653057	0.000783	20.787787
1321.342289	-2.998600	3.517300	-10.546000	25.662126	0.000781	20.775558
1322.346740	-2.992600	3.517300	-10.525000	25.661806	0.000780	20.789461
1323.343367	-2.991500	3.517300	-10.521000	25.662003	0.000781	20.795823
1324.345356	-3.007100	3.514900	-10.568000	25.685882	0.000781	20.792780
1325.346127	-3.005000	3.515400	-10.563000	25.689580	0.000778	20.786537
1326.345617	-2.997500	3.516000	-10.538000	25.687918	0.000777	20.803834
1327.344972	-3.000100	3.513000	-10.537000	25.689880	0.000780	20.798692
1328.346045	-2.992100	3.515100	-10.516000	25.672959	0.000778	20.784068
1329.346094	-3.015000	3.514700	-10.595000	25.662602	0.000776	20.804011
1330.346180	-2.995600	3.513300	-10.524000	25.645155	0.000779	20.794549
1331.347889	-3.021000	3.512400	-10.610000	25.643419	0.000778	20.819831
1332.347145	-3.025100	3.512600	-10.625000	25.638845	0.000777	20.809548
1333.345139	-3.002500	3.512500	-10.545000	25.671522	0.000779	20.789737
1334.346629	-2.995800	3.512500	-10.522000	25.685455	0.000778	20.782394
1335.346499	-3.015800	3.512200	-10.590000	25.689703	0.000775	20.791877
1336.349050	-2.987800	3.511100	-10.488000	25.692388	0.000776	20.783668
1337.347231	-2.994900	3.511100	-10.513000	25.667220	0.000777	20.783519
1338.348061	-3.014100	3.509200	-10.576000	25.675586	0.000776	20.786232
1339.350270	-2.995300	3.511600	-10.517000	25.674843	0.000776	20.822944
1340.348507	-2.998300	3.510000	-10.523000	25.631377	0.000775	20.819117
1341.351629	-2.996100	3.509300	-10.512000	25.602755	0.000773	20.788001
1342.349928	-3.007100	3.510800	-10.556000	25.600768	0.000774	20.808765
1343.349050	-3.003400	3.508500	-10.536000	25.555662	0.000773	20.813724
1344.353771	-2.993100	3.510500	-10.506000	25.540475	0.000775	20.787568
1345.356289	-3.011600	3.507100	-10.560000	25.530983	0.000772	20.814071
1346.351104	-3.019800	3.507200	-10.589000	25.547553	0.000773	20.811745
1347.353458	-3.004200	3.507100	-10.535000	25.566385	0.000772	20.796044
1348.354073	-2.991000	3.506600	-10.487000	25.566184	0.000770	20.799161
1349.352512	-2.994700	3.506400	-10.500000	25.588620	0.000771	20.811737
1350.356132	-3.004800	3.507200	-10.537000	25.593066	0.000771	20.824736
1351.353549	-3.017000	3.507400	-10.581000	25.583496	0.000769	20.799953
1352.351667	-3.012200	3.505900	-10.560000	25.562895	0.000770	20.815299
1353.353142	-3.014400	3.506100	-10.567000	25.569525	0.000768	20.808681
1354.355871	-2.995000	3.505900	-10.498000	25.562345	0.000767	20.842721
1355.353349	-3.004900	3.504900	-10.531000	25.567062	0.000768	20.831337
1356.354432	-3.003900	3.503100	-10.522000	25.602791	0.000767	20.808425
1357.358514	-3.001900	3.503600	-10.517000	25.608929	0.000765	20.813641
1358.355224	-2.991800	3.503800	-10.480000	25.616852	0.000765	20.840090
1359.353647	-3.008900	3.503300	-10.540000	25.596769	0.000765	20.831774
1360.361339	-3.000400	3.502500	-10.508000	25.600102	0.000763	20.803354
1361.354423	-3.006100	3.501200	-10.524000	25.593312	0.000762	20.810759
1362.356424	-2.983400	3.502500	-10.448000	25.601564	0.000763	20.844176
1363.357500	-3.020000	3.501100	-10.571000	25.631824	0.000762	20.831893
1364.357849	-2.987700	3.502100	-10.462000	25.615899	0.000762	20.823487
1365.356347	-3.005200	3.500800	-10.520000	25.577231	0.000762	20.824954
1366.361969	-3.005200	3.501700	-10.522000	25.602701	0.000757	20.836783
1367.359851	-3.003500	3.501000	-10.515000	25.613210	0.000758	20.826002
1368.356939	-2.978500	3.500000	-10.424000	25.627423	0.000758	20.822732
1369.360696	-3.003300	3.499000	-10.507000	25.654008	0.000759	20.833786
1370.360633	-3.009100	3.499600	-10.530000	25.648220	0.000756	20.836507
1371.356565	-2.997900	3.497600	-10.485000	25.663302	0.000756	20.819413
1372.358773	-2.999500	3.498100	-10.492000	25.652296	0.000757	20.814049
1373.360574	-3.001000	3.497900	-10.496000	25.687846	0.000755	20.824624
1374.358062	-3.013300	3.498300	-10.540000	25.700264	0.000754	20.831881
1375.365633	-3.010400	3.497200	-10.527000	25.718305	0.000754	20.849053
1376.357921	-3.003800	3.497100	-10.503000	25.733362	0.000756	20.837150
1377.359758	-3.000500	3.497200	-10.492000	25.751148	0.000754	20.835101
1378.361702	-3.005000	3.497000	-10.507000	25.764238	0.000753	20.817430
1379.362309	-3.000000	3.495400	-10.485000	25.774475	0.000753	20.840514
1380.360272	-3.033900	3.494500	-10.601000	25.785652	0.000751	20.835620
1381.364130	-2.992000	3.495500	-10.457000	25.803811	0.000751	20.847696
1382.363131	-2.995600	3.496000	-10.472000	25.778046	0.000752	20.851213
1383.362924	-3.031300	3.493000	-10.587000	25.771906	0.000751	20.837933
1384.363249	-3.015300	3.494100	-10.534000	25.787286	0.000749	20.828252
1385.370919	-3.024600	3.493900	-10.567000	25.800798	0.000747	20.845618
1386.362908	-3.010100	3.493000	-10.513000	25.774336	0.000751	20.828994
1387.363421	-3.010400	3.492500	-10.513000	25.739507	0.000749	20.842373
1388.366035	-3.008600	3.492400	-10.507000	25.708966	0.000750	20.849155
1389.365372	-2.988800	3.492400	-10.437000	25.679648	0.000751	20.849106
1390.370733	-3.014400	3.491700	-10.524000	25.628087	0.000748	20.852322
1391.369486	-3.005500	3.491600	-10.493000	25.623563	0.000748	20.847778
1392.362047	-3.002300	3.491300	-10.481000	25.662222	0.000748	20.848673
1393.363882	-2.985900	3.491800	-10.426000	25.677427	0.000748	20.844031
1394.366419	-2.998300	3.491500	-10.467000	25.716183	0.000747	20.847869
1395.365808	-2.999100	3.489900	-10.465000	25.720259	0.000746	20.847222
1396.366860	-2.993900	3.490500	-10.449000	25.779134	0.000745	20.852779
1397.371532	-2.971900	3.490800	-10.373000	25.778662	0.000745	20.857521
1398.365755	-3.010800	3.490000	-10.506000	25.819630	0.000744	20.848413
1399.366073	-2.996600	3.488800	-10.453000	25.831623	0.000744	20.850978
1400.367920	-3.032100	3.489000	-10.576000	25.812045	0.000743	20.849803
1401.368737	-3.006500	3.487800	-10.484000	25.757658	0.000744	20.841165
1402.365473	-3.021000	3.486500	-10.532000	25.761808	0.000744	20.848178
1403.366403	-3.001300	3.487500	-10.466000	25.761754	0.000743	20.854762
1404.369028	-3.009900	3.488200	-10.498000	25.765954	0.000741	20.863721
1405.375897	-3.001700	3.487200	-10.467000	25.804611	0.000742	20.869836
1406.366269	-2.978000	3.487600	-10.385000	25.770797	0.000742	20.842035
1407.368482	-2.982800	3.486500	-10.399000	25.821871	0.000740	20.853983
1408.369205	-2.990300	3.486400	-10.424000	25.828179	0.000741	20.848941
1409.368221	-2.984600	3.486400	-10.404000	25.821350	0.000740	20.855830
1410.367108	-3.003600	3.485300	-10.467000	25.786218	0.000741	20.876964
1411.372962	-3.027500	3.483400	-10.544000	25.762764	0.000737	20.872845
1412.368281	-3.004200	3.483500	-10.464000	25.758068	0.000738	20.864810
1413.365031	-3.003300	3.483000	-10.460000	25.772776	0.000738	20.879582
1414.366570	-3.006500	3.484500	-10.474000	25.734343	0.000738	20.868953
1415.367445	-3.009100	3.484000	-10.483000	25.747359	0.000737	20.863536
1416.367568	-2.995000	3.483500	-10.432000	25.772304	0.000737	20.881478
1417.366082	-2.995200	3.482400	-10.429000	25.739781	0.000736	20.865882
1418.369378	-2.995500	3.482300	-10.430000	25.747511	0.000734	20.867007
1419.369237	-3.005400	3.480700	-10.460000	25.740299	0.000735	20.877780
1420.368521	-2.993200	3.481400	-10.420000	25.740299	0.000735	20.893900
1421.369390	-2.966400	3.481900	-10.328000	25.741739	0.000734	20.873538
1422.367372	-2.978400	3.481200	-10.368000	25.762805	0.000733	20.879050
1423.367062	-3.002500	3.479700	-10.447000	25.762760	0.000732	20.886116
1424.374347	-2.984200	3.479800	-10.382000	25.749518	0.000732	20.871394
1425.370533	-2.999400	3.479000	-10.434000	25.781987	0.000733	20.865127
1426.369354	-2.977900	3.479700	-10.359000	25.764349	0.000731	20.857368
1427.378106	-2.991700	3.479000	-10.407000	25.765711	0.000730	20.875331
1428.368981	-2.989800	3.478800	-10.400000	25.745442	0.000732	20.882472
1429.370465	-3.010100	3.477900	-10.467000	25.743131	0.000728	20.874461
1430.374265	-3.024100	3.477800	-10.516000	25.715998	0.000730	20.903630
1431.372329	-3.007800	3.477300	-10.458000	25.764123	0.000729	20.873262
1432.372264	-3.023300	3.476100	-10.508000	25.756176	0.000727	20.882348
1433.373915	-2.986800	3.477800	-10.386000	25.791082	0.000727	20.867152
1434.373652	-3.001900	3.475900	-10.432000	25.805765	0.000727	20.861037
1435.373270	-3.006600	3.475600	-10.448000	25.770686	0.000726	20.879380
1436.379144	-2.991300	3.476100	-10.397000	25.750364	0.000727	20.877459
1437.376273	-2.994300	3.475600	-10.405000	25.721297	0.000725	20.896625
1438.375423	-2.992900	3.475600	-10.400000	25.719011	0.000723	20.876787
1439.375581	-2.984200	3.475100	-10.369000	25.718769	0.000727	20.909731
1440.374172	-2.994800	3.474200	-10.403000	25.752305	0.000723	20.891262
1441.378657	-3.009700	3.472000	-10.448000	25.763708	0.000724	20.891336
1442.375318	-3.004900	3.472600	-10.434000	25.780156	0.000724	20.883202
1443.378150	-2.984600	3.473700	-10.366000	25.732409	0.000725	20.884080
1444.380272	-3.004900	3.471800	-10.431000	25.734195	0.000723	20.883029
1445.376744	-2.982800	3.472200	-10.356000	25.722689	0.000722	20.885696
1446.378663	-2.995500	3.472600	-10.400000	25.722566	0.000720	20.882728
1447.377393	-2.999200	3.471500	-10.410000	25.686171	0.000720	20.880786
1448.383419	-2.994500	3.470300	-10.390000	25.695810	0.000720	20.892837
1449.377202	-2.993700	3.469500	-10.386000	25.674390	0.000720	20.907357
1450.375856	-3.015400	3.470000	-10.462000	25.696729	0.000722	20.895182
1451.377897	-3.004700	3.469100	-10.423000	25.686319	0.000720	20.888046
1452.385496	-2.981000	3.470600	-10.345000	25.755018	0.000719	20.878341
1453.379858	-2.985000	3.470300	-10.357000	25.764332	0.000720	20.913297
1454.380097	-3.018100	3.467700	-10.464000	25.764110	0.000719	20.901696
1455.379579	-2.991200	3.468000	-10.372000	25.774721	0.000720	20.898130
1456.380179	-2.986100	3.468700	-10.356000	25.767911	0.000718	20.906936
1457.384423	-2.977300	3.466800	-10.321000	25.796086	0.000719	20.885927
1458.381521	-2.999400	3.468200	-10.401000	25.795388	0.000720	20.920784
1459.382606	-3.004700	3.465900	-10.413000	25.783936	0.000719	20.918764
1460.380296	-3.014300	3.465800	-10.446000	25.758471	0.000718	20.909781
1461.384985	-3.002800	3.467000	-10.410000	25.714311	0.000716	20.887238
1462.384658	-3.008900	3.465400	-10.426000	25.701967	0.000717	20.917511
1463.381711	-3.007500	3.464500	-10.417000	25.735188	0.000717	20.907258
1464.383652	-2.997100	3.464400	-10.382000	25.754690	0.000716	20.893657
1465.380674	-2.992300	3.466100	-10.370000	25.757494	0.000717	20.908800
1466.380647	-3.006400	3.465200	-10.417000	25.769886	0.000716	20.898963
1467.382501	-2.986400	3.465200	-10.347000	25.791431	0.000716	20.898320
1468.383093	-2.983900	3.464200	-10.335000	25.833585	0.000715	20.898464
1469.381233	-3.024800	3.462800	-10.473000	25.871243	0.000714	20.890301
1470.381757	-3.004100	3.462400	-10.400000	25.873332	0.000716	20.909942
1471.381349	-3.017900	3.462100	-10.447000	25.889253	0.000715	20.906969
1472.383321	-2.992800	3.462900	-10.363000	25.892581	0.000714	20.907468
1473.384105	-3.008200	3.460900	-10.410000	25.916176	0.000713	20.917420
1474.383690	-3.015200	3.460900	-10.433000	25.911801	0.000713	20.886001
1475.388570	-3.007400	3.459000	-10.402000	25.922406	0.000715	20.891913
1476.384874	-3.008600	3.459500	-10.407000	25.907176	0.000711	20.885148
1477.384701	-3.024700	3.458600	-10.460000	25.893936	0.000711	20.903613
1478.387330	-3.004100	3.459500	-10.392000	25.920465	0.000713	20.919832
1479.385397	-2.994900	3.457800	-10.354000	25.913779	0.000709	20.897471
1480.387737	-3.020700	3.456400	-10.439000	25.929301	0.000709	20.893150
1481.388040	-2.981800	3.457800	-10.310000	25.909528	0.000711	20.897467
1482.385765	-2.991500	3.458500	-10.345000	25.915836	0.000710	20.886261
1483.387910	-2.988300	3.457000	-10.330000	25.912302	0.000708	20.904995
1484.389785	-3.000400	3.457800	-10.373000	25.932548	0.000708	20.877447
1485.386969	-3.002600	3.456300	-10.377000	25.920646	0.000706	20.890145
1486.388240	-2.988200	3.455400	-10.325000	25.955518	0.000707	20.893410
1487.386496	-2.991600	3.456500	-10.339000	25.958301	0.000704	20.874870
1488.387447	-3.000700	3.455600	-10.367000	25.966217	0.000706	20.883771
1489.390553	-2.997700	3.455100	-10.355000	25.982666	0.000704	20.895554
1490.386817	-2.986900	3.455500	-10.320000	25.938273	0.000705	20.893629
1491.389680	-2.990600	3.454200	-10.329000	25.938593	0.000704	20.915285
1492.388726	-2.974700	3.454300	-10.274000	25.922743	0.000704	20.895571
1493.387660	-3.015200	3.452900	-10.409000	25.916981	0.000703	20.885989
1494.387958	-2.990400	3.455000	-10.331000	25.909848	0.000701	20.880246
1495.388854	-2.997700	3.452100	-10.348000	25.919115	0.000701	20.883392
1496.389319	-3.001700	3.452200	-10.361000	25.913127	0.000700	20.875006
1497.390535	-3.001700	3.451800	-10.359000	25.938491	0.000701	20.881994
1498.391318	-3.009300	3.451000	-10.383000	25.918020	0.000699	20.890825
1499.389993	-2.998400	3.452200	-10.350000	25.892734	0.000699	20.869218
1500.391169	-3.003300	3.451400	-10.365000	25.908358	0.000700	20.869741
1501.391098	-2.995700	3.450500	-10.336000	25.896432	0.000699	20.904224
1502.395293	-3.009400	3.451000	-10.384000	25.918717	0.000697	20.866398
1503.392963	-3.013600	3.449200	-10.393000	25.915738	0.000697	20.862456
1504.391379	-2.999300	3.451200	-10.350000	25.936377	0.000698	20.889353
1505.397883	-3.014800	3.449400	-10.398000	25.903688	0.000697	20.874058
1506.396704	-3.015700	3.448900	-10.400000	25.888835	0.000696	20.856293
1507.392696	-2.984900	3.448300	-10.292000	25.879173	0.000698	20.867923
1508.393670	-2.993200	3.449100	-10.323000	25.863872	0.000694	20.857294
1509.394478	-3.005600	3.445700	-10.355000	25.845759	0.000696	20.858540
1510.395259	-2.997800	3.446400	-10.331000	25.834062	0.000695	20.856272
1511.398369	-2.991100	3.446000	-10.306000	25.825044	0.000692	20.856222
1512.396320	-3.004200	3.446300	-10.352000	25.840666	0.000693	20.874285
1513.400051	-3.003900	3.446500	-10.352000	25.830212	0.000690	20.866154
1514.395412	-3.024200	3.445600	-10.419000	25.822163	0.000691	20.875138
1515.396256	-2.992000	3.445500	-10.309000	25.825422	0.000692	20.874618
1516.403268	-3.026000	3.444600	-10.421000	25.822733	0.000692	20.863858
1517.397393	-3.000200	3.445600	-10.337000	25.819507	0.000690	20.858721
1518.396420	-3.000700	3.444900	-10.336000	25.831086	0.000688	20.863714
1519.397552	-3.001900	3.444500	-10.339000	25.876517	0.000689	20.851506
1520.398648	-3.012000	3.444800	-10.374000	25.881369	0.000690	20.878663
1521.401437	-2.987800	3.442100	-10.284000	25.898282	0.000688	20.867680
1522.399898	-2.994500	3.441300	-10.304000	25.882165	0.000689	20.857179
1523.400554	-3.005400	3.442300	-10.344000	25.919300	0.000687	20.844699
1524.400598	-2.998800	3.442800	-10.323000	25.923301	0.000686	20.869580
1525.399538	-3.006100	3.441600	-10.344000	25.899353	0.000686	20.870652
1526.402208	-3.004800	3.442200	-10.342000	25.864602	0.000684	20.877941
1527.404492	-2.991200	3.440700	-10.291000	25.822848	0.000686	20.851646
1528.401264	-3.003200	3.441500	-10.334000	25.863933	0.000684	20.870158
1529.402149	-3.020800	3.440100	-10.391000	25.868830	0.000684	20.852792
1530.402287	-3.015600	3.440300	-10.374000	25.876484	0.000684	20.870912
1531.405245	-3.012500	3.439700	-10.361000	25.894543	0.000682	20.843062
1532.405106	-3.034700	3.438200	-10.433000	25.938544	0.000683	20.871617
1533.404121	-3.009500	3.438100	-10.347000	25.951586	0.000681	20.844892
1534.405916	-2.998200	3.438600	-10.309000	25.951808	0.000681	20.852227
1535.405297	-2.983200	3.439400	-10.259000	25.962840	0.000682	20.850508
1536.406049	-3.000100	3.437700	-10.313000	25.941478	0.000680	20.860815
1537.403175	-2.996800	3.435600	-10.293000	25.911124	0.000680	20.842650
1538.408097	-2.977200	3.437400	-10.232000	25.895774	0.000680	20.866109
1539.406167	-3.006600	3.436400	-10.331000	25.881270	0.000679	20.842056
1540.405144	-3.003500	3.436700	-10.321000	25.891826	0.000680	20.855979
1541.409949	-3.029000	3.434300	-10.401000	25.900773	0.000679	20.852165
1542.410350	-3.018000	3.434700	-10.365000	25.920075	0.000680	20.846426
1543.408648	-3.004300	3.434900	-10.318000	25.900252	0.000679	20.841685
1544.409790	-3.009800	3.435000	-10.338000	25.924700	0.000677	20.857710
1545.410467	-3.014600	3.434100	-10.351000	25.926982	0.000678	20.834874
1546.410062	-3.021000	3.432600	-10.369000	25.945221	0.000677	20.847032
1547.416438	-3.017200	3.432400	-10.355000	25.981763	0.000676	20.824476
1548.410893	-2.996700	3.433700	-10.289000	25.956926	0.000677	20.836506
1549.411621	-3.011400	3.431800	-10.334000	25.941897	0.000674	20.839425
1550.412455	-3.006100	3.432500	-10.317000	25.948775	0.000676	20.847758
1551.414534	-2.995000	3.431200	-10.276000	25.955686	0.000674	20.841899
1552.417116	-2.996900	3.431200	-10.281000	25.916587	0.000675	20.840077
1553.413480	-3.015300	3.429100	-10.338000	25.913882	0.000674	20.845420
1554.414194	-2.994000	3.431600	-10.272000	25.916570	0.000672	20.848595
1555.410651	-3.006800	3.428600	-10.309000	25.926473	0.000673	20.828199
1556.415900	-2.996500	3.429900	-10.277000	25.932170	0.000674	20.825861
1557.414202	-2.977400	3.429600	-10.210000	25.949308	0.000674	20.823639
1558.412575	-2.991700	3.429700	-10.260000	25.949436	0.000672	20.826137
1559.414718	-2.995700	3.428900	-10.271000	25.970079	0.000673	20.819375
1560.412960	-2.990200	3.427700	-10.248000	25.988534	0.000671	20.818951
1561.413502	-2.982300	3.430500	-10.228000	25.976637	0.000672	20.842085
1562.414464	-3.008300	3.428400	-10.312000	25.926539	0.000670	20.830161
1563.418164	-2.983100	3.428200	-10.225000	25.928127	0.000670	20.824170
1564.415688	-3.016000	3.427100	-10.335000	25.930167	0.000671	20.829538
1565.417852	-2.982200	3.427500	-10.220000	25.964670	0.000670	20.825795
1566.415286	-3.008500	3.425100	-10.303000	25.986285	0.000670	20.821433
1567.417762	-3.009100	3.425900	-10.308000	25.996147	0.000668	20.844616
1568.418813	-3.016900	3.425200	-10.333000	26.018127	0.000667	20.842043
1569.416569	-3.009800	3.425300	-10.309000	26.010802	0.000668	20.834210
1570.416655	-3.010800	3.424900	-10.310000	26.006382	0.000668	20.830244
1571.415336	-2.999900	3.424300	-10.271000	26.042027	0.000668	20.823857
1572.428421	-3.010700	3.423900	-10.307000	26.019030	0.000667	20.819718
1573.415718	-3.006900	3.423600	-10.293000	26.006488	0.000666	20.822290
1574.418502	-3.008000	3.423900	-10.298000	26.001995	0.000667	20.827259
1575.416773	-2.993000	3.423800	-10.246000	26.047079	0.000666	20.790526
1576.418561	-3.031300	3.422900	-10.375000	26.044391	0.000665	20.811533
1577.415301	-2.992400	3.423400	-10.243000	26.019584	0.000664	20.822645
1578.416662	-2.997600	3.422200	-10.258000	25.998326	0.000665	20.805555
1579.415466	-3.047700	3.420200	-10.421000	25.978755	0.000664	20.819557
1580.415174	-2.986000	3.423600	-10.222000	26.012562	0.000664	20.798047
1581.416260	-3.003600	3.421900	-10.277000	26.009628	0.000662	20.818806
1582.415288	-3.031500	3.418600	-10.363000	26.017606	0.000663	20.828244
1583.415816	-3.019600	3.421000	-10.329000	26.011824	0.000662	20.807736
1584.416851	-2.996700	3.419900	-10.248000	26.016219	0.000662	20.807885
1585.416559	-3.023300	3.419400	-10.336000	25.972307	0.000660	20.807864
1586.416294	-3.019600	3.418800	-10.323000	25.956286	0.000659	20.821165
1587.417420	-3.019200	3.418900	-10.321000	25.924590	0.000658	20.803073
1588.419022	-3.007800	3.419300	-10.283000	25.936143	0.000658	20.818947
1589.417835	-2.959200	3.419400	-10.117000	25.943768	0.000660	20.813331
1590.423304	-2.988900	3.417700	-10.214000	25.978447	0.000660	20.816403
1591.418334	-2.989200	3.417900	-10.215000	25.977487	0.000661	20.777506
1592.417567	-2.997000	3.417700	-10.241000	25.955650	0.000658	20.811517
1593.418861	-3.003900	3.416200	-10.260000	25.951472	0.000656	20.801630
1594.419907	-2.982000	3.418200	-10.192000	25.976116	0.000658	20.801733
1595.423140	-3.035900	3.415000	-10.367000	25.931358	0.000659	20.791380
1596.422757	-2.999300	3.415400	-10.242000	25.930237	0.000657	20.795944
1597.422643	-3.031400	3.415000	-10.352000	25.907931	0.000658	20.790605
1598.421262	-3.000500	3.414900	-10.246000	25.931009	0.000658	20.795297
1599.423505	-2.992900	3.414800	-10.219000	25.935228	0.000657	20.786733
1600.426366	-3.000000	3.413600	-10.240000	25.953885	0.000655	20.790304
1601.424736	-3.000200	3.414400	-10.243000	25.988136	0.000657	20.801956
1602.424251	-2.994600	3.414000	-10.222000	25.966923	0.000658	20.808145
1603.423025	-2.988200	3.413500	-10.199000	25.936024	0.000655	20.811241
1604.422763	-2.990400	3.413700	-10.207000	25.944761	0.000652	20.799630
1605.422564	-2.992400	3.412800	-10.211000	25.927225	0.000654	20.802401
1606.422294	-3.005300	3.412500	-10.255000	25.953487	0.000653	20.800810
1607.425998	-3.001300	3.411300	-10.238000	25.947175	0.000653	20.791623
1608.429145	-2.986700	3.412400	-10.191000	25.931325	0.000654	20.772855
1609.424700	-3.015400	3.410000	-10.282000	25.934801	0.000651	20.775873
1610.424598	-2.994000	3.410200	-10.209000	26.001494	0.000652	20.782660
1611.426913	-2.994600	3.411500	-10.215000	26.027377	0.000652	20.800129
1612.425084	-3.016300	3.410500	-10.286000	26.036565	0.000651	20.798455
1613.424913	-3.002900	3.408800	-10.235000	26.038797	0.000650	20.806862
1614.424480	-2.997400	3.409600	-10.219000	26.013137	0.000651	20.797202
1615.427102	-3.008800	3.408800	-10.256000	26.012045	0.000650	20.799898
1616.426592	-2.986600	3.409000	-10.180000	25.978188	0.000649	20.785323
1617.423337	-3.008400	3.408300	-10.252000	25.996471	0.000648	20.782829
1618.426843	-2.996400	3.406900	-10.208000	26.007892	0.000648	20.790984
1619.423516	-3.002600	3.407000	-10.229000	26.055532	0.000646	20.783847
1620.424085	-3.011800	3.405800	-10.256000	26.054436	0.000646	20.788910
1621.426571	-2.979500	3.407800	-10.151000	26.076017	0.000645	20.784989
1622.429841	-2.995300	3.406300	-10.202000	26.078254	0.000644	20.790081
1623.429332	-2.985900	3.407700	-10.174000	26.107458	0.000645	20.797140
1624.427923	-2.999600	3.406000	-10.216000	26.102965	0.000643	20.791203
1625.429571	-2.989400	3.406900	-10.184000	26.113868	0.000643	20.788407
1626.430309	-2.989200	3.406000	-10.180000	26.069234	0.000641	20.782441
1627.432262	-3.004000	3.404100	-10.224000	26.047747	0.000642	20.776025
1628.429577	-2.990200	3.405400	-10.182000	26.028920	0.000642	20.799783
1629.434408	-2.994800	3.403600	-10.190000	26.047944	0.000641	20.794716
1630.430161	-2.995900	3.402200	-10.192000	26.054449	0.000642	20.780388
1631.430350	-3.002000	3.403900	-10.217000	26.009341	0.000641	20.791017
1632.433702	-3.001900	3.403100	-10.215000	26.004621	0.000639	20.786276
1633.431928	-3.007800	3.403200	-10.235000	26.061351	0.000642	20.798228
1634.433127	-3.013800	3.402800	-10.254000	26.065200	0.000640	20.777440
1635.432844	-2.985200	3.403100	-10.158000	26.073017	0.000641	20.772018
1636.433670	-2.994700	3.402700	-10.187000	26.062586	0.000639	20.790460
1637.433867	-2.995100	3.401700	-10.187000	26.049697	0.000639	20.760914
1638.436657	-2.992800	3.401300	-10.178000	26.035859	0.000636	20.770719
1639.433505	-2.992100	3.401100	-10.175000	26.032609	0.000639	20.788791
1640.433815	-2.992700	3.400700	-10.176000	26.033446	0.000637	20.785838
1641.432277	-3.018700	3.399700	-10.261000	26.014347	0.000634	20.774710
1642.433513	-3.015100	3.398000	-10.244000	25.993680	0.000637	20.768171
1643.435061	-2.982400	3.399600	-10.137000	25.971872	0.000634	20.780400
1644.434140	-2.981300	3.400000	-10.134000	25.985259	0.000635	20.771564
1645.435530	-3.010100	3.398500	-10.229000	26.017823	0.000636	20.764452
1646.435092	-3.002300	3.398000	-10.201000	26.018221	0.000634	20.759162
1647.435284	-3.013200	3.397200	-10.235000	26.039232	0.000632	20.771737
1648.437368	-3.007300	3.398100	-10.219000	26.014688	0.000633	20.765095
1649.433872	-3.003000	3.397300	-10.201000	25.999073	0.000632	20.770269
1650.433627	-3.011500	3.395700	-10.224000	25.988415	0.000633	20.780899
1651.436758	-2.999500	3.395700	-10.184000	25.979296	0.000633	20.774108
1652.435681	-3.018600	3.395800	-10.249000	25.945512	0.000632	20.762926
1653.435935	-2.994100	3.397200	-10.170000	25.936524	0.000632	20.761957
1654.438858	-2.974200	3.396000	-10.100000	25.951898	0.000630	20.770290
1655.439719	-3.005200	3.395200	-10.202000	25.949313	0.000631	20.801358
1656.438081	-2.998400	3.393800	-10.175000	25.962002	0.000628	20.757681
1657.436841	-3.005300	3.394000	-10.200000	25.973280	0.000631	20.778495
1658.438035	-3.002700	3.394300	-10.191000	25.969028	0.000629	20.773749
1659.444288	-2.983400	3.394400	-10.127000	26.008873	0.000630	20.784383
1660.439704	-2.992600	3.393600	-10.154000	26.053427	0.000629	20.761343
1661.441003	-2.978400	3.393900	-10.107000	26.056283	0.000629	20.768954
1662.440243	-3.000500	3.392000	-10.176000	26.077839	0.000628	20.770698
1663.441011	-3.016200	3.391300	-10.228000	26.079255	0.000625	20.781604
1664.443111	-3.001900	3.391400	-10.179000	26.109998	0.000627	20.755121
1665.444281	-3.019200	3.391000	-10.236000	26.101081	0.000627	20.772240
1666.443635	-3.003600	3.391000	-10.185000	26.119559	0.000626	20.771840
1667.442580	-3.015500	3.392100	-10.226000	26.122062	0.000626	20.770088
1668.442971	-3.010600	3.390200	-10.205000	26.148011	0.000625	20.767713
1669.446935	-3.011400	3.389700	-10.207000	26.181366	0.000626	20.769461
1670.448608	-2.993800	3.391200	-10.151000	26.165618	0.000623	20.761223
1671.442605	-3.003200	3.388400	-10.175000	26.125008	0.000623	20.749814
1672.443105	-2.992700	3.388700	-10.141000	26.135964	0.000622	20.777893
1673.444708	-2.990200	3.389100	-10.133000	26.117434	0.000621	20.774921
1674.445410	-2.998800	3.388100	-10.159000	26.144327	0.000620	20.771597
1675.445232	-2.982900	3.388800	-10.107000	26.125722	0.000618	20.757644
1676.446665	-2.980500	3.388600	-10.099000	26.110573	0.000622	20.784622
1677.450776	-3.002300	3.387300	-10.168000	26.084397	0.000618	20.767804
1678.447230	-3.022500	3.387300	-10.236000	26.060998	0.000619	20.768002
1679.444985	-2.996700	3.386100	-10.147000	26.056599	0.000618	20.758366
1680.447285	-2.993900	3.387000	-10.139000	26.062188	0.000618	20.760189
1681.452103	-3.010400	3.385700	-10.192000	26.061790	0.000615	20.762159
1682.448246	-2.984400	3.387000	-10.107000	26.060645	0.000616	20.771915
1683.449996	-2.994700	3.385400	-10.137000	26.092386	0.000614	20.759236
1684.450309	-2.986100	3.385000	-10.106000	26.099711	0.000617	20.763751
1685.454046	-2.996900	3.383200	-10.138000	26.094171	0.000614	20.731631
1686.454034	-3.018000	3.384500	-10.214000	26.049639	0.000614	20.772237
1687.450840	-2.997500	3.383700	-10.142000	26.038736	0.000613	20.770290
1688.451899	-2.997800	3.383100	-10.140000	26.052196	0.000613	20.754890
1689.450564	-3.004900	3.382300	-10.162000	26.101816	0.000613	20.772505
1690.451952	-3.021800	3.381200	-10.217000	26.112895	0.000613	20.776051
1691.455340	-3.002000	3.382100	-10.152000	26.105891	0.000612	20.782289
1692.453953	-3.020300	3.382100	-10.213000	26.141377	0.000610	20.773849
1693.450631	-3.018100	3.380700	-10.203000	26.134623	0.000612	20.758053
1694.450253	-2.992100	3.382300	-10.118000	26.139986	0.000611	20.779089
1695.451797	-2.996900	3.380500	-10.130000	26.104344	0.000611	20.775993
1696.451103	-3.022400	3.380700	-10.217000	26.133503	0.000610	20.780161
1697.454777	-3.002100	3.380700	-10.148000	26.163752	0.000611	20.749390
1698.451344	-3.013500	3.379600	-10.183000	26.177038	0.000609	20.772699
1699.453788	-3.007600	3.379300	-10.162000	26.178597	0.000609	20.778059
1700.450951	-2.990300	3.379100	-10.104000	26.175742	0.000607	20.771396
1701.451132	-3.020900	3.379800	-10.209000	26.216990	0.000607	20.785818
1702.450632	-2.983700	3.379300	-10.082000	26.217708	0.000607	20.774686
1703.451958	-3.027900	3.377900	-10.226000	26.210606	0.000606	20.771342
1704.451241	-3.007900	3.377200	-10.157000	26.219866	0.000606	20.776855
1705.451278	-3.019000	3.377400	-10.195000	26.243085	0.000604	20.766522
1706.453503	-2.988300	3.377900	-10.093000	26.236500	0.000604	20.771285
1707.452893	-3.006900	3.377700	-10.156000	26.213531	0.000604	20.751996
1708.454163	-2.995800	3.376700	-10.115000	26.179234	0.000604	20.780120
1709.457717	-3.003000	3.375900	-10.136000	26.169074	0.000603	20.780343
1710.457878	-3.019700	3.375700	-10.192000	26.177321	0.000603	20.772035
1711.455000	-2.998000	3.376900	-10.122000	26.155968	0.000601	20.782821
1712.453048	-3.009700	3.375200	-10.156000	26.140987	0.000601	20.782467
1713.456717	-2.986800	3.375700	-10.082000	26.126732	0.000601	20.789006
1714.456504	-2.970500	3.376700	-10.030000	26.149932	0.000601	20.772963
1715.456905	-3.003600	3.375600	-10.138000	26.156785	0.000600	20.773210
1716.455452	-3.007800	3.374000	-10.146000	26.165754	0.000599	20.778430
1717.456363	-2.995000	3.375100	-10.108000	26.148669	0.000600	20.783072
1718.460563	-2.991700	3.373400	-10.091000	26.128501	0.000598	20.789834
1719.459230	-2.990000	3.373300	-10.086000	26.132108	0.000596	20.789191
1720.458777	-2.965200	3.375300	-10.007000	26.095846	0.000597	20.776463
1721.458674	-3.002800	3.371300	-10.122000	26.061967	0.000597	20.788890
1722.459060	-3.016300	3.371500	-10.168000	26.048708	0.000593	20.779362
1723.462787	-3.013500	3.371200	-10.158000	26.052381	0.000597	20.772620
1724.458198	-2.998800	3.371800	-10.110000	26.045282	0.000595	20.787773
1725.459206	-2.966400	3.373200	-10.005000	26.008303	0.000593	20.803251
1726.471849	-2.992700	3.372200	-10.090000	25.985600	0.000592	20.785183
1727.459586	-2.987300	3.370400	-10.068000	25.968659	0.000593	20.786655
1728.461946	-3.006900	3.371100	-10.135000	25.968663	0.000592	20.797091
1729.464989	-3.005100	3.369600	-10.125000	26.006796	0.000592	20.776607
1730.462246	-3.015700	3.370000	-10.162000	25.987845	0.000590	20.794551
1731.465941	-3.005700	3.368600	-10.124000	25.989560	0.000591	20.794852
1732.463004	-3.005900	3.368400	-10.124000	26.000144	0.000591	20.771346
1733.465299	-2.980700	3.368900	-10.041000	26.031394	0.000588	20.767656
1734.467388	-2.996700	3.369100	-10.095000	26.061671	0.000591	20.779584
1735.463063	-3.018000	3.368300	-10.165000	26.090437	0.000590	20.785727
1736.465672	-2.999500	3.367200	-10.099000	26.057929	0.000588	20.787677
1737.464074	-3.033300	3.366000	-10.207000	26.042355	0.000590	20.789574
1738.463674	-2.991900	3.367600	-10.075000	26.020454	0.000587	20.789854
1739.466453	-3.007300	3.365500	-10.120000	26.013227	0.000586	20.783542
1740.463798	-2.989200	3.365900	-10.061000	26.009230	0.000588	20.791380
1741.466201	-2.982600	3.365800	-10.038000	26.032876	0.000585	20.797119
1742.463427	-3.011100	3.364200	-10.129000	26.093432	0.000588	20.791108
1743.465172	-2.987900	3.366800	-10.059000	26.132378	0.000586	20.781876
1744.464609	-2.991000	3.365500	-10.065000	26.174477	0.000587	20.793833
1745.467184	-2.981700	3.365100	-10.033000	26.206543	0.000584	20.781484
1746.463395	-3.009400	3.363400	-10.121000	26.208106	0.000584	20.786849
1747.466478	-2.989000	3.364500	-10.056000	26.167206	0.000585	20.781311
1748.464409	-2.986600	3.364000	-10.046000	26.156403	0.000585	20.802224
1749.464284	-2.979600	3.364600	-10.024000	26.169644	0.000584	20.773803
1750.468267	-3.012500	3.362800	-10.129000	26.187595	0.000582	20.779988
1751.468946	-3.034000	3.362400	-10.200000	26.182605	0.000583	20.805794
1752.468109	-3.003000	3.361100	-10.093000	26.176623	0.000582	20.778920
1753.467092	-2.992400	3.361700	-10.059000	26.163911	0.000584	20.793173
1754.473908	-2.987800	3.362200	-10.044000	26.154076	0.000583	20.804627
1755.466172	-3.007500	3.361700	-10.109000	26.118262	0.000581	20.785236
1756.470374	-2.995000	3.361100	-10.065000	26.111508	0.000580	20.793149
1757.469873	-2.993700	3.361500	-10.063000	26.152094	0.000582	20.812593
1758.468685	-2.987800	3.362000	-10.044000	26.151594	0.000580	20.799288
1759.479245	-2.975500	3.361300	-10.000000	26.146682	0.000579	20.784395
1760.468992	-2.993900	3.360300	-10.059000	26.110839	0.000580	20.786313
1761.473107	-2.978800	3.360200	-10.009000	26.068746	0.000578	20.792382
1762.471819	-2.987900	3.360800	-10.041000	26.031464	0.000577	20.798546
1763.472923	-2.996200	3.359300	-10.065000	26.041699	0.000576	20.783224
1764.474900	-3.007100	3.359100	-10.100000	26.026301	0.000579	20.794307
1765.471389	-3.009300	3.358100	-10.105000	26.045371	0.000577	20.800191
1766.471992	-3.000200	3.359500	-10.079000	26.040057	0.000578	20.781575
1767.471416	-2.998800	3.357600	-10.067000	26.100815	0.000575	20.796629
1768.472532	-3.029600	3.356600	-10.167000	26.127216	0.000576	20.793285
1769.473318	-3.012600	3.356900	-10.112000	26.132731	0.000574	20.800723
1770.474668	-2.992700	3.356700	-10.043000	26.113186	0.000574	20.799577
1771.472916	-3.011500	3.357200	-10.109000	26.134097	0.000574	20.805415
1772.473073	-2.982300	3.357400	-10.012000	26.141676	0.000575	20.808289
1773.472342	-2.994400	3.356100	-10.049000	26.152628	0.000574	20.804120
1774.474464	-2.991300	3.355300	-10.036000	26.162635	0.000574	20.813702
1775.483383	-3.003100	3.354300	-10.073000	26.142373	0.000571	20.808990
1776.477273	-2.982600	3.355100	-10.006000	26.137679	0.000569	20.832721
1777.476130	-3.008200	3.354000	-10.089000	26.136264	0.000571	20.816601
1778.477406	-2.994300	3.353900	-10.041000	26.112169	0.000570	20.796657
1779.474857	-3.002400	3.354500	-10.070000	26.093047	0.000570	20.814902
1780.475745	-3.003400	3.354000	-10.073000	26.125037	0.000570	20.811010
1781.477426	-3.025700	3.352700	-10.143000	26.130351	0.000569	20.821091
1782.474928	-2.988900	3.352900	-10.021000	26.134425	0.000568	20.820917
1783.476161	-2.998800	3.353300	-10.053000	26.136067	0.000568	20.805971
1784.475837	-2.992100	3.352200	-10.029000	26.146350	0.000566	20.798760
1785.476192	-3.007600	3.351500	-10.079000	26.195945	0.000565	20.802603
1786.477492	-3.020800	3.349900	-10.117000	26.194628	0.000565	20.816452
1787.476669	-2.993300	3.350800	-10.029000	26.197110	0.000564	20.821791
1788.480307	-2.953700	3.350500	-9.894100	26.160805	0.000564	20.800484
1789.477622	-3.001000	3.351300	-10.056000	26.165725	0.000564	20.802582
1790.478884	-3.012400	3.351700	-10.096000	26.188949	0.000562	20.818332
1791.482053	-2.997200	3.349500	-10.038000	26.229823	0.000563	20.814362
1792.477496	-3.024500	3.348900	-10.127000	26.233602	0.000564	20.805357
1793.479208	-3.001600	3.349800	-10.052000	26.272120	0.000565	20.808503
1794.479955	-3.011100	3.347500	-10.079000	26.277958	0.000561	20.836655
1795.479218	-2.981700	3.349000	-9.983700	26.293705	0.000560	20.816918
1796.482568	-2.998800	3.347900	-10.039000	26.294156	0.000561	20.817372
1797.480677	-3.006100	3.346900	-10.060000	26.279407	0.000560	20.809662
1798.479235	-3.014500	3.347200	-10.089000	26.296470	0.000560	20.806421
1799.479168	-3.013900	3.346800	-10.085000	26.328499	0.000561	20.820592
1800.480170	-2.989300	3.346300	-10.002000	26.323072	0.000558	20.806128
1801.488000	-3.009000	3.344900	-10.064000	26.333004	0.000560	20.833179
1802.485158	-2.993700	3.345500	-10.014000	26.366780	0.000559	20.825874
1803.479890	-3.010500	3.345500	-10.070000	26.358042	0.000558	20.811876
1804.482473	-2.989100	3.345800	-10.000000	26.345702	0.000560	20.818914
1805.483639	-3.000900	3.344100	-10.034000	26.310719	0.000557	20.825008
1806.480040	-2.997700	3.342900	-10.020000	26.270389	0.000558	20.813402
1807.486093	-2.997200	3.344900	-10.025000	26.235424	0.000559	20.804818
1808.481605	-3.005600	3.343300	-10.047000	26.238810	0.000557	20.818176
1809.494015	-3.005100	3.342300	-10.042000	26.249141	0.000557	20.819075
1810.483076	-3.010900	3.342100	-10.062000	26.260489	0.000556	20.813410
1811.483035	-3.023300	3.343500	-10.107000	26.249666	0.000554	20.816284
1812.484426	-3.024000	3.342800	-10.108000	26.263103	0.000556	20.829313
1813.485451	-3.001900	3.342300	-10.030000	26.278324	0.000555	20.833703
1814.483235	-3.015100	3.340800	-10.071000	26.272043	0.000555	20.822176
1815.482810	-2.990600	3.341800	-9.992400	26.244829	0.000555	20.825173
1816.483644	-2.987000	3.340900	-9.978300	26.253268	0.000553	20.836499
1817.485079	-2.985400	3.342000	-9.976200	26.283543	0.000552	20.819034
1818.484501	-2.992700	3.340900	-9.997100	26.327848	0.000552	20.829894
1819.483624	-2.987600	3.340100	-9.978600	26.321021	0.000551	20.845318
1820.483833	-2.980500	3.340900	-9.956800	26.313723	0.000551	20.823285
1821.483617	-3.018500	3.338900	-10.077000	26.297337	0.000550	20.824361
1822.485577	-2.996300	3.340500	-10.008000	26.313009	0.000549	20.833473
1823.488172	-3.010700	3.338600	-10.050000	26.329645	0.000550	20.814631
1824.488063	-2.987800	3.339800	-9.977600	26.325551	0.000548	20.808620
1825.493881	-3.004800	3.338500	-10.029000	26.295979	0.000549	20.825367
1826.486557	-3.042200	3.337200	-10.152000	26.261565	0.000546	20.821603
1827.487968	-3.011700	3.337700	-10.051000	26.233431	0.000547	20.844065
1828.489177	-2.988300	3.338200	-9.974000	26.226407	0.000547	20.834162
1829.490406	-2.993200	3.337900	-9.989800	26.275625	0.000544	20.846164
1830.489262	-3.004100	3.336600	-10.022000	26.304312	0.000544	20.825207
1831.493159	-3.028600	3.334400	-10.097000	26.332173	0.000546	20.819068
1832.489902	-2.994800	3.335200	-9.987300	26.354302	0.000543	20.835144
1833.489728	-3.010100	3.335300	-10.038000	26.378859	0.000543	20.838013
1834.491190	-3.037200	3.333200	-10.123000	26.415686	0.000543	20.837568
1835.488259	-3.010600	3.334700	-10.039000	26.441636	0.000543	20.834253
1836.493998	-3.004100	3.333900	-10.014000	26.428329	0.000544	20.842689
1837.493908	-2.996600	3.334600	-9.991800	26.446506	0.000543	20.842940
1838.493296	-2.991700	3.333800	-9.972800	26.430942	0.000542	20.846738
1839.496263	-2.999000	3.332400	-9.991300	26.400081	0.000541	20.847962
1840.492578	-2.993300	3.334000	-9.978300	26.413586	0.000541	20.842569
1841.493124	-3.003600	3.332700	-10.008000	26.401123	0.000542	20.833837
1842.493750	-2.988800	3.334200	-9.963500	26.392877	0.000541	20.846886
1843.494921	-2.978500	3.333900	-9.929500	26.420018	0.000540	20.832914
1844.493477	-3.003700	3.332200	-10.008000	26.413565	0.000541	20.852032
1845.496520	-2.973100	3.332900	-9.908000	26.399507	0.000542	20.831264
1846.493404	-2.990400	3.331100	-9.960300	26.403732	0.000540	20.846416
1847.493195	-2.999100	3.331200	-9.989600	26.469256	0.000543	20.859642
1848.492711	-3.000800	3.329200	-9.989200	26.438835	0.000538	20.847558
1849.493512	-2.983200	3.330700	-9.935000	26.444004	0.000538	20.864132
1850.498544	-2.993800	3.330700	-9.969600	26.442957	0.000537	20.862132
1851.495454	-3.012300	3.331000	-10.033000	26.476947	0.000538	20.842244
1852.494668	-3.002400	3.330200	-9.996900	26.495291	0.000537	20.847405
1853.494250	-2.992200	3.329800	-9.962700	26.513413	0.000536	20.845233
1854.495446	-3.009900	3.328300	-10.015000	26.534419	0.000534	20.863501
1855.495423	-3.006400	3.327700	-10.003000	26.525456	0.000533	20.848329
1856.494009	-3.022300	3.326600	-10.052000	26.537073	0.000533	20.851945
1857.494473	-2.990400	3.329500	-9.955100	26.558451	0.000533	20.859683
1858.494328	-3.011200	3.327400	-10.018000	26.541662	0.000533	20.849446
1859.494412	-3.019100	3.327400	-10.045000	26.529796	0.000533	20.841786
1860.495853	-3.001100	3.326700	-9.982800	26.495340	0.000530	20.852196
1861.495242	-2.993900	3.326700	-9.958800	26.517855	0.000532	20.864870
1862.496824	-2.996500	3.326500	-9.967000	26.488137	0.000531	20.892369
1863.500901	-2.979400	3.326100	-9.908800	26.492083	0.000528	20.863146
1864.496230	-3.021100	3.324800	-10.043000	26.487440	0.000529	20.865117
1865.497991	-3.002500	3.325800	-9.984900	26.450497	0.000530	20.869710
1866.498981	-3.004200	3.324900	-9.986400	26.425593	0.000527	20.845154
1867.497431	-3.004700	3.323700	-9.985200	26.410615	0.000529	20.868032
1868.497082	-2.998400	3.322900	-9.961700	26.387548	0.000528	20.876615
1869.499166	-2.996400	3.324200	-9.959600	26.371331	0.000527	20.864111
1870.502198	-2.998300	3.323000	-9.962000	26.387174	0.000527	20.881930
1871.501705	-2.992100	3.322600	-9.940400	26.429776	0.000527	20.871169
1872.498838	-2.996800	3.321800	-9.952500	26.435585	0.000525	20.863731
1873.499904	-2.993600	3.322400	-9.945000	26.472233	0.000524	20.891082
1874.500095	-2.991100	3.321800	-9.935000	26.486410	0.000525	20.870720
1875.501557	-3.000000	3.322800	-9.967700	26.508851	0.000522	20.856768
1876.501819	-3.000500	3.321600	-9.965600	26.469173	0.000521	20.868093
1877.500786	-2.992400	3.321300	-9.935900	26.411644	0.000522	20.881393
1878.502621	-3.012300	3.319400	-9.998000	26.384278	0.000522	20.884234
1879.502645	-3.028500	3.318600	-10.049000	26.393762	0.000522	20.877646
1880.502309	-3.006500	3.318900	-9.977000	26.398726	0.000519	20.903021
1881.502338	-3.000100	3.318600	-9.954900	26.380007	0.000522	20.873304
1882.506255	-2.990800	3.319500	-9.926600	26.350949	0.000520	20.911901
1883.503816	-3.005700	3.320000	-9.978200	26.369899	0.000520	20.870732
1884.508307	-3.003300	3.318800	-9.966200	26.361624	0.000519	20.881381
1885.504797	-2.999900	3.318600	-9.953900	26.398049	0.000521	20.874368
1886.504271	-3.020500	3.316300	-10.015000	26.412423	0.000520	20.905408
1887.506452	-2.984800	3.318600	-9.905000	26.428512	0.000519	20.885544
1888.505562	-2.978600	3.319100	-9.885300	26.392359	0.000519	20.881925
1889.505234	-2.990300	3.317900	-9.920400	26.356902	0.000518	20.892755
1890.505017	-2.984900	3.317500	-9.899700	26.386050	0.000517	20.917306
1891.505602	-2.973200	3.316900	-9.860000	26.379691	0.000518	20.910916
1892.508030	-3.003300	3.314900	-9.955000	26.412587	0.000517	20.906521
1893.506095	-3.020100	3.314000	-10.008000	26.480715	0.000518	20.921416
1894.508616	-3.024200	3.313200	-10.017000	26.520762	0.000517	20.903350
1895.506421	-2.987200	3.314700	-9.900600	26.550225	0.000516	20.913525
1896.507290	-2.968700	3.316900	-9.845500	26.553798	0.000515	20.889143
1897.508952	-2.985600	3.314300	-9.893300	26.564643	0.000514	20.907155
1898.507901	-3.002000	3.313400	-9.946100	26.590143	0.000511	20.898650
1899.506495	-3.003000	3.312900	-9.947800	26.593145	0.000513	20.907831
1900.507869	-2.987900	3.313700	-9.900200	26.608780	0.000511	20.901738
1901.512197	-3.008600	3.313600	-9.968300	26.610019	0.000511	20.919103
1902.508518	-2.989100	3.312600	-9.900500	26.591377	0.000510	20.913640
1903.510642	-2.983200	3.312700	-9.881100	26.584027	0.000512	20.916683
1904.509371	-2.989700	3.312400	-9.901900	26.586632	0.000510	20.929731
1905.511569	-2.989100	3.310700	-9.894100	26.617984	0.000510	20.923790
1906.510724	-3.009900	3.310700	-9.964000	26.623443	0.000510	20.909365
1907.511148	-2.980000	3.311500	-9.867600	26.568929	0.000509	20.923316
1908.515361	-3.010700	3.309200	-9.961800	26.581291	0.000509	20.924837
1909.513351	-2.985300	3.311500	-9.884600	26.559515	0.000507	20.913380
1910.514600	-2.994100	3.309500	-9.906500	26.562272	0.000509	20.922788
1911.513169	-2.993600	3.308000	-9.901000	26.603083	0.000503	20.917820
1912.515168	-3.012500	3.307500	-9.962500	26.600630	0.000506	20.926734
1913.514833	-2.990000	3.309200	-9.893000	26.603928	0.000506	20.912980
1914.519516	-2.991100	3.309100	-9.896500	26.617327	0.000504	20.905114
1915.517208	-3.003500	3.308600	-9.935900	26.627737	0.000503	20.915578
1916.517978	-3.005100	3.307500	-9.938600	26.627962	0.000504	20.910115
1917.518781	-2.994500	3.307500	-9.902600	26.630140	0.000502	20.919416
1918.525145	-2.966800	3.308500	-9.814300	26.633840	0.000502	20.900377
1919.522388	-2.991800	3.307600	-9.895000	26.628204	0.000503	20.897557
1920.515676	-2.982400	3.306500	-9.858900	26.615071	0.000504	20.913751
1921.516680	-3.002900	3.305600	-9.925200	26.612192	0.000503	20.916072
1922.516406	-3.007400	3.305700	-9.939800	26.642276	0.000500	20.892738
1923.516592	-2.983000	3.305100	-9.858600	26.655085	0.000499	20.904191
1924.519550	-2.991500	3.306100	-9.889000	26.669509	0.000500	20.894511
1925.516749	-2.987600	3.304900	-9.872700	26.631674	0.000500	20.914794
1926.517039	-2.994500	3.305000	-9.895900	26.595802	0.000499	20.883952
1927.522659	-2.995600	3.302700	-9.891300	26.587013	0.000497	20.899297
1928.516012	-2.987000	3.303100	-9.864400	26.572317	0.000498	20.900645
1929.518194	-2.993900	3.304000	-9.891300	26.614144	0.000499	20.891484
1930.520057	-3.020100	3.301200	-9.968600	26.606696	0.000498	20.884472
1931.519987	-2.998400	3.303700	-9.905100	26.611109	0.000495	20.902183
1932.518738	-3.006900	3.301800	-9.926300	26.592168	0.000497	20.903531
1933.518444	-3.004000	3.302400	-9.918500	26.618086	0.000494	20.893076
1934.519169	-2.990200	3.301800	-9.871400	26.632605	0.000496	20.890128
1935.525705	-2.999500	3.300800	-9.899900	26.641066	0.000494	20.881091
1936.520865	-2.981000	3.301400	-9.840000	26.603058	0.000493	20.908313
1937.524244	-2.970300	3.300500	-9.801800	26.566070	0.000495	20.877772
1938.520928	-2.991800	3.299800	-9.871400	26.569864	0.000495	20.905765
1939.521857	-3.000100	3.298500	-9.894000	26.536299	0.000491	20.871081
1940.524712	-3.010100	3.298800	-9.929200	26.532595	0.000489	20.869254
1941.523761	-3.028600	3.297200	-9.984900	26.581303	0.000490	20.902092
1942.521776	-3.010400	3.298400	-9.929500	26.595597	0.000490	20.890858
1943.522910	-3.002400	3.297800	-9.899900	26.617196	0.000488	20.887914
1944.530252	-3.017000	3.298400	-9.949800	26.653263	0.000489	20.884818
1945.525243	-3.007900	3.297700	-9.918500	26.667261	0.000487	20.892725
1946.527279	-3.009800	3.297000	-9.922100	26.675074	0.000485	20.902001
1947.524488	-2.998600	3.296800	-9.884200	26.692225	0.000486	20.882736
1948.530959	-2.992300	3.296700	-9.864000	26.711365	0.000485	20.901977
1949.525304	-3.019900	3.295300	-9.949400	26.734795	0.000486	20.867688
1950.526713	-2.964800	3.299100	-9.779600	26.759589	0.000485	20.857055
1951.530642	-3.011100	3.294900	-9.920500	26.769788	0.000487	20.895755
1952.529610	-3.018900	3.294900	-9.945800	26.805679	0.000485	20.902442
1953.526485	-3.028300	3.294500	-9.975700	26.803267	0.000483	20.886743
1954.527829	-3.004800	3.294400	-9.897600	26.825854	0.000482	20.902339
1955.528144	-2.996800	3.294500	-9.871600	26.815553	0.000481	20.871122
1956.535705	-3.006800	3.293600	-9.901300	26.807782	0.000481	20.884171
1957.529652	-2.992900	3.294300	-9.859000	26.808922	0.000481	20.896695
1958.525868	-3.017700	3.293800	-9.938000	26.814532	0.000481	20.898068
1959.528006	-2.992200	3.293100	-9.852500	26.769358	0.000480	20.879203
1960.526476	-2.977800	3.293300	-9.805100	26.732170	0.000480	20.868368
1961.528066	-3.005700	3.291700	-9.892400	26.716586	0.000478	20.902484
1962.534476	-2.994700	3.291800	-9.856600	26.737858	0.000479	20.878353
1963.529444	-3.002000	3.292000	-9.881200	26.748160	0.000477	20.894399
1964.531630	-2.993800	3.292000	-9.854300	26.711841	0.000477	20.876853
1965.531806	-3.012700	3.289100	-9.907100	26.719289	0.000478	20.865849
1966.531637	-2.958800	3.293400	-9.743000	26.749620	0.000477	20.884014
1967.533228	-2.969100	3.291300	-9.771100	26.791445	0.000475	20.880073
1968.533523	-3.009000	3.291000	-9.901700	26.770945	0.000476	20.883169
1969.534649	-2.990800	3.291100	-9.841400	26.756768	0.000476	20.857063
1970.531876	-3.003700	3.288500	-9.876200	26.717722	0.000474	20.858584
1971.533541	-3.029200	3.287600	-9.957700	26.705985	0.000475	20.889930
1972.533129	-3.003600	3.288600	-9.877100	26.700522	0.000473	20.866422
1973.535882	-2.993000	3.286600	-9.835700	26.690343	0.000473	20.860930
1974.532644	-3.002300	3.287900	-9.869800	26.674254	0.000473	20.877471
1975.539156	-2.999800	3.286900	-9.858800	26.650450	0.000472	20.872981
1976.536453	-3.025500	3.285500	-9.939400	26.623963	0.000471	20.861054
1977.535378	-2.995600	3.287500	-9.847400	26.634984	0.000470	20.871658
1978.538626	-2.995600	3.286800	-9.845400	26.601142	0.000470	20.877941
1979.534476	-2.983900	3.287700	-9.809300	26.600154	0.000470	20.850871
1980.535641	-2.983300	3.287300	-9.804900	26.619538	0.000468	20.862295
1981.534142	-3.004700	3.285600	-9.871000	26.606528	0.000467	20.862019
1982.536336	-2.998900	3.285600	-9.852600	26.593998	0.000468	20.838044
1983.538494	-2.989400	3.284100	-9.817000	26.599752	0.000467	20.867535
1984.535828	-2.990300	3.284900	-9.821600	26.624578	0.000465	20.862147
1985.535994	-3.006500	3.283300	-9.870500	26.651758	0.000463	20.869555
1986.534266	-2.991800	3.283400	-9.822300	26.708979	0.000465	20.855958
1987.539603	-2.996400	3.283600	-9.838100	26.691725	0.000464	20.859475
1988.539752	-3.000600	3.284400	-9.854300	26.732064	0.000462	20.867312
1989.538177	-3.012200	3.282900	-9.888100	26.740028	0.000464	20.858725
1990.540162	-2.995900	3.281700	-9.830400	26.761152	0.000460	20.877591
1991.537753	-2.997800	3.282200	-9.838100	26.764929	0.000462	20.843932
1992.538344	-3.028000	3.280300	-9.930800	26.761328	0.000460	20.840312
1993.539836	-2.998800	3.281600	-9.839700	26.764552	0.000459	20.871052
1994.541465	-2.991400	3.281000	-9.814000	26.770141	0.000457	20.849646
1995.540649	-3.024600	3.279700	-9.918600	26.781209	0.000458	20.846076
1996.541445	-3.002000	3.280700	-9.847500	26.795181	0.000458	20.860596
1997.546088	-2.992500	3.279700	-9.813600	26.803329	0.000458	20.844134
1998.540324	-2.998200	3.279200	-9.830400	26.776399	0.000456	20.845507
1999.539859	-3.008600	3.279300	-9.865100	26.751351	0.000457	20.839289
2000.540722	-3.005300	3.278900	-9.853300	26.685077	0.000454	20.848999
2001.540984	-2.982500	3.278200	-9.775700	26.675796	0.000452	20.861479
2002.540720	-2.997400	3.278700	-9.826300	26.686320	0.000453	20.866842
2003.539328	-3.029500	3.276700	-9.925500	26.699702	0.000455	20.845210
2004.541037	-2.988700	3.277200	-9.793600	26.646431	0.000454	20.835278
2005.541920	-2.992300	3.277000	-9.803800	26.659912	0.000451	20.825597
2006.544683	-2.997700	3.277200	-9.822700	26.665321	0.000451	20.856164
2007.542452	-3.009500	3.276200	-9.858400	26.687288	0.000450	20.859755
2008.541739	-3.008300	3.275700	-9.853200	26.723091	0.000451	20.854973
2009.547937	-3.006100	3.275100	-9.844000	26.780873	0.000448	20.820134
2010.546815	-2.984100	3.276100	-9.774400	26.797875	0.000449	20.842917
2011.542280	-3.012200	3.274000	-9.861000	26.793782	0.000448	20.836432
2012.542679	-3.020500	3.272800	-9.884400	26.817313	0.000446	20.856296
2013.542549	-3.011300	3.273900	-9.857700	26.803091	0.000445	20.838205
2014.545997	-3.016000	3.274300	-9.874200	26.848490	0.000445	20.856350
2015.545436	-3.002200	3.273700	-9.827200	26.868919	0.000445	20.825209
2016.546751	-3.010300	3.272200	-9.848500	26.857228	0.000445	20.857075
2017.551610	-2.986400	3.272500	-9.770400	26.834544	0.000443	20.836164
2018.545504	-2.999500	3.271900	-9.813500	26.855149	0.000443	20.842658
2019.544683	-3.024300	3.270600	-9.888900	26.875824	0.000442	20.841635
2020.548328	-2.996600	3.271400	-9.802400	26.906680	0.000441	20.838997
2021.546496	-2.999200	3.271100	-9.808800	26.952365	0.000441	20.825193
2022.545062	-2.995500	3.269900	-9.793600	26.947604	0.000441	20.827044
2023.546229	-2.999600	3.270400	-9.809300	26.951430	0.000440	20.833262
2024.545272	-2.972300	3.271000	-9.721200	26.950688	0.000439	20.842472
2025.545091	-3.017500	3.268300	-9.860700	26.936600	0.000438	20.840159
2026.549890	-2.988500	3.268200	-9.766100	26.910960	0.000438	20.833818
2027.545305	-3.006600	3.267700	-9.823300	26.909697	0.000436	20.833971
2028.546579	-2.994100	3.268500	-9.785400	26.921240	0.000436	20.813335
2029.545364	-2.984100	3.268100	-9.751300	26.911239	0.000438	20.815133
2030.544726	-2.984700	3.267700	-9.751700	26.917894	0.000435	20.836523
2031.549642	-3.007100	3.265400	-9.818600	26.907774	0.000435	20.828244
2032.547641	-2.993200	3.268700	-9.782900	26.893083	0.000433	20.830541
2033.547087	-2.994300	3.266500	-9.779500	26.891845	0.000435	20.831192
2034.547424	-2.999000	3.265800	-9.792000	26.884894	0.000435	20.833212
2035.547878	-3.009300	3.265900	-9.827200	26.896863	0.000433	20.847618
2036.554033	-3.000600	3.264900	-9.795900	26.897807	0.000430	20.820118
2037.545392	-2.977800	3.266100	-9.725200	26.907217	0.000432	20.828632
2038.546296	-2.975900	3.265200	-9.714900	26.941295	0.000430	20.821647
2039.550619	-2.989600	3.265500	-9.761400	26.919112	0.000431	20.839644
2040.556502	-2.994400	3.264800	-9.774600	26.942020	0.000431	20.803886
2041.550066	-3.006200	3.263400	-9.808600	26.916435	0.000430	20.823676
2042.548355	-3.004000	3.262800	-9.800400	26.931946	0.000431	20.830739
2043.547050	-2.994700	3.264800	-9.776500	26.965523	0.000429	20.823251
2044.549991	-3.020700	3.261500	-9.851500	26.984629	0.000428	20.809749
2045.550558	-3.021300	3.262100	-9.855300	26.934033	0.000430	20.804389
2046.555182	-3.020900	3.260200	-9.847200	26.925865	0.000428	20.796650
2047.550907	-3.015900	3.261800	-9.836200	26.982600	0.000425	20.827148
2048.549701	-2.992400	3.261500	-9.758600	27.013100	0.000427	20.821784
2049.550873	-3.056100	3.258500	-9.956200	27.011337	0.000426	20.811950
2050.555812	-2.994800	3.260300	-9.763100	27.012304	0.000424	20.798699
2051.551737	-2.999400	3.259100	-9.774800	27.007462	0.000426	20.824175
2052.554107	-2.993400	3.258600	-9.754100	26.994756	0.000423	20.806656
2053.553732	-2.968700	3.260800	-9.679000	26.990316	0.000423	20.814993
2054.557652	-2.987400	3.258900	-9.734400	27.031061	0.000424	20.809027
2055.552958	-2.993700	3.259300	-9.756600	27.051827	0.000421	20.825169
2056.553738	-2.983300	3.259100	-9.721500	27.019098	0.000420	20.824971
2057.559551	-2.997200	3.257500	-9.762100	27.022915	0.000419	20.798938
2058.554015	-2.980900	3.257700	-9.709600	27.036961	0.000420	20.813063
2059.557883	-3.005900	3.256500	-9.787400	27.053237	0.000420	20.808095
2060.554620	-3.007700	3.255500	-9.789600	27.039363	0.000417	20.806945
2061.553564	-2.981700	3.256100	-9.707800	27.059740	0.000416	20.816057
2062.558068	-2.998400	3.255800	-9.760900	27.092418	0.000415	20.809093
2063.557462	-3.003600	3.255000	-9.774900	27.067082	0.000414	20.814432
2064.554469	-2.988600	3.255800	-9.728900	27.066738	0.000413	20.794646
2065.555963	-3.000400	3.252900	-9.759400	27.100728	0.000412	20.825036
2066.556898	-3.000800	3.254600	-9.764100	27.090778	0.000412	20.811711
2067.557074	-3.013900	3.254100	-9.806100	27.103233	0.000410	20.834194
2068.559369	-3.022900	3.253900	-9.834900	27.087130	0.000411	20.803300
2069.556653	-2.997200	3.252500	-9.748200	27.035592	0.000411	20.821643
2070.562305	-3.014800	3.251600	-9.801500	26.943775	0.000409	20.799012
2071.557387	-2.993900	3.252500	-9.736300	26.920518	0.000406	20.789376
2072.557235	-2.999600	3.251800	-9.753400	26.866167	0.000408	20.807270
2073.564386	-2.998400	3.252400	-9.750900	26.822066	0.000406	20.817454
2074.561658	-3.017800	3.251200	-9.810100	26.828368	0.000404	20.775902
2075.560676	-2.958400	3.252900	-9.622500	26.867135	0.000404	20.797812
2076.572937	-3.001100	3.251200	-9.755200	26.878900	0.000404	20.784511
2077.562947	-2.997600	3.250100	-9.741100	26.907570	0.000404	20.779201
2078.560761	-3.007600	3.249100	-9.769500	26.951123	0.000404	20.808297
2079.561955	-2.990800	3.248800	-9.715400	26.973038	0.000402	20.786713
2080.563294	-3.004100	3.248200	-9.757000	27.007684	0.000402	20.795949
2081.560982	-3.004300	3.248700	-9.758100	27.062773	0.000401	20.812944
2082.560438	-3.027100	3.247900	-9.831300	27.115257	0.000400	20.794130
2083.560656	-3.005200	3.247000	-9.756300	27.109797	0.000400	20.813769
2084.564877	-2.996200	3.247500	-9.729000	27.072404	0.000399	20.799870
2085.561042	-2.995900	3.247000	-9.726600	27.036527	0.000399	20.789867
2086.559732	-3.010000	3.247300	-9.772700	27.020619	0.000398	20.795681
2087.561261	-2.979400	3.245300	-9.667800	26.999131	0.000397	20.792090
2088.561749	-2.995100	3.245900	-9.720400	27.057395	0.000395	20.769128
2089.564440	-2.987400	3.245700	-9.695700	27.073753	0.000395	20.806916
2090.562437	-2.988900	3.244100	-9.695500	27.085416	0.000394	20.788775
2091.566700	-3.002600	3.244500	-9.741100	27.083904	0.000394	20.787253
2092.560544	-2.983000	3.244400	-9.677200	27.089492	0.000393	20.779123
2093.560454	-3.020400	3.242200	-9.791300	27.063335	0.000392	20.788853
2094.563962	-2.972400	3.243800	-9.640800	27.022120	0.000392	20.792923
2095.561850	-3.009600	3.244200	-9.761700	27.036543	0.000391	20.787039
2096.563846	-2.993900	3.244500	-9.712600	27.034309	0.000390	20.782895
2097.562274	-2.979000	3.243800	-9.661700	27.052028	0.000389	20.774637
2098.562247	-2.994900	3.242700	-9.709900	27.016450	0.000390	20.789117
2099.561877	-3.010700	3.239800	-9.752600	27.020492	0.000388	20.773268
2100.566150	-2.996700	3.239800	-9.707000	27.036228	0.000387	20.772971
2101.562574	-3.021700	3.241800	-9.794800	27.043698	0.000385	20.779535
2102.562373	-3.000900	3.239200	-9.719300	27.117914	0.000384	20.785897
2103.562032	-3.001200	3.238200	-9.717700	27.115684	0.000384	20.799301
2104.564952	-3.007800	3.239500	-9.742600	27.165136	0.000384	20.782656
2105.568143	-2.998000	3.237200	-9.704000	27.180226	0.000383	20.781712
2106.565885	-2.980000	3.239000	-9.651200	27.230790	0.000383	20.780888
2107.569280	-3.007800	3.237800	-9.737700	27.244313	0.000381	20.770782
2108.564670	-3.020200	3.238400	-9.779400	27.256048	0.000380	20.774526
2109.565963	-2.987300	3.237300	-9.669400	27.237939	0.000381	20.773380
2110.569211	-3.003300	3.237000	-9.720600	27.270169	0.000379	20.777350
2111.567792	-3.009500	3.235500	-9.735300	27.277171	0.000378	20.781074
2112.565651	-3.029900	3.235600	-9.802500	27.265976	0.000378	20.772658
2113.567313	-3.007100	3.236600	-9.731600	27.275408	0.000377	20.764127
2114.567915	-2.992400	3.235700	-9.681700	27.274318	0.000377	20.778678
2115.567060	-3.003900	3.235500	-9.718100	27.289328	0.000377	20.784768
2116.568709	-3.007100	3.233200	-9.721800	27.293173	0.000378	20.787687
2117.569818	-3.010800	3.232300	-9.730700	27.319848	0.000378	20.772320
2118.569806	-2.998500	3.233300	-9.694300	27.316229	0.000375	20.782904
2119.569542	-2.978300	3.234300	-9.631600	27.344432	0.000375	20.780929
2120.571166	-3.020900	3.230600	-9.758700	27.364749	0.000375	20.765806
2121.572805	-3.017600	3.232000	-9.751700	27.362937	0.000374	20.771570
2122.572057	-2.987300	3.231500	-9.652800	27.329472	0.000373	20.784846
2123.572256	-2.991200	3.231800	-9.666200	27.327164	0.000373	20.775413
2124.570584	-2.988200	3.232000	-9.655600	27.313323	0.000372	20.767653
2125.571154	-2.982000	3.231900	-9.636900	27.335148	0.000373	20.774909
2126.572082	-2.991500	3.230600	-9.663800	27.334201	0.000372	20.775854
2127.573358	-3.002800	3.229400	-9.696300	27.348096	0.000372	20.783667
2128.571411	-3.009800	3.227900	-9.712700	27.355711	0.000370	20.787060
2129.570414	-2.990400	3.230000	-9.657100	27.356404	0.000370	20.768316
2130.570676	-3.004500	3.226800	-9.693900	27.338685	0.000367	20.777519
2131.570584	-3.015400	3.227100	-9.730200	27.304600	0.000369	20.748921
2132.574152	-2.982500	3.227300	-9.624100	27.309387	0.000366	20.758004
2133.571088	-3.014100	3.228500	-9.730000	27.280404	0.000367	20.768679
2134.574773	-2.999400	3.226100	-9.674900	27.291024	0.000366	20.770827
2135.570122	-3.004800	3.227700	-9.696600	27.265295	0.000365	20.763438
2136.570930	-2.997900	3.225600	-9.669000	27.302530	0.000365	20.784771
2137.577467	-2.976100	3.225700	-9.598700	27.301837	0.000364	20.785497
2138.575825	-2.994000	3.226900	-9.659600	27.325405	0.000361	20.751831
2139.571770	-2.998600	3.224200	-9.667500	27.329869	0.000362	20.768176
2140.571036	-3.004700	3.223100	-9.683100	27.329717	0.000360	20.775136
2141.574609	-3.009600	3.223900	-9.701300	27.319097	0.000358	20.772513
2142.569774	-2.998000	3.223300	-9.662700	27.338324	0.000360	20.781423
2143.571773	-2.997300	3.223300	-9.659100	27.355494	0.000359	20.762659
2144.572260	-2.976100	3.224100	-9.593800	27.372933	0.000359	20.754598
2145.571084	-3.040600	3.222100	-9.796600	27.387942	0.000358	20.773016
2146.571317	-2.981600	3.222800	-9.606400	27.392504	0.000356	20.788985
2147.571074	-3.004500	3.222200	-9.680400	27.407168	0.000355	20.770547
2148.574121	-3.003700	3.221200	-9.673300	27.379753	0.000355	20.779477
2149.571176	-2.991800	3.220100	-9.633300	27.390819	0.000353	20.772118
2150.575413	-2.997500	3.220100	-9.650600	27.340706	0.000353	20.762007
2151.574568	-2.994200	3.218600	-9.636600	27.285413	0.000354	20.762812
2152.573231	-2.984900	3.219100	-9.607700	27.289057	0.000352	20.750355
2153.577092	-2.999600	3.217500	-9.650100	27.294365	0.000351	20.775136
2154.573965	-2.979900	3.218800	-9.591000	27.287294	0.000350	20.771817
2155.579822	-3.014200	3.217200	-9.695900	27.292406	0.000349	20.765104
2156.574358	-2.983200	3.217100	-9.596400	27.295160	0.000349	20.778781
2157.573750	-2.981600	3.218200	-9.594400	27.267648	0.000349	20.789039
2158.574611	-3.019600	3.214100	-9.703300	27.290426	0.000347	20.761216
2159.573680	-3.011000	3.216000	-9.681800	27.322155	0.000347	20.775589
2160.573909	-3.012400	3.216400	-9.688400	27.305661	0.000345	20.772749
2161.573462	-2.988800	3.214700	-9.607200	27.334189	0.000345	20.772522
2162.579676	-3.001900	3.216200	-9.653800	27.333320	0.000348	20.772596
2163.575905	-3.004000	3.215200	-9.657600	27.307498	0.000344	20.776967
2164.578768	-3.005100	3.213000	-9.653200	27.262840	0.000343	20.776616
2165.575642	-3.022200	3.212400	-9.707100	27.217586	0.000343	20.763814
2166.578439	-3.011900	3.212300	-9.673900	27.195336	0.000341	20.769409
2167.576214	-3.006500	3.213100	-9.659000	27.175356	0.000342	20.773021
2168.577272	-3.004400	3.211000	-9.646500	27.182456	0.000339	20.771153
2169.578192	-2.994000	3.211500	-9.614200	27.197345	0.000339	20.777593
2170.578399	-3.000200	3.211400	-9.634100	27.223592	0.000341	20.787398
2171.581102	-3.019800	3.211100	-9.696000	27.248325	0.000338	20.773396
2172.578350	-2.981100	3.211200	-9.571700	27.272395	0.000336	20.764890
2173.580174	-2.996700	3.209600	-9.617000	27.275026	0.000337	20.779865
2174.583454	-2.987900	3.210300	-9.590900	27.290852	0.000334	20.786301
2175.584571	-2.996200	3.208300	-9.611000	27.315515	0.000336	20.784557
2176.582082	-2.999300	3.208400	-9.621200	27.289041	0.000335	20.759822
2177.583400	-2.996600	3.207000	-9.609200	27.284975	0.000334	20.771380
2178.594701	-2.992800	3.208400	-9.601700	27.335685	0.000334	20.766914
2179.582369	-3.003900	3.208000	-9.635900	27.344046	0.000334	20.793818
2180.583640	-2.994200	3.206800	-9.600900	27.404201	0.000334	20.767562
2181.583249	-2.999500	3.207000	-9.618300	27.415464	0.000333	20.768935
2182.590612	-3.003200	3.204500	-9.622800	27.430742	0.000332	20.763917
2183.584061	-2.995500	3.207200	-9.606200	27.416779	0.000332	20.778319
2184.585673	-2.993700	3.204700	-9.592200	27.420230	0.000330	20.774678
2185.591451	-3.019600	3.203000	-9.669900	27.425783	0.000330	20.785955
2186.585910	-3.014000	3.204000	-9.655900	27.447238	0.000326	20.771503
2187.585213	-3.011300	3.202400	-9.641500	27.487126	0.000328	20.777969
2188.587173	-3.013100	3.201300	-9.645700	27.529869	0.000327	20.785411
2189.585611	-2.996800	3.202000	-9.594700	27.530090	0.000326	20.764296
2190.585433	-3.019600	3.201600	-9.666600	27.528676	0.000327	20.778047
2191.589808	-3.010900	3.200500	-9.635400	27.489987	0.000326	20.758087
2192.585437	-3.006900	3.201000	-9.624000	27.483319	0.000322	20.789786
2193.587501	-2.980700	3.200600	-9.538600	27.510006	0.000323	20.765900
2194.587678	-2.994200	3.200400	-9.582200	27.488302	0.000323	20.766824
2195.586939	-2.993900	3.200400	-9.580800	27.458664	0.000322	20.774938
2196.588032	-2.996800	3.200000	-9.588800	27.496667	0.000323	20.788990
2197.589329	-3.019000	3.200900	-9.662500	27.507408	0.000322	20.783201
2198.587143	-2.981100	3.199700	-9.538200	27.510834	0.000319	20.759147
2199.588067	-2.994300	3.197400	-9.573000	27.518772	0.000320	20.776617
2200.588012	-2.996000	3.196600	-9.576400	27.527529	0.000320	20.786376
2201.590070	-2.995100	3.200100	-9.583200	27.513100	0.000320	20.781342
2202.589696	-2.989400	3.197100	-9.556900	27.513199	0.000320	20.771958
2203.589687	-3.011900	3.194700	-9.620700	27.473213	0.000320	20.780093
2204.592407	-2.975000	3.197500	-9.511500	27.448407	0.000318	20.762722
2205.592241	-2.986000	3.195100	-9.539200	27.445013	0.000320	20.778749
2206.591333	-3.011600	3.195900	-9.623800	27.448214	0.000319	20.769167
2207.595047	-3.001800	3.194500	-9.588000	27.458652	0.000316	20.763072
2208.592906	-2.967700	3.193700	-9.476400	27.440231	0.000317	20.783420
2209.595065	-3.009700	3.192500	-9.607700	27.426460	0.000316	20.772886
2210.592577	-2.994100	3.192000	-9.555700	27.394337	0.000317	20.763328
2211.591885	-2.999000	3.192400	-9.573300	27.420559	0.000316	20.790182
2212.597665	-2.964200	3.191900	-9.460500	27.391111	0.000316	20.795171
2213.593413	-2.960300	3.192900	-9.451100	27.352241	0.000313	20.771715
2214.596980	-2.992600	3.193000	-9.554200	27.337379	0.000313	20.781895
2215.595165	-2.996100	3.190400	-9.557100	27.379476	0.000313	20.778724
2216.594654	-3.042600	3.189500	-9.703600	27.403980	0.000311	20.789151
2217.594450	-2.991300	3.190200	-9.542100	27.423206	0.000310	20.791423
2218.599865	-2.990900	3.187700	-9.533200	27.425292	0.000313	20.770762
2219.594452	-2.994700	3.188600	-9.548300	27.402538	0.000309	20.796709
2220.596487	-3.012100	3.185600	-9.594700	27.404103	0.000310	20.798284
2221.595009	-2.994900	3.188300	-9.547300	27.375471	0.000310	20.790817
2222.596074	-2.992200	3.187300	-9.535600	27.385717	0.000311	20.785003
2223.599574	-2.996400	3.186500	-9.545700	27.425431	0.000308	20.800774
2224.595600	-3.026000	3.185400	-9.638000	27.470078	0.000308	20.796853
2225.598797	-2.996500	3.185600	-9.544700	27.490196	0.000306	20.815196
2226.595622	-2.989600	3.185700	-9.522000	27.478782	0.000304	20.801817
2227.597709	-3.027400	3.182900	-9.634400	27.444226	0.000304	20.780327
2228.601121	-3.000400	3.184300	-9.552300	27.436243	0.000305	20.791262
2229.598816	-2.985800	3.182200	-9.500900	27.463648	0.000302	20.791806
2230.597895	-3.000200	3.183000	-9.547000	27.491253	0.000303	20.793975
2231.602057	-3.004100	3.181500	-9.556500	27.494085	0.000304	20.790186
2232.599569	-3.012700	3.182200	-9.585900	27.547137	0.000299	20.809424
2233.599349	-3.015200	3.181200	-9.591100	27.582801	0.000300	20.798840
2234.603997	-3.014800	3.179700	-9.586000	27.562562	0.000300	20.797916
2235.602860	-3.007900	3.181200	-9.566600	27.564648	0.000298	20.801912
2236.599781	-2.994300	3.179300	-9.518300	27.607084	0.000296	20.807152
2237.602468	-3.009300	3.177400	-9.560900	27.593643	0.000297	20.814017
2238.604563	-3.014900	3.177600	-9.579300	27.576875	0.000297	20.802361
2239.600521	-3.012800	3.178700	-9.575200	27.576753	0.000295	20.803660
2240.602355	-2.967600	3.178100	-9.430500	27.577150	0.000296	20.809275
2241.607170	-3.009800	3.176900	-9.560800	27.565094	0.000294	20.798568
2242.600033	-2.989900	3.177900	-9.500600	27.581072	0.000294	20.795678
2243.606144	-2.996900	3.176000	-9.516700	27.593467	0.000294	20.807676
2244.601527	-3.006600	3.175100	-9.544700	27.614181	0.000293	20.821880
2245.603806	-3.011600	3.174500	-9.558700	27.663212	0.000293	20.805309
2246.601879	-3.003300	3.174100	-9.531900	27.643225	0.000292	20.823603
2247.602824	-3.030300	3.172600	-9.613200	27.657484	0.000294	20.802864
2248.607083	-3.007700	3.173000	-9.542200	27.618103	0.000292	20.802118
2249.602230	-3.007600	3.173400	-9.542800	27.598807	0.000291	20.823953
2250.602867	-2.999800	3.173100	-9.517400	27.589898	0.000293	20.823050
2251.607971	-2.998800	3.173300	-9.515300	27.557313	0.000291	20.803540
2252.606410	-2.983400	3.171400	-9.461000	27.546375	0.000288	20.799648
2253.604546	-2.963300	3.173600	-9.403800	27.541511	0.000287	20.802341
2254.608089	-3.009700	3.169100	-9.537800	27.561775	0.000290	20.807082
2255.606312	-3.000700	3.169300	-9.509600	27.591218	0.000287	20.838602
2256.605875	-3.015300	3.168100	-9.551400	27.594320	0.000284	20.809008
2257.605311	-3.005300	3.169200	-9.523000	27.610096	0.000286	20.817295
2258.609400	-3.013800	3.167800	-9.545500	27.595557	0.000285	20.805985
2259.608223	-3.004800	3.167000	-9.515700	27.581002	0.000285	20.815522
2260.606864	-3.022600	3.166200	-9.569100	27.593082	0.000284	20.814401
2261.609177	-2.997000	3.166200	-9.488200	27.642758	0.000282	20.829297
2262.606336	-2.980000	3.166100	-9.433800	27.683482	0.000282	20.810059
2263.605607	-3.015300	3.163900	-9.538400	27.721477	0.000284	20.837386
2264.608323	-3.003100	3.167700	-9.511900	27.684871	0.000281	20.821414
2265.611489	-2.981100	3.163700	-9.430400	27.684027	0.000281	20.829573
2266.606638	-2.983100	3.163500	-9.435900	27.681004	0.000280	20.799030
2267.605737	-2.994100	3.163300	-9.470300	27.677013	0.000280	20.834842
2268.609357	-3.017000	3.161700	-9.537200	27.701068	0.000281	20.833445
2269.606353	-2.971900	3.163700	-9.401500	27.705731	0.000280	20.830551
2270.609642	-2.981300	3.161300	-9.423700	27.737968	0.000279	20.817472
2271.610094	-3.004700	3.160500	-9.495600	27.722006	0.000277	20.822746
2272.612496	-2.998900	3.160200	-9.476200	27.668285	0.000277	20.818949
2273.609513	-3.018400	3.159100	-9.534200	27.612510	0.000277	20.812137
2274.608377	-3.006400	3.159600	-9.497700	27.636788	0.000277	20.830876
2275.612281	-2.977900	3.159300	-9.405900	27.678754	0.000276	20.850345
2276.610528	-2.990500	3.158700	-9.444800	27.717638	0.000274	20.794643
2277.611757	-3.007600	3.158300	-9.497600	27.717343	0.000275	20.834175
2278.608815	-2.999400	3.156100	-9.464000	27.746281	0.000273	20.823467
2279.611797	-3.007300	3.156200	-9.490600	27.769348	0.000273	20.834826
2280.612330	-2.994400	3.155300	-9.446300	27.794094	0.000271	20.840763
2281.614239	-2.990800	3.155000	-9.435400	27.833379	0.000273	20.848531
2282.611817	-2.972800	3.154300	-9.376300	27.830454	0.000271	20.824251
2283.611658	-2.991000	3.153700	-9.431000	27.848156	0.000270	20.853445
2284.613916	-2.999400	3.153100	-9.455900	27.823239	0.000269	20.843068
2285.612279	-2.989200	3.153000	-9.424400	27.767791	0.000267	20.839424
2286.614947	-3.003500	3.152800	-9.468500	27.743541	0.000268	20.837304
2287.612781	-2.996700	3.152100	-9.443600	27.773527	0.000266	20.827653
2288.616356	-2.988300	3.150700	-9.413700	27.804328	0.000267	20.844425
2289.612589	-2.979200	3.150900	-9.385400	27.802915	0.000265	20.830675
2290.613634	-3.010900	3.150600	-9.484000	27.819307	0.000266	20.839111
2291.615154	-3.019400	3.149800	-9.509900	27.832449	0.000264	20.857552
2292.614933	-2.980600	3.149800	-9.387500	27.839938	0.000267	20.843279
2293.614992	-2.995000	3.147500	-9.425200	27.882216	0.000266	20.849319
2294.617116	-2.992300	3.146900	-9.416000	27.893203	0.000264	20.824817
2295.616156	-3.021900	3.145800	-9.504500	27.861618	0.000265	20.840463
2296.617262	-2.998400	3.145200	-9.429900	27.831987	0.000265	20.854242
2297.624935	-3.013900	3.144800	-9.476700	27.777953	0.000262	20.834951
2298.619648	-3.026100	3.142500	-9.508500	27.718512	0.000263	20.854316
2299.622458	-3.003300	3.144100	-9.441500	27.723498	0.000262	20.834205
2300.620171	-3.025800	3.142400	-9.506500	27.772549	0.000263	20.837573
2301.622349	-3.016900	3.142000	-9.478100	27.774516	0.000263	20.852828
2302.623392	-3.017400	3.140700	-9.475400	27.813744	0.000263	20.861960
2303.623180	-2.982600	3.140900	-9.366700	27.833581	0.000262	20.861536
2304.626288	-2.993300	3.139900	-9.396800	27.883995	0.000262	20.847790
2305.619252	-2.989000	3.138900	-9.381200	27.914739	0.000261	20.867827
2306.621830	-2.998200	3.138700	-9.409800	27.957313	0.000259	20.871323
2307.622217	-3.011100	3.137700	-9.446700	28.003629	0.000259	20.860571
2308.624884	-3.035200	3.136500	-9.517100	28.018306	0.000257	20.860171
2309.624604	-2.984600	3.136900	-9.361300	28.029115	0.000259	20.860621
2310.624605	-3.021200	3.134600	-9.469700	28.024876	0.000257	20.872000
2311.622603	-2.999300	3.135600	-9.403600	28.014984	0.000257	20.852561
2312.624604	-3.004700	3.135900	-9.421300	27.993422	0.000256	20.852194
2313.628746	-3.018200	3.133400	-9.456600	27.994958	0.000254	20.859430
2314.628419	-3.011400	3.132900	-9.433300	28.010106	0.000254	20.858555
2315.622119	-3.005700	3.132900	-9.415300	27.961762	0.000256	20.854466
2316.622547	-3.013200	3.131600	-9.436000	27.971286	0.000255	20.867844
2317.630651	-3.001300	3.130600	-9.394100	27.991440	0.000254	20.864897
2318.629097	-3.009500	3.131000	-9.421800	28.009389	0.000253	20.869213
2319.624608	-2.988900	3.130600	-9.356200	28.022607	0.000252	20.862604
2320.626937	-2.973600	3.130100	-9.307100	28.051767	0.000253	20.851180
2321.623006	-3.000800	3.127800	-9.384400	28.055781	0.000252	20.855220
2322.627976	-3.019400	3.126300	-9.438800	28.058357	0.000251	20.869667
2323.627891	-3.018500	3.126900	-9.437400	28.052905	0.000252	20.851378
2324.623616	-3.013200	3.125600	-9.417000	28.084784	0.000253	20.881569
2325.626115	-2.974500	3.126800	-9.299700	28.072590	0.000252	20.864081
2326.624805	-3.008300	3.124700	-9.398600	28.026531	0.000250	20.866554
2327.627865	-2.987200	3.125800	-9.337200	27.968116	0.000250	20.858490
2328.626774	-3.001800	3.124800	-9.378200	27.884914	0.000250	20.873370
2329.630699	-3.017600	3.121000	-9.416700	27.852779	0.000251	20.877538
2330.625477	-2.982300	3.123300	-9.314100	27.850522	0.000250	20.843974
2331.626572	-2.987500	3.121300	-9.323100	27.793269	0.000248	20.864588
2332.625764	-2.978900	3.121800	-9.298200	27.746128	0.000249	20.864089
2333.626672	-3.024200	3.119200	-9.431300	27.710864	0.000250	20.864163
2334.629547	-3.010400	3.117800	-9.383500	27.721754	0.000250	20.869433
2335.627269	-3.023400	3.117300	-9.423000	27.734423	0.000247	20.870327
2336.632280	-3.014000	3.116800	-9.393100	27.787939	0.000249	20.874870
2337.629484	-3.014100	3.116900	-9.393600	27.832177	0.000248	20.867235
2338.628908	-3.017000	3.115100	-9.397600	27.824045	0.000247	20.863318
2339.631363	-2.977100	3.116900	-9.277500	27.813827	0.000246	20.869156
2340.638797	-2.984400	3.114100	-9.292600	27.808669	0.000246	20.881034
2341.629371	-2.999800	3.114100	-9.341300	27.841256	0.000245	20.878742
2342.630168	-3.009700	3.112000	-9.364700	27.849162	0.000247	20.891914
2343.630248	-2.993700	3.111900	-9.315300	27.840539	0.000246	20.868064
2344.632500	-3.008900	3.110600	-9.358600	27.816654	0.000244	20.901870
2345.633593	-2.996700	3.111000	-9.322000	27.811501	0.000245	20.881987
2346.631707	-2.977900	3.109900	-9.260400	27.765479	0.000244	20.884510
2347.634123	-2.993100	3.108400	-9.301200	27.779733	0.000245	20.884629
2348.632690	-3.003300	3.108100	-9.332200	27.771448	0.000244	20.901895
2349.634726	-3.016900	3.106200	-9.370400	27.775713	0.000244	20.885800
2350.640407	-2.999600	3.105200	-9.312900	27.750349	0.000245	20.891094
2351.634937	-3.007200	3.105900	-9.337700	27.749878	0.000240	20.890620
2352.637151	-2.994500	3.105200	-9.297600	27.751934	0.000242	20.886526
2353.635987	-3.023800	3.102300	-9.379600	27.802667	0.000242	20.879735
2354.635691	-3.016800	3.102200	-9.357800	27.807477	0.000241	20.887894
2355.635840	-2.987400	3.102300	-9.265200	27.787992	0.000241	20.869709
2356.640193	-2.987700	3.101800	-9.266500	27.826548	0.000240	20.896655
2357.636386	-2.972600	3.101400	-9.218300	27.859281	0.000240	20.917269
2358.636919	-3.017700	3.099700	-9.351100	27.924941	0.000240	20.895637
2359.638422	-3.003900	3.097500	-9.303400	27.948172	0.000239	20.890096
2360.638068	-2.984800	3.097400	-9.243900	28.031201	0.000239	20.907762
2361.640677	-2.992100	3.096500	-9.263800	28.072255	0.000240	20.912103
2362.637262	-3.013000	3.095200	-9.324200	28.101262	0.000239	20.911905
2363.637775	-3.002000	3.095100	-9.290400	28.123575	0.000237	20.882688
2364.636817	-3.005400	3.094400	-9.298900	28.103690	0.000238	20.902023
2365.637543	-2.996000	3.092200	-9.261500	28.116609	0.000237	20.891795
2366.638354	-2.994300	3.091900	-9.257300	28.114352	0.000236	20.875299
2367.637321	-2.993900	3.092500	-9.258000	28.155951	0.000237	20.886357
2368.640597	-3.024700	3.089500	-9.342700	28.177793	0.000237	20.890801
2369.639264	-3.020000	3.089700	-9.329900	28.163864	0.000236	20.874883
2370.639853	-3.035500	3.088400	-9.373700	28.101319	0.000238	20.903903
2371.639545	-2.991500	3.088300	-9.237800	28.056028	0.000236	20.898614
2372.641960	-2.995200	3.088700	-9.249900	28.059423	0.000235	20.872162
2373.641079	-3.006200	3.087700	-9.281600	28.033864	0.000238	20.883892
2374.641167	-3.000100	3.085800	-9.255800	28.062622	0.000235	20.886761
2375.639576	-3.016700	3.084900	-9.305100	28.042417	0.000235	20.892974
2376.640569	-3.038000	3.083800	-9.367400	28.008825	0.000234	20.861060
2377.644021	-3.005800	3.084200	-9.268900	28.035028	0.000236	20.886011
2378.642753	-3.017600	3.082700	-9.300800	28.037756	0.000235	20.874059
2379.641381	-3.014300	3.081000	-9.286300	27.983191	0.000235	20.900214
2380.642093	-3.008600	3.078900	-9.262300	27.947091	0.000235	20.892801
2381.641436	-3.004000	3.078900	-9.247800	27.945805	0.000235	20.888188
2382.645936	-3.010200	3.078600	-9.265500	27.996475	0.000235	20.874232
2383.642312	-2.999300	3.077800	-9.230600	28.011828	0.000234	20.876409
2384.642941	-2.998400	3.077700	-9.227400	28.004914	0.000233	20.887941
2385.640738	-3.017200	3.075300	-9.277700	28.024423	0.000234	20.876285
2386.641669	-2.996000	3.075300	-9.213200	28.013167	0.000233	20.877757
2387.642084	-3.031700	3.071800	-9.312000	27.975659	0.000232	20.865608
2388.639861	-3.010700	3.071500	-9.246800	27.980247	0.000231	20.863587
2389.642473	-2.998600	3.071000	-9.207800	27.997504	0.000232	20.887120
2390.642180	-2.967000	3.070900	-9.110500	28.033726	0.000230	20.881382
2391.641075	-2.988300	3.069600	-9.171300	28.040325	0.000232	20.868585
2392.644064	-2.989800	3.069700	-9.176500	28.025497	0.000230	20.868358
2393.645267	-2.998600	3.066800	-9.195200	28.056561	0.000232	20.852213
2394.642617	-2.985100	3.068000	-9.157100	28.088271	0.000230	20.860426
2395.646713	-3.004400	3.067100	-9.213800	28.106768	0.000232	20.858183
2396.640465	-3.020700	3.065000	-9.257600	28.160044	0.000231	20.859659
2397.640510	-2.992700	3.064600	-9.170700	28.179526	0.000231	20.871211
2398.643873	-3.023500	3.061900	-9.256800	28.189347	0.000229	20.867348
2399.641914	-3.013000	3.060400	-9.219600	28.218797	0.000231	20.868074
2400.643777	-3.001100	3.060900	-9.185200	28.265323	0.000230	20.876035
2401.641440	-2.994700	3.060300	-9.163500	28.278710	0.000230	20.853954
2402.640809	-2.990000	3.060200	-9.148000	28.286941	0.000232	20.867456
2403.643251	-3.010800	3.057500	-9.204300	28.317899	0.000229	20.883453
2404.642629	-3.003500	3.056700	-9.180400	28.322260	0.000230	20.861292
2405.644581	-2.985100	3.055500	-9.119400	28.334680	0.000228	20.869056
2406.642156	-2.999300	3.055200	-9.162000	28.323260	0.000228	20.847127
2407.640818	-2.996500	3.054300	-9.151200	28.309804	0.000229	20.865346
2408.640247	-2.960500	3.053500	-9.038600	28.242858	0.000228	20.853893
2409.644975	-3.006500	3.050500	-9.170600	28.247396	0.000229	20.857039
2410.641624	-2.999600	3.050900	-9.150600	28.236068	0.000231	20.862229
2411.643013	-3.024200	3.049900	-9.222500	28.256971	0.000231	20.856247
2412.642889	-2.975200	3.051200	-9.076400	28.218524	0.000229	20.858791
2413.643024	-3.011200	3.045500	-9.170300	28.144528	0.000229	20.844039
2414.648551	-2.998600	3.046600	-9.134800	28.120413	0.000228	20.843471
2415.644748	-2.971400	3.046200	-9.049800	28.145822	0.000231	20.837282
2416.645156	-2.991900	3.045200	-9.109900	28.144708	0.000229	20.837109
2417.644727	-2.980400	3.043600	-9.070300	28.077129	0.000228	20.853477
2418.643381	-3.048500	3.039700	-9.265400	28.047057	0.000228	20.860663
2419.644251	-2.998700	3.039800	-9.113200	28.096166	0.000228	20.841347
2420.647989	-3.045800	3.036700	-9.247300	28.122940	0.000228	20.809505
2421.649377	-3.007600	3.037800	-9.135600	28.107696	0.000228	20.829721
2422.649073	-2.996500	3.036600	-9.098100	28.045722	0.000226	20.836087
2423.646018	-3.020000	3.036300	-9.167800	28.048101	0.000228	20.834215
2424.644690	-3.003600	3.033900	-9.111700	28.032881	0.000225	20.832170
2425.649148	-3.013100	3.033300	-9.139100	28.043936	0.000228	20.830496
2426.645791	-3.006600	3.031400	-9.112900	28.069028	0.000225	20.846270
2427.647651	-3.000300	3.030000	-9.089500	28.092034	0.000225	20.837662
2428.645909	-2.985600	3.030400	-9.046600	28.165088	0.000224	20.825858
2429.649968	-2.976300	3.028900	-9.014100	28.203360	0.000224	20.822188
2430.649041	-3.009400	3.027600	-9.110700	28.218038	0.000225	20.827482
2431.648338	-3.008300	3.025500	-9.100700	28.215654	0.000224	20.843100
2432.647150	-3.016200	3.024700	-9.121500	28.229644	0.000223	20.832529
2433.649717	-2.989100	3.024700	-9.039900	28.201083	0.000224	20.824637
2434.648705	-3.006000	3.022000	-9.084300	28.144811	0.000225	20.827255
2435.649858	-2.983500	3.021100	-9.012000	28.104952	0.000224	20.822217
2436.652630	-2.995900	3.021400	-9.050500	28.052222	0.000225	20.833621
2437.649445	-2.991700	3.020200	-9.035100	28.004823	0.000222	20.821945
2438.650562	-3.000400	3.018100	-9.054600	27.961956	0.000226	20.816256
2439.650801	-3.002600	3.017100	-9.058100	27.943260	0.000224	20.821620
2440.653280	-3.022800	3.014600	-9.111500	27.935777	0.000224	20.827363
2441.660035	-2.991800	3.014300	-9.017300	27.970862	0.000224	20.813840
2442.653769	-2.990500	3.012900	-9.009600	28.031329	0.000223	20.814961
2443.652749	-3.009200	3.011600	-9.061300	28.050273	0.000224	20.816961
2444.655369	-2.999800	3.010000	-9.028200	28.090458	0.000221	20.828489
2445.656430	-3.004300	3.009000	-9.038800	28.118301	0.000224	20.815741
2446.652988	-2.988600	3.009500	-8.993200	28.164434	0.000223	20.837053
2447.656814	-3.017900	3.006600	-9.073000	28.214656	0.000222	20.834509
2448.655725	-2.998500	3.005200	-9.010600	28.179902	0.000224	20.827970
2449.657973	-2.981400	3.003500	-8.951600	28.155960	0.000225	20.834212
2450.654810	-2.972800	3.004100	-8.930100	28.180300	0.000224	20.833111
2451.653511	-2.989100	3.000700	-8.968400	28.213223	0.000224	20.835437
2452.657350	-3.016100	3.000800	-9.050000	28.231021	0.000222	20.804044
2453.656374	-2.987400	3.000300	-8.962500	28.282153	0.000225	20.819963
2454.658352	-3.014900	2.998100	-9.038300	28.349842	0.000224	20.809408
2455.658737	-2.985000	2.997300	-8.945500	28.365779	0.000222	20.831619
2456.657523	-3.004200	2.994500	-8.995100	28.361787	0.000226	20.829021
2457.660119	-2.987000	2.995000	-8.944400	28.316952	0.000224	20.811379
2458.658824	-2.994800	2.992600	-8.960900	28.296875	0.000224	20.808707
2459.657827	-3.009800	2.992600	-9.005900	28.281510	0.000225	20.799402
2460.659937	-2.999900	2.989900	-8.968500	28.243933	0.000224	20.815148
2461.658988	-3.009400	2.989400	-8.995900	28.214366	0.000225	20.815251
2462.658797	-2.998500	2.986900	-8.955200	28.213272	0.000224	20.829797
2463.663100	-3.019500	2.986500	-9.016900	28.187864	0.000221	20.798528
2464.659465	-2.990300	2.985700	-8.927200	28.216093	0.000222	20.819361
2465.660127	-2.983800	2.985300	-8.906900	28.223830	0.000221	20.822882
2466.659366	-2.984000	2.984100	-8.903400	28.288045	0.000223	20.808352
2467.659369	-2.988100	2.981700	-8.909300	28.320171	0.000223	20.797076
2468.661064	-2.969100	2.980100	-8.846000	28.401660	0.000223	20.807058
2469.658943	-2.980500	2.978500	-8.877000	28.415979	0.000223	20.803458
2470.660660	-3.016200	2.976000	-8.974100	28.459302	0.000222	20.811049
2471.660130	-3.012100	2.975500	-8.961000	28.501580	0.000222	20.820907
2472.661577	-3.005000	2.972700	-8.932400	28.495058	0.000224	20.815761
2473.662027	-2.987600	2.972900	-8.880500	28.495680	0.000221	20.801215
2474.665672	-2.997100	2.970500	-8.901700	28.510325	0.000222	20.808851
2475.662692	-3.002100	2.967600	-8.907600	28.479471	0.000221	20.803858
2476.666152	-2.992100	2.968300	-8.880900	28.461829	0.000221	20.805058
2477.662160	-3.017900	2.966200	-8.950100	28.401582	0.000221	20.811247
2478.662051	-2.984200	2.965100	-8.847200	28.369464	0.000222	20.814941
2479.668225	-3.002300	2.965100	-8.900100	28.360816	0.000222	20.813345
2480.663135	-2.975200	2.962300	-8.812600	28.316129	0.000221	20.815291
2481.666032	-2.987000	2.961200	-8.843400	28.260211	0.000222	20.797872
2482.664410	-3.010100	2.958900	-8.905400	28.242860	0.000219	20.810748
2483.667243	-3.001500	2.958500	-8.878900	28.265514	0.000221	20.783296
2484.669297	-2.993300	2.956800	-8.850000	28.230664	0.000221	20.796099
2485.664600	-3.005600	2.954400	-8.879000	28.193933	0.000221	20.795155
2486.669392	-2.988500	2.954400	-8.828000	28.240559	0.000218	20.795629
2487.670147	-2.983500	2.952300	-8.806400	28.251263	0.000223	20.801191
2488.667216	-2.995700	2.950100	-8.836500	28.222040	0.000219	20.816339
2489.671895	-3.019900	2.949700	-8.907300	28.260760	0.000220	20.790364
2490.671559	-3.015700	2.946100	-8.882900	28.256546	0.000220	20.806510
2491.667792	-2.983200	2.947200	-8.791600	28.276002	0.000219	20.804761
2492.668935	-2.989500	2.945100	-8.802800	28.210393	0.000220	20.796552
2493.666091	-2.981200	2.944100	-8.775800	28.197456	0.000218	20.793959
2494.669655	-2.975800	2.941200	-8.750900	28.183056	0.000220	20.791791
2495.669446	-3.014800	2.938500	-8.858100	28.219071	0.000220	20.803867
2496.669891	-2.988600	2.938400	-8.780600	28.245940	0.000218	20.783029
2497.673079	-2.992100	2.936300	-8.784600	28.292444	0.000218	20.796186
2498.671451	-3.024700	2.934100	-8.873700	28.273725	0.000219	20.816219
2499.677775	-3.028900	2.933000	-8.882600	28.284336	0.000218	20.787074
2500.673364	-2.995400	2.931700	-8.780900	28.319512	0.000220	20.796887
2501.675404	-3.003400	2.930200	-8.799800	28.379042	0.000217	20.808465
2502.673451	-2.974300	2.929400	-8.711400	28.445436	0.000221	20.782860
2503.674367	-3.008400	2.926900	-8.804200	28.505757	0.000219	20.784811
2504.672432	-2.982700	2.925300	-8.724200	28.543894	0.000219	20.793346
2505.670710	-3.012400	2.923200	-8.805300	28.540255	0.000219	20.797267
2506.675664	-3.000900	2.921800	-8.767100	28.521348	0.000220	20.800986
2507.671655	-3.038300	2.918600	-8.865900	28.523379	0.000220	20.800660
2508.672475	-2.995800	2.918400	-8.741400	28.532902	0.000218	20.788914
2509.672537	-2.988200	2.918700	-8.720400	28.450251	0.000219	20.794822
2510.676003	-2.995100	2.915300	-8.730500	28.395880	0.000219	20.780375
2511.675036	-2.990300	2.915200	-8.716400	28.385280	0.000219	20.768752
2512.672497	-2.997100	2.912700	-8.729100	28.398435	0.000220	20.797647
2513.671842	-2.977800	2.910100	-8.664700	28.456549	0.000219	20.767498
2514.671541	-2.980200	2.908900	-8.667600	28.489909	0.000220	20.788766
2515.672184	-2.980500	2.906900	-8.663000	28.504628	0.000219	20.799321
2516.675108	-2.996600	2.906200	-8.707200	28.517169	0.000218	20.774491
2517.673647	-2.991700	2.902400	-8.680800	28.521009	0.000217	20.766979
2518.677994	-3.021800	2.902000	-8.767800	28.520768	0.000219	20.768633
2519.674373	-3.006400	2.898800	-8.714100	28.525623	0.000217	20.790118
2520.673274	-3.005500	2.896700	-8.705000	28.537349	0.000219	20.780116
2521.678491	-3.039100	2.894000	-8.793700	28.527609	0.000219	20.786429
2522.673800	-2.971200	2.896200	-8.603400	28.538045	0.000217	20.776076
2523.673497	-2.990800	2.892900	-8.650600	28.501796	0.000218	20.762329
2524.674325	-2.984200	2.891500	-8.627100	28.495376	0.000219	20.776727
2525.674979	-2.986700	2.888900	-8.627300	28.512282	0.000219	20.763406
2526.676479	-2.976500	2.889200	-8.598300	28.511688	0.000219	20.777033
2527.682511	-2.999800	2.884700	-8.652400	28.501506	0.000218	20.748760
2528.677890	-3.002300	2.883300	-8.655900	28.508368	0.000217	20.770844
2529.678619	-2.961100	2.882800	-8.535800	28.501555	0.000219	20.766354
2530.675287	-2.993100	2.879700	-8.618400	28.522272	0.000220	20.780579
2531.677055	-2.996700	2.878700	-8.626400	28.531291	0.000220	20.764532
2532.680490	-2.988200	2.876100	-8.592900	28.557411	0.000220	20.789415
2533.679425	-3.000000	2.874200	-8.621500	28.583732	0.000218	20.761395
2534.680774	-2.980800	2.873300	-8.564000	28.626103	0.000219	20.757127
2535.680380	-3.000700	2.871000	-8.613900	28.664260	0.000221	20.770428
2536.681971	-3.019200	2.866100	-8.651400	28.709702	0.000219	20.760723
2537.680549	-2.999900	2.867700	-8.601700	28.717900	0.000220	20.764240
2538.681928	-3.001700	2.863200	-8.593600	28.741437	0.000220	20.770404
2539.683858	-3.010200	2.862800	-8.615800	28.688719	0.000219	20.761399
2540.682267	-3.005800	2.860800	-8.598300	28.677465	0.000220	20.770453
2541.682938	-2.986700	2.858500	-8.535700	28.689558	0.000219	20.760821
2542.686092	-3.008700	2.857800	-8.596900	28.645728	0.000220	20.766462
2543.683270	-3.019200	2.853400	-8.614000	28.609424	0.000221	20.746967
2544.685633	-3.011800	2.852500	-8.590700	28.623401	0.000221	20.770527
2545.683956	-2.987800	2.850800	-8.515100	28.627658	0.000221	20.761538
2546.686646	-2.999400	2.848600	-8.542200	28.662524	0.000220	20.762990
2547.687091	-2.984600	2.847100	-8.496500	28.713414	0.000220	20.762091
2548.686792	-3.010100	2.846000	-8.565900	28.735956	0.000220	20.758244
2549.685213	-3.004100	2.841700	-8.535900	28.725521	0.000224	20.779029
2550.683866	-2.992800	2.841200	-8.502700	28.704363	0.000218	20.762932
2551.684293	-2.993400	2.838000	-8.493600	28.675819	0.000220	20.750776
2552.685594	-2.977800	2.837300	-8.448000	28.638129	0.000220	20.756911
2553.688268	-2.970000	2.834600	-8.416900	28.634088	0.000220	20.761851
2554.684826	-3.012200	2.831100	-8.526600	28.683342	0.000219	20.769260
2555.685081	-3.011200	2.829400	-8.518600	28.669715	0.000219	20.755534
2556.683070	-2.969700	2.827900	-8.397500	28.631156	0.000219	20.762691
2557.684253	-3.010700	2.824800	-8.502500	28.613316	0.000219	20.761318
2558.691564	-2.983400	2.823800	-8.423400	28.623747	0.000218	20.756177
2559.687299	-2.993500	2.820800	-8.442000	28.648173	0.000219	20.767028
2560.684622	-3.001500	2.816900	-8.454400	28.665592	0.000218	20.758493
2561.684892	-2.995300	2.815200	-8.430900	28.669132	0.000219	20.762060
2562.684681	-2.970400	2.813400	-8.355900	28.663160	0.000220	20.765527
2563.684111	-2.985500	2.811900	-8.392900	28.664842	0.000221	20.755368
2564.688350	-3.017200	2.808000	-8.471100	28.686075	0.000219	20.762055
2565.688009	-3.018100	2.805500	-8.465600	28.692518	0.000219	20.776132
2566.685400	-3.016800	2.803000	-8.455100	28.655746	0.000221	20.779871
2567.686857	-3.015600	2.800900	-8.445600	28.619197	0.000219	20.761078
2568.686035	-3.010900	2.799600	-8.428400	28.610801	0.000220	20.758786
2569.694192	-2.989600	2.796900	-8.360800	28.617191	0.000219	20.740565
2570.687165	-3.023800	2.792800	-8.444500	28.673139	0.000218	20.767044
2571.695778	-3.016800	2.791400	-8.419700	28.647317	0.000217	20.745302
2572.688470	-3.012700	2.789800	-8.404100	28.640779	0.000217	20.756736
2573.690409	-2.979200	2.786600	-8.299900	28.650440	0.000218	20.758880
2574.693237	-3.006800	2.781400	-8.362400	28.660773	0.000217	20.748424
2575.693823	-2.999600	2.781400	-8.341400	28.726579	0.000219	20.744531
2576.691307	-3.037100	2.776300	-8.430900	28.768081	0.000218	20.753145
2577.689177	-2.987300	2.775400	-8.290400	28.840466	0.000218	20.759680
2578.691624	-3.008200	2.773000	-8.340700	28.864892	0.000218	20.761527
2579.694123	-3.010200	2.768800	-8.333400	28.880576	0.000218	20.768318
2580.695529	-3.025500	2.765100	-8.363800	28.915106	0.000217	20.756637
2581.691990	-2.996700	2.762900	-8.278400	28.860882	0.000219	20.768867
2582.696462	-2.990800	2.760500	-8.255300	28.870099	0.000217	20.761556
2583.691212	-2.996000	2.757700	-8.261000	28.904084	0.000218	20.766871
2584.696336	-3.019700	2.754700	-8.317400	28.943447	0.000218	20.765276
2585.695252	-2.998300	2.751900	-8.249800	28.966209	0.000217	20.764500
2586.693326	-3.029500	2.747000	-8.320900	28.967253	0.000218	20.757491
2587.695898	-2.970600	2.745500	-8.154500	28.960718	0.000218	20.761813
2588.693758	-2.973900	2.742300	-8.154000	28.966562	0.000216	20.757743
2589.696251	-2.995900	2.739600	-8.206800	28.999853	0.000218	20.793656
2590.694026	-2.990600	2.736600	-8.183200	28.989896	0.000219	20.760864
2591.696694	-2.984900	2.733200	-8.157000	28.978332	0.000218	20.764860
2592.696774	-3.011000	2.728900	-8.216100	28.951040	0.000216	20.772925
2593.696424	-2.997000	2.727000	-8.172600	28.947373	0.000215	20.769231
2594.698419	-3.013300	2.723500	-8.205600	28.961095	0.000218	20.757451
2595.699798	-3.003900	2.718200	-8.163900	28.999068	0.000219	20.762044
2596.703429	-3.001900	2.716800	-8.154200	28.993351	0.000220	20.776673
2597.700180	-3.007400	2.711500	-8.153200	29.051260	0.000218	20.764370
2598.702076	-2.993500	2.709100	-8.109100	29.043133	0.000216	20.774673
2599.700046	-3.020000	2.703900	-8.163900	28.999224	0.000218	20.761727
2600.699614	-3.001400	2.702300	-8.109200	29.000812	0.000217	20.764276
2601.702997	-3.004900	2.698400	-8.107900	28.939704	0.000216	20.756289
2602.700574	-2.995400	2.696300	-8.075600	28.900669	0.000216	20.802312
2603.701580	-3.007900	2.691500	-8.094600	28.830363	0.000216	20.770365
2604.704051	-3.016900	2.687100	-8.105900	28.837526	0.000217	20.773788
2605.702314	-2.953000	2.686000	-7.930500	28.850357	0.000214	20.769170
2606.707551	-3.012900	2.679100	-8.071100	28.827838	0.000216	20.765925
2607.704381	-3.015000	2.674800	-8.063800	28.819247	0.000217	20.769599
2608.702606	-3.011900	2.671000	-8.043900	28.813824	0.000217	20.779784
2609.704041	-2.989500	2.668100	-7.975600	28.864334	0.000218	20.780880
2610.707272	-3.003000	2.663400	-7.997400	28.895398	0.000215	20.780406
2611.706367	-2.967400	2.660100	-7.891100	28.943036	0.000216	20.747318
2612.710048	-2.980500	2.656000	-7.914400	28.951336	0.000216	20.779862
2613.706475	-3.018700	2.651700	-8.003400	28.994658	0.000216	20.786999
2614.707158	-2.999600	2.646700	-7.938000	28.970436	0.000214	20.780613
2615.706729	-3.018000	2.643700	-7.978100	28.955106	0.000217	20.774651
2616.707657	-3.025400	2.638200	-7.980800	28.948296	0.000217	20.774903
2617.709734	-2.986400	2.634400	-7.866300	28.978117	0.000215	20.756583
2618.709323	-3.016700	2.628500	-7.928300	29.022683	0.000216	20.765449
2619.712487	-3.005900	2.625000	-7.889600	29.020575	0.000216	20.776127
2620.708443	-2.993900	2.620600	-7.845200	28.989343	0.000217	20.773584
2621.708515	-2.958800	2.616900	-7.741200	28.982161	0.000218	20.790056
2622.709015	-2.979000	2.611300	-7.777100	28.963463	0.000216	20.775011
2623.710539	-3.007900	2.606000	-7.837800	28.909119	0.000216	20.773366
2624.708905	-2.981000	2.601600	-7.753500	28.871593	0.000216	20.763536
2625.710680	-3.057000	2.594100	-7.929000	28.923386	0.000216	20.794377
2626.712125	-3.015800	2.590400	-7.810600	28.950393	0.000217	20.768954
2627.709221	-3.009500	2.584400	-7.776100	29.010240	0.000217	20.775671
2628.712649	-2.982700	2.580100	-7.695000	29.044716	0.000216	20.767260
2629.710476	-3.001900	2.574200	-7.725800	29.056706	0.000217	20.770806
2630.713401	-3.002200	2.569800	-7.713800	29.113797	0.000216	20.781865
2631.712080	-3.005800	2.564300	-7.707200	29.106763	0.000218	20.766242
2632.710931	-2.994200	2.557500	-7.656600	29.073161	0.000220	20.765100
2633.717062	-2.988200	2.552800	-7.626300	29.055132	0.000217	20.756891
2634.713694	-3.051200	2.544300	-7.761400	28.993115	0.000216	20.783074
2635.714077	-2.973100	2.540900	-7.552900	29.019047	0.000216	20.775062
2636.718261	-3.011700	2.533800	-7.630300	29.043322	0.000215	20.778184
2637.712702	-2.983400	2.528600	-7.543400	29.045753	0.000219	20.797703
2638.724192	-2.996200	2.522500	-7.556600	29.054944	0.000216	20.787049
2639.719372	-3.005200	2.515600	-7.558900	29.080258	0.000216	20.768458
2640.714898	-3.032100	2.507900	-7.603900	29.135593	0.000218	20.773481
2641.716031	-2.972800	2.503400	-7.441200	29.176010	0.000217	20.781966
2642.716051	-2.963900	2.498500	-7.403800	29.159693	0.000217	20.770265
