LabVIEW Measurement	
Writer_Version	2
Reader_Version	2
Separator	Tab
Decimal_Separator	.
Multi_Headings	No
X_Columns	One
Time_Pref	Absolute
Operator	admin
Description	Clolumns are: time, Current, Voltage, Power, Battery Temp, and Chamber Temp
Date	2024/08/16
Time	13:06:06.104549407958984375
***End_of_Header***	
	
Channels	6						
Samples	1	1	1	1	1	1	
Date	2024/08/25	2024/08/25	2024/08/25	2024/08/25	2024/08/25	2024/08/25	
Time	08:54:06.6159672737121582031	08:54:06.6209025382995605469	08:54:06.6269192695617675781	08:54:06.5890879631042480469	08:54:06.5890879631042480469	08:54:06.5890879631042480469	
X_Dimension	Time	Time	Time	Time	Time	Time	
X0	0.0000000000000000E+0	0.0000000000000000E+0	0.0000000000000000E+0	0.0000000000000000E+0	0.0000000000000000E+0	0.0000000000000000E+0	
Delta_X	1.000000	1.000000	1.000000	1.000000	1.000000	1.000000	
***End_of_Header***							
X_Value	Untitled	Untitled 1	Untitled 2	Untitled 3	Untitled 4	Untitled 5	Comment
0.000000	0.005543	4.105600	0.022757	21.003990	0.000963	20.794432
0.992469	-3.022800	3.947900	-11.932000	21.003367	0.000963	20.791439
1.994471	-2.991300	3.941400	-11.789000	21.025125	0.000961	20.797079
2.990177	-2.995600	3.935400	-11.789000	21.015293	0.000962	20.797677
3.989975	-3.010900	3.932200	-11.839000	21.026147	0.000962	20.810904
4.997398	-2.998900	3.929200	-11.781000	21.015318	0.000959	20.810504
5.990149	-2.991100	3.926000	-11.742000	21.024226	0.000960	20.795706
6.991285	-3.008500	3.922900	-11.801000	21.029886	0.000958	20.813221
7.990680	-3.021000	3.920900	-11.843000	21.030859	0.000958	20.813720
8.991033	-3.008100	3.918600	-11.786000	21.026667	0.000957	20.826597
9.991327	-2.978300	3.917200	-11.665000	21.034903	0.000956	20.801644
10.991201	-3.006300	3.914900	-11.767000	21.036403	0.000957	20.812627
11.992502	-2.997400	3.913900	-11.731000	21.043659	0.000954	20.794754
12.993830	-3.009700	3.911600	-11.772000	21.056586	0.000954	20.802468
13.995337	-3.010800	3.910200	-11.772000	21.044982	0.000953	20.808406
14.993445	-3.013100	3.908800	-11.777000	21.050472	0.000954	20.806785
15.994543	-3.016800	3.907700	-11.787000	21.050023	0.000951	20.807284
16.992065	-3.013900	3.907000	-11.774000	21.053816	0.000951	20.814870
17.992206	-3.013200	3.906200	-11.770000	21.072052	0.000950	20.821731
18.994235	-2.993400	3.906300	-11.692000	21.068985	0.000950	20.811077
19.994989	-2.991100	3.904300	-11.677000	21.077167	0.000950	20.807408
20.995154	-3.004900	3.903900	-11.730000	21.080560	0.000949	20.815069
21.996920	-2.984900	3.902600	-11.648000	21.074872	0.000950	20.811750
22.993856	-3.009800	3.900700	-11.740000	21.089241	0.000949	20.807157
23.995797	-2.987100	3.902300	-11.656000	21.079340	0.000947	20.816693
24.996496	-2.979400	3.901600	-11.624000	21.092114	0.000946	20.799124
26.005507	-2.992000	3.901000	-11.671000	21.097003	0.000945	20.813023
26.999663	-3.002200	3.899900	-11.708000	21.108503	0.000945	20.809354
27.995369	-3.013200	3.897300	-11.741000	21.114191	0.000946	20.806035
28.993454	-2.993800	3.898300	-11.670000	21.117411	0.000946	20.811626
30.004271	-3.007100	3.897000	-11.718000	21.116339	0.000946	20.799174
30.995369	-3.004400	3.896800	-11.707000	21.128936	0.000943	20.805610
31.996093	-2.996800	3.896000	-11.674000	21.120053	0.000945	20.818062
33.001482	-3.005300	3.895900	-11.707000	21.128462	0.000944	20.822205
33.996228	-2.993700	3.895500	-11.661000	21.138066	0.000943	20.819010
34.993672	-2.993700	3.895300	-11.659000	21.145052	0.000943	20.814619
35.995310	-3.003500	3.894000	-11.695000	21.159998	0.000943	20.838103
36.995385	-3.000400	3.894500	-11.684000	21.158123	0.000940	20.809202
37.998380	-3.019100	3.893400	-11.754000	21.151511	0.000941	20.827244
39.003977	-2.990400	3.892300	-11.638000	21.162888	0.000941	20.824873
39.998638	-3.034400	3.889800	-11.801000	21.180825	0.000941	20.817687
41.005025	-2.978100	3.891400	-11.588000	21.189905	0.000941	20.825348
41.995514	-2.991000	3.890900	-11.637000	21.191798	0.000942	20.815387
42.995659	-2.984700	3.891100	-11.613000	21.207464	0.000939	20.821101
44.007425	-3.033200	3.889800	-11.798000	21.193545	0.000940	20.807652
45.004705	-3.014300	3.888800	-11.721000	21.234255	0.000938	20.836048
46.001004	-3.004900	3.889100	-11.685000	21.217439	0.000938	20.827761
47.001033	-2.998000	3.889500	-11.659000	21.220382	0.000938	20.828334
47.998872	-2.985800	3.888200	-11.609000	21.239292	0.000940	20.828284
49.002214	-3.015000	3.887500	-11.720000	21.239415	0.000938	20.841210
49.996441	-3.006800	3.887400	-11.688000	21.238917	0.000937	20.830280
51.002392	-3.023700	3.887900	-11.755000	21.250366	0.000937	20.844104
51.998147	-2.981400	3.887600	-11.589000	21.264783	0.000937	20.830552
53.006841	-2.987200	3.887500	-11.611000	21.276933	0.000936	20.854086
54.004604	-2.985800	3.887800	-11.607000	21.255477	0.000938	20.833571
55.002761	-3.008800	3.884900	-11.688000	21.278871	0.000937	20.841327
56.002937	-2.997800	3.885600	-11.646000	21.284410	0.000937	20.833592
57.002799	-2.986000	3.886500	-11.604000	21.263280	0.000938	20.860342
58.000298	-3.006900	3.885600	-11.683000	21.292768	0.000938	20.858073
59.003941	-2.992700	3.884800	-11.625000	21.283858	0.000936	20.852954
60.012450	-2.982700	3.885000	-11.587000	21.300425	0.000935	20.844872
61.000675	-3.002400	3.883500	-11.658000	21.308132	0.000933	20.859694
62.006135	-3.003900	3.883200	-11.664000	21.311245	0.000936	20.850480
63.001739	-3.000700	3.882500	-11.649000	21.311570	0.000934	20.837056
64.000597	-3.028700	3.881600	-11.754000	21.320126	0.000934	20.840874
65.002518	-2.983800	3.883200	-11.585000	21.340456	0.000934	20.832764
66.002498	-3.009000	3.881300	-11.678000	21.364103	0.000935	20.845990
67.003928	-3.010500	3.883600	-11.691000	21.366221	0.000935	20.839575
68.006417	-3.022300	3.881400	-11.729000	21.381464	0.000935	20.846291
69.008317	-2.996300	3.881300	-11.628000	21.361082	0.000933	20.845339
70.004440	-2.991100	3.882000	-11.610000	21.374653	0.000933	20.847536
71.004185	-3.002300	3.880700	-11.650000	21.393457	0.000934	20.840272
72.007370	-2.983600	3.880500	-11.576000	21.397627	0.000934	20.836858
73.010321	-2.979800	3.880100	-11.561000	21.414482	0.000931	20.879798
74.004207	-2.998100	3.880000	-11.631000	21.414984	0.000933	20.845215
75.004327	-2.970300	3.880100	-11.524000	21.415483	0.000934	20.849981
76.005713	-2.999000	3.880000	-11.635000	21.401414	0.000932	20.852975
77.005635	-2.999100	3.879000	-11.632000	21.436108	0.000931	20.848807
78.007465	-2.994100	3.880300	-11.617000	21.443620	0.000934	20.856322
79.011410	-2.996400	3.879500	-11.623000	21.440302	0.000932	20.857744
80.008358	-2.999700	3.879300	-11.635000	21.438110	0.000932	20.847016
81.010886	-2.998200	3.879300	-11.629000	21.466741	0.000930	20.845318
82.010427	-2.992700	3.880000	-11.610000	21.474797	0.000932	20.858594
83.012967	-3.014700	3.876900	-11.687000	21.454894	0.000932	20.878507
84.013028	-3.006100	3.879300	-11.661000	21.476049	0.000933	20.843252
85.013581	-3.014700	3.878400	-11.691000	21.480409	0.000931	20.850459
86.012279	-3.005600	3.877700	-11.654000	21.505029	0.000932	20.852334
87.011382	-3.010700	3.876900	-11.672000	21.518145	0.000932	20.853131
88.010362	-3.012700	3.875800	-11.675000	21.511613	0.000933	20.859397
89.010165	-3.012900	3.876800	-11.679000	21.496651	0.000932	20.877141
90.010819	-2.994100	3.877700	-11.609000	21.489819	0.000932	20.841383
91.010780	-3.029700	3.876300	-11.743000	21.509994	0.000931	20.861095
92.013990	-3.007100	3.875500	-11.653000	21.530221	0.000934	20.855731
93.012351	-2.983000	3.876800	-11.562000	21.528199	0.000933	20.873621
94.015596	-3.011900	3.874900	-11.668000	21.509920	0.000933	20.864340
95.015772	-2.996700	3.876500	-11.616000	21.530773	0.000933	20.842533
96.011642	-3.027500	3.873300	-11.724000	21.565986	0.000933	20.853587
97.014786	-2.983800	3.875700	-11.562000	21.555066	0.000933	20.866841
98.014995	-3.008700	3.874000	-11.654000	21.555441	0.000932	20.842087
99.011829	-2.999500	3.874600	-11.621000	21.569826	0.000932	20.877817
100.017827	-2.999000	3.873400	-11.614000	21.555215	0.000932	20.860826
101.012643	-2.980200	3.874700	-11.546000	21.562697	0.000931	20.868313
102.019676	-2.975000	3.875000	-11.527000	21.571502	0.000932	20.867167
103.011145	-2.995500	3.872900	-11.601000	21.579013	0.000933	20.873734
104.016232	-3.023400	3.872500	-11.705000	21.585296	0.000933	20.886659
105.019293	-2.984400	3.875000	-11.564000	21.595943	0.000934	20.882615
106.012764	-2.991600	3.873000	-11.585000	21.597991	0.000932	20.871862
107.012822	-2.991600	3.874200	-11.589000	21.596792	0.000935	20.861654
108.018643	-2.973900	3.874200	-11.521000	21.606944	0.000933	20.863278
109.015588	-2.990800	3.871800	-11.579000	21.611756	0.000932	20.871887
110.021770	-3.012700	3.870500	-11.659000	21.613874	0.000934	20.855989
111.019948	-2.972800	3.872600	-11.511000	21.658565	0.000933	20.859460
112.016344	-2.998200	3.871600	-11.607000	21.644548	0.000934	20.880520
113.017671	-2.994800	3.874800	-11.603000	21.633499	0.000933	20.851920
114.017894	-2.957400	3.872100	-11.451000	21.653972	0.000934	20.868614
115.026135	-3.019900	3.871000	-11.689000	21.634570	0.000934	20.874328
116.016201	-2.976100	3.871400	-11.520000	21.674918	0.000935	20.884359
117.022104	-3.007500	3.870800	-11.640000	21.666990	0.000935	20.875478
118.016898	-2.980600	3.872300	-11.540000	21.678881	0.000934	20.864145
119.017411	-2.990400	3.871200	-11.575000	21.656935	0.000935	20.869682
120.017986	-2.995800	3.870300	-11.594000	21.694467	0.000936	20.884957
121.021035	-2.968500	3.870600	-11.489000	21.666884	0.000934	20.906664
122.021010	-3.005000	3.869400	-11.626000	21.700919	0.000937	20.884777
123.029299	-2.963100	3.871300	-11.470000	21.713909	0.000936	20.871225
124.018193	-2.978600	3.870100	-11.526000	21.736601	0.000936	20.884451
125.026700	-3.003900	3.869000	-11.621000	21.731934	0.000935	20.884048
126.027301	-2.992800	3.869700	-11.580000	21.746819	0.000938	20.893254
127.017898	-2.987400	3.869800	-11.559000	21.735098	0.000935	20.854026
128.023454	-2.997000	3.867900	-11.591000	21.747689	0.000937	20.881323
129.022677	-2.992800	3.868400	-11.576000	21.751677	0.000935	20.878203
130.019793	-3.000600	3.867200	-11.603000	21.770899	0.000938	20.909767
131.024760	-3.010400	3.867400	-11.642000	21.780173	0.000936	20.890126
132.024957	-3.006500	3.867700	-11.627000	21.780343	0.000937	20.883184
133.023157	-2.986900	3.868800	-11.553000	21.778745	0.000936	20.905765
134.030413	-3.023000	3.867300	-11.690000	21.799713	0.000937	20.888821
135.025310	-2.984700	3.868300	-11.544000	21.816467	0.000938	20.887098
136.020942	-2.990700	3.865700	-11.559000	21.798815	0.000937	20.898827
137.026651	-2.987700	3.867200	-11.554000	21.799961	0.000939	20.886224
138.029553	-2.994700	3.866400	-11.577000	21.803026	0.000937	20.895455
139.030742	-2.979900	3.867300	-11.522000	21.806165	0.000939	20.899071
140.026052	-2.994100	3.866500	-11.576000	21.826458	0.000938	20.910846
141.033467	-2.988200	3.866400	-11.552000	21.813169	0.000938	20.889012
142.023776	-3.010200	3.864700	-11.633000	21.841564	0.000938	20.896570
143.029459	-2.976200	3.866100	-11.505000	21.859014	0.000940	20.919249
144.027157	-3.024700	3.864300	-11.686000	21.866123	0.000942	20.913089
145.024230	-2.983700	3.864800	-11.531000	21.880533	0.000940	20.902383
146.032387	-2.992300	3.865000	-11.564000	21.909128	0.000941	20.898763
147.024878	-2.997300	3.864700	-11.583000	21.881427	0.000939	20.903278
148.025346	-3.013600	3.863500	-11.641000	21.892245	0.000940	20.920742
149.044197	-2.987800	3.864200	-11.545000	21.908029	0.000939	20.910464
150.027359	-2.994900	3.864500	-11.572000	21.903617	0.000939	20.896092
151.037345	-2.992400	3.864800	-11.563000	21.915057	0.000940	20.894740
152.028217	-2.983800	3.864400	-11.529000	21.933057	0.000941	20.923187
153.027999	-2.998400	3.862900	-11.582000	21.943004	0.000942	20.920816
154.029892	-3.015400	3.863700	-11.649000	21.936995	0.000942	20.920965
155.027699	-3.025400	3.862400	-11.685000	21.948066	0.000941	20.930150
156.030449	-2.981100	3.862500	-11.513000	21.958487	0.000942	20.900281
157.031984	-2.981800	3.864300	-11.522000	21.979551	0.000942	20.916150
158.043605	-2.990800	3.861600	-11.548000	21.973570	0.000943	20.890725
159.033432	-2.990400	3.863700	-11.553000	21.990598	0.000943	20.905397
160.033030	-2.994100	3.862200	-11.563000	21.995981	0.000943	20.928328
161.045105	-3.010800	3.860400	-11.621000	22.003114	0.000945	20.904651
162.032839	-3.006900	3.861700	-11.611000	21.986257	0.000944	20.925706
163.036259	-2.984200	3.861500	-11.522000	22.030356	0.000946	20.905843
164.037551	-3.014100	3.862400	-11.641000	22.014280	0.000948	20.924362
165.037045	-2.993300	3.861600	-11.558000	22.014729	0.000946	20.930026
166.038959	-3.002400	3.862900	-11.597000	22.033675	0.000947	20.909640
167.039557	-3.001500	3.861700	-11.590000	22.034124	0.000948	20.923838
168.036452	-3.007600	3.860600	-11.611000	22.038362	0.000947	20.911012
169.038961	-3.013800	3.860700	-11.635000	22.017571	0.000947	20.919596
170.040101	-3.019600	3.861100	-11.657000	22.020162	0.000947	20.916974
171.042596	-3.006900	3.861100	-11.609000	22.033626	0.000947	20.907219
172.040051	-2.984000	3.860700	-11.519000	22.028539	0.000947	20.906869
173.040740	-3.010400	3.860600	-11.621000	22.008070	0.000950	20.897284
174.044410	-3.006700	3.860200	-11.605000	22.047581	0.000949	20.926403
175.041338	-3.007300	3.859800	-11.606000	22.030727	0.000949	20.917119
176.041905	-3.002100	3.858500	-11.583000	22.042766	0.000949	20.892664
177.049489	-2.990100	3.859000	-11.537000	22.054187	0.000949	20.919741
178.040609	-2.987900	3.859700	-11.532000	22.062709	0.000949	20.934909
179.041654	-2.995900	3.859800	-11.562000	22.062384	0.000950	20.907085
180.045725	-2.994200	3.857700	-11.549000	22.067021	0.000950	20.900349
181.041599	-2.981400	3.857500	-11.500000	22.077087	0.000950	20.884349
182.043478	-3.000900	3.858300	-11.578000	22.078607	0.000948	20.912421
183.047510	-3.015600	3.857400	-11.632000	22.069485	0.000951	20.887643
184.047252	-2.991200	3.858900	-11.542000	22.080926	0.000950	20.894829
185.044948	-2.990300	3.858200	-11.536000	22.077635	0.000951	20.908129
186.043365	-2.980900	3.858300	-11.500000	22.104929	0.000954	20.894203
187.043586	-2.989900	3.856800	-11.530000	22.095258	0.000951	20.899220
188.043237	-3.001000	3.856800	-11.573000	22.099567	0.000954	20.898318
189.048073	-3.008200	3.857500	-11.603000	22.135211	0.000953	20.904131
190.043454	-3.011700	3.856200	-11.612000	22.127234	0.000955	20.902309
191.042288	-3.017300	3.856000	-11.633000	22.128676	0.000956	20.910864
192.046621	-3.007600	3.855900	-11.596000	22.140940	0.000954	20.882368
193.043866	-3.008300	3.856500	-11.600000	22.131168	0.000955	20.914781
194.046013	-3.012400	3.854500	-11.610000	22.153675	0.000957	20.882789
195.049127	-3.019400	3.856300	-11.642000	22.157188	0.000954	20.892944
196.046944	-2.995300	3.854700	-11.545000	22.175258	0.000957	20.896337
197.046986	-3.007000	3.854900	-11.591000	22.197291	0.000955	20.891369
198.048082	-3.004400	3.854500	-11.579000	22.198111	0.000957	20.867062
199.046781	-3.001600	3.853400	-11.565000	22.189491	0.000956	20.910111
200.047847	-3.016200	3.853700	-11.622000	22.210819	0.000957	20.888794
201.050217	-3.003800	3.854600	-11.577000	22.191254	0.000959	20.874421
202.048659	-3.000400	3.853800	-11.561000	22.203066	0.000959	20.884824
203.047885	-2.974800	3.854100	-11.463000	22.194792	0.000959	20.904988
204.051361	-2.999500	3.855200	-11.562000	22.220761	0.000957	20.873144
205.046037	-3.014400	3.853200	-11.615000	22.210565	0.000960	20.887591
206.046601	-3.000400	3.854400	-11.563000	22.210565	0.000962	20.882850
207.049478	-2.996400	3.853000	-11.543000	22.230303	0.000960	20.895499
208.054041	-3.013100	3.853200	-11.609000	22.205310	0.000960	20.889441
209.050817	-3.003400	3.853000	-11.571000	22.204059	0.000961	20.865905
210.048351	-2.988000	3.853500	-11.513000	22.236336	0.000963	20.860764
211.046977	-2.992700	3.852600	-11.528000	22.224868	0.000961	20.896695
212.052541	-2.985900	3.854100	-11.507000	22.222175	0.000960	20.882146
213.052502	-3.012500	3.851400	-11.601000	22.245782	0.000962	20.869274
214.063334	-2.983500	3.854700	-11.498000	22.257416	0.000962	20.878551
215.050195	-2.990400	3.852400	-11.520000	22.256896	0.000962	20.865229
216.056316	-3.014800	3.849800	-11.606000	22.268011	0.000964	20.867349
217.051927	-3.014100	3.851200	-11.607000	22.295625	0.000963	20.884566
218.052367	-2.986600	3.851200	-11.502000	22.290140	0.000964	20.874333
219.055621	-2.996500	3.851300	-11.539000	22.282214	0.000964	20.872087
220.059412	-2.996500	3.851400	-11.540000	22.281316	0.000962	20.869766
221.052814	-2.994200	3.852700	-11.535000	22.282291	0.000964	20.883543
222.051753	-2.997000	3.851000	-11.538000	22.271997	0.000965	20.872762
223.052773	-2.995300	3.849800	-11.530000	22.282365	0.000967	20.876980
224.057045	-3.002500	3.850400	-11.560000	22.286055	0.000966	20.845114
225.053534	-2.978800	3.849400	-11.466000	22.313718	0.000967	20.864752
226.054546	-3.006700	3.848800	-11.571000	22.300583	0.000968	20.865350
227.052724	-2.997000	3.849400	-11.536000	22.306042	0.000969	20.868920
228.055240	-2.992500	3.848700	-11.517000	22.333157	0.000968	20.857665
229.053470	-3.001500	3.849800	-11.554000	22.342627	0.000968	20.866673
230.055394	-3.006000	3.848100	-11.566000	22.328697	0.000970	20.876432
231.062575	-3.019800	3.848700	-11.621000	22.332482	0.000970	20.867420
232.056924	-2.998300	3.847700	-11.535000	22.351221	0.000970	20.883338
233.057871	-2.984800	3.847500	-11.483000	22.336768	0.000970	20.861755
234.058853	-3.000200	3.847800	-11.543000	22.341532	0.000970	20.866525
235.061989	-2.985500	3.848300	-11.488000	22.339761	0.000973	20.854321
236.064490	-3.000600	3.848500	-11.547000	22.344295	0.000971	20.859335
237.059773	-3.014600	3.847200	-11.596000	22.373250	0.000972	20.878371
238.061506	-2.978600	3.847900	-11.460000	22.378883	0.000972	20.857460
239.056695	-2.992300	3.845700	-11.507000	22.401458	0.000974	20.874376
240.060597	-3.005100	3.846700	-11.558000	22.402603	0.000973	20.851816
241.062232	-2.994600	3.845300	-11.515000	22.393780	0.000974	20.859576
242.060345	-3.011700	3.846900	-11.584000	22.403024	0.000974	20.859349
243.066297	-3.007000	3.845400	-11.562000	22.390763	0.000974	20.863666
244.063044	-2.999200	3.845400	-11.532000	22.385978	0.000974	20.843229
245.064229	-2.975900	3.846200	-11.445000	22.356148	0.000976	20.855556
246.062357	-3.001000	3.845100	-11.539000	22.362897	0.000975	20.860418
247.061656	-2.997200	3.846100	-11.527000	22.392477	0.000976	20.873917
248.062877	-2.984100	3.845500	-11.475000	22.389558	0.000977	20.870994
249.062093	-2.994000	3.843700	-11.506000	22.391229	0.000978	20.858918
250.062414	-2.983800	3.846200	-11.476000	22.401646	0.000979	20.863185
251.062860	-2.993200	3.844500	-11.507000	22.408894	0.000980	20.854322
252.062406	-3.019200	3.844200	-11.605000	22.406102	0.000979	20.852949
253.063422	-3.003900	3.845200	-11.549000	22.411728	0.000981	20.847203
254.063752	-3.015100	3.843400	-11.587000	22.433981	0.000979	20.841040
255.065341	-3.002700	3.843600	-11.541000	22.422593	0.000981	20.843860
256.063517	-3.016000	3.843600	-11.592000	22.413594	0.000980	20.832477
257.062258	-2.989600	3.844400	-11.492000	22.450373	0.000983	20.845601
258.064206	-3.007400	3.842500	-11.555000	22.452140	0.000982	20.849267
259.066006	-3.004100	3.842800	-11.543000	22.451295	0.000981	20.837042
260.064762	-3.006700	3.842500	-11.552000	22.452288	0.000984	20.843252
261.063348	-2.993000	3.843400	-11.501000	22.470026	0.000983	20.852006
262.066300	-3.022100	3.840300	-11.604000	22.473411	0.000981	20.849232
263.074369	-3.018800	3.840500	-11.592000	22.498504	0.000986	20.852551
264.066561	-2.977800	3.841900	-11.440000	22.505033	0.000984	20.842969
265.068685	-3.007200	3.841500	-11.551000	22.504133	0.000984	20.868618
266.065933	-3.014800	3.841400	-11.579000	22.489551	0.000986	20.844059
267.067584	-3.015800	3.840200	-11.581000	22.502310	0.000986	20.835500
268.067657	-3.010300	3.840700	-11.560000	22.483690	0.000985	20.859051
269.066774	-2.993000	3.841200	-11.495000	22.515015	0.000987	20.846327
270.067307	-3.010100	3.838900	-11.554000	22.479281	0.000987	20.838041
271.068048	-2.994800	3.840600	-11.501000	22.527067	0.000988	20.862190
272.066618	-3.011100	3.840900	-11.564000	22.540023	0.000988	20.837235
273.067433	-2.978800	3.840500	-11.440000	22.524400	0.000987	20.854777
274.068462	-2.989100	3.839300	-11.475000	22.521732	0.000988	20.831718
275.064809	-3.016500	3.839400	-11.580000	22.540843	0.000988	20.859866
276.066352	-3.004100	3.838100	-11.528000	22.554548	0.000990	20.854625
277.069434	-3.030100	3.837800	-11.626000	22.538649	0.000990	20.836332
278.066520	-3.014300	3.838700	-11.569000	22.547069	0.000992	20.852351
279.067198	-3.015900	3.838100	-11.575000	22.557035	0.000990	20.835781
280.072161	-2.995400	3.839800	-11.500000	22.548065	0.000990	20.844814
281.068422	-3.008800	3.839000	-11.549000	22.544652	0.000990	20.844241
282.067557	-3.009600	3.838400	-11.551000	22.553598	0.000993	20.824752
283.068021	-3.013000	3.837700	-11.562000	22.562642	0.000993	20.852301
284.070846	-3.009500	3.836800	-11.546000	22.548514	0.000992	20.825824
285.068491	-2.999300	3.838200	-11.510000	22.567404	0.000993	20.839053
286.080473	-2.997200	3.837500	-11.500000	22.582158	0.000993	20.822536
287.071349	-2.996500	3.837400	-11.498000	22.591301	0.000996	20.847340
288.069657	-3.014600	3.836600	-11.565000	22.593046	0.000995	20.825855
289.073959	-2.990000	3.836700	-11.471000	22.614374	0.000995	20.841527
290.070254	-3.013500	3.836700	-11.561000	22.615692	0.000996	20.822459
291.070065	-3.013700	3.835800	-11.558000	22.600476	0.000997	20.846572
292.075608	-2.993000	3.836100	-11.480000	22.587715	0.000997	20.817671
293.071212	-3.002000	3.836100	-11.515000	22.605033	0.000998	20.823636
294.072984	-3.015200	3.835900	-11.565000	22.622549	0.000999	20.817473
295.074214	-3.005200	3.836200	-11.527000	22.624789	0.000998	20.826354
296.076954	-3.012700	3.836300	-11.556000	22.628576	0.001001	20.844845
297.077099	-3.005800	3.836800	-11.531000	22.623221	0.000999	20.837585
298.078804	-2.994300	3.834700	-11.481000	22.655835	0.001002	20.825208
299.077025	-2.998100	3.834700	-11.496000	22.649331	0.001000	20.831021
300.074694	-2.990600	3.835400	-11.467000	22.629050	0.001001	20.813078
301.079345	-2.997400	3.835000	-11.494000	22.635126	0.001001	20.824380
302.076702	-2.975900	3.833200	-11.406000	22.654115	0.001000	20.822062
303.077498	-3.011500	3.833500	-11.543000	22.666691	0.001004	20.834185
304.077510	-2.998700	3.833200	-11.492000	22.673566	0.001002	20.827321
305.075413	-2.988900	3.832500	-11.453000	22.688191	0.001004	20.804986
306.074346	-2.990100	3.833700	-11.462000	22.688661	0.001004	20.812095
307.078343	-3.002200	3.833200	-11.507000	22.691579	0.001006	20.830664
308.075191	-2.995700	3.831100	-11.475000	22.716039	0.001007	20.819130
309.078569	-3.012700	3.831400	-11.542000	22.725729	0.001006	20.808921
310.081556	-3.008000	3.830300	-11.520000	22.718406	0.001006	20.819130
311.075459	-2.997500	3.832500	-11.487000	22.750541	0.001005	20.792524
312.078753	-3.009100	3.830700	-11.526000	22.746998	0.001006	20.798933
313.081950	-3.011100	3.831300	-11.535000	22.750287	0.001007	20.800805
314.075481	-2.981700	3.831500	-11.423000	22.777292	0.001008	20.831649
315.078473	-3.005900	3.830600	-11.513000	22.779952	0.001008	20.813926
316.081589	-3.005700	3.831000	-11.514000	22.798938	0.001010	20.811134
317.079492	-3.015800	3.830000	-11.548000	22.792082	0.001008	20.815171
318.080251	-3.003600	3.830500	-11.504000	22.794000	0.001010	20.820412
319.079800	-3.006400	3.829200	-11.511000	22.803287	0.001011	20.811697
320.080169	-2.996000	3.828700	-11.470000	22.810786	0.001011	20.830114
321.078457	-2.988400	3.829400	-11.444000	22.799571	0.001009	20.821251
322.081954	-3.007300	3.828000	-11.511000	22.801588	0.001013	20.828487
323.083768	-2.993700	3.830400	-11.465000	22.799970	0.001012	20.812642
324.082942	-2.991800	3.828700	-11.453000	22.789254	0.001012	20.812812
325.083357	-3.000400	3.829800	-11.490000	22.805047	0.001013	20.831003
326.082858	-2.996500	3.826900	-11.465000	22.830754	0.001013	20.788953
327.084991	-2.989400	3.828800	-11.445000	22.829133	0.001012	20.806769
328.085204	-2.989800	3.829100	-11.448000	22.820112	0.001015	20.827129
329.082754	-2.996300	3.827800	-11.468000	22.831567	0.001014	20.817268
330.084529	-2.983700	3.828900	-11.424000	22.823998	0.001017	20.824384
331.082987	-2.995000	3.827700	-11.463000	22.851121	0.001015	20.818365
332.089312	-2.991100	3.827900	-11.449000	22.872194	0.001016	20.809130
333.080599	-2.990100	3.826500	-11.440000	22.874610	0.001016	20.831464
334.086687	-2.995500	3.827000	-11.463000	22.864572	0.001017	20.812400
335.084268	-2.974100	3.827000	-11.380000	22.878393	0.001015	20.821504
336.088376	-2.993200	3.825500	-11.449000	22.888505	0.001017	20.804134
337.088166	-3.007500	3.825300	-11.504000	22.898066	0.001020	20.815136
338.083803	-2.988700	3.826600	-11.435000	22.897046	0.001018	20.824544
339.085566	-3.004500	3.825400	-11.493000	22.898911	0.001020	20.810766
340.087714	-3.003700	3.826100	-11.490000	22.901153	0.001018	20.815383
341.088672	-2.980800	3.825300	-11.402000	22.896544	0.001019	20.828309
342.085681	-2.999400	3.824700	-11.471000	22.913558	0.001021	20.812164
343.088692	-2.995100	3.823900	-11.452000	22.920378	0.001020	20.809988
344.088679	-3.000600	3.823300	-11.472000	22.919460	0.001022	20.823292
345.086402	-2.997100	3.825300	-11.463000	22.923444	0.001022	20.818749
346.092665	-3.000300	3.823300	-11.469000	22.924461	0.001022	20.799380
347.092994	-3.007700	3.823200	-11.498000	22.924910	0.001023	20.800303
348.095387	-2.982100	3.824000	-11.402000	22.919351	0.001023	20.795683
349.091260	-2.989800	3.823700	-11.430000	22.915367	0.001026	20.824881
350.092552	-3.021200	3.822900	-11.548000	22.923236	0.001025	20.800049
351.090916	-2.996800	3.822800	-11.454000	22.898252	0.001026	20.817692
352.095789	-2.994700	3.822200	-11.445000	22.923759	0.001025	20.794409
353.094051	-2.982200	3.822500	-11.398000	22.935291	0.001026	20.798376
354.091844	-3.002900	3.821900	-11.476000	22.917006	0.001025	20.815618
355.093642	-3.004800	3.822900	-11.485000	22.956009	0.001027	20.800167
356.094636	-2.987600	3.820800	-11.414000	22.939769	0.001027	20.785319
357.092070	-2.971600	3.821700	-11.355000	22.948935	0.001027	20.814416
358.096428	-2.990200	3.822400	-11.428000	22.970828	0.001027	20.812169
359.095198	-3.000900	3.820200	-11.463000	22.975786	0.001028	20.798171
360.094561	-3.009500	3.820100	-11.494000	22.978746	0.001030	20.796869
361.097201	-3.009800	3.819300	-11.495000	23.004252	0.001026	20.801561
362.093724	-2.993100	3.820500	-11.433000	23.002059	0.001030	20.806476
363.092342	-3.000400	3.820500	-11.462000	23.014187	0.001030	20.808196
364.098565	-3.034100	3.820200	-11.590000	22.999442	0.001029	20.807648
365.094508	-2.999500	3.820700	-11.459000	23.004895	0.001031	20.790826
366.093035	-3.027700	3.817500	-11.557000	23.000639	0.001032	20.804580
367.096841	-2.990500	3.818900	-11.418000	22.991573	0.001032	20.813514
368.093453	-2.982000	3.819900	-11.389000	23.008956	0.001032	20.814335
369.093526	-3.012000	3.817200	-11.495000	23.022903	0.001032	20.789428
370.096541	-3.008000	3.818500	-11.485000	23.022429	0.001034	20.798437
371.095181	-2.999800	3.819100	-11.456000	23.032015	0.001033	20.780540
372.096505	-3.011600	3.816900	-11.493000	23.019089	0.001034	20.792245
373.099090	-2.990700	3.817300	-11.416000	23.002699	0.001036	20.777720
374.099903	-2.990700	3.817300	-11.416000	22.993259	0.001035	20.778693
375.099542	-2.994200	3.818400	-11.432000	22.986358	0.001034	20.786004
376.100822	-3.003500	3.817500	-11.465000	22.982445	0.001035	20.779238
377.099124	-2.999700	3.815600	-11.444000	22.977936	0.001036	20.798428
378.098476	-3.004800	3.816300	-11.466000	22.987849	0.001036	20.787971
379.116114	-2.997400	3.815300	-11.435000	23.013927	0.001037	20.783754
380.103662	-2.989400	3.816000	-11.406000	23.016791	0.001036	20.781882
381.099794	-3.004000	3.814100	-11.457000	23.031130	0.001035	20.771593
382.102906	-2.995100	3.816300	-11.430000	23.026100	0.001037	20.785994
383.103601	-3.000700	3.814500	-11.446000	23.038380	0.001038	20.793556
384.100817	-3.011000	3.814800	-11.485000	23.059572	0.001037	20.750305
385.107522	-2.989500	3.814300	-11.402000	23.062684	0.001038	20.781872
386.102400	-2.989800	3.814600	-11.404000	23.052969	0.001040	20.776880
387.106582	-2.990700	3.814600	-11.407000	23.055159	0.001039	20.791402
388.108893	-3.005700	3.812800	-11.459000	23.054407	0.001041	20.789700
389.108726	-3.003800	3.814300	-11.457000	23.036675	0.001038	20.772408
390.105041	-3.031100	3.812100	-11.553000	23.042577	0.001040	20.773579
391.109200	-2.985200	3.814200	-11.385000	23.030594	0.001041	20.778169
392.108493	-3.010400	3.813100	-11.477000	23.044865	0.001041	20.804796
393.105165	-2.988500	3.813000	-11.394000	23.045660	0.001043	20.777617
394.108628	-3.002200	3.811900	-11.443000	23.052458	0.001042	20.804343
395.107113	-2.994100	3.812100	-11.412000	23.069618	0.001043	20.792139
396.107986	-3.015100	3.812500	-11.492000	23.098335	0.001041	20.791516
397.108051	-3.008400	3.810800	-11.464000	23.109636	0.001041	20.778184
398.111426	-2.998100	3.810900	-11.425000	23.102810	0.001044	20.795052
399.107810	-2.997500	3.811500	-11.423000	23.119968	0.001043	20.773365
400.107518	-2.994800	3.811300	-11.414000	23.130774	0.001043	20.778503
401.110273	-2.999200	3.810500	-11.427000	23.119492	0.001043	20.779052
402.109254	-2.980200	3.810000	-11.353000	23.120664	0.001045	20.780226
403.114390	-3.012200	3.809900	-11.475000	23.127610	0.001044	20.786713
404.108505	-3.010000	3.808700	-11.464000	23.124570	0.001046	20.774183
405.112198	-3.002600	3.809900	-11.438000	23.140560	0.001045	20.791154
406.111666	-3.007400	3.808800	-11.453000	23.114556	0.001047	20.787382
407.112482	-2.988400	3.810800	-11.387000	23.125764	0.001046	20.785811
408.111906	-3.015000	3.809100	-11.484000	23.129154	0.001046	20.768819
409.118294	-2.999600	3.808400	-11.423000	23.142251	0.001047	20.785737
410.114602	-2.992600	3.808300	-11.396000	23.140980	0.001046	20.772609
411.112968	-2.998200	3.808900	-11.417000	23.142650	0.001044	20.782817
412.116498	-2.993100	3.806400	-11.393000	23.175175	0.001047	20.787435
413.116059	-2.989700	3.807800	-11.383000	23.159214	0.001049	20.774760
414.116762	-3.001100	3.807000	-11.425000	23.172191	0.001049	20.780177
415.116846	-3.002700	3.806900	-11.430000	23.184267	0.001048	20.775683
416.114079	-3.001300	3.805500	-11.421000	23.164568	0.001050	20.769693
417.114079	-2.994000	3.805100	-11.391000	23.187929	0.001048	20.795474
418.114551	-2.960900	3.807300	-11.271000	23.198688	0.001049	20.776384
419.116105	-2.997100	3.806000	-11.406000	23.209150	0.001049	20.784497
420.117181	-3.009400	3.806400	-11.454000	23.234647	0.001050	20.785867
421.115746	-3.018500	3.805100	-11.484000	23.251061	0.001049	20.791885
422.115883	-3.013900	3.804700	-11.466000	23.230191	0.001049	20.775711
423.118473	-2.996400	3.803800	-11.395000	23.208104	0.001050	20.780130
424.117212	-3.008300	3.803500	-11.442000	23.230692	0.001051	20.792809
425.117868	-2.988500	3.804100	-11.368000	23.215180	0.001051	20.769677
426.119307	-3.012400	3.802400	-11.453000	23.221755	0.001053	20.772473
427.123837	-3.014600	3.804700	-11.468000	23.220134	0.001053	20.786496
428.117579	-2.989900	3.803800	-11.371000	23.224318	0.001052	20.788318
429.114707	-3.020900	3.803000	-11.486000	23.213912	0.001052	20.777890
430.119713	-3.007100	3.802300	-11.433000	23.217994	0.001053	20.780558
431.117182	-3.004300	3.802900	-11.424000	23.234579	0.001053	20.785324
432.116400	-2.990500	3.802400	-11.369000	23.222027	0.001055	20.767055
433.122591	-2.991700	3.801400	-11.372000	23.236246	0.001055	20.788891
434.118433	-2.992300	3.802200	-11.376000	23.245829	0.001057	20.790435
435.121387	-3.003700	3.801800	-11.419000	23.267247	0.001056	20.792933
436.122826	-3.007800	3.801600	-11.434000	23.279597	0.001056	20.787292
437.123424	-3.020100	3.800300	-11.476000	23.270831	0.001055	20.773765
438.120026	-3.009800	3.800000	-11.436000	23.289752	0.001058	20.776607
439.123349	-3.010400	3.799400	-11.436000	23.282155	0.001056	20.802183
440.123910	-3.002600	3.800100	-11.410000	23.265326	0.001056	20.778680
441.118011	-2.984700	3.800900	-11.343000	23.270104	0.001059	20.784891
442.125217	-3.009600	3.799000	-11.432000	23.289227	0.001059	20.793624
443.124422	-3.013000	3.798700	-11.444000	23.309045	0.001057	20.801157
444.121642	-3.023400	3.798200	-11.482000	23.294428	0.001058	20.767068
445.127581	-3.009800	3.799300	-11.433000	23.287854	0.001060	20.785609
446.121776	-3.013000	3.797800	-11.442000	23.281428	0.001058	20.786756
447.131738	-2.989000	3.798800	-11.354000	23.286632	0.001058	20.812360
448.123983	-2.982800	3.798000	-11.327000	23.281054	0.001059	20.799657
449.122494	-2.994900	3.797900	-11.373000	23.296936	0.001060	20.801824
450.124512	-3.007900	3.797200	-11.420000	23.296858	0.001059	20.791315
451.126650	-3.014700	3.796200	-11.443000	23.324323	0.001061	20.811254
452.127642	-2.986300	3.797000	-11.337000	23.317078	0.001061	20.796881
453.124198	-2.996400	3.797400	-11.378000	23.304502	0.001062	20.783329
454.126071	-2.982800	3.797900	-11.327000	23.302508	0.001061	20.785123
455.126419	-2.974600	3.796600	-11.293000	23.281864	0.001060	20.820384
456.127690	-3.024900	3.794500	-11.476000	23.278203	0.001063	20.790162
457.128355	-3.012300	3.795000	-11.431000	23.277006	0.001064	20.787540
458.126014	-2.995200	3.795700	-11.368000	23.320059	0.001063	20.796549
459.126074	-3.007300	3.793300	-11.406000	23.327353	0.001060	20.801489
460.129660	-3.000700	3.793900	-11.383000	23.342687	0.001063	20.791727
461.132646	-2.985200	3.793600	-11.323000	23.342740	0.001064	20.792254
462.129201	-3.006400	3.793700	-11.404000	23.334292	0.001063	20.820771
463.134774	-3.012300	3.793200	-11.425000	23.342063	0.001065	20.781618
464.132177	-3.009300	3.792000	-11.410000	23.334617	0.001065	20.803079
465.126027	-3.003600	3.792400	-11.390000	23.345545	0.001066	20.806919
466.128853	-3.011000	3.792700	-11.418000	23.365315	0.001066	20.793069
467.127605	-3.002100	3.793100	-11.386000	23.366060	0.001066	20.792393
468.132182	-3.019800	3.791200	-11.447000	23.380550	0.001065	20.793165
469.126551	-3.027600	3.790800	-11.476000	23.373552	0.001066	20.806541
470.130283	-3.012400	3.791100	-11.419000	23.382290	0.001066	20.811979
471.136396	-2.959500	3.791800	-11.220000	23.403974	0.001067	20.816169
472.132182	-2.989400	3.790300	-11.330000	23.440545	0.001067	20.793556
473.132782	-2.993000	3.790100	-11.343000	23.429792	0.001068	20.798424
474.132285	-2.983700	3.791000	-11.311000	23.410019	0.001067	20.792831
475.129991	-2.987300	3.790400	-11.322000	23.421422	0.001067	20.800467
476.131263	-3.013300	3.789000	-11.417000	23.417610	0.001069	20.814663
477.129551	-2.995700	3.790800	-11.355000	23.423485	0.001069	20.821500
478.130710	-2.967200	3.789900	-11.244000	23.376153	0.001068	20.813889
479.134642	-2.974800	3.790500	-11.275000	23.389770	0.001068	20.798139
480.129458	-3.001100	3.788200	-11.368000	23.404658	0.001069	20.814484
481.131643	-2.996900	3.788800	-11.353000	23.394572	0.001068	20.805797
482.134002	-3.013800	3.787900	-11.415000	23.398131	0.001067	20.831649
483.138843	-2.999400	3.790400	-11.368000	23.389690	0.001068	20.823189
484.133477	-3.019100	3.787900	-11.435000	23.438063	0.001070	20.814301
485.132190	-3.012300	3.787800	-11.408000	23.433456	0.001069	20.817270
486.133457	-2.996200	3.788400	-11.350000	23.453445	0.001069	20.812649
487.140826	-2.991200	3.787700	-11.329000	23.455785	0.001069	20.815470
488.132944	-2.961100	3.787900	-11.216000	23.466913	0.001071	20.826623
489.131595	-2.991600	3.786200	-11.325000	23.468004	0.001072	20.818234
490.136119	-2.991500	3.786700	-11.327000	23.475122	0.001069	20.826790
491.135258	-2.998400	3.785600	-11.349000	23.503828	0.001070	20.825219
492.132753	-2.980600	3.787200	-11.287000	23.515227	0.001072	20.820524
493.133528	-2.978400	3.786300	-11.277000	23.495357	0.001071	20.824789
494.136361	-2.999800	3.785400	-11.354000	23.497970	0.001072	20.824562
495.133794	-3.010600	3.783700	-11.391000	23.483031	0.001073	20.820968
496.135530	-3.009300	3.784300	-11.387000	23.502097	0.001073	20.837708
497.135130	-2.994300	3.783800	-11.329000	23.535184	0.001073	20.840054
498.135054	-2.997200	3.784300	-11.342000	23.516681	0.001072	20.804912
499.136507	-3.013400	3.781500	-11.394000	23.524026	0.001072	20.819388
500.140497	-2.988900	3.782400	-11.304000	23.535747	0.001070	20.850576
501.135727	-3.007300	3.782200	-11.372000	23.485331	0.001072	20.833705
502.135185	-2.992100	3.783100	-11.317000	23.478561	0.001073	20.834505
503.142866	-3.005900	3.780900	-11.364000	23.514931	0.001073	20.820702
504.136189	-3.012500	3.781200	-11.390000	23.518143	0.001072	20.799266
505.142519	-3.014400	3.781000	-11.397000	23.531085	0.001072	20.816506
506.141266	-3.008000	3.780100	-11.369000	23.552618	0.001072	20.817228
507.141589	-2.996400	3.781200	-11.329000	23.565785	0.001074	20.832798
508.134758	-3.005900	3.779600	-11.360000	23.585499	0.001072	20.841180
509.141511	-2.998100	3.780800	-11.334000	23.598817	0.001074	20.859746
510.139297	-3.009100	3.777500	-11.365000	23.569865	0.001075	20.844000
511.137921	-2.993800	3.779000	-11.312000	23.551014	0.001073	20.842172
512.138047	-3.005100	3.779200	-11.356000	23.546633	0.001074	20.843945
513.141640	-2.979500	3.780300	-11.262000	23.548673	0.001073	20.839352
514.138105	-2.982200	3.779700	-11.270000	23.558551	0.001074	20.846409
515.140326	-3.010600	3.777800	-11.372000	23.552804	0.001075	20.852975
516.141188	-2.988900	3.778100	-11.292000	23.565668	0.001074	20.834103
517.139510	-3.011600	3.776800	-11.374000	23.544856	0.001075	20.840267
518.140592	-2.983100	3.778500	-11.271000	23.529494	0.001074	20.840515
519.139281	-2.995900	3.776400	-11.313000	23.553293	0.001075	20.846353
520.138260	-3.021300	3.775100	-11.405000	23.551420	0.001076	20.838312
521.147223	-3.014200	3.777200	-11.384000	23.551868	0.001076	20.835442
522.141546	-2.987700	3.776600	-11.282000	23.563869	0.001077	20.840360
523.138532	-2.992800	3.777100	-11.303000	23.570365	0.001077	20.834544
524.143422	-3.002500	3.775500	-11.333000	23.582115	0.001074	20.844900
525.140183	-2.997200	3.774400	-11.312000	23.606707	0.001075	20.839208
526.137013	-2.989500	3.775000	-11.285000	23.637198	0.001079	20.838006
527.143486	-3.011400	3.774600	-11.365000	23.609391	0.001077	20.851381
528.141420	-2.984000	3.776100	-11.267000	23.621262	0.001076	20.864229
529.140286	-2.986100	3.775100	-11.272000	23.606597	0.001077	20.843838
530.144346	-3.011800	3.774700	-11.368000	23.624969	0.001080	20.862255
531.142529	-3.008500	3.773800	-11.352000	23.634051	0.001076	20.861403
532.141308	-3.010400	3.772900	-11.356000	23.623225	0.001077	20.856714
533.146613	-3.015000	3.773600	-11.376000	23.623170	0.001079	20.852866
534.143904	-3.036300	3.772100	-11.451000	23.637235	0.001077	20.881664
535.146972	-3.005900	3.773200	-11.341000	23.630784	0.001076	20.854335
536.148087	-3.004300	3.773000	-11.334000	23.621894	0.001076	20.850164
537.144066	-2.982700	3.774000	-11.257000	23.633768	0.001078	20.882929
538.140930	-3.000400	3.772300	-11.318000	23.642974	0.001077	20.867029
539.147315	-2.994800	3.771600	-11.293000	23.605956	0.001077	20.834187
540.146900	-3.013800	3.771300	-11.365000	23.593009	0.001079	20.876682
541.143112	-3.015200	3.769000	-11.363000	23.593529	0.001076	20.851600
542.145411	-2.991700	3.771600	-11.282000	23.616831	0.001080	20.860735
543.150843	-2.990200	3.770400	-11.274000	23.642292	0.001078	20.879620
544.145234	-2.998600	3.771100	-11.306000	23.646400	0.001078	20.867144
545.146456	-3.002200	3.770700	-11.319000	23.666237	0.001078	20.862849
546.145364	-3.001900	3.770200	-11.317000	23.672830	0.001078	20.880364
547.146868	-2.997200	3.769300	-11.297000	23.688262	0.001077	20.885877
548.147273	-2.979800	3.768600	-11.229000	23.709841	0.001079	20.882856
549.145641	-2.993800	3.767100	-11.276000	23.697495	0.001078	20.850092
550.146677	-3.002600	3.767800	-11.312000	23.694308	0.001079	20.879138
551.145388	-3.006800	3.768300	-11.330000	23.715689	0.001078	20.874970
552.145334	-2.986500	3.768700	-11.254000	23.699807	0.001077	20.875642
553.148648	-2.988900	3.768200	-11.262000	23.729701	0.001079	20.891862
554.146114	-2.995900	3.767100	-11.285000	23.752973	0.001078	20.899547
555.148080	-3.007900	3.765900	-11.327000	23.764543	0.001080	20.880328
556.148164	-2.984400	3.767400	-11.242000	23.744931	0.001078	20.878683
557.145706	-3.011400	3.765900	-11.340000	23.768599	0.001077	20.877756
558.146396	-2.978500	3.766200	-11.216000	23.756402	0.001079	20.886390
559.146351	-3.007700	3.765900	-11.326000	23.767029	0.001078	20.863381
560.146063	-2.983100	3.766500	-11.235000	23.775863	0.001079	20.875083
561.147446	-2.987000	3.764800	-11.244000	23.791892	0.001077	20.884515
562.146764	-2.989300	3.765200	-11.254000	23.800528	0.001077	20.881321
563.146230	-2.997400	3.765300	-11.285000	23.769316	0.001078	20.896018
564.144778	-2.999000	3.763000	-11.284000	23.783877	0.001076	20.906823
565.146050	-2.972200	3.766300	-11.193000	23.765533	0.001080	20.889855
566.154524	-2.990200	3.764900	-11.257000	23.784823	0.001078	20.872213
567.145869	-3.005800	3.763600	-11.311000	23.814514	0.001077	20.885861
568.149913	-2.980000	3.763400	-11.214000	23.798735	0.001078	20.886161
569.148029	-3.029400	3.762500	-11.397000	23.814115	0.001077	20.907744
570.148315	-3.005200	3.762100	-11.305000	23.830193	0.001080	20.902055
571.149003	-2.993600	3.761000	-11.259000	23.804954	0.001080	20.905197
572.152027	-3.023900	3.762300	-11.376000	23.786937	0.001077	20.899935
573.158804	-3.005000	3.761100	-11.300000	23.806549	0.001077	20.894469
574.154772	-3.003200	3.760500	-11.292000	23.754681	0.001078	20.886561
575.148516	-3.014500	3.760400	-11.334000	23.781142	0.001079	20.889857
576.152770	-3.004500	3.761100	-11.300000	23.809986	0.001078	20.906449
577.150105	-2.995300	3.761400	-11.266000	23.808017	0.001077	20.922017
578.153142	-3.012700	3.759600	-11.326000	23.814118	0.001079	20.893998
579.157214	-2.988600	3.759600	-11.235000	23.832462	0.001079	20.893898
580.155183	-3.007200	3.760100	-11.306000	23.830224	0.001078	20.895922
581.153185	-2.999700	3.758200	-11.272000	23.814019	0.001078	20.905751
582.156338	-3.009600	3.758900	-11.312000	23.827634	0.001078	20.894273
583.154695	-3.000700	3.758400	-11.277000	23.805807	0.001077	20.883768
584.152605	-3.010300	3.758500	-11.313000	23.846376	0.001079	20.915435
585.158088	-3.012800	3.757100	-11.319000	23.826490	0.001076	20.904979
586.153509	-3.003900	3.758600	-11.290000	23.830345	0.001077	20.883716
587.153381	-3.012600	3.757000	-11.317000	23.833231	0.001079	20.909842
588.155736	-3.012800	3.756700	-11.317000	23.828728	0.001076	20.904379
589.156959	-2.978900	3.756700	-11.190000	23.828753	0.001077	20.887335
590.157498	-2.999900	3.754400	-11.261000	23.807720	0.001077	20.913659
591.158349	-2.988900	3.756100	-11.225000	23.811503	0.001076	20.898962
592.158196	-2.998900	3.754900	-11.258000	23.790297	0.001078	20.905674
593.156350	-2.989500	3.755300	-11.225000	23.810434	0.001077	20.901683
594.160090	-3.003800	3.755500	-11.280000	23.805207	0.001077	20.905925
595.162325	-3.007100	3.755000	-11.290000	23.826663	0.001077	20.913687
596.156126	-3.001200	3.754200	-11.266000	23.820637	0.001079	20.911912
597.159868	-2.977900	3.755700	-11.183000	23.833531	0.001079	20.913935
598.157356	-2.984900	3.755100	-11.207000	23.865161	0.001076	20.929054
599.160309	-2.983300	3.754100	-11.198000	23.887884	0.001078	20.909166
600.160674	-3.003000	3.753600	-11.271000	23.896148	0.001079	20.910341
601.159376	-2.998400	3.752900	-11.251000	23.883556	0.001079	20.927585
602.158627	-2.988400	3.751500	-11.209000	23.898638	0.001077	20.919476
603.161740	-3.008000	3.750400	-11.280000	23.915488	0.001077	20.916457
604.159657	-2.981700	3.752300	-11.187000	23.921956	0.001077	20.918202
605.159741	-2.986700	3.751200	-11.203000	23.929472	0.001076	20.912937
606.162868	-3.003000	3.750700	-11.262000	23.937338	0.001078	20.917031
607.166226	-2.972400	3.751400	-11.150000	23.949604	0.001077	20.919848
608.161959	-3.006200	3.751100	-11.274000	23.938756	0.001076	20.909919
609.162479	-2.996100	3.749700	-11.234000	23.971629	0.001077	20.927235
610.159503	-2.991000	3.749600	-11.214000	23.937959	0.001076	20.931402
611.159562	-2.986900	3.749400	-11.198000	23.948584	0.001079	20.940634
612.162173	-2.994400	3.750200	-11.228000	23.973842	0.001077	20.917601
613.161166	-2.995800	3.750300	-11.234000	23.976904	0.001077	20.931576
614.160587	-2.993000	3.750200	-11.222000	23.982251	0.001078	20.923662
615.163455	-3.003600	3.748400	-11.257000	23.985063	0.001076	20.933120
616.165207	-3.000200	3.748500	-11.246000	23.971447	0.001078	20.934638
617.163306	-3.010900	3.748000	-11.284000	23.978443	0.001076	20.924112
618.163037	-2.999700	3.748100	-11.242000	23.971299	0.001078	20.925482
619.162601	-3.004500	3.747400	-11.257000	23.977322	0.001076	20.931047
620.165188	-3.008700	3.745100	-11.267000	23.968929	0.001078	20.927847
621.165919	-3.006800	3.747700	-11.267000	23.964674	0.001077	20.923580
622.165603	-3.017100	3.746300	-11.302000	23.973011	0.001077	20.927673
623.161605	-2.984500	3.747000	-11.183000	23.974350	0.001077	20.930912
624.166908	-2.993800	3.746800	-11.215000	23.971389	0.001077	20.941692
625.170586	-3.010700	3.744900	-11.274000	23.966884	0.001077	20.940019
626.166144	-2.991600	3.744800	-11.201000	23.991869	0.001077	20.929988
627.169111	-3.017300	3.744600	-11.298000	23.971983	0.001079	20.930435
628.164093	-2.982700	3.744400	-11.168000	24.003885	0.001078	20.940140
629.164053	-2.984400	3.746400	-11.179000	23.985244	0.001075	20.933301
630.164550	-2.978800	3.745200	-11.155000	24.022247	0.001077	20.948122
631.165026	-3.003800	3.743200	-11.243000	23.981407	0.001078	20.950788
632.164440	-2.974600	3.744300	-11.135000	23.979667	0.001076	20.933398
633.163633	-2.993300	3.744200	-11.205000	24.006815	0.001076	20.969153
634.167823	-2.973000	3.743400	-11.129000	24.010072	0.001075	20.941130
635.171955	-2.997300	3.743600	-11.219000	24.003876	0.001077	20.965733
636.166131	-3.005200	3.742800	-11.246000	24.018583	0.001079	20.929277
637.166175	-3.008100	3.742700	-11.257000	24.037368	0.001074	20.950011
638.165883	-3.006500	3.741100	-11.246000	24.036052	0.001075	20.953905
639.164607	-3.003300	3.742300	-11.238000	24.039556	0.001077	20.947938
640.165030	-3.021900	3.741100	-11.304000	24.029603	0.001074	20.933690
641.165325	-3.013300	3.740700	-11.270000	24.062946	0.001075	20.942946
642.164643	-3.014900	3.740700	-11.277000	24.059438	0.001076	20.949385
643.165477	-2.995100	3.740600	-11.202000	24.058740	0.001074	20.936358
644.164501	-2.991200	3.739900	-11.186000	24.073644	0.001074	20.936132
645.166580	-2.993100	3.740700	-11.196000	24.080810	0.001075	20.947111
646.166742	-3.014400	3.739000	-11.270000	24.086733	0.001076	20.944991
647.170470	-3.011100	3.738200	-11.256000	24.082725	0.001077	20.908259
648.165554	-3.009400	3.738800	-11.251000	24.106735	0.001077	20.937078
649.167338	-3.003900	3.739500	-11.232000	24.111614	0.001075	20.945289
650.169230	-3.007300	3.737900	-11.240000	24.105564	0.001075	20.930214
651.169712	-2.978000	3.738200	-11.130000	24.109148	0.001074	20.946609
652.167655	-2.999800	3.736800	-11.209000	24.085661	0.001075	20.933960
653.168392	-3.005400	3.737200	-11.230000	24.082324	0.001074	20.941992
654.169172	-3.007100	3.736900	-11.236000	24.073339	0.001074	20.931559
655.175271	-3.015300	3.736600	-11.265000	24.069284	0.001073	20.941243
656.171473	-3.001700	3.737000	-11.216000	24.042957	0.001073	20.931910
657.169305	-3.002300	3.736500	-11.217000	24.022079	0.001072	20.922353
658.168842	-2.998300	3.735600	-11.200000	24.020012	0.001074	20.924073
659.168724	-3.013100	3.735700	-11.255000	24.000427	0.001075	20.939043
660.170552	-2.998000	3.735000	-11.197000	24.007571	0.001073	20.932458
661.169624	-2.990700	3.736600	-11.174000	24.033451	0.001072	20.917163
662.169316	-2.994300	3.734900	-11.182000	24.020361	0.001075	20.930112
663.172269	-2.979000	3.736100	-11.129000	23.999880	0.001075	20.936598
664.171607	-2.982600	3.734300	-11.136000	24.010430	0.001073	20.914464
665.174650	-2.990600	3.735100	-11.169000	23.973179	0.001072	20.917885
666.171371	-3.002500	3.734100	-11.210000	23.997689	0.001072	20.909274
667.175091	-3.002300	3.732700	-11.206000	23.983776	0.001073	20.909547
668.174605	-2.982700	3.734000	-11.137000	24.009858	0.001071	20.902038
669.171688	-2.987700	3.732600	-11.151000	24.039496	0.001072	20.906156
670.172583	-2.988900	3.733500	-11.157000	24.035587	0.001073	20.911719
671.174680	-2.993300	3.732600	-11.171000	24.062039	0.001072	20.892730
672.174427	-2.999500	3.731500	-11.192000	24.054227	0.001072	20.908601
673.175092	-3.012000	3.733000	-11.243000	24.074977	0.001070	20.902386
674.176004	-2.985600	3.732100	-11.142000	24.098390	0.001072	20.909271
675.173453	-2.979200	3.733300	-11.121000	24.109489	0.001071	20.908075
676.176976	-3.009200	3.731400	-11.227000	24.127102	0.001074	20.904403
677.179719	-3.021200	3.730000	-11.268000	24.133196	0.001071	20.924263
678.178167	-3.001200	3.729900	-11.193000	24.149248	0.001073	20.905751
679.183209	-2.995000	3.730200	-11.171000	24.149396	0.001072	20.917753
680.177335	-3.003300	3.729600	-11.199000	24.126877	0.001069	20.894221
681.176678	-3.001700	3.729200	-11.192000	24.151086	0.001073	20.884364
682.178266	-3.001800	3.729600	-11.194000	24.179624	0.001070	20.910614
683.179577	-2.989800	3.728300	-11.147000	24.155489	0.001071	20.916278
684.178069	-3.008100	3.728900	-11.216000	24.167256	0.001069	20.897261
685.182457	-3.013100	3.728100	-11.232000	24.160442	0.001069	20.901333
686.179363	-3.015700	3.728000	-11.240000	24.166335	0.001069	20.888752
687.180571	-3.029400	3.727600	-11.291000	24.154813	0.001070	20.886679
688.181592	-3.005200	3.727300	-11.200000	24.149366	0.001069	20.909663
689.180402	-2.985500	3.726600	-11.124000	24.149017	0.001069	20.900779
690.183373	-2.997100	3.727400	-11.170000	24.155363	0.001068	20.898135
691.183620	-3.008600	3.726100	-11.210000	24.165588	0.001070	20.885158
692.182995	-3.004300	3.726300	-11.193000	24.176510	0.001066	20.900853
693.182617	-2.994900	3.726900	-11.161000	24.153522	0.001068	20.889651
694.184617	-3.025600	3.724600	-11.268000	24.142624	0.001068	20.879670
695.181444	-2.999500	3.725200	-11.173000	24.149742	0.001069	20.881119
696.182593	-3.000900	3.725800	-11.179000	24.155836	0.001067	20.891498
697.184210	-3.009800	3.724900	-11.211000	24.144119	0.001067	20.878798
698.183580	-2.999800	3.724000	-11.171000	24.173827	0.001068	20.885836
699.183583	-3.001500	3.724200	-11.177000	24.188930	0.001067	20.868743
700.186265	-2.993400	3.724000	-11.147000	24.209881	0.001068	20.882170
701.189703	-2.998900	3.724700	-11.168000	24.221999	0.001068	20.884841
702.185649	-2.978100	3.724800	-11.091000	24.223692	0.001068	20.869944
703.188115	-3.001300	3.722800	-11.173000	24.238172	0.001068	20.887787
704.185334	-2.997200	3.722200	-11.155000	24.231656	0.001067	20.867028
705.188573	-3.002100	3.723600	-11.177000	24.216428	0.001068	20.869297
706.184091	-3.025300	3.720600	-11.255000	24.225486	0.001067	20.862736
707.184330	-3.006700	3.721400	-11.187000	24.224392	0.001068	20.886293
708.185797	-2.987200	3.722400	-11.118000	24.250020	0.001066	20.873594
709.184698	-3.003100	3.722000	-11.176000	24.265542	0.001067	20.861664
710.186369	-2.989000	3.720900	-11.121000	24.286044	0.001067	20.873693
711.187107	-2.985500	3.720400	-11.105000	24.255470	0.001067	20.899447
712.188814	-3.008700	3.719900	-11.191000	24.272908	0.001066	20.855776
713.191287	-3.011000	3.720000	-11.199000	24.268085	0.001066	20.874644
714.190658	-2.988200	3.719500	-11.114000	24.249528	0.001065	20.876419
715.190276	-2.998100	3.720400	-11.153000	24.266196	0.001066	20.876069
716.189395	-3.005800	3.719700	-11.180000	24.250001	0.001064	20.895384
717.191456	-3.002000	3.719700	-11.165000	24.246964	0.001064	20.880011
718.188613	-3.016600	3.718900	-11.217000	24.250026	0.001065	20.873599
719.189712	-2.998900	3.718700	-11.151000	24.234127	0.001064	20.872351
720.189111	-2.995400	3.719200	-11.140000	24.238233	0.001063	20.894485
721.191502	-2.999100	3.719400	-11.155000	24.240896	0.001063	20.874399
722.188797	-3.001800	3.719100	-11.163000	24.260455	0.001064	20.863199
723.191128	-3.008200	3.718600	-11.185000	24.262192	0.001063	20.874424
724.193097	-3.021800	3.717100	-11.232000	24.276873	0.001062	20.887727
725.190652	-3.023800	3.716500	-11.238000	24.291925	0.001063	20.862998
726.189878	-3.024200	3.715600	-11.236000	24.323894	0.001064	20.863298
727.194694	-3.005000	3.715700	-11.165000	24.275359	0.001062	20.865346
728.191278	-2.989400	3.715900	-11.108000	24.279811	0.001062	20.871708
729.190294	-3.009600	3.716300	-11.184000	24.265108	0.001062	20.854590
730.194010	-3.015800	3.716600	-11.208000	24.292827	0.001062	20.856790
731.191928	-2.998500	3.715800	-11.141000	24.322526	0.001063	20.853865
732.190489	-2.990900	3.716400	-11.115000	24.305710	0.001062	20.866394
733.194592	-2.976000	3.715500	-11.056000	24.305485	0.001063	20.855263
734.189866	-3.021400	3.713400	-11.218000	24.293195	0.001061	20.863323
735.190654	-3.010100	3.714700	-11.181000	24.316381	0.001061	20.852443
736.191812	-3.002200	3.714800	-11.152000	24.340982	0.001059	20.878068
737.194753	-3.015900	3.714000	-11.200000	24.338396	0.001059	20.857457
738.191462	-3.009700	3.713100	-11.174000	24.325334	0.001060	20.847200
739.192563	-3.024000	3.713000	-11.227000	24.316304	0.001060	20.866115
740.192681	-3.021900	3.711900	-11.216000	24.311624	0.001061	20.850990
741.192531	-3.023400	3.712200	-11.222000	24.308738	0.001059	20.848096
742.204998	-3.015300	3.711900	-11.192000	24.286720	0.001060	20.870578
743.195083	-3.006500	3.711500	-11.158000	24.314133	0.001058	20.876265
744.192615	-3.005000	3.711300	-11.152000	24.285272	0.001060	20.866755
745.194212	-3.002700	3.710300	-11.140000	24.292538	0.001059	20.879733
746.195883	-3.015700	3.711600	-11.190000	24.317936	0.001060	20.828400
747.195591	-2.996700	3.712000	-11.123000	24.321020	0.001059	20.865630
748.194404	-2.998400	3.710900	-11.126000	24.306540	0.001057	20.851106
749.198044	-2.981600	3.711500	-11.066000	24.288028	0.001057	20.859089
750.195090	-2.970000	3.712300	-11.024000	24.274367	0.001059	20.863877
751.195854	-2.983800	3.709800	-11.067000	24.251403	0.001058	20.856490
752.201650	-2.992200	3.711000	-11.103000	24.286157	0.001059	20.851048
753.196511	-2.993600	3.709700	-11.105000	24.272625	0.001058	20.854069
754.196145	-2.988600	3.708700	-11.083000	24.299389	0.001058	20.842511
755.199627	-3.011900	3.708800	-11.169000	24.287869	0.001058	20.849447
756.199029	-3.009800	3.709200	-11.164000	24.305009	0.001057	20.855735
757.198955	-3.014900	3.708900	-11.181000	24.303267	0.001058	20.835496
758.204654	-3.000200	3.708400	-11.124000	24.298090	0.001058	20.834570
759.214821	-2.997200	3.708700	-11.115000	24.289930	0.001058	20.864316
760.200112	-3.006500	3.707500	-11.145000	24.291472	0.001058	20.844052
761.207447	-3.008400	3.708100	-11.155000	24.289406	0.001055	20.849566
762.202015	-2.998700	3.707700	-11.116000	24.294951	0.001054	20.858921
763.204504	-2.991000	3.707500	-11.088000	24.284528	0.001057	20.852733
764.205500	-2.996500	3.706500	-11.106000	24.283654	0.001056	20.838581
765.205337	-2.997000	3.706400	-11.108000	24.278949	0.001055	20.845241
766.204538	-3.019400	3.705500	-11.187000	24.264993	0.001055	20.838355
767.207783	-2.996000	3.707300	-11.106000	24.261583	0.001054	20.837304
768.206612	-3.008800	3.704200	-11.144000	24.263600	0.001055	20.852603
769.207292	-2.987500	3.705600	-11.070000	24.278001	0.001055	20.830540
770.209043	-3.003000	3.705100	-11.126000	24.275137	0.001053	20.843788
771.209257	-2.983300	3.705600	-11.054000	24.323027	0.001053	20.843937
772.206336	-3.005800	3.704200	-11.133000	24.310064	0.001054	20.832831
773.208385	-2.978400	3.705200	-11.035000	24.301457	0.001051	20.833680
774.208673	-2.995400	3.705200	-11.098000	24.293218	0.001053	20.820200
775.208199	-2.992200	3.704400	-11.083000	24.258513	0.001051	20.838019
776.211036	-2.998400	3.703900	-11.105000	24.265326	0.001053	20.845801
777.210908	-3.011700	3.704000	-11.154000	24.293688	0.001052	20.852913
778.210590	-3.007200	3.703400	-11.136000	24.294284	0.001052	20.843554
779.216785	-2.985700	3.704100	-11.059000	24.303238	0.001053	20.836415
780.211123	-2.997600	3.703100	-11.098000	24.284553	0.001052	20.821940
781.210453	-3.015400	3.702000	-11.162000	24.339680	0.001052	20.838358
782.214203	-2.989600	3.701900	-11.066000	24.336070	0.001052	20.852279
783.211985	-3.013000	3.701000	-11.148000	24.340571	0.001050	20.826450
784.210445	-3.020000	3.701000	-11.175000	24.322857	0.001052	20.846612
785.212453	-2.987200	3.701800	-11.057000	24.346713	0.001052	20.853473
786.210978	-2.991400	3.701000	-11.069000	24.341910	0.001052	20.829689
787.211031	-3.001400	3.700300	-11.105000	24.291155	0.001051	20.841838
788.213979	-2.990800	3.700500	-11.066000	24.314913	0.001051	20.825367
789.210334	-3.004000	3.700200	-11.114000	24.310483	0.001048	20.830880
790.209932	-2.982400	3.701200	-11.038000	24.338019	0.001050	20.833372
791.214087	-3.011200	3.698500	-11.136000	24.310305	0.001047	20.836391
792.214642	-3.008900	3.699400	-11.129000	24.332020	0.001048	20.831622
793.208904	-3.008600	3.699300	-11.129000	24.311294	0.001049	20.854453
794.216383	-2.996400	3.700000	-11.085000	24.297336	0.001050	20.815797
795.215291	-3.015500	3.697600	-11.149000	24.326291	0.001046	20.834884
796.212709	-3.005700	3.698600	-11.116000	24.334524	0.001049	20.833186
797.218180	-2.999500	3.697700	-11.091000	24.316835	0.001050	20.847683
798.215342	-3.015600	3.698600	-11.153000	24.274090	0.001048	20.828514
799.213036	-3.009500	3.699100	-11.130000	24.257071	0.001048	20.830882
800.213128	-2.989400	3.697900	-11.054000	24.235898	0.001047	20.835723
801.212347	-3.006800	3.697000	-11.116000	24.261523	0.001047	20.852891
802.213055	-2.995600	3.697000	-11.074000	24.298764	0.001046	20.830030
803.214320	-3.002000	3.696800	-11.097000	24.282712	0.001044	20.847593
804.214304	-3.012000	3.697100	-11.134000	24.288187	0.001044	20.826058
805.213354	-3.014100	3.696600	-11.141000	24.323707	0.001044	20.829921
806.217332	-2.982800	3.697000	-11.026000	24.311192	0.001043	20.832066
807.212570	-2.998400	3.695900	-11.080000	24.314251	0.001044	20.847461
808.212867	-3.000500	3.696000	-11.089000	24.320296	0.001044	20.825078
809.216445	-3.011700	3.695000	-11.127000	24.335370	0.001042	20.835456
810.213642	-2.990200	3.696300	-11.051000	24.351339	0.001042	20.828243
811.215584	-2.998500	3.695900	-11.081000	24.338923	0.001044	20.831435
812.215440	-3.016300	3.693800	-11.141000	24.356563	0.001042	20.833009
813.215281	-2.992500	3.693300	-11.050000	24.376959	0.001041	20.844934
814.217978	-3.006400	3.692400	-11.100000	24.410915	0.001042	20.820679
815.214557	-2.999800	3.695500	-11.084000	24.399594	0.001043	20.831132
816.214844	-3.013700	3.693900	-11.132000	24.407428	0.001043	20.795844
817.215631	-3.007300	3.692800	-11.104000	24.401929	0.001042	20.832527
818.215600	-2.995700	3.694400	-11.066000	24.376182	0.001039	20.822344
819.214705	-3.000900	3.692900	-11.081000	24.369636	0.001041	20.823839
820.215194	-3.001800	3.692500	-11.083000	24.388243	0.001039	20.826857
821.216090	-2.993300	3.691500	-11.049000	24.392870	0.001038	20.823913
822.219585	-3.011700	3.691800	-11.118000	24.420206	0.001039	20.821940
823.217080	-3.000700	3.690700	-11.074000	24.430206	0.001039	20.823436
824.220356	-3.005300	3.691000	-11.092000	24.418091	0.001039	20.819343
825.224099	-2.990800	3.691000	-11.038000	24.387592	0.001038	20.816247
826.214931	-2.977100	3.691000	-10.987000	24.404629	0.001037	20.822433
827.223899	-3.007100	3.689600	-11.094000	24.424158	0.001041	20.814999
828.215679	-2.989000	3.691700	-11.033000	24.427164	0.001039	20.824179
829.217309	-2.996300	3.690000	-11.056000	24.460493	0.001038	20.804510
830.217322	-3.016200	3.689400	-11.126000	24.470643	0.001038	20.816116
831.219589	-3.008100	3.689800	-11.098000	24.459176	0.001036	20.816940
832.218377	-2.984000	3.689700	-11.008000	24.458429	0.001038	20.819983
833.219867	-2.992200	3.688100	-11.034000	24.499417	0.001036	20.797095
834.220099	-2.999400	3.687300	-11.058000	24.466110	0.001037	20.815835
835.219250	-2.978400	3.689300	-10.988000	24.449890	0.001035	20.796244
836.218619	-2.997200	3.688100	-11.053000	24.414045	0.001034	20.812439
837.223645	-3.002200	3.686700	-11.068000	24.383447	0.001037	20.810667
838.222026	-2.991200	3.687100	-11.028000	24.398220	0.001035	20.799883
839.220510	-2.998300	3.687800	-11.057000	24.405785	0.001035	20.802256
840.223918	-3.004900	3.685900	-11.075000	24.394115	0.001034	20.800032
841.222004	-2.982900	3.687000	-10.997000	24.376154	0.001035	20.832748
842.220209	-2.989500	3.687200	-11.021000	24.378292	0.001036	20.809289
843.226717	-2.994000	3.687100	-11.038000	24.399438	0.001035	20.819122
844.219843	-2.994200	3.684900	-11.032000	24.402595	0.001035	20.817074
845.222756	-2.998500	3.684400	-11.047000	24.416673	0.001032	20.822188
846.225001	-2.965300	3.685700	-10.927000	24.381722	0.001033	20.805618
847.219702	-2.991600	3.684100	-11.020000	24.365575	0.001031	20.794161
848.219340	-2.999500	3.684800	-11.051000	24.373437	0.001032	20.811057
849.222906	-3.015500	3.683000	-11.105000	24.354902	0.001031	20.786299
850.223638	-2.989400	3.685200	-11.016000	24.336092	0.001031	20.796827
851.220894	-2.990900	3.684200	-11.017000	24.353309	0.001031	20.809830
852.224413	-3.008200	3.684000	-11.081000	24.357986	0.001032	20.793185
853.221022	-2.996500	3.683000	-11.035000	24.368805	0.001029	20.784598
854.228753	-3.014400	3.681800	-11.098000	24.334474	0.001031	20.794730
855.225490	-2.981000	3.683200	-10.977000	24.324622	0.001030	20.803813
856.221266	-2.994600	3.683900	-11.031000	24.307334	0.001030	20.806385
857.221869	-2.986500	3.684000	-11.002000	24.341962	0.001030	20.789439
858.230770	-3.006100	3.681800	-11.067000	24.338703	0.001029	20.809878
859.223117	-3.006200	3.680900	-11.063000	24.324273	0.001028	20.807730
860.224973	-3.000000	3.681500	-11.043000	24.347387	0.001029	20.791562
861.229281	-3.010200	3.681300	-11.081000	24.351861	0.001029	20.783248
862.224931	-3.017000	3.680900	-11.104000	24.354573	0.001026	20.794978
863.223061	-2.994700	3.680500	-11.021000	24.338401	0.001027	20.802937
864.225847	-3.006400	3.679700	-11.061000	24.337060	0.001028	20.791634
865.226306	-2.999300	3.681100	-11.040000	24.360144	0.001028	20.778281
866.222768	-2.979800	3.681000	-10.966000	24.336832	0.001026	20.803259
867.227458	-3.007200	3.678600	-11.061000	24.355467	0.001028	20.798245
868.226049	-2.988700	3.680400	-10.999000	24.332205	0.001027	20.783444
869.223459	-2.988400	3.680000	-10.996000	24.303844	0.001027	20.803833
870.227345	-2.981400	3.678800	-10.967000	24.333722	0.001027	20.780224
871.225718	-3.014800	3.678300	-11.088000	24.359221	0.001024	20.800114
872.223579	-2.991500	3.678500	-11.003000	24.350636	0.001026	20.795296
873.226610	-2.979700	3.678500	-10.959000	24.393796	0.001025	20.802083
874.225904	-3.036100	3.678100	-11.165000	24.374838	0.001023	20.789703
875.226156	-3.009700	3.677900	-11.068000	24.354316	0.001024	20.784288
876.229455	-3.001400	3.677400	-11.036000	24.372002	0.001022	20.791599
877.232212	-2.987600	3.677000	-10.985000	24.399861	0.001022	20.784934
878.227857	-3.017100	3.676500	-11.091000	24.405060	0.001021	20.811486
879.231884	-2.993700	3.677500	-11.008000	24.402373	0.001021	20.786980
880.226858	-3.001500	3.676100	-11.033000	24.407470	0.001020	20.788774
881.228854	-3.022800	3.674700	-11.107000	24.420407	0.001021	20.777571
882.231738	-2.983000	3.677200	-10.968000	24.408317	0.001021	20.786778
883.230906	-2.988000	3.675600	-10.981000	24.395679	0.001021	20.796386
884.227748	-2.993400	3.676000	-11.003000	24.434240	0.001018	20.804724
885.229795	-2.987900	3.675200	-10.980000	24.419311	0.001017	20.784058
886.231243	-2.999500	3.675100	-11.022000	24.436427	0.001018	20.772780
887.227059	-3.019700	3.673200	-11.090000	24.426527	0.001018	20.778968
888.230837	-3.018400	3.674100	-11.089000	24.432547	0.001019	20.791647
889.230390	-3.013600	3.672900	-11.067000	24.433396	0.001019	20.795343
890.232382	-2.985700	3.675200	-10.973000	24.449388	0.001018	20.794792
891.229380	-2.981600	3.673400	-10.952000	24.412899	0.001016	20.784738
892.230702	-2.992200	3.673800	-10.990000	24.425163	0.001020	20.774281
893.231961	-3.001200	3.672500	-11.020000	24.438001	0.001017	20.785738
894.234469	-2.980100	3.673200	-10.946000	24.439641	0.001017	20.799712
895.231818	-3.010500	3.672300	-11.055000	24.462653	0.001017	20.796721
896.238256	-2.996800	3.673200	-11.007000	24.486954	0.001017	20.775108
897.229967	-3.006200	3.670500	-11.033000	24.469346	0.001018	20.783521
898.235905	-2.993700	3.672800	-10.994000	24.464868	0.001019	20.784244
899.230682	-2.993800	3.671800	-10.992000	24.453154	0.001018	20.793354
900.231894	-3.019200	3.670200	-11.080000	24.471311	0.001017	20.784544
901.232894	-3.013400	3.671800	-11.063000	24.462683	0.001017	20.801018
902.231881	-3.008000	3.671200	-11.042000	24.464224	0.001016	20.793555
903.232458	-3.000300	3.670400	-11.011000	24.472259	0.001017	20.793081
904.232657	-3.008900	3.670200	-11.041000	24.488674	0.001016	20.782523
905.234786	-3.014600	3.669400	-11.061000	24.489968	0.001015	20.805158
906.230845	-3.026700	3.668800	-11.102000	24.527253	0.001014	20.777134
907.233004	-3.004400	3.669000	-11.022000	24.503225	0.001016	20.791433
908.232885	-3.007000	3.668600	-11.030000	24.491410	0.001016	20.785269
909.233106	-2.990300	3.669400	-10.972000	24.514290	0.001015	20.803957
910.233179	-2.991200	3.668100	-10.971000	24.498947	0.001014	20.795201
911.239477	-2.975200	3.671300	-10.921000	24.505338	0.001015	20.802562
912.234436	-3.003600	3.668600	-11.018000	24.521728	0.001014	20.794824
913.234479	-3.012900	3.666600	-11.046000	24.528592	0.001016	20.790331
914.234907	-2.989700	3.667400	-10.964000	24.556872	0.001013	20.786937
915.234815	-3.004800	3.665900	-11.015000	24.596916	0.001015	20.770692
916.244204	-2.987200	3.668500	-10.957000	24.625192	0.001014	20.791003
917.235178	-3.002100	3.667400	-11.008000	24.619126	0.001013	20.779701
918.235017	-3.002400	3.666100	-11.005000	24.627580	0.001012	20.793399
919.244532	-3.007900	3.665500	-11.024000	24.617582	0.001013	20.789057
920.235952	-3.003700	3.664900	-11.008000	24.617976	0.001011	20.783762
921.234999	-2.998700	3.666800	-10.995000	24.651006	0.001009	20.804104
922.234566	-2.995600	3.666000	-10.981000	24.653916	0.001009	20.794695
923.241311	-3.026900	3.664500	-11.091000	24.626410	0.001012	20.792699
924.236549	-2.990100	3.664900	-10.956000	24.613376	0.001012	20.793372
925.233448	-3.000600	3.663900	-10.993000	24.614868	0.001010	20.801507
926.236530	-2.993900	3.664600	-10.971000	24.586191	0.001011	20.778422
927.236133	-2.970800	3.665200	-10.888000	24.562241	0.001008	20.799437
928.240315	-3.015500	3.663100	-11.045000	24.522767	0.001010	20.795393
929.237736	-2.994600	3.663900	-10.971000	24.530304	0.001007	20.802006
930.237500	-2.998700	3.662600	-10.981000	24.558807	0.001006	20.798836
931.237054	-2.997200	3.663400	-10.978000	24.520877	0.001007	20.802031
932.237438	-3.012000	3.661900	-11.028000	24.522891	0.001008	20.798836
933.236837	-2.991000	3.663200	-10.955000	24.540228	0.001007	20.818127
934.242324	-3.023500	3.661700	-11.070000	24.527968	0.001005	20.792550
935.236914	-3.006800	3.662500	-11.011000	24.550875	0.001006	20.811265
936.239813	-2.995000	3.661000	-10.963000	24.563909	0.001006	20.797316
937.238523	-3.000100	3.661900	-10.985000	24.552270	0.001005	20.806976
938.238148	-3.010700	3.662100	-11.024000	24.590048	0.001004	20.820225
939.238892	-3.000300	3.662100	-10.986000	24.623077	0.001004	20.816856
940.239451	-2.993400	3.660200	-10.956000	24.639566	0.001005	20.792625
941.240898	-2.996000	3.659600	-10.963000	24.661204	0.001004	20.810069
942.239907	-3.009200	3.659700	-11.011000	24.648023	0.001004	20.796842
943.244830	-3.008000	3.659900	-11.008000	24.651182	0.001003	20.805702
944.239998	-3.018400	3.659500	-11.045000	24.634567	0.001004	20.804203
945.239086	-3.020800	3.658800	-11.051000	24.658891	0.001002	20.804429
946.241670	-3.013600	3.658300	-11.021000	24.647948	0.001002	20.803406
947.240173	-2.996300	3.658900	-10.962000	24.632803	0.001002	20.806700
948.243557	-2.985300	3.659000	-10.922000	24.598955	0.001003	20.804031
949.244026	-3.012000	3.657600	-11.015000	24.624371	0.001002	20.798714
950.242172	-3.006700	3.657700	-10.997000	24.630064	0.001002	20.829556
951.242959	-2.973000	3.659200	-10.878000	24.655981	0.001001	20.800561
952.244979	-2.990000	3.658200	-10.937000	24.654039	0.001000	20.792448
953.245473	-3.006200	3.657500	-10.994000	24.664289	0.001001	20.807949
954.253383	-2.997800	3.657400	-10.964000	24.674657	0.001002	20.822620
955.245146	-2.980700	3.658000	-10.902000	24.690547	0.001001	20.809642
956.243134	-3.001200	3.656100	-10.972000	24.697984	0.001001	20.796716
957.243564	-2.997800	3.656000	-10.958000	24.730982	0.001001	20.811338
958.249147	-3.002400	3.655900	-10.975000	24.706214	0.001000	20.820148
959.248743	-3.008000	3.654800	-10.992000	24.697034	0.000999	20.804772
960.245536	-2.999600	3.655300	-10.963000	24.677312	0.000999	20.807741
961.251488	-2.994000	3.656700	-10.947000	24.684922	0.000997	20.809687
962.247745	-3.003300	3.656100	-10.979000	24.670870	0.000998	20.802699
963.246909	-2.987200	3.656300	-10.920000	24.639282	0.000998	20.815573
964.252369	-2.990800	3.656100	-10.933000	24.649629	0.000997	20.825954
965.249448	-3.012700	3.653300	-11.005000	24.627293	0.000997	20.821560
966.249872	-3.000800	3.654500	-10.965000	24.640700	0.000997	20.816047
967.255377	-2.995900	3.653600	-10.945000	24.624854	0.000997	20.812949
968.251361	-2.998200	3.653300	-10.952000	24.612840	0.000994	20.807058
969.253037	-3.000400	3.653500	-10.961000	24.625967	0.000993	20.835403
970.255439	-2.972000	3.653100	-10.855000	24.646759	0.000995	20.823075
971.250706	-3.014200	3.653500	-11.011000	24.657924	0.000995	20.827166
972.254537	-2.985800	3.652700	-10.904000	24.685056	0.000994	20.822149
973.256618	-2.974500	3.653200	-10.865000	24.713805	0.000992	20.820178
974.253402	-3.007800	3.652500	-10.985000	24.712533	0.000993	20.819376
975.253925	-3.005300	3.651600	-10.973000	24.691318	0.000994	20.837915
976.256274	-3.008000	3.650800	-10.980000	24.646952	0.000992	20.841286
977.255923	-2.994500	3.651900	-10.934000	24.652521	0.000992	20.830279
978.257091	-2.997900	3.649400	-10.940000	24.621332	0.000991	20.832174
979.258565	-3.019300	3.649500	-11.018000	24.606757	0.000993	20.833196
980.258577	-3.016300	3.650900	-11.012000	24.645154	0.000990	20.852284
981.257626	-3.002700	3.650900	-10.961000	24.658360	0.000992	20.834242
982.260357	-3.010300	3.649400	-10.985000	24.670819	0.000992	20.812131
983.256692	-2.989700	3.649300	-10.910000	24.697653	0.000991	20.839057
984.257327	-2.981200	3.648600	-10.876000	24.718216	0.000991	20.822709
985.258316	-3.022200	3.648500	-11.026000	24.724609	0.000989	20.831020
986.257610	-3.007400	3.647700	-10.969000	24.697448	0.000989	20.850705
987.257115	-2.991100	3.648200	-10.911000	24.682677	0.000989	20.850107
988.258116	-3.013100	3.648200	-10.990000	24.673177	0.000989	20.843419
989.260137	-3.005000	3.648000	-10.962000	24.694042	0.000989	20.833063
990.262314	-2.999500	3.646900	-10.938000	24.703317	0.000987	20.824352
991.259885	-2.996200	3.646400	-10.924000	24.735570	0.000988	20.844390
992.259878	-3.019000	3.645800	-11.006000	24.735021	0.000989	20.851425
993.259990	-2.998800	3.645600	-10.931000	24.737730	0.000987	20.840394
994.264049	-3.000500	3.647200	-10.941000	24.741461	0.000987	20.845085
995.258649	-2.987800	3.648000	-10.897000	24.736209	0.000986	20.835074
996.262553	-3.027100	3.645300	-11.034000	24.746755	0.000987	20.821950
997.259313	-3.004100	3.645200	-10.950000	24.744563	0.000987	20.824492
998.262046	-3.013400	3.645000	-10.982000	24.767292	0.000986	20.861524
999.260903	-2.999000	3.645800	-10.933000	24.794396	0.000984	20.856482
1000.266442	-3.016700	3.643100	-10.988000	24.788227	0.000985	20.838438
1001.263334	-2.997600	3.644100	-10.923000	24.762263	0.000984	20.836090
1002.262282	-3.021400	3.645100	-11.012000	24.785664	0.000985	20.841082
1003.269138	-3.002500	3.644300	-10.940000	24.786085	0.000985	20.844349
1004.264489	-2.999000	3.644000	-10.928000	24.777407	0.000984	20.829951
1005.264181	-2.990100	3.644700	-10.897000	24.786481	0.000983	20.850436
1006.266439	-3.003500	3.643700	-10.943000	24.759997	0.000985	20.846618
1007.265297	-2.996900	3.643900	-10.919000	24.730478	0.000981	20.852556
1008.264473	-2.997200	3.641400	-10.912000	24.720256	0.000982	20.855100
1009.271222	-3.005500	3.641500	-10.944000	24.709510	0.000983	20.834835
1010.264567	-3.005300	3.641200	-10.942000	24.713810	0.000981	20.839149
1011.264469	-2.990000	3.641400	-10.886000	24.712143	0.000981	20.852648
1012.271484	-2.997000	3.641800	-10.914000	24.760087	0.000981	20.846708
1013.264871	-2.996600	3.641400	-10.911000	24.726763	0.000982	20.861156
1014.267639	-2.992600	3.641000	-10.895000	24.732433	0.000981	20.863052
1015.269050	-2.992700	3.642300	-10.899000	24.717160	0.000982	20.875700
1016.268925	-2.984300	3.641200	-10.865000	24.751380	0.000981	20.857884
1017.269556	-2.980000	3.640600	-10.848000	24.754883	0.000981	20.867563
1018.271969	-3.002800	3.639600	-10.927000	24.762666	0.000978	20.869209
1019.272205	-3.000000	3.639100	-10.916000	24.805757	0.000979	20.875470
1020.271584	-2.992500	3.639600	-10.890000	24.790834	0.000978	20.858598
1021.274283	-3.009900	3.639700	-10.953000	24.784442	0.000977	20.854554
1022.272967	-3.018100	3.639000	-10.981000	24.822512	0.000978	20.875689
1023.274706	-2.990000	3.639100	-10.880000	24.799757	0.000978	20.867552
1024.274671	-2.977100	3.639700	-10.834000	24.839171	0.000976	20.866804
1025.274193	-2.991800	3.637000	-10.880000	24.829495	0.000977	20.860413
1026.273097	-2.998500	3.637800	-10.906000	24.830591	0.000976	20.868624
1027.275153	-3.024400	3.637100	-10.999000	24.841504	0.000977	20.855870
1028.276377	-3.000100	3.637900	-10.912000	24.858512	0.000976	20.866775
1029.277190	-3.004300	3.636700	-10.923000	24.842546	0.000975	20.851226
1030.277732	-2.964800	3.637400	-10.783000	24.850152	0.000974	20.861230
1031.276461	-3.001000	3.635700	-10.909000	24.861167	0.000974	20.862802
1032.281704	-2.988800	3.637100	-10.870000	24.887722	0.000971	20.863375
1033.278001	-3.002800	3.636700	-10.920000	24.896300	0.000972	20.863450
1034.277072	-2.987200	3.635900	-10.860000	24.907339	0.000971	20.887330
1035.275640	-2.998900	3.636600	-10.905000	24.915444	0.000967	20.887878
1036.276597	-2.980600	3.636200	-10.837000	24.913703	0.000971	20.881390
1037.279319	-3.010200	3.634900	-10.941000	24.931605	0.000970	20.872332
1038.276403	-2.993700	3.635700	-10.883000	24.955300	0.000969	20.880940
1039.277030	-3.006200	3.633400	-10.921000	24.961391	0.000970	20.863822
1040.278352	-2.995700	3.633800	-10.883000	24.948736	0.000969	20.861077
1041.279449	-3.012300	3.632900	-10.942000	24.923352	0.000968	20.886806
1042.277297	-3.000900	3.632500	-10.899000	24.938219	0.000968	20.880866
1043.278464	-2.985700	3.634300	-10.849000	24.925291	0.000967	20.884011
1044.277864	-3.004300	3.631600	-10.908000	24.899904	0.000968	20.870860
1045.278586	-2.992300	3.632800	-10.870000	24.868848	0.000968	20.881414
1046.278764	-3.014900	3.630700	-10.945000	24.837966	0.000964	20.876025
1047.278940	-3.000600	3.632500	-10.899000	24.848112	0.000965	20.894267
1048.279063	-2.997700	3.631600	-10.886000	24.868350	0.000965	20.877597
1049.282555	-3.017600	3.631100	-10.956000	24.870416	0.000965	20.899582
1050.283008	-2.999400	3.630100	-10.887000	24.883218	0.000966	20.891095
1051.280890	-3.032000	3.629300	-11.003000	24.917336	0.000964	20.889777
1052.281742	-2.977200	3.632400	-10.813000	24.879716	0.000964	20.891847
1053.283597	-2.993900	3.630600	-10.869000	24.914922	0.000963	20.893044
1054.279242	-2.993700	3.631500	-10.870000	24.900304	0.000963	20.887381
1055.284338	-2.995100	3.629400	-10.869000	24.928125	0.000963	20.906768
1056.285410	-2.989200	3.629500	-10.848000	24.873945	0.000961	20.909762
1057.280422	-2.998200	3.629300	-10.880000	24.899508	0.000960	20.902702
1058.284387	-3.001200	3.628600	-10.889000	24.879941	0.000960	20.894918
1059.285242	-3.005700	3.629200	-10.907000	24.906295	0.000960	20.891497
1060.282828	-2.997100	3.629700	-10.877000	24.897146	0.000961	20.902702
1061.284336	-3.000100	3.630000	-10.889000	24.919498	0.000960	20.880094
1062.284863	-2.969100	3.628200	-10.772000	24.937378	0.000958	20.876702
1063.283331	-2.973500	3.628400	-10.787000	24.917782	0.000960	20.885483
1064.285404	-3.004800	3.627500	-10.899000	24.899456	0.000959	20.905495
1065.288326	-3.023800	3.625200	-10.961000	24.890082	0.000958	20.902725
1066.284006	-2.967100	3.626700	-10.759000	24.880535	0.000958	20.904048
1067.285535	-2.984800	3.627500	-10.826000	24.877003	0.000959	20.895762
1068.287100	-3.002500	3.626500	-10.887000	24.837567	0.000958	20.895064
1069.282758	-3.018600	3.625500	-10.942000	24.822573	0.000959	20.898507
1070.285054	-2.995900	3.627200	-10.866000	24.793255	0.000958	20.896586
1071.285390	-3.006800	3.624600	-10.897000	24.810959	0.000958	20.885905
1072.284093	-3.012100	3.625700	-10.920000	24.833660	0.000957	20.905366
1073.286486	-3.029400	3.624400	-10.978000	24.833387	0.000957	20.922635
1074.283470	-3.019400	3.624300	-10.941000	24.890501	0.000958	20.893662
1075.284922	-2.993300	3.624200	-10.847000	24.855788	0.000957	20.911927
1076.289596	-3.000000	3.623600	-10.870000	24.857527	0.000956	20.889967
1077.287469	-2.984000	3.624100	-10.814000	24.869489	0.000957	20.908134
1078.287325	-2.995700	3.624300	-10.857000	24.871228	0.000956	20.907509
1079.289889	-3.016100	3.621200	-10.920000	24.880152	0.000956	20.896552
1080.286261	-2.984500	3.623300	-10.813000	24.861502	0.000954	20.904387
1081.287703	-3.006400	3.622100	-10.889000	24.880396	0.000954	20.919080
1082.287881	-3.023300	3.620800	-10.945000	24.873707	0.000953	20.910471
1083.288538	-3.004600	3.623100	-10.885000	24.894843	0.000955	20.935000
1084.288932	-2.995100	3.621500	-10.845000	24.935495	0.000952	20.904208
1085.289627	-2.983200	3.621800	-10.804000	24.961477	0.000952	20.905631
1086.290500	-3.009200	3.620700	-10.894000	24.985416	0.000953	20.907374
1087.289553	-2.966600	3.621300	-10.742000	24.941857	0.000952	20.921023
1088.291290	-2.986900	3.621000	-10.815000	24.973753	0.000953	20.930752
1089.289677	-2.994300	3.620500	-10.838000	24.982105	0.000950	20.925385
1090.289937	-2.978400	3.621800	-10.786000	25.004928	0.000951	20.941180
1091.290666	-3.001400	3.618900	-10.862000	24.991279	0.000949	20.923214
1092.288495	-2.982700	3.619800	-10.796000	24.996448	0.000949	20.953055
1093.290311	-3.006000	3.618900	-10.878000	24.968202	0.000950	20.912853
1094.291707	-3.012800	3.617800	-10.899000	24.963525	0.000948	20.925228
1095.287278	-2.985200	3.618600	-10.800000	24.987493	0.000948	20.927948
1096.286885	-2.983900	3.619100	-10.798000	24.979708	0.000947	20.924402
1097.293475	-3.015600	3.617900	-10.909000	25.013868	0.000947	20.924551
1098.289175	-3.012500	3.617400	-10.896000	24.998453	0.000947	20.926621
1099.291663	-3.015200	3.617200	-10.905000	24.958797	0.000948	20.921431
1100.290836	-2.994600	3.616500	-10.828000	24.964711	0.000946	20.927366
1101.290714	-2.983000	3.618400	-10.793000	24.954863	0.000947	20.920327
1102.290766	-3.010000	3.616000	-10.883000	24.963438	0.000944	20.932726
1103.290110	-3.004600	3.616500	-10.865000	24.966025	0.000944	20.942434
1104.290439	-2.994700	3.616700	-10.829000	24.991482	0.000945	20.955656
1105.291193	-2.992600	3.616000	-10.820000	24.962217	0.000944	20.942404
1106.290766	-3.003600	3.615500	-10.859000	24.967685	0.000947	20.921343
1107.289482	-3.016400	3.614200	-10.901000	24.962264	0.000942	20.927755
1108.291654	-3.019300	3.614500	-10.912000	24.937027	0.000943	20.934192
1109.292533	-3.003200	3.616000	-10.858000	24.956319	0.000942	20.923211
1110.294695	-3.008600	3.614200	-10.873000	24.939708	0.000941	20.947787
1111.294240	-3.003900	3.613100	-10.852000	24.949678	0.000940	20.946414
1112.294873	-3.004100	3.613300	-10.853000	24.994978	0.000940	20.961062
1113.293425	-3.006200	3.613300	-10.861000	24.987096	0.000940	20.959788
1114.293550	-2.991500	3.613900	-10.810000	25.009719	0.000938	20.944566
1115.291878	-3.005900	3.613300	-10.860000	25.047358	0.000938	20.944889
1116.293200	-2.992800	3.611900	-10.809000	25.053325	0.000940	20.952300
1117.294989	-2.981400	3.612200	-10.768000	25.040972	0.000938	20.929945
1118.295494	-2.993600	3.612400	-10.813000	25.053748	0.000938	20.943717
1119.293161	-2.974400	3.613200	-10.746000	25.038783	0.000938	20.957617
1120.294086	-2.994300	3.612800	-10.817000	25.049994	0.000936	20.962705
1121.294282	-2.982000	3.611600	-10.769000	25.068116	0.000937	20.963353
1122.294579	-2.983800	3.610600	-10.772000	25.073067	0.000936	20.943669
1123.294503	-3.024100	3.610200	-10.916000	25.076769	0.000937	20.945015
1124.297506	-3.023500	3.610100	-10.914000	25.082734	0.000938	20.931564
1125.295713	-3.016400	3.607900	-10.882000	25.049771	0.000936	20.943518
1126.300807	-2.976900	3.609000	-10.743000	25.073389	0.000936	20.963904
1127.298129	-2.987300	3.608500	-10.778000	25.079354	0.000933	20.953298
1128.298572	-3.018700	3.608400	-10.892000	25.080548	0.000935	20.941696
1129.299338	-3.012700	3.608100	-10.868000	25.076398	0.000934	20.942272
1130.295914	-3.008700	3.608200	-10.854000	25.088603	0.000933	20.946936
1131.300337	-3.015400	3.607400	-10.878000	25.085024	0.000936	20.943344
1132.301204	-2.997900	3.607000	-10.813000	25.064961	0.000932	20.934111
1133.296504	-3.001500	3.606800	-10.825000	25.069088	0.000932	20.938253
1134.300418	-3.001600	3.606400	-10.825000	25.076198	0.000933	20.962457
1135.301646	-2.989600	3.608600	-10.788000	25.079678	0.000933	20.949356
1136.297401	-2.988200	3.608200	-10.781000	25.063544	0.000932	20.918940
1137.299508	-2.997400	3.606900	-10.810000	25.040398	0.000929	20.931740
1138.301774	-2.997200	3.608400	-10.813000	25.055639	0.000931	20.926651
1139.298153	-2.996100	3.608200	-10.810000	25.068515	0.000931	20.923929
1140.301370	-3.010400	3.605900	-10.854000	25.043979	0.000929	20.934860
1141.302194	-3.006900	3.605900	-10.842000	25.004521	0.000930	20.945038
1142.296793	-3.000800	3.605700	-10.819000	24.956090	0.000928	20.931989
1143.300579	-3.002300	3.605600	-10.825000	24.962031	0.000930	20.924202
1144.301605	-2.983800	3.605200	-10.756000	24.949623	0.000927	20.940195
1145.296743	-2.997700	3.602900	-10.799000	24.979260	0.000926	20.920159
1146.304646	-3.006400	3.604700	-10.836000	24.978513	0.000926	20.927943
1147.302612	-3.000700	3.603400	-10.812000	24.968343	0.000927	20.931486
1148.299773	-3.002900	3.602800	-10.818000	24.976646	0.000926	20.933181
1149.303004	-3.017000	3.602100	-10.867000	24.986964	0.000927	20.918409
1150.304845	-3.028100	3.600800	-10.902000	25.043028	0.000924	20.925846
1151.301379	-3.001500	3.601000	-10.808000	25.035864	0.000925	20.921026
1152.303582	-3.020300	3.600500	-10.873000	25.088021	0.000922	20.920751
1153.305521	-2.996700	3.600300	-10.788000	25.071738	0.000924	20.928113
1154.300486	-3.006400	3.600300	-10.822000	25.071489	0.000923	20.938293
1155.301744	-3.019600	3.599900	-10.869000	25.105050	0.000921	20.897545
1156.304795	-3.011300	3.601900	-10.845000	25.122076	0.000922	20.913687
1157.300015	-3.004400	3.600000	-10.815000	25.082101	0.000922	20.907698
1158.304973	-2.998400	3.600000	-10.793000	25.072083	0.000921	20.882944
1159.300311	-3.021200	3.600400	-10.876000	25.036731	0.000921	20.901035
1160.303475	-2.996200	3.597900	-10.778000	25.074593	0.000920	20.902058
1161.305209	-2.985600	3.600600	-10.749000	25.088066	0.000919	20.901358
1162.304186	-2.980900	3.598600	-10.726000	25.100597	0.000922	20.928633
1163.302764	-3.003600	3.599000	-10.809000	25.108451	0.000920	20.931775
1164.305257	-3.016400	3.598000	-10.852000	25.123042	0.000919	20.904226
1165.303038	-2.991700	3.597500	-10.761000	25.121724	0.000919	20.902429
1166.305658	-2.995200	3.598100	-10.777000	25.122320	0.000920	20.907768
1167.307729	-3.011000	3.596300	-10.827000	25.136114	0.000918	20.906443
1168.303205	-2.996400	3.597900	-10.779000	25.117221	0.000918	20.913080
1169.316865	-2.982600	3.597900	-10.730000	25.111900	0.000917	20.911532
1170.307422	-3.013900	3.596200	-10.837000	25.127932	0.000917	20.894437
1171.305236	-2.988400	3.595700	-10.745000	25.136011	0.000917	20.899228
1172.308766	-2.990400	3.595800	-10.751000	25.111700	0.000916	20.905168
1173.305453	-3.004300	3.595200	-10.799000	25.070082	0.000916	20.907012
1174.309206	-3.002600	3.595100	-10.794000	25.090141	0.000914	20.906760
1175.310252	-2.987500	3.596200	-10.742000	25.117064	0.000914	20.902493
1176.311339	-3.003000	3.594600	-10.793000	25.127528	0.000915	20.886446
1177.308452	-2.992600	3.594900	-10.757000	25.142368	0.000914	20.897075
1178.308958	-2.997300	3.592900	-10.768000	25.149799	0.000912	20.898371
1179.306733	-2.982000	3.594400	-10.716000	25.169562	0.000912	20.891185
1180.306600	-2.996200	3.595100	-10.770000	25.190838	0.000912	20.899742
1181.306705	-3.002500	3.593200	-10.787000	25.199387	0.000910	20.895996
1182.307564	-2.998500	3.593500	-10.774000	25.204805	0.000911	20.906176
1183.309636	-3.010300	3.591200	-10.811000	25.196303	0.000910	20.878678
1184.309922	-2.989200	3.591900	-10.736000	25.207760	0.000910	20.896816
1185.310478	-2.983200	3.591200	-10.712000	25.224585	0.000910	20.901854
1186.313419	-2.990300	3.589900	-10.733000	25.213151	0.000908	20.890375
1187.309892	-2.990600	3.592400	-10.742000	25.212081	0.000907	20.898783
1188.315193	-2.966900	3.592900	-10.658000	25.205618	0.000910	20.890872
1189.312476	-2.991900	3.590800	-10.742000	25.155952	0.000909	20.904073
1190.309601	-2.992800	3.589700	-10.742000	25.131787	0.000908	20.889299
1191.310595	-2.999200	3.590800	-10.768000	25.100214	0.000905	20.887949
1192.315111	-3.014300	3.588500	-10.815000	25.115576	0.000907	20.891991
1193.314559	-3.016100	3.588800	-10.822000	25.111624	0.000904	20.890394
1194.310643	-3.001600	3.589400	-10.773000	25.103244	0.000907	20.897154
1195.316294	-2.996400	3.588100	-10.751000	25.103194	0.000905	20.881459
1196.310392	-2.984600	3.588800	-10.709000	25.116467	0.000903	20.885299
1197.312809	-3.008700	3.588100	-10.793000	25.151120	0.000904	20.883103
1198.314330	-2.982400	3.590000	-10.705000	25.154872	0.000904	20.880705
1199.312951	-2.980300	3.588800	-10.695000	25.190618	0.000902	20.904736
1200.314965	-3.015000	3.586700	-10.812000	25.176647	0.000901	20.877436
1201.317007	-3.011000	3.586500	-10.798000	25.183084	0.000900	20.902388
1202.313171	-2.989700	3.587800	-10.725000	25.190241	0.000901	20.891082
1203.314484	-2.986600	3.587500	-10.713000	25.169012	0.000901	20.896322
1204.317021	-2.975800	3.587500	-10.674000	25.203913	0.000900	20.892006
1205.319254	-3.011000	3.585600	-10.794000	25.211443	0.000901	20.900513
1206.315837	-2.988200	3.585700	-10.714000	25.209976	0.000897	20.894774
1207.316458	-3.001600	3.584800	-10.759000	25.226803	0.000897	20.898391
1208.313808	-3.013200	3.584200	-10.799000	25.239056	0.000897	20.864702
1209.320165	-2.991700	3.584800	-10.723000	25.232345	0.000898	20.915333
1210.315722	-3.008300	3.584300	-10.782000	25.225906	0.000897	20.877103
1211.317479	-2.986300	3.584300	-10.702000	25.229086	0.000896	20.886934
1212.317514	-3.033800	3.583100	-10.868000	25.198114	0.000895	20.890925
1213.318308	-2.995300	3.582800	-10.731000	25.173952	0.000895	20.894644
1214.318903	-3.010800	3.583100	-10.787000	25.185710	0.000894	20.865673
1215.316591	-2.997400	3.582300	-10.737000	25.172560	0.000893	20.889927
1216.319742	-2.992500	3.582600	-10.720000	25.198262	0.000894	20.888230
1217.320993	-3.003600	3.581800	-10.758000	25.200300	0.000894	20.902128
1218.318250	-2.998700	3.582200	-10.740000	25.181235	0.000893	20.882516
1219.319253	-2.970300	3.582800	-10.641000	25.158191	0.000893	20.890675
1220.318727	-3.007500	3.580400	-10.766000	25.159855	0.000893	20.876700
1221.317544	-2.989200	3.580900	-10.703000	25.199850	0.000892	20.869911
1222.322803	-2.989800	3.581300	-10.706000	25.173874	0.000890	20.862799
1223.320837	-3.002300	3.579500	-10.745000	25.194952	0.000890	20.871632
1224.317750	-2.982500	3.580200	-10.677000	25.232512	0.000891	20.872356
1225.318842	-2.986200	3.578400	-10.685000	25.230996	0.000890	20.894066
1226.320467	-2.997500	3.578600	-10.726000	25.254660	0.000887	20.877048
1227.317436	-3.009300	3.579100	-10.769000	25.259508	0.000887	20.853942
1228.318994	-2.999800	3.578800	-10.735000	25.262639	0.000887	20.874153
1229.317453	-3.002500	3.577700	-10.741000	25.277802	0.000884	20.877050
1230.317332	-2.994400	3.579000	-10.716000	25.274895	0.000885	20.870338
1231.319301	-2.993200	3.578000	-10.709000	25.280661	0.000884	20.878023
1232.316942	-3.005300	3.577200	-10.751000	25.282674	0.000883	20.863449
1233.319538	-3.012000	3.578300	-10.777000	25.280114	0.000887	20.854716
1234.321781	-2.989300	3.579300	-10.698000	25.281209	0.000884	20.873358
1235.321359	-3.009300	3.577500	-10.765000	25.270572	0.000884	20.875954
1236.323586	-2.991600	3.577100	-10.701000	25.270547	0.000882	20.870240
1237.321959	-3.018200	3.575400	-10.790000	25.297193	0.000883	20.835829
1238.318777	-2.994800	3.576100	-10.708000	25.280415	0.000883	20.864027
1239.316706	-3.009300	3.576900	-10.763000	25.277433	0.000883	20.859610
1240.328979	-3.001800	3.576500	-10.735000	25.290629	0.000883	20.870489
1241.326592	-3.011700	3.575000	-10.765000	25.273556	0.000879	20.872312
1242.319870	-3.011700	3.574700	-10.764000	25.259586	0.000880	20.854494
1243.318920	-3.010700	3.574400	-10.759000	25.238359	0.000880	20.848356
1244.320151	-3.026300	3.572900	-10.811000	25.228466	0.000881	20.870190
1245.319818	-3.001200	3.574300	-10.726000	25.229460	0.000880	20.853172
1246.320725	-3.005000	3.573400	-10.737000	25.203983	0.000878	20.850354
1247.320324	-3.006100	3.573600	-10.742000	25.195828	0.000877	20.864925
1248.319688	-3.023900	3.571700	-10.799000	25.222650	0.000877	20.842542
1249.318692	-2.998600	3.573300	-10.714000	25.230157	0.000876	20.861931
1250.320365	-3.008500	3.572300	-10.745000	25.234009	0.000879	20.859635
1251.322106	-2.975100	3.572200	-10.627000	25.201222	0.000877	20.849004
1252.320890	-3.014600	3.571100	-10.763000	25.198536	0.000877	20.857687
1253.321149	-3.023200	3.570500	-10.794000	25.200475	0.000878	20.855366
1254.321103	-2.990300	3.571500	-10.679000	25.213996	0.000876	20.860406
1255.320549	-2.985300	3.571700	-10.662000	25.213526	0.000875	20.857089
1256.327047	-3.014800	3.569500	-10.760000	25.209995	0.000874	20.859708
1257.321977	-2.980200	3.571000	-10.640000	25.226550	0.000873	20.846457
1258.324335	-2.984700	3.570100	-10.655000	25.200822	0.000872	20.853818
1259.325540	-3.004700	3.568900	-10.723000	25.202589	0.000873	20.846109
1260.324269	-3.025300	3.566500	-10.789000	25.184318	0.000873	20.860008
1261.325077	-2.999500	3.569400	-10.705000	25.159657	0.000874	20.837148
1262.324813	-3.003700	3.568900	-10.719000	25.134076	0.000872	20.861253
1263.324711	-3.007100	3.567900	-10.729000	25.161173	0.000873	20.856687
1264.325007	-2.968500	3.568200	-10.591000	25.174944	0.000870	20.843960
1265.328666	-2.983300	3.568700	-10.645000	25.186975	0.000872	20.847977
1266.328074	-2.995500	3.568200	-10.687000	25.194606	0.000870	20.846629
1267.326142	-3.001100	3.566600	-10.703000	25.201738	0.000871	20.857108
1268.327167	-3.021600	3.565400	-10.772000	25.221848	0.000871	20.847901
1269.324941	-2.997200	3.565000	-10.684000	25.254284	0.000869	20.836844
1270.324347	-3.000600	3.566400	-10.700000	25.237730	0.000869	20.853414
1271.326310	-2.999900	3.565400	-10.695000	25.248095	0.000868	20.834898
1272.326543	-3.005400	3.565300	-10.714000	25.245111	0.000870	20.852290
1273.326254	-2.995100	3.566400	-10.681000	25.244563	0.000865	20.831352
1274.329907	-3.003800	3.564800	-10.707000	25.244936	0.000867	20.861597
1275.330249	-2.999500	3.563600	-10.688000	25.259325	0.000865	20.838112
1276.329641	-2.991900	3.565600	-10.667000	25.273417	0.000864	20.852734
1277.329487	-2.996600	3.563600	-10.677000	25.261561	0.000866	20.835615
1278.329039	-2.986300	3.563900	-10.642000	25.257609	0.000865	20.830700
1279.329363	-3.000000	3.562300	-10.686000	25.268346	0.000866	20.840056
1280.332991	-2.986300	3.563500	-10.641000	25.283805	0.000865	20.829499
1281.329568	-3.012700	3.562800	-10.733000	25.314126	0.000864	20.866105
1282.331497	-3.015200	3.561900	-10.738000	25.336942	0.000865	20.850608
1283.335096	-2.988100	3.560700	-10.638000	25.306617	0.000860	20.848136
1284.332818	-3.003800	3.561100	-10.697000	25.288895	0.000862	20.822282
1285.331745	-3.002200	3.561000	-10.690000	25.258571	0.000862	20.848734
1286.336380	-3.002900	3.561300	-10.694000	25.238957	0.000861	20.844215
1287.336005	-3.011700	3.560700	-10.722000	25.232318	0.000860	20.840395
1288.333369	-3.018400	3.559300	-10.742000	25.195280	0.000860	20.838772
1289.336981	-3.002600	3.560700	-10.690000	25.148223	0.000860	20.836575
1290.335182	-2.994800	3.559700	-10.659000	25.144195	0.000859	20.836799
1291.332897	-2.996900	3.559300	-10.666000	25.115780	0.000859	20.830558
1292.337518	-2.994000	3.559600	-10.656000	25.137234	0.000857	20.844035
1293.334555	-3.005000	3.558100	-10.692000	25.141334	0.000857	20.806901
1294.337199	-2.970300	3.560300	-10.574000	25.177152	0.000858	20.845702
1295.338012	-2.993600	3.558200	-10.651000	25.201761	0.000858	20.834373
1296.335207	-3.008800	3.556400	-10.699000	25.167828	0.000856	20.834445
1297.336479	-2.993600	3.558800	-10.651000	25.138421	0.000856	20.831476
1298.340922	-3.001300	3.557100	-10.675000	25.105232	0.000856	20.824712
1299.338185	-2.984000	3.556800	-10.612000	25.081440	0.000855	20.840183
1300.335755	-2.978300	3.558200	-10.595000	25.047951	0.000855	20.833593
1301.338367	-2.994200	3.557300	-10.651000	25.081288	0.000853	20.825332
1302.341826	-3.004900	3.555400	-10.682000	25.101124	0.000852	20.818692
1303.337287	-3.010100	3.556800	-10.705000	25.136572	0.000852	20.832939
1304.338475	-2.973600	3.556400	-10.574000	25.109150	0.000852	20.840973
1305.336719	-3.010100	3.553800	-10.696000	25.145967	0.000851	20.822931
1306.345182	-3.015800	3.554700	-10.719000	25.156480	0.000850	20.810251
1307.342542	-3.018000	3.553100	-10.723000	25.188025	0.000852	20.815842
1308.336378	-3.018900	3.553400	-10.726000	25.188145	0.000851	20.825445
1309.337100	-2.973500	3.555100	-10.569000	25.222125	0.000850	20.831584
1310.340943	-3.009600	3.553300	-10.693000	25.236614	0.000850	20.806776
1311.342494	-3.006400	3.552400	-10.678000	25.269275	0.000849	20.825342
1312.338770	-3.015600	3.552800	-10.712000	25.247426	0.000848	20.806726
1313.342896	-2.981700	3.553500	-10.594000	25.298202	0.000848	20.829256
1314.348004	-3.015600	3.550300	-10.705000	25.222739	0.000847	20.820821
1315.342189	-3.001200	3.550400	-10.654000	25.211179	0.000848	20.825811
1316.344182	-3.006000	3.551400	-10.674000	25.260169	0.000845	20.820942
1317.344141	-3.035400	3.549400	-10.772000	25.250647	0.000846	20.808063
1318.339795	-3.009300	3.551000	-10.684000	25.243314	0.000845	20.831520
1319.352128	-3.001300	3.550300	-10.653000	25.228794	0.000842	20.839227
1320.344275	-2.987900	3.551200	-10.610000	25.220095	0.000844	20.811528
1321.344555	-2.987000	3.550700	-10.605000	25.181215	0.000842	20.823703
1322.347318	-3.009300	3.550000	-10.681000	25.195433	0.000844	20.833710
1323.346533	-2.975800	3.550400	-10.564000	25.206393	0.000843	20.821954
1324.347063	-3.004800	3.549900	-10.665000	25.212059	0.000843	20.834754
1325.347790	-3.006700	3.549200	-10.669000	25.189686	0.000843	20.817509
1326.350324	-3.027500	3.548200	-10.740000	25.191351	0.000840	20.816809
1327.348309	-2.991600	3.549700	-10.617000	25.188366	0.000842	20.810969
1328.346516	-3.010700	3.547500	-10.679000	25.229751	0.000840	20.820748
1329.347430	-3.000000	3.546700	-10.638000	25.225327	0.000840	20.806824
1330.345997	-2.996800	3.548000	-10.631000	25.265964	0.000839	20.830079
1331.354514	-3.000800	3.547200	-10.644000	25.299616	0.000838	20.831149
1332.348289	-2.986600	3.548100	-10.594000	25.285050	0.000838	20.821267
1333.346965	-2.984400	3.545700	-10.581000	25.305555	0.000838	20.802500
1334.349215	-2.994500	3.546100	-10.618000	25.302497	0.000837	20.812232
1335.350539	-2.998600	3.545900	-10.632000	25.309604	0.000835	20.818893
1336.352525	-3.026800	3.544800	-10.729000	25.294740	0.000838	20.814874
1337.351571	-3.002200	3.547100	-10.648000	25.271099	0.000835	20.815320
1338.350886	-3.002200	3.545200	-10.641000	25.267047	0.000836	20.821683
1339.349688	-2.999800	3.546000	-10.636000	25.282232	0.000833	20.824601
1340.352645	-3.021500	3.542800	-10.702000	25.273183	0.000833	20.798921
1341.351511	-2.993100	3.544700	-10.609000	25.279520	0.000833	20.847008
1342.348973	-2.998700	3.544000	-10.626000	25.302708	0.000835	20.824297
1343.351495	-3.002700	3.544600	-10.643000	25.305814	0.000833	20.821252
1344.351409	-3.025000	3.541300	-10.712000	25.270717	0.000833	20.821575
1345.350492	-3.017400	3.542500	-10.688000	25.296617	0.000829	20.795422
1346.351645	-3.022100	3.543200	-10.706000	25.309814	0.000828	20.812939
1347.349726	-2.998600	3.542700	-10.622000	25.303027	0.000831	20.820350
1348.352748	-2.986100	3.541900	-10.575000	25.321567	0.000829	20.821895
1349.350557	-2.996300	3.543000	-10.613000	25.313862	0.000829	20.816056
1350.349558	-3.002300	3.541600	-10.633000	25.297109	0.000829	20.824839
1351.347978	-3.008900	3.540000	-10.651000	25.274912	0.000828	20.800182
1352.352029	-3.007600	3.540100	-10.646000	25.295318	0.000830	20.814032
1353.348693	-3.005500	3.540300	-10.639000	25.306627	0.000827	20.808317
1354.351130	-2.990600	3.541100	-10.590000	25.284355	0.000828	20.841431
1355.357493	-3.014600	3.538700	-10.667000	25.258057	0.000826	20.818347
1356.350386	-3.013100	3.537800	-10.659000	25.225023	0.000824	20.816002
1357.350187	-2.983700	3.539300	-10.559000	25.208044	0.000827	20.805119
1358.357594	-3.022700	3.539400	-10.696000	25.212641	0.000825	20.798355
1359.352479	-3.004700	3.539600	-10.634000	25.220620	0.000826	20.802573
1360.351056	-3.022300	3.537700	-10.690000	25.226859	0.000825	20.815949
1361.353374	-3.021600	3.538200	-10.690000	25.247912	0.000823	20.805791
1362.353392	-2.993200	3.537200	-10.587000	25.245575	0.000824	20.811031
1363.350629	-2.997500	3.537100	-10.600000	25.236376	0.000823	20.819813
1364.352744	-3.009900	3.536300	-10.643000	25.265906	0.000823	20.812003
1365.353357	-2.992500	3.537800	-10.585000	25.306741	0.000823	20.820760
1366.356611	-3.018100	3.535900	-10.670000	25.318075	0.000822	20.826449
1367.353310	-2.987400	3.535900	-10.562000	25.324040	0.000822	20.813948
1368.353140	-3.002900	3.535500	-10.616000	25.327022	0.000821	20.824528
1369.353273	-3.003600	3.537000	-10.623000	25.346952	0.000820	20.808029
1370.354470	-2.981200	3.536200	-10.539000	25.368451	0.000820	20.817288
1371.354225	-3.001100	3.534500	-10.606000	25.329455	0.000819	20.822703
1372.354239	-3.029200	3.534900	-10.707000	25.323040	0.000818	20.817210
1373.354556	-3.003900	3.533200	-10.612000	25.342402	0.000817	20.803934
1374.358231	-3.020500	3.532700	-10.670000	25.358084	0.000817	20.801663
1375.358859	-2.998600	3.533200	-10.594000	25.359772	0.000816	20.827539
1376.359277	-2.995800	3.533600	-10.585000	25.346178	0.000816	20.804881
1377.355370	-2.991500	3.534000	-10.570000	25.337204	0.000813	20.797767
1378.353988	-2.992700	3.532700	-10.571000	25.359248	0.000815	20.827962
1379.353841	-2.996300	3.533300	-10.586000	25.360241	0.000816	20.834648
1380.357578	-3.007500	3.530800	-10.618000	25.377488	0.000815	20.820198
1381.375261	-2.994600	3.531700	-10.575000	25.366328	0.000814	20.799984
1382.355982	-2.985500	3.532700	-10.546000	25.361134	0.000815	20.823217
1383.358769	-2.987200	3.531200	-10.547000	25.337346	0.000811	20.829204
1384.358160	-2.994200	3.530200	-10.569000	25.345894	0.000814	20.820717
1385.356782	-2.997700	3.530200	-10.581000	25.303642	0.000812	20.822390
1386.357134	-2.984300	3.529800	-10.532000	25.312863	0.000811	20.799880
1387.359676	-2.981800	3.530500	-10.526000	25.318876	0.000813	20.833418
1388.365212	-2.983600	3.529200	-10.528000	25.300433	0.000810	20.842400
1389.358090	-3.027000	3.528000	-10.679000	25.328343	0.000811	20.816845
1390.358637	-3.005900	3.528800	-10.606000	25.358267	0.000811	20.833140
1391.360169	-3.003200	3.527600	-10.592000	25.381280	0.000809	20.824954
1392.359454	-3.009200	3.526300	-10.609000	25.371935	0.000806	20.830743
1393.361956	-3.005400	3.527300	-10.601000	25.357593	0.000808	20.832938
1394.361508	-2.988400	3.526800	-10.538000	25.382320	0.000808	20.831688
1395.362630	-3.009300	3.526500	-10.612000	25.411298	0.000807	20.840397
1396.359825	-3.004100	3.526900	-10.594000	25.410699	0.000805	20.842166
1397.361312	-3.001100	3.525900	-10.581000	25.426680	0.000807	20.827393
1398.361329	-2.993800	3.525800	-10.554000	25.433016	0.000805	20.825695
1399.365989	-2.983700	3.526100	-10.519000	25.439429	0.000805	20.833557
1400.364202	-2.996900	3.525700	-10.565000	25.438556	0.000804	20.833154
1401.373644	-2.988100	3.525300	-10.532000	25.454162	0.000805	20.835076
1402.364463	-3.007100	3.523000	-10.593000	25.473495	0.000804	20.832678
1403.368074	-3.011900	3.522200	-10.607000	25.476178	0.000803	20.832054
1404.367712	-2.989700	3.523900	-10.535000	25.463380	0.000802	20.822047
1405.365999	-3.018800	3.522500	-10.634000	25.414770	0.000802	20.851468
1406.365719	-2.976500	3.523400	-10.486000	25.396427	0.000804	20.818826
1407.369860	-3.017900	3.522800	-10.631000	25.335758	0.000800	20.846575
1408.367554	-3.006300	3.521800	-10.587000	25.307696	0.000800	20.835943
1409.371761	-2.982900	3.522700	-10.507000	25.313362	0.000798	20.851588
1410.373247	-2.995700	3.521700	-10.547000	25.329816	0.000799	20.825436
1411.367596	-3.006800	3.521100	-10.586000	25.334811	0.000798	20.826184
1412.374039	-2.991900	3.520400	-10.531000	25.323178	0.000797	20.827306
1413.372705	-3.014900	3.520700	-10.612000	25.353399	0.000797	20.832520
1414.368839	-3.010300	3.520300	-10.596000	25.348875	0.000798	20.841254
1415.370479	-2.979400	3.520400	-10.487000	25.316093	0.000795	20.830624
1416.370547	-3.002600	3.519600	-10.567000	25.341369	0.000794	20.843674
1417.371378	-3.000100	3.520600	-10.561000	25.337194	0.000795	20.833318
1418.371293	-2.999200	3.519500	-10.554000	25.350565	0.000794	20.832519
1419.381660	-2.979500	3.520100	-10.486000	25.297947	0.000794	20.855551
1420.370930	-3.017400	3.518900	-10.617000	25.288726	0.000793	20.841078
1421.371233	-2.993200	3.517500	-10.527000	25.316192	0.000792	20.831672
1422.374784	-2.997000	3.518300	-10.544000	25.352653	0.000792	20.857374
1423.370590	-3.008100	3.518800	-10.584000	25.394383	0.000793	20.834791
1424.373417	-2.998800	3.516700	-10.545000	25.401838	0.000793	20.858871
1425.377533	-2.988400	3.517500	-10.511000	25.404100	0.000791	20.847867
1426.373692	-2.998300	3.516400	-10.543000	25.430495	0.000792	20.849715
1427.377919	-3.004300	3.517700	-10.567000	25.439714	0.000790	20.818197
1428.380305	-3.010700	3.515900	-10.585000	25.465833	0.000790	20.848217
1429.375519	-2.992000	3.515700	-10.517000	25.472020	0.000789	20.836413
1430.376305	-3.005100	3.516100	-10.565000	25.501617	0.000790	20.847641
1431.378572	-3.025100	3.515200	-10.632000	25.516526	0.000789	20.841277
1432.374637	-2.989100	3.514600	-10.505000	25.532009	0.000788	20.826007
1433.374819	-2.979100	3.514100	-10.468000	25.498211	0.000788	20.869350
1434.380689	-2.993100	3.515200	-10.520000	25.450325	0.000788	20.853507
1435.376178	-3.003300	3.514100	-10.554000	25.470701	0.000787	20.861166
1436.378922	-3.023700	3.511100	-10.615000	25.448309	0.000786	20.839155
1437.379027	-2.996400	3.513900	-10.528000	25.502909	0.000786	20.854629
1438.379910	-3.009000	3.512100	-10.567000	25.475572	0.000787	20.835712
1439.383895	-3.015700	3.512900	-10.592000	25.472615	0.000784	20.837958
1440.375286	-2.998200	3.512400	-10.530000	25.488322	0.000785	20.853256
1441.375487	-3.006600	3.511100	-10.556000	25.438618	0.000783	20.867828
1442.375296	-3.007000	3.509700	-10.552000	25.445874	0.000787	20.850934
1443.376270	-2.999300	3.510900	-10.528000	25.454174	0.000785	20.884396
1444.374814	-2.995100	3.512500	-10.519000	25.487252	0.000784	20.861191
1445.377367	-3.011300	3.509500	-10.568000	25.484791	0.000783	20.837857
1446.381486	-2.991500	3.510300	-10.500000	25.484393	0.000783	20.864009
1447.378568	-3.009700	3.510300	-10.564000	25.501043	0.000783	20.846591
1448.379210	-3.016100	3.509800	-10.584000	25.470999	0.000781	20.847240
1449.377669	-2.999300	3.508200	-10.521000	25.412149	0.000779	20.852156
1450.376885	-2.987900	3.507900	-10.479000	25.419878	0.000780	20.860864
1451.377129	-2.993300	3.507100	-10.497000	25.405438	0.000778	20.861063
1452.380546	-3.007500	3.506500	-10.544000	25.400839	0.000777	20.850283
1453.377745	-2.996800	3.507900	-10.511000	25.432850	0.000778	20.844494
1454.375188	-2.995100	3.506700	-10.501000	25.418782	0.000779	20.845066
1455.381446	-3.007700	3.506000	-10.543000	25.433345	0.000778	20.861586
1456.380961	-3.008500	3.505700	-10.545000	25.430238	0.000777	20.863681
1457.381999	-2.997200	3.506300	-10.508000	25.448852	0.000775	20.864354
1458.380226	-2.995100	3.506300	-10.501000	25.442888	0.000776	20.857418
1459.381390	-3.026900	3.503000	-10.601000	25.464384	0.000774	20.871417
1460.383208	-2.984000	3.505000	-10.458000	25.428671	0.000775	20.853100
1461.387741	-2.997700	3.503700	-10.502000	25.447559	0.000773	20.867798
1462.380724	-2.971500	3.505800	-10.416000	25.453722	0.000775	20.866874
1463.380884	-2.973300	3.504300	-10.419000	25.457523	0.000774	20.869268
1464.392207	-2.982600	3.503600	-10.448000	25.452553	0.000771	20.855270
1465.386811	-3.005800	3.504800	-10.533000	25.422482	0.000773	20.879125
1466.386478	-2.995100	3.503000	-10.491000	25.441319	0.000774	20.884764
1467.391009	-3.001500	3.501300	-10.509000	25.423998	0.000772	20.855993
1468.391367	-2.993400	3.502800	-10.483000	25.421761	0.000770	20.863703
1469.394274	-2.997800	3.502600	-10.499000	25.420120	0.000771	20.861107
1470.390286	-3.012100	3.501300	-10.545000	25.396584	0.000770	20.863553
1471.394929	-3.028100	3.500600	-10.600000	25.391786	0.000771	20.866321
1472.392793	-3.021700	3.500300	-10.576000	25.380030	0.000770	20.858785
1473.398054	-3.004500	3.500800	-10.517000	25.344292	0.000770	20.882168
1474.395421	-3.017200	3.499000	-10.555000	25.335666	0.000768	20.868292
1475.390489	-2.969700	3.500300	-10.394000	25.391015	0.000768	20.875504
1476.393370	-2.998800	3.500800	-10.497000	25.398620	0.000767	20.873183
1477.400569	-3.011700	3.498600	-10.536000	25.444299	0.000768	20.874007
1478.394135	-3.011600	3.498400	-10.535000	25.443130	0.000768	20.862877
1479.396942	-2.985500	3.498900	-10.444000	25.435351	0.000766	20.874978
1480.393113	-3.002800	3.497900	-10.502000	25.406572	0.000768	20.876900
1481.392561	-3.015300	3.496500	-10.541000	25.397674	0.000767	20.881242
1482.394354	-2.996000	3.497600	-10.478000	25.434555	0.000765	20.876550
1483.394526	-3.013200	3.496800	-10.536000	25.444395	0.000765	20.880741
1484.395710	-2.991000	3.496700	-10.458000	25.451453	0.000765	20.856062
1485.395824	-3.005000	3.495800	-10.504000	25.476130	0.000764	20.864246
1486.396381	-2.994400	3.497100	-10.470000	25.454062	0.000765	20.885706
1487.399798	-2.998600	3.494400	-10.477000	25.479908	0.000766	20.870884
1488.396664	-2.978400	3.495400	-10.409000	25.506943	0.000764	20.876697
1489.396329	-2.987200	3.495500	-10.441000	25.493723	0.000763	20.899928
1490.394002	-2.983100	3.494300	-10.423000	25.516907	0.000763	20.890494
1491.397281	-2.972700	3.494400	-10.387000	25.515165	0.000763	20.875944
1492.395247	-2.984100	3.495700	-10.430000	25.527392	0.000762	20.886799
1493.406272	-3.021200	3.491400	-10.547000	25.503411	0.000762	20.885951
1494.404082	-2.997600	3.493100	-10.469000	25.488998	0.000761	20.878590
1495.400555	-3.011400	3.492000	-10.515000	25.493321	0.000759	20.872500
1496.394306	-2.986100	3.493500	-10.431000	25.511187	0.000760	20.868157
1497.395297	-2.991800	3.491200	-10.443000	25.517077	0.000759	20.881657
1498.397689	-2.996900	3.492900	-10.466000	25.522170	0.000757	20.877289
1499.398055	-3.006800	3.490800	-10.495000	25.551543	0.000757	20.888294
1500.395305	-3.003000	3.491600	-10.485000	25.557455	0.000758	20.895653
1501.395929	-2.979700	3.492200	-10.404000	25.576464	0.000758	20.901467
1502.396249	-3.002100	3.490700	-10.478000	25.558870	0.000757	20.889488
1503.395895	-3.008100	3.490200	-10.497000	25.552308	0.000757	20.895226
1504.398807	-2.999200	3.490000	-10.465000	25.539014	0.000755	20.906056
1505.397188	-2.998300	3.490100	-10.464000	25.577504	0.000758	20.892081
1506.396194	-2.995500	3.488800	-10.450000	25.554393	0.000756	20.886415
1507.399884	-3.021500	3.487500	-10.536000	25.568955	0.000756	20.904357
1508.398951	-2.998700	3.489800	-10.464000	25.576283	0.000755	20.904130
1509.399591	-3.003900	3.487900	-10.477000	25.599741	0.000757	20.890706
1510.408376	-3.007600	3.487200	-10.487000	25.561920	0.000754	20.898714
1511.400802	-3.007200	3.485700	-10.481000	25.533739	0.000756	20.889854
1512.398740	-2.987000	3.486400	-10.414000	25.541615	0.000752	20.900608
1513.399189	-3.017400	3.486600	-10.519000	25.537912	0.000753	20.895468
1514.400807	-3.001900	3.485100	-10.460000	25.530058	0.000753	20.890425
1515.399330	-2.997000	3.487400	-10.451000	25.493304	0.000754	20.888129
1516.400685	-3.007300	3.484400	-10.478000	25.477624	0.000754	20.896564
1517.400333	-3.004600	3.485000	-10.470000	25.457988	0.000753	20.914776
1518.404592	-3.009200	3.483300	-10.480000	25.453565	0.000752	20.907965
1519.399581	-3.006100	3.484500	-10.474000	25.428389	0.000751	20.904021
1520.400929	-3.005300	3.484500	-10.471000	25.403982	0.000751	20.916022
1521.403582	-2.978700	3.484600	-10.379000	25.380172	0.000750	20.908236
1522.402264	-2.990100	3.482500	-10.412000	25.351067	0.000748	20.905564
1523.402098	-3.002800	3.482000	-10.454000	25.337694	0.000750	20.908732
1524.402672	-2.995300	3.481700	-10.428000	25.360112	0.000749	20.927920
1525.403409	-2.963700	3.481300	-10.316000	25.371345	0.000749	20.901744
1526.407374	-3.016300	3.481600	-10.501000	25.387077	0.000747	20.921805
1527.403167	-2.991600	3.481500	-10.414000	25.405193	0.000745	20.908703
1528.403673	-3.008000	3.481000	-10.470000	25.390556	0.000746	20.914394
1529.409077	-2.981100	3.481900	-10.379000	25.403849	0.000747	20.913518
1530.406679	-2.985300	3.482100	-10.394000	25.432082	0.000746	20.912470
1531.405149	-3.009700	3.479900	-10.472000	25.426811	0.000744	20.925193
1532.404225	-3.005300	3.480200	-10.458000	25.448855	0.000746	20.930733
1533.406872	-2.983400	3.481200	-10.384000	25.475320	0.000744	20.911793
1534.406773	-2.996900	3.478300	-10.422000	25.467267	0.000743	20.922671
1535.409306	-3.015100	3.477800	-10.484000	25.481753	0.000742	20.924416
1536.407437	-2.985600	3.479700	-10.387000	25.516171	0.000741	20.944752
1537.406559	-2.998800	3.478400	-10.430000	25.507298	0.000742	20.921620
1538.411199	-3.000800	3.478400	-10.436000	25.520395	0.000741	20.928607
1539.407252	-2.970800	3.478200	-10.332000	25.503298	0.000740	20.932300
1540.408755	-3.008300	3.476800	-10.458000	25.506925	0.000741	20.918874
1541.413184	-2.997500	3.477500	-10.421000	25.506974	0.000741	20.932198
1542.408430	-3.006600	3.477300	-10.454000	25.513335	0.000741	20.939533
1543.407956	-2.995300	3.476400	-10.412000	25.547105	0.000740	20.929826
1544.409617	-2.965800	3.477300	-10.311000	25.558162	0.000740	20.946619
1545.409433	-2.995500	3.474600	-10.407000	25.580303	0.000739	20.922390
1546.416962	-3.002900	3.473600	-10.429000	25.564646	0.000739	20.938906
1547.415403	-2.990600	3.476000	-10.394000	25.576497	0.000738	20.940851
1548.412136	-3.023900	3.475000	-10.507000	25.591903	0.000736	20.925030
1549.414565	-3.009300	3.474400	-10.454000	25.602314	0.000737	20.938330
1550.411616	-3.015500	3.472600	-10.470000	25.594711	0.000735	20.962933
1551.412755	-2.986200	3.473300	-10.370000	25.598586	0.000735	20.935534
1552.413508	-3.004500	3.472100	-10.431000	25.578980	0.000736	20.934336
1553.410657	-3.006700	3.471600	-10.436000	25.559150	0.000736	20.939551
1554.410728	-3.012600	3.471200	-10.456000	25.509648	0.000734	20.948632
1555.412592	-3.009000	3.472300	-10.446000	25.488028	0.000734	20.943516
1556.413466	-2.989400	3.471500	-10.377000	25.508479	0.000734	20.955518
1557.412516	-3.015900	3.470500	-10.465000	25.488449	0.000734	20.959585
1558.414455	-3.009600	3.470300	-10.442000	25.457434	0.000730	20.951200
1559.414693	-2.995000	3.470300	-10.392000	25.466926	0.000733	20.948878
1560.415169	-3.000800	3.469600	-10.411000	25.467623	0.000732	20.965697
1561.413140	-3.003000	3.469000	-10.417000	25.437899	0.000733	20.953394
1562.414187	-2.999200	3.469400	-10.405000	25.454723	0.000730	20.948952
1563.413988	-3.021200	3.466900	-10.473000	25.475971	0.000731	20.937099
1564.416029	-3.021000	3.467100	-10.473000	25.486556	0.000731	20.931608
1565.415272	-3.018800	3.466900	-10.464000	25.484145	0.000730	20.961426
1566.414968	-3.009700	3.468100	-10.437000	25.494731	0.000730	20.953092
1567.419835	-2.978700	3.467800	-10.328000	25.519084	0.000729	20.952417
1568.421831	-3.006800	3.466200	-10.421000	25.506833	0.000728	20.951494
1569.417860	-2.997600	3.467000	-10.392000	25.492990	0.000729	20.957507
1570.424671	-3.019400	3.464500	-10.459000	25.483371	0.000729	20.975819
1571.423430	-3.007900	3.464900	-10.421000	25.481631	0.000728	20.962220
1572.416904	-2.980900	3.466200	-10.330000	25.510855	0.000726	20.962645
1573.422559	-3.000800	3.465600	-10.399000	25.535060	0.000725	20.958503
1574.423417	-2.995900	3.465100	-10.380000	25.541868	0.000726	20.954910
1575.419984	-3.002900	3.463300	-10.399000	25.529318	0.000726	20.955582
1576.423259	-3.005900	3.463400	-10.410000	25.556105	0.000725	20.949767
1577.426013	-3.000400	3.465000	-10.395000	25.546637	0.000724	20.948320
1578.421258	-3.000600	3.463200	-10.391000	25.519352	0.000725	20.983502
1579.423498	-3.000000	3.463100	-10.388000	25.516816	0.000724	20.979534
1580.427012	-3.014300	3.462300	-10.436000	25.515251	0.000723	20.960895
1581.421225	-3.009700	3.461800	-10.418000	25.488189	0.000723	20.966909
1582.424629	-2.987400	3.462600	-10.343000	25.483765	0.000721	20.948718
1583.426338	-2.994800	3.460800	-10.363000	25.488535	0.000721	20.974368
1584.422513	-2.979900	3.460500	-10.311000	25.495221	0.000721	20.956902
1585.424418	-2.976400	3.462400	-10.304000	25.480781	0.000720	20.963263
1586.424170	-3.006400	3.459700	-10.399000	25.483416	0.000721	20.950264
1587.422483	-2.993400	3.460600	-10.359000	25.514429	0.000720	20.970973
1588.424524	-3.015900	3.459000	-10.430000	25.540994	0.000720	20.961617
1589.427266	-3.000900	3.459200	-10.379000	25.560152	0.000720	20.970899
1590.422845	-2.984900	3.459700	-10.325000	25.590964	0.000720	20.951111
1591.423125	-3.016200	3.459000	-10.432000	25.607786	0.000718	20.949040
1592.424565	-3.000400	3.459100	-10.378000	25.620533	0.000718	20.959470
1593.423856	-2.986200	3.459500	-10.329000	25.642101	0.000714	20.943201
1594.429114	-3.008800	3.458600	-10.405000	25.648263	0.000716	20.946071
1595.430304	-3.006800	3.457800	-10.396000	25.685631	0.000718	20.957522
1596.427449	-3.011300	3.456400	-10.408000	25.701284	0.000716	20.957123
1597.429166	-3.007600	3.457600	-10.398000	25.717931	0.000714	20.961989
1598.429681	-3.006200	3.456800	-10.390000	25.729185	0.000714	20.959543
1599.428724	-3.007700	3.455500	-10.392000	25.737607	0.000715	20.950934
1600.431138	-3.001900	3.454900	-10.371000	25.717034	0.000713	20.937858
1601.432456	-3.024100	3.454700	-10.445000	25.710899	0.000713	20.945445
1602.428618	-3.009700	3.454800	-10.398000	25.715247	0.000712	20.937485
1603.432873	-3.013100	3.454300	-10.407000	25.723072	0.000712	20.951507
1604.434507	-3.019300	3.454000	-10.427000	25.677629	0.000712	20.943797
1605.430697	-2.988500	3.454100	-10.321000	25.750874	0.000710	20.930597
1606.433680	-2.984400	3.453700	-10.306000	25.712091	0.000710	20.941901
1607.434535	-3.015900	3.452300	-10.411000	25.705283	0.000711	20.924634
1608.432541	-2.997200	3.453900	-10.350000	25.699642	0.000708	20.922288
1609.434519	-3.009600	3.452700	-10.390000	25.690797	0.000710	20.931894
1610.434612	-3.011400	3.451100	-10.392000	25.630445	0.000709	20.941926
1611.433921	-2.999500	3.452200	-10.354000	25.618244	0.000708	20.939630
1612.434234	-3.007900	3.451300	-10.380000	25.614890	0.000706	20.944321
1613.445555	-2.992400	3.451200	-10.326000	25.669728	0.000707	20.928751
1614.434619	-2.992500	3.450300	-10.323000	25.672436	0.000705	20.954701
1615.437631	-3.003300	3.450100	-10.361000	25.702352	0.000704	20.923112
1616.437364	-3.001400	3.449200	-10.351000	25.703420	0.000705	20.925607
1617.437669	-3.001500	3.450200	-10.354000	25.675891	0.000706	20.912183
1618.438884	-3.002000	3.449300	-10.354000	25.683543	0.000704	20.917498
1619.437970	-3.003000	3.449700	-10.359000	25.664313	0.000705	20.927580
1620.438742	-2.982700	3.450200	-10.289000	25.629676	0.000702	20.916027
1621.438899	-2.994400	3.447900	-10.323000	25.613153	0.000702	20.923138
1622.438683	-2.996600	3.447000	-10.327000	25.613053	0.000700	20.953381
1623.439194	-2.999900	3.448100	-10.343000	25.573148	0.000704	20.941280
1624.439355	-3.017300	3.445600	-10.395000	25.576078	0.000702	20.919570
1625.438063	-2.981000	3.447700	-10.277000	25.596977	0.000702	20.918747
1626.439476	-3.023800	3.445400	-10.417000	25.599039	0.000702	20.927929
1627.439417	-3.005300	3.447300	-10.360000	25.626720	0.000703	20.913532
1628.439270	-3.014600	3.444200	-10.382000	25.646673	0.000701	20.928829
1629.439654	-2.996700	3.444200	-10.321000	25.619862	0.000699	20.920869
1630.439799	-2.991500	3.445000	-10.304000	25.622522	0.000700	20.913583
1631.439714	-3.012000	3.442900	-10.368000	25.610098	0.000698	20.930501
1632.439051	-2.990300	3.444000	-10.298000	25.642375	0.000698	20.919771
1633.440396	-3.005100	3.442600	-10.344000	25.656165	0.000699	20.914181
1634.443865	-3.015700	3.441700	-10.377000	25.621155	0.000699	20.902728
1635.440860	-3.004700	3.440400	-10.337000	25.609129	0.000699	20.907245
1636.441034	-2.999900	3.442200	-10.325000	25.593797	0.000699	20.902279
1637.445263	-3.020400	3.440800	-10.391000	25.562762	0.000698	20.905249
1638.443021	-3.014700	3.441600	-10.375000	25.600034	0.000697	20.918024
1639.442177	-3.014900	3.441400	-10.375000	25.580851	0.000698	20.879322
1640.447428	-3.014800	3.439500	-10.367000	25.620708	0.000695	20.907020
1641.444130	-2.976500	3.441500	-10.242000	25.596879	0.000697	20.891150
1642.445542	-2.985100	3.442300	-10.274000	25.575211	0.000696	20.903527
1643.447231	-3.016200	3.439100	-10.372000	25.556027	0.000695	20.906546
1644.447707	-3.020100	3.440700	-10.390000	25.572949	0.000695	20.900308
1645.447456	-2.993600	3.440900	-10.299000	25.567059	0.000695	20.902453
1646.448229	-3.005800	3.440100	-10.339000	25.532294	0.000692	20.907842
1647.450165	-2.995200	3.437700	-10.295000	25.550037	0.000693	20.897686
1648.448826	-2.987800	3.438000	-10.270000	25.573643	0.000692	20.884411
1649.452768	-2.994000	3.438500	-10.294000	25.575607	0.000692	20.896814
1650.450036	-2.983200	3.439100	-10.258000	25.588429	0.000692	20.928653
1651.451651	-2.997600	3.437500	-10.303000	25.633602	0.000691	20.905746
1652.454679	-2.989400	3.436700	-10.272000	25.637055	0.000690	20.911585
1653.451660	-3.035000	3.435100	-10.424000	25.662052	0.000690	20.898285
1654.452076	-2.995000	3.437800	-10.295000	25.681084	0.000689	20.892745
1655.450759	-2.995800	3.436600	-10.294000	25.685432	0.000690	20.891422
1656.452306	-3.003400	3.434300	-10.313000	25.669331	0.000691	20.895639
1657.451950	-2.980400	3.437000	-10.243000	25.676263	0.000690	20.876998
1658.452979	-2.988900	3.433900	-10.263000	25.680064	0.000690	20.904048
1659.452875	-3.023800	3.435300	-10.387000	25.638718	0.000689	20.894764
1660.464694	-2.997900	3.434300	-10.295000	25.626915	0.000689	20.890022
1661.452644	-2.988700	3.434800	-10.265000	25.623361	0.000687	20.874126
1662.454378	-3.010600	3.432000	-10.331000	25.634667	0.000686	20.899229
1663.453290	-3.009000	3.432600	-10.328000	25.654122	0.000686	20.884157
1664.452536	-3.017400	3.433500	-10.359000	25.670521	0.000688	20.892567
1665.460280	-2.998200	3.433100	-10.292000	25.679987	0.000686	20.912979
1666.454042	-3.010800	3.431500	-10.331000	25.702770	0.000685	20.901249
1667.454560	-2.994700	3.430700	-10.273000	25.706795	0.000685	20.890595
1668.454813	-3.004400	3.432100	-10.310000	25.727689	0.000685	20.886451
1669.457085	-3.010800	3.430900	-10.329000	25.737081	0.000683	20.874548
1670.456638	-3.006200	3.432100	-10.317000	25.746794	0.000684	20.881460
1671.458081	-3.008800	3.430500	-10.321000	25.759540	0.000683	20.874822
1672.454934	-3.015800	3.430400	-10.345000	25.723192	0.000682	20.883830
1673.453867	-2.990700	3.429400	-10.255000	25.700358	0.000680	20.868957
1674.457026	-3.002100	3.429300	-10.293000	25.655335	0.000681	20.883005
1675.457139	-2.991500	3.429700	-10.259000	25.637495	0.000680	20.873148
1676.457466	-3.006100	3.427800	-10.303000	25.600745	0.000680	20.896929
1677.459229	-2.986800	3.429600	-10.242000	25.595327	0.000681	20.869205
1678.459109	-3.009000	3.427500	-10.313000	25.549183	0.000681	20.869804
1679.457800	-3.009200	3.427200	-10.312000	25.508379	0.000679	20.885250
1680.459598	-3.008300	3.426700	-10.307000	25.491133	0.000679	20.898750
1681.459204	-3.001700	3.426500	-10.284000	25.491977	0.000679	20.874469
1682.460034	-3.022700	3.426700	-10.357000	25.481812	0.000678	20.868530
1683.459851	-2.977200	3.426400	-10.199000	25.502338	0.000677	20.862590
1684.461436	-2.995900	3.426900	-10.266000	25.522816	0.000674	20.881730
1685.461219	-2.990700	3.425800	-10.244000	25.514367	0.000676	20.878935
1686.461001	-3.001200	3.423900	-10.274000	25.506636	0.000677	20.862639
1687.462488	-2.983300	3.425600	-10.217000	25.512577	0.000674	20.878087
1688.463802	-2.991800	3.423300	-10.240000	25.560387	0.000676	20.868253
1689.463859	-2.983100	3.424800	-10.215000	25.554100	0.000677	20.882328
1690.462681	-2.988800	3.424800	-10.235000	25.546621	0.000674	20.884300
1691.462255	-2.983000	3.424500	-10.215000	25.552112	0.000674	20.875590
1692.463594	-2.978800	3.424400	-10.198000	25.572837	0.000674	20.880282
1693.465579	-3.023200	3.422000	-10.344000	25.562177	0.000674	20.860569
1694.464526	-3.008400	3.421500	-10.292000	25.560659	0.000672	20.872320
1695.463397	-2.997500	3.422300	-10.257000	25.571122	0.000671	20.868603
1696.463604	-3.004100	3.421000	-10.276000	25.611327	0.000671	20.885273
1697.466274	-3.007700	3.420600	-10.287000	25.640548	0.000671	20.874319
1698.467326	-2.990800	3.419400	-10.226000	25.632348	0.000673	20.872721
1699.465894	-2.989300	3.421400	-10.226000	25.638933	0.000670	20.879334
1700.468758	-2.982300	3.421200	-10.202000	25.627628	0.000671	20.866084
1701.469237	-2.999900	3.419100	-10.255000	25.663158	0.000672	20.883750
1702.465336	-3.001800	3.420000	-10.264000	25.640623	0.000670	20.872497
1703.471493	-2.999100	3.419500	-10.254000	25.663779	0.000669	20.838383
1704.470718	-3.002100	3.419000	-10.263000	25.687731	0.000669	20.873818
1705.467358	-2.983800	3.418200	-10.198000	25.709173	0.000669	20.851260
1706.471534	-2.998200	3.418200	-10.247000	25.681693	0.000669	20.874392
1707.475039	-3.011600	3.417200	-10.290000	25.639355	0.000668	20.856526
1708.468894	-2.988600	3.418600	-10.216000	25.623079	0.000669	20.876688
1709.474264	-3.013800	3.417100	-10.297000	25.632298	0.000669	20.861766
1710.473738	-2.997700	3.417100	-10.242000	25.623825	0.000668	20.861317
1711.470529	-2.994500	3.415700	-10.228000	25.605114	0.000666	20.856276
1712.503675	-2.991800	3.416300	-10.219000	25.646014	0.000666	20.846145
1713.472144	-3.004900	3.415600	-10.262000	25.624198	0.000666	20.856002
1714.473617	-3.010300	3.415500	-10.280000	25.614233	0.000667	20.862115
1715.476727	-3.007900	3.414900	-10.270000	25.602057	0.000664	20.873119
1716.476585	-2.993700	3.415100	-10.223000	25.649691	0.000666	20.879233
1717.472539	-3.001600	3.414900	-10.248000	25.635551	0.000664	20.847964
1718.474409	-2.986000	3.414700	-10.195000	25.624668	0.000663	20.861689
1719.478804	-2.995900	3.415000	-10.230000	25.591744	0.000664	20.862762
1720.474933	-3.008700	3.413300	-10.269000	25.560585	0.000663	20.851858
1721.478354	-2.984700	3.414700	-10.191000	25.581655	0.000662	20.865906
1722.492262	-2.985600	3.413500	-10.190000	25.550793	0.000662	20.860990
1723.472726	-2.984500	3.413900	-10.188000	25.523656	0.000662	20.838955
1724.474922	-3.008400	3.412200	-10.264000	25.547462	0.000659	20.827300
1725.473316	-3.042400	3.410400	-10.375000	25.566844	0.000659	20.862411
1726.474247	-3.014100	3.410500	-10.278000	25.604813	0.000658	20.850283
1727.478468	-3.007400	3.410600	-10.256000	25.653391	0.000658	20.850234
1728.474696	-2.988000	3.412300	-10.195000	25.681517	0.000658	20.860939
1729.474281	-3.015900	3.409400	-10.281000	25.702734	0.000657	20.857594
1730.478494	-2.997300	3.411200	-10.222000	25.719629	0.000658	20.868400
1731.475489	-2.997000	3.408500	-10.215000	25.741444	0.000658	20.835311
1732.475540	-2.995200	3.410200	-10.213000	25.699406	0.000656	20.846665
1733.492013	-2.996900	3.410200	-10.218000	25.701195	0.000656	20.840876
1734.476486	-3.000400	3.409800	-10.229000	25.716649	0.000657	20.850234
1735.476479	-2.993600	3.408100	-10.202000	25.707208	0.000657	20.850234
1736.478421	-2.973700	3.409100	-10.136000	25.685716	0.000653	20.830545
1737.478179	-3.009800	3.406900	-10.253000	25.684796	0.000656	20.836733
1738.476578	-2.996800	3.406700	-10.209000	25.630307	0.000654	20.834164
1739.479191	-2.983400	3.407700	-10.165000	25.612765	0.000652	20.840253
1740.478058	-3.009400	3.408000	-10.255000	25.581531	0.000653	20.853928
1741.477194	-2.994600	3.406200	-10.199000	25.592514	0.000653	20.840777
1742.478187	-2.992300	3.406000	-10.191000	25.600390	0.000653	20.847738
1743.476895	-3.002600	3.406400	-10.228000	25.625735	0.000653	20.839528
1744.476826	-3.004600	3.405600	-10.231000	25.611000	0.000650	20.825204
1745.482295	-3.017400	3.405300	-10.274000	25.607919	0.000653	20.829696
1746.494201	-2.986900	3.406300	-10.173000	25.616814	0.000650	20.839577
1747.479970	-2.982900	3.405400	-10.157000	25.629412	0.000649	20.834212
1748.481620	-2.994100	3.404800	-10.193000	25.657290	0.000649	20.834711
1749.480711	-3.013500	3.403600	-10.255000	25.683255	0.000648	20.830918
1750.481323	-2.991000	3.404400	-10.182000	25.678734	0.000649	20.839179
1751.483153	-3.019100	3.404200	-10.277000	25.691776	0.000645	20.829520
1752.481401	-3.018700	3.401400	-10.267000	25.680746	0.000646	20.819864
1753.482380	-2.978800	3.405800	-10.144000	25.679206	0.000648	20.819265
1754.482730	-3.007200	3.401800	-10.229000	25.719306	0.000646	20.833463
1755.481974	-3.004400	3.400400	-10.214000	25.709368	0.000646	20.834861
1756.482003	-3.004000	3.402600	-10.220000	25.692895	0.000647	20.813100
1757.483253	-3.019700	3.401400	-10.269000	25.676223	0.000645	20.812951
1758.481334	-2.998800	3.400400	-10.197000	25.661240	0.000644	20.830617
1759.486298	-3.000700	3.400900	-10.204000	25.663897	0.000645	20.833761
1760.483308	-2.983700	3.400400	-10.145000	25.649238	0.000643	20.825676
1761.484683	-3.004600	3.399800	-10.213000	25.626602	0.000645	20.829494
1762.485891	-2.996000	3.398800	-10.182000	25.576161	0.000645	20.841423
1763.484919	-3.005100	3.400500	-10.218000	25.581229	0.000643	20.821383
1764.484918	-2.991800	3.398800	-10.168000	25.575936	0.000642	20.817964
1765.484049	-3.000600	3.398100	-10.195000	25.569425	0.000641	20.815219
1766.486616	-3.005700	3.398800	-10.215000	25.536698	0.000642	20.826922
1767.484782	-2.985000	3.398100	-10.142000	25.566667	0.000639	20.823354
1768.483900	-2.997100	3.398200	-10.184000	25.566219	0.000640	20.818163
1769.485685	-2.988300	3.397400	-10.152000	25.601901	0.000639	20.814170
1770.485846	-3.006700	3.396400	-10.212000	25.627021	0.000640	20.818535
1771.483905	-2.995100	3.398200	-10.176000	25.653732	0.000637	20.825448
1772.485710	-3.012600	3.396000	-10.230000	25.670305	0.000638	20.826446
1773.486846	-3.029100	3.394700	-10.281000	25.678852	0.000638	20.803263
1774.486476	-2.991700	3.394600	-10.155000	25.705138	0.000638	20.805482
1775.488235	-2.982600	3.395700	-10.126000	25.724468	0.000637	20.824897
1776.486693	-2.986100	3.396300	-10.141000	25.777908	0.000636	20.814092
1777.486444	-2.992500	3.394100	-10.155000	25.760094	0.000637	20.801887
1778.488026	-3.005200	3.393900	-10.198000	25.784342	0.000636	20.812968
1779.487429	-2.997500	3.393400	-10.171000	25.805334	0.000636	20.814139
1780.488416	-3.007000	3.394000	-10.205000	25.798453	0.000633	20.808176
1781.487439	-2.996000	3.392400	-10.163000	25.792341	0.000634	20.815787
1782.486409	-2.976000	3.393300	-10.097000	25.763298	0.000635	20.795148
1783.489317	-3.009100	3.392800	-10.209000	25.783744	0.000634	20.819954
1784.489636	-2.995400	3.393200	-10.164000	25.803370	0.000635	20.806951
1785.488241	-3.011200	3.392300	-10.214000	25.812910	0.000633	20.813689
1786.488768	-3.015700	3.391100	-10.226000	25.789533	0.000631	20.794474
1787.489936	-3.003600	3.391800	-10.186000	25.782278	0.000632	20.819903
1788.488689	-2.994400	3.392000	-10.156000	25.738475	0.000632	20.804829
1789.488340	-3.013100	3.390100	-10.214000	25.719370	0.000632	20.813139
1790.488853	-3.005700	3.390400	-10.189000	25.747743	0.000631	20.794223
1791.490417	-3.024000	3.390400	-10.252000	25.719319	0.000631	20.817830
1792.487785	-2.982500	3.390200	-10.111000	25.761431	0.000629	20.794696
1793.490738	-3.007500	3.389000	-10.192000	25.775666	0.000629	20.809468
1794.487051	-3.027800	3.388900	-10.260000	25.782175	0.000629	20.800360
1795.487990	-3.004800	3.389400	-10.184000	25.779069	0.000628	20.799611
1796.490580	-2.996600	3.389300	-10.156000	25.759492	0.000627	20.789429
1797.491466	-3.001500	3.388100	-10.168000	25.723689	0.000625	20.793296
1798.490095	-2.992500	3.388400	-10.139000	25.693848	0.000625	20.806945
1799.492095	-2.989300	3.387600	-10.125000	25.706471	0.000625	20.803503
1800.494320	-3.013500	3.388500	-10.210000	25.686444	0.000626	20.816104
1801.491657	-2.993300	3.387600	-10.140000	25.686319	0.000625	20.793219
1802.492432	-3.009800	3.386900	-10.193000	25.702594	0.000626	20.790599
1803.512961	-3.005200	3.386700	-10.177000	25.690890	0.000624	20.805396
1804.493383	-2.981000	3.386600	-10.094000	25.668255	0.000624	20.777920
1805.495394	-3.003200	3.385700	-10.166000	25.689995	0.000622	20.813507
1806.496838	-2.988500	3.385800	-10.117000	25.722715	0.000622	20.798481
1807.495579	-3.019800	3.385200	-10.221000	25.714665	0.000621	20.788973
1808.494706	-3.008200	3.385100	-10.182000	25.720803	0.000624	20.799880
1809.495865	-3.001100	3.384600	-10.157000	25.708304	0.000623	20.803447
1810.496758	-2.990400	3.384000	-10.118000	25.706266	0.000624	20.808512
1811.496451	-2.981000	3.384000	-10.087000	25.741149	0.000621	20.786651
1812.496899	-2.997500	3.383100	-10.140000	25.730018	0.000621	20.806765
1813.500966	-3.022500	3.382900	-10.223000	25.742340	0.000621	20.817245
1814.498534	-2.996800	3.383300	-10.138000	25.764402	0.000621	20.814276
1815.501913	-3.002700	3.383200	-10.158000	25.762514	0.000621	20.798629
1816.500909	-2.992400	3.382300	-10.120000	25.776551	0.000620	20.801822
1817.498080	-2.971600	3.382700	-10.051000	25.789867	0.000621	20.789120
1818.501760	-3.007700	3.381900	-10.171000	25.772673	0.000620	20.807885
1819.501582	-2.995300	3.381900	-10.129000	25.776176	0.000621	20.807136
1820.502175	-3.007000	3.381500	-10.167000	25.764648	0.000618	20.793186
1821.501406	-2.997300	3.383400	-10.139000	25.774362	0.000619	20.798676
1822.503822	-3.043000	3.377900	-10.278000	25.758163	0.000617	20.810379
1823.500710	-3.005500	3.380100	-10.158000	25.761367	0.000616	20.806485
1824.503559	-3.002200	3.378900	-10.144000	25.762360	0.000615	20.796103
1825.505718	-3.005700	3.378500	-10.154000	25.791229	0.000617	20.799971
1826.502089	-2.994200	3.379300	-10.118000	25.796172	0.000615	20.811574
1827.503348	-3.013700	3.377500	-10.177000	25.786285	0.000615	20.804962
1828.505018	-3.000600	3.379800	-10.140000	25.793439	0.000615	20.794605
1829.509482	-3.004700	3.378000	-10.149000	25.778283	0.000613	20.778907
1830.505273	-3.015900	3.377500	-10.185000	25.756693	0.000614	20.789937
1831.503814	-3.014200	3.376200	-10.175000	25.732320	0.000614	20.775886
1832.503416	-3.004700	3.377300	-10.147000	25.712070	0.000613	20.802962
1833.508002	-2.988400	3.377900	-10.093000	25.716641	0.000611	20.791432
1834.505730	-3.009500	3.376800	-10.161000	25.759523	0.000611	20.788986
1835.504861	-3.005100	3.375500	-10.144000	25.762828	0.000611	20.791832
1836.509927	-3.005400	3.374500	-10.140000	25.799870	0.000612	20.795375
1837.508604	-3.009600	3.374800	-10.156000	25.816938	0.000609	20.785019
1838.505517	-3.012300	3.374000	-10.163000	25.836116	0.000610	20.805706
1839.507790	-2.994600	3.375700	-10.108000	25.813707	0.000608	20.806429
1840.510732	-2.985300	3.374600	-10.074000	25.825755	0.000608	20.816635
1841.507604	-3.003900	3.373500	-10.133000	25.833034	0.000610	20.803558
1842.510115	-3.018700	3.373600	-10.183000	25.858945	0.000608	20.788335
1843.510594	-2.994000	3.374200	-10.100000	25.886270	0.000607	20.786862
1844.507309	-2.999000	3.374000	-10.117000	25.881202	0.000606	20.791728
1845.510995	-3.004300	3.372800	-10.132000	25.883637	0.000608	20.814089
1846.515610	-2.991300	3.372900	-10.088000	25.922065	0.000605	20.785838
1847.509122	-2.976500	3.373500	-10.040000	25.911955	0.000607	20.815036
1848.514098	-2.986500	3.372900	-10.072000	25.876257	0.000607	20.809046
1849.516151	-3.001300	3.372100	-10.120000	25.869848	0.000604	20.803081
1850.509158	-2.996100	3.372300	-10.103000	25.891335	0.000604	20.807598
1851.514363	-2.979700	3.372100	-10.047000	25.893398	0.000605	20.799238
1852.512554	-3.022500	3.370100	-10.184000	25.896501	0.000603	20.803305
1853.512266	-2.997800	3.370200	-10.101000	25.864927	0.000604	20.791026
1854.515480	-3.005000	3.370400	-10.128000	25.839513	0.000602	20.818601
1855.516518	-2.988200	3.369700	-10.068000	25.831860	0.000600	20.799060
1856.515787	-2.980100	3.370500	-10.043000	25.827787	0.000601	20.791175
1857.519074	-2.986200	3.368700	-10.059000	25.822644	0.000600	20.795492
1858.517069	-3.005200	3.370100	-10.128000	25.817625	0.000601	20.793296
1859.516101	-2.987600	3.369300	-10.065000	25.817326	0.000599	20.788254
1860.519463	-2.995400	3.368900	-10.091000	25.810791	0.000599	20.808716
1861.515668	-3.015600	3.368700	-10.157000	25.793997	0.000597	20.802277
1862.515731	-3.013500	3.367700	-10.147000	25.768283	0.000597	20.810588
1863.518889	-3.017800	3.367800	-10.161000	25.773897	0.000597	20.803425
1864.519355	-3.019800	3.366900	-10.166000	25.795461	0.000597	20.816076
1865.521066	-2.978400	3.368200	-10.030000	25.811485	0.000596	20.790921
1866.519897	-2.967600	3.368000	-9.994200	25.815286	0.000595	20.814179
1867.519098	-3.016700	3.366700	-10.155000	25.836799	0.000594	20.817298
1868.521309	-2.994300	3.365400	-10.075000	25.834638	0.000594	20.801850
1869.523012	-2.969100	3.366200	-9.992700	25.827855	0.000594	20.795037
1870.520064	-2.985000	3.366400	-10.048000	25.831805	0.000595	20.817022
1871.517591	-3.002400	3.365400	-10.103000	25.829420	0.000592	20.805618
1872.540239	-3.010100	3.364900	-10.128000	25.872993	0.000593	20.821414
1873.518875	-2.994400	3.364800	-10.075000	25.879029	0.000595	20.808037
1874.520779	-2.999300	3.364300	-10.090000	25.865466	0.000592	20.788722
1875.526169	-2.996000	3.364200	-10.078000	25.860249	0.000591	20.790594
1876.523471	-2.983800	3.363400	-10.035000	25.861119	0.000591	20.816124
1877.523407	-3.009800	3.362900	-10.120000	25.880023	0.000592	20.812355
1878.522864	-2.968700	3.364800	-9.987900	25.885290	0.000589	20.821913
1879.523375	-2.980800	3.363100	-10.023000	25.887675	0.000590	20.819567
1880.522906	-2.988300	3.363100	-10.049000	25.892022	0.000590	20.804968
1881.521837	-3.008500	3.362600	-10.115000	25.880272	0.000591	20.801700
1882.521505	-3.011500	3.361300	-10.121000	25.853940	0.000589	20.830248
1883.521563	-3.023700	3.360600	-10.160000	25.864150	0.000587	20.814901
1884.523341	-3.019200	3.359900	-10.143000	25.826340	0.000588	20.819593
1885.522667	-3.008300	3.360100	-10.106000	25.823011	0.000589	20.820516
1886.523033	-2.990800	3.361100	-10.051000	25.814166	0.000587	20.815425
1887.525882	-3.004500	3.360000	-10.094000	25.817793	0.000586	20.813378
1888.522868	-3.024900	3.358300	-10.158000	25.802963	0.000587	20.834991
1889.524261	-3.027800	3.359500	-10.172000	25.803335	0.000586	20.837261
1890.523492	-3.005200	3.360200	-10.097000	25.800826	0.000585	20.824309
1891.522788	-2.994600	3.358100	-10.055000	25.772131	0.000584	20.830573
1892.523951	-2.990400	3.358400	-10.041000	25.772303	0.000585	20.807513
1893.525896	-3.026100	3.358300	-10.161000	25.748528	0.000583	20.814925
1894.525323	-3.016500	3.358700	-10.130000	25.748230	0.000584	20.818420
1895.526862	-3.007200	3.356800	-10.094000	25.729968	0.000583	20.826155
1896.525817	-2.989500	3.357300	-10.035000	25.754167	0.000584	20.822012
1897.528798	-3.011000	3.356000	-10.103000	25.771459	0.000583	20.810932
1898.528708	-2.979200	3.357100	-10.001000	25.821047	0.000581	20.826130
1899.527381	-2.998500	3.355700	-10.061000	25.814985	0.000585	20.831420
1900.525722	-3.011100	3.357500	-10.109000	25.835529	0.000582	20.830247
1901.527949	-3.023300	3.355200	-10.143000	25.839702	0.000581	20.824955
1902.530683	-2.987900	3.355300	-10.024000	25.838410	0.000580	20.818442
1903.528518	-2.974400	3.355800	-9.980400	25.813792	0.000579	20.812204
1904.528565	-2.981700	3.355800	-10.004000	25.832697	0.000579	20.808435
1905.528602	-2.977500	3.355100	-9.988400	25.821267	0.000579	20.868075
1906.528345	-3.000100	3.354300	-10.062000	25.764028	0.000579	20.825279
1907.530914	-3.014800	3.352100	-10.105000	25.728276	0.000577	20.827300
1908.531987	-2.980300	3.355300	-9.999200	25.733642	0.000575	20.801396
1909.529934	-2.985000	3.353900	-10.010000	25.749468	0.000576	20.839102
1910.530759	-3.000800	3.354000	-10.064000	25.806485	0.000575	20.820037
1911.532337	-2.977800	3.354600	-9.989200	25.813913	0.000576	20.827972
1912.532731	-3.001200	3.352900	-10.062000	25.826806	0.000575	20.824329
1913.530781	-2.992300	3.351900	-10.029000	25.807602	0.000576	20.831116
1914.533982	-2.980900	3.352600	-9.992900	25.820470	0.000575	20.825550
1915.530936	-2.977800	3.352700	-9.983100	25.790707	0.000575	20.816991
1916.531340	-2.997200	3.350300	-10.040000	25.804868	0.000574	20.849232
1917.532804	-2.992900	3.350200	-10.026000	25.826854	0.000572	20.843816
1918.531422	-2.994700	3.352000	-10.037000	25.849610	0.000571	20.834907
1919.532261	-2.987900	3.350800	-10.010000	25.871595	0.000570	20.830441
1920.534958	-2.977300	3.350600	-9.974300	25.909502	0.000571	20.843391
1921.533695	-3.010800	3.349200	-10.082000	25.934740	0.000572	20.855469
1922.532233	-2.990600	3.349500	-10.016000	25.944627	0.000570	20.831737
1923.536270	-2.978900	3.351200	-9.982100	25.995473	0.000567	20.849155
1924.532445	-2.990100	3.349300	-10.014000	25.993337	0.000569	20.833733
1925.532058	-2.985300	3.349000	-9.996900	25.987697	0.000567	20.828541
1926.537010	-3.000400	3.347700	-10.044000	25.991894	0.000568	20.849827
1927.532882	-3.002500	3.348100	-10.052000	25.998526	0.000567	20.821877
1928.533761	-3.006100	3.347600	-10.062000	26.004512	0.000569	20.842115
1929.534848	-3.028500	3.345300	-10.130000	26.031686	0.000565	20.857088
1930.533244	-2.993700	3.347900	-10.023000	26.056250	0.000567	20.853319
1931.534145	-3.009100	3.347100	-10.071000	26.078131	0.000565	20.828839
1932.537834	-3.000400	3.346500	-10.038000	26.108630	0.000564	20.853793
1933.535328	-2.996600	3.346300	-10.026000	26.099366	0.000568	20.834053
1934.536826	-2.983700	3.346400	-9.983000	26.075373	0.000565	20.849300
1935.539341	-2.987100	3.347000	-9.995700	26.065760	0.000563	20.845331
1936.536753	-3.007500	3.345500	-10.061000	26.021175	0.000563	20.840838
1937.538172	-3.040200	3.344900	-10.168000	26.019510	0.000562	20.869510
1938.540023	-2.984700	3.344400	-9.980300	26.014890	0.000562	20.833102
1939.539168	-3.011100	3.344400	-10.069000	26.012878	0.000563	20.859054
1940.537588	-2.999300	3.344400	-10.030000	26.039529	0.000562	20.847425
1941.537332	-3.008300	3.343000	-10.056000	26.044422	0.000560	20.849496
1942.536074	-3.002800	3.343600	-10.039000	26.083515	0.000561	20.851317
1943.539811	-3.006700	3.343600	-10.052000	26.118187	0.000560	20.847274
1944.539965	-3.020300	3.341100	-10.090000	26.103135	0.000557	20.848271
1945.537942	-3.027400	3.341700	-10.116000	26.090643	0.000561	20.847099
1946.538519	-2.992300	3.344000	-10.005000	26.098366	0.000559	20.846324
1947.541214	-2.985900	3.343200	-9.980500	26.101768	0.000559	20.835993
1948.540239	-2.971100	3.342400	-9.929300	26.078893	0.000558	20.866586
1949.540972	-3.010000	3.341100	-10.056000	26.028994	0.000558	20.847272
1950.542150	-3.023200	3.340700	-10.098000	26.010960	0.000557	20.859024
1951.540339	-3.002400	3.340500	-10.027000	25.990467	0.000555	20.855505
1952.541121	-2.996600	3.339600	-10.006000	25.959417	0.000556	20.858449
1953.541263	-2.994500	3.340700	-10.002000	25.956610	0.000556	20.843301
1954.541566	-3.017300	3.337800	-10.070000	25.961727	0.000555	20.871200
1955.542099	-3.002000	3.339600	-10.025000	25.982889	0.000552	20.868753
1956.543022	-3.025400	3.338600	-10.100000	25.962422	0.000554	20.853881
1957.540969	-3.007700	3.339500	-10.044000	26.004524	0.000554	20.845920
1958.541800	-3.027600	3.337800	-10.105000	26.041384	0.000555	20.861616
1959.543097	-2.994900	3.338300	-9.996700	26.053132	0.000554	20.856350
1960.540720	-3.006700	3.337500	-10.034000	26.055838	0.000553	20.877560
1961.542537	-3.011400	3.337500	-10.049000	26.000424	0.000551	20.859818
1962.543537	-3.002200	3.336400	-10.016000	25.986141	0.000552	20.867279
1963.543888	-2.996300	3.336400	-9.995700	25.981396	0.000551	20.879581
1964.546216	-2.991700	3.336500	-9.981300	25.964480	0.000552	20.867802
1965.546215	-2.985500	3.336300	-9.959400	25.979185	0.000550	20.874988
1966.546360	-2.992800	3.336600	-9.984900	25.979433	0.000549	20.860540
1967.543812	-2.978700	3.336500	-9.937000	26.008345	0.000552	20.870621
1968.545136	-3.008900	3.335800	-10.035000	26.020268	0.000547	20.882599
1969.543415	-2.987600	3.336300	-9.966300	26.044485	0.000548	20.881800
1970.544499	-3.009100	3.335100	-10.035000	26.059238	0.000548	20.862485
1971.547810	-2.987300	3.336000	-9.964700	26.078412	0.000547	20.861836
1972.549763	-3.000900	3.334500	-10.005000	26.057573	0.000547	20.876933
1973.545249	-2.986100	3.333600	-9.953700	26.074885	0.000546	20.881998
1974.550860	-3.004800	3.334100	-10.018000	26.086260	0.000544	20.891056
1975.547292	-2.991600	3.333400	-9.971000	26.092096	0.000546	20.876533
1976.547102	-3.012400	3.331200	-10.034000	26.076747	0.000543	20.882921
1977.549809	-3.007000	3.331600	-10.017000	26.075032	0.000543	20.877405
1978.548117	-3.001500	3.331300	-9.998200	26.102675	0.000542	20.866774
1979.549337	-3.006400	3.332400	-10.018000	26.099025	0.000541	20.866899
1980.549700	-2.989400	3.332600	-9.961500	26.097236	0.000542	20.872688
1981.549369	-3.003700	3.332100	-10.007000	26.130714	0.000542	20.891153
1982.550745	-2.982200	3.332500	-9.937900	26.135657	0.000542	20.891852
1983.551318	-3.002600	3.330200	-9.998600	26.175071	0.000541	20.885938
1984.551033	-2.982900	3.330500	-9.933600	26.165036	0.000541	20.882967
1985.548768	-2.997000	3.330300	-9.980100	26.169382	0.000539	20.877852
1986.553463	-2.979700	3.329700	-9.920000	26.117252	0.000539	20.892325
1987.549472	-2.999600	3.328200	-9.981300	26.129844	0.000540	20.886959
1988.550564	-3.011800	3.327600	-10.021000	26.186194	0.000539	20.881469
1989.551276	-2.993300	3.327800	-9.960200	26.185871	0.000538	20.903902
1990.551422	-2.993800	3.327800	-9.961900	26.225780	0.000537	20.891850
1991.552746	-2.980700	3.328300	-9.920000	26.209663	0.000535	20.895567
1992.553782	-3.001700	3.326500	-9.983900	26.209985	0.000536	20.884512
1993.555027	-3.004100	3.327300	-9.994400	26.201317	0.000535	20.904250
1994.561811	-3.015600	3.326000	-10.029000	26.209612	0.000534	20.888405
1995.553895	-3.028100	3.325200	-10.068000	26.187981	0.000535	20.894168
1996.555181	-2.974200	3.327100	-9.895000	26.205092	0.000535	20.889552
1997.556528	-2.990700	3.326400	-9.947200	26.224735	0.000534	20.905497
1998.555668	-3.017200	3.324300	-10.029000	26.233203	0.000533	20.920169
1999.557014	-2.983300	3.326500	-9.923400	26.248427	0.000531	20.899908
2000.564477	-2.994800	3.325500	-9.957800	26.242764	0.000533	20.918871
2001.555942	-2.977700	3.325500	-9.901800	26.207425	0.000531	20.896638
2002.556024	-2.995800	3.324600	-9.958500	26.221879	0.000532	20.910686
2003.560057	-3.000400	3.324100	-9.971500	26.247333	0.000531	20.886482
2004.555284	-2.995000	3.323500	-9.952500	26.263326	0.000531	20.909189
2005.555365	-2.997000	3.322900	-9.958500	26.283986	0.000530	20.924734
2006.556086	-3.004100	3.323600	-9.981800	26.265535	0.000531	20.898609
2007.555792	-3.007400	3.323800	-9.995100	26.277504	0.000531	20.900205
2008.555704	-3.007100	3.321600	-9.987200	26.308644	0.000530	20.879819
2009.555401	-2.996100	3.321800	-9.951500	26.296451	0.000528	20.911185
2010.554698	-3.024400	3.320700	-10.042000	26.311400	0.000528	20.904397
2011.554761	-2.978300	3.322300	-9.892100	26.305242	0.000526	20.909113
2012.572666	-3.009200	3.320700	-9.991300	26.327764	0.000528	20.899032
2013.557405	-3.010100	3.320500	-9.993800	26.348820	0.000527	20.904546
2014.557265	-3.005200	3.320300	-9.976300	26.353190	0.000525	20.902300
2015.556468	-2.993900	3.320200	-9.939700	26.381248	0.000525	20.904421
2016.556978	-2.999500	3.321400	-9.961000	26.344300	0.000525	20.929398
2017.558970	-3.015300	3.319400	-10.007000	26.320338	0.000525	20.929972
2018.558306	-3.010400	3.319400	-9.990900	26.330692	0.000523	20.946541
2019.559464	-2.991500	3.319300	-9.928400	26.299727	0.000524	20.917795
2020.560337	-2.991200	3.318100	-9.924100	26.338514	0.000523	20.923110
2021.565737	-2.996300	3.318500	-9.941900	26.315196	0.000523	20.902049
2022.560220	-3.006800	3.316000	-9.969800	26.247602	0.000522	20.943645
2023.561321	-2.991000	3.317300	-9.920900	26.230666	0.000522	20.913352
2024.562523	-2.991800	3.317000	-9.922600	26.232603	0.000521	20.922410
2025.563217	-3.020400	3.317000	-10.018000	26.256318	0.000521	20.907363
2026.562708	-3.009700	3.315900	-9.978400	26.239456	0.000520	20.916970
2027.562034	-3.029600	3.314600	-10.039000	26.206675	0.000520	20.914374
2028.564058	-2.999300	3.315500	-9.943800	26.242187	0.000520	20.940100
2029.564041	-3.036900	3.315200	-10.067000	26.250134	0.000517	20.897830
2030.563664	-3.023400	3.314500	-10.020000	26.248197	0.000520	20.933338
2031.565780	-2.984400	3.314700	-9.891700	26.292548	0.000518	20.916744
2032.568733	-2.989000	3.315900	-9.910300	26.284725	0.000516	20.906987
2033.564923	-2.992800	3.314300	-9.918000	26.245291	0.000517	20.945115
2034.565392	-2.972500	3.315100	-9.851700	26.248792	0.000516	20.944840
2035.566133	-2.978000	3.314200	-9.868600	26.237220	0.000517	20.956917
2036.566321	-2.971900	3.312500	-9.842800	26.249610	0.000516	20.937603
2037.566310	-3.001200	3.311400	-9.936500	26.265827	0.000514	20.931615
2038.566324	-2.984300	3.313600	-9.887400	26.299449	0.000515	20.939799
2039.564986	-3.002700	3.311000	-9.940800	26.291031	0.000513	20.940347
2040.566333	-3.025200	3.311200	-10.016000	26.303571	0.000512	20.949629
2041.566088	-2.986200	3.312600	-9.890700	26.350701	0.000513	20.946261
2042.566260	-3.006600	3.310200	-9.951500	26.318445	0.000513	20.947034
2043.567011	-2.999100	3.310700	-9.927500	26.281271	0.000510	20.937652
2044.568050	-2.992100	3.310500	-9.903900	26.259741	0.000510	20.945886
2045.566206	-3.008100	3.309200	-9.953500	26.230089	0.000509	20.942167
2046.568234	-3.015700	3.308800	-9.977000	26.237365	0.000511	20.948056
2047.569938	-2.981400	3.311600	-9.872000	26.234957	0.000511	20.953695
2048.566734	-2.996300	3.308700	-9.912800	26.211215	0.000508	20.963027
2049.570197	-2.985900	3.308800	-9.879100	26.228375	0.000508	20.943289
2050.568054	-3.013600	3.307000	-9.964900	26.241089	0.000508	20.934730
2051.569634	-3.023000	3.306200	-9.993300	26.273571	0.000505	20.950774
2052.570021	-2.999100	3.308400	-9.921200	26.275210	0.000506	20.937251
2053.570524	-2.961500	3.309600	-9.800700	26.294827	0.000504	20.934206
2054.570208	-3.014300	3.307500	-9.968800	26.290233	0.000506	20.949501
2055.570710	-2.975700	3.307400	-9.840000	26.237016	0.000505	20.947231
2056.572706	-3.008900	3.306300	-9.947800	26.201628	0.000502	20.964298
2057.571627	-2.975800	3.307000	-9.839900	26.182778	0.000503	20.942515
2058.572873	-2.989700	3.306200	-9.883400	26.192116	0.000503	20.941467
2059.571725	-3.015500	3.304100	-9.963100	26.203962	0.000502	20.940094
2060.576789	-2.987900	3.305600	-9.875900	26.228299	0.000500	20.962177
2061.573405	-2.970300	3.306300	-9.819400	26.247818	0.000500	20.967092
2062.575689	-2.993100	3.306300	-9.894600	26.314419	0.000499	20.949626
2063.574830	-2.973400	3.304600	-9.825300	26.335600	0.000500	20.955739
2064.573842	-2.987800	3.304300	-9.872200	26.346899	0.000497	20.944336
2065.575734	-3.004700	3.304400	-9.927700	26.336371	0.000498	20.955565
2066.573630	-2.999300	3.302700	-9.904100	26.340442	0.000497	20.960605
2067.575892	-3.007200	3.302800	-9.931800	26.310570	0.000496	20.972307
2068.575310	-3.003100	3.302800	-9.917100	26.273943	0.000497	20.947356
2069.575018	-3.005500	3.302300	-9.924000	26.268182	0.000496	20.979020
2070.576487	-3.012300	3.300600	-9.941500	26.275756	0.000495	20.954866
2071.575613	-3.016800	3.300900	-9.957200	26.287452	0.000495	20.947181
2072.574902	-3.034400	3.300300	-10.013000	26.316183	0.000495	20.962303
2073.573038	-3.011200	3.301900	-9.940700	26.342330	0.000494	20.944961
2074.573367	-3.033000	3.299700	-10.006000	26.329716	0.000495	20.954094
2075.573112	-3.028200	3.298500	-9.987400	26.323409	0.000492	20.949652
2076.583239	-3.007000	3.299400	-9.919900	26.334260	0.000492	20.955341
2077.579912	-3.016500	3.300300	-9.953500	26.342976	0.000493	20.935180
2078.578072	-3.018500	3.298800	-9.956300	26.337414	0.000491	20.945709
2079.576361	-3.005900	3.299700	-9.917400	26.345485	0.000491	20.925848
2080.578445	-3.016100	3.297200	-9.944500	26.360482	0.000489	20.956564
2081.579039	-2.986900	3.298300	-9.850000	26.373072	0.000489	20.941244
2082.576898	-2.989600	3.296500	-9.853600	26.351618	0.000490	20.946234
2083.583457	-3.002700	3.297900	-9.901300	26.357230	0.000489	20.958036
2084.578066	-2.989900	3.297300	-9.857700	26.360507	0.000489	20.948055
2085.579163	-3.003500	3.297600	-9.903500	26.362543	0.000487	20.939197
2086.582028	-2.991900	3.296700	-9.862400	26.364828	0.000487	20.952871
2087.584566	-3.022300	3.294200	-9.954800	26.372103	0.000486	20.939796
2088.578199	-2.986900	3.295600	-9.842700	26.371854	0.000486	20.931012
2089.581441	-3.001700	3.296000	-9.892100	26.397455	0.000486	20.953420
2090.584935	-2.990600	3.295100	-9.853100	26.413494	0.000486	20.939671
2091.579463	-2.995900	3.296000	-9.873400	26.414587	0.000485	20.911375
2092.583035	-2.994600	3.295800	-9.868600	26.403935	0.000484	20.933383
2093.586073	-2.992100	3.294600	-9.856900	26.369297	0.000484	20.929865
2094.582688	-3.002700	3.294800	-9.891700	26.329493	0.000483	20.938698
2095.583311	-2.987700	3.295000	-9.843000	26.298404	0.000484	20.906983
2096.585726	-2.987100	3.294300	-9.839400	26.290457	0.000482	20.912273
2097.584567	-2.973200	3.293400	-9.791200	26.343423	0.000481	20.925673
2098.582808	-3.015100	3.292500	-9.926300	26.335627	0.000482	20.903615
2099.583172	-3.014100	3.292100	-9.922300	26.356310	0.000481	20.926770
2100.582533	-2.991200	3.292500	-9.847000	26.357080	0.000480	20.916166
2101.583601	-3.018200	3.291500	-9.932200	26.384766	0.000480	20.923602
2102.584849	-3.021100	3.291100	-9.940900	26.383251	0.000478	20.910700
2103.584568	-2.984000	3.291800	-9.822500	26.410937	0.000478	20.925248
2104.587426	-3.011000	3.290100	-9.905700	26.431793	0.000478	20.907806
2105.586303	-2.993100	3.289800	-9.846400	26.454238	0.000475	20.923726
2106.585359	-3.001200	3.289800	-9.872500	26.481624	0.000479	20.937500
2107.586798	-3.006300	3.290500	-9.890600	26.500294	0.000477	20.914543
2108.585765	-3.012100	3.288300	-9.903500	26.508189	0.000476	20.923426
2109.585169	-3.029400	3.288100	-9.959800	26.498904	0.000476	20.910301
2110.587374	-3.010700	3.288900	-9.900500	26.537087	0.000476	20.924025
2111.585715	-2.990400	3.288800	-9.833500	26.486688	0.000474	20.925048
2112.585522	-3.007500	3.289100	-9.891200	26.509405	0.000474	20.919434
2113.588707	-2.990500	3.288300	-9.832200	26.512062	0.000474	20.921630
2114.588947	-2.985800	3.287800	-9.815600	26.488624	0.000473	20.899022
2115.588774	-2.994300	3.287200	-9.841000	26.484006	0.000472	20.927094
2116.591457	-3.015000	3.285300	-9.903800	26.489940	0.000469	20.923575
2117.587241	-2.998600	3.286200	-9.851600	26.484975	0.000471	20.917637
2118.587796	-3.005900	3.285900	-9.875800	26.487829	0.000471	20.900119
2119.589014	-3.032700	3.283900	-9.957900	26.435119	0.000470	20.899770
2120.589309	-2.983000	3.286300	-9.801600	26.411854	0.000469	20.911948
2121.588714	-2.990100	3.286700	-9.826900	26.402369	0.000468	20.905259
2122.589533	-3.015200	3.283600	-9.899500	26.385261	0.000467	20.901816
2123.589405	-2.995500	3.285900	-9.841700	26.355613	0.000468	20.896201
2124.597483	-2.975700	3.284600	-9.772400	26.343470	0.000466	20.896325
2125.591873	-3.004300	3.284100	-9.865200	26.335376	0.000465	20.906207
2126.589683	-2.991400	3.284000	-9.822800	26.350820	0.000465	20.899918
2127.589094	-2.998800	3.282500	-9.842600	26.339944	0.000465	20.885670
2128.592001	-2.970800	3.283300	-9.752300	26.397576	0.000463	20.901865
2129.592293	-3.015000	3.283800	-9.899000	26.407085	0.000465	20.895302
2130.592879	-2.986000	3.282700	-9.801400	26.430301	0.000462	20.915788
2131.594187	-2.994100	3.282100	-9.825400	26.466326	0.000463	20.905532
2132.592443	-2.995400	3.282800	-9.831700	26.455526	0.000464	20.885669
2133.592822	-3.010800	3.282300	-9.881300	26.440182	0.000464	20.884946
2134.594481	-3.009700	3.279600	-9.869000	26.451081	0.000463	20.899693
2135.595814	-3.007200	3.279100	-9.860200	26.449691	0.000462	20.902088
2136.593609	-2.993900	3.279500	-9.817800	26.437649	0.000459	20.897572
2137.595918	-3.002800	3.279300	-9.844900	26.471242	0.000460	20.908102
2138.596647	-3.015000	3.278900	-9.884700	26.509253	0.000460	20.913591
2139.595385	-3.007600	3.278600	-9.859800	26.537282	0.000461	20.909998
2140.597526	-2.980000	3.280900	-9.776000	26.517545	0.000457	20.931407
2141.598849	-3.000200	3.277400	-9.831900	26.496342	0.000456	20.880703
2142.596555	-2.997200	3.279300	-9.828100	26.489639	0.000457	20.892930
2143.600773	-3.012500	3.277200	-9.871300	26.487156	0.000458	20.904183
2144.598705	-3.003200	3.275700	-9.836300	26.489911	0.000456	20.889410
2145.598602	-3.000100	3.275400	-9.825100	26.471712	0.000454	20.875387
2146.599142	-3.029100	3.276100	-9.922700	26.513125	0.000453	20.911794
2147.601576	-3.014500	3.276700	-9.876900	26.541601	0.000453	20.878780
2148.599571	-3.011400	3.275900	-9.864700	26.526457	0.000453	20.886316
2149.600458	-3.011400	3.275400	-9.862300	26.516948	0.000453	20.873440
2150.602895	-2.990200	3.275700	-9.793700	26.516426	0.000452	20.862959
2151.600213	-2.993100	3.274300	-9.799300	26.553617	0.000451	20.890858
2152.601905	-3.006600	3.274400	-9.843700	26.579832	0.000451	20.896821
2153.601199	-2.992600	3.275200	-9.800700	26.601132	0.000449	20.884569
2154.600436	-3.013800	3.273100	-9.862800	26.613421	0.000451	20.873689
2155.602696	-3.007700	3.272700	-9.842100	26.659345	0.000449	20.893302
2156.603992	-3.026700	3.271400	-9.900700	26.665055	0.000449	20.897145
2157.601758	-3.015700	3.271300	-9.864200	26.692659	0.000450	20.878904
2158.602480	-3.000100	3.272100	-9.815400	26.721080	0.000447	20.893252
2159.602113	-3.004000	3.271200	-9.825400	26.709686	0.000447	20.887014
2160.602475	-2.990000	3.270600	-9.777800	26.727509	0.000447	20.881224
2161.602769	-3.007700	3.269800	-9.833600	26.729272	0.000445	20.879203
2162.605606	-2.993500	3.270700	-9.790100	26.777078	0.000444	20.863732
2163.608029	-3.000600	3.271500	-9.814700	26.748732	0.000446	20.890233
2164.605698	-3.000400	3.270700	-9.812400	26.740888	0.000443	20.872865
2165.606257	-2.993800	3.271000	-9.791300	26.688934	0.000442	20.877057
2166.607328	-3.015500	3.268400	-9.855300	26.630301	0.000442	20.871692
2167.607078	-2.990700	3.269900	-9.777700	26.561336	0.000442	20.901461
2168.612254	-2.999200	3.267400	-9.798600	26.555998	0.000442	20.861485
2169.610011	-3.010300	3.267100	-9.834500	26.563496	0.000442	20.867125
2170.606345	-2.997000	3.266900	-9.789600	26.583108	0.000440	20.868822
2171.609886	-3.025600	3.265300	-9.877700	26.627421	0.000439	20.873538
2172.609836	-3.000400	3.268800	-9.807100	26.624144	0.000438	20.873563
2173.607851	-2.983700	3.266900	-9.746700	26.575511	0.000438	20.870668
2174.610555	-2.996700	3.266000	-9.786000	26.539811	0.000438	20.862284
2175.612476	-3.020400	3.265000	-9.861000	26.542790	0.000439	20.873338
2176.609554	-3.007900	3.264800	-9.818900	26.538843	0.000437	20.871267
2177.612777	-2.986000	3.265900	-9.751300	26.578813	0.000436	20.850280
2178.613484	-2.999000	3.264100	-9.788200	26.623771	0.000435	20.884567
2179.614526	-3.006900	3.264300	-9.813800	26.627048	0.000435	20.860836
2180.613420	-3.002000	3.264900	-9.800800	26.592765	0.000433	20.848658
2181.616735	-2.997600	3.263900	-9.783200	26.572259	0.000430	20.871192
2182.612185	-3.003300	3.262800	-9.797200	26.566921	0.000432	20.866301
2183.614833	-2.984800	3.264900	-9.743500	26.558902	0.000432	20.880050
2184.615981	-3.007900	3.262400	-9.812700	26.584001	0.000431	20.861185
2185.612971	-3.012200	3.261900	-9.824700	26.555178	0.000432	20.890056
2186.618030	-3.016500	3.262700	-9.841200	26.576206	0.000429	20.843393
2187.619205	-2.988500	3.262900	-9.749800	26.625980	0.000428	20.875409
2188.613463	-3.026000	3.260500	-9.865500	26.582487	0.000427	20.847335
2189.618373	-3.008900	3.261100	-9.811800	26.587799	0.000426	20.855994
2190.618831	-3.004500	3.260400	-9.795100	26.603613	0.000425	20.851503
2191.625092	-3.002900	3.260000	-9.788400	26.606741	0.000426	20.876931
2192.624254	-2.996300	3.260600	-9.768500	26.640081	0.000425	20.866351
2193.618614	-3.011100	3.258300	-9.809800	26.615306	0.000424	20.859463
2194.616907	-2.997000	3.260300	-9.769200	26.571141	0.000423	20.847785
2195.618150	-2.986000	3.259000	-9.730200	26.579607	0.000423	20.873837
2196.622218	-3.012100	3.257800	-9.812700	26.583728	0.000422	20.850006
2197.617809	-2.999200	3.257800	-9.769500	26.575709	0.000422	20.851902
2198.633666	-3.009600	3.258200	-9.804700	26.604209	0.000421	20.859688
2199.620713	-3.017300	3.255800	-9.822800	26.622231	0.000419	20.843667
2200.631308	-2.956800	3.258800	-9.634800	26.668727	0.000419	20.862907
2201.629592	-2.966700	3.258500	-9.665500	26.709114	0.000419	20.848034
2202.626970	-2.997000	3.255700	-9.756600	26.753224	0.000417	20.860612
2203.622674	-3.012500	3.256400	-9.808900	26.771169	0.000417	20.868222
2204.620832	-2.979900	3.256500	-9.703400	26.778789	0.000417	20.855969
2205.639576	-3.034100	3.253500	-9.869400	26.772013	0.000416	20.831614
2206.624397	-3.025400	3.253800	-9.842100	26.745752	0.000416	20.862108
2207.625082	-2.998400	3.254900	-9.758500	26.758163	0.000416	20.832388
2208.626050	-2.981300	3.254900	-9.703000	26.700029	0.000412	20.862607
2209.628920	-2.984700	3.252800	-9.707600	26.701345	0.000412	20.845439
2210.623343	-3.002800	3.254500	-9.771800	26.629455	0.000413	20.847610
2211.630097	-3.004200	3.252100	-9.767600	26.630175	0.000411	20.852126
2212.639669	-2.985000	3.253300	-9.710500	26.634272	0.000413	20.835382
2213.623348	-3.001700	3.253300	-9.764200	26.632161	0.000412	20.860760
2214.625209	-3.015900	3.251100	-9.804600	26.649587	0.000411	20.841296
2215.617010	-2.982700	3.251000	-9.695400	26.664481	0.000410	20.835406
2216.617417	-2.994700	3.252300	-9.737900	26.701716	0.000409	20.834907
2217.627754	-3.012000	3.248600	-9.784200	26.736145	0.000408	20.834907
2218.628234	-2.993700	3.250600	-9.730100	26.733513	0.000406	20.860235
2219.635964	-3.001200	3.247800	-9.746200	26.776281	0.000408	20.843965
2220.629722	-2.994700	3.249100	-9.728700	26.763200	0.000406	20.846935
2221.632727	-3.033200	3.246500	-9.846200	26.724627	0.000404	20.829017
2222.626889	-2.994800	3.249200	-9.729600	26.669371	0.000404	20.830365
2223.631443	-3.002300	3.246500	-9.745400	26.625780	0.000405	20.828268
2224.634005	-2.999100	3.248800	-9.742600	26.589932	0.000402	20.851027
2225.624783	-2.978900	3.249000	-9.677000	26.558726	0.000403	20.833408
2226.628487	-2.995700	3.246800	-9.724900	26.529952	0.000404	20.847632
2227.630675	-2.993700	3.245200	-9.713800	26.514684	0.000401	20.845561
2228.630383	-2.980200	3.246000	-9.672700	26.554580	0.000400	20.851999
2229.624924	-2.983100	3.245400	-9.680200	26.592563	0.000402	20.839921
2230.636813	-2.987200	3.244700	-9.691400	26.643751	0.000398	20.847756
2231.626484	-3.012800	3.243200	-9.770000	26.645712	0.000402	20.833133
2232.638105	-3.001600	3.244100	-9.736300	26.705139	0.000400	20.829814
2233.628089	-3.010500	3.243700	-9.764200	26.750266	0.000400	20.842940
2234.625468	-3.005900	3.243800	-9.749800	26.781838	0.000400	20.825372
2235.631222	-3.029000	3.242500	-9.820400	26.762130	0.000399	20.825471
2236.627245	-3.005300	3.242500	-9.743500	26.740287	0.000397	20.825321
2237.629477	-3.002400	3.242100	-9.733500	26.744928	0.000397	20.823350
2238.627159	-2.976500	3.242300	-9.649600	26.761509	0.000395	20.833856
2239.644697	-3.017100	3.240100	-9.774000	26.770991	0.000394	20.826319
2240.632969	-3.008600	3.240400	-9.747300	26.754857	0.000394	20.832383
2241.639617	-3.018800	3.239900	-9.777900	26.767689	0.000395	20.826793
2242.631131	-3.001600	3.239000	-9.720700	26.775210	0.000394	20.824871
2243.628460	-3.013300	3.239900	-9.760700	26.803108	0.000392	20.814041
2244.631194	-3.008200	3.240700	-9.747200	26.824875	0.000393	20.836400
2245.629282	-3.010000	3.240200	-9.751500	26.787272	0.000391	20.827990
2246.631691	-3.025700	3.237600	-9.795000	26.781191	0.000390	20.812393
2247.632569	-2.992000	3.238400	-9.688800	26.789208	0.000390	20.829462
2248.631077	-3.006600	3.237100	-9.731600	26.821797	0.000390	20.822874
2249.627409	-3.011600	3.236500	-9.745100	26.789902	0.000387	20.808824
2250.634337	-2.994400	3.235000	-9.684300	26.772131	0.000386	20.812293
2251.637914	-3.014000	3.235300	-9.749600	26.759050	0.000387	20.801986
2252.627850	-2.999600	3.236800	-9.708200	26.768060	0.000385	20.830959
2253.634857	-3.022200	3.235200	-9.777700	26.784416	0.000388	20.816584
2254.638575	-3.010200	3.235600	-9.738400	26.816459	0.000385	20.814662
2255.629300	-2.985200	3.235200	-9.655900	26.839368	0.000384	20.818256
2256.634711	-3.009700	3.234100	-9.733100	26.828174	0.000385	20.824544
2257.629250	-3.005500	3.233000	-9.716000	26.848402	0.000385	20.816434
2258.637755	-2.997300	3.232500	-9.687500	26.876770	0.000384	20.826939
2259.637359	-2.995400	3.232500	-9.681600	26.888881	0.000384	20.827264
2260.628769	-2.992700	3.232400	-9.673000	26.858503	0.000383	20.804779
2261.631136	-2.997300	3.230500	-9.681400	26.800350	0.000383	20.825492
2262.635097	-2.998700	3.232000	-9.691200	26.727797	0.000381	20.815135
2263.640002	-3.002400	3.231300	-9.700500	26.695354	0.000379	20.819028
2264.642446	-2.995500	3.230600	-9.676400	26.681453	0.000380	20.824967
2265.647213	-3.007700	3.230200	-9.714600	26.661742	0.000378	20.814635
2266.638103	-3.031400	3.228800	-9.786700	26.668495	0.000380	20.819527
2267.632109	-2.991400	3.228800	-9.658100	26.661345	0.000377	20.809969
2268.632905	-3.005300	3.228600	-9.700300	26.725736	0.000376	20.813537
2269.640451	-3.004800	3.227900	-9.698400	26.768801	0.000377	20.807523
2270.633155	-3.024200	3.227900	-9.760200	26.829463	0.000375	20.819676
2271.635238	-3.006800	3.226700	-9.701000	26.852768	0.000377	20.815134
2272.638881	-2.995100	3.226300	-9.661400	26.865028	0.000374	20.824143
2273.637361	-3.006200	3.226600	-9.698300	26.900221	0.000376	20.815907
2274.646268	-3.004900	3.226400	-9.694300	26.960477	0.000375	20.806799
2275.634493	-2.987900	3.224900	-9.634600	26.975094	0.000375	20.812962
2276.631129	-3.004400	3.225000	-9.688100	27.011301	0.000373	20.825664
2277.638648	-2.993000	3.225300	-9.652400	27.016562	0.000372	20.820524
2278.652782	-3.000400	3.223800	-9.671300	27.038771	0.000371	20.822944
2279.632398	-3.004100	3.223500	-9.681500	27.055993	0.000369	20.819401
2280.634965	-2.985000	3.224700	-9.624800	27.092792	0.000370	20.811839
2281.641958	-3.034000	3.221800	-9.774400	27.109044	0.000370	20.794520
2282.638465	-2.970000	3.222200	-9.569100	27.097729	0.000369	20.815857
2283.643638	-3.013100	3.222200	-9.707700	27.078871	0.000370	20.805899
2284.636900	-3.011300	3.221000	-9.698300	27.048572	0.000368	20.822844
2285.652813	-2.985400	3.221800	-9.617400	27.002739	0.000367	20.826063
2286.638715	-3.002700	3.222200	-9.674300	27.008322	0.000366	20.799436
2287.647018	-2.993400	3.221800	-9.642900	27.009935	0.000365	20.802954
2288.646908	-2.995400	3.220500	-9.646900	27.034130	0.000366	20.831553
2289.639199	-2.986100	3.220200	-9.615400	27.058374	0.000364	20.815157
2290.636636	-3.008600	3.220000	-9.687400	27.015791	0.000366	20.824016
2291.639445	-2.973900	3.218600	-9.570100	26.994871	0.000363	20.816255
2292.634298	-2.988500	3.218400	-9.616600	26.939505	0.000365	20.812736
2293.636467	-2.996600	3.218300	-9.643200	26.896124	0.000362	20.807521
2294.644472	-2.997300	3.217000	-9.641600	26.854081	0.000361	20.829256
2295.640417	-3.029900	3.216800	-9.745900	26.807122	0.000361	20.804800
2296.638780	-2.997700	3.215700	-9.638700	26.828244	0.000361	20.827933
2297.641970	-2.995400	3.218100	-9.638500	26.774334	0.000361	20.835370
2298.643365	-2.973900	3.216500	-9.565100	26.761848	0.000361	20.839412
2299.640862	-3.018100	3.214400	-9.700400	26.779521	0.000359	20.803128
2300.650254	-2.998000	3.214500	-9.634900	26.766018	0.000357	20.839811
2301.643951	-3.015000	3.213600	-9.688100	26.769841	0.000357	20.814258
2302.652399	-2.994700	3.214500	-9.624200	26.814840	0.000357	20.827259
2303.647793	-2.999500	3.215100	-9.642100	26.829881	0.000357	20.808718
2304.645845	-3.012100	3.212300	-9.674600	26.871876	0.000357	20.838139
2305.642653	-2.990000	3.211900	-9.603500	26.886841	0.000355	20.821894
2306.643758	-2.998800	3.211700	-9.630200	26.844723	0.000358	20.818425
2307.643156	-2.988900	3.212600	-9.601700	26.849389	0.000354	20.815530
2308.652922	-2.988100	3.210300	-9.591000	26.867606	0.000355	20.824838
2309.651791	-3.019800	3.210500	-9.694200	26.881902	0.000353	20.810289
2310.651221	-3.006100	3.211100	-9.651900	26.935360	0.000352	20.814257
2311.644644	-3.003800	3.209000	-9.637400	26.942259	0.000352	20.794643
2312.652398	-3.002500	3.208100	-9.631200	26.956852	0.000351	20.807894
2313.648099	-2.993400	3.208200	-9.602100	26.920991	0.000349	20.815930
2314.651048	-3.014600	3.208700	-9.670800	26.877038	0.000351	20.811088
2315.647486	-2.986200	3.208300	-9.579100	26.857828	0.000349	20.804101
2316.644353	-2.996900	3.207600	-9.611800	26.885675	0.000347	20.813609
2317.654729	-2.995400	3.206900	-9.604800	26.882696	0.000346	20.813933
2318.649069	-2.988000	3.208700	-9.586200	26.874482	0.000345	20.811363
2319.651793	-3.005600	3.205500	-9.633700	26.890341	0.000347	20.827783
2320.666439	-2.996200	3.205800	-9.602800	26.863661	0.000347	20.825612
2321.650403	-2.986700	3.205500	-9.572600	26.909923	0.000345	20.822818
2322.652591	-2.979400	3.206000	-9.550800	26.958887	0.000345	20.814208
2323.655902	-3.006500	3.203700	-9.631200	27.016386	0.000344	20.812761
2324.649390	-2.997700	3.203500	-9.602400	27.044750	0.000343	20.811414
2325.655614	-2.974100	3.204000	-9.527900	27.030730	0.000343	20.834297
2326.656087	-2.997000	3.202900	-9.598600	26.997924	0.000342	20.814109
2327.651268	-2.967000	3.203400	-9.503800	27.015444	0.000342	20.812287
2328.648268	-3.025600	3.200800	-9.682900	27.039713	0.000342	20.810141
2329.648558	-2.999000	3.201600	-9.600900	27.044999	0.000342	20.818776
2330.651011	-2.993700	3.201300	-9.583200	27.025370	0.000340	20.826537
2331.648602	-3.026200	3.198200	-9.677400	27.075124	0.000341	20.815407
2332.653041	-2.984900	3.202400	-9.556500	27.070930	0.000339	20.818302
2333.655020	-3.043900	3.197800	-9.731500	27.112543	0.000338	20.824117
2334.648005	-3.032200	3.197400	-9.694300	27.129540	0.000337	20.811814
2335.646510	-2.993400	3.198900	-9.575200	27.170927	0.000337	20.828784
2336.650209	-3.011700	3.198500	-9.631100	27.201346	0.000337	20.829033
2337.648425	-2.997000	3.197800	-9.582700	27.200527	0.000336	20.808296
2338.654265	-3.008600	3.198200	-9.621100	27.206656	0.000337	20.828684
2339.659167	-2.994200	3.198200	-9.575500	27.196384	0.000337	20.821198
2340.653123	-3.020400	3.194100	-9.646700	27.222584	0.000336	20.821472
2341.661553	-3.031400	3.194300	-9.682500	27.236652	0.000335	20.814285
2342.652233	-2.999800	3.194200	-9.581100	27.256525	0.000335	20.824791
2343.648962	-3.002800	3.193300	-9.587800	27.223105	0.000335	20.826263
2344.653785	-2.999900	3.193700	-9.580200	27.217424	0.000334	20.817704
2345.660064	-3.014100	3.192500	-9.621400	27.215290	0.000334	20.822196
2346.652016	-3.013400	3.194600	-9.625700	27.254764	0.000334	20.821597
2347.655886	-3.006400	3.192700	-9.597600	27.259974	0.000332	20.812613
2348.653466	-3.009900	3.191700	-9.605700	27.236776	0.000333	20.824367
2349.654833	-3.019600	3.191600	-9.635500	27.197550	0.000331	20.829009
2350.648002	-2.981900	3.192500	-9.517000	27.182167	0.000331	20.831554
2351.660913	-3.023700	3.190100	-9.644900	27.165444	0.000330	20.829433
2352.650949	-3.022000	3.188800	-9.635600	27.193804	0.000332	20.824766
2353.663610	-3.007500	3.188800	-9.588900	27.175642	0.000328	20.818353
2354.655665	-3.010100	3.187800	-9.595400	27.221617	0.000329	20.825714
2355.660875	-3.010900	3.186700	-9.593500	27.229432	0.000330	20.827412
2356.657931	-3.011900	3.187500	-9.599400	27.204547	0.000329	20.821347
2357.656963	-2.991900	3.187400	-9.535000	27.195689	0.000328	20.819076
2358.656286	-3.001500	3.186500	-9.563600	27.188295	0.000328	20.837717
2359.671886	-2.999200	3.187400	-9.558300	27.173532	0.000327	20.830930
2360.662497	-3.006200	3.186200	-9.577100	27.159787	0.000326	20.837967
2361.660185	-2.980600	3.185600	-9.494400	27.181745	0.000324	20.826388
2362.664944	-2.980300	3.185700	-9.493600	27.223180	0.000325	20.850993
2363.663874	-3.008400	3.183700	-9.575600	27.259700	0.000324	20.811864
2364.659917	-3.003700	3.184000	-9.563600	27.221616	0.000325	20.830455
2365.662008	-3.002400	3.184500	-9.560500	27.205514	0.000324	20.842708
2366.662921	-3.007700	3.182700	-9.571800	27.213205	0.000324	20.816306
2367.663421	-2.979800	3.184100	-9.487300	27.227000	0.000326	20.837292
2368.670875	-3.002800	3.180900	-9.550700	27.168793	0.000322	20.841809
2369.672698	-2.990500	3.181200	-9.511000	27.149290	0.000321	20.835945
2370.670146	-3.017900	3.181500	-9.600800	27.122071	0.000322	20.836544
2371.663074	-2.982400	3.181500	-9.487500	27.136090	0.000321	20.826462
2372.667893	-2.993800	3.179700	-9.517800	27.129365	0.000321	20.853362
2373.666208	-2.996400	3.179500	-9.526100	27.085917	0.000320	20.840486
2374.672257	-3.026600	3.178600	-9.619100	27.074130	0.000320	20.824839
2375.667362	-3.005900	3.178200	-9.551100	27.108720	0.000318	20.841135
2376.671222	-3.031900	3.176300	-9.628400	27.105892	0.000319	20.852514
2377.677346	-2.987800	3.177000	-9.491200	27.117430	0.000318	20.860798
2378.670718	-3.016400	3.176400	-9.580200	27.092046	0.000317	20.831951
2379.679364	-3.017800	3.176900	-9.586800	27.051276	0.000316	20.848321
2380.667446	-2.999700	3.175300	-9.523800	27.037727	0.000314	20.842282
2381.666140	-2.978900	3.175000	-9.457300	27.048819	0.000314	20.840635
2382.670509	-2.988000	3.175300	-9.487100	27.086090	0.000314	20.851091
2383.672346	-2.995500	3.174000	-9.505800	27.072566	0.000314	20.854085
2384.666462	-3.015300	3.173600	-9.567100	26.998494	0.000315	20.843604
2385.668670	-2.981400	3.173500	-9.459200	27.000231	0.000314	20.853411
2386.665958	-3.013300	3.172800	-9.559100	27.024053	0.000315	20.870255
2387.665260	-2.980600	3.173500	-9.456700	27.080854	0.000313	20.857679
2388.670669	-2.993300	3.172400	-9.494500	27.128123	0.000312	20.839786
2389.677765	-2.983000	3.171500	-9.459300	27.180229	0.000315	20.850941
2390.678589	-2.985900	3.171200	-9.467200	27.226278	0.000314	20.846050
2391.678954	-3.025200	3.168700	-9.584800	27.248608	0.000314	20.868034
2392.669944	-2.997600	3.167300	-9.492800	27.292967	0.000313	20.846274
2393.670734	-2.991700	3.169500	-9.481300	27.260442	0.000312	20.868084
2394.667614	-2.982300	3.169700	-9.451700	27.303610	0.000311	20.865988
2395.667493	-3.001100	3.167200	-9.503700	27.348686	0.000312	20.849218
2396.669645	-3.005700	3.166700	-9.517500	27.369475	0.000311	20.849742
2397.666674	-2.984100	3.165400	-9.444900	27.356699	0.000311	20.848270
2398.681205	-2.995800	3.165500	-9.481800	27.296762	0.000308	20.842980
2399.668910	-3.000700	3.164200	-9.494000	27.269174	0.000308	20.862169
2400.669679	-3.000800	3.162800	-9.489700	27.264063	0.000309	20.871252
2401.670243	-2.995700	3.163800	-9.476600	27.274037	0.000308	20.856629
2402.671320	-2.999900	3.161600	-9.482400	27.249748	0.000308	20.878190
2403.677224	-3.007800	3.162200	-9.510700	27.234217	0.000308	20.878214
2404.671981	-3.013100	3.160000	-9.519800	27.250120	0.000307	20.864340
2405.670815	-3.005700	3.161200	-9.501300	27.258009	0.000310	20.856155
2406.670630	-3.026700	3.161600	-9.568400	27.266941	0.000307	20.870828
2407.674137	-3.002500	3.160700	-9.489900	27.288971	0.000309	20.859798
2408.673266	-2.993500	3.160600	-9.460800	27.291527	0.000305	20.876118
2409.674478	-3.029600	3.159200	-9.570700	27.271357	0.000306	20.872425
2410.674651	-3.003000	3.158800	-9.484300	27.284133	0.000307	20.877216
2411.674132	-3.013900	3.156300	-9.510900	27.283414	0.000305	20.858001
2412.676854	-3.034300	3.156000	-9.575200	27.312763	0.000304	20.864289
2413.678634	-2.982200	3.156500	-9.411900	27.268106	0.000303	20.898077
2414.677301	-3.029300	3.157400	-9.562400	27.281330	0.000304	20.885300
2415.679692	-3.014200	3.157600	-9.516600	27.306089	0.000304	20.884127
2416.688163	-3.001300	3.153700	-9.464100	27.263367	0.000303	20.876242
2417.678133	-3.023300	3.153400	-9.532400	27.243991	0.000302	20.877140
2418.677478	-2.982200	3.154300	-9.403900	27.254833	0.000302	20.885674
2419.677688	-3.012400	3.152100	-9.494200	27.252922	0.000301	20.895606
2420.686315	-2.993700	3.152000	-9.434600	27.251161	0.000302	20.864913
2421.677178	-3.022000	3.151100	-9.521600	27.289119	0.000302	20.888868
2422.680923	-2.995600	3.149700	-9.434100	27.327870	0.000301	20.883753
2423.682110	-2.986600	3.149300	-9.404200	27.376915	0.000302	20.891837
2424.688019	-3.025300	3.148700	-9.525200	27.410205	0.000301	20.898774
2425.687789	-2.984600	3.149600	-9.399400	27.397603	0.000301	20.859073
2426.683142	-2.961900	3.150300	-9.329800	27.351065	0.000299	20.886223
2427.681046	-2.994300	3.148800	-9.427700	27.339232	0.000300	20.888543
2428.680877	-3.020500	3.147000	-9.504100	27.307601	0.000301	20.898924
2429.681685	-2.984700	3.146500	-9.390300	27.274555	0.000299	20.884176
2430.687454	-3.004300	3.145000	-9.447400	27.265574	0.000300	20.903116
2431.684387	-2.999100	3.143700	-9.427600	27.331789	0.000297	20.899547
2432.682892	-3.013500	3.143200	-9.471100	27.329358	0.000298	20.889516
2433.682719	-2.963100	3.144700	-9.317500	27.338462	0.000296	20.882080
2434.686716	-2.997700	3.142700	-9.420300	27.324223	0.000297	20.901419
2435.682194	-2.994700	3.142500	-9.410200	27.322808	0.000295	20.891936
2436.684693	-2.980100	3.141700	-9.362000	27.328440	0.000295	20.900445
2437.685520	-2.987100	3.142000	-9.384300	27.346897	0.000298	20.910477
2438.684477	-2.984000	3.140400	-9.369600	27.330449	0.000296	20.916690
2439.686279	-2.996100	3.141200	-9.409200	27.323627	0.000297	20.887070
2440.685110	-3.002400	3.137800	-9.420200	27.365924	0.000295	20.904488
2441.687126	-3.024200	3.136500	-9.484200	27.368107	0.000295	20.904313
2442.683626	-3.032700	3.137000	-9.512000	27.335361	0.000294	20.903140
2443.690729	-2.997900	3.137500	-9.405000	27.346376	0.000295	20.894307
2444.686909	-3.009700	3.134000	-9.431700	27.385894	0.000294	20.916041
2445.684313	-3.004700	3.134600	-9.416800	27.410154	0.000293	20.905361
2446.684589	-2.991200	3.135400	-9.377300	27.443072	0.000291	20.893907
2447.690004	-3.028000	3.131700	-9.482200	27.474475	0.000290	20.902741
2448.685526	-3.025300	3.131700	-9.472800	27.527829	0.000293	20.899996
2449.696121	-3.036900	3.130600	-9.506200	27.544670	0.000292	20.908405
2450.687401	-3.023000	3.130300	-9.461800	27.539660	0.000293	20.922803
2451.685897	-3.012100	3.129700	-9.425800	27.494963	0.000291	20.902965
2452.693119	-3.009100	3.129200	-9.414700	27.479262	0.000290	20.927469
2453.691897	-3.009800	3.128600	-9.416100	27.485786	0.000290	20.914593
2454.688255	-3.005400	3.126500	-9.395200	27.483628	0.000290	20.899621
2455.685900	-3.035500	3.125400	-9.485500	27.482313	0.000291	20.911574
2456.688945	-3.011700	3.127200	-9.417600	27.506646	0.000288	20.900020
2457.690916	-2.999600	3.125300	-9.373800	27.547473	0.000289	20.922129
2458.686108	-2.995400	3.125000	-9.359500	27.563743	0.000286	20.923326
2459.688630	-2.994000	3.125000	-9.354900	27.612951	0.000289	20.921156
2460.686620	-2.995500	3.122800	-9.353900	27.594374	0.000289	20.915741
2461.688397	-3.001100	3.123200	-9.371000	27.576070	0.000288	20.914867
2462.686444	-3.001300	3.121400	-9.366700	27.550424	0.000287	20.907082
2463.686493	-2.982200	3.122500	-9.311100	27.523463	0.000287	20.919309
2464.687423	-3.010100	3.119600	-9.389000	27.509597	0.000287	20.937125
2465.692256	-2.983400	3.120200	-9.307500	27.500122	0.000288	20.912896
2466.692338	-2.992300	3.119200	-9.332500	27.514806	0.000287	20.912023
2467.688425	-2.977500	3.118200	-9.283600	27.534079	0.000286	20.941367
2468.690910	-2.997700	3.116300	-9.340700	27.565082	0.000286	20.918036
2469.691329	-3.000400	3.116800	-9.350000	27.552656	0.000285	20.929714
2470.690752	-2.984200	3.116600	-9.298900	27.561213	0.000284	20.923151
2471.692909	-3.000100	3.115200	-9.345000	27.582593	0.000285	20.940394
2472.692497	-3.017100	3.113700	-9.393900	27.623218	0.000285	20.943338
2473.694525	-3.020900	3.111400	-9.398700	27.636090	0.000284	20.920731
2474.691830	-3.010900	3.112100	-9.368900	27.658063	0.000285	20.949476
2475.703286	-2.984300	3.111700	-9.285000	27.683955	0.000283	20.908679
2476.695621	-3.002500	3.110300	-9.337900	27.619299	0.000285	20.926121
2477.694265	-3.023300	3.109000	-9.398700	27.682715	0.000285	20.943463
2478.696293	-2.998500	3.109800	-9.324000	27.687972	0.000286	20.944012
2479.695582	-3.007000	3.107700	-9.343200	27.688791	0.000283	20.939620
2480.693448	-2.999000	3.108000	-9.320100	27.714012	0.000283	20.942714
2481.696465	-2.995400	3.105900	-9.302500	27.713094	0.000285	20.927094
2482.696862	-2.995200	3.105700	-9.301400	27.714136	0.000281	20.921979
2483.694654	-2.980600	3.105400	-9.254700	27.755698	0.000280	20.922552
2484.702682	-3.009400	3.103100	-9.337500	27.773999	0.000283	20.942390
2485.695144	-3.017200	3.102500	-9.358700	27.736256	0.000282	20.940918
2486.694267	-3.000100	3.103100	-9.308200	27.726709	0.000282	20.921829
2487.695481	-2.989500	3.102000	-9.272100	27.719319	0.000281	20.940468
2488.696140	-3.008500	3.100400	-9.326600	27.723559	0.000282	20.952795
2489.697856	-3.019200	3.099500	-9.356900	27.717880	0.000283	20.949925
2490.696253	-2.999900	3.097400	-9.290600	27.709250	0.000282	20.947405
2491.705431	-2.999600	3.097800	-9.290400	27.750962	0.000282	20.959507
2492.700360	-3.015600	3.095800	-9.333500	27.763782	0.000282	20.959133
2493.696959	-3.007200	3.095600	-9.307700	27.717657	0.000280	20.949701
2494.699591	-2.997300	3.095100	-9.276000	27.678970	0.000280	20.940643
2495.701134	-2.989400	3.093700	-9.247000	27.612479	0.000280	20.960979
2496.698401	-3.011700	3.091900	-9.310600	27.626690	0.000279	20.942564
2497.705298	-2.992700	3.091700	-9.250600	27.664685	0.000283	20.955664
2498.698107	-3.020300	3.091600	-9.336500	27.691741	0.000278	20.955390
2499.697299	-3.003700	3.089000	-9.277700	27.703323	0.000279	20.949027
2500.700658	-2.990500	3.087700	-9.232300	27.711283	0.000282	20.966044
2501.707825	-2.997000	3.087500	-9.252100	27.678895	0.000281	20.959058
2502.699932	-3.011100	3.086400	-9.292900	27.678970	0.000281	20.958658
2503.709210	-2.999500	3.086100	-9.255900	27.731817	0.000278	20.968215
2504.700911	-2.976800	3.086000	-9.185300	27.733255	0.000280	20.973929
2505.700511	-2.992200	3.084700	-9.227900	27.686757	0.000282	20.956537
2506.700291	-3.011500	3.083200	-9.283800	27.682442	0.000279	20.963574
2507.702978	-3.054100	3.080100	-9.405800	27.723534	0.000278	20.950873
2508.700218	-3.025900	3.080500	-9.320000	27.713441	0.000279	20.963000
2509.704222	-3.019600	3.080600	-9.301900	27.727998	0.000279	20.959157
2510.700650	-3.018100	3.079400	-9.293000	27.750837	0.000279	20.974553
2511.701935	-3.018800	3.078600	-9.293700	27.778636	0.000279	20.948952
2512.701826	-3.011300	3.077300	-9.265700	27.792795	0.000279	20.975052
2513.701602	-3.003300	3.076700	-9.239100	27.832842	0.000277	20.975526
2514.701605	-3.009100	3.076000	-9.255300	27.872739	0.000279	20.973954
2515.704226	-3.013400	3.075800	-9.267800	27.863465	0.000279	20.964148
2516.701958	-2.985100	3.075500	-9.179100	27.869268	0.000278	20.967142
2517.708231	-3.032500	3.071600	-9.312700	27.814815	0.000277	20.986779
2518.708279	-2.999600	3.071100	-9.210500	27.773528	0.000278	20.978894
2519.710596	-3.019800	3.070700	-9.271900	27.765022	0.000278	20.964647
2520.711213	-2.978400	3.071000	-9.145100	27.772809	0.000276	20.977223
2521.706048	-3.020400	3.069300	-9.269100	27.770279	0.000278	20.956662
2522.705771	-2.989200	3.067700	-9.168600	27.781909	0.000277	20.975002
2523.708446	-2.961500	3.069400	-9.087900	27.811269	0.000276	21.005966
2524.712430	-2.988700	3.066400	-9.163800	27.787390	0.000280	20.978620
2525.705440	-2.953200	3.067100	-9.055600	27.765617	0.000277	20.971409
2526.710368	-3.010000	3.064800	-9.224800	27.742753	0.000275	20.964996
2527.710334	-2.994600	3.062700	-9.170900	27.720013	0.000276	20.974353
2528.705756	-3.029700	3.060400	-9.271400	27.760955	0.000276	20.977148
2529.707238	-2.989000	3.060200	-9.146400	27.760286	0.000275	20.971259
2530.709949	-3.001400	3.059000	-9.180700	27.727006	0.000275	20.990397
2531.709833	-2.989100	3.058800	-9.142400	27.681797	0.000276	20.985207
2532.707226	-2.980500	3.058500	-9.115200	27.697148	0.000275	20.955140
2533.708835	-2.996200	3.055500	-9.152800	27.692014	0.000275	20.967042
2534.712378	-2.997600	3.056100	-9.160200	27.764600	0.000274	20.970386
2535.709553	-2.990500	3.054600	-9.133600	27.752102	0.000273	20.975351
2536.713642	-2.997900	3.054400	-9.155700	27.720459	0.000273	20.973854
2537.712085	-2.977100	3.052500	-9.086900	27.749449	0.000275	20.956088
2538.709784	-2.985300	3.052400	-9.111000	27.797482	0.000274	20.964597
2539.714604	-2.982800	3.051500	-9.100700	27.827833	0.000273	20.969537
2540.712580	-3.018600	3.049300	-9.203300	27.860316	0.000275	20.967142
2541.711605	-2.978400	3.049200	-9.080100	27.894038	0.000275	20.966468
2542.712266	-3.004500	3.045200	-9.148200	27.939462	0.000274	20.978046
2543.714598	-2.993200	3.046500	-9.117600	27.937974	0.000271	20.981290
2544.713829	-3.020300	3.043400	-9.191400	27.890071	0.000276	20.951098
2545.714736	-3.026800	3.042600	-9.208200	27.887988	0.000274	20.960854
2546.715490	-3.029000	3.040900	-9.209500	27.879979	0.000272	20.971758
2547.719669	-3.030400	3.041500	-9.215500	27.898303	0.000272	20.949900
2548.715466	-2.984200	3.041600	-9.076500	27.922602	0.000273	20.978146
2549.718694	-3.012400	3.038400	-9.152200	27.921139	0.000274	20.956762
2550.716521	-3.006900	3.037600	-9.132100	27.934304	0.000272	20.965745
2551.720927	-3.003600	3.035600	-9.116700	27.961305	0.000272	20.958783
2552.718818	-2.994300	3.036500	-9.091200	27.958057	0.000271	20.952670
2553.715503	-2.991700	3.034500	-9.077400	27.978164	0.000274	20.962950
2554.725407	-3.002300	3.033400	-9.106100	28.024476	0.000273	20.963574
2555.727095	-2.968300	3.032700	-9.001100	28.030997	0.000275	20.962551
2556.718733	-2.993700	3.031100	-9.073600	28.041608	0.000271	20.961852
2557.718599	-3.011900	3.028600	-9.119800	27.997081	0.000274	20.942165
2558.724477	-2.998400	3.028100	-9.078900	27.994106	0.000271	20.968090
2559.721439	-2.999100	3.028700	-9.082200	27.963065	0.000272	20.942540
2560.719184	-2.996900	3.026200	-9.068300	27.941148	0.000275	20.947031
2561.718895	-3.008300	3.024600	-9.098000	27.960759	0.000275	20.942115
2562.724040	-2.987000	3.024800	-9.034000	27.937925	0.000273	20.945684
2563.720348	-2.992200	3.022800	-9.043900	27.944941	0.000273	20.939945
2564.724072	-2.983000	3.022500	-9.015500	27.930759	0.000274	20.968814
2565.723773	-3.005100	3.020900	-9.077300	27.892823	0.000274	20.938223
2566.722610	-2.988900	3.020200	-9.026000	27.937280	0.000274	20.939820
2567.722925	-3.004900	3.017400	-9.066100	27.894832	0.000271	20.932185
2568.722710	-2.993700	3.016600	-9.029700	27.931528	0.000272	20.944461
2569.722512	-2.991300	3.015000	-9.018200	27.952801	0.000272	20.924150
2570.722092	-2.993400	3.015100	-9.024500	27.967057	0.000271	20.947031
2571.724555	-2.998000	3.012700	-9.030800	27.936611	0.000271	20.933931
2572.726238	-2.988200	3.012800	-9.002500	27.944297	0.000270	20.942615
2573.724748	-2.984900	3.010600	-8.985200	27.945437	0.000272	20.943289
2574.724813	-3.022200	3.008600	-9.090800	27.970776	0.000271	20.941766
2575.728825	-2.968000	3.010000	-8.932100	28.007271	0.000270	20.940569
2576.726641	-2.999800	3.007300	-9.020500	28.009131	0.000269	20.938173
2577.725943	-2.991500	3.006400	-8.992900	28.017932	0.000268	20.951772
2578.729659	-2.990500	3.004900	-8.985200	27.987338	0.000272	20.915766
2579.727097	-2.996900	3.005000	-9.004700	27.953074	0.000271	20.949552
2580.728825	-2.980700	3.003100	-8.949400	27.956372	0.000269	20.939596
2581.728619	-3.025100	2.999800	-9.073600	27.972636	0.000272	20.928941
2582.728800	-3.009700	2.999400	-9.026600	27.988727	0.000270	20.942765
2583.730106	-3.001600	2.998500	-8.999000	27.965396	0.000272	20.939197
2584.731679	-2.995900	2.997800	-8.980300	27.914792	0.000272	20.930463
2585.730110	-2.997800	2.995800	-8.979800	27.871525	0.000270	20.924849
2586.728945	-3.015200	2.994700	-9.027700	27.828430	0.000271	20.940744
2587.735269	-3.018700	2.993300	-9.034700	27.796367	0.000272	20.943564
2588.731484	-2.977900	2.992100	-8.909100	27.733182	0.000270	20.929291
2589.732908	-2.998000	2.990500	-8.963600	27.719840	0.000270	20.941467
2590.734120	-2.998700	2.990800	-8.967300	27.734645	0.000270	20.920807
2591.733454	-2.994600	2.986800	-8.943700	27.768569	0.000270	20.940719
2592.734178	-2.975300	2.986900	-8.884900	27.831430	0.000268	20.939971
2593.733704	-2.996000	2.986100	-8.945300	27.824041	0.000269	20.927794
2594.734991	-3.003400	2.983200	-8.959000	27.838324	0.000268	20.917987
2595.734017	-2.994700	2.981900	-8.929000	27.864384	0.000270	20.911025
2596.734389	-2.993600	2.982400	-8.927500	27.907627	0.000270	20.935579
2597.738642	-2.993900	2.980500	-8.922800	27.931677	0.000270	20.924700
2598.736455	-3.011000	2.978700	-8.967900	27.946827	0.000270	20.915766
2599.736426	-3.019500	2.976700	-8.987000	28.003900	0.000270	20.910626
2600.736623	-3.006800	2.975200	-8.945200	28.009677	0.000270	20.923078
2601.738887	-2.980000	2.974500	-8.862100	28.031444	0.000271	20.917962
2602.738107	-3.014200	2.973200	-8.961300	28.060599	0.000271	20.907008
2603.737366	-2.999400	2.971300	-8.911200	28.056607	0.000271	20.920058
2604.741186	-2.997900	2.969600	-8.900900	28.054079	0.000272	20.933159
2605.737120	-2.969200	2.969400	-8.816200	28.102371	0.000270	20.919659
2606.738121	-3.001100	2.966900	-8.902300	28.093199	0.000269	20.918012
2607.741287	-2.987600	2.967500	-8.863300	28.045675	0.000270	20.912373
2608.739292	-2.971300	2.966100	-8.811900	28.057426	0.000269	20.923253
2609.739777	-3.002200	2.962400	-8.891900	28.109833	0.000269	20.920533
2610.742204	-3.010900	2.959400	-8.910300	28.122848	0.000270	20.924625
2611.740891	-2.998300	2.960300	-8.874600	28.141291	0.000270	20.911425
2612.740246	-2.997300	2.957500	-8.863800	28.145902	0.000271	20.919385
2613.739618	-3.019100	2.955300	-8.920400	28.111667	0.000269	20.911475
2614.740007	-2.996500	2.957200	-8.859400	28.096545	0.000270	20.904313
2615.741090	-3.030600	2.952900	-8.947600	28.093844	0.000270	20.927195
2616.742146	-2.997100	2.952700	-8.848900	28.121435	0.000268	20.902342
2617.739551	-3.005200	2.952200	-8.871100	28.118286	0.000268	20.915767
2618.741634	-3.005000	2.949600	-8.862000	28.089133	0.000267	20.909653
2619.743454	-2.969000	2.950700	-8.759000	28.097265	0.000268	20.927794
2620.742043	-2.987600	2.947100	-8.803500	28.072152	0.000268	20.923852
2621.742492	-3.018200	2.945000	-8.887800	28.061740	0.000268	20.911949
2622.742032	-2.983600	2.944200	-8.783800	28.031073	0.000269	20.924226
2623.753358	-2.987500	2.943500	-8.793400	28.054526	0.000268	20.919385
2624.752257	-3.004600	2.941300	-8.835900	28.089580	0.000270	20.921007
2625.744510	-2.996200	2.939300	-8.806000	28.117642	0.000268	20.914170
2626.746404	-3.000500	2.938800	-8.816500	28.152025	0.000271	20.926023
2627.746722	-3.010000	2.936000	-8.836900	28.165039	0.000270	20.894083
2628.747775	-3.006700	2.934500	-8.822200	28.176020	0.000267	20.917464
2629.752177	-3.008500	2.933500	-8.824900	28.194116	0.000268	20.898699
2630.750668	-2.986500	2.932300	-8.755900	28.199396	0.000273	20.904488
2631.747942	-3.001100	2.929700	-8.791900	28.237395	0.000269	20.902442
2632.750757	-2.975300	2.928900	-8.713400	28.200734	0.000269	20.898250
2633.749966	-3.003200	2.926700	-8.788400	28.176963	0.000270	20.909404
2634.747323	-2.992200	2.925200	-8.752000	28.155843	0.000268	20.905212
2635.751674	-3.009100	2.923000	-8.793900	28.136284	0.000268	20.909704
2636.747861	-3.017700	2.922200	-8.817200	28.119849	0.000268	20.907383
2637.748022	-3.010600	2.919700	-8.789100	28.127460	0.000266	20.899873
2638.749359	-3.017000	2.918600	-8.804800	28.153141	0.000267	20.904863
2639.749901	-3.029200	2.916000	-8.831100	28.173245	0.000269	20.893809
2640.748999	-2.984100	2.916100	-8.701200	28.182788	0.000267	20.912424
2641.749545	-2.983200	2.915200	-8.695400	28.205915	0.000266	20.910578
2642.750091	-3.008200	2.912400	-8.759200	28.203338	0.000268	20.913672
2643.750733	-2.985900	2.911600	-8.693300	28.209188	0.000266	20.888270
2644.750324	-2.997600	2.908300	-8.716300	28.260819	0.000267	20.911800
2645.750461	-2.990400	2.907900	-8.695400	28.256010	0.000266	20.899374
2646.750747	-3.005900	2.905200	-8.731200	28.303401	0.000268	20.905837
2647.752066	-2.995100	2.905100	-8.699800	28.295470	0.000267	20.907334
2648.751850	-3.017300	2.903200	-8.758700	28.314158	0.000268	20.882056
2649.751639	-3.027600	2.900100	-8.779400	28.331284	0.000266	20.884601
2650.752734	-3.028100	2.896400	-8.768800	28.353541	0.000269	20.875244
2651.752053	-3.028600	2.894900	-8.766000	28.339339	0.000268	20.904564
2652.752680	-2.999200	2.894900	-8.680400	28.311060	0.000268	20.891739
2653.753567	-2.996700	2.893000	-8.668600	28.232166	0.000267	20.897178
2654.754562	-2.977400	2.893100	-8.612800	28.156513	0.000266	20.899724
2655.756560	-2.984800	2.890400	-8.626500	28.143672	0.000266	20.907185
2656.769284	-3.008500	2.887600	-8.686100	28.068757	0.000265	20.872075
2657.752825	-3.014700	2.885300	-8.696900	28.056213	0.000267	20.901645
2658.754452	-3.010900	2.885000	-8.685800	28.063328	0.000269	20.897902
2659.757392	-3.024500	2.881400	-8.713900	28.040346	0.000267	20.898950
2660.753803	-3.025900	2.881300	-8.716600	28.072724	0.000265	20.889817
2661.755364	-3.035300	2.878000	-8.733600	28.036578	0.000268	20.894209
2662.758649	-3.008000	2.877000	-8.653100	28.009753	0.000267	20.880959
2663.757699	-2.983400	2.876700	-8.581600	28.004175	0.000267	20.895731
2664.757060	-2.998900	2.874700	-8.619800	28.011167	0.000267	20.876218
2665.761057	-3.016100	2.870200	-8.654500	28.045528	0.000268	20.876667
2666.759354	-3.026700	2.870200	-8.685900	28.114148	0.000266	20.886948
2667.759227	-3.018800	2.868000	-8.657000	28.156340	0.000267	20.893860
2668.765224	-3.020300	2.866000	-8.654700	28.176419	0.000267	20.891315
2669.763982	-2.973300	2.865100	-8.518300	28.239627	0.000265	20.878613
2670.761291	-3.000500	2.861200	-8.583600	28.266372	0.000266	20.885625
2671.761480	-3.012200	2.859900	-8.613600	28.292596	0.000267	20.869830
2672.761889	-2.999800	2.857400	-8.570000	28.315225	0.000268	20.877915
2673.763099	-2.996600	2.856500	-8.558700	28.309722	0.000267	20.885176
2674.762416	-2.986800	2.854300	-8.524200	28.281814	0.000266	20.893586
2675.764295	-2.997400	2.851700	-8.546800	28.283103	0.000267	20.881134
2676.763258	-3.041800	2.849200	-8.664500	28.284193	0.000266	20.861844
2677.763395	-3.038500	2.847300	-8.650500	28.326403	0.000266	20.867834
2678.763254	-2.990100	2.846100	-8.508600	28.312077	0.000269	20.885177
2679.764244	-3.017700	2.842200	-8.575400	28.297131	0.000267	20.876293
2680.762922	-3.013700	2.841200	-8.561700	28.304542	0.000267	20.886599
2681.769053	-2.971500	2.840300	-8.439000	28.295892	0.000267	20.886898
2682.764526	-2.991300	2.837000	-8.485400	28.287192	0.000265	20.877191
2683.764813	-2.970500	2.836300	-8.423900	28.329600	0.000267	20.880061
2684.766970	-3.001800	2.832100	-8.500400	28.383060	0.000266	20.879363
2685.767272	-3.034200	2.828800	-8.582200	28.392924	0.000266	20.862743
2686.767670	-3.014600	2.826300	-8.519400	28.406951	0.000267	20.884453
2687.766156	-3.005100	2.826700	-8.494000	28.440878	0.000267	20.865988
2688.771485	-3.016000	2.823600	-8.515200	28.463578	0.000267	20.883156
2689.769677	-3.048800	2.819500	-8.594300	28.462736	0.000270	20.877092
2690.768646	-3.018200	2.819100	-8.508000	28.366405	0.000264	20.874447
2691.770605	-2.953400	2.819700	-8.326800	28.323528	0.000266	20.875845
2692.769828	-2.980300	2.814700	-8.388100	28.339341	0.000266	20.862844
2693.770009	-2.985900	2.812800	-8.397500	28.309401	0.000264	20.872526
2694.770204	-2.973900	2.810300	-8.356500	28.279039	0.000266	20.872775
2695.772588	-2.999800	2.807000	-8.418900	28.291680	0.000267	20.874123
2696.770854	-2.999900	2.805100	-8.414500	28.347198	0.000267	20.858427
2697.769950	-2.978300	2.803400	-8.348500	28.344868	0.000266	20.882158
2698.771190	-2.986100	2.801000	-8.362300	28.415874	0.000267	20.873525
2699.788836	-2.999000	2.798000	-8.390600	28.412404	0.000266	20.868608
2700.772967	-2.970800	2.797100	-8.308200	28.455649	0.000266	20.865215
2701.775145	-2.976000	2.792800	-8.310100	28.506971	0.000267	20.856680
2702.774457	-3.029800	2.790100	-8.452600	28.514504	0.000267	20.860474
2703.773726	-3.015100	2.786500	-8.400000	28.503180	0.000268	20.857604
2704.772952	-2.993400	2.786100	-8.338900	28.495795	0.000267	20.869133
2705.773249	-3.008300	2.783200	-8.372100	28.458772	0.000268	20.862670
2706.774014	-3.037700	2.779300	-8.441500	28.419740	0.000266	20.857978
2707.774310	-2.976000	2.777800	-8.265400	28.412032	0.000266	20.863967
2708.774782	-2.997800	2.774500	-8.316300	28.445811	0.000265	20.862420
2709.774691	-3.005500	2.770600	-8.326100	28.463233	0.000267	20.869058
2710.781646	-3.006700	2.768400	-8.323100	28.500404	0.000265	20.872352
2711.777658	-3.008500	2.765500	-8.318900	28.498868	0.000268	20.857055
2712.775071	-3.023400	2.762000	-8.349800	28.488881	0.000264	20.859800
2713.776632	-3.004900	2.760200	-8.293600	28.440086	0.000265	20.840535
2714.779672	-2.989500	2.755900	-8.238000	28.447348	0.000265	20.845950
2715.780021	-3.016300	2.751500	-8.298900	28.478622	0.000265	20.848047
2716.776594	-2.998000	2.749600	-8.241700	28.520526	0.000265	20.859426
2717.776790	-3.014800	2.745900	-8.277400	28.557350	0.000264	20.842457
2718.782396	-2.983300	2.744100	-8.185800	28.590727	0.000264	20.856157
2719.775804	-3.012000	2.741800	-8.257700	28.590008	0.000265	20.854485
2720.776604	-2.986300	2.738500	-8.177000	28.580939	0.000263	20.845826
2721.779454	-3.004700	2.734500	-8.215100	28.622294	0.000263	20.862346
2722.776212	-3.011400	2.732300	-8.227000	28.667191	0.000264	20.857779
2723.777110	-3.008600	2.727500	-8.205400	28.710228	0.000262	20.834747
2724.778494	-3.001700	2.725600	-8.180000	28.716595	0.000266	20.846850
2725.776685	-3.008400	2.722500	-8.189300	28.728661	0.000262	20.851416
2726.776987	-2.989200	2.719600	-8.128200	28.747862	0.000264	20.859377
2727.779366	-3.040500	2.713900	-8.250400	28.744022	0.000264	20.846026
2728.777417	-2.980500	2.712700	-8.084500	28.767632	0.000265	20.858429
2729.777833	-3.015200	2.706600	-8.160500	28.756979	0.000264	20.857181
2730.777484	-2.990100	2.704600	-8.086000	28.694421	0.000265	20.847748
2731.780776	-2.992900	2.702500	-8.087400	28.686716	0.000266	20.848522
2732.777776	-2.994100	2.697800	-8.077000	28.691969	0.000266	20.851442
2733.777252	-3.006100	2.693800	-8.097100	28.663797	0.000266	20.844879
2734.782365	-2.996800	2.688200	-8.055300	28.718281	0.000263	20.849495
2735.778479	-2.985500	2.686600	-8.020500	28.727151	0.000266	20.861274
2736.779366	-2.996000	2.683000	-8.036800	28.744270	0.000267	20.817354
2737.783071	-2.999100	2.678000	-8.030700	28.692563	0.000266	20.861523
2738.779909	-3.005900	2.674400	-8.037800	28.662212	0.000265	20.837593
2739.782428	-2.988100	2.671000	-7.980000	28.648858	0.000266	20.835522
2740.786205	-3.001500	2.665600	-8.000100	28.669076	0.000266	20.846876
2741.782313	-3.006900	2.661500	-8.001900	28.719669	0.000267	20.860850
2742.782327	-3.011900	2.656900	-8.001100	28.741744	0.000265	20.848473
2743.784766	-2.965500	2.654400	-7.870600	28.758219	0.000266	20.824292
2744.782352	-3.006300	2.648500	-7.960100	28.799146	0.000267	20.849871
2745.783125	-3.017000	2.645700	-7.980200	28.797264	0.000266	20.848449
2746.783457	-3.016700	2.640700	-7.965000	28.819288	0.000270	20.840288
2747.784121	-3.002500	2.636600	-7.915200	28.751655	0.000267	20.844232
2748.784530	-2.993800	2.631400	-7.876700	28.723436	0.000267	20.810593
2749.784205	-2.981500	2.628600	-7.836400	28.696752	0.000267	20.835872
2750.785964	-3.007700	2.622700	-7.886900	28.709636	0.000265	20.847900
2751.784426	-2.995600	2.618000	-7.841500	28.664245	0.000265	20.814985
2752.785686	-3.008500	2.611800	-7.856800	28.638924	0.000266	20.818404
2753.787633	-2.993500	2.608200	-7.807100	28.635157	0.000267	20.817456
2754.784446	-2.997500	2.602100	-7.799100	28.689444	0.000267	20.828985
2755.786586	-2.982800	2.598700	-7.750100	28.737137	0.000267	20.840514
2756.788030	-2.982700	2.592500	-7.730900	28.792905	0.000266	20.842161
2757.799245	-3.002600	2.587900	-7.769700	28.817579	0.000266	20.820076
2758.788673	-3.007100	2.581200	-7.761300	28.873219	0.000268	20.824918
2759.789145	-2.979300	2.577000	-7.676000	28.842254	0.000267	20.823595
2760.785480	-2.990100	2.570500	-7.684400	28.841412	0.000266	20.828437
2761.789554	-2.974800	2.566100	-7.633200	28.787951	0.000266	20.808248
2762.791060	-2.992000	2.559900	-7.658800	28.790057	0.000268	20.816059
2763.789624	-3.019500	2.553600	-7.709100	28.826325	0.000268	20.804231
2764.788450	-2.997600	2.549600	-7.640600	28.845351	0.000267	20.810594
2765.786067	-3.015900	2.542600	-7.666500	28.858926	0.000268	20.831382
2766.786975	-2.996900	2.537600	-7.603900	28.902971	0.000268	20.824544
2767.787711	-3.006100	2.531300	-7.608400	28.891898	0.000268	20.843735
2768.786173	-2.974100	2.526200	-7.511200	28.938071	0.000268	20.815336
2769.807592	-3.043200	2.518100	-7.661600	28.935446	0.000268	20.852045
2770.788621	-2.949700	2.515000	-7.416700	28.892642	0.000269	20.819829
2771.786136	-2.992700	2.507300	-7.502700	28.886820	0.000268	20.833404
2772.787359	-3.015800	2.500300	-7.539900	28.914589	0.000268	20.822973
2773.788115	-2.970000	2.494600	-7.407900	28.922169	0.000267	20.827290
