LabVIEW Measurement	
Writer_Version	2
Reader_Version	2
Separator	Tab
Decimal_Separator	.
Multi_Headings	No
X_Columns	One
Time_Pref	Absolute
Operator	admin
Description	Clolumns are: time, Current, Voltage, Power, Battery Temp, and Chamber Temp
Date	2024/08/16
Time	13:06:06.104549407958984375
***End_of_Header***	
	
Channels	6						
Samples	1	1	1	1	1	1	
Date	2024/09/20	2024/09/20	2024/09/20	2024/09/20	2024/09/20	2024/09/20	
Time	06:58:51.8143711090087890625	06:58:51.82022857666015625	06:58:51.8292174339294433594	06:58:51.7966337203979492188	06:58:51.7966337203979492188	06:58:51.7966337203979492188	
X_Dimension	Time	Time	Time	Time	Time	Time	
X0	0.0000000000000000E+0	0.0000000000000000E+0	0.0000000000000000E+0	0.0000000000000000E+0	0.0000000000000000E+0	0.0000000000000000E+0	
Delta_X	1.000000	1.000000	1.000000	1.000000	1.000000	1.000000	
***End_of_Header***							
X_Value	Untitled	Untitled 1	Untitled 2	Untitled 3	Untitled 4	Untitled 5	Comment
0.000000	0.014160	4.089300	0.057912	20.974880	0.001044	20.716952
0.999186	-3.020600	3.900800	-11.781000	20.974603	0.001045	20.685851
2.002792	-3.010000	3.894000	-11.719000	20.966364	0.001042	20.711278
3.000491	-2.995300	3.888700	-11.646000	20.978992	0.001042	20.715848
4.000771	-2.989800	3.885000	-11.614000	20.963674	0.001041	20.698156
5.005719	-2.995400	3.882800	-11.629000	20.978346	0.001038	20.709986
6.002324	-3.008100	3.878200	-11.664000	20.993615	0.001041	20.707713
7.002556	-3.003300	3.874900	-11.636000	20.961124	0.001038	20.711728
8.002553	-3.011200	3.873000	-11.660000	20.980839	0.001036	20.713902
9.002715	-3.002000	3.870800	-11.619000	20.982637	0.001038	20.706691
10.002371	-2.992100	3.869400	-11.577000	20.992397	0.001035	20.703176
11.007538	-2.989900	3.866800	-11.559000	20.965995	0.001034	20.705694
12.004094	-3.002000	3.867400	-11.609000	21.014000	0.001035	20.695384
13.002840	-3.014600	3.863000	-11.644000	20.992927	0.001034	20.701335
14.004926	-2.997200	3.862300	-11.575000	21.018903	0.001032	20.726369
15.007120	-2.995600	3.861600	-11.567000	20.999638	0.001033	20.716109
16.005981	-3.011100	3.859600	-11.620000	20.997700	0.001032	20.722232
17.006000	-2.999700	3.858600	-11.573000	21.013656	0.001032	20.723018
18.007792	-3.017900	3.855900	-11.635000	21.035348	0.001031	20.709625
19.006160	-3.002400	3.857900	-11.582000	21.025270	0.001031	20.698596
20.006675	-3.026500	3.853900	-11.663000	21.045482	0.001030	20.718340
21.008645	-3.019300	3.855300	-11.639000	21.040292	0.001028	20.712674
22.010433	-2.973000	3.855000	-11.461000	21.043014	0.001029	20.711603
23.007192	-2.987900	3.853300	-11.512000	21.067991	0.001029	20.728052
24.005242	-2.978300	3.852600	-11.473000	21.062875	0.001027	20.711554
25.006638	-3.011700	3.851100	-11.596000	21.064272	0.001028	20.726229
26.006099	-3.005600	3.850200	-11.571000	21.070712	0.001026	20.712756
27.006930	-2.984400	3.851100	-11.492000	21.101019	0.001028	20.726475
28.007890	-3.015900	3.848100	-11.604000	21.097447	0.001027	20.734757
29.008787	-3.003900	3.847700	-11.556000	21.108382	0.001026	20.721038
30.007739	-2.993100	3.849400	-11.520000	21.111447	0.001028	20.718888
31.007858	-3.003700	3.847100	-11.554000	21.129843	0.001026	20.720220
32.009911	-3.004600	3.846100	-11.554000	21.128193	0.001026	20.744649
33.008146	-3.025500	3.845500	-11.633000	21.139348	0.001026	20.730676
34.007866	-3.004400	3.845400	-11.552000	21.138776	0.001027	20.722991
35.009839	-2.990100	3.844100	-11.494000	21.144931	0.001025	20.746219
36.010067	-2.989200	3.846200	-11.495000	21.149801	0.001025	20.710311
37.009301	-2.994700	3.844400	-11.512000	21.182286	0.001025	20.721471
38.012173	-3.012000	3.841500	-11.570000	21.200764	0.001025	20.725256
39.008868	-3.000500	3.843000	-11.528000	21.174719	0.001025	20.713426
40.010041	-2.992200	3.841900	-11.493000	21.189691	0.001025	20.727930
41.009830	-3.009800	3.842300	-11.563000	21.181363	0.001025	20.748523
42.014732	-3.019600	3.840500	-11.595000	21.227160	0.001026	20.728903
43.009891	-3.005100	3.841400	-11.543000	21.211757	0.001023	20.733408
44.009802	-3.029600	3.838300	-11.627000	21.209092	0.001026	20.727423
45.009511	-2.981900	3.839900	-11.447000	21.219822	0.001025	20.732942
46.008736	-3.006000	3.840000	-11.541000	21.234933	0.001025	20.728617
47.009360	-3.000000	3.837400	-11.511000	21.234410	0.001024	20.720033
48.012257	-3.003800	3.838100	-11.529000	21.267302	0.001023	20.736344
49.012682	-3.016100	3.837200	-11.573000	21.262897	0.001024	20.711547
50.014558	-3.017100	3.836600	-11.574000	21.285124	0.001026	20.740423
51.011889	-3.006200	3.837100	-11.533000	21.303281	0.001024	20.738673
52.012715	-3.006600	3.837400	-11.537000	21.289929	0.001024	20.731954
53.016728	-3.004800	3.836900	-11.527000	21.311502	0.001025	20.731251
54.013682	-2.979400	3.836800	-11.431000	21.303853	0.001024	20.732133
55.019648	-3.019000	3.835500	-11.578000	21.309533	0.001022	20.734496
56.013580	-3.002700	3.835800	-11.517000	21.294301	0.001024	20.733956
57.013690	-3.022700	3.834800	-11.590000	21.346075	0.001025	20.738813
58.014643	-3.026200	3.833900	-11.600000	21.344008	0.001024	20.750970
59.014795	-3.008800	3.833900	-11.533000	21.355301	0.001023	20.749940
60.017030	-3.023400	3.832700	-11.586000	21.373791	0.001025	20.739990
61.015054	-2.975700	3.834200	-11.409000	21.360963	0.001025	20.747545
62.015069	-2.998400	3.832900	-11.491000	21.385786	0.001025	20.758630
63.018378	-3.009600	3.832500	-11.533000	21.399996	0.001025	20.733491
64.020441	-3.005100	3.833100	-11.518000	21.404939	0.001024	20.735118
65.016811	-3.013600	3.831200	-11.545000	21.402251	0.001024	20.727686
66.015570	-3.005800	3.830800	-11.513000	21.412448	0.001023	20.763020
67.015755	-2.992700	3.829500	-11.459000	21.424548	0.001025	20.740513
68.015931	-2.970600	3.831100	-11.379000	21.425946	0.001025	20.743808
69.018672	-2.984000	3.830100	-11.428000	21.435146	0.001026	20.755859
70.015625	-3.001400	3.830600	-11.496000	21.436666	0.001026	20.729877
71.017387	-3.006300	3.828800	-11.509000	21.431698	0.001026	20.757625
72.020683	-3.016900	3.829000	-11.550000	21.440415	0.001025	20.744061
73.018861	-3.008300	3.829200	-11.516000	21.456626	0.001024	20.747479
74.020036	-3.005700	3.828100	-11.504000	21.451781	0.001026	20.754485
75.022592	-3.018500	3.827800	-11.552000	21.456724	0.001026	20.745206
76.021226	-2.994200	3.829500	-11.464000	21.479274	0.001027	20.731732
77.020750	-2.991200	3.828900	-11.451000	21.508017	0.001026	20.748640
78.022879	-2.991700	3.828800	-11.453000	21.494978	0.001026	20.761672
79.022673	-3.015300	3.826200	-11.536000	21.508621	0.001028	20.736916
80.020388	-2.994600	3.826300	-11.457000	21.519970	0.001025	20.757755
81.020669	-2.997400	3.826200	-11.468000	21.522845	0.001025	20.750675
82.021814	-3.000000	3.827200	-11.481000	21.536603	0.001026	20.746899
83.020696	-3.008800	3.825300	-11.508000	21.548285	0.001025	20.755269
84.022301	-2.996200	3.826000	-11.462000	21.547036	0.001026	20.774408
85.021692	-2.992200	3.827200	-11.450000	21.530566	0.001027	20.770730
86.026189	-3.003100	3.823600	-11.480000	21.552845	0.001026	20.763625
87.021951	-2.994400	3.824400	-11.450000	21.580629	0.001026	20.762979
88.022377	-2.992700	3.824700	-11.445000	21.592148	0.001028	20.783989
89.028372	-3.017200	3.823700	-11.535000	21.600547	0.001028	20.773902
90.023977	-3.015700	3.821500	-11.524000	21.616902	0.001027	20.757077
91.025497	-2.993700	3.823300	-11.444000	21.610603	0.001028	20.777327
92.022799	-3.005100	3.822500	-11.486000	21.640306	0.001028	20.777653
93.023313	-3.016500	3.821500	-11.527000	21.639302	0.001028	20.771433
94.023524	-2.991300	3.822400	-11.433000	21.651000	0.001027	20.776501
95.025468	-2.998400	3.822100	-11.459000	21.663065	0.001031	20.775774
96.023023	-3.005700	3.821700	-11.485000	21.663245	0.001029	20.775479
97.023556	-2.991600	3.821400	-11.430000	21.675482	0.001028	20.771604
98.023196	-2.991100	3.821400	-11.430000	21.690325	0.001030	20.764647
99.024051	-2.999500	3.820900	-11.461000	21.692244	0.001030	20.767042
100.024135	-2.985000	3.821800	-11.405000	21.696280	0.001030	20.770607
101.024852	-3.002300	3.820800	-11.470000	21.715337	0.001030	20.765023
102.024207	-3.004600	3.820200	-11.477000	21.721570	0.001031	20.785011
103.023531	-2.986900	3.821500	-11.413000	21.722313	0.001030	20.776747
104.024317	-2.989200	3.820800	-11.419000	21.744858	0.001032	20.781766
105.026008	-3.019900	3.819600	-11.533000	21.754537	0.001030	20.784341
106.024176	-3.014200	3.818500	-11.509000	21.752789	0.001030	20.785911
107.024726	-3.007300	3.818100	-11.481000	21.775407	0.001032	20.780572
108.025163	-3.003500	3.817500	-11.465000	21.779287	0.001031	20.785404
109.024855	-3.000200	3.819100	-11.457000	21.802035	0.001033	20.806275
110.024216	-3.020600	3.817500	-11.530000	21.807148	0.001034	20.792426
111.025531	-2.992200	3.819200	-11.428000	21.812489	0.001031	20.786866
112.024626	-3.004800	3.818200	-11.472000	21.795852	0.001033	20.794870
113.026970	-2.987000	3.817400	-11.400000	21.827494	0.001032	20.776754
114.024509	-2.979300	3.817500	-11.373000	21.814752	0.001033	20.800511
115.023975	-2.990700	3.817700	-11.417000	21.832607	0.001035	20.771440
116.030369	-3.012900	3.817400	-11.500000	21.853450	0.001034	20.790881
117.025476	-3.001100	3.816500	-11.452000	21.848289	0.001034	20.785714
118.024968	-3.001100	3.815600	-11.450000	21.872995	0.001032	20.791478
119.025731	-2.994800	3.815300	-11.425000	21.857036	0.001036	20.801108
120.024311	-2.997100	3.816100	-11.436000	21.857208	0.001036	20.792745
121.025917	-2.993900	3.815900	-11.423000	21.879350	0.001036	20.808744
122.028022	-3.011400	3.815500	-11.489000	21.883009	0.001037	20.786802
123.026285	-2.983500	3.816000	-11.384000	21.903460	0.001037	20.784513
124.027737	-3.005700	3.814500	-11.465000	21.904481	0.001037	20.806872
125.026017	-3.011900	3.814000	-11.485000	21.913407	0.001036	20.795418
126.026970	-2.995900	3.815800	-11.431000	21.943772	0.001037	20.811588
127.028946	-2.999500	3.815200	-11.443000	21.925797	0.001037	20.790276
128.027290	-2.994400	3.813300	-11.417000	21.945913	0.001034	20.803774
129.029958	-3.010200	3.814000	-11.480000	21.953320	0.001037	20.798860
130.028278	-2.985000	3.813500	-11.383000	21.958073	0.001039	20.807886
131.028980	-2.999100	3.812800	-11.433000	21.954667	0.001039	20.804950
132.031090	-3.009900	3.814300	-11.479000	21.979021	0.001040	20.815104
133.029482	-3.019700	3.810500	-11.506000	21.973941	0.001040	20.804803
134.028611	-3.003000	3.812500	-11.446000	21.988241	0.001040	20.817696
135.029286	-2.993300	3.812800	-11.412000	21.991630	0.001039	20.804493
136.029986	-3.019800	3.811200	-11.507000	21.984206	0.001041	20.805122
137.030487	-2.979300	3.810300	-11.351000	22.006812	0.001040	20.801673
138.032411	-2.990500	3.812000	-11.397000	22.013117	0.001040	20.809881
139.028787	-2.981700	3.810900	-11.361000	22.033687	0.001041	20.801076
140.033387	-3.018400	3.811300	-11.501000	22.003913	0.001042	20.806358
141.031603	-2.999800	3.809900	-11.428000	22.008527	0.001040	20.797700
142.031341	-3.002200	3.811500	-11.442000	22.040009	0.001042	20.806456
143.035760	-3.031300	3.808700	-11.544000	22.032683	0.001042	20.814770
144.032950	-3.014600	3.808800	-11.481000	22.033255	0.001042	20.804437
145.035467	-3.033400	3.806700	-11.546000	22.064066	0.001045	20.806832
146.034559	-3.002600	3.807700	-11.432000	22.065168	0.001044	20.770003
147.035086	-3.009600	3.808800	-11.462000	22.086604	0.001046	20.787669
148.034511	-3.006700	3.808400	-11.450000	22.091554	0.001045	20.775080
149.038183	-3.013900	3.807900	-11.476000	22.094312	0.001045	20.795386
150.037295	-2.995200	3.807700	-11.403000	22.095031	0.001046	20.789468
151.037230	-2.980400	3.807600	-11.347000	22.096452	0.001046	20.782829
152.036469	-2.999500	3.809400	-11.423000	22.098126	0.001046	20.784979
153.036354	-2.984900	3.807900	-11.364000	22.111811	0.001045	20.783982
154.041190	-3.013600	3.807000	-11.472000	22.136594	0.001048	20.786982
155.036742	-3.012100	3.806300	-11.464000	22.147185	0.001048	20.760600
156.039843	-3.003000	3.806500	-11.429000	22.138733	0.001048	20.791020
157.036866	-2.999300	3.806200	-11.414000	22.147886	0.001049	20.766993
158.036282	-3.005300	3.807000	-11.439000	22.145086	0.001050	20.777466
159.037607	-3.002800	3.807000	-11.430000	22.139411	0.001050	20.761352
160.037071	-2.997900	3.806400	-11.411000	22.148817	0.001051	20.759390
161.036300	-2.983700	3.806800	-11.358000	22.161498	0.001051	20.769241
162.036677	-3.010500	3.804600	-11.453000	22.158306	0.001051	20.759881
163.037750	-3.002800	3.804900	-11.425000	22.126933	0.001052	20.766878
164.037562	-3.007800	3.805300	-11.444000	22.154377	0.001052	20.755948
165.040511	-2.999600	3.803900	-11.408000	22.153536	0.001051	20.744199
166.037913	-2.987700	3.803900	-11.364000	22.182751	0.001053	20.767286
167.039157	-3.013100	3.803700	-11.460000	22.189324	0.001054	20.759168
168.039163	-3.014500	3.802800	-11.461000	22.189651	0.001053	20.780359
169.040325	-3.025400	3.802800	-11.504000	22.187062	0.001053	20.765438
170.043334	-3.018400	3.801400	-11.472000	22.186883	0.001053	20.767630
171.038920	-3.022600	3.802100	-11.491000	22.203996	0.001053	20.764375
172.041880	-3.005700	3.803400	-11.430000	22.211222	0.001056	20.771136
173.041114	-3.007300	3.802700	-11.435000	22.230516	0.001055	20.765797
174.040410	-3.010000	3.801200	-11.441000	22.233185	0.001057	20.765151
175.043712	-3.005900	3.801400	-11.425000	22.245147	0.001057	20.762429
176.043459	-3.004300	3.801800	-11.421000	22.268506	0.001057	20.779654
177.040411	-2.985700	3.803000	-11.353000	22.275935	0.001058	20.770497
178.040533	-2.990800	3.801600	-11.369000	22.285063	0.001058	20.742178
179.040499	-3.014200	3.800200	-11.453000	22.316838	0.001057	20.757400
180.040339	-2.980700	3.802400	-11.332000	22.315972	0.001059	20.760327
181.042935	-3.002000	3.801800	-11.412000	22.311409	0.001060	20.752438
182.044383	-3.001000	3.800500	-11.403000	22.325051	0.001059	20.743812
183.043794	-3.030700	3.801100	-11.518000	22.330586	0.001060	20.774485
184.045650	-3.009400	3.800000	-11.434000	22.314160	0.001062	20.742389
185.041022	-2.997100	3.799900	-11.387000	22.327075	0.001059	20.720707
186.047139	-2.992500	3.799400	-11.369000	22.335272	0.001061	20.736503
187.041903	-3.015500	3.799300	-11.456000	22.371536	0.001061	20.741048
188.039746	-3.031500	3.799100	-11.515000	22.354195	0.001063	20.740753
189.050850	-2.989800	3.800200	-11.359000	22.325866	0.001064	20.733722
190.041968	-2.996400	3.800100	-11.385000	22.313848	0.001061	20.756777
191.044666	-3.007200	3.799200	-11.424000	22.335785	0.001065	20.735120
192.046371	-3.029200	3.796500	-11.500000	22.311039	0.001063	20.742584
193.045053	-2.997800	3.797600	-11.384000	22.332723	0.001065	20.743908
194.044910	-3.034400	3.796000	-11.517000	22.316599	0.001067	20.731081
195.046860	-2.996000	3.797700	-11.376000	22.327375	0.001068	20.743294
196.046567	-3.007500	3.796600	-11.417000	22.348732	0.001065	20.726747
197.047603	-3.013600	3.796100	-11.438000	22.361566	0.001065	20.744341
198.046385	-3.005700	3.797900	-11.414000	22.368399	0.001068	20.743597
199.048288	-2.987500	3.797300	-11.343000	22.358512	0.001068	20.752663
200.046167	-3.034000	3.796100	-11.516000	22.368154	0.001068	20.747144
201.051385	-2.972400	3.797700	-11.286000	22.382864	0.001068	20.723468
202.049953	-3.000500	3.795600	-11.388000	22.413445	0.001069	20.731332
203.049342	-3.018700	3.793700	-11.451000	22.420923	0.001068	20.742614
204.047842	-3.011600	3.794500	-11.427000	22.450156	0.001069	20.751975
205.050666	-2.998200	3.794600	-11.376000	22.469821	0.001071	20.729942
206.049053	-2.992000	3.794000	-11.351000	22.481493	0.001072	20.722665
207.047725	-3.010400	3.795300	-11.425000	22.509696	0.001072	20.727677
208.050292	-2.997500	3.794900	-11.374000	22.514642	0.001074	20.736898
209.053878	-2.991700	3.793400	-11.348000	22.546485	0.001073	20.735598
210.050591	-3.008000	3.793400	-11.408000	22.558174	0.001073	20.728338
211.049087	-3.026300	3.794000	-11.480000	22.546493	0.001072	20.729442
212.049504	-3.019700	3.793500	-11.454000	22.530281	0.001072	20.732171
213.054802	-3.007700	3.793600	-11.410000	22.546500	0.001074	20.726130
214.050321	-2.994400	3.792600	-11.355000	22.523628	0.001074	20.738311
215.050855	-3.017700	3.791200	-11.438000	22.518453	0.001075	20.722221
216.050204	-2.993800	3.792400	-11.352000	22.512575	0.001076	20.718706
217.051519	-2.989200	3.792300	-11.335000	22.503882	0.001077	20.719482
218.053339	-2.990100	3.791500	-11.336000	22.518745	0.001075	20.715876
219.055959	-3.006500	3.792800	-11.402000	22.540948	0.001079	20.757554
220.052923	-2.996900	3.791300	-11.361000	22.555967	0.001077	20.736560
221.054695	-3.007500	3.791300	-11.402000	22.586085	0.001078	20.704609
222.053682	-2.995600	3.792800	-11.360000	22.580372	0.001079	20.698886
223.054799	-2.989700	3.790000	-11.330000	22.591048	0.001079	20.720011
224.056670	-3.011600	3.789400	-11.410000	22.605201	0.001077	20.716643
225.055503	-3.023800	3.789700	-11.458000	22.616587	0.001081	20.737057
226.054663	-2.997400	3.789500	-11.357000	22.613053	0.001081	20.713127
227.057058	-3.007000	3.789300	-11.394000	22.604384	0.001081	20.720567
228.053322	-3.001900	3.788700	-11.372000	22.614978	0.001081	20.709366
229.056383	-3.012600	3.788600	-11.413000	22.648214	0.001082	20.714206
230.056285	-3.012300	3.789600	-11.414000	22.648842	0.001082	20.715784
231.057550	-2.984600	3.790100	-11.310000	22.650319	0.001083	20.720582
232.055159	-3.008100	3.789100	-11.397000	22.673237	0.001085	20.704656
233.054299	-3.008700	3.788100	-11.396000	22.659036	0.001083	20.717459
234.054463	-3.017800	3.786500	-11.425000	22.668454	0.001084	20.731636
235.056513	-2.984000	3.789000	-11.305000	22.701819	0.001086	20.711474
236.056891	-2.985900	3.786800	-11.305000	22.724695	0.001085	20.710207
237.056820	-3.010800	3.787700	-11.403000	22.709189	0.001087	20.707477
238.056056	-2.997200	3.787800	-11.351000	22.674844	0.001088	20.701050
239.066599	-2.997000	3.786500	-11.347000	22.706992	0.001088	20.728511
240.057530	-2.985300	3.786400	-11.303000	22.721185	0.001088	20.704320
241.057011	-3.003300	3.786100	-11.369000	22.740347	0.001089	20.707868
242.056947	-3.007200	3.785700	-11.384000	22.734186	0.001088	20.720189
243.057646	-3.009100	3.785300	-11.389000	22.746371	0.001091	20.697780
244.060647	-2.994300	3.786700	-11.338000	22.742657	0.001089	20.716347
245.060885	-3.004000	3.784900	-11.369000	22.725666	0.001090	20.702644
246.059909	-3.000000	3.785200	-11.355000	22.737451	0.001091	20.724408
247.057597	-2.987700	3.785900	-11.309000	22.748240	0.001090	20.715774
248.060311	-3.010200	3.784000	-11.390000	22.751006	0.001092	20.700052
249.058440	-2.996500	3.785100	-11.340000	22.767296	0.001091	20.712104
250.058540	-3.012700	3.783100	-11.395000	22.778810	0.001091	20.708939
251.061618	-2.986900	3.785000	-11.303000	22.782818	0.001092	20.715325
252.058791	-3.026200	3.782900	-11.447000	22.790489	0.001094	20.694084
253.060923	-3.016500	3.782900	-11.410000	22.805366	0.001093	20.715627
254.057844	-3.007200	3.782000	-11.371000	22.817044	0.001095	20.686072
255.059060	-3.013200	3.782400	-11.396000	22.825017	0.001094	20.715873
256.060935	-3.025000	3.782800	-11.442000	22.845695	0.001095	20.703396
257.060091	-2.996700	3.782500	-11.335000	22.818896	0.001096	20.693618
258.059910	-3.015100	3.779800	-11.396000	22.830925	0.001096	20.691918
259.060014	-2.999300	3.782100	-11.343000	22.822160	0.001099	20.698311
260.059803	-2.983000	3.781100	-11.278000	22.850281	0.001098	20.695188
261.060097	-3.012400	3.780400	-11.386000	22.853489	0.001096	20.691763
262.060532	-3.002900	3.779900	-11.350000	22.869964	0.001099	20.698785
263.063927	-3.000600	3.780200	-11.342000	22.871359	0.001100	20.704925
264.060837	-3.010800	3.779600	-11.378000	22.864888	0.001099	20.688483
265.060287	-3.016600	3.779900	-11.400000	22.881404	0.001099	20.694124
266.061028	-3.001800	3.778600	-11.342000	22.905247	0.001099	20.700468
267.060174	-3.008700	3.780100	-11.372000	22.898474	0.001101	20.702692
268.071651	-2.993800	3.780300	-11.315000	22.920449	0.001102	20.699103
269.063588	-3.007800	3.779300	-11.366000	22.934826	0.001104	20.683634
270.063141	-2.992600	3.776600	-11.300000	22.909139	0.001103	20.683977
271.066879	-3.007600	3.776700	-11.358000	22.922016	0.001102	20.688343
272.063371	-2.980800	3.778900	-11.264000	22.930444	0.001105	20.685882
273.064412	-2.972100	3.779600	-11.232000	22.948298	0.001105	20.703297
274.064813	-2.997700	3.777000	-11.321000	22.956800	0.001105	20.692848
275.063171	-2.996200	3.776400	-11.314000	22.986835	0.001105	20.710139
276.066465	-3.010200	3.775200	-11.362000	22.969357	0.001106	20.675081
277.064660	-3.003500	3.776500	-11.341000	22.954409	0.001105	20.717955
278.070715	-2.997200	3.776900	-11.319000	22.951520	0.001107	20.709371
279.065762	-2.997000	3.776500	-11.318000	22.978300	0.001106	20.676455
280.065434	-3.004800	3.773800	-11.338000	22.957494	0.001107	20.686904
281.068129	-2.997100	3.775000	-11.311000	22.989511	0.001108	20.684369
282.065841	-3.003200	3.775000	-11.335000	22.999988	0.001108	20.677322
283.066475	-2.971600	3.776800	-11.221000	22.999343	0.001110	20.697540
284.066063	-2.992400	3.775700	-11.297000	23.012765	0.001110	20.683012
285.068558	-2.985100	3.774200	-11.265000	23.033913	0.001108	20.681442
286.067594	-3.012500	3.771900	-11.362000	23.044650	0.001111	20.691727
287.070745	-3.010400	3.772600	-11.356000	23.025469	0.001111	20.681042
288.066755	-2.998700	3.773500	-11.315000	23.023625	0.001109	20.714759
289.069380	-3.018100	3.773200	-11.387000	23.035137	0.001113	20.685039
290.069321	-2.969900	3.773300	-11.206000	23.050305	0.001113	20.684116
291.070571	-2.994400	3.772700	-11.295000	23.063905	0.001113	20.683044
292.072278	-3.011900	3.771500	-11.359000	23.084285	0.001112	20.671696
293.068868	-2.979000	3.771900	-11.234000	23.070628	0.001114	20.695472
294.071262	-3.019700	3.770700	-11.385000	23.056986	0.001112	20.684647
295.069691	-2.994200	3.772100	-11.293000	23.072921	0.001113	20.692079
296.069075	-3.008900	3.772300	-11.349000	23.113714	0.001114	20.668467
297.071100	-3.005600	3.771300	-11.334000	23.100163	0.001115	20.666268
298.070313	-2.990700	3.770300	-11.274000	23.141011	0.001115	20.691081
299.074641	-3.010300	3.770500	-11.348000	23.123977	0.001115	20.685391
300.070409	-2.988300	3.772000	-11.270000	23.144414	0.001116	20.680265
301.071773	-2.994600	3.770300	-11.290000	23.143924	0.001118	20.686413
302.071773	-2.978100	3.769500	-11.224000	23.168725	0.001116	20.682816
303.073042	-2.996700	3.769100	-11.293000	23.139845	0.001117	20.653398
304.075398	-2.975700	3.770200	-11.219000	23.140791	0.001118	20.696551
305.073638	-2.973500	3.769500	-11.208000	23.146812	0.001117	20.667968
306.071429	-3.019200	3.767700	-11.374000	23.137226	0.001118	20.681123
307.071229	-2.983600	3.768200	-11.242000	23.148011	0.001119	20.652573
308.076934	-2.984000	3.768900	-11.245000	23.166082	0.001120	20.689177
309.072397	-2.984200	3.768300	-11.244000	23.131352	0.001122	20.655794
310.074409	-2.986900	3.766800	-11.249000	23.117009	0.001120	20.669873
311.073598	-3.009600	3.767200	-11.337000	23.106501	0.001120	20.685897
312.072998	-3.016100	3.765200	-11.355000	23.109291	0.001120	20.664983
313.075463	-2.984000	3.767400	-11.241000	23.140864	0.001120	20.684769
314.075690	-2.994200	3.764900	-11.271000	23.150630	0.001120	20.677485
315.073903	-2.985400	3.766300	-11.242000	23.156658	0.001122	20.656497
316.073870	-2.987000	3.765300	-11.246000	23.138636	0.001123	20.673053
317.078374	-2.994800	3.766200	-11.278000	23.157612	0.001123	20.656979
318.076240	-3.014700	3.764600	-11.348000	23.171147	0.001124	20.668172
319.079023	-3.020500	3.763700	-11.367000	23.168993	0.001125	20.655581
320.075124	-2.984100	3.764500	-11.233000	23.207792	0.001126	20.665539
321.084817	-3.012700	3.764200	-11.340000	23.208020	0.001124	20.671458
322.074597	-2.981700	3.765200	-11.226000	23.211185	0.001125	20.691701
323.073855	-2.987800	3.763400	-11.243000	23.223862	0.001125	20.664099
324.075280	-3.007000	3.762400	-11.312000	23.239990	0.001126	20.684532
325.075553	-3.004300	3.763300	-11.305000	23.234100	0.001126	20.659185
326.076891	-3.010300	3.762100	-11.324000	23.254640	0.001128	20.666969
327.074950	-2.993400	3.761400	-11.259000	23.272423	0.001127	20.680999
328.088023	-3.024300	3.760800	-11.373000	23.289863	0.001126	20.671449
329.076507	-2.994500	3.761000	-11.261000	23.276420	0.001129	20.675520
330.075253	-2.976100	3.763400	-11.199000	23.283215	0.001129	20.673795
331.077184	-3.000900	3.761300	-11.286000	23.280376	0.001130	20.652456
332.077010	-3.007600	3.760400	-11.309000	23.292954	0.001130	20.653208
333.077523	-2.993500	3.761500	-11.258000	23.276827	0.001130	20.679722
334.079238	-3.007400	3.759500	-11.305000	23.303412	0.001129	20.662267
335.077608	-3.006400	3.759500	-11.301000	23.295997	0.001130	20.665742
336.081685	-3.004700	3.758000	-11.290000	23.290678	0.001133	20.661833
337.077752	-2.993100	3.759900	-11.253000	23.298745	0.001131	20.659486
338.079257	-2.987400	3.759800	-11.231000	23.302905	0.001133	20.648481
339.080734	-3.014400	3.757500	-11.326000	23.297578	0.001131	20.686295
340.081075	-2.986300	3.757900	-11.221000	23.285081	0.001131	20.672821
341.078613	-3.007800	3.757300	-11.300000	23.270226	0.001134	20.654613
342.080028	-2.997400	3.757800	-11.262000	23.257305	0.001132	20.658733
343.078081	-3.016100	3.757800	-11.332000	23.262306	0.001134	20.660900
344.078848	-3.034200	3.755900	-11.395000	23.285244	0.001133	20.673932
345.081449	-2.992200	3.757200	-11.240000	23.305840	0.001134	20.669443
346.080434	-3.012200	3.755700	-11.312000	23.307684	0.001136	20.679827
347.093938	-3.000600	3.756500	-11.271000	23.341681	0.001135	20.682132
348.082974	-3.001600	3.756700	-11.274000	23.355548	0.001135	20.669950
349.081502	-2.995600	3.755100	-11.248000	23.348003	0.001137	20.674717
350.092190	-2.994900	3.755300	-11.247000	23.379805	0.001134	20.651112
351.089396	-3.005800	3.753000	-11.280000	23.392015	0.001136	20.653867
352.084109	-2.984300	3.755200	-11.206000	23.424583	0.001138	20.693626
353.082688	-2.987900	3.754200	-11.216000	23.424485	0.001137	20.676457
354.085910	-2.997600	3.753200	-11.249000	23.395310	0.001137	20.661438
355.088499	-3.009400	3.752400	-11.291000	23.411793	0.001137	20.680806
356.085258	-2.982600	3.753800	-11.194000	23.420887	0.001137	20.642976
357.083109	-2.989800	3.751600	-11.215000	23.429206	0.001136	20.677871
358.083426	-2.999100	3.751700	-11.251000	23.432665	0.001140	20.658576
359.083145	-3.003600	3.752400	-11.269000	23.425822	0.001139	20.679220
360.093655	-2.993700	3.751000	-11.227000	23.401524	0.001138	20.688532
361.091856	-2.998100	3.751400	-11.246000	23.408840	0.001139	20.684959
362.084334	-2.979400	3.751500	-11.176000	23.415414	0.001139	20.683962
363.085842	-2.987800	3.752800	-11.211000	23.381484	0.001137	20.658959
364.089886	-2.993200	3.752100	-11.230000	23.391801	0.001140	20.685899
365.083727	-3.000300	3.750600	-11.252000	23.390252	0.001139	20.664429
366.086163	-3.014100	3.749100	-11.299000	23.386671	0.001140	20.655149
367.085687	-3.006000	3.750100	-11.271000	23.405797	0.001139	20.677167
368.083614	-3.005900	3.748400	-11.266000	23.389264	0.001140	20.677665
369.085098	-3.009500	3.748600	-11.281000	23.397828	0.001142	20.674395
370.086644	-2.997600	3.747700	-11.233000	23.401677	0.001141	20.668769
371.086971	-3.020000	3.747300	-11.315000	23.418186	0.001141	20.668246
372.087349	-2.979900	3.748700	-11.169000	23.442206	0.001141	20.679047
373.086563	-2.990100	3.748200	-11.206000	23.456576	0.001142	20.669742
374.089909	-3.007600	3.745700	-11.265000	23.440199	0.001144	20.682251
375.087539	-3.000500	3.746000	-11.238000	23.429074	0.001142	20.680109
376.087784	-2.996900	3.746700	-11.228000	23.432165	0.001143	20.663765
377.086987	-3.010600	3.746900	-11.278000	23.434677	0.001144	20.684303
378.096844	-2.989200	3.746700	-11.198000	23.472773	0.001145	20.681711
379.096290	-3.009200	3.745700	-11.271000	23.492151	0.001143	20.669839
380.088948	-2.988900	3.744800	-11.192000	23.505159	0.001145	20.658695
381.089063	-2.971700	3.745200	-11.128000	23.539510	0.001145	20.659464
382.088821	-2.995300	3.745700	-11.219000	23.573867	0.001145	20.673044
383.092587	-2.996700	3.743600	-11.218000	23.579551	0.001145	20.687278
384.102486	-3.004600	3.744800	-11.249000	23.564594	0.001145	20.697415
385.090548	-2.988000	3.744500	-11.187000	23.541719	0.001146	20.685863
386.098053	-3.012500	3.741900	-11.271000	23.551635	0.001147	20.651229
387.091582	-3.009000	3.742400	-11.260000	23.541180	0.001145	20.672994
388.093498	-2.984800	3.743200	-11.171000	23.523980	0.001147	20.673770
389.091309	-3.003500	3.742300	-11.240000	23.494482	0.001146	20.690669
390.092125	-3.004700	3.741900	-11.243000	23.517513	0.001146	20.681512
391.090388	-3.005400	3.741300	-11.244000	23.502979	0.001147	20.680695
392.091526	-3.002600	3.741200	-11.231000	23.521753	0.001147	20.663476
393.092368	-2.976300	3.741400	-11.134000	23.504488	0.001148	20.684103
394.091087	-2.994900	3.739900	-11.200000	23.519502	0.001149	20.701526
395.091428	-2.986300	3.742000	-11.173000	23.521671	0.001147	20.669558
396.095747	-2.998500	3.740800	-11.216000	23.523963	0.001149	20.691772
397.092125	-2.988000	3.740100	-11.175000	23.538129	0.001148	20.672305
398.091577	-3.018300	3.740100	-11.288000	23.556241	0.001150	20.671021
399.097873	-2.999500	3.740300	-11.218000	23.561419	0.001146	20.681429
400.094395	-2.999600	3.737900	-11.211000	23.568963	0.001149	20.671920
401.092922	-2.985800	3.740100	-11.166000	23.578724	0.001150	20.679336
402.094986	-2.998400	3.738100	-11.207000	23.593542	0.001149	20.681862
403.094080	-3.011700	3.737600	-11.256000	23.553117	0.001149	20.691125
404.095919	-2.997300	3.738000	-11.203000	23.564599	0.001149	20.668494
405.092967	-2.997000	3.737500	-11.200000	23.571890	0.001148	20.692874
406.098878	-3.002000	3.737800	-11.220000	23.560717	0.001151	20.688312
407.094695	-2.998700	3.736400	-11.202000	23.585419	0.001153	20.677512
408.094091	-3.005800	3.736100	-11.229000	23.593932	0.001151	20.684625
409.097291	-3.001300	3.736100	-11.211000	23.628068	0.001151	20.681861
410.097564	-3.007300	3.736200	-11.234000	23.616121	0.001151	20.658976
411.098403	-3.013000	3.734800	-11.251000	23.621096	0.001151	20.663016
412.096386	-3.000200	3.735300	-11.206000	23.642713	0.001152	20.698441
413.096435	-2.984100	3.734600	-11.143000	23.638180	0.001152	20.694370
414.094271	-3.000700	3.733600	-11.202000	23.672493	0.001152	20.680405
415.098501	-3.006600	3.733800	-11.225000	23.681332	0.001153	20.685948
416.096368	-2.999600	3.734300	-11.201000	23.713411	0.001153	20.691083
417.100515	-2.992600	3.733500	-11.171000	23.733853	0.001153	20.702095
418.105471	-3.005500	3.732400	-11.217000	23.732858	0.001153	20.700149
419.107996	-3.008300	3.732200	-11.227000	23.771197	0.001153	20.675049
420.103582	-2.999500	3.733400	-11.197000	23.772371	0.001154	20.666268
421.098011	-3.021100	3.731000	-11.271000	23.789297	0.001153	20.679448
422.105263	-3.034600	3.730200	-11.318000	23.811384	0.001156	20.689267
423.098467	-2.989500	3.731900	-11.156000	23.801845	0.001152	20.699617
424.099306	-3.016400	3.730400	-11.251000	23.806982	0.001153	20.689119
425.098475	-3.009200	3.730500	-11.226000	23.789933	0.001153	20.672024
426.102586	-3.001500	3.731500	-11.199000	23.801812	0.001155	20.689626
427.098176	-2.977700	3.732400	-11.112000	23.805497	0.001156	20.687631
428.098994	-3.003100	3.730200	-11.200000	23.815436	0.001155	20.705184
429.103649	-2.986400	3.731100	-11.141000	23.844209	0.001155	20.680927
430.103909	-2.981200	3.729300	-11.116000	23.862357	0.001154	20.697229
431.103224	-2.990200	3.730000	-11.152000	23.873860	0.001155	20.679365
432.102384	-2.979200	3.730200	-11.113000	23.868259	0.001155	20.699355
433.101409	-2.979900	3.728700	-11.110000	23.865577	0.001156	20.709468
434.101680	-2.998300	3.728400	-11.177000	23.844673	0.001155	20.689928
435.105422	-2.998200	3.728600	-11.178000	23.826108	0.001156	20.691228
436.102365	-2.993400	3.727700	-11.158000	23.799031	0.001157	20.717660
437.105323	-3.003200	3.726500	-11.191000	23.800824	0.001155	20.681523
438.102354	-2.985400	3.728200	-11.129000	23.741866	0.001156	20.710604
439.105360	-3.008200	3.725900	-11.208000	23.796234	0.001154	20.705371
440.113444	-3.015600	3.726500	-11.237000	23.820726	0.001156	20.701954
441.105112	-2.996700	3.726500	-11.166000	23.843058	0.001156	20.703482
442.103580	-3.011100	3.724700	-11.213000	23.844655	0.001156	20.691807
443.106413	-2.979700	3.724200	-11.096000	23.836494	0.001157	20.681726
444.112986	-2.998800	3.724500	-11.168000	23.862478	0.001157	20.701618
445.102194	-2.987900	3.724500	-11.127000	23.847900	0.001158	20.713080
446.113081	-2.996300	3.724100	-11.157000	23.855442	0.001157	20.704520
447.113877	-2.982400	3.725000	-11.108000	23.844370	0.001156	20.701004
448.111508	-2.986100	3.723600	-11.117000	23.850142	0.001156	20.695887
449.119068	-2.972300	3.724900	-11.071000	23.875457	0.001155	20.690449
450.106135	-3.009600	3.721900	-11.200000	23.873671	0.001159	20.691030
451.111685	-3.005000	3.722400	-11.184000	23.906771	0.001158	20.718533
452.109744	-2.986400	3.722200	-11.115000	23.946816	0.001159	20.726447
453.106787	-3.005900	3.723000	-11.190000	23.948683	0.001157	20.700816
454.106283	-3.003500	3.720200	-11.173000	23.960080	0.001158	20.691855
455.107343	-2.998100	3.721300	-11.156000	23.960381	0.001158	20.715393
456.111205	-3.021200	3.720100	-11.238000	23.941077	0.001159	20.707414
457.110445	-2.999800	3.720500	-11.159000	23.930951	0.001157	20.692992
458.109607	-3.006900	3.719100	-11.182000	23.973506	0.001158	20.702950
459.110023	-2.997800	3.720500	-11.153000	23.977085	0.001159	20.704642
460.116205	-2.989000	3.720500	-11.119000	23.987136	0.001158	20.721361
461.113091	-3.011100	3.719000	-11.197000	24.007272	0.001159	20.718320
462.125468	-2.994800	3.718800	-11.136000	24.004785	0.001159	20.705868
463.111246	-2.997700	3.719000	-11.148000	24.010907	0.001159	20.726708
464.111442	-3.001600	3.718300	-11.160000	24.008022	0.001159	20.691095
465.111781	-3.014500	3.717000	-11.203000	23.997946	0.001160	20.721770
466.111650	-2.984800	3.718700	-11.098000	24.028751	0.001159	20.728956
467.113637	-3.012400	3.715900	-11.192000	24.024847	0.001160	20.738317
468.115612	-3.022200	3.716200	-11.230000	24.031743	0.001160	20.718205
469.120416	-3.006300	3.716900	-11.172000	24.008975	0.001160	20.725244
470.115104	-3.009900	3.717100	-11.186000	24.017608	0.001160	20.730583
471.118950	-3.014000	3.716400	-11.201000	24.001663	0.001161	20.724075
472.113719	-3.002600	3.715700	-11.156000	23.999845	0.001159	20.730787
473.117324	-3.009600	3.714900	-11.178000	24.012888	0.001158	20.728694
474.115004	-2.979600	3.716100	-11.071000	24.040775	0.001160	20.733902
475.117664	-3.007800	3.714800	-11.171000	24.062759	0.001159	20.726552
476.115273	-3.007800	3.713300	-11.168000	24.071343	0.001158	20.733264
477.116339	-2.991100	3.714400	-11.108000	24.090164	0.001160	20.737916
478.118889	-3.005600	3.713500	-11.160000	24.110265	0.001161	20.713978
479.118656	-3.014100	3.712900	-11.189000	24.106956	0.001160	20.721091
480.120119	-3.007800	3.713700	-11.170000	24.099318	0.001161	20.721966
481.121076	-3.006100	3.712100	-11.158000	24.061879	0.001161	20.741317
482.118659	-3.005900	3.713700	-11.162000	24.040481	0.001160	20.733133
483.119260	-2.990800	3.712800	-11.104000	24.002575	0.001161	20.753915
484.119219	-3.018200	3.711600	-11.202000	24.025572	0.001162	20.730509
485.118608	-3.011700	3.711200	-11.176000	24.020615	0.001161	20.717003
486.120770	-2.993300	3.710500	-11.106000	24.035826	0.001161	20.754545
487.119432	-3.017000	3.710900	-11.195000	23.999330	0.001160	20.728849
488.120115	-2.991500	3.711900	-11.103000	24.005355	0.001161	20.732520
489.123037	-3.018100	3.709400	-11.194000	24.027324	0.001160	20.735586
490.119653	-2.985100	3.710500	-11.074000	24.050238	0.001161	20.726797
491.123731	-3.016600	3.708200	-11.185000	24.021650	0.001161	20.729895
492.123034	-3.010600	3.709900	-11.168000	23.998214	0.001159	20.753334
493.122547	-3.012200	3.707200	-11.165000	24.011053	0.001161	20.737286
494.127822	-3.002000	3.707500	-11.128000	23.983304	0.001158	20.727950
495.125608	-3.006700	3.706900	-11.144000	23.986401	0.001161	20.753342
496.125389	-3.036600	3.705500	-11.251000	23.975575	0.001161	20.741537
497.122276	-3.016600	3.706300	-11.179000	23.979301	0.001159	20.735316
498.135461	-2.979700	3.708400	-11.049000	24.022090	0.001163	20.730811
499.130411	-2.974200	3.708900	-11.030000	24.054069	0.001162	20.740597
500.124670	-2.977100	3.706700	-11.034000	24.063541	0.001161	20.749623
501.125605	-2.990400	3.707700	-11.087000	24.063500	0.001161	20.739150
502.125298	-2.991900	3.705800	-11.086000	24.050466	0.001161	20.735086
503.125599	-2.978400	3.706000	-11.037000	24.062978	0.001160	20.742894
504.126087	-2.992700	3.706500	-11.091000	24.078238	0.001161	20.759621
505.134490	-2.973300	3.705500	-11.015000	24.100311	0.001159	20.747619
506.128163	-2.981900	3.705100	-11.048000	24.094320	0.001160	20.761051
507.129294	-3.001800	3.703300	-11.116000	24.103800	0.001162	20.751118
508.130411	-3.021700	3.703200	-11.189000	24.123085	0.001161	20.759555
509.131252	-2.993400	3.703800	-11.086000	24.126427	0.001160	20.735405
510.134932	-3.001500	3.703200	-11.114000	24.137773	0.001162	20.746785
511.131465	-2.989300	3.702900	-11.068000	24.159495	0.001160	20.737751
512.131528	-2.996400	3.703500	-11.096000	24.177932	0.001161	20.743441
513.131654	-3.023800	3.701900	-11.192000	24.194029	0.001161	20.757691
514.132030	-3.028100	3.700800	-11.205000	24.189864	0.001161	20.744504
515.134795	-2.996000	3.701100	-11.087000	24.155908	0.001162	20.743163
516.133679	-3.004800	3.700700	-11.119000	24.139770	0.001161	20.749262
517.137544	-3.013700	3.700000	-11.150000	24.137137	0.001162	20.764640
518.133075	-3.008700	3.700400	-11.132000	24.116515	0.001162	20.754862
519.133264	-2.994500	3.701800	-11.084000	24.139827	0.001161	20.751690
520.137462	-3.015000	3.699100	-11.151000	24.128603	0.001160	20.745174
521.136679	-3.004100	3.700100	-11.114000	24.133069	0.001159	20.752499
522.132360	-3.010200	3.699700	-11.136000	24.146201	0.001161	20.759505
523.135645	-3.026200	3.698600	-11.191000	24.154759	0.001161	20.762400
524.132581	-2.995500	3.699700	-11.082000	24.194876	0.001160	20.759489
525.133254	-2.995000	3.699300	-11.078000	24.224405	0.001161	20.760184
526.135810	-2.975400	3.701200	-11.011000	24.232743	0.001161	20.756693
527.134560	-3.012600	3.697000	-11.137000	24.259190	0.001159	20.767574
528.138295	-3.015000	3.696000	-11.142000	24.270412	0.001161	20.748011
529.134921	-3.002700	3.697700	-11.101000	24.262694	0.001160	20.760658
530.134697	-2.990800	3.696100	-11.053000	24.249515	0.001159	20.759293
531.140412	-3.008900	3.695900	-11.120000	24.282180	0.001161	20.765980
532.135667	-3.016800	3.694400	-11.143000	24.292604	0.001161	20.763160
533.135032	-3.000800	3.694900	-11.087000	24.327158	0.001159	20.781227
534.135517	-3.017600	3.695300	-11.151000	24.351769	0.001160	20.783630
535.137552	-2.992000	3.696000	-11.057000	24.335789	0.001159	20.792255
536.139477	-2.986500	3.695400	-11.035000	24.312261	0.001160	20.776714
537.140247	-3.002900	3.693800	-11.091000	24.325406	0.001159	20.757657
538.137815	-2.991200	3.694200	-11.049000	24.345511	0.001159	20.757911
539.138788	-2.993100	3.693400	-11.054000	24.365183	0.001161	20.782862
540.139781	-2.997000	3.693600	-11.067000	24.349659	0.001162	20.752115
541.139955	-2.976300	3.694600	-10.995000	24.330508	0.001160	20.777474
542.142768	-2.988600	3.692700	-11.036000	24.367326	0.001161	20.771261
543.140845	-3.013500	3.691500	-11.123000	24.358003	0.001161	20.794626
544.143061	-2.982800	3.692300	-11.012000	24.395807	0.001160	20.767590
545.141872	-2.997100	3.691800	-11.064000	24.414338	0.001162	20.771956
546.151349	-3.000500	3.692400	-11.078000	24.397877	0.001159	20.775357
547.142722	-3.003500	3.690100	-11.083000	24.383331	0.001159	20.781627
548.141238	-2.988900	3.689800	-11.027000	24.414077	0.001160	20.776436
549.143187	-2.991100	3.689800	-11.035000	24.450045	0.001159	20.760837
550.142444	-2.990300	3.690500	-11.035000	24.448334	0.001159	20.775242
551.141383	-2.987000	3.690400	-11.022000	24.460598	0.001160	20.760044
552.142658	-2.983100	3.690100	-11.007000	24.450925	0.001159	20.774523
553.140140	-3.001400	3.689400	-11.072000	24.444284	0.001160	20.784930
554.145801	-2.991600	3.689100	-11.034000	24.437285	0.001159	20.786916
555.143973	-2.990200	3.688500	-11.027000	24.460923	0.001158	20.784554
556.142008	-2.991600	3.689300	-11.035000	24.474751	0.001158	20.766658
557.142031	-3.001500	3.687500	-11.067000	24.470278	0.001159	20.798206
558.144888	-2.993000	3.687400	-11.035000	24.474531	0.001159	20.790145
559.141400	-2.989600	3.687000	-11.022000	24.518059	0.001159	20.784030
560.144771	-3.004500	3.685800	-11.074000	24.499335	0.001158	20.784210
561.143152	-3.004700	3.686100	-11.075000	24.471321	0.001159	20.790244
562.143485	-2.989400	3.686500	-11.020000	24.451422	0.001157	20.806790
563.142205	-3.038800	3.684600	-11.195000	24.443991	0.001159	20.807395
564.145254	-3.001300	3.684600	-11.058000	24.448961	0.001159	20.795786
565.146301	-2.995400	3.684600	-11.035000	24.482223	0.001159	20.788379
566.146637	-3.011200	3.683900	-11.090000	24.491252	0.001157	20.790325
567.146656	-3.009900	3.683400	-11.086000	24.528293	0.001158	20.803307
568.149187	-2.982600	3.683800	-10.986000	24.536074	0.001158	20.791674
569.148031	-2.980600	3.682700	-10.976000	24.560950	0.001160	20.797666
570.145744	-2.978900	3.683800	-10.972000	24.541770	0.001157	20.798811
571.145831	-3.008800	3.682000	-11.075000	24.546170	0.001157	20.798010
572.145954	-3.021400	3.681800	-11.124000	24.563981	0.001158	20.786483
573.147099	-3.003900	3.680600	-11.054000	24.537459	0.001157	20.821038
574.147250	-3.011700	3.681200	-11.085000	24.585726	0.001157	20.798345
575.146307	-2.999800	3.680900	-11.040000	24.576642	0.001158	20.803928
576.149621	-2.997000	3.680400	-11.029000	24.533255	0.001156	20.796906
577.146643	-2.999600	3.681200	-11.041000	24.554146	0.001156	20.822134
578.146910	-2.982200	3.683300	-10.982000	24.554016	0.001156	20.823426
579.153196	-3.007300	3.680000	-11.066000	24.538844	0.001156	20.811049
580.146970	-3.009500	3.679400	-11.072000	24.519827	0.001157	20.799080
581.147495	-2.975000	3.679200	-10.945000	24.519582	0.001157	20.802154
582.149325	-2.978200	3.679600	-10.956000	24.508362	0.001156	20.781888
583.148890	-2.993000	3.678400	-11.008000	24.528586	0.001156	20.798385
584.156738	-2.997700	3.677100	-11.022000	24.541174	0.001157	20.782092
585.151659	-2.995700	3.677200	-11.014000	24.529865	0.001157	20.803936
586.150432	-2.985100	3.679300	-10.982000	24.505934	0.001157	20.802211
587.150135	-3.012600	3.676500	-11.075000	24.502854	0.001156	20.797699
588.151896	-3.005900	3.676300	-11.049000	24.491487	0.001156	20.804786
589.149998	-2.993600	3.677900	-11.009000	24.472762	0.001154	20.793112
590.158885	-2.992700	3.676400	-11.000000	24.526092	0.001156	20.811531
591.149525	-3.004900	3.675600	-11.043000	24.519183	0.001155	20.775200
592.151175	-2.996100	3.676000	-11.012000	24.536888	0.001155	20.788224
593.150867	-3.000100	3.674700	-11.023000	24.527738	0.001154	20.781888
594.152483	-3.032600	3.674400	-11.141000	24.528814	0.001156	20.802407
595.151371	-3.023200	3.673600	-11.105000	24.571239	0.001155	20.764368
596.153369	-3.025900	3.673100	-11.113000	24.560452	0.001155	20.780571
597.152683	-3.001800	3.673800	-11.028000	24.558056	0.001154	20.794289
598.155965	-3.025100	3.672300	-11.107000	24.552516	0.001154	20.783040
599.152812	-3.015100	3.672800	-11.073000	24.608832	0.001155	20.765578
600.153656	-3.010200	3.672500	-11.054000	24.633453	0.001155	20.795973
601.152390	-3.002000	3.674100	-11.028000	24.666465	0.001154	20.791640
602.156746	-3.029100	3.672000	-11.121000	24.665618	0.001154	20.773246
603.153552	-3.021500	3.672400	-11.095000	24.695460	0.001152	20.758621
604.153243	-3.010400	3.671400	-11.052000	24.685635	0.001153	20.771521
605.153399	-3.032000	3.669800	-11.124000	24.689073	0.001154	20.769281
606.155023	-3.022700	3.669400	-11.091000	24.703419	0.001151	20.781781
607.158062	-2.996700	3.670700	-10.998000	24.719142	0.001151	20.761523
608.162939	-3.004800	3.669400	-11.023000	24.690270	0.001152	20.774751
609.158514	-2.989800	3.670300	-10.971000	24.680290	0.001152	20.754778
610.155965	-2.995200	3.670800	-10.994000	24.644680	0.001152	20.771203
611.158834	-2.999200	3.670600	-11.007000	24.624018	0.001152	20.756160
612.162481	-3.002800	3.668700	-11.015000	24.616107	0.001150	20.763869
613.160686	-3.016500	3.670000	-11.069000	24.605467	0.001150	20.782116
614.156365	-3.008300	3.667700	-11.031000	24.594223	0.001151	20.760877
615.159848	-2.995800	3.669600	-10.992000	24.631058	0.001151	20.788828
616.159899	-2.991700	3.668700	-10.974000	24.656452	0.001151	20.769739
617.164984	-3.013000	3.666400	-11.045000	24.661006	0.001153	20.771464
618.159506	-3.007500	3.666200	-11.024000	24.605019	0.001151	20.774080
619.161127	-2.986800	3.669000	-10.958000	24.606689	0.001150	20.762954
620.161135	-2.997600	3.667000	-10.991000	24.612286	0.001151	20.761932
621.160470	-3.005700	3.667100	-11.021000	24.633176	0.001150	20.775781
622.162565	-3.013300	3.665700	-11.043000	24.641013	0.001148	20.771317
623.162140	-3.011000	3.665100	-11.035000	24.660045	0.001148	20.757697
624.164219	-2.996100	3.664600	-10.979000	24.685537	0.001151	20.762888
625.163138	-3.002200	3.665400	-11.003000	24.693855	0.001148	20.753691
626.163287	-3.012500	3.663900	-11.036000	24.700673	0.001149	20.774284
627.164883	-3.011300	3.663700	-11.032000	24.701146	0.001148	20.762905
628.163042	-2.997100	3.663800	-10.979000	24.697692	0.001148	20.770344
629.163981	-3.011200	3.663900	-11.031000	24.706669	0.001148	20.769396
630.163319	-2.990800	3.664900	-10.959000	24.683638	0.001147	20.760509
631.164367	-3.027600	3.662900	-11.089000	24.696649	0.001149	20.750331
632.165143	-3.005900	3.662400	-11.008000	24.675247	0.001148	20.735967
633.164435	-3.002400	3.663700	-10.998000	24.645706	0.001148	20.758482
634.164804	-3.007000	3.662200	-11.011000	24.653568	0.001146	20.745507
635.163471	-3.000100	3.662000	-10.985000	24.662742	0.001147	20.744755
636.165270	-2.995600	3.662100	-10.969000	24.640419	0.001147	20.745115
637.166605	-2.998800	3.660600	-10.975000	24.645535	0.001147	20.755465
638.166584	-3.034700	3.659600	-11.104000	24.651678	0.001147	20.762103
639.165156	-3.015500	3.661300	-11.040000	24.681048	0.001145	20.751745
640.166419	-3.006100	3.659900	-11.001000	24.656126	0.001145	20.751868
641.166789	-3.011000	3.660500	-11.021000	24.651092	0.001148	20.767679
642.167811	-2.994400	3.659900	-10.958000	24.656900	0.001145	20.735100
643.168683	-2.991700	3.659200	-10.945000	24.637323	0.001145	20.751966
644.168653	-2.997400	3.659700	-10.967000	24.610038	0.001145	20.755408
645.170348	-2.992500	3.660400	-10.952000	24.634789	0.001145	20.753217
646.171006	-2.974800	3.658800	-10.883000	24.647222	0.001144	20.748148
647.171248	-3.002100	3.656500	-10.976000	24.663385	0.001145	20.738289
648.170840	-2.990600	3.657900	-10.937000	24.699916	0.001144	20.764041
649.174511	-3.012200	3.657300	-11.016000	24.720983	0.001144	20.769535
650.172383	-3.008400	3.656200	-10.998000	24.762660	0.001143	20.737863
651.173402	-2.999300	3.657200	-10.968000	24.746661	0.001145	20.761638
652.184438	-3.010300	3.656000	-11.005000	24.726254	0.001143	20.736891
653.176209	-2.985800	3.656500	-10.917000	24.693790	0.001143	20.742246
654.173974	-3.001500	3.654700	-10.970000	24.672999	0.001143	20.757893
655.174845	-3.000500	3.653900	-10.962000	24.693008	0.001143	20.736719
656.175995	-2.993300	3.655400	-10.940000	24.703036	0.001143	20.747257
657.173355	-2.995100	3.653900	-10.942000	24.727337	0.001143	20.730391
658.176897	-2.989900	3.656400	-10.929000	24.731313	0.001141	20.750977
659.174710	-3.010600	3.653600	-10.998000	24.766676	0.001141	20.745687
660.178068	-3.002100	3.654100	-10.969000	24.766481	0.001142	20.748810
661.179718	-3.007800	3.653800	-10.989000	24.785844	0.001139	20.747854
662.175673	-2.999000	3.653400	-10.954000	24.776989	0.001141	20.738019
663.177414	-2.996700	3.653200	-10.946000	24.766627	0.001141	20.751328
664.179410	-3.012100	3.652700	-11.002000	24.768770	0.001141	20.741150
665.173851	-3.014200	3.651900	-11.007000	24.772989	0.001141	20.744437
666.177446	-3.005100	3.651700	-10.973000	24.777315	0.001139	20.740243
667.176488	-3.027900	3.649900	-11.050000	24.755410	0.001139	20.761883
668.177219	-3.016100	3.650500	-11.009000	24.759907	0.001139	20.746955
669.179831	-3.018800	3.651500	-11.022000	24.782618	0.001138	20.737978
670.177718	-2.998600	3.650500	-10.945000	24.761259	0.001140	20.730293
671.180091	-3.013900	3.649800	-10.999000	24.772199	0.001137	20.754550
672.177508	-3.016600	3.648700	-11.006000	24.775555	0.001138	20.728519
673.180924	-2.995700	3.649600	-10.932000	24.775588	0.001138	20.744199
674.178218	-3.014300	3.649100	-10.998000	24.782871	0.001138	20.735860
675.175941	-2.988900	3.648100	-10.903000	24.785583	0.001136	20.754705
676.180140	-3.013200	3.648200	-10.992000	24.789559	0.001138	20.731666
677.178649	-3.006000	3.647900	-10.964000	24.793412	0.001138	20.740275
678.177405	-2.981500	3.649800	-10.880000	24.807569	0.001136	20.748794
679.181203	-3.007600	3.648500	-10.972000	24.815902	0.001136	20.741510
680.178624	-3.013200	3.646500	-10.986000	24.836291	0.001137	20.744428
681.179036	-3.023500	3.647300	-11.026000	24.832756	0.001136	20.750838
682.179164	-3.012400	3.646300	-10.984000	24.851825	0.001138	20.738681
683.179930	-2.999100	3.646400	-10.935000	24.835224	0.001135	20.730554
684.180395	-2.992200	3.645900	-10.908000	24.804816	0.001135	20.746505
685.181355	-2.992800	3.645800	-10.910000	24.782732	0.001134	20.742360
686.182065	-3.001200	3.644700	-10.936000	24.752363	0.001134	20.737962
687.184396	-3.002800	3.644300	-10.942000	24.714490	0.001135	20.741207
688.181715	-2.989900	3.645700	-10.898000	24.692087	0.001134	20.728682
689.183483	-2.997800	3.644500	-10.925000	24.686840	0.001133	20.749497
690.183361	-3.020100	3.643300	-11.002000	24.680127	0.001133	20.738967
691.183693	-3.001000	3.644600	-10.935000	24.650334	0.001132	20.732304
692.183638	-3.017800	3.643400	-10.994000	24.678237	0.001135	20.721897
693.183450	-2.993000	3.645300	-10.909000	24.681748	0.001132	20.726843
694.187400	-3.007400	3.643000	-10.955000	24.712209	0.001131	20.712364
695.184991	-2.993200	3.643000	-10.903000	24.755458	0.001131	20.767622
696.192667	-3.019400	3.642500	-10.997000	24.772191	0.001133	20.728936
697.189746	-3.017000	3.641400	-10.985000	24.804466	0.001134	20.719599
698.189150	-2.972500	3.643000	-10.827000	24.792629	0.001132	20.736171
699.189242	-2.962800	3.643200	-10.793000	24.826084	0.001130	20.736081
700.190172	-2.978800	3.642900	-10.849000	24.831901	0.001133	20.717261
701.189954	-2.964000	3.641300	-10.792000	24.837570	0.001131	20.718209
702.188140	-2.994500	3.640900	-10.901000	24.819812	0.001131	20.717931
703.194178	-2.999900	3.639600	-10.917000	24.802665	0.001132	20.725379
704.188402	-2.990400	3.640900	-10.887000	24.799553	0.001131	20.701392
705.190871	-3.001300	3.640100	-10.924000	24.823168	0.001131	20.712764
706.192649	-3.002600	3.640800	-10.930000	24.840454	0.001132	20.722526
707.192315	-3.011300	3.638400	-10.955000	24.830833	0.001132	20.710500
708.192007	-3.019600	3.638500	-10.986000	24.816562	0.001129	20.736956
709.192203	-3.018000	3.638800	-10.981000	24.810713	0.001131	20.722076
710.193315	-3.016900	3.637100	-10.970000	24.845056	0.001131	20.724300
711.193287	-3.010100	3.639100	-10.953000	24.868458	0.001129	20.724079
712.197431	-2.989000	3.638700	-10.874000	24.906553	0.001129	20.709682
713.194999	-2.996200	3.637800	-10.899000	24.925922	0.001128	20.716321
714.194678	-3.013300	3.638200	-10.961000	24.945682	0.001129	20.708178
715.192777	-3.018800	3.636400	-10.976000	24.964863	0.001127	20.706567
716.192616	-2.995800	3.638500	-10.899000	24.946554	0.001128	20.746513
717.191425	-2.997800	3.637800	-10.904000	24.950805	0.001129	20.712372
718.196222	-3.000000	3.635700	-10.906000	24.938425	0.001130	20.721757
719.193032	-2.982700	3.635900	-10.844000	24.980069	0.001127	20.731315
720.194703	-2.976300	3.635900	-10.819000	24.956433	0.001125	20.709486
721.194324	-3.009500	3.634700	-10.937000	24.954364	0.001126	20.715945
722.195105	-2.987100	3.635900	-10.859000	24.963959	0.001125	20.710402
723.196192	-2.994500	3.633400	-10.879000	24.941129	0.001128	20.710720
724.196207	-3.003000	3.634800	-10.914000	24.947971	0.001125	20.712372
725.197853	-3.023200	3.632200	-10.979000	24.966981	0.001124	20.730031
726.196339	-2.988400	3.635400	-10.863000	24.977821	0.001124	20.704875
727.196970	-3.007500	3.632100	-10.921000	25.019252	0.001122	20.707107
728.202445	-2.990100	3.634100	-10.866000	25.020710	0.001125	20.702880
729.197161	-2.993300	3.633600	-10.875000	24.992343	0.001124	20.709968
730.196964	-3.008200	3.631100	-10.922000	25.003648	0.001124	20.713255
731.196836	-3.008600	3.631100	-10.923000	25.000993	0.001123	20.704425
732.204705	-3.014300	3.630500	-10.941000	25.033529	0.001122	20.711481
733.199090	-3.008000	3.632100	-10.923000	25.026395	0.001124	20.698629
734.200174	-2.987500	3.630800	-10.846000	25.019309	0.001124	20.710958
735.200388	-2.998300	3.630100	-10.883000	25.045786	0.001124	20.698179
736.212211	-3.005900	3.630500	-10.912000	25.043547	0.001123	20.690240
737.202720	-2.996800	3.630100	-10.876000	25.038228	0.001121	20.695808
738.200911	-3.010800	3.630700	-10.929000	25.055779	0.001121	20.707262
739.201235	-3.000900	3.629100	-10.890000	25.057685	0.001122	20.709650
740.200335	-2.998300	3.628800	-10.879000	25.062286	0.001121	20.701466
741.201578	-2.977100	3.629600	-10.804000	25.058369	0.001122	20.689472
742.204838	-3.019100	3.629100	-10.956000	25.056243	0.001120	20.712944
743.199860	-3.003400	3.626800	-10.891000	25.022982	0.001121	20.715119
744.202888	-2.987900	3.628300	-10.839000	25.023773	0.001120	20.716386
745.203190	-3.001900	3.627900	-10.889000	25.058507	0.001119	20.717114
746.203119	-2.992400	3.627900	-10.855000	25.065593	0.001121	20.708104
747.202401	-3.010500	3.628200	-10.921000	25.097329	0.001118	20.697762
748.200410	-3.008400	3.625500	-10.906000	25.122696	0.001117	20.713271
749.201165	-3.009300	3.627200	-10.914000	25.145189	0.001116	20.707876
750.204793	-3.005000	3.625600	-10.894000	25.180612	0.001116	20.703134
751.201794	-3.018100	3.624800	-10.938000	25.165449	0.001116	20.701662
752.203078	-2.978100	3.627500	-10.800000	25.138299	0.001115	20.699536
753.203355	-3.017400	3.625600	-10.939000	25.096213	0.001118	20.694271
754.204854	-2.986800	3.626200	-10.829000	25.082760	0.001119	20.704000
755.205708	-3.012100	3.624300	-10.915000	25.090643	0.001118	20.697689
756.204337	-2.998400	3.625700	-10.871000	25.055983	0.001113	20.684706
757.206635	-3.003100	3.625300	-10.886000	25.055616	0.001115	20.703305
758.205203	-3.024500	3.623800	-10.960000	25.068337	0.001117	20.706592
759.204092	-3.015300	3.623000	-10.922000	25.074486	0.001115	20.685261
760.207057	-2.982900	3.623500	-10.806000	25.092476	0.001114	20.683880
761.205764	-3.028600	3.622500	-10.970000	25.117786	0.001116	20.702177
762.205278	-2.999100	3.622200	-10.862000	25.162127	0.001115	20.695481
763.207781	-3.008300	3.623400	-10.900000	25.185270	0.001113	20.697852
764.207045	-3.028900	3.620000	-10.964000	25.185815	0.001114	20.693658
765.206918	-3.025100	3.622100	-10.956000	25.197721	0.001114	20.696601
766.206424	-3.006400	3.621600	-10.887000	25.176174	0.001111	20.701523
767.209086	-3.007300	3.620800	-10.886000	25.156280	0.001110	20.679179
768.207434	-3.031900	3.620700	-10.976000	25.143951	0.001112	20.691459
769.206787	-2.996300	3.620400	-10.846000	25.094178	0.001113	20.691279
770.211440	-3.016900	3.620400	-10.922000	25.098437	0.001113	20.684174
771.207660	-3.003000	3.619000	-10.867000	25.091393	0.001111	20.681844
772.207746	-2.983500	3.619600	-10.798000	25.119211	0.001111	20.667095
773.210407	-2.980400	3.618700	-10.784000	25.126598	0.001110	20.683046
774.207407	-3.003600	3.619200	-10.870000	25.155002	0.001110	20.695441
775.207663	-2.999800	3.618100	-10.853000	25.157714	0.001110	20.678721
776.208122	-3.005700	3.617100	-10.870000	25.120474	0.001107	20.697288
777.207542	-3.002800	3.617300	-10.860000	25.108934	0.001109	20.692816
778.208628	-3.003800	3.617300	-10.864000	25.114684	0.001109	20.672033
779.207110	-2.995800	3.618300	-10.839000	25.164090	0.001109	20.685597
780.210654	-2.970400	3.617600	-10.744000	25.187713	0.001107	20.679441
781.210263	-3.010700	3.615800	-10.885000	25.191084	0.001106	20.680455
782.208710	-3.023100	3.616200	-10.931000	25.185392	0.001107	20.705088
783.211834	-2.979800	3.617100	-10.776000	25.188918	0.001107	20.688712
784.210409	-2.995800	3.614800	-10.827000	25.179871	0.001105	20.682474
785.210411	-3.001000	3.615700	-10.850000	25.163960	0.001106	20.694950
786.211623	-3.006600	3.616000	-10.871000	25.182648	0.001105	20.681943
787.211285	-3.007700	3.613800	-10.868000	25.167119	0.001105	20.681051
788.211308	-3.014300	3.613800	-10.892000	25.161224	0.001104	20.675606
789.213005	-3.015600	3.613500	-10.895000	25.148984	0.001104	20.687977
790.212545	-3.001700	3.614500	-10.848000	25.141924	0.001104	20.683733
791.212037	-2.992900	3.613200	-10.812000	25.186671	0.001105	20.679343
792.212424	-3.019900	3.612600	-10.908000	25.201377	0.001104	20.664234
793.212511	-2.993200	3.613900	-10.816000	25.209113	0.001103	20.668682
794.212179	-3.008400	3.612600	-10.866000	25.249973	0.001103	20.675092
795.212315	-2.991400	3.613200	-10.807000	25.279400	0.001102	20.686145
796.219155	-3.006900	3.613200	-10.863000	25.257074	0.001103	20.677953
797.211858	-2.988200	3.613900	-10.798000	25.238802	0.001103	20.658658
798.214013	-3.003100	3.612300	-10.846000	25.210832	0.001101	20.653810
799.212008	-2.988700	3.611700	-10.793000	25.194204	0.001100	20.670783
800.213406	-3.014200	3.610200	-10.880000	25.194700	0.001100	20.669385
801.217070	-2.989200	3.612200	-10.797000	25.178691	0.001101	20.679867
802.215418	-2.996100	3.609600	-10.814000	25.161004	0.001101	20.691509
803.219069	-2.970900	3.611400	-10.727000	25.151110	0.001100	20.682524
804.217693	-2.998900	3.609300	-10.823000	25.126623	0.001099	20.675485
805.219754	-3.016000	3.608500	-10.882000	25.114758	0.001099	20.694395
806.220407	-2.994900	3.610000	-10.810000	25.100637	0.001098	20.673105
807.218204	-2.992800	3.609600	-10.802000	25.068819	0.001098	20.678150
808.222002	-3.000400	3.608000	-10.825000	25.125467	0.001098	20.677169
809.217419	-3.020500	3.607000	-10.894000	25.128594	0.001097	20.656598
810.219429	-2.995500	3.607100	-10.803000	25.175573	0.001098	20.667726
811.220914	-3.004300	3.607500	-10.835000	25.185793	0.001098	20.673719
812.221603	-3.012600	3.607900	-10.868000	25.192568	0.001098	20.671037
813.219746	-2.986900	3.607500	-10.774000	25.187820	0.001096	20.662003
814.221293	-3.013000	3.606700	-10.866000	25.173375	0.001096	20.664570
815.223921	-3.012600	3.607200	-10.866000	25.158953	0.001095	20.660523
816.224102	-2.991000	3.605700	-10.784000	25.148204	0.001094	20.674390
817.223742	-2.992600	3.606100	-10.789000	25.137569	0.001094	20.675567
818.225701	-3.011800	3.604700	-10.855000	25.120533	0.001096	20.667473
819.222820	-2.995000	3.605200	-10.796000	25.117552	0.001094	20.645512
820.223727	-3.010300	3.603400	-10.846000	25.130452	0.001092	20.690709
821.229776	-3.013800	3.605900	-10.866000	25.138131	0.001094	20.677080
822.225315	-2.976000	3.607200	-10.734000	25.177455	0.001093	20.662502
823.226137	-2.986400	3.604200	-10.763000	25.213765	0.001093	20.674774
824.229091	-2.992900	3.604500	-10.786000	25.192430	0.001093	20.673270
825.228270	-2.998500	3.603800	-10.805000	25.184922	0.001089	20.661464
826.228083	-3.007100	3.602900	-10.833000	25.198269	0.001092	20.673442
827.228431	-3.003000	3.603800	-10.821000	25.211591	0.001090	20.676860
828.230379	-2.996000	3.602600	-10.791000	25.252280	0.001090	20.660336
829.230710	-3.002300	3.601700	-10.813000	25.250065	0.001090	20.671864
830.227707	-3.003800	3.602100	-10.818000	25.311573	0.001089	20.655856
831.231186	-2.996900	3.602200	-10.795000	25.314927	0.001089	20.686728
832.230071	-2.992200	3.600700	-10.772000	25.340819	0.001088	20.683327
833.230559	-2.995000	3.602100	-10.787000	25.372247	0.001088	20.693073
834.232037	-3.016300	3.598800	-10.853000	25.399911	0.001087	20.687661
835.231643	-3.004000	3.600600	-10.815000	25.400058	0.001087	20.680221
836.232077	-2.977400	3.601400	-10.721000	25.398340	0.001087	20.685134
837.230795	-3.003200	3.598900	-10.806000	25.392894	0.001086	20.665913
838.232370	-3.000800	3.598400	-10.795000	25.384614	0.001086	20.665185
839.232832	-3.024300	3.598700	-10.882000	25.346136	0.001085	20.686296
840.232278	-2.997300	3.598900	-10.786000	25.294882	0.001085	20.688888
841.232263	-3.018100	3.598200	-10.857000	25.313251	0.001083	20.656118
842.231993	-3.006200	3.598800	-10.818000	25.309115	0.001084	20.665717
843.232336	-3.003600	3.597000	-10.803000	25.336757	0.001086	20.684939
844.233033	-2.997600	3.598500	-10.786000	25.352341	0.001083	20.689207
845.233196	-3.024600	3.595800	-10.873000	25.332605	0.001083	20.674605
846.233601	-2.983700	3.597100	-10.731000	25.328754	0.001082	20.676428
847.233266	-2.991700	3.596600	-10.759000	25.340112	0.001083	20.696369
848.235273	-2.986900	3.596900	-10.742000	25.384053	0.001081	20.679322
849.233979	-3.006800	3.595600	-10.810000	25.401638	0.001081	20.693663
850.237867	-3.007300	3.595300	-10.809000	25.435140	0.001081	20.675144
851.241127	-3.009400	3.594000	-10.815000	25.450698	0.001081	20.674646
852.235832	-2.988400	3.595200	-10.742000	25.452358	0.001081	20.675365
853.238278	-3.012800	3.594700	-10.829000	25.484320	0.001079	20.673795
854.242468	-3.004600	3.594500	-10.799000	25.490580	0.001080	20.677712
855.237523	-3.007500	3.593000	-10.805000	25.453376	0.001079	20.698200
856.236996	-2.988300	3.594100	-10.739000	25.427748	0.001080	20.666298
857.236389	-2.984500	3.594700	-10.727000	25.367061	0.001075	20.676486
858.237496	-3.004500	3.594200	-10.797000	25.372378	0.001076	20.691308
859.240205	-3.012800	3.591700	-10.819000	25.392284	0.001076	20.674785
860.237591	-3.000800	3.593000	-10.780000	25.404464	0.001076	20.673738
861.237798	-2.999800	3.591700	-10.773000	25.410602	0.001075	20.701242
862.238252	-2.983400	3.593000	-10.718000	25.424687	0.001076	20.697841
863.240632	-2.988900	3.591700	-10.735000	25.436687	0.001074	20.690924
864.238120	-3.003200	3.591900	-10.785000	25.477344	0.001076	20.671057
865.238407	-2.979900	3.592700	-10.704000	25.454752	0.001075	20.704325
866.242126	-2.977200	3.591300	-10.690000	25.424337	0.001073	20.700809
867.239813	-3.008800	3.590100	-10.802000	25.427838	0.001074	20.684883
868.239449	-2.983700	3.590800	-10.712000	25.440734	0.001073	20.695936
869.241156	-2.982900	3.590200	-10.707000	25.433472	0.001074	20.694808
870.240328	-2.993300	3.589900	-10.744000	25.440660	0.001072	20.702976
871.241678	-3.004300	3.588100	-10.778000	25.449656	0.001071	20.678342
872.243570	-3.006900	3.587400	-10.786000	25.468267	0.001071	20.685651
873.246030	-2.990000	3.588700	-10.730000	25.460435	0.001073	20.698651
874.243568	-2.981800	3.588900	-10.701000	25.425151	0.001070	20.703998
875.242709	-3.005700	3.588400	-10.784000	25.442891	0.001071	20.705690
876.241962	-3.009900	3.588000	-10.798000	25.454867	0.001071	20.681678
877.242080	-3.010400	3.586900	-10.797000	25.485208	0.001069	20.696975
878.242479	-2.990900	3.586900	-10.727000	25.487626	0.001068	20.687548
879.243256	-3.016100	3.586400	-10.816000	25.440701	0.001069	20.720087
880.242656	-2.993000	3.587400	-10.737000	25.452457	0.001070	20.705339
881.243811	-3.001700	3.585500	-10.761000	25.437372	0.001067	20.704415
882.248656	-2.980700	3.585600	-10.686000	25.432324	0.001068	20.705510
883.243994	-3.002200	3.585300	-10.763000	25.443429	0.001067	20.676356
884.244413	-3.014400	3.582900	-10.797000	25.431071	0.001067	20.678171
885.249730	-2.992800	3.583900	-10.724000	25.409700	0.001066	20.697964
886.245695	-3.002000	3.585000	-10.760000	25.380618	0.001065	20.716180
887.245334	-3.013500	3.581400	-10.791000	25.375815	0.001064	20.686224
888.246789	-3.000100	3.583400	-10.750000	25.359051	0.001064	20.713016
889.246707	-2.984100	3.584100	-10.695000	25.373772	0.001063	20.711201
890.251931	-3.001400	3.583400	-10.754000	25.398652	0.001063	20.695406
891.245943	-3.002700	3.582600	-10.757000	25.386644	0.001063	20.710376
892.247261	-3.004900	3.583200	-10.766000	25.396430	0.001063	20.705029
893.247650	-2.989600	3.581800	-10.706000	25.425251	0.001063	20.689397
894.247252	-3.000900	3.582300	-10.749000	25.387702	0.001060	20.705274
895.247760	-3.021900	3.580800	-10.820000	25.410938	0.001063	20.695889
896.250264	-2.986300	3.582200	-10.696000	25.433905	0.001060	20.699036
897.248322	-3.007900	3.580000	-10.766000	25.433351	0.001060	20.706068
898.249703	-3.001300	3.580200	-10.744000	25.458174	0.001061	20.701122
899.248665	-2.990100	3.579600	-10.702000	25.463140	0.001059	20.719386
900.248835	-3.003300	3.578200	-10.746000	25.421962	0.001059	20.727349
901.250296	-2.972100	3.580600	-10.640000	25.402105	0.001058	20.694131
902.248803	-2.974900	3.579900	-10.649000	25.420391	0.001058	20.722452
903.248169	-2.980700	3.579400	-10.668000	25.403766	0.001056	20.719509
904.247862	-2.982200	3.578400	-10.671000	25.359696	0.001055	20.713663
905.251914	-3.000000	3.578500	-10.734000	25.394290	0.001056	20.691499
906.249833	-2.997000	3.577000	-10.718000	25.405077	0.001055	20.727938
907.249894	-2.981200	3.576500	-10.661000	25.444017	0.001054	20.705398
908.254266	-2.990500	3.575800	-10.693000	25.460698	0.001055	20.710769
909.252274	-3.021200	3.574400	-10.798000	25.505945	0.001052	20.705472
910.252002	-2.992300	3.578000	-10.704000	25.525971	0.001053	20.702823
911.255700	-2.999400	3.576400	-10.724000	25.557173	0.001052	20.691483
912.259113	-3.007800	3.574500	-10.750000	25.555203	0.001052	20.723173
913.252678	-2.983800	3.576700	-10.671000	25.603864	0.001053	20.729369
914.258430	-3.006500	3.575900	-10.750000	25.557539	0.001052	20.704655
915.253343	-2.999600	3.574300	-10.720000	25.543799	0.001052	20.723099
916.255172	-2.984700	3.576300	-10.673000	25.564589	0.001052	20.727383
917.258657	-2.988700	3.575500	-10.684000	25.567569	0.001048	20.704295
918.254048	-3.000800	3.573100	-10.720000	25.584240	0.001050	20.712504
919.255037	-3.003300	3.573600	-10.732000	25.571338	0.001050	20.718513
920.257995	-2.993100	3.573900	-10.696000	25.594724	0.001049	20.710705
921.258507	-2.999600	3.574000	-10.720000	25.602441	0.001051	20.720353
922.254469	-2.989300	3.572400	-10.677000	25.597500	0.001048	20.727719
923.259171	-2.995500	3.572900	-10.702000	25.605770	0.001048	20.724645
924.258350	-2.998300	3.572700	-10.711000	25.622416	0.001047	20.724294
925.260532	-2.994500	3.571500	-10.692000	25.613023	0.001047	20.730981
926.255275	-3.010500	3.572100	-10.752000	25.575099	0.001046	20.723713
927.255509	-3.009900	3.571600	-10.749000	25.566479	0.001045	20.736394
928.255821	-2.987400	3.571200	-10.667000	25.562099	0.001044	20.723460
929.255748	-3.012600	3.569100	-10.750000	25.548733	0.001046	20.727106
930.256773	-2.984900	3.570000	-10.654000	25.504669	0.001045	20.707510
931.258076	-3.000800	3.568100	-10.706000	25.492669	0.001044	20.723436
932.257574	-3.005300	3.568100	-10.723000	25.511922	0.001044	20.720485
933.260100	-3.005800	3.568500	-10.725000	25.534683	0.001042	20.742395
934.258136	-2.997800	3.569200	-10.699000	25.523400	0.001043	20.730590
935.258514	-2.997700	3.567800	-10.693000	25.529074	0.001042	20.704517
936.261569	-2.983400	3.567700	-10.643000	25.550655	0.001040	20.730933
937.260568	-3.000400	3.566300	-10.699000	25.570484	0.001041	20.742313
938.260468	-2.985600	3.566400	-10.647000	25.583110	0.001040	20.764003
939.259926	-3.004800	3.566000	-10.714000	25.550623	0.001040	20.746074
940.260708	-2.990400	3.567100	-10.666000	25.517385	0.001039	20.757266
941.260406	-3.019700	3.566000	-10.767000	25.522074	0.001041	20.740638
942.260260	-3.007600	3.565100	-10.721000	25.550444	0.001039	20.759172
943.260408	-2.983800	3.566500	-10.639000	25.567269	0.001037	20.731972
944.260051	-2.994400	3.565700	-10.676000	25.560114	0.001037	20.743279
945.260283	-3.001400	3.564400	-10.697000	25.536629	0.001037	20.720166
946.260891	-3.014000	3.563300	-10.739000	25.522986	0.001035	20.752934
947.265928	-2.986600	3.564100	-10.643000	25.561303	0.001036	20.735937
948.261731	-2.978900	3.565000	-10.619000	25.569801	0.001035	20.714599
949.264338	-3.003100	3.562500	-10.698000	25.563932	0.001033	20.725301
950.265352	-2.979000	3.563800	-10.615000	25.579195	0.001036	20.735888
951.261587	-2.997600	3.562300	-10.678000	25.565845	0.001035	20.722955
952.263926	-2.982600	3.563000	-10.627000	25.552829	0.001033	20.733117
953.262615	-2.971400	3.562600	-10.584000	25.561075	0.001034	20.752305
954.262570	-2.987100	3.563000	-10.641000	25.533023	0.001033	20.736935
955.262722	-3.015000	3.560900	-10.734000	25.543630	0.001033	20.748536
956.265089	-2.990900	3.560800	-10.649000	25.508423	0.001031	20.757275
957.262362	-3.028600	3.560400	-10.781000	25.528294	0.001031	20.729340
958.262883	-3.005400	3.559900	-10.698000	25.514374	0.001030	20.742388
959.265309	-3.003200	3.560000	-10.690000	25.507715	0.001028	20.737123
960.266255	-3.011200	3.559400	-10.717000	25.534391	0.001029	20.752533
961.265278	-2.994100	3.558400	-10.653000	25.586961	0.001029	20.737049
962.266060	-2.985300	3.559200	-10.624000	25.600465	0.001028	20.758673
963.265612	-2.998100	3.559300	-10.670000	25.598992	0.001027	20.760513
964.265499	-3.002400	3.558900	-10.684000	25.614400	0.001029	20.757496
965.265726	-2.986500	3.557400	-10.623000	25.612113	0.001026	20.745715
966.265933	-2.982100	3.557500	-10.607000	25.569964	0.001025	20.738472
967.268338	-2.987500	3.557300	-10.626000	25.541514	0.001025	20.730762
968.270189	-2.984600	3.557300	-10.615000	25.541807	0.001024	20.737221
969.268589	-3.002500	3.557100	-10.680000	25.554017	0.001023	20.760390
970.267580	-2.998300	3.555200	-10.658000	25.574808	0.001023	20.756139
971.268453	-3.001300	3.555500	-10.670000	25.560603	0.001025	20.763685
972.268915	-3.001900	3.554800	-10.670000	25.560123	0.001022	20.745658
973.267678	-3.004400	3.554500	-10.678000	25.535393	0.001023	20.746901
974.267869	-2.996900	3.555300	-10.654000	25.569086	0.001021	20.740435
975.269949	-3.027700	3.551600	-10.750000	25.601914	0.001023	20.757758
976.272402	-3.001000	3.553300	-10.663000	25.637379	0.001020	20.765402
977.268947	-2.987600	3.554500	-10.618000	25.657493	0.001018	20.757627
978.271187	-3.027400	3.552900	-10.755000	25.692826	0.001018	20.762296
979.274460	-2.979800	3.553700	-10.589000	25.695088	0.001016	20.753188
980.275631	-2.978800	3.553400	-10.583000	25.668847	0.001019	20.768084
981.274151	-2.999800	3.552700	-10.655000	25.701315	0.001018	20.760865
982.271121	-2.988800	3.552000	-10.616000	25.731983	0.001017	20.763693
983.271800	-2.997400	3.550500	-10.641000	25.744273	0.001016	20.743795
984.274341	-2.993900	3.550200	-10.627000	25.737990	0.001015	20.779684
985.271212	-2.967200	3.552500	-10.539000	25.743923	0.001015	20.772368
986.272075	-2.985800	3.550500	-10.601000	25.720303	0.001016	20.759075
987.272841	-2.983000	3.550600	-10.589000	25.701731	0.001016	20.765076
988.272643	-2.982300	3.550900	-10.589000	25.691206	0.001013	20.755927
989.278283	-3.000000	3.549900	-10.648000	25.704123	0.001014	20.769850
990.273356	-3.020900	3.548200	-10.718000	25.671990	0.001011	20.754644
991.275437	-2.996000	3.548600	-10.631000	25.659715	0.001013	20.760808
992.274467	-3.001300	3.548800	-10.651000	25.670524	0.001010	20.777355
993.273127	-3.016100	3.547200	-10.698000	25.669328	0.001010	20.771886
994.273410	-2.996900	3.548100	-10.633000	25.658022	0.001010	20.782816
995.274634	-2.986800	3.547900	-10.595000	25.635085	0.001010	20.777323
996.274287	-3.019100	3.546900	-10.708000	25.611732	0.001009	20.782792
997.275242	-3.023900	3.545200	-10.719000	25.659365	0.001008	20.761879
998.279153	-2.992500	3.545400	-10.609000	25.675164	0.001008	20.793395
999.275896	-3.002800	3.545200	-10.644000	25.682620	0.001007	20.777175
1000.276186	-3.001000	3.546000	-10.640000	25.708608	0.001006	20.767717
1001.277488	-2.990500	3.545500	-10.602000	25.736281	0.001006	20.769908
1002.275398	-3.001400	3.545400	-10.640000	25.729021	0.001006	20.781108
1003.276280	-3.001200	3.544500	-10.636000	25.770090	0.001006	20.792962
1004.280167	-3.005100	3.544900	-10.652000	25.775429	0.001006	20.765134
1005.278411	-3.006500	3.542800	-10.650000	25.743435	0.001005	20.769981
1006.277704	-3.020000	3.542600	-10.697000	25.728973	0.001005	20.769205
1007.278438	-2.995800	3.543200	-10.613000	25.718286	0.001003	20.784550
1008.277730	-2.999000	3.541400	-10.620000	25.747700	0.001003	20.765257
1009.277126	-2.991700	3.543400	-10.600000	25.758663	0.001002	20.779587
1010.278194	-2.990100	3.541900	-10.590000	25.770188	0.001001	20.779784
1011.277819	-2.991000	3.542800	-10.596000	25.730487	0.001002	20.786847
1012.276427	-3.007000	3.542500	-10.649000	25.727329	0.001002	20.771821
1013.277322	-3.004700	3.540900	-10.638000	25.734060	0.000999	20.790910
1014.278526	-3.000800	3.539500	-10.620000	25.764963	0.001001	20.782596
1015.278495	-2.973200	3.540700	-10.526000	25.799422	0.000999	20.767423
1016.277545	-2.993300	3.540900	-10.598000	25.815471	0.000999	20.777381
1017.277840	-3.005300	3.539300	-10.636000	25.831365	0.000998	20.798563
1018.278168	-2.989700	3.539700	-10.582000	25.818718	0.000997	20.791074
1019.278479	-2.999600	3.538600	-10.614000	25.849245	0.000996	20.783333
1020.278925	-3.014600	3.538000	-10.664000	25.822152	0.000997	20.779351
1021.279693	-3.011000	3.537500	-10.651000	25.793407	0.000993	20.781297
1022.279867	-2.981900	3.537700	-10.549000	25.797103	0.000997	20.779793
1023.282240	-2.993700	3.537900	-10.590000	25.738594	0.000995	20.796887
1024.284567	-3.017200	3.536300	-10.669000	25.757525	0.000994	20.789349
1025.292401	-3.014800	3.536800	-10.661000	25.784724	0.000993	20.794860
1026.281137	-3.009300	3.536800	-10.642000	25.824025	0.000993	20.795931
1027.284966	-2.983300	3.536200	-10.548000	25.856748	0.000992	20.802724
1028.286676	-2.990700	3.535900	-10.574000	25.860800	0.000991	20.787829
1029.282981	-2.991000	3.536900	-10.577000	25.893084	0.000991	20.809354
1030.285350	-2.982100	3.535900	-10.544000	25.885613	0.000990	20.796159
1031.282619	-3.002600	3.533800	-10.610000	25.859076	0.000991	20.801743
1032.282473	-3.002600	3.535200	-10.613000	25.873879	0.000990	20.817088
1033.285572	-2.998000	3.533500	-10.592000	25.900383	0.000989	20.816687
1034.283196	-2.989300	3.533900	-10.562000	25.925667	0.000989	20.787560
1035.283012	-3.035000	3.531100	-10.715000	25.917521	0.000988	20.800239
1036.285102	-2.991200	3.533900	-10.569000	25.886965	0.000989	20.793724
1037.286338	-2.975600	3.533300	-10.512000	25.894061	0.000988	20.819819
1038.281949	-3.009000	3.531900	-10.627000	25.894590	0.000985	20.800910
1039.285664	-2.999700	3.533000	-10.597000	25.872797	0.000984	20.796087
1040.288941	-3.007400	3.530600	-10.617000	25.859605	0.000986	20.805120
1041.283362	-3.025400	3.531000	-10.681000	25.882335	0.000985	20.796659
1042.283600	-3.003700	3.530700	-10.604000	25.896022	0.000983	20.790021
1043.285623	-3.001600	3.530200	-10.595000	25.886030	0.000984	20.806061
1044.284421	-2.981300	3.529900	-10.523000	25.873229	0.000985	20.810271
1045.283848	-2.988400	3.529200	-10.545000	25.848954	0.000984	20.819550
1046.287699	-3.009100	3.528500	-10.616000	25.880732	0.000982	20.817809
1047.286074	-3.015400	3.528700	-10.640000	25.890042	0.000982	20.821471
1048.286223	-3.029000	3.527100	-10.680000	25.885648	0.000980	20.825117
1049.287972	-2.970600	3.528900	-10.481000	25.910207	0.000980	20.800952
1050.290722	-3.009800	3.527800	-10.618000	25.932789	0.000979	20.823638
1051.287456	-2.991300	3.526900	-10.548000	25.938876	0.000980	20.835916
1052.290170	-2.992000	3.527100	-10.552000	25.946598	0.000979	20.811907
1053.285733	-2.983000	3.526400	-10.518000	25.964899	0.000978	20.822232
1054.286940	-2.998200	3.526900	-10.573000	25.980726	0.000978	20.808261
1055.290275	-3.001400	3.525600	-10.580000	26.000547	0.000979	20.811106
1056.290205	-3.027800	3.525500	-10.673000	25.993216	0.000976	20.800896
1057.287358	-2.996800	3.526400	-10.565000	26.023420	0.000976	20.823181
1058.289608	-2.965600	3.526600	-10.456000	26.012500	0.000975	20.822166
1059.289883	-2.990900	3.525500	-10.543000	26.002777	0.000975	20.825200
1060.287285	-3.008100	3.525600	-10.604000	26.009279	0.000974	20.819404
1061.292895	-2.983900	3.524100	-10.514000	26.016757	0.000974	20.819805
1062.291790	-3.002100	3.523900	-10.578000	26.043608	0.000973	20.815488
1063.288606	-2.993700	3.524000	-10.549000	26.071296	0.000970	20.806799
1064.289602	-2.987800	3.523700	-10.527000	26.054755	0.000971	20.823369
1065.289619	-3.002600	3.523200	-10.578000	26.018417	0.000971	20.824792
1066.289720	-3.010700	3.521000	-10.599000	25.996480	0.000970	20.817451
1067.290054	-2.991400	3.521000	-10.532000	25.951026	0.000968	20.821097
1068.289426	-3.019900	3.522300	-10.637000	25.952417	0.000968	20.812537
1069.288707	-3.041400	3.519300	-10.701000	25.980580	0.000969	20.806693
1070.289766	-2.998600	3.522200	-10.561000	25.990516	0.000969	20.810036
1071.289887	-3.006900	3.520600	-10.586000	25.996798	0.000965	20.825830
1072.290324	-3.009600	3.519300	-10.590000	26.004967	0.000967	20.820288
1073.290727	-2.981100	3.520600	-10.494000	25.985691	0.000965	20.812301
1074.290154	-2.985400	3.519400	-10.505000	25.964820	0.000966	20.797971
1075.290880	-2.976800	3.518300	-10.472000	25.955527	0.000965	20.809972
1076.290931	-3.009600	3.518700	-10.588000	25.925752	0.000966	20.786697
1077.291215	-2.999800	3.517600	-10.551000	25.923360	0.000965	20.795673
1078.291511	-3.034700	3.517500	-10.672000	25.927111	0.000962	20.800390
1079.291762	-2.993700	3.518300	-10.531000	25.923108	0.000963	20.810593
1080.293963	-2.994200	3.517200	-10.529000	25.905441	0.000963	20.790000
1081.294018	-2.989000	3.517400	-10.512000	25.902910	0.000962	20.786984
1082.295501	-2.995400	3.516200	-10.531000	25.910633	0.000962	20.779569
1083.298142	-3.001200	3.516200	-10.552000	25.884520	0.000962	20.788897
1084.294162	-3.008100	3.514000	-10.569000	25.864273	0.000960	20.784679
1085.294967	-2.994400	3.515700	-10.526000	25.853417	0.000960	20.810757
1086.300956	-3.009700	3.514100	-10.577000	25.853067	0.000959	20.784327
1087.296612	-3.005800	3.514700	-10.564000	25.853067	0.000960	20.786224
1088.294837	-2.994700	3.515100	-10.525000	25.848762	0.000957	20.797547
1089.296922	-2.999400	3.514400	-10.539000	25.838272	0.000956	20.778000
1090.296590	-2.992700	3.513600	-10.514000	25.794448	0.000956	20.805575
1091.296778	-3.003300	3.513500	-10.551000	25.751639	0.000955	20.781066
1092.296393	-2.999600	3.512700	-10.536000	25.765377	0.000955	20.783960
1093.296759	-2.988400	3.512500	-10.496000	25.754008	0.000954	20.784869
1094.297153	-2.991800	3.513000	-10.509000	25.772467	0.000954	20.783021
1095.297750	-3.014900	3.511300	-10.585000	25.834376	0.000952	20.767922
1096.298234	-3.017200	3.509100	-10.586000	25.839316	0.000952	20.779523
1097.297373	-3.023600	3.509500	-10.611000	25.866758	0.000951	20.779588
1098.298181	-2.996000	3.509600	-10.514000	25.875376	0.000953	20.773547
1099.296714	-3.007800	3.510600	-10.558000	25.887623	0.000950	20.783006
1100.299837	-2.995700	3.510200	-10.515000	25.882326	0.000950	20.789538
1101.297838	-2.982500	3.509300	-10.466000	25.909970	0.000951	20.765152
1102.301679	-3.016300	3.506600	-10.576000	25.940575	0.000950	20.775036
1103.302237	-2.982200	3.508000	-10.460000	25.964141	0.000949	20.760304
1104.300304	-2.971900	3.508600	-10.425000	25.997275	0.000948	20.781266
1105.300704	-2.982800	3.508600	-10.465000	25.977754	0.000948	20.774930
1106.302674	-2.988800	3.507500	-10.482000	25.930973	0.000947	20.762545
1107.303190	-2.984000	3.507100	-10.463000	25.960634	0.000946	20.780963
1108.303203	-3.038000	3.504200	-10.644000	25.947810	0.000947	20.779934
1109.302794	-3.000300	3.506100	-10.518000	25.999693	0.000946	20.771366
1110.303743	-3.000700	3.506500	-10.520000	25.977397	0.000943	20.746120
1111.303463	-2.986800	3.504600	-10.467000	25.980001	0.000943	20.762488
1112.305338	-3.001100	3.505200	-10.519000	25.986356	0.000944	20.764605
1113.307853	-2.999700	3.504600	-10.511000	25.950064	0.000943	20.751852
1114.304040	-2.987600	3.504700	-10.470000	25.933245	0.000942	20.756291
1115.308661	-3.007400	3.501500	-10.528000	25.892696	0.000940	20.766764
1116.308832	-2.970600	3.506000	-10.414000	25.857328	0.000939	20.774383
1117.304579	-2.972800	3.504500	-10.417000	25.834175	0.000940	20.760134
1118.307040	-3.008000	3.501100	-10.530000	25.817224	0.000940	20.767762
1119.304955	-2.999300	3.501000	-10.499000	25.792662	0.000939	20.743088
1120.304321	-3.013100	3.501800	-10.549000	25.819462	0.000937	20.780916
1121.303911	-2.973100	3.503200	-10.414000	25.854048	0.000939	20.749277
1122.308495	-3.001400	3.501100	-10.506000	25.851307	0.000937	20.758851
1123.306711	-3.003700	3.500400	-10.512000	25.825818	0.000936	20.736565
1124.305275	-3.007600	3.498800	-10.522000	25.811934	0.000934	20.769560
1125.312727	-3.007900	3.500800	-10.528000	25.849223	0.000936	20.760077
1126.307640	-3.001800	3.498100	-10.500000	25.890922	0.000936	20.765931
1127.308105	-2.995200	3.498600	-10.478000	25.911535	0.000933	20.735903
1128.313301	-2.991500	3.498100	-10.463000	25.943833	0.000934	20.751281
1129.309580	-2.998000	3.499300	-10.489000	25.959977	0.000933	20.752802
1130.307880	-2.990700	3.496700	-10.456000	25.995943	0.000931	20.757168
1131.309566	-2.998600	3.497600	-10.487000	25.972891	0.000930	20.752499
1132.309864	-2.996200	3.497200	-10.477000	25.942165	0.000930	20.744389
1133.308012	-3.001600	3.496100	-10.493000	25.919063	0.000929	20.755794
1134.312963	-2.986500	3.496100	-10.440000	25.921227	0.000929	20.738053
1135.312586	-2.999700	3.495400	-10.482000	25.941636	0.000928	20.748600
1136.310471	-3.005600	3.494200	-10.501000	25.951433	0.000927	20.745640
1137.310941	-3.008300	3.494800	-10.511000	25.949757	0.000927	20.730680
1138.314417	-2.991300	3.494500	-10.452000	25.946999	0.000927	20.748772
1139.313452	-3.016000	3.493300	-10.534000	25.924296	0.000925	20.760577
1140.312856	-2.996700	3.493100	-10.467000	25.938658	0.000923	20.743237
1141.314871	-2.967500	3.495500	-10.372000	25.955054	0.000925	20.742640
1142.313723	-3.001200	3.491600	-10.477000	25.967741	0.000925	20.754912
1143.315088	-2.993800	3.493800	-10.459000	25.930252	0.000926	20.740482
1144.316422	-2.996000	3.492100	-10.461000	25.919730	0.000924	20.748878
1145.314883	-2.986300	3.492900	-10.430000	25.915580	0.000923	20.755140
1146.315091	-3.016600	3.491400	-10.531000	25.957292	0.000922	20.729714
1147.317087	-3.000600	3.491100	-10.475000	25.962899	0.000922	20.741986
1148.317272	-3.024100	3.490000	-10.553000	25.989849	0.000920	20.742510
1149.315945	-3.017200	3.490000	-10.528000	25.956942	0.000920	20.729837
1150.316840	-2.999300	3.491200	-10.470000	25.949733	0.000921	20.728284
1151.315771	-3.017700	3.489100	-10.526000	26.004983	0.000919	20.718359
1152.316270	-3.020200	3.487300	-10.531000	26.012803	0.000920	20.716258
1153.316032	-2.997600	3.490400	-10.462000	26.047335	0.000918	20.733884
1154.316306	-3.010600	3.487700	-10.498000	26.084543	0.000917	20.724327
1155.318331	-2.998500	3.488600	-10.460000	26.117152	0.000917	20.739549
1156.317374	-2.995500	3.488800	-10.450000	26.134954	0.000917	20.751748
1157.319654	-3.012300	3.485500	-10.498000	26.158824	0.000917	20.734007
1158.316956	-2.994500	3.486900	-10.441000	26.160003	0.000916	20.729501
1159.316728	-3.002900	3.485400	-10.466000	26.156221	0.000915	20.752728
1160.317255	-3.012600	3.486700	-10.503000	26.112262	0.000915	20.738429
1161.321118	-2.981100	3.485400	-10.390000	26.128901	0.000914	20.723378
1162.317083	-3.015400	3.484700	-10.506000	26.117177	0.000913	20.744790
1163.318172	-2.997800	3.483800	-10.443000	26.066219	0.000914	20.729624
1164.321031	-2.995100	3.483900	-10.432000	26.044406	0.000913	20.745166
1165.320410	-3.013700	3.482800	-10.495000	26.020362	0.000913	20.735707
1166.321341	-2.998500	3.483400	-10.444000	25.993510	0.000911	20.738601
1167.322294	-2.990300	3.483300	-10.414000	25.964550	0.000909	20.752180
1168.322325	-2.983400	3.482700	-10.388000	25.981296	0.000911	20.737710
1169.322567	-3.008200	3.482300	-10.474000	25.998848	0.000911	20.732584
1170.322251	-3.012100	3.482200	-10.488000	25.990808	0.000910	20.740154
1171.323562	-3.011900	3.482000	-10.486000	26.022973	0.000907	20.744021
1172.323734	-2.992400	3.481900	-10.418000	26.062615	0.000909	20.716993
1173.323388	-2.975900	3.481100	-10.357000	26.059906	0.000908	20.720909
1174.325365	-3.014200	3.479200	-10.486000	26.062461	0.000908	20.731063
1175.324856	-3.003200	3.480400	-10.452000	26.048343	0.000905	20.742009
1176.326116	-2.992900	3.480200	-10.414000	26.042997	0.000904	20.743277
1177.326974	-3.000800	3.478500	-10.437000	26.036317	0.000905	20.724710
1178.327067	-3.002500	3.478100	-10.442000	25.978968	0.000906	20.738690
1179.325904	-2.985700	3.477300	-10.380000	25.970351	0.000903	20.714384
1180.327285	-2.985100	3.476900	-10.375000	25.956241	0.000903	20.710640
1181.328606	-3.022500	3.477200	-10.508000	25.949731	0.000901	20.745827
1182.328709	-3.017300	3.476900	-10.489000	25.980661	0.000904	20.734226
1183.328108	-3.007500	3.477400	-10.457000	25.988383	0.000899	20.714008
1184.329717	-2.998400	3.477100	-10.424000	26.002989	0.000900	20.716354
1185.328486	-2.980700	3.476300	-10.361000	26.000035	0.000901	20.726190
1186.331748	-3.003800	3.475200	-10.439000	26.021101	0.000899	20.727440
1187.328701	-2.997000	3.474400	-10.411000	26.033444	0.000898	20.707124
1188.328906	-3.004100	3.473200	-10.433000	26.033567	0.000899	20.732853
1189.334842	-3.005300	3.474200	-10.440000	26.016137	0.000896	20.721505
1190.329469	-2.986800	3.474700	-10.377000	26.026967	0.000898	20.724325
1191.329926	-3.002700	3.472500	-10.427000	26.055958	0.000896	20.719313
1192.329672	-3.038000	3.472300	-10.548000	26.021800	0.000896	20.712495
1193.330518	-3.008600	3.471500	-10.443000	26.038717	0.000896	20.699144
1194.329382	-2.971000	3.474100	-10.320000	26.061963	0.000893	20.704957
1195.329911	-3.003500	3.471400	-10.426000	26.071922	0.000897	20.721603
1196.333899	-2.998600	3.472500	-10.412000	26.043509	0.000892	20.701114
1197.329290	-3.006500	3.469800	-10.431000	26.039392	0.000894	20.706935
1198.331028	-2.993100	3.469700	-10.383000	26.057674	0.000891	20.713925
1199.330855	-3.001100	3.469500	-10.411000	26.075957	0.000889	20.708586
1200.331473	-3.025200	3.468200	-10.491000	26.050889	0.000889	20.720384
1201.330077	-3.019500	3.467600	-10.468000	26.086762	0.000888	20.724660
1202.331042	-3.004000	3.467700	-10.416000	26.083678	0.000890	20.688368
1203.332644	-3.013200	3.467200	-10.446000	26.098388	0.000890	20.709788
1204.331439	-2.990200	3.467100	-10.366000	26.052508	0.000889	20.719640
1205.331899	-2.998800	3.466500	-10.393000	26.056315	0.000889	20.713982
1206.330879	-3.008300	3.467600	-10.431000	26.042223	0.000888	20.699348
1207.331179	-3.018100	3.465400	-10.458000	26.020742	0.000887	20.689145
1208.330795	-3.013200	3.465300	-10.441000	26.057821	0.000885	20.691786
1209.333426	-3.002000	3.466100	-10.404000	26.044038	0.000886	20.731045
1210.334274	-3.003900	3.465800	-10.410000	26.080993	0.000886	20.711751
1211.334908	-3.005000	3.465100	-10.412000	26.127882	0.000887	20.707655
1212.337398	-2.991600	3.465200	-10.366000	26.136579	0.000886	20.708807
1213.335073	-3.027000	3.462900	-10.481000	26.124139	0.000883	20.697255
1214.335926	-2.985700	3.465200	-10.345000	26.100341	0.000882	20.717915
1215.337799	-3.038000	3.461700	-10.515000	26.115466	0.000883	20.715095
1216.336245	-2.969600	3.462300	-10.279000	26.141273	0.000882	20.717318
1217.336076	-2.996800	3.463300	-10.378000	26.121405	0.000880	20.697353
1218.337165	-2.989100	3.461800	-10.346000	26.165380	0.000882	20.693176
1219.338632	-3.001200	3.461000	-10.386000	26.186639	0.000882	20.707900
1220.339324	-3.002900	3.460300	-10.389000	26.220270	0.000880	20.710402
1221.337633	-3.012500	3.460400	-10.423000	26.227144	0.000879	20.711620
1222.341363	-3.009100	3.460100	-10.411000	26.227966	0.000877	20.698694
1223.341464	-3.003600	3.459400	-10.389000	26.186761	0.000879	20.703281
1224.340017	-3.011300	3.458900	-10.415000	26.173475	0.000877	20.711743
1225.343115	-2.997100	3.458900	-10.365000	26.152591	0.000878	20.724897
1226.338757	-3.005800	3.458000	-10.393000	26.129102	0.000877	20.690388
1227.341139	-2.997600	3.459100	-10.366000	26.179519	0.000876	20.694582
1228.342736	-3.035100	3.456300	-10.489000	26.150557	0.000876	20.690609
1229.341883	-3.008500	3.457200	-10.401000	26.144227	0.000873	20.695154
1230.341196	-2.968100	3.457700	-10.262000	26.164412	0.000872	20.699316
1231.346182	-3.013200	3.456700	-10.415000	26.202902	0.000872	20.688205
1232.342681	-3.008400	3.455600	-10.395000	26.207603	0.000872	20.690559
1233.341125	-3.017800	3.455600	-10.426000	26.222881	0.000871	20.703068
1234.341982	-3.003500	3.456300	-10.380000	26.187460	0.000873	20.696871
1235.341803	-2.992300	3.455800	-10.340000	26.172759	0.000870	20.686365
1236.342154	-3.020700	3.452700	-10.428000	26.194294	0.000871	20.692832
1237.341554	-2.990800	3.455200	-10.332000	26.143601	0.000869	20.697370
1238.342309	-2.995800	3.453400	-10.345000	26.156593	0.000867	20.685294
1239.340610	-2.972700	3.454700	-10.268000	26.158285	0.000868	20.672768
1240.341810	-3.005000	3.452000	-10.372000	26.133943	0.000868	20.673439
1241.343620	-3.009800	3.452400	-10.390000	26.169569	0.000869	20.681263
1242.342238	-3.010200	3.452200	-10.390000	26.183074	0.000870	20.684403
1243.344339	-3.003500	3.450600	-10.363000	26.221913	0.000865	20.677911
1244.344661	-3.005500	3.449900	-10.368000	26.230601	0.000866	20.690911
1245.353721	-3.003100	3.450800	-10.362000	26.249084	0.000864	20.677240
1246.345254	-2.994500	3.449900	-10.330000	26.260408	0.000863	20.686250
1247.345511	-2.988100	3.449500	-10.306000	26.222238	0.000864	20.682506
1248.349489	-2.991800	3.448800	-10.318000	26.185108	0.000863	20.667479
1249.346709	-2.992400	3.448600	-10.317000	26.144829	0.000864	20.668729
1250.346358	-3.000800	3.449200	-10.349000	26.123765	0.000862	20.691189
1251.350835	-3.001900	3.447600	-10.348000	26.112293	0.000862	20.667331
1252.349146	-2.985300	3.448600	-10.294000	26.139760	0.000861	20.681656
1253.348099	-3.009800	3.446700	-10.372000	26.165339	0.000861	20.690289
1254.352584	-2.993500	3.446600	-10.316000	26.186483	0.000859	20.690199
1255.349771	-2.995700	3.446100	-10.321000	26.188086	0.000860	20.673791
1256.349295	-3.016100	3.444300	-10.387000	26.214363	0.000860	20.685972
1257.351613	-2.999500	3.445700	-10.334000	26.203112	0.000858	20.667552
1258.351155	-3.003600	3.445700	-10.349000	26.228316	0.000856	20.677707
1259.351319	-3.008400	3.445500	-10.363000	26.244382	0.000858	20.678206
1260.355975	-2.986200	3.443800	-10.283000	26.218082	0.000859	20.678328
1261.353448	-2.995600	3.442300	-10.311000	26.239078	0.000856	20.669555
1262.352957	-3.010400	3.441500	-10.359000	26.250174	0.000854	20.675017
1263.357166	-2.999500	3.443300	-10.328000	26.304605	0.000855	20.680405
1264.354051	-3.004900	3.442200	-10.342000	26.297593	0.000855	20.690429
1265.354559	-3.010500	3.441300	-10.358000	26.291020	0.000852	20.687142
1266.355215	-3.005500	3.440900	-10.341000	26.309591	0.000854	20.662181
1267.352205	-2.993600	3.441200	-10.300000	26.282901	0.000852	20.671395
1268.353418	-3.003200	3.439700	-10.329000	26.267600	0.000852	20.685891
1269.354236	-2.997800	3.439600	-10.310000	26.266485	0.000852	20.673864
1270.355226	-2.980100	3.441600	-10.255000	26.290865	0.000849	20.684616
1271.354518	-3.005300	3.438800	-10.333000	26.325087	0.000850	20.691508
1272.356407	-2.996200	3.439300	-10.304000	26.333433	0.000849	20.674764
1273.360371	-2.975700	3.438600	-10.231000	26.338021	0.000848	20.677952
1274.359846	-3.001800	3.438600	-10.321000	26.360325	0.000850	20.679506
1275.356241	-3.011200	3.437500	-10.348000	26.360269	0.000848	20.689881
1276.358654	-3.010200	3.437400	-10.346000	26.403899	0.000848	20.703387
1277.356801	-3.011500	3.436700	-10.348000	26.392853	0.000849	20.681378
1278.356030	-3.005800	3.437200	-10.330000	26.348929	0.000846	20.677061
1279.359006	-3.030500	3.436700	-10.414000	26.287302	0.000846	20.661592
1280.359399	-2.981700	3.435500	-10.242000	26.225761	0.000845	20.650481
1281.356566	-3.001900	3.436300	-10.314000	26.225883	0.000846	20.667201
1282.360456	-3.004400	3.434200	-10.317000	26.239290	0.000843	20.668820
1283.360748	-2.992800	3.434600	-10.277000	26.201494	0.000843	20.666874
1284.356458	-3.022400	3.432200	-10.371000	26.191430	0.000844	20.682368
1285.362328	-3.003400	3.434200	-10.314000	26.173297	0.000843	20.651814
1286.359646	-3.005600	3.433200	-10.319000	26.177380	0.000841	20.673464
1287.357645	-2.994800	3.434400	-10.284000	26.177649	0.000842	20.672785
1288.365253	-3.018600	3.431700	-10.358000	26.146131	0.000841	20.660080
1289.358651	-3.007500	3.432000	-10.321000	26.132821	0.000840	20.686063
1290.357937	-3.010200	3.432100	-10.330000	26.105573	0.000840	20.675279
1291.364563	-2.983800	3.431900	-10.238000	26.096135	0.000839	20.673857
1292.363309	-3.000300	3.431200	-10.293000	26.091766	0.000841	20.682744
1293.359340	-2.987900	3.430300	-10.249000	26.084753	0.000840	20.681387
1294.358829	-3.012300	3.430500	-10.332000	26.091930	0.000837	20.662991
1295.359248	-3.015700	3.429100	-10.340000	26.153202	0.000837	20.679989
1296.359507	-3.002300	3.428600	-10.292000	26.200185	0.000836	20.670775
1297.360545	-3.003300	3.427900	-10.294000	26.209720	0.000835	20.672296
1298.361090	-2.993400	3.428400	-10.262000	26.237209	0.000836	20.691387
1299.360215	-2.981800	3.429200	-10.224000	26.259304	0.000835	20.672811
1300.360899	-2.996500	3.426300	-10.267000	26.256082	0.000834	20.665305
1301.360395	-3.004800	3.426400	-10.294000	26.285474	0.000833	20.657384
1302.360178	-2.993500	3.425400	-10.252000	26.280211	0.000832	20.659207
1303.359448	-3.004500	3.426100	-10.292000	26.331410	0.000832	20.697863
1304.360681	-2.969300	3.426200	-10.173000	26.329792	0.000831	20.677268
1305.360614	-3.019500	3.423300	-10.335000	26.322194	0.000832	20.699506
1306.361181	-2.997900	3.424200	-10.265000	26.312359	0.000831	20.653582
1307.362065	-2.998400	3.424700	-10.268000	26.314100	0.000830	20.694216
1308.361199	-3.022000	3.422700	-10.342000	26.328621	0.000828	20.667555
1309.361647	-3.012100	3.423600	-10.311000	26.348062	0.000828	20.653427
1310.362648	-2.999300	3.424700	-10.271000	26.331126	0.000827	20.678135
1311.362112	-2.993400	3.422900	-10.245000	26.362858	0.000828	20.683000
1312.363660	-3.008400	3.422600	-10.296000	26.360003	0.000826	20.675388
1313.366838	-2.998800	3.421700	-10.260000	26.332769	0.000827	20.685951
1314.363483	-3.013800	3.421900	-10.312000	26.300427	0.000825	20.698019
1315.364447	-3.016000	3.420100	-10.313000	26.280789	0.000826	20.683973
1316.367090	-3.012000	3.419300	-10.298000	26.221241	0.000823	20.676762
1317.366992	-3.008000	3.419700	-10.285000	26.185006	0.000822	20.661685
1318.366186	-3.005600	3.419100	-10.275000	26.152447	0.000822	20.687292
1319.367056	-3.000700	3.418500	-10.257000	26.154579	0.000823	20.675209
1320.371422	-2.991000	3.419500	-10.227000	26.158809	0.000821	20.678037
1321.374063	-3.014500	3.418600	-10.304000	26.194443	0.000822	20.686818
1322.370651	-2.989800	3.417500	-10.217000	26.205589	0.000821	20.670990
1323.373977	-3.000400	3.418900	-10.256000	26.243011	0.000820	20.674457
1324.373316	-2.983900	3.417200	-10.195000	26.296880	0.000820	20.675960
1325.372795	-3.015900	3.415800	-10.301000	26.347607	0.000819	20.693751
1326.374976	-2.978700	3.417000	-10.176000	26.357701	0.000819	20.690145
1327.373888	-3.004800	3.414600	-10.259000	26.359157	0.000820	20.677383
1328.373420	-2.997300	3.416900	-10.241000	26.392930	0.000817	20.693309
1329.375774	-2.972400	3.417000	-10.156000	26.394499	0.000816	20.695361
1330.373967	-2.987000	3.415300	-10.200000	26.393475	0.000816	20.687219
1331.372398	-3.016400	3.415000	-10.300000	26.396719	0.000814	20.668192
1332.378017	-2.990400	3.413100	-10.206000	26.391473	0.000815	20.680939
1333.374662	-2.982200	3.414800	-10.182000	26.422854	0.000815	20.691143
1334.374580	-2.998600	3.413800	-10.236000	26.421967	0.000816	20.701632
1335.377254	-3.000900	3.412700	-10.240000	26.388545	0.000812	20.694592
1336.376086	-3.010900	3.411900	-10.272000	26.393067	0.000813	20.679222
1337.377635	-2.997700	3.412200	-10.228000	26.361954	0.000812	20.696791
1338.377579	-2.991900	3.411100	-10.205000	26.349248	0.000813	20.680701
1339.377257	-2.990200	3.411000	-10.198000	26.354934	0.000814	20.697797
1340.376163	-3.015400	3.410000	-10.282000	26.386120	0.000811	20.692630
1341.380581	-3.001900	3.408800	-10.230000	26.399134	0.000812	20.691485
1342.376550	-3.011600	3.409900	-10.269000	26.448295	0.000810	20.702015
1343.377285	-3.020800	3.408900	-10.296000	26.421747	0.000809	20.708049
1344.376323	-2.994100	3.408400	-10.204000	26.381231	0.000809	20.700519
1345.375478	-3.011200	3.407900	-10.261000	26.369315	0.000808	20.689016
1346.375955	-3.000700	3.408400	-10.227000	26.365101	0.000807	20.680512
1347.377263	-3.019000	3.407400	-10.286000	26.332735	0.000806	20.701091
1348.380319	-2.994800	3.407600	-10.204000	26.337014	0.000807	20.693062
1349.378445	-3.013500	3.406900	-10.266000	26.335525	0.000805	20.688721
1350.377691	-3.000200	3.407700	-10.223000	26.345831	0.000806	20.690070
1351.381526	-2.994600	3.407400	-10.202000	26.361253	0.000805	20.679490
1352.380002	-2.995800	3.406100	-10.203000	26.353453	0.000804	20.693937
1353.379041	-3.010200	3.404700	-10.247000	26.350622	0.000803	20.705318
1354.381407	-2.996000	3.404300	-10.197000	26.358895	0.000802	20.697035
1355.377020	-3.018700	3.403500	-10.273000	26.351891	0.000803	20.705170
1356.378726	-3.000800	3.404400	-10.215000	26.354844	0.000803	20.696758
1357.382447	-3.002900	3.403800	-10.220000	26.351825	0.000801	20.697043
1358.378695	-2.984400	3.403600	-10.157000	26.368533	0.000802	20.693920
1359.379207	-2.992700	3.402700	-10.182000	26.377448	0.000799	20.678223
1360.380550	-3.008200	3.401700	-10.232000	26.394359	0.000801	20.699962
1361.379097	-2.995900	3.401300	-10.189000	26.397856	0.000801	20.709168
1362.377618	-2.979900	3.401400	-10.135000	26.445105	0.000800	20.677945
1363.381707	-2.964300	3.402300	-10.084000	26.482576	0.000797	20.694746
1364.381510	-2.989200	3.401300	-10.167000	26.428000	0.000795	20.673554
1365.378999	-3.021000	3.399400	-10.268000	26.421396	0.000797	20.692048
1366.381651	-2.990200	3.400300	-10.166000	26.425446	0.000796	20.706552
1367.379135	-3.004000	3.400000	-10.213000	26.455736	0.000795	20.708547
1368.379419	-3.007600	3.398900	-10.222000	26.497297	0.000794	20.689628
1369.380626	-2.989000	3.399600	-10.159000	26.524803	0.000794	20.702104
1370.381282	-3.002200	3.398600	-10.202000	26.555048	0.000795	20.709748
1371.380073	-2.995600	3.398200	-10.178000	26.496207	0.000794	20.703232
1372.380802	-2.990500	3.399200	-10.164000	26.448953	0.000792	20.681812
1373.383492	-3.011600	3.398300	-10.233000	26.406901	0.000792	20.700714
1374.380593	-3.026400	3.394900	-10.273000	26.390088	0.000792	20.706102
1375.381526	-2.995800	3.396500	-10.175000	26.377399	0.000792	20.693348
1376.384919	-2.981900	3.396400	-10.125000	26.402623	0.000790	20.705424
1377.380979	-2.996200	3.396400	-10.175000	26.403224	0.000791	20.708873
1378.382071	-3.013500	3.394700	-10.229000	26.418768	0.000790	20.693675
1379.381472	-3.008000	3.394500	-10.208000	26.404282	0.000787	20.714205
1380.384984	-3.012300	3.395500	-10.226000	26.378921	0.000789	20.692981
1381.385567	-2.996100	3.394800	-10.170000	26.387624	0.000788	20.696038
1382.383299	-3.002500	3.392600	-10.186000	26.388543	0.000787	20.708817
1383.385075	-3.023600	3.391800	-10.255000	26.358220	0.000786	20.719118
1384.386677	-3.004800	3.392900	-10.195000	26.403957	0.000787	20.721939
1385.384036	-2.986900	3.392800	-10.133000	26.435435	0.000786	20.714221
1386.385467	-2.987800	3.390900	-10.130000	26.447953	0.000786	20.708784
1387.388810	-3.016000	3.391800	-10.228000	26.437550	0.000784	20.727253
1388.382061	-2.972000	3.391900	-10.079000	26.437892	0.000783	20.694878
1389.385542	-2.991800	3.390900	-10.144000	26.429295	0.000782	20.718481
1390.391038	-3.015600	3.390200	-10.222000	26.428327	0.000780	20.725095
1391.383780	-2.997000	3.389500	-10.157000	26.434509	0.000783	20.711867
1392.385824	-2.977400	3.389000	-10.089000	26.399696	0.000779	20.705801
1393.382955	-3.004100	3.389000	-10.180000	26.407960	0.000781	20.718850
1394.384194	-3.008000	3.387600	-10.188000	26.407399	0.000781	20.702637
1395.385600	-3.000500	3.388600	-10.166000	26.431873	0.000781	20.719651
1396.388558	-2.996000	3.387100	-10.147000	26.420006	0.000779	20.722896
1397.385919	-3.003500	3.386500	-10.171000	26.416672	0.000780	20.721442
1398.384387	-3.004700	3.385300	-10.171000	26.414736	0.000778	20.728031
1399.387194	-2.999600	3.386000	-10.156000	26.432785	0.000777	20.722464
1400.385140	-3.006700	3.384500	-10.175000	26.460325	0.000777	20.715530
1401.386250	-3.002800	3.385500	-10.166000	26.490687	0.000776	20.710486
1402.387403	-2.993300	3.384700	-10.130000	26.491777	0.000774	20.717746
1403.386888	-2.982900	3.384300	-10.093000	26.522966	0.000775	20.715432
1404.386603	-2.991500	3.384400	-10.123000	26.483034	0.000776	20.737409
1405.389040	-3.012700	3.383300	-10.192000	26.475413	0.000773	20.731171
1406.388494	-2.995600	3.383600	-10.134000	26.477380	0.000774	20.713707
1407.388957	-3.009400	3.383400	-10.182000	26.458129	0.000773	20.713798
1408.388190	-2.997200	3.381700	-10.135000	26.455949	0.000772	20.712081
1409.389028	-3.011800	3.381600	-10.184000	26.465482	0.000772	20.731620
1410.389112	-3.020500	3.380500	-10.209000	26.479512	0.000772	20.714901
1411.389421	-3.001000	3.381400	-10.147000	26.489638	0.000769	20.723658
1412.390251	-2.989400	3.379500	-10.102000	26.477087	0.000769	20.721000
1413.391860	-2.992700	3.379800	-10.112000	26.521796	0.000769	20.742706
1414.390990	-3.016400	3.380100	-10.194000	26.533019	0.000769	20.734073
1415.392236	-2.994700	3.379900	-10.121000	26.489816	0.000769	20.717198
1416.392253	-2.987900	3.380200	-10.098000	26.507888	0.000768	20.732994
1417.391961	-3.004700	3.378700	-10.152000	26.539378	0.000765	20.727663
1418.395248	-2.996500	3.378600	-10.123000	26.559483	0.000767	20.729380
1419.393722	-2.987000	3.379300	-10.092000	26.601316	0.000766	20.736819
1420.393425	-2.989900	3.378100	-10.099000	26.588239	0.000764	20.726992
1421.394890	-3.009700	3.378300	-10.166000	26.565671	0.000765	20.715685
1422.395225	-2.998500	3.377300	-10.125000	26.525162	0.000764	20.711000
1423.397604	-3.020300	3.376900	-10.198000	26.486505	0.000762	20.710551
1424.397395	-3.035600	3.374100	-10.240000	26.465578	0.000761	20.735511
1425.396546	-3.014700	3.375000	-10.174000	26.460560	0.000761	20.744692
1426.397529	-3.006500	3.374200	-10.143000	26.453068	0.000763	20.715349
1427.397291	-3.000400	3.373800	-10.121000	26.467472	0.000760	20.738837
1428.403553	-3.007800	3.374400	-10.149000	26.529569	0.000760	20.731079
1429.403989	-3.010100	3.374200	-10.155000	26.539353	0.000760	20.739017
1430.400719	-2.977800	3.373300	-10.044000	26.550747	0.000760	20.748100
1431.408584	-3.011900	3.373400	-10.159000	26.562141	0.000758	20.726361
1432.405165	-3.018700	3.371500	-10.176000	26.572054	0.000758	20.738224
1433.400954	-2.979200	3.373900	-10.051000	26.576787	0.000758	20.723067
1434.403564	-2.989300	3.372300	-10.079000	26.572428	0.000756	20.746186
1435.405014	-2.986300	3.372800	-10.071000	26.588025	0.000757	20.732942
1436.399469	-2.977000	3.372100	-10.039000	26.621385	0.000755	20.724276
1437.403888	-2.989200	3.371700	-10.078000	26.635738	0.000753	20.741551
1438.405704	-2.977900	3.371200	-10.038000	26.658507	0.000752	20.731723
1439.400493	-2.986500	3.371400	-10.066000	26.616570	0.000754	20.748835
1440.404413	-2.993000	3.371100	-10.087000	26.582805	0.000755	20.737177
1441.400129	-3.019100	3.368300	-10.168000	26.569288	0.000752	20.760574
1442.400791	-3.006300	3.370400	-10.130000	26.574940	0.000751	20.760092
1443.400165	-3.005200	3.369800	-10.126000	26.605307	0.000752	20.740357
1444.404120	-3.000100	3.369100	-10.107000	26.633729	0.000751	20.735738
1445.399736	-3.002600	3.368200	-10.112000	26.644357	0.000750	20.752587
1446.400686	-3.009800	3.368200	-10.136000	26.650960	0.000747	20.736465
1447.403794	-3.006600	3.367300	-10.123000	26.650789	0.000746	20.715903
1448.404977	-3.001900	3.367400	-10.108000	26.664638	0.000748	20.744052
1449.401618	-3.012500	3.365500	-10.137000	26.657092	0.000747	20.752587
1450.404049	-3.014200	3.365100	-10.142000	26.660938	0.000749	20.762618
1451.401174	-2.999400	3.364900	-10.092000	26.634404	0.000748	20.763444
1452.402532	-2.989200	3.366000	-10.061000	26.656596	0.000747	20.760623
1453.402743	-2.989600	3.364900	-10.059000	26.634631	0.000746	20.749922
1454.402136	-2.999800	3.365200	-10.095000	26.643983	0.000745	20.739883
1455.403688	-3.011700	3.364200	-10.131000	26.619367	0.000743	20.770139
1456.403114	-2.993800	3.364700	-10.072000	26.612162	0.000743	20.768112
1457.404824	-2.997100	3.363100	-10.078000	26.613455	0.000742	20.769886
1458.403591	-2.999200	3.362900	-10.085000	26.551745	0.000743	20.769019
1459.403674	-3.001200	3.361400	-10.087000	26.552388	0.000740	20.757811
1460.408007	-2.998700	3.360700	-10.076000	26.562863	0.000742	20.759331
1461.413602	-3.001700	3.361500	-10.089000	26.575525	0.000741	20.755464
1462.403447	-3.002400	3.361300	-10.091000	26.612625	0.000741	20.748662
1463.404003	-2.979100	3.361500	-10.013000	26.654920	0.000739	20.791182
1464.404829	-2.989500	3.361300	-10.047000	26.683495	0.000737	20.771545
1465.404854	-2.990700	3.359900	-10.047000	26.652699	0.000741	20.759077
1466.404022	-3.015000	3.359100	-10.126000	26.659319	0.000739	20.748188
1467.412187	-3.003400	3.358700	-10.086000	26.673867	0.000736	20.778461
1468.407386	-2.974600	3.359300	-9.989900	26.698774	0.000737	20.785008
1469.406707	-2.997500	3.357800	-10.064000	26.706076	0.000738	20.752994
1470.409298	-2.980800	3.360600	-10.016000	26.714394	0.000735	20.767047
1471.407465	-2.995900	3.356300	-10.054000	26.779655	0.000735	20.778606
1472.407523	-2.994800	3.357600	-10.054000	26.790917	0.000735	20.754367
1473.412021	-2.992200	3.356400	-10.042000	26.829822	0.000735	20.774044
1474.409127	-3.015500	3.355800	-10.119000	26.856904	0.000732	20.779938
1475.409879	-2.999900	3.356400	-10.068000	26.853019	0.000733	20.751375
1476.408604	-3.012600	3.355000	-10.105000	26.799624	0.000731	20.762173
1477.412426	-2.987400	3.356300	-10.026000	26.736250	0.000733	20.789021
1478.410656	-3.011500	3.353400	-10.097000	26.703667	0.000732	20.776652
1479.410288	-3.006800	3.354600	-10.086000	26.703675	0.000730	20.771918
1480.412270	-3.017300	3.353200	-10.116000	26.661252	0.000729	20.783796
1481.410194	-2.997700	3.353000	-10.051000	26.674238	0.000729	20.783101
1482.410804	-3.013100	3.352500	-10.100000	26.684411	0.000728	20.775311
1483.408989	-3.010900	3.351500	-10.091000	26.713489	0.000728	20.772776
1484.415060	-2.988400	3.352200	-10.016000	26.728158	0.000727	20.791791
1485.411300	-2.978600	3.352700	-9.985300	26.755610	0.000726	20.799002
1486.411920	-2.998200	3.352100	-10.050000	26.807266	0.000726	20.769857
1487.413529	-2.976300	3.352700	-9.978000	26.798533	0.000727	20.794268
1488.411728	-3.000300	3.351500	-10.054000	26.787962	0.000725	20.772260
1489.411376	-2.983200	3.351600	-9.997200	26.746486	0.000724	20.779397
1490.415664	-2.984400	3.350300	-9.997100	26.715066	0.000722	20.758239
1491.414856	-3.005200	3.350000	-10.067000	26.712114	0.000723	20.773764
1492.424129	-2.969900	3.351200	-9.952100	26.704803	0.000720	20.780165
1493.415784	-2.967600	3.350700	-9.942500	26.719172	0.000723	20.783705
1494.413383	-2.997600	3.348000	-10.034000	26.700355	0.000723	20.777590
1495.413688	-3.006100	3.348400	-10.065000	26.654215	0.000720	20.767239
1496.413235	-3.004600	3.347100	-10.056000	26.650125	0.000722	20.800111
1497.414629	-2.996300	3.347200	-10.028000	26.631461	0.000719	20.782772
1498.416735	-2.977500	3.347100	-9.965000	26.633372	0.000720	20.788486
1499.413538	-2.991500	3.344700	-10.004000	26.701639	0.000718	20.794053
1500.415348	-3.049500	3.345500	-10.201000	26.750574	0.000718	20.805792
1501.416376	-2.983700	3.346700	-9.984700	26.737962	0.000717	20.779836
1502.416126	-2.981300	3.346300	-9.975200	26.743995	0.000715	20.787325
1503.416934	-3.006800	3.345000	-10.056000	26.713047	0.000714	20.801729
1504.419733	-3.004800	3.345300	-10.051000	26.709550	0.000715	20.799636
1505.416028	-3.005800	3.343300	-10.046000	26.667900	0.000716	20.783842
1506.416041	-2.978700	3.345800	-9.965200	26.671705	0.000713	20.790512
1507.417802	-3.007200	3.343000	-10.051000	26.687196	0.000713	20.798499
1508.417197	-2.988800	3.343600	-9.992700	26.706281	0.000713	20.777383
1509.418033	-3.000200	3.343100	-10.029000	26.698092	0.000711	20.777685
1510.419985	-3.014500	3.340700	-10.069000	26.694295	0.000711	20.787144
1511.418279	-3.006400	3.341900	-10.046000	26.706736	0.000710	20.798229
1512.420301	-3.005100	3.341700	-10.041000	26.759484	0.000711	20.784405
1513.422101	-3.010400	3.339700	-10.052000	26.794179	0.000711	20.815495
1514.420365	-3.025300	3.340000	-10.103000	26.830938	0.000707	20.796030
1515.418874	-2.982800	3.341000	-9.964400	26.867728	0.000709	20.792719
1516.421785	-3.010700	3.339300	-10.053000	26.846606	0.000708	20.836913
1517.419602	-2.982300	3.340500	-9.961300	26.811140	0.000706	20.784184
1518.419880	-3.020600	3.339200	-10.085000	26.830450	0.000708	20.789375
1519.420210	-2.971400	3.338900	-9.918700	26.814717	0.000706	20.811963
1520.420186	-3.024100	3.336500	-10.088000	26.837084	0.000706	20.796520
1521.420118	-3.004600	3.337900	-10.028000	26.834150	0.000705	20.799733
1522.420577	-2.995200	3.336700	-9.993200	26.873639	0.000705	20.791075
1523.421426	-2.989200	3.336700	-9.973800	26.870143	0.000705	20.787086
1524.421654	-3.014400	3.335600	-10.053000	26.873769	0.000702	20.814914
1525.420309	-3.000200	3.335400	-10.006000	26.820530	0.000700	20.807850
1526.424511	-3.020500	3.335200	-10.073000	26.786552	0.000702	20.799765
1527.422746	-3.008500	3.335200	-10.033000	26.748108	0.000702	20.820856
1528.422541	-2.997300	3.335000	-9.995100	26.748311	0.000699	20.812052
1529.423303	-3.000000	3.334000	-9.999400	26.741904	0.000699	20.813197
1530.420445	-2.998300	3.333400	-9.993500	26.741107	0.000699	20.807180
1531.420282	-3.015600	3.333600	-10.050000	26.754921	0.000698	20.814430
1532.421354	-3.005800	3.333100	-10.017000	26.749189	0.000699	20.815779
1533.422184	-2.989900	3.333100	-9.965000	26.778298	0.000697	20.809959
1534.420922	-2.985900	3.333800	-9.953000	26.820969	0.000696	20.812084
1535.421955	-3.004700	3.332400	-10.012000	26.868370	0.000696	20.803795
1536.421579	-3.011700	3.331100	-10.032000	26.857507	0.000696	20.823692
1537.422919	-3.011500	3.331100	-10.030000	26.887516	0.000693	20.821624
1538.420994	-2.997700	3.330500	-9.982400	26.906678	0.000692	20.823823
1539.423416	-3.019400	3.329400	-10.052000	26.831701	0.000695	20.814814
1540.422864	-2.990600	3.329900	-9.956200	26.877938	0.000692	20.815787
1541.422794	-2.995100	3.328700	-9.969000	26.891565	0.000691	20.840393
1542.423214	-3.003300	3.330000	-9.999500	26.878515	0.000689	20.815893
1543.424094	-3.007800	3.328900	-10.011000	26.856149	0.000693	20.845086
1544.423831	-3.016800	3.327500	-10.037000	26.841604	0.000689	20.817659
1545.425394	-3.011100	3.327600	-10.019000	26.820114	0.000689	20.819760
1546.424429	-3.030400	3.326200	-10.078000	26.841514	0.000690	20.831319
1547.425263	-2.994300	3.327400	-9.961900	26.865605	0.000689	20.836576
1548.425379	-2.992100	3.327700	-9.955400	26.881865	0.000689	20.805985
1549.428997	-3.007600	3.325200	-10.000000	26.849433	0.000686	20.812255
1550.429392	-3.013100	3.326200	-10.021000	26.811878	0.000687	20.824280
1551.425771	-2.979300	3.326500	-9.908500	26.810812	0.000684	20.807563
1552.428568	-2.997900	3.324900	-9.966600	26.805894	0.000684	20.829643
1553.431767	-2.989100	3.324400	-9.936100	26.854466	0.000686	20.831540
1554.426366	-3.005100	3.324900	-9.988900	26.866978	0.000684	20.810457
1555.428310	-3.002200	3.324700	-9.979500	26.912597	0.000682	20.832144
1556.427044	-2.979700	3.324900	-9.906100	26.966497	0.000683	20.800050
1557.426458	-2.980500	3.324800	-9.908700	27.026882	0.000681	20.821419
1558.427438	-3.012800	3.322400	-10.009000	27.040928	0.000681	20.808519
1559.425696	-3.003400	3.322300	-9.977100	27.047107	0.000681	20.822318
1560.427232	-3.011800	3.322000	-10.003000	27.013729	0.000679	20.821942
1561.429706	-3.018400	3.319900	-10.019000	27.004299	0.000677	20.817201
1562.429458	-2.977900	3.322100	-9.891700	26.998421	0.000678	20.799910
1563.429088	-2.984600	3.321900	-9.912500	26.984723	0.000678	20.814110
1564.428445	-2.989700	3.321300	-9.928900	26.993608	0.000676	20.815933
1565.432247	-2.985400	3.320800	-9.912400	26.976317	0.000674	20.798071
1566.428350	-2.986900	3.320400	-9.916400	27.006046	0.000676	20.812794
1567.429265	-2.987500	3.321100	-9.920800	26.994413	0.000675	20.807733
1568.439981	-3.008500	3.319100	-9.984400	26.995705	0.000674	20.801921
1569.429454	-3.031800	3.318000	-10.058000	26.986828	0.000673	20.810063
1570.429222	-3.014900	3.318200	-10.003000	26.991372	0.000675	20.792821
1571.432419	-2.990400	3.318900	-9.924000	27.009858	0.000672	20.798135
1572.432043	-3.012700	3.316300	-9.988400	26.994087	0.000672	20.800293
1573.430129	-2.994400	3.316400	-9.929700	26.970040	0.000672	20.790810
1574.435279	-2.989600	3.316200	-9.913300	26.999273	0.000671	20.789862
1575.433922	-2.974400	3.317300	-9.866100	27.011288	0.000669	20.802418
1576.432478	-2.995500	3.314700	-9.928000	27.035732	0.000672	20.783379
1577.436206	-3.019300	3.315700	-10.009000	27.027075	0.000669	20.800276
1578.437110	-3.005400	3.314600	-9.960300	27.074222	0.000669	20.790319
1579.434137	-3.010200	3.313100	-9.972700	27.103973	0.000668	20.811705
1580.435304	-3.002500	3.313500	-9.946700	27.112093	0.000666	20.780517
1581.435715	-3.011600	3.313100	-9.975400	27.081473	0.000669	20.782438
1582.436277	-2.972800	3.315200	-9.854900	27.050014	0.000667	20.800587
1583.436090	-2.984000	3.312700	-9.883300	26.993232	0.000663	20.788054
1584.441367	-3.005300	3.312500	-9.953800	26.964405	0.000662	20.785618
1585.437142	-2.998400	3.311600	-9.928200	26.917406	0.000665	20.802842
1586.437602	-3.014300	3.312700	-9.983200	26.905130	0.000663	20.781015
1587.438403	-3.006300	3.310600	-9.951700	26.886292	0.000660	20.776772
1588.438266	-2.998500	3.310500	-9.925700	26.929642	0.000662	20.783378
1589.441185	-2.971800	3.310900	-9.838100	26.923943	0.000661	20.792345
1590.443435	-2.988000	3.311900	-9.895300	26.939649	0.000659	20.784432
1591.439866	-2.985400	3.309100	-9.877300	26.926576	0.000661	20.772708
1592.439517	-3.008000	3.310000	-9.955200	26.921414	0.000659	20.804027
1593.440392	-3.008500	3.309600	-9.955800	26.885748	0.000658	20.775276
1594.439900	-2.990000	3.309600	-9.894500	26.899203	0.000656	20.775055
1595.441905	-3.001200	3.308100	-9.927300	26.862893	0.000657	20.790228
1596.440405	-2.973900	3.308600	-9.838100	26.872796	0.000655	20.776003
1597.443491	-2.991600	3.308200	-9.894800	26.825989	0.000655	20.785364
1598.442988	-3.008200	3.306400	-9.944800	26.846592	0.000653	20.763879
1599.439507	-3.009700	3.306900	-9.951900	26.846665	0.000654	20.765849
1600.442935	-3.016900	3.306400	-9.973400	26.865007	0.000653	20.791405
1601.445611	-2.994400	3.306500	-9.899700	26.874536	0.000653	20.790081
1602.444736	-2.995700	3.304200	-9.896600	26.868828	0.000653	20.765849
1603.444135	-3.001100	3.305300	-9.917900	26.892861	0.000651	20.770100
1604.441672	-3.002700	3.304100	-9.920000	26.947754	0.000649	20.778831
1605.440954	-3.006400	3.304500	-9.933400	26.944991	0.000648	20.770362
1606.444666	-3.016900	3.303900	-9.967100	26.995272	0.000649	20.786786
1607.445459	-3.013000	3.303300	-9.951300	27.043437	0.000650	20.780221
1608.442698	-3.003100	3.302600	-9.916700	27.072473	0.000648	20.768645
1609.442879	-3.010400	3.301800	-9.938100	27.070311	0.000648	20.781170
1610.445283	-2.995900	3.302300	-9.891400	27.015766	0.000647	20.782739
1611.449350	-2.996800	3.301800	-9.894400	26.993752	0.000647	20.767714
1612.444262	-2.979300	3.302600	-9.838900	26.978297	0.000645	20.773035
1613.449104	-2.991400	3.302400	-9.877300	26.959657	0.000646	20.782265
1614.446311	-3.009300	3.300400	-9.931100	26.946730	0.000644	20.790130
1615.445567	-2.992000	3.300600	-9.873800	26.929340	0.000643	20.774539
1616.448312	-2.992900	3.299700	-9.875000	26.979444	0.000644	20.766127
1617.445427	-2.991900	3.300500	-9.873500	26.979297	0.000644	20.771196
1618.446840	-3.035700	3.297900	-10.010000	27.016790	0.000641	20.763854
1619.447088	-2.999900	3.300100	-9.898600	27.022545	0.000641	20.778178
1620.446863	-2.994400	3.298800	-9.876000	27.001555	0.000640	20.755172
1621.448523	-2.981500	3.300300	-9.839300	26.991556	0.000640	20.782576
1622.447160	-2.985600	3.299300	-9.848500	26.989353	0.000639	20.773247
1623.446684	-2.986600	3.298000	-9.848900	26.992361	0.000638	20.776746
1624.448482	-2.994400	3.295800	-9.868000	27.019634	0.000638	20.761025
1625.447252	-2.998900	3.295800	-9.882200	27.054874	0.000638	20.759480
1626.449009	-3.006100	3.295300	-9.905400	27.085958	0.000637	20.775095
1627.448378	-3.019400	3.294200	-9.945900	27.154350	0.000636	20.757583
1628.447346	-2.991000	3.295700	-9.856200	27.135249	0.000634	20.770615
1629.452458	-3.015000	3.293400	-9.927800	27.166161	0.000635	20.763772
1630.449938	-3.007800	3.292900	-9.903000	27.159756	0.000633	20.767762
1631.449762	-3.012700	3.294600	-9.924500	27.139988	0.000633	20.751198
1632.453588	-3.006800	3.293200	-9.900500	27.090559	0.000631	20.753168
1633.452155	-2.993500	3.292800	-9.855400	27.046013	0.000633	20.779493
1634.450783	-3.016400	3.291300	-9.926600	27.006091	0.000633	20.741241
1635.454147	-2.998600	3.293100	-9.874000	26.955639	0.000631	20.757362
1636.452932	-3.005200	3.292600	-9.893200	26.947152	0.000630	20.775381
1637.449564	-3.022800	3.290300	-9.945100	26.944591	0.000630	20.758107
1638.454712	-2.999700	3.291100	-9.870300	26.996092	0.000629	20.734504
1639.453671	-3.017600	3.291700	-9.930600	27.052800	0.000628	20.758343
1640.451576	-3.013400	3.290700	-9.915100	27.056638	0.000626	20.764099
1641.454574	-2.998100	3.290300	-9.863300	27.032145	0.000626	20.745157
1642.456508	-2.989400	3.289100	-9.831700	27.018870	0.000626	20.744609
1643.453083	-3.011200	3.288900	-9.901000	27.024503	0.000626	20.746481
1644.451798	-3.007600	3.288800	-9.890300	27.046241	0.000624	20.763126
1645.450924	-3.005000	3.289500	-9.883500	27.092144	0.000624	20.762349
1646.452435	-3.005500	3.288500	-9.881500	27.094306	0.000622	20.770688
1647.452499	-2.994200	3.288800	-9.846000	27.092461	0.000623	20.754133
1648.451909	-3.003700	3.287300	-9.872900	27.091900	0.000621	20.765897
1649.453387	-3.012000	3.285400	-9.894600	27.110157	0.000621	20.741584
1650.452253	-2.986100	3.287100	-9.815100	27.096322	0.000621	20.748533
1651.453162	-3.000600	3.285500	-9.857700	27.124528	0.000619	20.748925
1652.453907	-3.019300	3.284500	-9.915900	27.159642	0.000620	20.760534
1653.453390	-3.008200	3.284100	-9.878200	27.126170	0.000618	20.734455
1654.454255	-3.009800	3.284900	-9.885400	27.092623	0.000617	20.732010
1655.455374	-3.038800	3.283200	-9.976100	27.032901	0.000618	20.757297
1656.453723	-3.002700	3.285400	-9.863800	27.016098	0.000617	20.750356
1657.454759	-2.984900	3.284600	-9.802600	26.998774	0.000616	20.746685
1658.455278	-3.017300	3.281900	-9.900500	27.017618	0.000615	20.762790
1659.454803	-2.991000	3.282300	-9.816400	27.011432	0.000614	20.747560
1660.455608	-3.020700	3.281500	-9.910300	27.029722	0.000613	20.763584
1661.455560	-2.994200	3.281300	-9.823900	27.022365	0.000613	20.746701
1662.454760	-2.995600	3.281000	-9.827700	27.049882	0.000612	20.762995
1663.455565	-3.012800	3.279500	-9.878500	27.107677	0.000611	20.743357
1664.454697	-3.010000	3.279800	-9.871600	27.112472	0.000610	20.732058
1665.454448	-2.986000	3.279900	-9.792800	27.155471	0.000610	20.753495
1666.455233	-2.994200	3.280400	-9.820800	27.188495	0.000609	20.760157
1667.458227	-3.016000	3.279300	-9.888700	27.230450	0.000611	20.744510
1668.455909	-2.996900	3.279300	-9.826900	27.240853	0.000610	20.748810
1669.453166	-3.010600	3.278500	-9.868400	27.208546	0.000607	20.747608
1670.458278	-2.995400	3.278800	-9.820600	27.196046	0.000608	20.721757
1671.454418	-3.034700	3.275600	-9.939100	27.124957	0.000607	20.736555
1672.456138	-2.995900	3.277100	-9.817000	27.127071	0.000606	20.751009
1673.456418	-2.979900	3.278400	-9.767900	27.181383	0.000605	20.733088
1674.460133	-2.999900	3.276100	-9.826600	27.195013	0.000606	20.749643
1675.459803	-3.000000	3.277500	-9.830300	27.190689	0.000605	20.741975
1676.458241	-2.976900	3.276800	-9.753700	27.152040	0.000603	20.737241
1677.460270	-3.001800	3.275800	-9.832500	27.131785	0.000602	20.746267
1678.461427	-3.011800	3.274400	-9.860900	27.133996	0.000601	20.748017
1679.457735	-3.007500	3.274700	-9.848500	27.117950	0.000603	20.760328
1680.458598	-3.002600	3.276100	-9.836400	27.092045	0.000599	20.756085
1681.459915	-2.997700	3.274800	-9.815900	27.085119	0.000599	20.751965
1682.459472	-3.003100	3.274900	-9.834600	27.083331	0.000599	20.744476
1683.459423	-3.009400	3.274200	-9.852600	27.053165	0.000599	20.744484
1684.461275	-2.996900	3.274000	-9.809200	27.043288	0.000597	20.731232
1685.461471	-2.993600	3.273300	-9.797700	27.038898	0.000597	20.750052
1686.462886	-2.985600	3.272700	-9.769400	27.054034	0.000597	20.716434
1687.464239	-3.005200	3.271600	-9.831600	27.073397	0.000596	20.761988
1688.470229	-2.980700	3.272200	-9.752100	27.071723	0.000594	20.744656
1689.460247	-2.989300	3.272200	-9.780600	27.037703	0.000596	20.741738
1690.463076	-3.007100	3.271200	-9.835600	27.038427	0.000594	20.721601
1691.463617	-3.020600	3.268100	-9.870600	27.052197	0.000592	20.716483
1692.468563	-2.992500	3.270700	-9.786500	27.081192	0.000593	20.746119
1693.463144	-2.994700	3.270000	-9.791600	27.126021	0.000589	20.725771
1694.465541	-3.011800	3.268700	-9.844000	27.104367	0.000590	20.713474
1695.469141	-3.020900	3.268000	-9.871700	27.112211	0.000591	20.736537
1696.465323	-2.983800	3.268800	-9.752700	27.135751	0.000589	20.727970
1697.467066	-3.010900	3.266800	-9.835100	27.185527	0.000587	20.726351
1698.465779	-3.001000	3.267100	-9.802800	27.197484	0.000587	20.743593
1699.465240	-2.996700	3.267500	-9.790800	27.242860	0.000587	20.719533
1700.466568	-2.988700	3.266700	-9.762100	27.285569	0.000585	20.722663
1701.469471	-3.007000	3.264900	-9.816200	27.317150	0.000585	20.754907
1702.466604	-2.999800	3.265200	-9.793900	27.335980	0.000586	20.729277
1703.466345	-3.034500	3.264600	-9.905600	27.313160	0.000585	20.719123
1704.466665	-3.004800	3.264700	-9.808000	27.338784	0.000585	20.730201
1705.466812	-3.002100	3.264400	-9.799000	27.272037	0.000583	20.728018
1706.468632	-2.993700	3.263800	-9.770100	27.250402	0.000584	20.705306
1707.468566	-2.993600	3.264900	-9.772400	27.245143	0.000581	20.719458
1708.469610	-3.003100	3.263900	-9.800000	27.283301	0.000581	20.720856
1709.469908	-3.002200	3.262100	-9.792800	27.325724	0.000580	20.726546
1710.472205	-2.958900	3.264200	-9.656700	27.334956	0.000581	20.729669
1711.472299	-2.992500	3.261100	-9.758000	27.324691	0.000579	20.743052
1712.472114	-3.016400	3.261000	-9.833600	27.341164	0.000576	20.711732
1713.473870	-2.977900	3.262000	-9.713000	27.321026	0.000577	20.719924
1714.474963	-2.998200	3.259400	-9.771500	27.368535	0.000576	20.725042
1715.471766	-2.995600	3.261700	-9.769200	27.417008	0.000575	20.718804
1716.472432	-2.978200	3.261300	-9.711500	27.413880	0.000575	20.733201
1717.473099	-2.976200	3.261600	-9.705800	27.459133	0.000576	20.722303
1718.473130	-2.992600	3.259800	-9.754200	27.471062	0.000573	20.702534
1719.472832	-2.979800	3.260000	-9.713400	27.488759	0.000574	20.713227
1720.476203	-3.005700	3.257600	-9.789800	27.495674	0.000571	20.715443
1721.472641	-2.997500	3.258700	-9.766400	27.454306	0.000573	20.716498
1722.472515	-2.969400	3.259700	-9.678400	27.389768	0.000570	20.728859
1723.476332	-2.989800	3.257500	-9.737900	27.330851	0.000570	20.699459
1724.472992	-3.011900	3.255800	-9.804800	27.321480	0.000569	20.709000
1725.474209	-2.986500	3.255800	-9.722300	27.351451	0.000569	20.701691
1726.474195	-2.969000	3.257100	-9.669200	27.374677	0.000568	20.707038
1727.476771	-2.976600	3.256800	-9.692800	27.378147	0.000567	20.714796
1728.477261	-2.988300	3.254600	-9.724100	27.347672	0.000569	20.712114
1729.474981	-2.987600	3.254500	-9.722300	27.335490	0.000568	20.701756
1730.476467	-2.986100	3.254700	-9.717900	27.351094	0.000565	20.690424
1731.478923	-2.973400	3.254700	-9.676100	27.315726	0.000565	20.702737
1732.476861	-2.979400	3.254800	-9.695500	27.349793	0.000565	20.710929
1733.478074	-3.002000	3.252300	-9.763100	27.351426	0.000564	20.710675
1734.476951	-3.007800	3.251500	-9.779000	27.378504	0.000564	20.685755
1735.478595	-3.002300	3.251900	-9.762100	27.359975	0.000564	20.715956
1736.478372	-3.017800	3.251100	-9.809500	27.337895	0.000560	20.700856
1737.478469	-3.011800	3.249700	-9.787300	27.306964	0.000561	20.680645
1738.478002	-3.021600	3.249200	-9.816000	27.283924	0.000559	20.692557
1739.479644	-3.012800	3.250500	-9.792100	27.268962	0.000559	20.709277
1740.479910	-3.005900	3.250500	-9.769500	27.315733	0.000560	20.708434
1741.484583	-2.997600	3.251200	-9.744200	27.337440	0.000559	20.709882
1742.479685	-3.000700	3.249700	-9.750600	27.337041	0.000557	20.671545
1743.484545	-2.992600	3.250400	-9.725700	27.338317	0.000557	20.682787
1744.483730	-3.005900	3.248700	-9.764600	27.311198	0.000556	20.698656
1745.480915	-2.995100	3.247300	-9.723800	27.285256	0.000555	20.681094
1746.480558	-2.998200	3.248100	-9.737600	27.265092	0.000555	20.706333
1747.481646	-2.990500	3.247700	-9.710800	27.245408	0.000552	20.675625
1748.482615	-2.972900	3.248100	-9.655300	27.269676	0.000553	20.683441
1749.482564	-3.001200	3.246200	-9.741700	27.310344	0.000553	20.689262
1750.482499	-2.995200	3.246200	-9.722200	27.325802	0.000554	20.673989
1751.483958	-2.983000	3.245600	-9.681000	27.336537	0.000551	20.704232
1752.483005	-2.999600	3.244400	-9.729600	27.321039	0.000551	20.701444
1753.487458	-3.009200	3.245700	-9.765700	27.336748	0.000551	20.681683
1754.485608	-3.007000	3.245300	-9.757500	27.303582	0.000550	20.687201
1755.483375	-2.951000	3.246700	-9.579600	27.271854	0.000548	20.683735
1756.489815	-2.994800	3.244400	-9.715500	27.227096	0.000548	20.692769
1757.488838	-2.999300	3.242200	-9.722000	27.222659	0.000548	20.680718
1758.486696	-3.009000	3.242200	-9.755100	27.233826	0.000546	20.686261
1759.489724	-2.990800	3.243600	-9.699600	27.274487	0.000546	20.699187
1760.488761	-2.996700	3.242500	-9.716000	27.288710	0.000545	20.694527
1761.486168	-3.005700	3.241600	-9.741800	27.277819	0.000545	20.686890
1762.486794	-2.986100	3.241900	-9.679300	27.283793	0.000545	20.681045
1763.486715	-3.018900	3.240500	-9.779500	27.334920	0.000543	20.699285
1764.487146	-3.005900	3.240700	-9.740400	27.375983	0.000542	20.704558
1765.486734	-3.004000	3.239800	-9.731200	27.420840	0.000544	20.696579
1766.486607	-2.982000	3.240200	-9.661000	27.431631	0.000542	20.682778
1767.487957	-2.966100	3.241800	-9.614600	27.446616	0.000539	20.665608
1768.485779	-2.998600	3.239800	-9.712800	27.443349	0.000540	20.676548
1769.488423	-3.002000	3.238700	-9.721700	27.437222	0.000537	20.678444
1770.487698	-2.995000	3.239100	-9.699500	27.435410	0.000538	20.702702
1771.486899	-3.016600	3.235600	-9.759600	27.470904	0.000536	20.698581
1772.490566	-2.998600	3.237300	-9.705900	27.497621	0.000535	20.670457
1773.493230	-3.044500	3.234800	-9.846300	27.513214	0.000536	20.670023
1774.488324	-2.999600	3.236100	-9.705700	27.552320	0.000537	20.673334
1775.491921	-3.010300	3.236500	-9.741200	27.575541	0.000535	20.681052
1776.490119	-2.995100	3.235200	-9.688600	27.599030	0.000533	20.677659
1777.489711	-3.003700	3.235400	-9.717400	27.639385	0.000533	20.675116
1778.492581	-3.000100	3.233100	-9.698800	27.616206	0.000533	20.668862
1779.490032	-2.997200	3.234100	-9.692600	27.594464	0.000531	20.681600
1780.489598	-2.970100	3.235400	-9.608100	27.567181	0.000530	20.685917
1781.491757	-2.990200	3.234100	-9.669900	27.522330	0.000530	20.685835
1782.489221	-2.958900	3.234500	-9.568700	27.525994	0.000530	20.673874
1783.490824	-2.971900	3.232600	-9.606200	27.531048	0.000528	20.679433
1784.490162	-2.996500	3.233100	-9.687000	27.558779	0.000529	20.674618
1785.494016	-2.997200	3.231800	-9.685000	27.525060	0.000525	20.670088
1786.492069	-3.005300	3.230500	-9.707900	27.491689	0.000527	20.672075
1787.492285	-2.970600	3.231900	-9.599300	27.498295	0.000525	20.673031
1788.494197	-3.001600	3.229900	-9.693000	27.485668	0.000524	20.672655
1789.494655	-3.018000	3.230500	-9.748900	27.455139	0.000525	20.667071
1790.491718	-2.978300	3.230100	-9.619200	27.513684	0.000523	20.677136
1791.494687	-3.015200	3.229600	-9.736200	27.497384	0.000522	20.654570
1792.493639	-3.008900	3.227200	-9.708700	27.544544	0.000521	20.669303
1793.493021	-2.978000	3.229500	-9.616100	27.562890	0.000519	20.667848
1794.493304	-3.010000	3.229000	-9.718300	27.571722	0.000520	20.663457
1795.493940	-2.988700	3.228800	-9.649300	27.564458	0.000518	20.657096
1796.491142	-2.999200	3.226600	-9.674600	27.574753	0.000519	20.660816
1797.493643	-3.008500	3.226700	-9.705900	27.600256	0.000518	20.690274
1798.493693	-3.002700	3.227300	-9.689200	27.587850	0.000520	20.664512
1799.493789	-3.015700	3.225500	-9.725600	27.609933	0.000516	20.667291
1800.494512	-3.034500	3.223800	-9.780700	27.616555	0.000515	20.669213
1801.498088	-2.990800	3.224900	-9.643900	27.623599	0.000514	20.670137
1802.494943	-2.988000	3.225900	-9.638100	27.568391	0.000515	20.687134
1803.495047	-2.974900	3.223900	-9.589800	27.562313	0.000515	20.651144
1804.497747	-3.002800	3.224500	-9.681100	27.600784	0.000513	20.663302
1805.496305	-2.976000	3.224100	-9.593700	27.632438	0.000511	20.662435
1806.495270	-2.998000	3.221500	-9.657400	27.641464	0.000512	20.679106
1807.510008	-2.995400	3.224300	-9.655700	27.640936	0.000510	20.676203
1808.498077	-2.981300	3.222800	-9.606700	27.666585	0.000511	20.660285
1809.495200	-3.022100	3.220400	-9.731300	27.719066	0.000510	20.685123
1810.499481	-2.981000	3.222100	-9.604100	27.751999	0.000506	20.683177
1811.498373	-3.010900	3.220300	-9.694600	27.788457	0.000508	20.667234
1812.499183	-3.003900	3.221800	-9.676600	27.755574	0.000506	20.681084
1813.496802	-3.011500	3.219900	-9.695700	27.705084	0.000506	20.676743
1814.497560	-3.013800	3.218700	-9.699300	27.671500	0.000506	20.693209
1815.495712	-3.012200	3.219200	-9.696200	27.675229	0.000506	20.674200
1816.495938	-2.996800	3.219000	-9.645800	27.682670	0.000502	20.679318
1817.498175	-3.009400	3.217900	-9.683500	27.658241	0.000504	20.671330
1818.498058	-2.991200	3.219700	-9.630100	27.674912	0.000503	20.677200
1819.499609	-2.984000	3.217000	-9.598800	27.713655	0.000501	20.665926
1820.498978	-3.008200	3.216600	-9.674900	27.767442	0.000499	20.665051
1821.499071	-2.972600	3.217900	-9.564500	27.810536	0.000500	20.685188
1822.498980	-3.013300	3.216600	-9.691700	27.841021	0.000497	20.689791
1823.498795	-2.999900	3.215300	-9.644300	27.770301	0.000497	20.652754
1824.502152	-2.976500	3.216800	-9.574200	27.758222	0.000499	20.678059
1825.506099	-3.007000	3.215200	-9.666900	27.740601	0.000497	20.668861
1826.502409	-2.987500	3.214600	-9.603300	27.709869	0.000495	20.666858
1827.504840	-2.978400	3.214900	-9.573900	27.744468	0.000497	20.668010
1828.501923	-2.995600	3.213300	-9.624300	27.793542	0.000494	20.676145
1829.502398	-2.989900	3.213900	-9.608800	27.835660	0.000494	20.670643
1830.505867	-3.008500	3.213000	-9.665200	27.846439	0.000493	20.669637
1831.502415	-2.988200	3.212000	-9.596600	27.899707	0.000491	20.668247
1832.503000	-2.990200	3.211900	-9.601200	27.870304	0.000492	20.683700
1833.502663	-2.996000	3.212200	-9.622700	27.842808	0.000491	20.685899
1834.505551	-3.026400	3.210800	-9.716000	27.853985	0.000491	20.684820
1835.505151	-2.997900	3.211300	-9.626200	27.867802	0.000490	20.693036
1836.505635	-2.992300	3.210400	-9.605600	27.851191	0.000489	20.666833
1837.506176	-3.012400	3.210500	-9.670900	27.867209	0.000486	20.682481
1838.506172	-2.979900	3.210700	-9.566900	27.909763	0.000487	20.685008
1839.505336	-3.000300	3.209800	-9.630200	27.917796	0.000487	20.676971
1840.506747	-2.990900	3.209100	-9.597500	27.942642	0.000486	20.657406
1841.506285	-3.005000	3.208000	-9.638300	27.919883	0.000484	20.683814
1842.504828	-3.015600	3.208300	-9.672900	27.968575	0.000483	20.703428
1843.507419	-3.022400	3.206600	-9.691000	27.991081	0.000484	20.682457
1844.505802	-3.009000	3.207400	-9.650200	27.974870	0.000482	20.674673
1845.506798	-3.035400	3.204400	-9.723700	27.923693	0.000482	20.687174
1846.508642	-2.990100	3.206900	-9.588500	27.953265	0.000479	20.669997
1847.510368	-3.028100	3.205200	-9.704800	27.960356	0.000480	20.683773
1848.508864	-2.979600	3.205600	-9.550200	27.963069	0.000478	20.677968
1849.509841	-3.005600	3.203900	-9.628600	27.964027	0.000477	20.686995
1850.512786	-2.994700	3.204800	-9.596000	27.968592	0.000477	20.685899
1851.512524	-2.993900	3.205800	-9.597100	27.923116	0.000476	20.691810
1852.509134	-3.012800	3.201900	-9.645900	27.899317	0.000477	20.680184
1853.513164	-2.998000	3.201800	-9.597400	27.846870	0.000475	20.691884
1854.511053	-3.006600	3.202100	-9.626100	27.806279	0.000473	20.680904
1855.511688	-2.993800	3.202200	-9.586100	27.801990	0.000472	20.673741
1856.514437	-2.993900	3.201700	-9.584200	27.826562	0.000472	20.686619
1857.511662	-2.984700	3.203600	-9.559400	27.842077	0.000470	20.688957
1858.512785	-3.011000	3.200600	-9.636200	27.898716	0.000469	20.712773
1859.518226	-2.988900	3.201000	-9.566200	27.883487	0.000469	20.677053
1860.515568	-3.020600	3.198500	-9.660300	27.863197	0.000469	20.691720
1861.513752	-3.026400	3.199000	-9.680200	27.873715	0.000466	20.681443
1862.513350	-3.017400	3.198100	-9.648300	27.880449	0.000468	20.676840
1863.516464	-3.000800	3.197500	-9.594300	27.900317	0.000467	20.702529
1864.516135	-2.982500	3.200300	-9.542200	27.919006	0.000465	20.695735
1865.514534	-2.987000	3.199900	-9.557100	27.876713	0.000464	20.693470
1866.514661	-2.968300	3.200200	-9.498000	27.829739	0.000463	20.693609
1867.514768	-2.986900	3.196600	-9.546800	27.825653	0.000462	20.715577
1868.514558	-2.980600	3.197500	-9.528200	27.778912	0.000462	20.699357
1869.515134	-2.976800	3.197900	-9.518300	27.755573	0.000462	20.709061
1870.515255	-3.009400	3.195800	-9.616500	27.790016	0.000461	20.713852
1871.515520	-3.015500	3.194300	-9.631800	27.786394	0.000461	20.699774
1872.514892	-2.993000	3.196400	-9.564900	27.830242	0.000458	20.681787
1873.518917	-3.014700	3.194000	-9.627900	27.838121	0.000459	20.708685
1874.515634	-2.995000	3.194700	-9.567200	27.919169	0.000457	20.693053
1875.514767	-2.979800	3.193800	-9.515400	27.944153	0.000456	20.702079
1876.517673	-2.985100	3.192800	-9.529900	27.994281	0.000456	20.697533
1877.515081	-3.004900	3.192600	-9.591900	28.024534	0.000453	20.694794
1878.515013	-2.993900	3.193600	-9.560000	28.018808	0.000453	20.692350
1879.519975	-2.985800	3.191700	-9.528500	28.023535	0.000452	20.705170
1880.517572	-2.987800	3.192100	-9.535500	28.019198	0.000453	20.706494
1881.516447	-2.972100	3.190600	-9.482300	27.981018	0.000450	20.714531
1882.518207	-3.002000	3.189900	-9.573500	27.999601	0.000450	20.695302
1883.516542	-2.968700	3.190100	-9.469300	28.006894	0.000450	20.703592
1884.516194	-2.997300	3.190400	-9.561700	27.970996	0.000449	20.700648
1885.518079	-3.002600	3.189200	-9.575500	27.911981	0.000450	20.716166
1886.519022	-3.020400	3.189600	-9.632600	27.865788	0.000448	20.723728
1887.517061	-2.997200	3.187900	-9.553500	27.824499	0.000446	20.703984
1888.523030	-3.019900	3.187600	-9.625500	27.796345	0.000446	20.705521
1889.517766	-2.979600	3.189200	-9.502000	27.780894	0.000444	20.712258
1890.517505	-2.985000	3.188200	-9.515700	27.814768	0.000443	20.706993
1891.517432	-3.001300	3.187100	-9.564500	27.813208	0.000441	20.728184
1892.520211	-3.004700	3.186600	-9.573500	27.833654	0.000443	20.701344
1893.517736	-2.981200	3.186100	-9.497300	27.838609	0.000441	20.722928
1894.517850	-2.981200	3.185500	-9.495300	27.845904	0.000441	20.727424
1895.518977	-2.999200	3.184400	-9.549200	27.829528	0.000440	20.716632
1896.518439	-3.014100	3.185200	-9.599400	27.853117	0.000438	20.726149
1897.518614	-2.997600	3.185400	-9.547300	27.885786	0.000440	20.714458
1898.519659	-3.010800	3.184000	-9.584600	27.913728	0.000439	20.717450
1899.519572	-3.009100	3.182700	-9.574100	27.951959	0.000436	20.711359
1900.519739	-3.043500	3.181500	-9.681600	27.964970	0.000435	20.742950
1901.519225	-2.982400	3.185700	-9.500400	28.005920	0.000433	20.722053
1902.520448	-2.991000	3.181000	-9.512900	28.043880	0.000434	20.735608
1903.521202	-3.002500	3.180600	-9.547400	28.111602	0.000431	20.715112
1904.522621	-3.000300	3.180300	-9.540200	28.128972	0.000432	20.743506
1905.524659	-2.994100	3.181200	-9.522600	28.094808	0.000433	20.730924
1906.526976	-2.996300	3.180000	-9.527200	28.067286	0.000432	20.730245
1907.520854	-2.994300	3.178600	-9.516900	28.029855	0.000430	20.741879
1908.524220	-2.998900	3.179900	-9.535500	28.011533	0.000426	20.721538
1909.522560	-2.988900	3.179200	-9.501200	27.993251	0.000426	20.735854
1910.520903	-2.995100	3.180200	-9.522900	28.050589	0.000426	20.715808
1911.523407	-2.988900	3.179100	-9.500500	28.058670	0.000425	20.726787
1912.521957	-2.977100	3.178600	-9.462300	28.101874	0.000425	20.726657
1913.520976	-3.016100	3.175700	-9.577600	28.086850	0.000424	20.734293
1914.524545	-2.995800	3.179300	-9.523400	28.074896	0.000422	20.730319
1915.520580	-2.975600	3.176900	-9.452200	28.080248	0.000422	20.739501
1916.524666	-3.016600	3.175800	-9.578500	28.094630	0.000421	20.733590
1917.522133	-3.010200	3.173600	-9.550300	28.098293	0.000420	20.745338
1918.523873	-3.014600	3.173800	-9.567300	28.083642	0.000421	20.713045
1919.521648	-3.012300	3.173100	-9.557700	28.093558	0.000417	20.764754
1920.523184	-3.008700	3.175300	-9.552200	28.084682	0.000417	20.735903
1921.522390	-3.021300	3.171300	-9.580300	28.081555	0.000418	20.753145
1922.523102	-2.983400	3.172100	-9.462600	28.051036	0.000416	20.745183
1923.523499	-3.009000	3.172400	-9.544000	28.024512	0.000416	20.758312
1924.523711	-2.993400	3.170700	-9.490600	27.999830	0.000414	20.727303
1925.524275	-2.978400	3.174100	-9.452900	27.980110	0.000412	20.728791
1926.525566	-2.992400	3.170000	-9.484900	28.000553	0.000414	20.751265
1927.524866	-2.997200	3.172000	-9.506200	27.993771	0.000412	20.766250
1928.523799	-2.972400	3.171500	-9.425200	28.031228	0.000410	20.747055
1929.525549	-3.010900	3.169100	-9.541100	28.056786	0.000411	20.760928
1930.525122	-3.000200	3.169600	-9.508000	28.073572	0.000410	20.744161
1931.527191	-2.991100	3.170600	-9.482800	28.048283	0.000410	20.761852
1932.528680	-2.999000	3.167700	-9.498900	28.050460	0.000407	20.752663
1933.526491	-3.003200	3.166700	-9.509800	28.008195	0.000406	20.728611
1934.529306	-3.003700	3.166300	-9.509400	28.018835	0.000406	20.751649
1935.531467	-2.997200	3.166400	-9.489600	28.051905	0.000404	20.741790
1936.529005	-3.009700	3.164400	-9.522700	28.079371	0.000404	20.739566
1937.530718	-2.998500	3.166500	-9.492800	28.080199	0.000404	20.756048
1938.529930	-2.995800	3.165800	-9.482600	28.068765	0.000401	20.738847
1939.528975	-2.972900	3.166100	-9.411400	28.088897	0.000401	20.741095
1940.532986	-3.003800	3.163100	-9.499900	28.117823	0.000401	20.750775
1941.529919	-3.007600	3.162400	-9.511000	28.140115	0.000401	20.761362
1942.528721	-2.996500	3.162700	-9.476200	28.144280	0.000398	20.758443
1943.529634	-3.027100	3.163300	-9.574400	28.178143	0.000397	20.767877
1944.529037	-2.985000	3.162600	-9.439900	28.159579	0.000397	20.755827
1945.529194	-3.005200	3.160200	-9.496500	28.109954	0.000395	20.741904
1946.529992	-3.021100	3.159300	-9.542700	28.109061	0.000393	20.753333
1947.530599	-3.021100	3.160200	-9.546000	28.115833	0.000393	20.749245
1948.531128	-2.996200	3.159700	-9.466200	28.114079	0.000393	20.755540
1949.530912	-3.006800	3.159700	-9.499000	28.112934	0.000393	20.749646
1950.531488	-2.990600	3.159000	-9.446300	28.162438	0.000392	20.773403
1951.531727	-3.008800	3.158700	-9.502900	28.164768	0.000392	20.762473
1952.532320	-2.993800	3.157700	-9.453000	28.175187	0.000389	20.755892
1953.533171	-2.980900	3.159600	-9.416800	28.186287	0.000388	20.752843
1954.531556	-2.998000	3.156400	-9.460800	28.215982	0.000388	20.776575
1955.531895	-2.985200	3.156900	-9.422200	28.262371	0.000387	20.747414
1956.531882	-2.986500	3.156700	-9.426400	28.330501	0.000387	20.769070
1957.534256	-2.973900	3.156300	-9.385300	28.385157	0.000385	20.776215
1958.534351	-2.986800	3.155900	-9.425100	28.356677	0.000385	20.780254
1959.533776	-2.974000	3.155700	-9.384300	28.284131	0.000383	20.745141
1960.533273	-3.020200	3.153100	-9.520600	28.243955	0.000383	20.769651
1961.533731	-3.011200	3.152700	-9.492400	28.165287	0.000381	20.785282
1962.537438	-3.043600	3.149100	-9.583900	28.096278	0.000383	20.758957
1963.536985	-3.032000	3.152300	-9.556800	28.032640	0.000379	20.757960
1964.532507	-3.017500	3.150500	-9.505200	27.996589	0.000379	20.767664
1965.536879	-2.991100	3.150400	-9.422100	28.003411	0.000378	20.768841
1966.538684	-2.988900	3.152600	-9.421500	28.020742	0.000378	20.758786
1967.535412	-3.016800	3.150300	-9.502300	28.079029	0.000377	20.764353
1968.538288	-3.019500	3.147500	-9.503100	28.139220	0.000375	20.783695
1969.540013	-2.991200	3.149900	-9.421000	28.196461	0.000375	20.761189
1970.535447	-2.991900	3.149600	-9.422600	28.229453	0.000375	20.782077
1971.537797	-3.014600	3.148900	-9.490900	28.280761	0.000373	20.782526
1972.539614	-3.016300	3.146400	-9.489600	28.268964	0.000373	20.758794
1973.536419	-3.012300	3.147100	-9.478700	28.268744	0.000372	20.763789
1974.539267	-3.006000	3.146700	-9.458300	28.250930	0.000371	20.779044
1975.540408	-2.999600	3.146000	-9.433900	28.263361	0.000371	20.762636
1976.537038	-2.980600	3.145800	-9.375500	28.317201	0.000370	20.775594
1977.539127	-2.996800	3.144600	-9.422800	28.325280	0.000369	20.764761
1978.536079	-2.988600	3.144500	-9.396000	28.288499	0.000366	20.789843
1979.536347	-2.981500	3.143300	-9.371200	28.251912	0.000365	20.755850
1980.536451	-3.002700	3.143300	-9.437600	28.267055	0.000365	20.782951
1981.539073	-2.998200	3.142000	-9.419100	28.315309	0.000365	20.793604
1982.538202	-2.990500	3.141200	-9.391500	28.327910	0.000366	20.774997
1983.538490	-3.005500	3.139800	-9.435100	28.331751	0.000361	20.760845
1984.538805	-3.001700	3.140000	-9.423900	28.254908	0.000364	20.780205
1985.537922	-3.000200	3.138700	-9.415900	28.202567	0.000362	20.794364
1986.541481	-2.975900	3.140000	-9.343000	28.162266	0.000360	20.793146
1987.539111	-2.988300	3.139000	-9.379600	28.152294	0.000359	20.783107
1988.539273	-2.991500	3.137700	-9.385200	28.142412	0.000358	20.780270
1989.537987	-2.995200	3.138800	-9.400000	28.146399	0.000358	20.778120
1990.542539	-3.004000	3.138700	-9.428200	28.157751	0.000356	20.785755
1991.539562	-3.013100	3.136300	-9.449200	28.187415	0.000356	20.792860
1992.538979	-3.013100	3.134900	-9.444600	28.158092	0.000355	20.789418
1993.540316	-3.014700	3.136100	-9.453400	28.162778	0.000355	20.791764
1994.540752	-3.013000	3.135200	-9.444900	28.224305	0.000355	20.796808
1995.541321	-2.995900	3.134600	-9.389600	28.255144	0.000354	20.783761
1996.540701	-3.004400	3.133400	-9.413100	28.311047	0.000351	20.789786
1997.541663	-3.008400	3.132600	-9.422600	28.336874	0.000350	20.804411
1998.546845	-3.022000	3.131100	-9.461400	28.327383	0.000349	20.806708
1999.541249	-3.018000	3.130900	-9.447900	28.302668	0.000349	20.779453
2000.546126	-3.006800	3.131800	-9.415600	28.306118	0.000348	20.805212
2001.544075	-2.988200	3.131100	-9.355400	28.284107	0.000347	20.791584
2002.542841	-2.964900	3.130700	-9.280900	28.257937	0.000347	20.788470
2003.547513	-2.998000	3.129300	-9.380600	28.245863	0.000345	20.818513
2004.544397	-2.956100	3.129200	-9.248300	28.247479	0.000345	20.808286
2005.545633	-3.025500	3.128300	-9.462000	28.243289	0.000341	20.800749
2006.547191	-2.981600	3.127700	-9.325100	28.230549	0.000344	20.824905
2007.545341	-2.981900	3.127800	-9.325000	28.256800	0.000342	20.777842
2008.545400	-2.966700	3.127000	-9.275200	28.288507	0.000342	20.793170
2009.547989	-2.993800	3.125800	-9.356800	28.259675	0.000340	20.793064
2010.544584	-2.973700	3.126700	-9.297600	28.303975	0.000342	20.807795
2011.545019	-2.983300	3.125200	-9.321800	28.364868	0.000339	20.794192
2012.546493	-3.017700	3.123200	-9.423500	28.420391	0.000339	20.795099
2013.549194	-2.983300	3.123000	-9.316400	28.404934	0.000337	20.821259
2014.546093	-2.993100	3.123600	-9.347900	28.409415	0.000337	20.812496
2015.544354	-3.003200	3.123600	-9.379400	28.408230	0.000336	20.813673
2016.544734	-2.995100	3.121800	-9.348900	28.381195	0.000336	20.810632
2017.544997	-3.001500	3.120400	-9.364400	28.390783	0.000333	20.810803
2018.544999	-2.970800	3.119600	-9.265700	28.341875	0.000333	20.799015
2019.545334	-3.017700	3.120000	-9.414100	28.328226	0.000330	20.826998
2020.544799	-2.998600	3.119300	-9.352000	28.312678	0.000331	20.818455
2021.546077	-3.025600	3.118800	-9.434900	28.355815	0.000332	20.815896
2022.547441	-3.021000	3.115500	-9.411300	28.386277	0.000330	20.814801
2023.548636	-2.985200	3.118100	-9.306800	28.378913	0.000330	20.832041
2024.548547	-2.991400	3.116000	-9.320500	28.345755	0.000329	20.813828
2025.548446	-2.981300	3.117000	-9.291600	28.386325	0.000327	20.791616
2026.551837	-3.018900	3.116800	-9.407600	28.396815	0.000327	20.808816
2027.549033	-3.014300	3.113900	-9.384800	28.431570	0.000325	20.802088
2028.550164	-2.993100	3.115000	-9.322200	28.439899	0.000324	20.833235
2029.557004	-2.998900	3.112900	-9.334100	28.454918	0.000325	20.824177
2030.550614	-3.003200	3.112600	-9.346800	28.442310	0.000323	20.819068
2031.550115	-2.997500	3.114200	-9.334000	28.505501	0.000323	20.830545
2032.552304	-3.023700	3.110200	-9.402200	28.525032	0.000321	20.806118
2033.552989	-2.981300	3.112700	-9.278600	28.489501	0.000320	20.802104
2034.550108	-3.004600	3.109200	-9.341500	28.435929	0.000321	20.838246
2035.558406	-2.997400	3.109600	-9.320000	28.408026	0.000320	20.824373
2036.551939	-3.013500	3.108500	-9.366100	28.404535	0.000317	20.821332
2037.551931	-3.008300	3.108600	-9.351100	28.414772	0.000317	20.786122
2038.556575	-2.984700	3.107800	-9.273900	28.379700	0.000316	20.817187
2039.553229	-3.002200	3.107100	-9.326600	28.368829	0.000316	20.810982
2040.551706	-2.996000	3.104900	-9.300900	28.355278	0.000315	20.843804
2041.551554	-2.998600	3.105300	-9.310500	28.381226	0.000315	20.784585
2042.552844	-2.997800	3.104700	-9.305600	28.388387	0.000314	20.814081
2043.552205	-2.981800	3.104300	-9.254900	28.406564	0.000313	20.809625
2044.552202	-3.014300	3.103000	-9.351700	28.372961	0.000313	20.803764
2045.552986	-2.995900	3.102900	-9.293500	28.355855	0.000311	20.821152
2046.555571	-2.971400	3.104100	-9.222300	28.381023	0.000310	20.799079
2047.554912	-3.005600	3.101400	-9.319100	28.441944	0.000309	20.813484
2048.555533	-2.999000	3.100100	-9.296500	28.523124	0.000311	20.789024
2049.558883	-2.976700	3.101100	-9.230200	28.566618	0.000308	20.798213
2050.556927	-2.981600	3.100700	-9.245000	28.598884	0.000306	20.789457
2051.558575	-2.981100	3.100200	-9.239200	28.636473	0.000306	20.808350
2052.556193	-2.997200	3.098700	-9.285400	28.679361	0.000305	20.791803
2053.557585	-3.003200	3.098100	-9.303600	28.716453	0.000304	20.791705
2054.557923	-3.010900	3.096400	-9.321200	28.705115	0.000303	20.778388
2055.557685	-3.015200	3.095800	-9.331600	28.667024	0.000302	20.801663
2056.559538	-2.983700	3.094700	-9.232200	28.638689	0.000302	20.792089
2057.561568	-2.996200	3.095100	-9.272600	28.650060	0.000301	20.805913
2058.560402	-2.988100	3.095300	-9.247500	28.634509	0.000301	20.791198
2059.560019	-3.014900	3.092200	-9.321300	28.657130	0.000299	20.788852
2060.558888	-2.991500	3.093900	-9.254400	28.718133	0.000300	20.794820
2061.565343	-2.976100	3.092200	-9.201800	28.725543	0.000299	20.788533
2062.559404	-3.016500	3.089600	-9.318700	28.771731	0.000298	20.790013
2063.559210	-2.991500	3.091600	-9.247800	28.792263	0.000296	20.795997
2064.564106	-2.985100	3.090300	-9.222900	28.799900	0.000295	20.795155
2065.563099	-2.992700	3.089900	-9.245200	28.741905	0.000294	20.775142
2066.560860	-2.992800	3.088300	-9.241900	28.737814	0.000294	20.768177
2067.564622	-2.994500	3.089000	-9.249100	28.717703	0.000296	20.785378
2068.565680	-2.982900	3.087600	-9.208100	28.688370	0.000293	20.778118
2069.561632	-3.015100	3.086700	-9.305500	28.731752	0.000292	20.772502
2070.565550	-3.012800	3.084600	-9.292400	28.760669	0.000290	20.790724
2071.567297	-2.998100	3.083900	-9.245100	28.765847	0.000291	20.780767
2072.562562	-3.005900	3.083600	-9.267900	28.800387	0.000289	20.796120
2073.566517	-3.009000	3.083000	-9.276100	28.783239	0.000286	20.789751
2074.565670	-3.014400	3.082100	-9.289300	28.777054	0.000288	20.777832
2075.563032	-3.007200	3.082900	-9.269700	28.750394	0.000285	20.789383
2076.564869	-3.006400	3.080900	-9.261100	28.719894	0.000286	20.778576
2077.564031	-3.023000	3.079100	-9.307600	28.692153	0.000286	20.781453
2078.564569	-3.001400	3.079100	-9.239700	28.748738	0.000285	20.759740
2079.567652	-3.014800	3.078300	-9.278300	28.780406	0.000283	20.762716
2080.564044	-2.992100	3.077000	-9.205400	28.821917	0.000282	20.768970
2081.564449	-2.987100	3.078200	-9.193600	28.798739	0.000281	20.755105
2082.566416	-3.008700	3.074900	-9.249500	28.739421	0.000283	20.769321
2083.564341	-2.997800	3.075400	-9.218500	28.678184	0.000284	20.766436
2084.565463	-2.997400	3.073500	-9.211300	28.651002	0.000281	20.762291
2085.566578	-3.019800	3.072400	-9.276300	28.642057	0.000279	20.735737
2086.569378	-2.991200	3.073500	-9.192600	28.699587	0.000279	20.780407
2087.566320	-2.987100	3.071900	-9.175700	28.741564	0.000280	20.758677
2088.567330	-2.970000	3.071700	-9.121700	28.799259	0.000276	20.767008
2089.569002	-3.015100	3.070500	-9.256800	28.806620	0.000277	20.771578
2090.566090	-2.998800	3.069100	-9.202500	28.797717	0.000277	20.749807
2091.566318	-2.990000	3.068600	-9.174400	28.783750	0.000275	20.773671
2092.568517	-2.995800	3.067700	-9.188500	28.736897	0.000274	20.770098
2093.570251	-2.994600	3.067200	-9.184300	28.725754	0.000275	20.740855
2094.566059	-2.998500	3.066200	-9.192900	28.770473	0.000275	20.746071
2095.571083	-3.008500	3.066100	-9.222600	28.800103	0.000270	20.755530
2096.569949	-3.021100	3.064400	-9.257100	28.778150	0.000270	20.745744
2097.569714	-2.998500	3.063800	-9.186600	28.759273	0.000271	20.749488
2098.570414	-3.006100	3.062500	-9.204800	28.729690	0.000272	20.755252
2099.570455	-2.991100	3.062500	-9.159700	28.653185	0.000271	20.737936
2100.568412	-3.002200	3.061400	-9.190100	28.667949	0.000271	20.740005
2101.569598	-2.987700	3.060300	-9.143000	28.702217	0.000266	20.781159
2102.573368	-3.026100	3.058500	-9.254300	28.709546	0.000269	20.761988
2103.570138	-3.025400	3.058900	-9.252800	28.724260	0.000267	20.749782
2104.570627	-3.005500	3.057900	-9.188800	28.736556	0.000266	20.747943
2105.571011	-3.012600	3.057000	-9.207800	28.776365	0.000266	20.757696
2106.570340	-2.994500	3.056200	-9.149200	28.816253	0.000264	20.748564
2107.570783	-3.008800	3.054600	-9.189900	28.846328	0.000268	20.749938
2108.574564	-3.011000	3.054300	-9.196100	28.877141	0.000263	20.751107
2109.572443	-3.018300	3.053000	-9.214400	28.910436	0.000264	20.755252
2110.579252	-3.016000	3.053700	-9.209300	28.902329	0.000263	20.743291
2111.575776	-2.965600	3.053900	-9.055100	28.851627	0.000262	20.741525
2112.575294	-3.012000	3.050200	-9.185600	28.855539	0.000261	20.731240
2113.573741	-3.016600	3.048600	-9.195400	28.785909	0.000261	20.761146
2114.577207	-2.996700	3.049700	-9.137300	28.771219	0.000261	20.743504
2115.574924	-3.004900	3.047400	-9.155000	28.807472	0.000260	20.740667
2116.573996	-3.005900	3.047300	-9.158900	28.855952	0.000258	20.733080
2117.575036	-3.002300	3.047000	-9.146900	28.851798	0.000258	20.742171
2118.574587	-2.997500	3.047200	-9.133000	28.839016	0.000259	20.745891
2119.574313	-3.008000	3.045400	-9.158700	28.841248	0.000257	20.743397
2120.574157	-3.027300	3.043600	-9.212500	28.853169	0.000258	20.734069
2121.578310	-2.995300	3.042300	-9.111500	28.836119	0.000257	20.742498
2122.578997	-2.989800	3.042200	-9.094500	28.857876	0.000257	20.726482
2123.576595	-2.987100	3.040300	-9.079100	28.862834	0.000255	20.741435
2124.575050	-2.974600	3.041700	-9.046700	28.873911	0.000254	20.737895
2125.575795	-2.963100	3.039900	-9.005900	28.856496	0.000253	20.740740
2126.580508	-3.012700	3.038400	-9.153000	28.862818	0.000254	20.728616
2127.577079	-3.002000	3.036200	-9.113500	28.894158	0.000254	20.745964
2128.575611	-2.997000	3.037000	-9.099500	28.871347	0.000252	20.735312
2129.579772	-2.994500	3.034000	-9.083800	28.894361	0.000250	20.738108
2130.576643	-2.999500	3.032000	-9.093800	28.879770	0.000249	20.735263
2131.577392	-3.003800	3.032300	-9.106700	28.867143	0.000249	20.732974
2132.580362	-3.003100	3.030800	-9.100500	28.917747	0.000251	20.720890
2133.579343	-3.005900	3.031500	-9.110800	28.949434	0.000247	20.723891
2134.579930	-2.993000	3.031100	-9.071400	28.973274	0.000251	20.732262
2135.584912	-2.980400	3.029000	-9.026300	29.003840	0.000248	20.740773
2136.582393	-2.993700	3.026600	-9.059600	29.030859	0.000248	20.726270
2137.589299	-2.983400	3.025700	-9.024900	29.070178	0.000248	20.718944
2138.583326	-3.018200	3.024400	-9.128100	29.098907	0.000247	20.759748
2139.582198	-2.992000	3.023300	-9.045300	29.118509	0.000248	20.732557
2140.582802	-2.994200	3.022700	-9.050100	29.118355	0.000248	20.726711
2141.586304	-2.993600	3.022800	-9.047800	29.089236	0.000245	20.743365
2142.585643	-2.983700	3.020600	-9.011200	29.058770	0.000245	20.729262
2143.582651	-2.991000	3.020500	-9.033600	29.055306	0.000247	20.730039
2144.583148	-2.999400	3.018900	-9.053900	29.077058	0.000244	20.719239
2145.583935	-2.983500	3.017500	-9.001400	29.091216	0.000245	20.733031
2146.585247	-3.012200	3.016800	-9.086700	29.066884	0.000243	20.736489
2147.586249	-3.028200	3.014500	-9.127400	29.074576	0.000244	20.712944
2148.587635	-3.008100	3.013700	-9.064300	29.067095	0.000244	20.741444
2149.586126	-2.996800	3.013400	-9.029500	29.077334	0.000243	20.735165
2150.586201	-2.980300	3.012500	-8.977400	29.045659	0.000241	20.720318
2151.588787	-2.986300	3.010700	-8.989300	28.970386	0.000242	20.745948
2152.586354	-2.997000	3.010300	-9.019600	28.924937	0.000242	20.715331
2153.592347	-2.993800	3.008600	-9.006200	28.886538	0.000242	20.714579
2154.587594	-2.981400	3.008200	-8.967800	28.834375	0.000241	20.705651
2155.586753	-3.014400	3.006000	-9.060200	28.826284	0.000240	20.700345
2156.589523	-3.006500	3.005800	-9.035800	28.825967	0.000240	20.720891
2157.587877	-2.993700	3.004400	-8.993300	28.900536	0.000239	20.723940
2158.590275	-2.987900	3.003900	-8.973700	28.927834	0.000240	20.698808
2159.591652	-3.014800	3.001300	-9.046300	28.988473	0.000240	20.714857
2160.587523	-3.006000	2.999800	-9.015500	29.010827	0.000240	20.720310
2161.592434	-3.005800	2.999600	-9.015400	29.075517	0.000240	20.685915
2162.592177	-3.000800	2.997800	-8.995100	29.044661	0.000239	20.720735
2163.588178	-2.990900	2.997000	-8.963100	29.028913	0.000240	20.705815
2164.591359	-2.990500	2.996800	-8.959900	28.981113	0.000238	20.710761
2165.591446	-2.983800	2.995700	-8.937400	28.924045	0.000238	20.706371
2166.589268	-2.973500	2.994900	-8.904200	28.921245	0.000240	20.711612
2167.590013	-2.994400	2.992900	-8.960900	28.948973	0.000239	20.704458
2168.590426	-3.011900	2.990800	-9.006000	28.973965	0.000239	20.697394
2169.589262	-3.012700	2.989100	-9.004000	29.011857	0.000237	20.709968
2170.593210	-3.018900	2.989100	-9.021700	29.032596	0.000238	20.720907
2171.589569	-3.019300	2.985700	-9.013600	28.994972	0.000236	20.717613
2172.591617	-2.987800	2.985800	-8.919900	28.947042	0.000235	20.729541
2173.589183	-2.978400	2.983900	-8.885900	28.943009	0.000235	20.681852
2174.592285	-3.000800	2.982700	-8.949700	28.979426	0.000235	20.711906
2175.593963	-3.009400	2.981200	-8.970800	29.038828	0.000235	20.710116
2176.590209	-2.976300	2.981900	-8.873300	29.009529	0.000237	20.718529
2177.594879	-2.973100	2.979100	-8.855400	28.987459	0.000234	20.702455
2178.591581	-3.024900	2.976600	-9.002300	28.978541	0.000236	20.691573
2179.592465	-3.020600	2.976300	-8.988800	28.975945	0.000234	20.695596
2180.596045	-3.003100	2.975900	-8.936200	28.932339	0.000232	20.707614
2181.595212	-3.013500	2.973000	-8.957900	28.913358	0.000232	20.695604
2182.592714	-2.980300	2.972000	-8.856800	28.960698	0.000234	20.707263
2183.597143	-2.995200	2.970900	-8.897400	28.948097	0.000233	20.705946
2184.596778	-2.981300	2.970700	-8.855600	28.955895	0.000233	20.711906
2185.594551	-2.990400	2.967700	-8.873000	28.997521	0.000233	20.698368
2186.601651	-2.998300	2.966400	-8.893200	29.023380	0.000231	20.706404
2187.596256	-2.999000	2.964800	-8.890700	28.998957	0.000232	20.695547
2188.595726	-3.027600	2.963600	-8.971300	28.973081	0.000233	20.705988
2189.598100	-2.981400	2.964500	-8.837300	28.960999	0.000233	20.702824
2190.594618	-3.018100	2.960800	-8.934500	28.994438	0.000231	20.681984
2191.595685	-2.966900	2.961400	-8.785400	29.003436	0.000234	20.691051
2192.595973	-2.972700	2.959900	-8.798000	29.008694	0.000232	20.695874
2193.597099	-2.973500	2.958300	-8.795100	29.015104	0.000232	20.708024
2194.596781	-3.001700	2.954600	-8.867500	28.996190	0.000231	20.677585
2195.596187	-3.005700	2.953700	-8.876200	29.039535	0.000232	20.698025
2196.597179	-3.001100	2.952300	-8.860000	29.050115	0.000229	20.706315
2197.596279	-2.998100	2.950600	-8.845300	29.088484	0.000229	20.680962
2198.595583	-2.994000	2.948000	-8.825900	29.070115	0.000231	20.702285
2199.599143	-3.009300	2.948300	-8.871700	29.055454	0.000229	20.705530
2200.596749	-3.015500	2.945300	-8.880900	29.017068	0.000229	20.694828
2201.596591	-3.022600	2.943700	-8.896000	28.997603	0.000229	20.682328
2202.597834	-3.011000	2.941900	-8.857500	28.970282	0.000228	20.692735
2203.596696	-3.011000	2.942300	-8.857400	28.928128	0.000228	20.679662
2204.597344	-2.997200	2.941500	-8.815400	28.868209	0.000229	20.688525
2205.597531	-2.989700	2.939300	-8.785200	28.870416	0.000230	20.682688
2206.599736	-2.974500	2.936800	-8.734600	28.893876	0.000229	20.676924
2207.596045	-2.988400	2.934900	-8.768900	28.886378	0.000229	20.686915
2208.600935	-2.990200	2.933400	-8.770600	28.857497	0.000227	20.690062
2209.598553	-2.973100	2.932400	-8.716800	28.850015	0.000228	20.681576
2210.601197	-2.997100	2.930100	-8.781200	28.876332	0.000227	20.669206
2211.605254	-2.996900	2.930200	-8.779700	28.899987	0.000228	20.680235
2212.598893	-2.987000	2.927500	-8.742900	28.953990	0.000228	20.682958
2213.599873	-3.005900	2.924500	-8.789300	29.012428	0.000229	20.677349
2214.603264	-3.014500	2.922300	-8.807700	29.093077	0.000228	20.676107
2215.601454	-3.012100	2.921600	-8.799300	29.085742	0.000228	20.676303
2216.598742	-2.992900	2.921100	-8.742000	29.105563	0.000227	20.678731
2217.599825	-2.980500	2.919100	-8.699500	29.118779	0.000227	20.667865
2218.600516	-2.983800	2.917800	-8.705400	29.096647	0.000227	20.686817
2219.599304	-2.976600	2.915800	-8.678000	29.052761	0.000227	20.690488
2220.600414	-2.982400	2.914100	-8.690300	29.066441	0.000227	20.684356
2221.601447	-3.032300	2.913500	-8.832500	29.085751	0.000227	20.668724
2222.600993	-2.993300	2.911100	-8.711800	29.107097	0.000228	20.666999
2223.600410	-2.965800	2.912000	-8.635000	29.106796	0.000227	20.671912
2224.601667	-3.000300	2.907300	-8.722200	29.059617	0.000227	20.678429
2225.600525	-3.025900	2.905300	-8.790500	29.014294	0.000226	20.665004
2226.601892	-3.020600	2.902700	-8.766600	29.056266	0.000229	20.679320
2227.602589	-3.027300	2.899600	-8.775700	29.022505	0.000226	20.681813
2228.604127	-2.991700	2.900200	-8.675700	29.008663	0.000226	20.666917
2229.603065	-2.987900	2.898900	-8.660600	29.059163	0.000227	20.657580
2230.605363	-2.999000	2.895800	-8.683900	29.058497	0.000226	20.665445
2231.604608	-3.012400	2.894800	-8.717800	29.039649	0.000225	20.680595
2232.604820	-3.009900	2.893600	-8.708700	29.045516	0.000226	20.667538
2233.606528	-3.013000	2.889600	-8.704700	29.066522	0.000223	20.670686
2234.607757	-2.982300	2.887700	-8.610600	29.100443	0.000224	20.657449
2235.607235	-2.988000	2.888200	-8.629200	29.098740	0.000225	20.664742
2236.608907	-3.007700	2.884500	-8.674100	29.111916	0.000225	20.660000
2237.608159	-2.994900	2.883500	-8.634700	29.138900	0.000227	20.656844
2238.610638	-3.011400	2.880900	-8.674800	29.181135	0.000223	20.673801
2239.608914	-3.010500	2.879200	-8.666500	29.180843	0.000227	20.662126
2240.609426	-3.009000	2.877200	-8.657000	29.207314	0.000226	20.664619
2241.610219	-2.997500	2.876200	-8.620500	29.251299	0.000223	20.658684
2242.609403	-2.976500	2.874400	-8.554600	29.250017	0.000223	20.664031
2243.610130	-2.988100	2.871600	-8.580000	29.240883	0.000224	20.680906
2244.610292	-2.985700	2.870500	-8.568200	29.248541	0.000223	20.666811
2245.610360	-2.992800	2.869200	-8.586400	29.241702	0.000223	20.668928
2246.615566	-2.993600	2.866500	-8.579900	29.240145	0.000224	20.651236
2247.615130	-3.020100	2.863500	-8.647100	29.253051	0.000225	20.681315
2248.612146	-3.018100	2.860900	-8.633700	29.256937	0.000224	20.669108
2249.612350	-3.052600	2.857700	-8.721900	29.288736	0.000223	20.673654
2250.612854	-3.009800	2.858100	-8.600700	29.331670	0.000225	20.667612
2251.612741	-3.016200	2.857200	-8.616700	29.379219	0.000224	20.667171
2252.614721	-3.012700	2.853700	-8.595100	29.424161	0.000222	20.652250
2253.613099	-3.003900	2.851600	-8.564900	29.440626	0.000224	20.657466
2254.614130	-3.015500	2.849600	-8.591900	29.442167	0.000223	20.642896
2255.614903	-2.992800	2.848700	-8.523400	29.415921	0.000221	20.658169
2256.618123	-3.013500	2.844800	-8.572100	29.370710	0.000222	20.670450
2257.615798	-3.013500	2.843700	-8.568000	29.342467	0.000221	20.677072
2258.617572	-2.983400	2.841100	-8.474500	29.284623	0.000224	20.678994
2259.620416	-2.992700	2.839500	-8.496000	29.211971	0.000222	20.670736
2260.616915	-2.993300	2.836900	-8.490700	29.203080	0.000223	20.644229
2261.618712	-3.011600	2.834800	-8.536200	29.227304	0.000222	20.671963
2262.622657	-2.993400	2.832500	-8.477800	29.280827	0.000222	20.670426
2263.618670	-3.007200	2.830000	-8.509100	29.330860	0.000223	20.669166
2264.619206	-3.023800	2.827600	-8.548000	29.396756	0.000222	20.665406
2265.622123	-3.029100	2.825100	-8.556600	29.478040	0.000220	20.685698
2266.620563	-2.981600	2.824500	-8.420500	29.511836	0.000224	20.651008
2267.620564	-2.985800	2.822600	-8.426800	29.513644	0.000224	20.669902
2268.620780	-2.964700	2.820400	-8.360500	29.545857	0.000223	20.678193
2269.620907	-2.996500	2.818700	-8.444900	29.535728	0.000222	20.657074
2270.620315	-2.976300	2.815000	-8.376700	29.587403	0.000220	20.681668
2271.619998	-2.988800	2.812900	-8.406200	29.615875	0.000220	20.662953
2272.621597	-3.000500	2.809800	-8.429600	29.615851	0.000222	20.651073
2273.625250	-2.997800	2.808100	-8.417100	29.598254	0.000222	20.669846
2274.619890	-3.002700	2.804700	-8.420800	29.555849	0.000222	20.667401
2275.621835	-3.033000	2.802500	-8.499500	29.541713	0.000221	20.652202
2276.626376	-2.995300	2.801800	-8.390200	29.498884	0.000221	20.687743
2277.622589	-3.008900	2.797500	-8.416200	29.494294	0.000221	20.672683
2278.625189	-2.988800	2.794800	-8.351500	29.476979	0.000220	20.662340
2279.627276	-3.011600	2.792700	-8.409300	29.456605	0.000220	20.663616
2280.623619	-2.982600	2.790900	-8.323400	29.441358	0.000220	20.670059
2281.624531	-2.983500	2.787500	-8.315900	29.470426	0.000221	20.669012
2282.623438	-2.982900	2.785600	-8.308600	29.520457	0.000222	20.652586
2283.624238	-3.006000	2.783000	-8.364000	29.550716	0.000221	20.673607
2284.624846	-3.018900	2.777300	-8.383400	29.564948	0.000222	20.658081
2285.623805	-2.981800	2.776600	-8.278300	29.629110	0.000220	20.670132
2286.623798	-3.001200	2.774800	-8.326600	29.644979	0.000221	20.679494
2287.625828	-2.978200	2.772200	-8.254800	29.691832	0.000221	20.666984
2288.625010	-3.014200	2.768300	-8.342700	29.726391	0.000219	20.673378
2289.624346	-3.008700	2.764800	-8.316600	29.756189	0.000220	20.677817
2290.624472	-3.005000	2.762700	-8.299000	29.775713	0.000220	20.675692
2291.625160	-3.007100	2.758900	-8.295100	29.766730	0.000220	20.667581
2292.628360	-2.985400	2.758200	-8.233400	29.771384	0.000221	20.667532
2293.624650	-2.990200	2.754100	-8.233400	29.715858	0.000220	20.663231
2294.626664	-3.016100	2.751100	-8.295000	29.745762	0.000220	20.672993
2295.624157	-2.994000	2.749200	-8.228500	29.783724	0.000221	20.660533
2296.626159	-2.984300	2.744700	-8.190000	29.809880	0.000220	20.683115
2297.627114	-2.991200	2.741300	-8.198600	29.835776	0.000220	20.667499
2298.626088	-2.972300	2.738300	-8.138600	29.862798	0.000220	20.675781
2299.625297	-3.006500	2.734200	-8.219200	29.846907	0.000219	20.663550
2300.626976	-3.001300	2.732000	-8.198800	29.775697	0.000221	20.674726
2301.628969	-2.975100	2.729300	-8.119100	29.740953	0.000219	20.677629
2302.626391	-3.008000	2.726200	-8.199200	29.746734	0.000219	20.684407
2303.625578	-2.989100	2.723700	-8.140300	29.786561	0.000219	20.668137
2304.626618	-2.999700	2.718200	-8.152200	29.849623	0.000219	20.657279
2305.626144	-2.997900	2.715500	-8.139800	29.867192	0.000220	20.667409
2306.625484	-3.001300	2.712600	-8.140300	29.871845	0.000220	20.682060
2307.632553	-2.992300	2.708200	-8.102800	29.892113	0.000220	20.676419
2308.627818	-2.990800	2.704100	-8.086200	29.839570	0.000218	20.670377
2309.627050	-2.973300	2.701300	-8.030900	29.824198	0.000220	20.673369
2310.628107	-2.995400	2.698000	-8.079800	29.794969	0.000220	20.668553
2311.628737	-3.006400	2.694900	-8.100700	29.791969	0.000218	20.694929
2312.631435	-3.005200	2.690900	-8.086100	29.758953	0.000220	20.695305
2313.628844	-2.986400	2.688200	-8.027100	29.724939	0.000218	20.673810
2314.631567	-2.994900	2.682900	-8.034300	29.699324	0.000218	20.696351
2315.633775	-3.011200	2.679000	-8.065100	29.665016	0.000217	20.675511
2316.629714	-3.031500	2.674400	-8.106400	29.656980	0.000218	20.687325
2317.633566	-2.965200	2.674200	-7.927600	29.651547	0.000220	20.664776
2318.635772	-3.001100	2.666700	-8.001700	29.710806	0.000218	20.685167
2319.630630	-3.024800	2.663400	-8.054700	29.766850	0.000219	20.699474
2320.634042	-2.998700	2.660200	-7.975500	29.811444	0.000220	20.699392
2321.634188	-3.022900	2.654500	-8.022500	29.816447	0.000220	20.681676
2322.632627	-3.051000	2.650900	-8.086500	29.838142	0.000220	20.677473
2323.634904	-2.972700	2.646700	-7.867000	29.813576	0.000219	20.663607
2324.632681	-3.013700	2.643100	-7.965100	29.781915	0.000220	20.693326
2325.633617	-2.971900	2.639200	-7.842700	29.774172	0.000219	20.684570
2326.636103	-2.995100	2.635400	-7.892000	29.759983	0.000218	20.683539
2327.634696	-3.024900	2.630000	-7.954200	29.765504	0.000218	20.679623
2328.634748	-3.009400	2.624000	-7.895100	29.769307	0.000218	20.705745
2329.635522	-2.984000	2.620000	-7.817100	29.778907	0.000220	20.693612
2330.636949	-2.986200	2.615300	-7.808400	29.812692	0.000220	20.705393
2331.635117	-2.971000	2.610700	-7.754800	29.867905	0.000218	20.696105
2332.635290	-3.016700	2.604100	-7.854700	29.852420	0.000220	20.689500
2333.638298	-2.971800	2.600300	-7.726500	29.839123	0.000220	20.678936
2334.638387	-2.992800	2.594400	-7.763500	29.827683	0.000219	20.698223
2335.636222	-2.988200	2.589200	-7.736100	29.770669	0.000220	20.723715
2336.636166	-2.967400	2.585900	-7.672200	29.808136	0.000219	20.684201
2337.637093	-2.997300	2.578200	-7.726700	29.849071	0.000219	20.696081
2338.635381	-3.004600	2.573600	-7.731700	29.889859	0.000220	20.695484
2339.635803	-3.010700	2.566500	-7.724900	29.893767	0.000219	20.695631
2340.636189	-3.017400	2.560800	-7.725800	29.884541	0.000219	20.704821
2341.637465	-2.998400	2.556700	-7.665600	29.909802	0.000220	20.712277
2342.643448	-3.014900	2.549200	-7.683600	29.906835	0.000220	20.684152
2343.642080	-2.994700	2.543500	-7.615400	29.895777	0.000219	20.706194
2344.639401	-2.982600	2.539400	-7.572900	29.915842	0.000219	20.704142
2345.639670	-2.996400	2.531400	-7.583800	29.941727	0.000219	20.707486
2346.642271	-3.017700	2.525300	-7.617800	29.937196	0.000218	20.690587
2347.640355	-3.007300	2.518800	-7.573000	29.947045	0.000218	20.704314
2348.641969	-2.986200	2.512400	-7.500800	29.967952	0.000218	20.715441
2349.645694	-3.008200	2.507600	-7.541900	29.990699	0.000219	20.700447
2350.643205	-3.023100	2.499500	-7.555200	29.991591	0.000219	20.714149
