LabVIEW Measurement	
Writer_Version	2
Reader_Version	2
Separator	Tab
Decimal_Separator	.
Multi_Headings	No
X_Columns	One
Time_Pref	Absolute
Operator	admin
Description	Clolumns are: time, Current, Voltage, Power, Battery Temp, and Chamber Temp
Date	2024/08/16
Time	13:06:06.104549407958984375
***End_of_Header***	
	
Channels	6						
Samples	1	1	1	1	1	1	
Date	2024/08/29	2024/08/29	2024/08/29	2024/08/29	2024/08/29	2024/08/29	
Time	02:30:00.2234525680541992188	02:30:00.2289152145385742188	02:30:00.2359175682067871094	02:30:00.1856832504272460937	02:30:00.1856832504272460937	02:30:00.1856832504272460937	
X_Dimension	Time	Time	Time	Time	Time	Time	
X0	0.0000000000000000E+0	0.0000000000000000E+0	0.0000000000000000E+0	0.0000000000000000E+0	0.0000000000000000E+0	0.0000000000000000E+0	
Delta_X	1.000000	1.000000	1.000000	1.000000	1.000000	1.000000	
***End_of_Header***							
X_Value	Untitled	Untitled 1	Untitled 2	Untitled 3	Untitled 4	Untitled 5	Comment
0.000000	0.020140	4.106700	0.082605	21.204388	0.000979	20.963577
1.011699	-2.994800	3.944300	-11.811000	21.204098	0.000978	20.952857
2.000440	-3.017900	3.936200	-11.878000	21.208836	0.000977	20.976560
3.004549	-2.998100	3.932900	-11.789000	21.219264	0.000978	20.965656
3.997672	-3.005400	3.926200	-11.799000	21.190931	0.000974	20.979511
4.991569	-3.006900	3.924100	-11.798000	21.203200	0.000975	20.981352
5.998769	-2.976100	3.922100	-11.671000	21.199330	0.000975	20.980801
7.000328	-3.012300	3.918600	-11.803000	21.235117	0.000974	20.974875
7.995713	-2.994400	3.915600	-11.724000	21.220317	0.000971	20.986147
8.991221	-2.991000	3.913500	-11.704000	21.209678	0.000973	20.988306
10.000826	-3.042100	3.910800	-11.895000	21.240723	0.000971	20.992335
10.999768	-2.972100	3.911400	-11.624000	21.219028	0.000970	20.979168
12.011883	-2.997400	3.909300	-11.717000	21.240985	0.000970	20.991175
13.006525	-2.990500	3.907200	-11.683000	21.243647	0.000970	20.989570
14.005150	-3.021400	3.905200	-11.797000	21.248333	0.000969	20.980509
15.006245	-3.046400	3.903400	-11.890000	21.250412	0.000968	21.005345
16.011286	-2.995300	3.902500	-11.688000	21.239906	0.000968	21.001948
17.013506	-2.991200	3.903000	-11.673000	21.258180	0.000968	20.970921
18.002430	-3.009300	3.901300	-11.739000	21.257521	0.000965	20.986855
19.008902	-2.972500	3.899200	-11.589000	21.270450	0.000966	20.983195
20.008162	-3.016700	3.898300	-11.759000	21.270160	0.000966	20.978164
21.002227	-3.012200	3.897200	-11.738000	21.282430	0.000964	20.994704
22.007288	-3.002900	3.897100	-11.701000	21.288776	0.000963	20.992043
23.005674	-3.000200	3.896900	-11.690000	21.282535	0.000965	20.991964
24.003448	-3.009000	3.893500	-11.713000	21.296201	0.000964	20.995678
25.009093	-2.994500	3.894400	-11.661000	21.297622	0.000962	20.998047
26.010045	-2.993600	3.894200	-11.657000	21.291777	0.000963	21.005949
27.003462	-2.975100	3.894800	-11.586000	21.315869	0.000963	21.012507
28.012273	-3.016700	3.892900	-11.743000	21.321450	0.000961	20.992490
29.019069	-2.991500	3.891600	-11.640000	21.319528	0.000959	21.024226
30.010551	-2.978300	3.891000	-11.588000	21.324795	0.000960	20.992991
31.011230	-2.991900	3.891700	-11.643000	21.338038	0.000957	20.992016
32.010082	-2.978700	3.890900	-11.589000	21.329799	0.000960	20.988515
33.001276	-2.990300	3.889400	-11.629000	21.348940	0.000958	21.007661
34.011222	-3.005000	3.887700	-11.681000	21.354469	0.000957	21.004185
35.021844	-2.969000	3.888300	-11.543000	21.349519	0.000957	21.003026
36.013535	-3.022100	3.886200	-11.743000	21.383984	0.000957	21.023279
37.013343	-2.997900	3.888000	-11.655000	21.394725	0.000959	21.014113
38.007267	-2.999800	3.885600	-11.655000	21.370319	0.000956	21.013877
39.017234	-3.007100	3.887400	-11.689000	21.414286	0.000956	21.009030
40.017808	-2.993000	3.886100	-11.630000	21.397568	0.000957	21.023120
41.016890	-2.995700	3.885200	-11.638000	21.394172	0.000956	21.012138
42.023526	-3.001700	3.883800	-11.657000	21.394331	0.000955	21.012771
43.010087	-2.993700	3.883000	-11.623000	21.422183	0.000954	21.021671
44.021318	-2.998200	3.884300	-11.645000	21.440588	0.000955	21.007371
45.013286	-3.009500	3.881800	-11.682000	21.433375	0.000952	21.028599
46.010955	-3.009700	3.883800	-11.688000	21.425871	0.000955	21.017300
47.012366	-2.995600	3.883100	-11.631000	21.428057	0.000952	21.020909
48.019832	-2.997200	3.881400	-11.633000	21.421791	0.000955	20.999945
49.009513	-2.993500	3.881800	-11.619000	21.459333	0.000952	21.018064
50.029324	-2.987300	3.882200	-11.596000	21.443090	0.000950	21.016037
51.019790	-2.996700	3.881600	-11.631000	21.441695	0.000951	21.029811
52.022950	-2.998100	3.878900	-11.628000	21.464995	0.000951	21.039846
53.022891	-2.986600	3.882500	-11.595000	21.485898	0.000952	21.024255
54.004591	-3.001300	3.879100	-11.641000	21.501929	0.000952	21.039345
54.994065	-2.983100	3.880800	-11.575000	21.499455	0.000951	21.047772
55.996024	-2.994100	3.880100	-11.615000	21.505141	0.000951	21.010796
56.999940	-3.023800	3.877900	-11.725000	21.531546	0.000950	21.033894
57.999991	-3.002900	3.877100	-11.641000	21.509275	0.000948	21.043375
58.995127	-3.009000	3.876300	-11.663000	21.531230	0.000948	21.034999
59.995651	-2.974100	3.878800	-11.535000	21.537126	0.000951	21.034735
60.994244	-2.987200	3.877200	-11.581000	21.543129	0.000949	21.054014
62.014483	-3.009100	3.878200	-11.669000	21.538812	0.000950	21.028837
63.000909	-2.978000	3.877200	-11.545000	21.544603	0.000948	21.034156
63.992595	-3.026200	3.874600	-11.724000	21.558080	0.000948	21.046692
65.002491	-2.989800	3.876200	-11.588000	21.581746	0.000950	21.045243
65.994307	-2.991100	3.875400	-11.591000	21.575929	0.000949	21.055541
66.998359	-2.998100	3.876600	-11.622000	21.568190	0.000950	21.043532
67.997712	-2.981900	3.875700	-11.556000	21.597490	0.000949	21.042507
69.005763	-2.970400	3.876900	-11.514000	21.599963	0.000948	21.046877
69.994147	-2.987600	3.875200	-11.577000	21.605597	0.000948	21.049196
70.997966	-3.035900	3.872900	-11.757000	21.625365	0.000948	21.056648
71.999173	-2.995800	3.873000	-11.601000	21.626654	0.000949	21.040398
73.022710	-2.979900	3.874900	-11.545000	21.627575	0.000949	21.042268
74.028795	-2.995000	3.873800	-11.600000	21.624418	0.000948	21.062337
74.998192	-2.999900	3.874300	-11.622000	21.621443	0.000949	21.053673
76.022766	-2.983300	3.874300	-11.557000	21.661374	0.000947	21.031049
77.020445	-2.998100	3.871800	-11.608000	21.660928	0.000949	21.055254
78.030402	-3.023500	3.871500	-11.705000	21.650398	0.000947	21.071739
79.023211	-3.004800	3.872100	-11.634000	21.664822	0.000948	21.056305
80.034492	-3.004300	3.871800	-11.630000	21.681485	0.000950	21.076295
81.011059	-3.006200	3.872000	-11.639000	21.674510	0.000948	21.071686
81.998040	-3.007500	3.871400	-11.642000	21.691355	0.000949	21.032603
83.001874	-2.993100	3.870500	-11.583000	21.684590	0.000947	21.071344
84.001938	-3.011600	3.870800	-11.657000	21.697804	0.000948	21.068447
85.008862	-3.004700	3.869800	-11.626000	21.723073	0.000948	21.056280
86.005721	-3.003900	3.870700	-11.627000	21.711570	0.000948	21.056148
87.027892	-2.978900	3.871400	-11.532000	21.719572	0.000948	21.073635
88.021824	-3.008700	3.868500	-11.638000	21.725072	0.000950	21.050696
89.025310	-3.001600	3.870900	-11.617000	21.720810	0.000948	21.066816
90.022047	-2.975800	3.868500	-11.510000	21.716098	0.000948	21.056412
91.040612	-2.979500	3.869800	-11.529000	21.719942	0.000948	21.062628
92.026392	-2.964200	3.870100	-11.470000	21.714545	0.000946	21.054384
93.006962	-3.032800	3.869800	-11.735000	21.741893	0.000948	21.040505
94.022370	-3.004300	3.868300	-11.620000	21.731522	0.000949	21.053831
95.009664	-3.000400	3.867900	-11.604000	21.743761	0.000948	21.026732
96.030307	-2.993500	3.867600	-11.576000	21.734970	0.000949	21.046852
97.034600	-3.004600	3.866700	-11.617000	21.737314	0.000948	21.055834
98.025359	-3.008100	3.868300	-11.634000	21.743393	0.000947	21.024466
99.028253	-2.990400	3.866900	-11.563000	21.754027	0.000948	21.040796
100.036307	-3.005700	3.865900	-11.619000	21.792164	0.000946	21.034871
101.024503	-3.014400	3.866700	-11.655000	21.784847	0.000946	21.031815
102.026706	-2.997500	3.865200	-11.585000	21.785453	0.000948	21.032422
103.042679	-3.016200	3.864700	-11.656000	21.789032	0.000949	21.051172
104.026492	-2.994500	3.867800	-11.581000	21.795664	0.000948	21.025099
105.045815	-3.014300	3.864000	-11.646000	21.827827	0.000946	21.035477
106.021394	-3.009300	3.864800	-11.628000	21.798324	0.000947	21.007850
107.030769	-3.010400	3.866000	-11.637000	21.804693	0.000947	21.028445
108.031510	-2.996700	3.864700	-11.581000	21.817694	0.000949	21.020596
109.021178	-2.997600	3.865600	-11.586000	21.808614	0.000948	21.052753
110.026047	-2.986400	3.866600	-11.545000	21.842379	0.000949	21.025862
111.030814	-2.991900	3.863700	-11.559000	21.841380	0.000948	21.021070
112.026445	-3.006700	3.863800	-11.616000	21.849563	0.000948	21.023571
113.030555	-3.029000	3.862200	-11.696000	21.878383	0.000948	21.017330
114.033110	-3.005900	3.863200	-11.611000	21.866302	0.000947	21.009508
115.012016	-2.991100	3.864900	-11.559000	21.854856	0.000947	21.012275
116.028279	-3.025100	3.862200	-11.683000	21.887042	0.000946	21.010826
117.031455	-2.972900	3.864800	-11.489000	21.876487	0.000949	20.996470
118.009503	-3.037200	3.861600	-11.727000	21.858775	0.000947	21.018093
119.009704	-2.993400	3.862600	-11.562000	21.885252	0.000947	21.015198
120.017536	-3.007100	3.862300	-11.613000	21.897437	0.000947	21.008430
121.011115	-3.004800	3.862000	-11.604000	21.904146	0.000947	20.994759
122.014737	-3.013200	3.862300	-11.637000	21.915016	0.000948	21.028867
123.052639	-3.001700	3.862700	-11.594000	21.917886	0.000949	21.020835
124.040613	-3.012200	3.862600	-11.633000	21.909307	0.000947	20.989494
125.040045	-3.003900	3.861600	-11.600000	21.918834	0.000948	21.013250
126.036471	-3.010800	3.860400	-11.622000	21.935385	0.000948	21.000897
127.023563	-2.994400	3.861200	-11.561000	21.946886	0.000949	20.991548
128.015466	-3.018100	3.861200	-11.652000	21.961411	0.000949	21.002293
129.015547	-3.022500	3.860400	-11.667000	21.953413	0.000948	21.003295
130.011608	-3.007900	3.859800	-11.608000	21.955991	0.000948	21.005401
131.012630	-2.982400	3.860900	-11.514000	21.961832	0.000949	21.012196
132.017912	-2.998900	3.859500	-11.573000	21.962174	0.000949	21.020596
133.038260	-2.999700	3.859500	-11.576000	21.957938	0.000948	21.007350
134.038291	-2.981700	3.860100	-11.509000	21.960255	0.000949	20.992129
135.032669	-3.009700	3.860100	-11.617000	21.962544	0.000950	20.994893
136.031651	-2.983000	3.859800	-11.512000	21.967806	0.000949	21.007745
137.025420	-3.010200	3.859100	-11.615000	21.980045	0.000949	20.992972
138.035433	-3.022200	3.858100	-11.659000	21.992306	0.000949	21.000977
139.029352	-3.005100	3.858600	-11.595000	22.006016	0.000950	21.018965
140.036863	-2.980700	3.859800	-11.504000	22.016041	0.000951	20.996289
141.049725	-3.020100	3.857400	-11.649000	21.989544	0.000952	20.998687
142.041655	-2.991900	3.859200	-11.545000	21.992411	0.000951	20.989704
143.024846	-3.022500	3.856200	-11.654000	22.011437	0.000951	20.999740
144.019139	-2.981200	3.857900	-11.501000	22.028723	0.000950	21.015619
145.017698	-3.006200	3.855700	-11.590000	22.016567	0.000951	20.985912
146.016213	-2.997400	3.856800	-11.559000	22.004226	0.000952	20.996789
147.023542	-3.041900	3.856000	-11.728000	22.013989	0.000955	20.996131
148.017684	-2.977200	3.857800	-11.485000	22.039592	0.000951	20.977669
149.017746	-2.997200	3.857900	-11.563000	22.051091	0.000953	20.994867
150.016773	-3.014700	3.855700	-11.622000	22.053407	0.000953	21.009984
151.030129	-2.992700	3.856900	-11.542000	22.070063	0.000953	20.981619
152.039623	-3.005000	3.856100	-11.586000	22.072351	0.000952	20.992917
153.035156	-2.987800	3.855600	-11.519000	22.063404	0.000952	20.986332
154.021333	-3.007700	3.857300	-11.600000	22.060695	0.000952	20.992154
155.020283	-3.013700	3.856500	-11.621000	22.067774	0.000953	20.983121
156.020778	-3.016600	3.855700	-11.631000	22.092638	0.000955	20.985727
157.014487	-3.016400	3.855000	-11.628000	22.078614	0.000953	20.998712
158.018341	-2.995700	3.856800	-11.553000	22.094848	0.000955	21.008799
159.013538	-3.003600	3.853100	-11.572000	22.100663	0.000956	20.983330
160.019501	-2.997900	3.854500	-11.554000	22.111450	0.000955	20.970898
161.031126	-3.010700	3.854600	-11.604000	22.124265	0.000955	20.996525
162.023139	-2.991500	3.855500	-11.532000	22.114740	0.000957	20.981776
163.026224	-3.004400	3.853200	-11.575000	22.122580	0.000958	20.979669
164.023830	-3.018200	3.853300	-11.628000	22.128185	0.000955	20.978642
165.022555	-3.005000	3.853700	-11.579000	22.127290	0.000957	20.972531
166.021703	-3.002700	3.852500	-11.567000	22.156232	0.000957	20.972110
167.025156	-3.006600	3.854500	-11.588000	22.156889	0.000958	20.999790
168.030819	-3.009300	3.853100	-11.593000	22.146470	0.000956	20.973716
169.029253	-3.006000	3.852800	-11.581000	22.158601	0.000958	20.976378
170.022252	-2.979200	3.853000	-11.478000	22.157022	0.000960	20.968633
171.038279	-3.001800	3.852400	-11.563000	22.168914	0.000958	20.998079
172.045618	-3.018800	3.850300	-11.623000	22.166994	0.000958	20.982882
173.049760	-3.010100	3.853400	-11.598000	22.185568	0.000959	20.970661
174.048056	-2.957600	3.853800	-11.397000	22.214640	0.000959	20.996445
175.047219	-2.996400	3.850800	-11.537000	22.190753	0.000959	21.005244
176.052216	-3.007100	3.852000	-11.582000	22.216850	0.000960	20.972584
177.021409	-3.005400	3.850500	-11.571000	22.203169	0.000962	20.977851
178.047262	-3.007300	3.851600	-11.582000	22.211194	0.000959	20.971188
179.055232	-2.988600	3.850500	-11.507000	22.212431	0.000961	20.979063
180.045909	-2.994200	3.851600	-11.531000	22.241554	0.000959	20.994944
181.048927	-3.001800	3.851100	-11.560000	22.191962	0.000961	20.980380
182.049627	-2.989100	3.849500	-11.506000	22.217640	0.000961	20.962470
183.020333	-3.001000	3.851300	-11.556000	22.232847	0.000962	20.974375
184.043922	-2.985200	3.851500	-11.495000	22.232742	0.000963	21.001766
185.052007	-3.003300	3.848000	-11.554000	22.230638	0.000964	20.982119
186.046924	-3.014300	3.848700	-11.600000	22.242159	0.000963	20.981801
187.054316	-2.999600	3.850100	-11.546000	22.237635	0.000965	20.963050
188.022152	-2.995100	3.848300	-11.524000	22.234741	0.000965	20.975323
189.032821	-2.997500	3.848900	-11.535000	22.245553	0.000965	20.985199
190.030349	-2.996400	3.849200	-11.532000	22.251419	0.000964	20.964523
191.031374	-3.014600	3.847500	-11.598000	22.245789	0.000964	20.989228
192.034171	-2.981700	3.848400	-11.473000	22.259312	0.000966	20.984751
193.031956	-2.996000	3.849000	-11.530000	22.285567	0.000967	20.986857
194.034433	-3.029300	3.845800	-11.649000	22.280174	0.000966	20.967710
195.048824	-2.972200	3.849200	-11.440000	22.292039	0.000966	20.996655
196.049440	-3.030700	3.847400	-11.659000	22.292221	0.000966	20.968393
197.071772	-2.985300	3.849400	-11.489000	22.299457	0.000967	20.970422
198.056810	-2.996700	3.847400	-11.529000	22.307927	0.000967	20.958516
199.032994	-3.011800	3.845800	-11.581000	22.320186	0.000967	20.978849
200.037743	-3.005700	3.845600	-11.558000	22.333892	0.000968	20.959860
201.059616	-3.011600	3.846900	-11.584000	22.339943	0.000970	20.969236
202.054495	-3.001600	3.845200	-11.541000	22.366959	0.000969	20.977322
203.050818	-2.998900	3.846300	-11.533000	22.366879	0.000969	20.984353
204.054264	-3.002600	3.844700	-11.543000	22.360566	0.000969	20.952906
205.049700	-2.981200	3.846500	-11.466000	22.379480	0.000970	20.986065
206.066926	-2.997900	3.845500	-11.527000	22.405365	0.000971	20.971685
207.066933	-2.987600	3.846100	-11.488000	22.389081	0.000971	20.971974
208.050920	-2.995300	3.844500	-11.513000	22.397869	0.000971	20.962758
209.053006	-3.003700	3.845000	-11.548000	22.392265	0.000972	20.967104
210.048800	-2.990700	3.846300	-11.503000	22.412388	0.000972	20.985829
211.042179	-2.995800	3.845600	-11.519000	22.396603	0.000972	20.985669
212.036041	-3.004800	3.845600	-11.554000	22.416280	0.000973	20.989251
213.041515	-3.005400	3.844400	-11.553000	22.415386	0.000972	20.955171
214.066866	-2.993000	3.844100	-11.505000	22.426696	0.000975	20.961755
215.067010	-2.996400	3.844500	-11.518000	22.427696	0.000973	20.974133
216.058530	-3.005700	3.843600	-11.552000	22.421278	0.000972	20.967708
217.043384	-2.986900	3.844200	-11.481000	22.425777	0.000975	20.999708
218.060197	-2.989300	3.844000	-11.490000	22.437481	0.000975	20.987724
219.046002	-2.995400	3.843500	-11.511000	22.447793	0.000975	20.946848
220.054063	-2.998200	3.843100	-11.520000	22.434825	0.000978	20.963731
221.056391	-2.996300	3.843200	-11.515000	22.458499	0.000976	20.970842
222.068446	-3.006400	3.841400	-11.548000	22.456210	0.000977	20.969499
223.058934	-3.004700	3.844100	-11.549000	22.461998	0.000976	20.962968
224.046113	-2.992200	3.841200	-11.492000	22.474334	0.000980	20.984328
225.044518	-2.992500	3.843100	-11.499000	22.485539	0.000977	20.972317
226.042920	-2.993100	3.841000	-11.495000	22.488011	0.000977	20.956303
227.044628	-2.998500	3.841900	-11.518000	22.530622	0.000981	20.967209
228.044014	-3.003200	3.843000	-11.539000	22.526255	0.000979	20.950983
229.068726	-2.996400	3.841700	-11.509000	22.524073	0.000978	20.966339
230.050464	-3.007000	3.841500	-11.550000	22.535119	0.000979	20.984038
231.070006	-2.997300	3.840500	-11.510000	22.536882	0.000980	20.963995
232.045255	-3.009100	3.840300	-11.555000	22.575387	0.000981	20.971264
233.048461	-3.000600	3.840600	-11.523000	22.577413	0.000980	20.962863
234.046826	-2.986300	3.840900	-11.469000	22.594718	0.000981	20.971185
235.052005	-3.006600	3.839700	-11.544000	22.583777	0.000980	20.957384
236.048855	-3.001400	3.840700	-11.527000	22.590642	0.000983	20.951459
237.057170	-3.003900	3.839200	-11.532000	22.602581	0.000983	20.952985
238.063557	-2.986400	3.839400	-11.465000	22.604502	0.000984	20.967235
239.048758	-2.998200	3.838900	-11.509000	22.607447	0.000983	20.956910
240.057350	-2.999800	3.838400	-11.513000	22.606999	0.000985	20.975898
241.065320	-2.970400	3.839800	-11.403000	22.629907	0.000984	20.944320
242.046413	-3.008900	3.838500	-11.549000	22.629461	0.000985	20.954303
243.061642	-2.982400	3.838800	-11.448000	22.604212	0.000985	20.971685
244.079199	-2.988300	3.839700	-11.473000	22.585171	0.000987	20.968736
245.045163	-3.009100	3.838100	-11.548000	22.592507	0.000987	20.969919
246.048881	-2.981100	3.837500	-11.438000	22.599767	0.000987	20.965337
247.059138	-3.004900	3.836300	-11.527000	22.617677	0.000986	20.942502
248.046557	-3.019300	3.834500	-11.576000	22.621124	0.000989	20.964917
249.051250	-3.016200	3.837300	-11.572000	22.639612	0.000987	20.958306
250.059017	-2.995800	3.836900	-11.494000	22.631774	0.000989	20.966102
251.064798	-3.009300	3.836600	-11.545000	22.638955	0.000990	20.955752
252.050904	-2.997800	3.836200	-11.499000	22.651263	0.000989	20.953855
253.063173	-2.982600	3.836700	-11.442000	22.642189	0.000989	20.967998
254.052576	-3.001900	3.836100	-11.514000	22.649291	0.000992	20.943347
255.054249	-2.985100	3.836100	-11.449000	22.590431	0.000990	20.963573
256.055874	-2.986600	3.835800	-11.454000	22.612234	0.000992	20.966444
257.062509	-2.999500	3.836000	-11.505000	22.625043	0.000991	20.942767
258.052587	-3.006500	3.836200	-11.533000	22.636221	0.000993	20.941635
259.061428	-2.996900	3.836200	-11.496000	22.633065	0.000992	20.958860
260.060112	-2.993500	3.834600	-11.477000	22.644820	0.000994	20.960676
261.067615	-3.005100	3.835300	-11.525000	22.660048	0.000993	20.956016
262.055234	-2.981900	3.836600	-11.440000	22.652263	0.000993	20.968130
263.074927	-2.986800	3.834000	-11.451000	22.640007	0.000993	20.955857
264.068384	-3.005300	3.833900	-11.521000	22.653710	0.000995	20.954410
265.059543	-3.004000	3.832400	-11.511000	22.657339	0.000995	20.945717
266.065608	-2.990600	3.833400	-11.462000	22.672645	0.000997	20.939239
267.059046	-3.003600	3.831900	-11.508000	22.674985	0.000996	20.968130
268.058523	-2.999700	3.831700	-11.493000	22.686845	0.000996	20.948245
269.044454	-2.994700	3.834400	-11.482000	22.662993	0.000997	20.934312
270.045751	-3.036900	3.832600	-11.638000	22.682217	0.000999	20.948350
271.041608	-3.003600	3.831200	-11.505000	22.708437	0.000998	20.959913
272.054007	-3.009200	3.832900	-11.532000	22.705885	0.000996	20.943609
273.048167	-2.992100	3.832800	-11.467000	22.721190	0.000999	20.934759
274.048245	-3.011900	3.831600	-11.539000	22.706096	0.001000	20.944295
275.051730	-2.999800	3.831000	-11.491000	22.723111	0.000999	20.949483
276.049232	-3.034300	3.830800	-11.623000	22.718982	0.001000	20.948667
277.046706	-2.994100	3.830700	-11.469000	22.714117	0.001001	20.950432
278.047793	-3.003700	3.830400	-11.504000	22.717008	0.001002	20.930571
279.051454	-3.008400	3.829400	-11.519000	22.727579	0.001002	20.919824
280.047879	-3.011800	3.830900	-11.535000	22.733128	0.001003	20.929649
281.047678	-2.978100	3.829500	-11.403000	22.745750	0.001002	20.939446
282.047508	-3.004200	3.830500	-11.506000	22.750141	0.001002	20.932466
283.058037	-3.009500	3.829100	-11.523000	22.754901	0.001005	20.947189
284.054266	-3.009000	3.829800	-11.523000	22.772467	0.001004	20.944871
285.052534	-2.988700	3.830600	-11.446000	22.770207	0.001003	20.950667
286.051950	-3.004100	3.829200	-11.501000	22.747195	0.001005	20.939471
287.051073	-3.015200	3.828400	-11.542000	22.757609	0.001004	20.954642
288.058442	-2.992200	3.829100	-11.456000	22.751403	0.001007	20.933729
289.055938	-3.003900	3.827700	-11.495000	22.731522	0.001005	20.939419
290.058752	-3.004800	3.828300	-11.502000	22.747143	0.001007	20.928040
291.055085	-2.997500	3.828100	-11.473000	22.777435	0.001006	20.927091
292.054488	-3.006400	3.828800	-11.509000	22.780670	0.001006	20.919900
293.081628	-2.995900	3.827600	-11.466000	22.789978	0.001008	20.938231
294.058944	-2.992700	3.827300	-11.453000	22.810147	0.001010	20.929040
295.061086	-2.996900	3.828600	-11.473000	22.818377	0.001012	20.928275
296.056458	-3.018700	3.827100	-11.551000	22.825030	0.001008	20.910760
297.065429	-2.999100	3.827900	-11.479000	22.846432	0.001010	20.921294
298.062589	-2.978600	3.826700	-11.397000	22.875542	0.001010	20.935282
299.070291	-2.979800	3.826100	-11.399000	22.870176	0.001011	20.936544
300.071902	-3.011400	3.826600	-11.522000	22.895443	0.001011	20.922979
301.059784	-3.017900	3.825200	-11.542000	22.885976	0.001013	20.940993
302.058603	-2.986200	3.825700	-11.424000	22.889659	0.001013	20.920977
303.059490	-2.979600	3.827400	-11.403000	22.912192	0.001012	20.927904
304.061192	-3.017400	3.825900	-11.543000	22.922576	0.001013	20.915075
305.059899	-3.005200	3.824500	-11.493000	22.915741	0.001014	20.908702
306.065031	-2.993600	3.826200	-11.453000	22.912690	0.001013	20.913706
307.061291	-2.993800	3.823900	-11.447000	22.917476	0.001015	20.908544
308.064747	-2.990500	3.825100	-11.438000	22.946713	0.001014	20.932617
309.065620	-2.989100	3.824600	-11.431000	22.927703	0.001016	20.917841
310.063035	-3.002900	3.823900	-11.482000	22.907510	0.001016	20.937437
311.072370	-3.010400	3.824300	-11.512000	22.894257	0.001018	20.926057
312.073577	-3.015600	3.822700	-11.527000	22.902881	0.001015	20.919051
313.070917	-2.985900	3.825200	-11.420000	22.911532	0.001017	20.916339
314.063726	-3.002600	3.822900	-11.477000	22.893810	0.001016	20.941729
315.087151	-2.962000	3.824500	-11.326000	22.902670	0.001021	20.914572
316.082236	-3.006500	3.821900	-11.489000	22.886657	0.001018	20.925081
317.084528	-3.008900	3.823500	-11.504000	22.884475	0.001019	20.900139
318.101088	-3.017900	3.821300	-11.532000	22.881897	0.001022	20.910831
319.086378	-3.003200	3.821800	-11.476000	22.879741	0.001021	20.926688
320.089431	-3.003700	3.821100	-11.477000	22.895412	0.001022	20.918206
321.088960	-2.986400	3.823000	-11.416000	22.937585	0.001020	20.913517
322.069502	-2.989400	3.821900	-11.422000	22.912607	0.001022	20.938276
323.071467	-2.986800	3.822700	-11.416000	22.949891	0.001022	20.921578
324.073340	-3.004100	3.821300	-11.479000	22.956436	0.001023	20.928609
325.067445	-2.983100	3.822700	-11.402000	22.989328	0.001021	20.928847
326.069294	-3.012100	3.820100	-11.506000	22.988013	0.001022	20.898609
327.071376	-3.008100	3.820200	-11.491000	22.977705	0.001024	20.918151
328.096121	-2.992700	3.819600	-11.430000	22.985752	0.001025	20.905352
329.076274	-3.014900	3.818200	-11.511000	22.961747	0.001026	20.905957
330.073720	-2.991800	3.820400	-11.428000	22.987302	0.001026	20.914491
331.075398	-2.998300	3.819200	-11.449000	23.014672	0.001026	20.918205
332.076012	-2.986500	3.820200	-11.408000	23.013856	0.001026	20.915966
333.082332	-2.999800	3.820600	-11.461000	23.017274	0.001027	20.907063
334.081584	-2.999600	3.818200	-11.452000	23.034573	0.001028	20.930558
335.086670	-3.013900	3.818500	-11.507000	23.038438	0.001028	20.902191
336.075848	-2.987000	3.819000	-11.407000	23.023216	0.001027	20.911120
337.080315	-2.993300	3.819100	-11.431000	23.049058	0.001029	20.926106
338.079283	-2.994700	3.817700	-11.432000	23.029498	0.001028	20.887070
339.084311	-2.996500	3.816200	-11.434000	23.020007	0.001031	20.887518
340.084506	-2.993400	3.816700	-11.423000	23.031233	0.001031	20.885490
341.087396	-2.996800	3.817800	-11.440000	23.037911	0.001032	20.892180
342.081193	-3.014100	3.817600	-11.505000	23.036753	0.001029	20.873952
343.083165	-2.977000	3.818300	-11.366000	23.058417	0.001032	20.907510
344.083502	-3.019500	3.814700	-11.517000	23.053998	0.001030	20.890755
345.081288	-2.987700	3.816900	-11.403000	23.050529	0.001033	20.893444
346.079135	-3.006700	3.816000	-11.471000	23.057627	0.001030	20.891073
347.086109	-3.001700	3.816300	-11.454000	23.052237	0.001033	20.908430
348.085128	-2.986800	3.814900	-11.394000	23.045691	0.001033	20.884329
349.089634	-3.030500	3.814800	-11.559000	23.056338	0.001031	20.900686
350.080766	-3.021000	3.814900	-11.524000	23.064276	0.001033	20.911484
351.080581	-2.987600	3.814100	-11.393000	23.087070	0.001035	20.893074
352.098570	-2.972400	3.815800	-11.342000	23.091511	0.001034	20.914591
353.126277	-2.989500	3.815500	-11.405000	23.093666	0.001035	20.891148
354.122492	-3.008300	3.814400	-11.474000	23.113329	0.001035	20.892833
355.080769	-2.983600	3.814400	-11.379000	23.107072	0.001037	20.901735
356.084688	-3.004400	3.812800	-11.454000	23.077234	0.001036	20.905976
357.116712	-3.016400	3.812600	-11.499000	23.084437	0.001038	20.891858
358.123120	-3.007300	3.812100	-11.462000	23.098291	0.001038	20.899101
359.121951	-2.981700	3.813400	-11.369000	23.072578	0.001037	20.888036
360.133852	-3.005500	3.811600	-11.454000	23.072866	0.001037	20.882636
361.126332	-2.983300	3.811100	-11.369000	23.078255	0.001040	20.888983
362.117846	-2.994500	3.812300	-11.415000	23.069476	0.001038	20.893937
363.122315	-3.009700	3.812500	-11.473000	23.083961	0.001039	20.888536
364.124297	-2.980400	3.811400	-11.358000	23.057039	0.001041	20.899492
365.129032	-3.005400	3.810200	-11.450000	23.056722	0.001041	20.896330
366.109119	-2.988400	3.811100	-11.388000	23.064767	0.001041	20.904864
367.103078	-3.002700	3.811300	-11.442000	23.077991	0.001041	20.891088
368.114909	-3.014200	3.810600	-11.485000	23.111824	0.001043	20.903652
369.121896	-2.993700	3.811200	-11.408000	23.122812	0.001044	20.878155
370.128591	-3.021200	3.809400	-11.508000	23.094131	0.001044	20.897303
371.124909	-3.004900	3.808000	-11.441000	23.136875	0.001045	20.879919
372.123424	-3.012100	3.809400	-11.472000	23.143867	0.001043	20.876968
373.124062	-2.980800	3.810000	-11.356000	23.139109	0.001044	20.888794
374.124164	-3.002900	3.809500	-11.438000	23.176068	0.001045	20.872727
375.141946	-2.996200	3.807600	-11.406000	23.179775	0.001045	20.885923
376.113576	-3.029700	3.808600	-11.538000	23.183585	0.001044	20.857975
377.114210	-2.976500	3.809400	-11.337000	23.184479	0.001045	20.903912
378.109888	-2.966300	3.810700	-11.302000	23.189527	0.001045	20.874359
379.144866	-3.004500	3.806600	-11.435000	23.188264	0.001045	20.881155
380.114457	-3.006900	3.807800	-11.447000	23.201485	0.001044	20.878282
381.111421	-2.985000	3.808500	-11.367000	23.218283	0.001047	20.877098
382.125576	-3.007000	3.807000	-11.447000	23.215627	0.001046	20.866851
383.129000	-2.999800	3.806900	-11.419000	23.229586	0.001046	20.862347
384.118039	-2.981400	3.806700	-11.348000	23.207137	0.001048	20.873041
385.133013	-3.005700	3.806900	-11.441000	23.203247	0.001049	20.860608
386.122956	-2.973800	3.807300	-11.320000	23.214918	0.001049	20.869459
387.130426	-3.005500	3.805300	-11.436000	23.179168	0.001049	20.867299
388.133482	-2.995700	3.805700	-11.400000	23.157981	0.001048	20.875464
389.111805	-3.000900	3.805200	-11.417000	23.161373	0.001049	20.880759
390.134934	-3.018600	3.803700	-11.480000	23.169389	0.001050	20.863189
391.131954	-2.992300	3.804800	-11.384000	23.172123	0.001048	20.886790
392.150948	-3.003500	3.803500	-11.423000	23.199382	0.001049	20.863847
393.138286	-2.995300	3.803000	-11.390000	23.190363	0.001051	20.867138
394.133903	-3.000200	3.803600	-11.410000	23.204060	0.001051	20.860949
395.118279	-2.989300	3.805800	-11.375000	23.209186	0.001051	20.870353
396.127891	-2.997700	3.802600	-11.399000	23.200353	0.001051	20.863398
397.123636	-2.993400	3.803200	-11.384000	23.208396	0.001053	20.864820
398.124591	-2.977900	3.803100	-11.324000	23.221776	0.001052	20.854995
399.123496	-3.002500	3.803500	-11.417000	23.223220	0.001053	20.855021
400.126200	-3.027000	3.801700	-11.506000	23.219410	0.001052	20.857840
401.128834	-2.997000	3.801900	-11.393000	23.221223	0.001054	20.852545
402.114210	-2.984500	3.802600	-11.348000	23.210261	0.001054	20.861473
403.124170	-2.998400	3.802500	-11.401000	23.221091	0.001055	20.864265
404.096563	-3.021200	3.801100	-11.483000	23.237521	0.001055	20.866980
405.101269	-2.994500	3.801400	-11.383000	23.228977	0.001057	20.883073
406.100956	-3.005000	3.801400	-11.422000	23.226454	0.001056	20.863950
407.102170	-2.988600	3.801900	-11.360000	23.242881	0.001056	20.870455
408.107200	-3.003100	3.799400	-11.409000	23.282257	0.001056	20.857286
409.106269	-2.994200	3.801100	-11.381000	23.265198	0.001057	20.865794
410.102739	-2.991700	3.800200	-11.368000	23.294505	0.001055	20.859604
411.102378	-3.001000	3.799100	-11.400000	23.311879	0.001056	20.847620
412.099926	-3.014900	3.799800	-11.454000	23.320422	0.001057	20.870404
413.103290	-3.007300	3.799000	-11.423000	23.319660	0.001059	20.863951
414.105675	-2.992000	3.797800	-11.362000	23.302970	0.001058	20.875199
415.101968	-3.016400	3.797500	-11.454000	23.293770	0.001058	20.866453
416.127400	-2.986100	3.799500	-11.344000	23.297739	0.001060	20.849569
417.111192	-3.009800	3.796000	-11.424000	23.284676	0.001058	20.863029
418.102669	-2.991200	3.797100	-11.356000	23.293272	0.001059	20.853153
419.106122	-3.014300	3.797000	-11.445000	23.281497	0.001060	20.860791
420.103210	-3.023400	3.797700	-11.480000	23.296636	0.001062	20.864110
421.107703	-2.981900	3.799800	-11.329000	23.312170	0.001061	20.882996
422.103215	-3.007600	3.796200	-11.415000	23.326889	0.001060	20.872618
423.103051	-2.996500	3.796300	-11.375000	23.351542	0.001062	20.865085
424.107129	-2.996200	3.796800	-11.375000	23.352830	0.001061	20.864005
425.110338	-3.010000	3.795600	-11.424000	23.359743	0.001062	20.865243
426.156870	-3.003800	3.796200	-11.402000	23.382924	0.001061	20.853864
427.146214	-3.019700	3.793900	-11.456000	23.356773	0.001064	20.862741
428.158735	-3.016800	3.793000	-11.442000	23.358823	0.001062	20.869537
429.152766	-3.006400	3.794800	-11.408000	23.379823	0.001063	20.870670
430.145256	-2.987200	3.795300	-11.335000	23.382845	0.001063	20.866587
431.149536	-3.005300	3.794500	-11.401000	23.401216	0.001064	20.887370
432.148908	-2.989300	3.794300	-11.341000	23.410074	0.001063	20.870170
433.149140	-3.005000	3.792700	-11.396000	23.411834	0.001066	20.854391
434.147106	-3.001200	3.792000	-11.379000	23.409705	0.001065	20.883550
435.152638	-2.994700	3.793400	-11.359000	23.445894	0.001066	20.863874
436.154083	-2.992300	3.793300	-11.350000	23.442898	0.001065	20.876517
437.141487	-3.010000	3.792400	-11.414000	23.432464	0.001064	20.870326
438.149198	-2.979200	3.793300	-11.299000	23.476247	0.001067	20.877702
439.148733	-3.012900	3.790400	-11.419000	23.446787	0.001067	20.871881
440.145627	-2.988800	3.792300	-11.333000	23.433804	0.001069	20.857446
441.158999	-2.983100	3.792700	-11.312000	23.452649	0.001067	20.875385
442.147881	-2.984300	3.791900	-11.315000	23.463635	0.001068	20.848466
443.160284	-3.006600	3.791100	-11.398000	23.475013	0.001066	20.875042
444.142523	-2.984600	3.792100	-11.317000	23.476615	0.001067	20.870959
445.135828	-2.998300	3.789400	-11.360000	23.477850	0.001066	20.887368
446.144884	-3.001100	3.790500	-11.374000	23.477587	0.001067	20.890424
447.137492	-3.015000	3.789300	-11.423000	23.470072	0.001068	20.868669
448.132280	-3.023400	3.788900	-11.453000	23.459455	0.001068	20.879836
449.139695	-2.998000	3.791300	-11.366000	23.463502	0.001068	20.870144
450.133207	-2.987200	3.789700	-11.319000	23.464503	0.001071	20.869724
451.134951	-3.020200	3.788400	-11.441000	23.487838	0.001069	20.890268
452.148911	-3.018900	3.788000	-11.435000	23.481664	0.001070	20.881235
453.129951	-2.996000	3.789000	-11.351000	23.501058	0.001070	20.877916
454.144115	-2.990700	3.787400	-11.326000	23.538375	0.001070	20.877390
455.137256	-3.005300	3.788600	-11.383000	23.523738	0.001071	20.876942
456.138062	-2.977600	3.788200	-11.279000	23.536220	0.001070	20.861006
457.139071	-3.013700	3.786400	-11.410000	23.548203	0.001072	20.882026
458.139020	-3.020600	3.786700	-11.436000	23.523819	0.001071	20.884136
459.137399	-3.003700	3.787800	-11.376000	23.542502	0.001072	20.867304
460.156629	-2.983400	3.786400	-11.294000	23.547890	0.001072	20.890721
461.167957	-3.007400	3.786700	-11.387000	23.547600	0.001072	20.893749
462.160295	-3.000000	3.787000	-11.360000	23.539297	0.001072	20.875944
463.160876	-3.007000	3.784200	-11.377000	23.516278	0.001072	20.879896
464.160297	-3.002300	3.784100	-11.360000	23.525948	0.001072	20.878210
465.158734	-3.016400	3.783900	-11.413000	23.510102	0.001073	20.873706
466.168835	-2.993700	3.784700	-11.328000	23.532046	0.001072	20.905657
467.141899	-3.003200	3.784000	-11.363000	23.525897	0.001073	20.881477
468.152634	-2.997400	3.784200	-11.342000	23.532756	0.001074	20.895464
469.157971	-2.993400	3.784400	-11.328000	23.543188	0.001073	20.869414
470.179924	-2.986300	3.784300	-11.300000	23.541613	0.001073	20.872576
471.158911	-3.011100	3.782000	-11.387000	23.561820	0.001074	20.911321
472.163012	-3.023600	3.783100	-11.438000	23.578219	0.001076	20.887933
473.163806	-3.027700	3.781500	-11.448000	23.608253	0.001074	20.891489
474.153792	-2.989400	3.783000	-11.308000	23.595089	0.001075	20.881612
475.165480	-3.020800	3.780900	-11.419000	23.594302	0.001076	20.871815
476.160053	-2.978800	3.781800	-11.263000	23.626989	0.001077	20.880400
477.175238	-3.009900	3.782700	-11.384000	23.627725	0.001076	20.887302
478.159835	-3.012000	3.781100	-11.387000	23.614824	0.001077	20.880058
479.164645	-2.993500	3.781700	-11.319000	23.627438	0.001075	20.895074
480.160142	-2.983200	3.781300	-11.279000	23.687345	0.001077	20.902501
481.162622	-3.016500	3.780400	-11.402000	23.677308	0.001077	20.905714
482.163304	-2.984100	3.780000	-11.279000	23.675862	0.001077	20.913273
483.154207	-2.984600	3.780800	-11.283000	23.677938	0.001077	20.899709
484.142748	-2.994500	3.779800	-11.318000	23.687137	0.001076	20.897077
485.148539	-2.998400	3.780300	-11.334000	23.680488	0.001077	20.905109
486.148856	-2.992200	3.777600	-11.300000	23.694336	0.001078	20.896708
487.148439	-2.997700	3.778300	-11.325000	23.710730	0.001079	20.889437
488.147880	-2.999100	3.779200	-11.333000	23.688739	0.001077	20.907217
489.147706	-3.000200	3.778100	-11.333000	23.678177	0.001077	20.903740
490.147988	-2.992100	3.778300	-11.304000	23.666774	0.001079	20.928815
491.130682	-3.004500	3.777400	-11.347000	23.659759	0.001081	20.899027
492.129064	-3.002500	3.775700	-11.335000	23.690737	0.001077	20.894522
493.126582	-2.998100	3.776500	-11.320000	23.692313	0.001081	20.927393
494.133667	-2.989500	3.777400	-11.292000	23.687793	0.001080	20.896312
495.137808	-2.992200	3.776100	-11.298000	23.696780	0.001080	20.908640
496.127962	-2.985900	3.776500	-11.275000	23.678466	0.001081	20.912565
497.129526	-2.991500	3.776900	-11.297000	23.637476	0.001079	20.906559
498.129503	-2.996000	3.776800	-11.314000	23.647408	0.001081	20.926945
499.129999	-3.006900	3.776000	-11.353000	23.637477	0.001080	20.914146
500.140632	-2.993100	3.776000	-11.301000	23.649642	0.001080	20.908798
501.128832	-3.010500	3.773200	-11.357000	23.644413	0.001081	20.919676
502.128166	-3.004000	3.773500	-11.334000	23.631565	0.001080	20.924812
503.134213	-2.999400	3.773600	-11.316000	23.617849	0.001079	20.913908
504.134258	-3.011500	3.774400	-11.365000	23.634139	0.001080	20.904162
505.133946	-2.993300	3.772700	-11.292000	23.636871	0.001080	20.915434
506.134744	-3.016900	3.772600	-11.381000	23.673500	0.001081	20.926550
507.134920	-3.012500	3.772700	-11.364000	23.681093	0.001081	20.897656
508.136261	-3.030400	3.772300	-11.430000	23.705241	0.001080	20.922811
509.135470	-3.002700	3.774000	-11.332000	23.713463	0.001082	20.918727
510.143526	-3.008000	3.771300	-11.343000	23.716089	0.001081	20.927997
511.135193	-3.003100	3.771000	-11.324000	23.722054	0.001081	20.915013
512.136312	-3.008500	3.771400	-11.345000	23.724838	0.001083	20.922545
513.134605	-2.984700	3.771100	-11.254000	23.736137	0.001082	20.945250
514.132952	-3.012700	3.771100	-11.359000	23.730120	0.001081	20.900816
515.135821	-2.974300	3.771800	-11.217000	23.731959	0.001083	20.934899
516.140344	-3.019500	3.769400	-11.380000	23.716116	0.001081	20.916645
517.142591	-3.006500	3.769300	-11.332000	23.692575	0.001081	20.939508
518.156487	-3.011900	3.769700	-11.353000	23.707446	0.001082	20.939718
519.167862	-2.999800	3.770100	-11.308000	23.730173	0.001085	20.943537
520.151343	-2.992800	3.768300	-11.277000	23.756368	0.001082	20.921440
521.184321	-2.990900	3.768500	-11.271000	23.762201	0.001083	20.926340
522.159207	-2.992600	3.769000	-11.278000	23.800583	0.001082	20.948225
523.154483	-3.011500	3.768900	-11.350000	23.757498	0.001082	20.936322
524.153246	-3.000400	3.767200	-11.301000	23.752349	0.001084	20.926419
525.176509	-2.986200	3.768400	-11.252000	23.762491	0.001083	20.926630
526.181954	-2.997200	3.767900	-11.292000	23.752087	0.001082	20.927578
527.172292	-2.999200	3.766900	-11.296000	23.737924	0.001084	20.946567
528.179970	-2.988400	3.767500	-11.257000	23.764225	0.001084	20.927421
529.170547	-2.992100	3.765800	-11.268000	23.760653	0.001084	20.935218
530.173233	-3.017600	3.765800	-11.361000	23.775444	0.001083	20.928238
531.179799	-2.990500	3.765900	-11.261000	23.804685	0.001084	20.937641
532.159784	-3.006000	3.763600	-11.312000	23.828618	0.001084	20.939826
533.158679	-2.993400	3.766400	-11.273000	23.846851	0.001085	20.936771
534.167130	-2.967000	3.764500	-11.168000	23.861772	0.001086	20.946990
535.152525	-2.995400	3.763100	-11.271000	23.862744	0.001085	20.930897
536.173973	-3.010500	3.764800	-11.333000	23.873621	0.001084	20.940854
537.165933	-2.978500	3.763900	-11.210000	23.882053	0.001085	20.958316
538.156679	-2.981900	3.764800	-11.225000	23.889672	0.001085	20.957421
539.166010	-2.993300	3.764300	-11.267000	23.865633	0.001085	20.930475
540.163140	-3.010400	3.761800	-11.322000	23.872832	0.001084	20.940064
541.182959	-3.000300	3.762800	-11.288000	23.868971	0.001084	20.948044
542.166075	-2.995300	3.763600	-11.272000	23.844540	0.001087	20.950100
543.163880	-2.997100	3.761600	-11.273000	23.812225	0.001086	20.931451
544.161045	-2.996800	3.761900	-11.272000	23.826124	0.001084	20.940644
545.183880	-3.011700	3.760800	-11.325000	23.795805	0.001085	20.958132
546.189756	-2.999400	3.760100	-11.277000	23.778913	0.001085	20.960161
547.176838	-2.998600	3.760000	-11.273000	23.797383	0.001084	20.962559
548.198048	-2.993800	3.761500	-11.258000	23.784614	0.001086	20.958765
549.175348	-3.026700	3.759500	-11.378000	23.825914	0.001086	20.952286
550.191322	-3.006700	3.759300	-11.302000	23.832981	0.001087	20.955579
551.208707	-2.995500	3.758200	-11.257000	23.852395	0.001085	20.982628
552.182124	-3.023700	3.759200	-11.366000	23.859358	0.001085	20.954525
553.160699	-3.013000	3.759900	-11.328000	23.888256	0.001087	20.961690
554.172690	-2.980100	3.759800	-11.202000	23.860856	0.001089	20.966932
555.166686	-3.003400	3.758700	-11.287000	23.871468	0.001085	20.970459
556.172091	-2.996400	3.758300	-11.260000	23.860436	0.001085	20.966984
557.176594	-3.015300	3.758800	-11.333000	23.844120	0.001087	20.946834
558.173634	-2.995500	3.758700	-11.258000	23.816352	0.001086	20.955500
559.171809	-3.012900	3.756000	-11.315000	23.809443	0.001086	20.960426
560.166151	-3.014100	3.755100	-11.316000	23.814592	0.001088	20.971277
561.166474	-3.004700	3.756100	-11.285000	23.790579	0.001087	20.966167
562.169284	-3.007100	3.755400	-11.292000	23.787033	0.001086	20.982050
563.176789	-3.013200	3.756700	-11.319000	23.832745	0.001088	20.979520
564.172286	-3.007600	3.756300	-11.297000	23.842072	0.001085	20.965641
565.182360	-2.981600	3.755000	-11.194000	23.848404	0.001085	20.978152
566.177575	-2.990500	3.756100	-11.231000	23.865821	0.001086	20.985183
567.167997	-3.016300	3.754200	-11.323000	23.856469	0.001087	20.980075
568.188674	-3.015900	3.753100	-11.318000	23.860961	0.001086	20.998800
569.170110	-3.004800	3.755100	-11.282000	23.872573	0.001088	20.966827
570.167318	-3.043300	3.752100	-11.418000	23.867214	0.001086	20.968091
571.158963	-2.987100	3.753600	-11.212000	23.906566	0.001087	20.980997
572.160252	-2.991100	3.753800	-11.227000	23.929579	0.001087	20.974202
573.183381	-2.999900	3.753500	-11.258000	23.944446	0.001088	20.967301
574.172498	-2.989100	3.754000	-11.220000	23.994408	0.001087	20.979469
575.172505	-2.995900	3.752200	-11.241000	23.999556	0.001089	20.986053
576.176870	-3.011200	3.751500	-11.295000	24.006728	0.001087	20.993244
577.174300	-2.965000	3.753800	-11.129000	24.002472	0.001088	20.984236
578.177873	-2.989100	3.752100	-11.214000	24.036935	0.001086	20.971384
579.170556	-2.982600	3.752100	-11.191000	24.024090	0.001089	20.993586
580.181758	-3.018300	3.751300	-11.322000	24.037172	0.001086	20.993903
581.175292	-3.004200	3.750800	-11.267000	24.006493	0.001087	20.998223
582.182573	-2.997800	3.750600	-11.243000	24.025036	0.001087	20.995957
583.172872	-2.989100	3.750000	-11.208000	24.028057	0.001087	20.992823
584.191222	-3.005800	3.750000	-11.271000	24.022672	0.001089	20.988846
585.184440	-2.991300	3.749200	-11.214000	23.995303	0.001087	20.998855
586.211170	-2.987200	3.747900	-11.193000	24.007071	0.001087	20.995958
587.216013	-3.011800	3.747400	-11.286000	24.013742	0.001088	20.994588
588.176493	-2.994200	3.748700	-11.223000	24.037488	0.001088	20.991850
589.191340	-2.985800	3.748900	-11.193000	24.056322	0.001087	20.987505
590.170608	-3.012300	3.746600	-11.284000	24.045974	0.001088	20.985188
591.178584	-2.994300	3.746700	-11.217000	24.084924	0.001088	20.992008
592.154687	-2.990200	3.746300	-11.201000	24.060131	0.001088	21.006495
593.164283	-3.004800	3.747700	-11.260000	24.040905	0.001088	20.999543
594.162966	-2.987700	3.747300	-11.194000	24.017187	0.001088	21.015583
595.159182	-2.987900	3.746000	-11.192000	24.041404	0.001089	21.018532
596.158614	-3.015500	3.746800	-11.297000	24.015585	0.001086	20.995014
597.156833	-3.005100	3.744800	-11.253000	24.011855	0.001087	20.997437
598.194137	-3.011300	3.744600	-11.276000	24.031739	0.001087	21.015003
599.207368	-2.998400	3.745000	-11.228000	23.990973	0.001087	21.010632
600.214658	-2.979800	3.746400	-11.162000	24.010463	0.001089	20.993196
601.195951	-3.027000	3.743900	-11.332000	24.007364	0.001087	21.014267
602.203084	-3.012400	3.743200	-11.274000	24.026224	0.001089	20.988614
603.200344	-2.981000	3.744100	-11.160000	24.010018	0.001089	20.994646
604.212473	-3.012300	3.743100	-11.273000	24.042063	0.001088	21.033888
605.214139	-3.001000	3.743900	-11.234000	24.049155	0.001086	21.011133
606.194706	-2.993100	3.743900	-11.204000	24.048340	0.001086	21.010791
607.206468	-2.995900	3.742900	-11.213000	24.074029	0.001088	21.019957
608.206307	-2.976600	3.742900	-11.139000	24.103314	0.001087	21.009974
609.201587	-3.013500	3.741300	-11.274000	24.079860	0.001087	21.017744
610.194055	-2.997100	3.742100	-11.215000	24.087818	0.001086	21.015295
611.210031	-2.983500	3.742200	-11.164000	24.091810	0.001087	21.016927
612.209171	-2.981400	3.742000	-11.156000	24.095435	0.001087	21.017244
613.198696	-2.985900	3.741300	-11.169000	24.091705	0.001088	21.031044
614.220105	-3.008600	3.740200	-11.252000	24.081015	0.001086	21.028384
615.202463	-3.014500	3.741100	-11.276000	24.068196	0.001088	21.044922
616.207544	-2.990200	3.738700	-11.179000	24.082407	0.001090	21.014609
617.164025	-2.998200	3.740300	-11.213000	24.085743	0.001088	21.040235
618.169019	-3.008300	3.739300	-11.248000	24.103445	0.001085	21.033334
619.164345	-3.012200	3.739000	-11.262000	24.096353	0.001087	21.035230
620.166602	-3.018200	3.738100	-11.282000	24.107673	0.001086	21.034256
621.166134	-2.998000	3.738200	-11.206000	24.078571	0.001088	21.047740
622.171174	-3.022200	3.737300	-11.293000	24.083772	0.001086	21.045369
623.167281	-3.010500	3.737700	-11.251000	24.082222	0.001088	21.049979
624.170814	-2.972000	3.739100	-11.111000	24.082353	0.001087	21.045369
625.168658	-3.001400	3.738000	-11.217000	24.122563	0.001087	21.029277
626.168868	-3.007800	3.736800	-11.237000	24.151061	0.001086	21.041735
627.168051	-3.014000	3.735300	-11.257000	24.145020	0.001088	21.028092
628.182781	-3.002300	3.734900	-11.212000	24.186253	0.001088	21.031990
629.197404	-2.993400	3.736900	-11.185000	24.169155	0.001087	21.056560
630.194143	-3.009700	3.735000	-11.240000	24.158519	0.001086	21.036888
631.190547	-3.002100	3.735900	-11.214000	24.167185	0.001086	21.047949
632.186855	-3.004300	3.736600	-11.224000	24.153083	0.001085	21.043762
633.186431	-3.000500	3.735200	-11.205000	24.139346	0.001086	21.052742
634.191905	-2.986400	3.736100	-11.156000	24.136484	0.001085	21.021429
635.193439	-2.983800	3.734900	-11.142000	24.137769	0.001084	21.047842
636.184664	-3.025300	3.732900	-11.290000	24.128525	0.001084	21.050898
637.203333	-3.028400	3.731500	-11.299000	24.122012	0.001087	21.061907
638.204251	-2.999900	3.732700	-11.196000	24.132385	0.001084	21.073731
639.213259	-2.999600	3.734500	-11.201000	24.135511	0.001086	21.042260
640.210781	-2.994100	3.733700	-11.177000	24.136746	0.001087	21.042076
641.203087	-2.995300	3.734000	-11.184000	24.124558	0.001085	21.062090
642.203449	-3.006200	3.733000	-11.222000	24.147039	0.001085	21.051924
643.219019	-2.984800	3.733900	-11.145000	24.187747	0.001086	21.058613
644.195364	-3.014100	3.730700	-11.243000	24.163562	0.001085	21.027249
645.193321	-3.006600	3.730800	-11.215000	24.194761	0.001085	21.036255
646.190821	-3.014600	3.731700	-11.248000	24.179791	0.001084	21.044945
647.187029	-2.998600	3.730400	-11.185000	24.215007	0.001084	21.066513
648.184999	-2.997800	3.729700	-11.180000	24.204633	0.001085	21.034778
649.186445	-3.023900	3.729600	-11.277000	24.198200	0.001083	21.034963
650.192111	-3.003800	3.729800	-11.202000	24.210857	0.001085	21.020161
651.194196	-2.995700	3.729500	-11.171000	24.189351	0.001085	21.014238
652.191130	-3.001500	3.729900	-11.195000	24.157755	0.001087	21.019056
653.186060	-3.015100	3.728900	-11.240000	24.170310	0.001083	21.016476
654.191231	-3.001000	3.729100	-11.190000	24.186197	0.001084	21.019134
655.185200	-3.015400	3.727000	-11.238000	24.204765	0.001084	21.009785
656.189761	-2.993900	3.728800	-11.163000	24.224199	0.001083	21.023111
657.185087	-2.986200	3.728000	-11.131000	24.222282	0.001083	20.997959
658.196669	-2.991000	3.728800	-11.152000	24.210018	0.001084	20.992771
659.192806	-3.008900	3.728600	-11.218000	24.169783	0.001082	20.995563
660.192784	-2.991300	3.726800	-11.148000	24.160932	0.001081	20.991427
661.186749	-2.989400	3.727500	-11.142000	24.132935	0.001082	21.026877
662.190374	-2.999400	3.726900	-11.177000	24.147065	0.001081	21.012129
663.211407	-3.021100	3.724900	-11.251000	24.136323	0.001082	20.999935
664.213879	-2.977900	3.726600	-11.097000	24.137190	0.001083	20.990848
665.213072	-2.979600	3.725700	-11.101000	24.146565	0.001082	21.004042
666.212516	-2.978000	3.726700	-11.097000	24.134589	0.001081	21.007677
667.228341	-2.997200	3.725900	-11.165000	24.139369	0.001083	20.994930
668.212294	-3.011400	3.726000	-11.220000	24.140815	0.001082	20.998750
669.213754	-3.004200	3.725800	-11.192000	24.146408	0.001083	20.989188
670.213962	-2.993700	3.724400	-11.149000	24.158674	0.001083	21.006704
671.217456	-3.011800	3.723100	-11.212000	24.155602	0.001080	20.988927
672.211235	-2.982700	3.723500	-11.105000	24.191687	0.001082	21.008522
673.222505	-3.009700	3.723300	-11.204000	24.210202	0.001082	21.028037
674.211030	-2.985700	3.723200	-11.116000	24.219524	0.001081	21.004201
675.216492	-3.002100	3.722400	-11.174000	24.222913	0.001080	21.003333
676.216228	-3.018300	3.722400	-11.233000	24.248781	0.001081	20.991824
677.211600	-3.014800	3.721700	-11.219000	24.252537	0.001081	20.979472
678.217827	-3.005200	3.721800	-11.183000	24.276330	0.001080	20.978208
679.212114	-3.007100	3.722500	-11.192000	24.278982	0.001080	20.975179
680.204746	-2.975800	3.722100	-11.076000	24.253745	0.001080	20.988743
681.222307	-3.002600	3.721300	-11.173000	24.267006	0.001080	20.998724
682.216738	-3.005700	3.720800	-11.183000	24.273152	0.001081	20.998725
683.227920	-3.022300	3.718900	-11.239000	24.278273	0.001081	20.987743
684.221287	-3.016700	3.719800	-11.220000	24.281530	0.001078	20.979157
685.226740	-2.984800	3.719800	-11.101000	24.274781	0.001079	20.986136
686.216401	-3.008900	3.720500	-11.194000	24.258000	0.001079	20.989217
687.223493	-2.988600	3.719800	-11.115000	24.247364	0.001078	20.975707
688.223509	-3.010000	3.719600	-11.196000	24.223335	0.001078	20.982423
689.213720	-3.007700	3.718100	-11.182000	24.221890	0.001076	20.971018
690.201393	-2.999300	3.718600	-11.152000	24.217192	0.001078	20.989536
691.178329	-3.024100	3.717000	-11.240000	24.241167	0.001078	20.983713
692.180732	-3.012700	3.717400	-11.198000	24.255665	0.001080	20.993039
693.179018	-2.999200	3.717100	-11.147000	24.279036	0.001078	20.969071
694.187756	-3.018600	3.715600	-11.214000	24.318953	0.001078	20.940363
695.178926	-2.992400	3.717300	-11.123000	24.346552	0.001079	20.967571
696.185119	-3.034300	3.716000	-11.274000	24.352433	0.001079	20.989115
697.178342	-3.004000	3.716800	-11.165000	24.368163	0.001078	20.975025
698.176507	-3.014000	3.714800	-11.195000	24.371393	0.001078	20.988220
699.218449	-3.004700	3.716500	-11.165000	24.371341	0.001077	20.984375
700.230498	-2.989000	3.715700	-11.105000	24.380558	0.001075	20.987932
701.228392	-3.013400	3.716000	-11.196000	24.334342	0.001077	20.981400
702.224853	-2.980300	3.714700	-11.071000	24.294927	0.001076	20.966993
703.236216	-3.005000	3.714800	-11.162000	24.324706	0.001077	20.961304
704.230560	-2.985400	3.715400	-11.091000	24.333687	0.001076	20.959882
705.217863	-3.016200	3.713100	-11.197000	24.357635	0.001077	20.966836
706.229472	-2.995200	3.713500	-11.120000	24.359815	0.001078	20.988459
707.220833	-3.002500	3.714300	-11.152000	24.381742	0.001075	20.981533
708.230961	-3.020800	3.711200	-11.209000	24.372236	0.001074	20.976740
709.227045	-3.023800	3.713300	-11.227000	24.382950	0.001075	20.962360
710.229624	-2.983800	3.713600	-11.080000	24.357479	0.001077	20.981376
711.241703	-3.000600	3.712300	-11.138000	24.351072	0.001077	20.963097
712.229101	-3.008100	3.713200	-11.168000	24.380744	0.001076	20.979585
713.230009	-2.989800	3.713300	-11.101000	24.378698	0.001076	20.968999
714.232471	-3.022400	3.711500	-11.217000	24.361812	0.001075	20.983351
715.227712	-2.987800	3.712100	-11.090000	24.373497	0.001075	20.970419
716.223475	-2.993300	3.711800	-11.110000	24.346215	0.001074	20.973397
717.227602	-3.013900	3.709800	-11.180000	24.361759	0.001074	20.978084
718.224868	-3.013700	3.710600	-11.182000	24.368011	0.001074	20.960176
719.229082	-2.984000	3.709600	-11.068000	24.388990	0.001073	20.975529
720.226244	-3.004000	3.709600	-11.142000	24.383424	0.001074	20.971843
721.222093	-3.014200	3.710100	-11.183000	24.363283	0.001075	20.972027
722.222080	-3.002800	3.709600	-11.139000	24.349235	0.001073	20.965521
723.224030	-2.964000	3.709300	-10.993000	24.342092	0.001073	20.957883
724.229027	-3.011800	3.709300	-11.170000	24.317644	0.001072	20.959911
725.233108	-3.019000	3.707900	-11.193000	24.314573	0.001071	20.974371
726.229112	-3.001000	3.708900	-11.129000	24.325181	0.001073	20.974107
727.238182	-3.014100	3.707700	-11.174000	24.351913	0.001071	20.967734
728.237187	-2.992600	3.707400	-11.093000	24.388412	0.001071	20.952668
729.191310	-2.996500	3.707500	-11.108000	24.387835	0.001072	20.966312
730.192107	-2.988300	3.707100	-11.077000	24.376228	0.001069	20.957988
731.193615	-2.987600	3.707200	-11.074000	24.358688	0.001070	20.975951
732.195701	-2.987500	3.708000	-11.077000	24.362050	0.001070	20.959412
733.198151	-3.003800	3.706900	-11.133000	24.372684	0.001070	20.977189
734.195216	-3.003000	3.707200	-11.131000	24.376125	0.001069	20.967840
735.203027	-3.005200	3.706700	-11.138000	24.367249	0.001067	20.954197
736.194044	-2.992900	3.704000	-11.086000	24.366409	0.001071	20.936760
737.198389	-3.025000	3.704100	-11.204000	24.384081	0.001069	20.944531
738.198008	-2.993300	3.705100	-11.089000	24.377492	0.001072	20.970159
739.203680	-2.997600	3.705700	-11.107000	24.385185	0.001070	20.947060
740.195814	-2.996600	3.704000	-11.097000	24.352965	0.001069	20.960255
741.195458	-2.996800	3.704500	-11.100000	24.343355	0.001069	20.961520
742.197793	-3.017600	3.702800	-11.171000	24.344720	0.001068	20.977586
743.197479	-2.986400	3.703800	-11.059000	24.331801	0.001069	20.982169
744.201818	-2.981200	3.703400	-11.038000	24.317727	0.001067	20.959519
745.198075	-3.004200	3.702800	-11.123000	24.320537	0.001069	20.956649
746.197518	-2.978600	3.702800	-11.028000	24.337133	0.001068	20.947219
747.198435	-3.001100	3.702700	-11.110000	24.364364	0.001069	20.949406
748.208324	-2.992000	3.702100	-11.076000	24.344828	0.001067	20.965367
749.198589	-2.988900	3.701300	-11.062000	24.314471	0.001068	20.949142
750.200212	-3.005800	3.702300	-11.127000	24.347925	0.001067	20.976534
751.200454	-3.012200	3.701900	-11.150000	24.352547	0.001067	20.956043
752.201174	-3.022300	3.700000	-11.181000	24.363393	0.001067	20.938477
753.200288	-3.009600	3.701900	-11.140000	24.384977	0.001067	20.934525
754.201458	-3.029200	3.700200	-11.207000	24.415935	0.001067	20.957519
755.204494	-3.009000	3.701500	-11.137000	24.409003	0.001067	20.965262
756.204290	-3.003100	3.700000	-11.110000	24.432502	0.001067	20.946166
757.199008	-3.031500	3.697800	-11.208000	24.438123	0.001067	20.972190
758.202491	-2.992200	3.699600	-11.069000	24.454952	0.001067	20.949248
759.219601	-2.979800	3.701300	-11.028000	24.431952	0.001066	20.967423
760.222584	-3.001000	3.701100	-11.106000	24.429195	0.001064	20.973665
761.223596	-2.975600	3.700400	-11.009000	24.415934	0.001065	20.956096
762.216659	-2.999600	3.698800	-11.093000	24.396268	0.001064	20.952962
763.201362	-3.017900	3.697200	-11.157000	24.394063	0.001065	20.960707
764.224113	-2.983400	3.699200	-11.035000	24.371559	0.001063	20.946668
765.221831	-2.987600	3.697500	-11.046000	24.400286	0.001064	20.948933
766.221327	-3.006800	3.695800	-11.110000	24.425414	0.001063	20.971294
767.223611	-2.991600	3.697200	-11.060000	24.396320	0.001063	20.966763
768.230635	-3.016000	3.696700	-11.148000	24.410369	0.001063	20.941031
769.226164	-2.981000	3.698100	-11.023000	24.401807	0.001063	20.975112
770.208045	-3.018500	3.695500	-11.154000	24.408766	0.001061	20.959336
771.204096	-3.013500	3.695200	-11.135000	24.410264	0.001060	20.960364
772.220572	-2.987600	3.696100	-11.041000	24.379253	0.001062	20.937317
773.203374	-2.988100	3.696600	-11.045000	24.392120	0.001063	20.952121
774.209851	-2.985100	3.696400	-11.032000	24.406064	0.001061	20.948091
775.207510	-3.020200	3.695000	-11.158000	24.409214	0.001061	20.957888
776.207260	-3.013900	3.695500	-11.137000	24.429326	0.001061	20.942032
777.208010	-3.016300	3.693100	-11.138000	24.423393	0.001061	20.946036
778.221107	-2.980300	3.694500	-11.010000	24.417906	0.001059	20.941955
779.228210	-3.008200	3.693900	-11.110000	24.436049	0.001061	20.948776
780.236526	-3.011800	3.692000	-11.119000	24.469420	0.001060	20.955702
781.224605	-3.025600	3.692300	-11.170000	24.477797	0.001060	20.938030
782.228640	-2.991400	3.691800	-11.041000	24.456713	0.001060	20.951489
783.205610	-2.980000	3.693000	-11.004000	24.462885	0.001058	20.949146
784.207037	-2.992300	3.692400	-11.048000	24.459655	0.001060	20.949699
785.210566	-2.990900	3.692400	-11.043000	24.447735	0.001059	20.943905
786.211988	-3.011200	3.692200	-11.116000	24.439988	0.001060	20.953201
787.209558	-2.988100	3.691600	-11.030000	24.434868	0.001059	20.957547
788.211184	-3.005000	3.691300	-11.089000	24.441540	0.001058	20.933423
789.230062	-2.985800	3.691300	-11.021000	24.472994	0.001057	20.955020
790.229460	-3.000600	3.690200	-11.071000	24.483445	0.001059	20.941800
791.229668	-2.986700	3.690500	-11.021000	24.503163	0.001057	20.935031
792.225415	-3.015400	3.689200	-11.123000	24.490086	0.001057	20.944669
793.230169	-2.988400	3.691500	-11.030000	24.470185	0.001055	20.950780
794.209439	-3.030100	3.689300	-11.177000	24.485125	0.001056	20.934951
795.207472	-3.001600	3.690600	-11.076000	24.499644	0.001058	20.928656
796.211403	-3.000500	3.687700	-11.064000	24.490243	0.001057	20.947197
797.214202	-2.995300	3.689700	-11.052000	24.495497	0.001054	20.938245
798.210053	-2.988700	3.689900	-11.027000	24.472313	0.001055	20.928736
799.211061	-2.984900	3.688700	-11.009000	24.481082	0.001057	20.956022
800.212712	-3.015400	3.687200	-11.117000	24.458161	0.001055	20.924022
801.208489	-2.992500	3.688700	-11.038000	24.467350	0.001053	20.942722
802.223516	-2.995800	3.688200	-11.048000	24.476855	0.001056	20.969797
803.211846	-2.998800	3.686900	-11.056000	24.470869	0.001055	20.945778
804.226119	-2.985900	3.687200	-11.009000	24.484181	0.001053	20.936849
805.241640	-2.994400	3.686900	-11.037000	24.454773	0.001053	20.924416
806.229114	-3.018400	3.686500	-11.126000	24.454325	0.001054	20.905950
807.241176	-2.993800	3.687200	-11.038000	24.434555	0.001053	20.939692
808.231069	-3.013600	3.685300	-11.105000	24.439911	0.001053	20.926575
809.238682	-2.967600	3.686900	-10.940000	24.450887	0.001052	20.923362
810.234237	-2.990000	3.686400	-11.021000	24.453957	0.001050	20.939717
811.257958	-3.007600	3.684700	-11.081000	24.478168	0.001053	20.929394
812.247007	-3.027100	3.684400	-11.151000	24.467060	0.001052	20.906398
813.249585	-2.986700	3.683600	-11.000000	24.467219	0.001049	20.928367
814.249491	-3.012300	3.683600	-11.096000	24.477982	0.001052	20.940586
815.245003	-3.003700	3.683400	-11.062000	24.495496	0.001052	20.926865
816.253663	-3.006000	3.683400	-11.072000	24.523273	0.001050	20.926284
817.261045	-3.019500	3.683900	-11.122000	24.550630	0.001051	20.926706
818.243675	-3.007000	3.682700	-11.072000	24.527289	0.001052	20.925098
819.251035	-2.993100	3.684000	-11.025000	24.520804	0.001050	20.947986
820.243326	-3.017800	3.681900	-11.109000	24.525084	0.001049	20.902500
821.253254	-2.991700	3.682500	-11.016000	24.554803	0.001050	20.917618
822.256583	-2.989400	3.681800	-11.004000	24.553701	0.001049	20.915090
823.254970	-3.005000	3.683400	-11.068000	24.582396	0.001050	20.929181
824.258905	-2.996800	3.681900	-11.032000	24.620462	0.001049	20.918540
825.258307	-3.001500	3.681700	-11.049000	24.647527	0.001049	20.916773
826.255101	-2.980900	3.681700	-10.974000	24.634112	0.001047	20.926072
827.264511	-3.012900	3.681100	-11.089000	24.638418	0.001048	20.935132
828.268509	-2.992400	3.680500	-11.013000	24.667792	0.001049	20.917194
829.267736	-3.005700	3.680100	-11.060000	24.685091	0.001049	20.933129
830.251915	-2.997700	3.679900	-11.030000	24.679500	0.001046	20.931312
831.259306	-3.000200	3.679100	-11.037000	24.696038	0.001047	20.936053
832.258775	-3.005900	3.680300	-11.062000	24.699635	0.001047	20.905526
833.265208	-2.980100	3.681700	-10.970000	24.712051	0.001047	20.954490
834.260637	-3.022900	3.678000	-11.117000	24.708060	0.001045	20.920143
835.259010	-3.008500	3.676900	-11.061000	24.672070	0.001046	20.919116
836.266266	-2.983900	3.679900	-10.980000	24.653196	0.001047	20.927202
837.258383	-2.997400	3.678900	-11.026000	24.658760	0.001045	20.925200
838.270277	-3.033400	3.676400	-11.151000	24.665191	0.001046	20.911265
839.254515	-3.004400	3.678300	-11.050000	24.692307	0.001045	20.924250
840.266315	-3.010400	3.677300	-11.070000	24.702728	0.001045	20.910052
841.256295	-3.033700	3.675800	-11.150000	24.690495	0.001042	20.928120
842.270019	-3.019100	3.676400	-11.098000	24.702281	0.001044	20.902018
843.260114	-3.002300	3.675700	-11.034000	24.712438	0.001042	20.914106
844.265519	-3.018400	3.676100	-11.094000	24.726036	0.001041	20.917320
845.253091	-2.979000	3.677500	-10.953000	24.708395	0.001044	20.915738
846.257318	-2.996500	3.674800	-11.011000	24.728397	0.001042	20.921111
847.263569	-3.014900	3.676100	-11.081000	24.748950	0.001041	20.920874
848.260725	-3.017400	3.674600	-11.087000	24.741205	0.001044	20.915473
849.266373	-3.013800	3.675500	-11.077000	24.715612	0.001042	20.908757
850.264376	-3.026400	3.673000	-11.115000	24.696135	0.001042	20.915763
851.265533	-2.979500	3.675600	-10.951000	24.684399	0.001040	20.921056
852.283352	-2.994900	3.674500	-11.004000	24.647989	0.001041	20.929564
853.273972	-2.988600	3.673700	-10.978000	24.645862	0.001040	20.925533
854.270175	-3.013500	3.673400	-11.068000	24.643814	0.001039	20.924901
855.271642	-3.004900	3.672500	-11.034000	24.629324	0.001039	20.893769
856.270528	-3.001700	3.674000	-11.027000	24.662530	0.001039	20.915233
857.268510	-2.995500	3.672300	-11.000000	24.667099	0.001037	20.909861
858.263946	-3.009700	3.671700	-11.050000	24.638458	0.001038	20.916683
859.266746	-3.004000	3.671100	-11.027000	24.655469	0.001040	20.921898
860.273672	-2.997500	3.672600	-11.008000	24.693112	0.001037	20.926480
861.281102	-2.981700	3.672400	-10.949000	24.731333	0.001036	20.914101
862.261381	-3.001800	3.672200	-11.023000	24.738157	0.001038	20.904355
863.265208	-2.976900	3.672800	-10.933000	24.770602	0.001037	20.895663
864.273974	-2.988600	3.671400	-10.971000	24.769369	0.001036	20.901538
865.271544	-3.012500	3.671100	-11.058000	24.752332	0.001037	20.909096
866.267167	-2.976800	3.671400	-10.928000	24.753960	0.001037	20.913574
867.271763	-2.994400	3.669600	-10.987000	24.710726	0.001037	20.909544
868.272360	-2.978200	3.671100	-10.932000	24.698204	0.001037	20.907884
869.275704	-3.001100	3.669500	-11.011000	24.654155	0.001037	20.903986
870.270386	-2.975400	3.670700	-10.921000	24.648826	0.001036	20.908121
871.269504	-3.002200	3.669000	-11.014000	24.600024	0.001034	20.885707
872.275427	-3.013800	3.669300	-11.058000	24.568913	0.001037	20.921344
873.277812	-2.982100	3.670000	-10.944000	24.568231	0.001035	20.906910
874.263315	-2.993100	3.667900	-10.977000	24.543185	0.001035	20.882731
875.284050	-3.012200	3.667900	-11.047000	24.523914	0.001032	20.908438
876.283613	-3.000600	3.666500	-11.001000	24.544418	0.001033	20.899139
877.273011	-3.000500	3.668400	-11.005000	24.561719	0.001034	20.906066
878.270000	-3.012500	3.666600	-11.043000	24.577024	0.001034	20.892975
879.268482	-2.997900	3.666900	-10.992000	24.613780	0.001032	20.894767
880.275719	-2.985600	3.667900	-10.950000	24.628717	0.001033	20.899797
881.277493	-2.988800	3.668600	-10.963000	24.644153	0.001033	20.897269
882.280642	-3.006000	3.664700	-11.015000	24.672819	0.001031	20.877672
883.284716	-2.988000	3.666600	-10.955000	24.673476	0.001032	20.904407
884.278376	-3.012500	3.665700	-11.042000	24.664314	0.001030	20.889525
885.274141	-3.002300	3.666200	-11.006000	24.665101	0.001030	20.897426
886.283152	-2.993800	3.666900	-10.977000	24.657412	0.001030	20.887340
887.273652	-3.001900	3.665600	-11.003000	24.666650	0.001030	20.883809
888.267329	-3.000400	3.666400	-10.999000	24.698520	0.001029	20.871219
889.269453	-3.004500	3.664700	-11.010000	24.720176	0.001031	20.897217
890.276983	-3.029000	3.662400	-11.091000	24.690435	0.001029	20.890605
891.283433	-2.985300	3.664400	-10.938000	24.697311	0.001028	20.888972
892.275375	-2.992900	3.664000	-10.965000	24.659878	0.001029	20.879384
893.283598	-3.029800	3.663100	-11.097000	24.655782	0.001028	20.870059
894.278706	-2.997500	3.664400	-10.983000	24.651268	0.001029	20.883072
895.286391	-3.001300	3.664500	-10.998000	24.657357	0.001028	20.874958
896.269682	-3.000700	3.661700	-10.987000	24.642604	0.001029	20.894292
897.276278	-3.001900	3.662300	-10.993000	24.654207	0.001028	20.873695
898.281054	-2.984500	3.661500	-10.927000	24.658565	0.001027	20.877593
899.288476	-2.970700	3.662300	-10.878000	24.661532	0.001027	20.868717
900.273253	-2.990000	3.662300	-10.949000	24.693165	0.001026	20.870587
901.280608	-2.996500	3.660600	-10.967000	24.701196	0.001028	20.870112
902.288228	-2.993100	3.661500	-10.959000	24.726345	0.001025	20.856469
903.286274	-3.035700	3.660100	-11.110000	24.735742	0.001025	20.868269
904.295599	-3.024300	3.660800	-11.071000	24.737683	0.001027	20.879225
905.276569	-3.002200	3.660000	-10.987000	24.750862	0.001025	20.862580
906.273345	-3.007300	3.660300	-11.007000	24.739102	0.001025	20.892502
907.288283	-3.024300	3.660200	-11.068000	24.742830	0.001025	20.882019
908.271597	-2.980100	3.661500	-10.909000	24.728497	0.001026	20.856731
909.277284	-2.985500	3.660500	-10.927000	24.717315	0.001024	20.891501
910.283117	-3.001300	3.660200	-10.984000	24.740782	0.001024	20.855783
911.281238	-2.982800	3.659500	-10.914000	24.759182	0.001023	20.870455
912.284027	-2.999400	3.657800	-10.970000	24.721934	0.001023	20.865792
913.278829	-3.003000	3.658700	-10.987000	24.716370	0.001021	20.871588
914.297919	-2.994800	3.658400	-10.956000	24.721306	0.001023	20.869903
915.282533	-2.996500	3.657400	-10.959000	24.726239	0.001021	20.865845
916.281033	-3.003500	3.657400	-10.982000	24.716816	0.001023	20.867769
917.281641	-2.996900	3.656800	-10.959000	24.757294	0.001020	20.851965
918.284017	-2.984200	3.657100	-10.913000	24.779054	0.001021	20.858629
919.280195	-3.002800	3.657300	-10.981000	24.815931	0.001021	20.869085
920.289229	-3.017600	3.655400	-11.030000	24.793384	0.001021	20.878225
921.285395	-3.016900	3.655500	-11.028000	24.788791	0.001019	20.869349
922.286556	-3.020700	3.654800	-11.039000	24.796822	0.001023	20.863658
923.294764	-2.987700	3.656200	-10.923000	24.789524	0.001020	20.865343
924.289416	-3.001100	3.654700	-10.967000	24.790969	0.001020	20.857785
925.286113	-3.020600	3.654600	-11.038000	24.765009	0.001020	20.859707
926.288988	-3.022600	3.653600	-11.043000	24.737106	0.001019	20.864422
927.298255	-2.999300	3.654500	-10.959000	24.734875	0.001017	20.870717
928.288461	-2.978200	3.655000	-10.884000	24.755192	0.001019	20.873088
929.286268	-3.017900	3.652100	-11.020000	24.767817	0.001018	20.867266
930.290263	-2.993700	3.653000	-10.935000	24.771099	0.001017	20.852543
931.290710	-3.018500	3.653300	-11.026000	24.780706	0.001017	20.870717
932.288375	-2.990800	3.653700	-10.926000	24.761571	0.001018	20.861473
933.285217	-2.993600	3.652000	-10.932000	24.769104	0.001018	20.862395
934.293295	-3.001800	3.652100	-10.961000	24.792308	0.001016	20.860077
935.297626	-3.002900	3.653500	-10.970000	24.790340	0.001015	20.862368
936.294950	-2.994300	3.651300	-10.932000	24.821233	0.001017	20.867768
937.288320	-2.987700	3.651800	-10.909000	24.838136	0.001015	20.888050
938.288898	-2.982600	3.651900	-10.890000	24.838872	0.001015	20.867927
939.282499	-2.987900	3.650600	-10.906000	24.825670	0.001013	20.854677
940.309658	-2.979400	3.651200	-10.878000	24.811417	0.001015	20.879253
941.289785	-2.996100	3.651500	-10.940000	24.777872	0.001013	20.860762
942.298453	-2.996300	3.650600	-10.937000	24.790130	0.001013	20.848883
943.296662	-3.002200	3.648700	-10.952000	24.760101	0.001014	20.841032
944.285845	-2.988100	3.651000	-10.908000	24.751939	0.001012	20.866031
945.286690	-3.019800	3.649800	-11.020000	24.763331	0.001013	20.878411
946.291474	-2.992600	3.649600	-10.921000	24.767110	0.001011	20.851385
947.330781	-2.998700	3.649200	-10.942000	24.793596	0.001012	20.861843
948.290159	-2.994800	3.650100	-10.930000	24.810735	0.001012	20.861026
949.294504	-3.000900	3.649300	-10.951000	24.820551	0.001011	20.880833
950.281173	-2.987700	3.649300	-10.902000	24.826090	0.001010	20.876909
951.295067	-2.982300	3.648100	-10.878000	24.851785	0.001010	20.874248
952.284208	-3.003700	3.647100	-10.954000	24.853964	0.001012	20.866004
953.288357	-2.988100	3.648800	-10.902000	24.914487	0.001009	20.869375
954.289746	-2.969900	3.649800	-10.838000	24.904358	0.001008	20.872011
955.283552	-3.001600	3.645700	-10.942000	24.880736	0.001009	20.860631
956.286148	-2.973700	3.647400	-10.845000	24.899318	0.001008	20.878331
957.285963	-3.010200	3.646800	-10.976000	24.844149	0.001007	20.856153
958.296236	-2.989400	3.647200	-10.902000	24.848505	0.001007	20.861948
959.279963	-3.013600	3.646000	-10.986000	24.826851	0.001008	20.840691
960.312865	-2.970100	3.645900	-10.828000	24.854438	0.001007	20.864583
961.283958	-3.016800	3.644400	-10.993000	24.832442	0.001007	20.869534
962.283162	-3.024300	3.645300	-11.024000	24.863334	0.001006	20.866399
963.308924	-3.004200	3.645100	-10.950000	24.835249	0.001005	20.886101
964.304786	-2.994900	3.644300	-10.913000	24.819974	0.001007	20.878831
965.292967	-2.981900	3.646000	-10.872000	24.854515	0.001008	20.871772
966.294532	-2.987400	3.644200	-10.886000	24.844541	0.001007	20.875038
967.313752	-2.988200	3.645400	-10.892000	24.865224	0.001005	20.875882
968.303394	-2.966300	3.644400	-10.809000	24.882047	0.001005	20.857680
969.290334	-2.992600	3.645500	-10.906000	24.879633	0.001004	20.878489
970.305418	-3.015800	3.643000	-10.986000	24.902021	0.001003	20.872036
971.297344	-2.988600	3.642200	-10.884000	24.965691	0.001004	20.876672
972.304592	-2.993700	3.641400	-10.900000	24.955614	0.001003	20.865610
973.298534	-2.965900	3.643100	-10.804000	24.972148	0.001003	20.861817
974.312984	-2.997400	3.641800	-10.915000	24.957976	0.001003	20.885049
975.294897	-2.993000	3.642500	-10.901000	24.997497	0.001003	20.867820
976.293394	-2.998200	3.641500	-10.917000	25.016735	0.001002	20.891870
977.295701	-3.008000	3.642400	-10.954000	25.021012	0.000999	20.873880
978.306456	-2.987400	3.642400	-10.881000	25.017941	0.001001	20.867953
979.304053	-3.020100	3.640600	-10.994000	24.975296	0.001001	20.864977
980.313187	-2.994000	3.640000	-10.897000	24.990937	0.001000	20.874986
981.298103	-3.003900	3.640400	-10.933000	25.000149	0.001000	20.891344
982.305669	-3.014600	3.639600	-10.969000	25.001593	0.001001	20.882362
983.300451	-3.005600	3.640900	-10.942000	25.017810	0.001000	20.884890
984.296373	-3.013000	3.638900	-10.963000	25.024476	0.000999	20.871667
985.318801	-2.990200	3.638800	-10.880000	25.004898	0.000997	20.890894
986.265792	-2.998700	3.639000	-10.912000	24.990859	0.000999	20.891501
987.267388	-2.987000	3.638800	-10.869000	24.990071	0.000997	20.874590
988.266579	-2.996700	3.638900	-10.904000	24.969812	0.000998	20.873696
989.265306	-2.990600	3.639100	-10.882000	24.941939	0.000998	20.877488
990.266459	-2.994300	3.637900	-10.893000	24.959313	0.000996	20.888762
991.269752	-3.008000	3.636100	-10.937000	24.968026	0.000996	20.887549
992.315067	-3.001500	3.638400	-10.920000	24.966609	0.000994	20.886601
993.308697	-3.002600	3.637400	-10.921000	24.992196	0.000995	20.909437
994.290307	-3.018900	3.634800	-10.971000	25.014504	0.000997	20.905277
995.286455	-3.014700	3.635500	-10.957000	25.014633	0.000995	20.896399
996.308450	-3.017300	3.635900	-10.969000	25.033161	0.000994	20.896030
997.286368	-3.000500	3.634800	-10.905000	25.036259	0.000996	20.876856
998.292933	-2.991400	3.635900	-10.876000	25.039983	0.000993	20.898136
999.289472	-2.990400	3.634300	-10.867000	25.039723	0.000994	20.894082
1000.293756	-2.980700	3.636700	-10.839000	25.024922	0.000992	20.896769
1001.296315	-3.000200	3.634700	-10.904000	25.053605	0.000992	20.898534
1002.293031	-2.991500	3.635600	-10.875000	25.036810	0.000992	20.896848
1003.294562	-3.001400	3.633700	-10.906000	25.036205	0.000993	20.881069
1004.294327	-3.009100	3.633000	-10.931000	24.981515	0.000993	20.877381
1005.326491	-3.000300	3.633500	-10.901000	24.966844	0.000991	20.896794
1006.309099	-3.002800	3.632900	-10.907000	24.980228	0.000990	20.897900
1007.323291	-2.994000	3.633800	-10.878000	24.954798	0.000990	20.910305
1008.320692	-3.001600	3.632600	-10.901000	24.975243	0.000991	20.899059
1009.294850	-3.015000	3.633800	-10.954000	24.992013	0.000991	20.889815
1010.298660	-3.012600	3.632400	-10.942000	25.016366	0.000990	20.920895
1011.294943	-3.012500	3.631500	-10.938000	25.016995	0.000988	20.906355
1012.303353	-2.986300	3.632700	-10.847000	25.055494	0.000989	20.907541
1013.304437	-3.019300	3.631100	-10.962000	25.060033	0.000988	20.900718
1014.299073	-2.992000	3.632600	-10.867000	25.095486	0.000989	20.916391
1015.298386	-2.996100	3.631400	-10.879000	25.074545	0.000988	20.925240
1016.324872	-2.984500	3.631700	-10.838000	25.120047	0.000988	20.885574
1017.300024	-3.009300	3.630500	-10.924000	25.136474	0.000987	20.918657
1018.284443	-2.995800	3.629800	-10.873000	25.133587	0.000986	20.886839
1019.299850	-3.003400	3.630600	-10.903000	25.126843	0.000987	20.925583
1020.326495	-3.010300	3.630000	-10.926000	25.137811	0.000988	20.899612
1021.320019	-2.993500	3.630200	-10.867000	25.141826	0.000987	20.910755
1022.325100	-3.024100	3.628800	-10.973000	25.137286	0.000987	20.902404
1023.305938	-2.997800	3.627100	-10.873000	25.140723	0.000986	20.903958
1024.306980	-3.014700	3.627700	-10.935000	25.130937	0.000984	20.907410
1025.300160	-2.991500	3.629100	-10.856000	25.122932	0.000984	20.903642
1026.306788	-3.011900	3.627400	-10.924000	25.100443	0.000983	20.932272
1027.306374	-2.991900	3.628700	-10.855000	25.097112	0.000984	20.932247
1028.308702	-3.004200	3.626000	-10.892000	25.077220	0.000983	20.900902
1029.309958	-2.990200	3.628100	-10.847000	25.031034	0.000982	20.924238
1030.305547	-2.996500	3.626700	-10.867000	25.026574	0.000983	20.911227
1031.307049	-3.008800	3.626300	-10.910000	25.044207	0.000982	20.921814
1032.307883	-2.978000	3.627700	-10.802000	25.049246	0.000982	20.908856
1033.312001	-3.005500	3.626900	-10.899000	25.073729	0.000980	20.923474
1034.307890	-3.009300	3.625900	-10.910000	25.071709	0.000980	20.901060
1035.304980	-3.008000	3.625500	-10.905000	25.068769	0.000980	20.910910
1036.331627	-2.985000	3.626000	-10.822000	25.096637	0.000980	20.919444
1037.326536	-2.979000	3.625400	-10.799000	25.125580	0.000979	20.913886
1038.334024	-3.004900	3.623900	-10.889000	25.147781	0.000979	20.903456
1039.346608	-3.004300	3.624500	-10.888000	25.147333	0.000977	20.914860
1040.326390	-2.997400	3.623400	-10.859000	25.133847	0.000979	20.934510
1041.328435	-3.006100	3.624300	-10.894000	25.155311	0.000977	20.932825
1042.339029	-3.007500	3.624000	-10.897000	25.139409	0.000979	20.926344
1043.336219	-3.003400	3.623400	-10.880000	25.111857	0.000976	20.943728
1044.331378	-2.983800	3.623200	-10.810000	25.095956	0.000978	20.929189
1045.321931	-3.003600	3.622700	-10.880000	25.105952	0.000976	20.927371
1046.327840	-2.997200	3.624000	-10.860000	25.107187	0.000975	20.926714
1047.323617	-3.005700	3.621900	-10.885000	25.117602	0.000977	20.934797
1048.328131	-2.958200	3.623300	-10.717000	25.130828	0.000975	20.947125
1049.334034	-3.017600	3.619800	-10.923000	25.118862	0.000975	20.937958
1050.335711	-2.991000	3.621800	-10.831000	25.143003	0.000978	20.940856
1051.319997	-2.977800	3.622600	-10.787000	25.145890	0.000974	20.951339
1052.320044	-2.995300	3.621500	-10.847000	25.145338	0.000973	20.935140
1053.305299	-3.007900	3.621000	-10.891000	25.162026	0.000973	20.938616
1054.309357	-3.005500	3.620700	-10.880000	25.164335	0.000974	20.959424
1055.327224	-2.981100	3.620000	-10.790000	25.175488	0.000974	20.924632
1056.317069	-2.995400	3.619800	-10.842000	25.150613	0.000972	20.964140
1057.309231	-2.994200	3.621200	-10.841000	25.160872	0.000971	20.954999
1058.325313	-2.990700	3.619600	-10.824000	25.135944	0.000971	20.941830
1059.305248	-2.981700	3.619400	-10.791000	25.117025	0.000973	20.943700
1060.309841	-2.998200	3.619300	-10.850000	25.132796	0.000970	20.939618
1061.316020	-3.014800	3.618000	-10.906000	25.130407	0.000971	20.951443
1062.314249	-3.012700	3.618200	-10.899000	25.154338	0.000972	20.960293
1063.314271	-2.981100	3.618100	-10.784000	25.178793	0.000970	20.943121
1064.316507	-3.004300	3.618600	-10.870000	25.200231	0.000968	20.935721
1065.310114	-2.968200	3.617700	-10.736000	25.209178	0.000970	20.958451
1066.330461	-2.998400	3.618200	-10.847000	25.205294	0.000970	20.955500
1067.330906	-3.020200	3.615700	-10.920000	25.178689	0.000969	20.951549
1068.308815	-2.962400	3.617800	-10.716000	25.162053	0.000968	20.966141
1069.310790	-3.011800	3.614900	-10.887000	25.134658	0.000967	20.955710
1070.315215	-2.990900	3.616200	-10.813000	25.123876	0.000967	20.966221
1071.311479	-3.011100	3.614900	-10.883000	25.139382	0.000968	20.959978
1072.322510	-3.014700	3.613800	-10.893000	25.148776	0.000966	20.970355
1073.293313	-2.967100	3.615900	-10.727000	25.163918	0.000966	20.959479
1074.295740	-2.988800	3.614400	-10.801000	25.155886	0.000965	20.974647
1075.294223	-3.004700	3.614500	-10.859000	25.125371	0.000963	20.957292
1076.295810	-3.008400	3.613100	-10.868000	25.139644	0.000965	20.970671
1077.303792	-3.002200	3.614400	-10.850000	25.143633	0.000963	20.967563
1078.300360	-2.985200	3.614700	-10.789000	25.174938	0.000962	20.972911
1079.294492	-2.990500	3.613700	-10.806000	25.189684	0.000961	21.000986
1080.308733	-3.002300	3.613100	-10.846000	25.184015	0.000962	20.964955
1081.321365	-2.981800	3.613100	-10.773000	25.198710	0.000962	20.969276
1082.322318	-3.008300	3.611700	-10.863000	25.216132	0.000961	20.952156
1083.311347	-2.995800	3.611000	-10.816000	25.234260	0.000962	20.973673
1084.297822	-2.982000	3.611300	-10.768000	25.235417	0.000961	20.961085
1085.316181	-3.007500	3.610900	-10.858000	25.242186	0.000961	20.975465
1086.322280	-3.010800	3.610800	-10.870000	25.219621	0.000961	20.983156
1087.318301	-3.019100	3.611000	-10.900000	25.206370	0.000959	20.963217
1088.322137	-2.973100	3.610500	-10.733000	25.204061	0.000958	20.969432
1089.300701	-3.004500	3.611000	-10.848000	25.179712	0.000961	20.989555
1090.299484	-3.010400	3.609200	-10.864000	25.203720	0.000959	20.981417
1091.325261	-3.003300	3.610000	-10.840000	25.222795	0.000959	20.980178
1092.320049	-3.002300	3.608700	-10.833000	25.238223	0.000955	20.967221
1093.297902	-3.025500	3.608500	-10.917000	25.214582	0.000958	20.980467
1094.323575	-2.996300	3.608100	-10.810000	25.224658	0.000957	20.979204
1095.316042	-2.981200	3.609900	-10.762000	25.228435	0.000955	20.966403
1096.323503	-2.976200	3.609200	-10.740000	25.194798	0.000956	21.001379
1097.306164	-3.011100	3.608800	-10.865000	25.204271	0.000957	20.968221
1098.303271	-3.016100	3.606200	-10.875000	25.198315	0.000957	20.975516
1099.299758	-2.983400	3.607700	-10.762000	25.216051	0.000954	20.993794
1100.300434	-3.021800	3.606200	-10.896000	25.253439	0.000954	20.990080
1101.303683	-3.000500	3.606900	-10.821000	25.238746	0.000954	20.995717
1102.302397	-2.981600	3.607400	-10.755000	25.230088	0.000953	20.990818
1103.303498	-2.995400	3.605200	-10.798000	25.241946	0.000954	20.997033
1104.324531	-2.999100	3.605600	-10.812000	25.250318	0.000954	21.011124
1105.303198	-3.015300	3.605100	-10.869000	25.227647	0.000953	20.984101
1106.308530	-3.000500	3.605600	-10.819000	25.211722	0.000953	20.992293
1107.303064	-2.994900	3.605500	-10.796000	25.216680	0.000952	20.994426
1108.322463	-3.002200	3.604800	-10.821000	25.206605	0.000951	21.010861
1109.324317	-2.982300	3.605500	-10.750000	25.225443	0.000950	21.006066
1110.320550	-2.989000	3.604700	-10.774000	25.194456	0.000951	21.010044
1111.329011	-3.012200	3.603500	-10.852000	25.179683	0.000950	20.998534
1112.319306	-2.985400	3.604600	-10.760000	25.184381	0.000949	20.999931
1113.319419	-2.976400	3.604300	-10.726000	25.222242	0.000948	20.995268
1114.350331	-2.992800	3.603400	-10.783000	25.244098	0.000948	21.005356
1115.321308	-2.987700	3.602500	-10.762000	25.260023	0.000949	20.989579
1116.311028	-2.991800	3.603300	-10.780000	25.271044	0.000948	21.022922
1117.308860	-2.986400	3.603700	-10.761000	25.281460	0.000949	21.022949
1118.338749	-3.005600	3.601100	-10.823000	25.284661	0.000947	21.014310
1119.325024	-2.997100	3.599700	-10.789000	25.252573	0.000947	21.002485
1120.332690	-2.988900	3.601400	-10.763000	25.265454	0.000947	21.022526
1121.327785	-2.996800	3.601500	-10.792000	25.268289	0.000946	21.009727
1122.325953	-3.009200	3.599400	-10.830000	25.237093	0.000946	21.014916
1123.348908	-2.994500	3.600900	-10.781000	25.228381	0.000946	21.028926
1124.334221	-2.978600	3.599800	-10.720000	25.209096	0.000946	21.021894
1125.326744	-2.992900	3.600200	-10.773000	25.198837	0.000944	21.009700
1126.334965	-3.005300	3.599000	-10.815000	25.240872	0.000944	21.028665
1127.336339	-3.006500	3.598400	-10.817000	25.237434	0.000943	21.018103
1128.334126	-2.994200	3.600100	-10.778000	25.263304	0.000944	21.016576
1129.344961	-3.015400	3.598000	-10.848000	25.223317	0.000942	21.019576
1130.324801	-3.019700	3.595800	-10.857000	25.200464	0.000941	21.017970
1131.333068	-2.997400	3.598700	-10.785000	25.184354	0.000942	21.014125
1132.328649	-2.998300	3.597600	-10.786000	25.199625	0.000939	21.019499
1133.331196	-3.018500	3.596700	-10.855000	25.225050	0.000939	21.039805
1134.360898	-3.005800	3.596700	-10.810000	25.261626	0.000940	21.019157
1135.355639	-3.017200	3.595700	-10.846000	25.287441	0.000939	21.029901
1136.363511	-2.986100	3.597000	-10.740000	25.291140	0.000940	21.043569
1137.346923	-3.007400	3.595500	-10.812000	25.299301	0.000940	21.021895
1138.360613	-3.000600	3.597000	-10.790000	25.301662	0.000937	21.028058
1139.353233	-3.013400	3.596100	-10.836000	25.329706	0.000937	21.042937
1140.365291	-3.008800	3.594000	-10.812000	25.339624	0.000936	21.040568
1141.345161	-2.986300	3.595400	-10.736000	25.333014	0.000936	21.030614
1142.347930	-2.995500	3.592600	-10.760000	25.391620	0.000936	21.026398
1143.352721	-3.012100	3.593900	-10.824000	25.415992	0.000936	21.039962
1144.351391	-2.995800	3.595500	-10.771000	25.415177	0.000936	21.045781
1145.357812	-2.994100	3.594000	-10.760000	25.362159	0.000936	21.030480
1146.353971	-2.986300	3.594800	-10.735000	25.341039	0.000934	21.039144
1147.356532	-3.005000	3.590600	-10.788000	25.293343	0.000935	21.041514
1148.352831	-3.016800	3.592400	-10.837000	25.265742	0.000933	21.034666
1149.359728	-3.015100	3.590800	-10.825000	25.245146	0.000934	21.038170
1150.363480	-3.014400	3.591500	-10.826000	25.248163	0.000933	21.032191
1151.360373	-3.002400	3.592700	-10.786000	25.236540	0.000933	21.043278
1152.356327	-2.983100	3.591900	-10.714000	25.236854	0.000932	21.042171
1153.358336	-3.005400	3.589700	-10.787000	25.235070	0.000930	21.028530
1154.365116	-3.000200	3.592800	-10.778000	25.259024	0.000931	21.015123
1155.375114	-2.993300	3.590100	-10.744000	25.278124	0.000931	21.040459
1156.356920	-3.025600	3.588500	-10.856000	25.328051	0.000931	21.019469
1157.365438	-3.003000	3.589900	-10.779000	25.346650	0.000929	21.038614
1158.366645	-3.008500	3.589500	-10.798000	25.350980	0.000928	21.018309
1159.360128	-3.000700	3.588800	-10.768000	25.350614	0.000930	21.028845
1160.361148	-3.021300	3.587100	-10.837000	25.334346	0.000928	21.030054
1161.355414	-3.002000	3.588900	-10.773000	25.321543	0.000928	21.015780
1162.356927	-2.987400	3.589000	-10.722000	25.309291	0.000927	21.006799
1163.362638	-3.002300	3.588300	-10.772000	25.279829	0.000927	21.018941
1164.374514	-2.995500	3.587500	-10.745000	25.289639	0.000925	21.008878
1165.358203	-3.018000	3.586200	-10.821000	25.297850	0.000926	21.009062
1166.348496	-3.003400	3.586200	-10.770000	25.282712	0.000925	21.010932
1167.347770	-3.010200	3.587900	-10.800000	25.265526	0.000925	21.018332
1168.355924	-3.012800	3.587000	-10.806000	25.221554	0.000926	21.002162
1169.345984	-3.004400	3.586600	-10.775000	25.228611	0.000924	21.012090
1170.339077	-2.994600	3.585800	-10.736000	25.209850	0.000925	20.990888
1171.342668	-3.008400	3.585400	-10.784000	25.228322	0.000924	20.994259
1172.349515	-3.019400	3.585200	-10.823000	25.213601	0.000920	20.996550
1173.346555	-3.011700	3.585600	-10.798000	25.228556	0.000922	21.014880
1174.342830	-2.985100	3.585200	-10.701000	25.231783	0.000921	21.001053
1175.346570	-2.988900	3.584300	-10.713000	25.244167	0.000920	21.002580
1176.342371	-2.998200	3.583400	-10.743000	25.217352	0.000920	20.992256
1177.363451	-2.992800	3.585300	-10.729000	25.193502	0.000920	21.002923
1178.377023	-3.033500	3.582900	-10.867000	25.201845	0.000922	20.986171
1179.371321	-2.976200	3.583800	-10.666000	25.195861	0.000919	21.002920
1180.364351	-2.995000	3.584600	-10.735000	25.214385	0.000919	21.007292
1181.340301	-3.006100	3.583600	-10.770000	25.253113	0.000919	20.993071
1182.345231	-3.015000	3.583300	-10.801000	25.254739	0.000918	20.986170
1183.355147	-2.980900	3.583000	-10.679000	25.272423	0.000918	20.983063
1184.367260	-2.999200	3.582700	-10.744000	25.282602	0.000917	20.969103
1185.384423	-3.003200	3.580700	-10.752000	25.269614	0.000916	20.994939
1186.363661	-2.994400	3.581800	-10.723000	25.280318	0.000917	20.999522
1187.361897	-3.006800	3.580700	-10.765000	25.257676	0.000916	20.987696
1188.345510	-2.996700	3.581200	-10.731000	25.245423	0.000916	20.990093
1189.349686	-3.020200	3.578800	-10.807000	25.212678	0.000914	20.992779
1190.348236	-2.992100	3.579700	-10.710000	25.208166	0.000915	20.991568
1191.355830	-2.977800	3.580100	-10.659000	25.192894	0.000914	21.000416
1192.348065	-2.981500	3.578900	-10.669000	25.228157	0.000914	21.009739
1193.349229	-3.023800	3.578000	-10.819000	25.274335	0.000913	20.990671
1194.349323	-2.979100	3.579800	-10.663000	25.272578	0.000915	20.977529
1195.353439	-2.997300	3.580400	-10.731000	25.284620	0.000910	20.975870
1196.373637	-2.989300	3.579700	-10.701000	25.276276	0.000912	20.941419
1197.354349	-2.971300	3.578000	-10.630000	25.314398	0.000910	20.963096
1198.352567	-3.011600	3.578400	-10.776000	25.352964	0.000910	20.969101
1199.354531	-3.001500	3.577600	-10.736000	25.363536	0.000909	20.985404
1200.361537	-2.997000	3.577500	-10.720000	25.364743	0.000909	20.955800
1201.390553	-3.002600	3.576300	-10.736000	25.382949	0.000910	20.966019
1202.350063	-2.980100	3.576400	-10.657000	25.376888	0.000907	20.976526
1203.354603	-3.019600	3.575200	-10.796000	25.355927	0.000910	20.997676
1204.347795	-2.982800	3.576700	-10.667000	25.365711	0.000907	20.986166
1205.348594	-2.987800	3.575600	-10.682000	25.353855	0.000908	20.990381
1206.337119	-3.027800	3.575500	-10.823000	25.351177	0.000906	20.961618
1207.357827	-2.979900	3.575800	-10.654000	25.328039	0.000907	20.994331
1208.360571	-3.009900	3.574000	-10.755000	25.323894	0.000905	20.973577
1209.370341	-2.999700	3.574400	-10.721000	25.344068	0.000906	20.950688
1210.356044	-2.972600	3.574700	-10.625000	25.336669	0.000904	20.955112
1211.354671	-3.011800	3.572900	-10.760000	25.315968	0.000903	20.981739
1212.362510	-2.990000	3.573900	-10.685000	25.319773	0.000905	20.976551
1213.359488	-2.979800	3.573900	-10.648000	25.295899	0.000906	20.962540
1214.353982	-2.978100	3.573600	-10.641000	25.293037	0.000903	20.973416
1215.357680	-3.005900	3.573200	-10.739000	25.307311	0.000901	20.960247
1216.356610	-3.003800	3.570900	-10.725000	25.290179	0.000902	20.958694
1217.356523	-2.995500	3.571700	-10.698000	25.303349	0.000898	20.968123
1218.368957	-2.969400	3.572700	-10.607000	25.322920	0.000899	20.978762
1219.358425	-3.035700	3.569400	-10.834000	25.353719	0.000898	20.976022
1220.356507	-3.018100	3.569700	-10.772000	25.356630	0.000899	20.977048
1221.369145	-3.014000	3.569800	-10.759000	25.348813	0.000901	20.966356
1222.366114	-2.995200	3.570300	-10.692000	25.303424	0.000896	20.996169
1223.358150	-2.982100	3.570400	-10.647000	25.322998	0.000897	20.982159
1224.338155	-3.008000	3.568700	-10.733000	25.318301	0.000900	20.971755
1225.340229	-3.010200	3.568500	-10.741000	25.326618	0.000898	20.972045
1226.338090	-2.987100	3.570100	-10.663000	25.334907	0.000896	20.969463
1227.337773	-2.994200	3.569200	-10.686000	25.347158	0.000897	20.967065
1228.340961	-3.013500	3.568200	-10.751000	25.376568	0.000896	20.956768
1229.338880	-3.004200	3.568500	-10.719000	25.401463	0.000895	20.977021
1230.347388	-3.007700	3.567700	-10.730000	25.411458	0.000895	20.976626
1231.342627	-2.964400	3.568600	-10.578000	25.441967	0.000894	20.975493
1232.342513	-2.995600	3.566900	-10.684000	25.415497	0.000894	20.977836
1233.343329	-2.980300	3.566400	-10.626000	25.392568	0.000893	20.976150
1234.340283	-3.006700	3.567300	-10.723000	25.370480	0.000892	20.961560
1235.348884	-2.993700	3.566900	-10.676000	25.380712	0.000894	20.971832
1236.365491	-3.019500	3.565000	-10.763000	25.377879	0.000892	20.944809
1237.365362	-2.970800	3.566200	-10.594000	25.382127	0.000892	20.981313
1238.346945	-3.004100	3.565900	-10.711000	25.374836	0.000893	20.962140
1239.365859	-2.981000	3.567600	-10.633000	25.405031	0.000890	20.966381
1240.346792	-2.998000	3.565100	-10.687000	25.422213	0.000891	20.952816
1241.351469	-2.993200	3.563900	-10.666000	25.450178	0.000890	20.955293
1242.367139	-3.005700	3.563300	-10.709000	25.414134	0.000891	20.974572
1243.345736	-3.000800	3.564100	-10.694000	25.377643	0.000888	20.958795
1244.349507	-2.982500	3.565000	-10.631000	25.363871	0.000888	20.961088
1245.347221	-2.987300	3.564100	-10.647000	25.362716	0.000886	20.957084
1246.368780	-3.001100	3.563000	-10.691000	25.385094	0.000887	20.956320
1247.348201	-3.020200	3.561600	-10.755000	25.387087	0.000887	20.954055
1248.348590	-3.018500	3.561200	-10.748000	25.402121	0.000886	20.958244
1249.353815	-2.993400	3.561400	-10.660000	25.382603	0.000886	20.965671
1250.349648	-3.008200	3.562400	-10.715000	25.361144	0.000885	20.971150
1251.349870	-2.987400	3.560600	-10.636000	25.315390	0.000884	20.952239
1252.352096	-2.980700	3.561500	-10.615000	25.313081	0.000883	20.957981
1253.349751	-2.976600	3.562600	-10.603000	25.325202	0.000883	20.973942
1254.346656	-2.993100	3.559800	-10.654000	25.329872	0.000883	20.953978
1255.358171	-2.978500	3.561600	-10.607000	25.346951	0.000882	20.962590
1256.352335	-3.008200	3.558500	-10.702000	25.312399	0.000882	20.959193
1257.381618	-3.001300	3.557800	-10.677000	25.304502	0.000884	20.961221
1258.350974	-3.006600	3.560100	-10.702000	25.321320	0.000881	20.969570
1259.352368	-3.017700	3.558700	-10.738000	25.337035	0.000880	20.966384
1260.374081	-3.022100	3.557900	-10.752000	25.364606	0.000881	20.970360
1261.373947	-2.988000	3.558000	-10.630000	25.363742	0.000881	20.956217
1262.372430	-3.009200	3.557300	-10.703000	25.335041	0.000878	20.962011
1263.365972	-2.975400	3.557900	-10.586000	25.336536	0.000879	20.969201
1264.373818	-2.989300	3.557100	-10.633000	25.313107	0.000879	20.971756
1265.352233	-3.014900	3.556400	-10.720000	25.302902	0.000879	20.970519
1266.356705	-2.998400	3.557500	-10.666000	25.290098	0.000876	20.961931
1267.353739	-2.979900	3.556700	-10.598000	25.295345	0.000876	20.950606
1268.363480	-2.999000	3.555000	-10.660000	25.318433	0.000876	20.945812
1269.354505	-2.989900	3.555900	-10.631000	25.354427	0.000875	20.971992
1270.352884	-3.001100	3.556100	-10.671000	25.358808	0.000875	20.956479
1271.369303	-2.983100	3.556900	-10.610000	25.358859	0.000875	20.954160
1272.354670	-2.982800	3.555400	-10.604000	25.365497	0.000873	20.950394
1273.356843	-3.030600	3.554500	-10.770000	25.395116	0.000875	20.949789
1274.355882	-2.997600	3.556100	-10.658000	25.393149	0.000874	20.949236
1275.376459	-2.995100	3.554400	-10.645000	25.371532	0.000872	20.954556
1276.388631	-2.996200	3.554500	-10.649000	25.354530	0.000871	20.949814
1277.361207	-3.011100	3.552100	-10.695000	25.318195	0.000871	20.931825
1278.384170	-2.998500	3.553500	-10.654000	25.305443	0.000872	20.933246
1279.384504	-2.975200	3.553100	-10.571000	25.288993	0.000870	20.933325
1280.384505	-2.996000	3.551500	-10.640000	25.266849	0.000870	20.957082
1281.357613	-2.998700	3.552300	-10.652000	25.281122	0.000870	20.946283
1282.363512	-3.006300	3.549900	-10.672000	25.315805	0.000869	20.960716
1283.361810	-2.997300	3.551800	-10.645000	25.347733	0.000867	20.950101
1284.368011	-2.994900	3.550300	-10.632000	25.369036	0.000869	20.943043
1285.368813	-2.986100	3.551700	-10.604000	25.385878	0.000869	20.959951
1286.391634	-2.980600	3.552600	-10.587000	25.379791	0.000867	20.937722
1287.382694	-3.031300	3.548800	-10.756000	25.360404	0.000864	20.976097
1288.387488	-3.020300	3.550100	-10.721000	25.385797	0.000866	20.947070
1289.384540	-3.003500	3.548800	-10.658000	25.384931	0.000867	20.961371
1290.380277	-2.999100	3.549900	-10.646000	25.362632	0.000864	20.962689
1291.401306	-3.004200	3.549700	-10.662000	25.367589	0.000864	20.952494
1292.395906	-3.008900	3.548300	-10.675000	25.325719	0.000863	20.955971
1293.417632	-3.004600	3.547500	-10.658000	25.318293	0.000862	20.945672
1294.416484	-2.991500	3.547100	-10.611000	25.341274	0.000866	20.939824
1295.401300	-3.004200	3.548300	-10.659000	25.371968	0.000864	20.934609
1296.408454	-2.989100	3.547000	-10.601000	25.397363	0.000862	20.920281
1297.406712	-2.996500	3.547500	-10.629000	25.421707	0.000862	20.943300
1298.403736	-2.999900	3.546800	-10.639000	25.418087	0.000861	20.942510
1299.411341	-2.991900	3.546600	-10.610000	25.422336	0.000863	20.933976
1300.410517	-3.003200	3.545200	-10.645000	25.369581	0.000862	20.927945
1301.398092	-3.008800	3.545700	-10.667000	25.389729	0.000862	20.929210
1302.407214	-3.012900	3.546200	-10.683000	25.410636	0.000860	20.940244
1303.410308	-2.987100	3.546400	-10.593000	25.421261	0.000857	20.939534
1304.414492	-3.004900	3.545500	-10.653000	25.437971	0.000857	20.942088
1305.400427	-3.006100	3.544600	-10.654000	25.431727	0.000859	20.934870
1306.402196	-2.985700	3.545700	-10.586000	25.444765	0.000858	20.949383
1307.410340	-2.996800	3.546000	-10.624000	25.453605	0.000856	20.940718
1308.407831	-3.016200	3.544900	-10.691000	25.461502	0.000857	20.916408
1309.424823	-2.986700	3.543100	-10.581000	25.509478	0.000856	20.932342
1310.401891	-3.003900	3.542800	-10.642000	25.514357	0.000855	20.933922
1311.406482	-2.991000	3.542800	-10.594000	25.537964	0.000854	20.944826
1312.419037	-3.009200	3.543200	-10.661000	25.520705	0.000854	20.932711
1313.406775	-3.003400	3.542800	-10.639000	25.565662	0.000854	20.951779
1314.419141	-2.983000	3.543100	-10.567000	25.563749	0.000852	20.954598
1315.414824	-2.982600	3.542900	-10.566000	25.572037	0.000853	20.941112
1316.413709	-2.978000	3.541300	-10.545000	25.547172	0.000851	20.934160
1317.415372	-2.998700	3.542500	-10.621000	25.585703	0.000852	20.942035
1318.414395	-2.971700	3.542100	-10.524000	25.538935	0.000850	20.931104
1319.408600	-3.012000	3.538900	-10.659000	25.496730	0.000851	20.937557
1320.406882	-2.977000	3.540400	-10.539000	25.470761	0.000849	20.947039
1321.420285	-2.994900	3.541200	-10.604000	25.449251	0.000850	20.942510
1322.413033	-2.994900	3.539000	-10.598000	25.432094	0.000849	20.937610
1323.415870	-2.990600	3.540700	-10.587000	25.405626	0.000847	20.934266
1324.403135	-2.995300	3.537400	-10.595000	25.409350	0.000849	20.932790
1325.420851	-3.000400	3.539000	-10.618000	25.390803	0.000847	20.916065
1326.425312	-3.007800	3.538900	-10.643000	25.422310	0.000846	20.921149
1327.418438	-3.003400	3.537800	-10.624000	25.417142	0.000848	20.918805
1328.404338	-2.997900	3.536800	-10.602000	25.394610	0.000846	20.921309
1329.413486	-3.011600	3.536200	-10.648000	25.413287	0.000845	20.951440
1330.422818	-2.993500	3.536400	-10.586000	25.424804	0.000844	20.956366
1331.426163	-3.010200	3.537000	-10.647000	25.465306	0.000844	20.936822
1332.410247	-3.015800	3.536600	-10.663000	25.493058	0.000844	20.928656
1333.394177	-2.992500	3.535400	-10.579000	25.551292	0.000842	20.948728
1334.402788	-2.976200	3.536200	-10.523000	25.585835	0.000844	20.899025
1335.394483	-3.004400	3.535400	-10.621000	25.596197	0.000842	20.939298
1336.401220	-2.991600	3.535300	-10.575000	25.563357	0.000840	20.926708
1337.418351	-3.018700	3.535000	-10.669000	25.572591	0.000843	20.921757
1338.408443	-3.039200	3.533000	-10.736000	25.550977	0.000840	20.932766
1339.434918	-2.983800	3.534100	-10.544000	25.559082	0.000839	20.920044
1340.425917	-2.993900	3.534200	-10.580000	25.600577	0.000841	20.915251
1341.415315	-2.985500	3.534100	-10.550000	25.616182	0.000840	20.920966
1342.424808	-2.982700	3.532900	-10.536000	25.619540	0.000837	20.920070
1343.426997	-3.008100	3.532200	-10.623000	25.594072	0.000839	20.907296
1344.412480	-3.007200	3.531700	-10.620000	25.592945	0.000837	20.922284
1345.423610	-2.974400	3.532100	-10.504000	25.589324	0.000836	20.926234
1346.413415	-2.996000	3.532000	-10.581000	25.561390	0.000837	20.909561
1347.412599	-2.992700	3.531700	-10.568000	25.586440	0.000837	20.902951
1348.417316	-2.995600	3.532000	-10.579000	25.578545	0.000835	20.910668
1349.422233	-2.991700	3.531600	-10.565000	25.579857	0.000837	20.913408
1350.415252	-2.999100	3.530100	-10.586000	25.562151	0.000834	20.916963
1351.429051	-2.985200	3.531800	-10.542000	25.580853	0.000835	20.914409
1352.432178	-3.004200	3.529100	-10.602000	25.591764	0.000833	20.922521
1353.411850	-3.015200	3.528600	-10.639000	25.588092	0.000833	20.910299
1354.432598	-3.000900	3.528800	-10.588000	25.633546	0.000833	20.916120
1355.423008	-3.001300	3.527300	-10.586000	25.661320	0.000833	20.911773
1356.424716	-3.004500	3.529200	-10.603000	25.698117	0.000833	20.907007
1357.421210	-3.003000	3.526500	-10.587000	25.687259	0.000830	20.919808
1358.428035	-2.987000	3.528300	-10.537000	25.644744	0.000831	20.913143
1359.422284	-2.997300	3.527300	-10.571000	25.630346	0.000830	20.902950
1360.423229	-3.004100	3.526200	-10.592000	25.625021	0.000829	20.889542
1361.436540	-3.006500	3.527000	-10.603000	25.602516	0.000827	20.930947
1362.442284	-2.982100	3.527300	-10.517000	25.582215	0.000829	20.905820
1363.419373	-3.008500	3.527300	-10.611000	25.577443	0.000828	20.904820
1364.393703	-2.985900	3.525600	-10.526000	25.572589	0.000829	20.894257
1365.395647	-2.995900	3.526200	-10.563000	25.567029	0.000827	20.902896
1366.391920	-2.997500	3.526100	-10.568000	25.565926	0.000827	20.906530
1367.392488	-3.006900	3.525100	-10.599000	25.553756	0.000826	20.908533
1368.393491	-3.000500	3.525400	-10.577000	25.548222	0.000826	20.905820
1369.394291	-2.982600	3.523700	-10.509000	25.540353	0.000825	20.898867
1370.389284	-3.009800	3.523600	-10.604000	25.526818	0.000825	20.894283
1371.389642	-3.018800	3.523700	-10.636000	25.524168	0.000822	20.885933
1372.393315	-3.020800	3.522400	-10.639000	25.524902	0.000822	20.890937
1373.392793	-3.002400	3.522200	-10.573000	25.536523	0.000824	20.895494
1374.413708	-2.992200	3.523200	-10.541000	25.579120	0.000823	20.907452
1375.430576	-2.990300	3.521900	-10.530000	25.616338	0.000823	20.871815
1376.428792	-2.997800	3.522300	-10.558000	25.607762	0.000821	20.886434
1377.456862	-3.003800	3.522300	-10.578000	25.620797	0.000823	20.889093
1378.430599	-3.003500	3.520200	-10.571000	25.619118	0.000819	20.904949
1379.436763	-3.033100	3.519500	-10.674000	25.628273	0.000820	20.882852
1380.440238	-2.974000	3.522500	-10.474000	25.613112	0.000820	20.885643
1381.442449	-3.013600	3.519200	-10.605000	25.573140	0.000820	20.897655
1382.434985	-2.984100	3.519400	-10.502000	25.568391	0.000820	20.899524
1383.416234	-3.003100	3.519800	-10.569000	25.527368	0.000820	20.896732
1384.412942	-2.988000	3.520200	-10.517000	25.474486	0.000818	20.885353
1385.421346	-3.019900	3.517400	-10.622000	25.452766	0.000815	20.897206
1386.440227	-3.009400	3.519600	-10.591000	25.444293	0.000816	20.879216
1387.432552	-3.032000	3.517100	-10.662000	25.470287	0.000816	20.909584
1388.413683	-2.979300	3.518000	-10.480000	25.482906	0.000814	20.884800
1389.447832	-3.002600	3.517900	-10.562000	25.484742	0.000814	20.881428
1390.446244	-2.977500	3.518500	-10.475000	25.477240	0.000814	20.883378
1391.438606	-3.008600	3.516400	-10.578000	25.490486	0.000814	20.878662
1392.449233	-2.994500	3.517800	-10.533000	25.490933	0.000813	20.885274
1393.439491	-2.990500	3.514700	-10.510000	25.480021	0.000813	20.878584
1394.440952	-3.024700	3.514800	-10.630000	25.508928	0.000815	20.888171
1395.443882	-2.995900	3.515500	-10.530000	25.516376	0.000813	20.878583
1396.445107	-3.009800	3.516200	-10.582000	25.503000	0.000813	20.878900
1397.434509	-3.023300	3.514700	-10.624000	25.544182	0.000812	20.890858
1398.433894	-2.995400	3.514900	-10.527000	25.534712	0.000812	20.895572
1399.441502	-2.982900	3.515800	-10.485000	25.512941	0.000810	20.878453
1400.439324	-2.998600	3.513700	-10.535000	25.494159	0.000811	20.884246
1401.447351	-3.006200	3.514700	-10.566000	25.491327	0.000810	20.874765
1402.440511	-2.993400	3.513200	-10.515000	25.511708	0.000808	20.868206
1403.438211	-2.995300	3.513400	-10.523000	25.520861	0.000809	20.875500
1404.443898	-2.997200	3.511000	-10.522000	25.511288	0.000810	20.882956
1405.439754	-3.004700	3.512700	-10.553000	25.535156	0.000809	20.889381
1406.414119	-3.005700	3.512100	-10.555000	25.514934	0.000809	20.872867
1407.432648	-2.995000	3.512700	-10.520000	25.533558	0.000808	20.879242
1408.442279	-2.976300	3.512800	-10.454000	25.518896	0.000806	20.864993
1409.443213	-3.025900	3.510000	-10.620000	25.522225	0.000808	20.873077
1410.450344	-2.993000	3.511500	-10.509000	25.546515	0.000804	20.868073
1411.438959	-2.992300	3.511600	-10.506000	25.575158	0.000804	20.867441
1412.439845	-2.985400	3.509700	-10.476000	25.566869	0.000805	20.865281
1413.444285	-2.983500	3.511200	-10.474000	25.601911	0.000806	20.860645
1414.413920	-3.007600	3.509000	-10.552000	25.619668	0.000803	20.868995
1415.448452	-2.981600	3.510100	-10.464000	25.589689	0.000802	20.846001
1416.461210	-3.012100	3.506700	-10.562000	25.594882	0.000804	20.861172
1417.451138	-2.977500	3.508600	-10.445000	25.586279	0.000803	20.868178
1418.448762	-2.994900	3.507900	-10.504000	25.568967	0.000803	20.862172
1419.443095	-3.025400	3.506400	-10.608000	25.561965	0.000801	20.857985
1420.444356	-3.006600	3.508800	-10.548000	25.538331	0.000800	20.855113
1421.449785	-2.986500	3.507900	-10.475000	25.546409	0.000800	20.872708
1422.434504	-3.024700	3.506800	-10.605000	25.541452	0.000799	20.867256
1423.405391	-3.009600	3.504400	-10.547000	25.522908	0.000800	20.846263
1424.402168	-2.997400	3.503700	-10.500000	25.551473	0.000800	20.856932
1425.409440	-3.013500	3.504900	-10.561000	25.557557	0.000797	20.859249
1426.408432	-3.008100	3.505800	-10.544000	25.580508	0.000799	20.843417
1427.405579	-3.006000	3.505000	-10.535000	25.582685	0.000796	20.868836
1428.409721	-3.011900	3.502900	-10.550000	25.590842	0.000797	20.853322
1429.405789	-3.007400	3.503400	-10.535000	25.533426	0.000795	20.870575
1430.425613	-3.003300	3.504600	-10.523000	25.523196	0.000794	20.865992
1431.407400	-2.974000	3.503700	-10.420000	25.520153	0.000796	20.842549
1432.403536	-3.006200	3.502500	-10.528000	25.477685	0.000795	20.875764
1433.408643	-2.981900	3.504700	-10.450000	25.540456	0.000793	20.862463
1434.407884	-3.018300	3.501400	-10.567000	25.536599	0.000793	20.859064
1435.414251	-2.997700	3.503300	-10.500000	25.564063	0.000793	20.837808
1436.408580	-3.003600	3.503000	-10.520000	25.542369	0.000793	20.844945
1437.409831	-3.014100	3.501400	-10.551000	25.555196	0.000792	20.850239
1438.411030	-2.998500	3.500500	-10.496000	25.558292	0.000792	20.851453
1439.409895	-2.978300	3.502200	-10.429000	25.567184	0.000791	20.830986
1440.408470	-2.992300	3.501500	-10.477000	25.584889	0.000790	20.849714
1441.406028	-3.006900	3.500300	-10.524000	25.614002	0.000792	20.879899
1442.407482	-2.982300	3.501700	-10.440000	25.622263	0.000790	20.857377
1443.413971	-3.022600	3.499300	-10.576000	25.607128	0.000789	20.872048
1444.436843	-3.006300	3.497600	-10.513000	25.609306	0.000789	20.853373
1445.428894	-3.015200	3.497700	-10.545000	25.618618	0.000787	20.851820
1446.431380	-3.010800	3.498800	-10.533000	25.624675	0.000789	20.858851
1447.428856	-3.011400	3.496800	-10.530000	25.608152	0.000788	20.854111
1448.424730	-2.991800	3.498700	-10.466000	25.626328	0.000786	20.856718
1449.427701	-2.990100	3.498900	-10.461000	25.618930	0.000786	20.883900
1450.432127	-3.013600	3.496300	-10.536000	25.656908	0.000788	20.827690
1451.434383	-3.004200	3.496700	-10.503000	25.648043	0.000785	20.860036
1452.433287	-3.001200	3.497300	-10.495000	25.655833	0.000787	20.852213
1453.431221	-2.980500	3.496200	-10.419000	25.624149	0.000786	20.845048
1454.430448	-2.981000	3.495000	-10.417000	25.591365	0.000785	20.898415
1455.436855	-2.992200	3.495600	-10.458000	25.605343	0.000783	20.867885
1456.437703	-3.007500	3.495900	-10.513000	25.623677	0.000784	20.849789
1457.445600	-2.990400	3.494900	-10.449000	25.626142	0.000783	20.866963
1458.434483	-3.030200	3.493100	-10.583000	25.633092	0.000782	20.861615
1459.433280	-3.000200	3.493100	-10.479000	25.621211	0.000782	20.860588
1460.430064	-3.002200	3.493100	-10.486000	25.620371	0.000783	20.863064
1461.459272	-3.010700	3.492700	-10.513000	25.599912	0.000783	20.854371
1462.418159	-2.974300	3.494100	-10.391000	25.624147	0.000781	20.855002
1463.409922	-2.992000	3.492300	-10.448000	25.668078	0.000779	20.870675
1464.411850	-3.005800	3.492200	-10.495000	25.648776	0.000782	20.852238
1465.413178	-2.994500	3.491800	-10.455000	25.666190	0.000781	20.888691
1466.417150	-3.004900	3.491400	-10.491000	25.670517	0.000780	20.867435
1467.419982	-3.008700	3.491700	-10.504000	25.676916	0.000779	20.860112
1468.412054	-3.010900	3.490000	-10.507000	25.684286	0.000778	20.876996
1469.416484	-3.008100	3.489800	-10.497000	25.681715	0.000777	20.859242
1470.415033	-3.000500	3.490500	-10.472000	25.669861	0.000775	20.879103
1471.422839	-2.994200	3.488800	-10.444000	25.648748	0.000778	20.879234
1472.424006	-3.021700	3.488100	-10.539000	25.640013	0.000776	20.855290
1473.419765	-3.021400	3.489300	-10.542000	25.663828	0.000775	20.873519
1474.438603	-3.001700	3.488000	-10.469000	25.661808	0.000777	20.862955
1475.423627	-3.007300	3.488700	-10.491000	25.663251	0.000774	20.863930
1476.426647	-3.023200	3.486600	-10.539000	25.691131	0.000776	20.854475
1477.424656	-3.044500	3.484800	-10.608000	25.717461	0.000776	20.867644
1478.421047	-2.974100	3.488500	-10.375000	25.693044	0.000773	20.881051
1479.417411	-3.044400	3.485600	-10.609000	25.690525	0.000773	20.860030
1480.416550	-3.002900	3.484900	-10.464000	25.682787	0.000771	20.865534
1481.419838	-3.000500	3.486100	-10.459000	25.642634	0.000776	20.876888
1482.443331	-2.992500	3.486800	-10.434000	25.641532	0.000772	20.877677
1483.475566	-2.993400	3.484400	-10.429000	25.629493	0.000772	20.880284
1484.465202	-3.005300	3.484200	-10.470000	25.600615	0.000771	20.873093
1485.457506	-3.015800	3.484200	-10.505000	25.576484	0.000770	20.877307
1486.474308	-2.984500	3.484100	-10.397000	25.584564	0.000771	20.880680
1487.440688	-2.987400	3.484200	-10.406000	25.616325	0.000769	20.875121
1488.459043	-2.987600	3.483400	-10.405000	25.604077	0.000769	20.868509
1489.457101	-2.979700	3.484700	-10.383000	25.621938	0.000768	20.867956
1490.475068	-3.004500	3.481200	-10.459000	25.556183	0.000768	20.861187
1491.461071	-3.000700	3.483100	-10.451000	25.535775	0.000769	20.874356
1492.465549	-2.987400	3.483000	-10.404000	25.482947	0.000768	20.889108
1493.467422	-2.992700	3.480400	-10.415000	25.512822	0.000767	20.873117
1494.450478	-2.999900	3.481100	-10.441000	25.510121	0.000767	20.880835
1495.451252	-3.003000	3.480100	-10.450000	25.566227	0.000767	20.900195
1496.464612	-3.005600	3.480800	-10.461000	25.584902	0.000766	20.885286
1497.468547	-2.994000	3.480700	-10.420000	25.619209	0.000766	20.883232
1498.453021	-3.002800	3.480700	-10.451000	25.653541	0.000764	20.880255
1499.461899	-3.007500	3.479700	-10.463000	25.649056	0.000763	20.865321
1500.458005	-2.974000	3.479400	-10.346000	25.664295	0.000762	20.889159
1501.464684	-3.024400	3.477300	-10.515000	25.668020	0.000761	20.886736
1502.419655	-3.010000	3.478900	-10.470000	25.678718	0.000762	20.886102
1503.423707	-3.007000	3.476100	-10.451000	25.640086	0.000761	20.876700
1504.422427	-3.004600	3.478400	-10.450000	25.649948	0.000762	20.883759
1505.430747	-3.013700	3.476200	-10.474000	25.644205	0.000761	20.892688
1506.428317	-3.021800	3.476800	-10.505000	25.645830	0.000761	20.881520
1507.427779	-2.963400	3.476200	-10.300000	25.671375	0.000760	20.891529
1508.428866	-2.998000	3.476300	-10.420000	25.707410	0.000759	20.884100
1509.423519	-2.992100	3.475500	-10.397000	25.736862	0.000759	20.897087
1510.431193	-2.995000	3.475600	-10.408000	25.733846	0.000760	20.879359
1511.429255	-3.002200	3.474800	-10.431000	25.754144	0.000759	20.906858
1512.425358	-2.999700	3.475800	-10.425000	25.771191	0.000759	20.884154
1513.427976	-3.002400	3.476200	-10.436000	25.804653	0.000757	20.899273
1514.433280	-3.009400	3.473700	-10.452000	25.789943	0.000758	20.883075
1515.437324	-2.982400	3.475300	-10.364000	25.795473	0.000757	20.882467
1516.429343	-3.006300	3.474600	-10.444000	25.776122	0.000755	20.880572
1517.437557	-3.009700	3.472500	-10.450000	25.779033	0.000757	20.866902
1518.429557	-3.031900	3.472000	-10.526000	25.784487	0.000755	20.889448
1519.430463	-2.997900	3.471100	-10.405000	25.791096	0.000755	20.897035
1520.429613	-2.998000	3.472700	-10.410000	25.758552	0.000755	20.884260
1521.430175	-3.000600	3.470800	-10.413000	25.733297	0.000754	20.886868
1522.430130	-2.988100	3.471900	-10.373000	25.689789	0.000754	20.886790
1523.433618	-3.004000	3.470100	-10.422000	25.685198	0.000753	20.896402
1524.432182	-2.976700	3.471100	-10.331000	25.664558	0.000752	20.887052
1525.437752	-2.995700	3.470500	-10.396000	25.637176	0.000751	20.903172
1526.431190	-3.017700	3.469000	-10.467000	25.617243	0.000752	20.901645
1527.434234	-2.979600	3.470300	-10.339000	25.650526	0.000752	20.903304
1528.431211	-2.990700	3.468700	-10.373000	25.628338	0.000753	20.903779
1529.431294	-3.011400	3.467700	-10.442000	25.646514	0.000750	20.886947
1530.449209	-2.982700	3.468300	-10.344000	25.649819	0.000752	20.919188
1531.463761	-3.025800	3.467800	-10.492000	25.635972	0.000750	20.892954
1532.452148	-2.995400	3.467100	-10.384000	25.674158	0.000750	20.907124
1533.455462	-3.016900	3.466500	-10.457000	25.676098	0.000749	20.902435
1534.461380	-3.010200	3.465300	-10.430000	25.645229	0.000750	20.910785
1535.461643	-2.992500	3.466400	-10.372000	25.613887	0.000748	20.900171
1536.452085	-2.995600	3.466100	-10.382000	25.635998	0.000746	20.898670
1537.465109	-3.017500	3.464100	-10.452000	25.629703	0.000748	20.923640
1538.469530	-2.980600	3.465600	-10.328000	25.640903	0.000747	20.910708
1539.476685	-2.987000	3.464100	-10.345000	25.640300	0.000745	20.907732
1540.483030	-3.006900	3.464600	-10.415000	25.690446	0.000746	20.934386
1541.471049	-2.997500	3.464700	-10.384000	25.649873	0.000746	20.901225
1542.475163	-2.993400	3.464000	-10.368000	25.651894	0.000745	20.909893
1543.485403	-2.994500	3.464300	-10.373000	25.630623	0.000745	20.885212
1544.485982	-3.014400	3.463100	-10.438000	25.631436	0.000744	20.904045
1545.479413	-2.987200	3.463800	-10.345000	25.655749	0.000746	20.900015
1546.474903	-2.995800	3.462700	-10.373000	25.677622	0.000743	20.907285
1547.482368	-2.975000	3.461900	-10.298000	25.680089	0.000743	20.902650
1548.481482	-2.989200	3.462900	-10.350000	25.667081	0.000742	20.929885
1549.495187	-2.995700	3.461400	-10.368000	25.681768	0.000741	20.912396
1550.479673	-3.009900	3.460900	-10.415000	25.684968	0.000743	20.912291
1551.484910	-2.996300	3.460500	-10.367000	25.690188	0.000741	20.929860
1552.459607	-2.986300	3.461400	-10.335000	25.709569	0.000741	20.937946
1553.459927	-2.990100	3.461500	-10.350000	25.736738	0.000742	20.914978
1554.458261	-2.989200	3.458500	-10.336000	25.745130	0.000739	20.928622
1555.463192	-3.001800	3.458500	-10.381000	25.736213	0.000741	20.913502
1556.468560	-2.991100	3.460600	-10.350000	25.704480	0.000737	20.931413
1557.466304	-2.989700	3.460100	-10.344000	25.670962	0.000738	20.927620
1558.481384	-2.973000	3.458500	-10.281000	25.666818	0.000739	20.914924
1559.468538	-3.014800	3.457400	-10.423000	25.707102	0.000738	20.925512
1560.463938	-3.000600	3.457700	-10.374000	25.704244	0.000738	20.923590
1561.456276	-3.002100	3.457000	-10.377000	25.690554	0.000738	20.931176
1562.464024	-3.015100	3.457500	-10.423000	25.647173	0.000738	20.946873
1563.466034	-2.988700	3.456900	-10.330000	25.619110	0.000737	20.939551
1564.457163	-3.042000	3.454500	-10.507000	25.653652	0.000736	20.929674
1565.456506	-2.989900	3.456500	-10.334000	25.650583	0.000736	20.936074
1566.485535	-3.015400	3.455400	-10.417000	25.670620	0.000735	20.933913
1567.464617	-3.025100	3.453800	-10.446000	25.713160	0.000736	20.949138
1568.466655	-3.016800	3.454400	-10.420000	25.688219	0.000736	20.951587
1569.464001	-3.002900	3.453400	-10.370000	25.699705	0.000732	20.944634
1570.445112	-2.991500	3.454500	-10.332000	25.755015	0.000733	20.932386
1571.479609	-2.982700	3.454600	-10.303000	25.770513	0.000732	20.942736
1572.489552	-3.011200	3.451600	-10.392000	25.779586	0.000731	20.945686
1573.471001	-2.984900	3.451300	-10.300000	25.826816	0.000732	20.941446
1574.469104	-2.993400	3.452500	-10.333000	25.858414	0.000732	20.950427
1575.471269	-2.994900	3.452500	-10.339000	25.859699	0.000732	20.951244
1576.496180	-3.009400	3.451500	-10.386000	25.874199	0.000731	20.967230
1577.487634	-2.999000	3.450400	-10.346000	25.868142	0.000730	20.955931
1578.477243	-2.988800	3.452900	-10.319000	25.850599	0.000731	20.965808
1579.481976	-3.021900	3.449000	-10.422000	25.826554	0.000729	20.954457
1580.474267	-3.003700	3.449900	-10.361000	25.828493	0.000729	20.953086
1581.476808	-2.970400	3.451600	-10.252000	25.839952	0.000727	20.955114
1582.472559	-3.023000	3.447700	-10.420000	25.842129	0.000729	20.947345
1583.488317	-2.988300	3.449200	-10.306000	25.855424	0.000726	20.951216
1584.495855	-2.980800	3.447100	-10.274000	25.871079	0.000727	20.966467
1585.487386	-3.001100	3.448100	-10.347000	25.909991	0.000726	20.955772
1586.491924	-3.019700	3.446900	-10.407000	25.931598	0.000726	20.955194
1587.485186	-3.000500	3.448200	-10.346000	25.948221	0.000725	20.960987
1588.490299	-2.982000	3.448000	-10.280000	25.927900	0.000726	20.964279
1589.485352	-2.997400	3.446900	-10.331000	25.937522	0.000726	20.951189
1590.493963	-3.015100	3.446100	-10.390000	25.930260	0.000723	20.960961
1591.483029	-3.011600	3.445500	-10.375000	25.967571	0.000724	20.962883
1592.485198	-3.019800	3.444700	-10.401000	25.965447	0.000724	20.965016
1593.495322	-3.009500	3.444700	-10.366000	25.922997	0.000725	20.974051
1594.495337	-3.004400	3.443000	-10.343000	25.929552	0.000723	20.973525
1595.490664	-2.995000	3.443900	-10.313000	25.883351	0.000723	20.946555
1596.495440	-2.996600	3.443700	-10.318000	25.846508	0.000723	20.967388
1597.488127	-3.004500	3.442200	-10.341000	25.827496	0.000723	20.968678
1598.496837	-3.002400	3.443400	-10.337000	25.832740	0.000720	20.974893
1599.494887	-3.001400	3.444300	-10.336000	25.831246	0.000723	20.972444
1600.491195	-2.992100	3.442400	-10.298000	25.822251	0.000720	20.955351
1601.486428	-2.993500	3.444600	-10.311000	25.801088	0.000720	20.979608
1602.497816	-3.020900	3.440800	-10.394000	25.808379	0.000720	20.972708
1603.493558	-2.992500	3.442500	-10.301000	25.822200	0.000718	20.974737
1604.489166	-2.978800	3.441700	-10.251000	25.839062	0.000719	20.970338
1605.486989	-2.976200	3.442400	-10.243000	25.827732	0.000718	20.967019
1606.493152	-2.984900	3.442200	-10.274000	25.838064	0.000718	20.962225
1607.499544	-3.005700	3.441400	-10.343000	25.842942	0.000716	20.988933
1608.502731	-2.990900	3.442500	-10.294000	25.866306	0.000715	20.969258
1609.495567	-2.998700	3.439300	-10.312000	25.853510	0.000717	20.967783
1610.492972	-2.975800	3.439500	-10.234000	25.853850	0.000715	21.001310
1611.494167	-3.006100	3.437300	-10.331000	25.883692	0.000718	20.994780
1612.515152	-3.002100	3.438800	-10.322000	25.896776	0.000715	20.979003
1613.486125	-2.993600	3.438900	-10.293000	25.907658	0.000713	20.987563
1614.506272	-3.005600	3.438500	-10.334000	25.929632	0.000714	20.993516
1615.499094	-3.001500	3.437800	-10.318000	25.923261	0.000713	20.972420
1616.503204	-2.990700	3.437600	-10.280000	25.955249	0.000714	20.991277
1617.493804	-2.995200	3.436600	-10.292000	25.945862	0.000711	20.981374
1618.502068	-2.970300	3.437200	-10.208000	25.928112	0.000713	20.993412
1619.505308	-3.004200	3.435800	-10.321000	25.890511	0.000712	21.004473
1620.511692	-2.997400	3.435800	-10.297000	25.865232	0.000711	20.993305
1621.505492	-3.008500	3.434700	-10.332000	25.875275	0.000710	20.983007
1622.497025	-3.014400	3.436200	-10.357000	25.866648	0.000710	20.988091
1623.495456	-3.013800	3.434700	-10.351000	25.888177	0.000709	21.003077
1624.496679	-3.005800	3.435000	-10.324000	25.853643	0.000709	20.996835
1625.489762	-2.985300	3.433500	-10.249000	25.867618	0.000710	20.999021
1626.508174	-3.009500	3.431700	-10.326000	25.847138	0.000707	20.989354
1627.505665	-3.014100	3.432400	-10.344000	25.837490	0.000707	20.975871
1628.508147	-2.992700	3.433000	-10.273000	25.863582	0.000707	20.992596
1629.501072	-3.003000	3.432600	-10.307000	25.866596	0.000707	21.007475
1630.509918	-3.002600	3.432900	-10.307000	25.847138	0.000706	21.002154
1631.504620	-2.994300	3.432700	-10.277000	25.837359	0.000707	21.013665
1632.501746	-2.978800	3.431400	-10.221000	25.835444	0.000707	21.011742
1633.501627	-3.005100	3.432500	-10.313000	25.842341	0.000706	20.999706
1634.498562	-2.984100	3.431900	-10.240000	25.844622	0.000706	21.000101
1635.506092	-2.992300	3.430500	-10.264000	25.880835	0.000704	20.994281
1636.499779	-2.994000	3.430300	-10.269000	25.892923	0.000707	20.996466
1637.516197	-3.012500	3.429500	-10.331000	25.871211	0.000703	21.024910
1638.513100	-3.006800	3.429100	-10.309000	25.831641	0.000706	21.021671
1639.515194	-2.984400	3.429900	-10.235000	25.771589	0.000702	21.018721
1640.496747	-3.022800	3.426800	-10.357000	25.771326	0.000704	20.998072
1641.512709	-2.997400	3.427900	-10.273000	25.737655	0.000703	20.999338
1642.500563	-3.017000	3.426300	-10.335000	25.701017	0.000701	21.002366
1643.506529	-2.987700	3.428200	-10.241000	25.686669	0.000702	20.996966
1644.509711	-3.005000	3.426700	-10.296000	25.694880	0.000703	21.010900
1645.502172	-3.016900	3.425800	-10.333000	25.707206	0.000700	21.033707
1646.506797	-3.021600	3.425400	-10.349000	25.724751	0.000699	21.025253
1647.539050	-3.019700	3.425700	-10.344000	25.748328	0.000700	21.035182
1648.502535	-2.993700	3.425800	-10.255000	25.792018	0.000698	21.021224
1649.504262	-2.996200	3.425800	-10.264000	25.811739	0.000697	21.024911
1650.516939	-3.001100	3.426000	-10.281000	25.789843	0.000696	21.018091
1651.505034	-3.026200	3.422900	-10.357000	25.747333	0.000698	21.023753
1652.513140	-3.019800	3.423600	-10.338000	25.781898	0.000696	21.000156
1653.522589	-3.010700	3.423400	-10.306000	25.783444	0.000694	21.023991
1654.517371	-3.020100	3.423100	-10.337000	25.788480	0.000696	21.011507
1655.504493	-2.981600	3.422800	-10.205000	25.792256	0.000697	20.996811
1656.518287	-3.020100	3.421800	-10.333000	25.805053	0.000696	21.035263
1657.508492	-2.994100	3.423500	-10.249000	25.813679	0.000695	21.006949
1658.501045	-3.009600	3.421700	-10.296000	25.827736	0.000695	21.012534
1659.519940	-3.004200	3.421700	-10.278000	25.828470	0.000695	21.021804
1660.501823	-2.986300	3.421800	-10.217000	25.852230	0.000693	21.001105
1661.510412	-3.002800	3.420000	-10.268000	25.850210	0.000693	21.000025
1662.525930	-3.032900	3.418300	-10.366000	25.850419	0.000691	20.998813
1663.512966	-2.985500	3.419200	-10.207000	25.869116	0.000692	20.996258
1664.513920	-2.994500	3.420300	-10.242000	25.900164	0.000692	21.003739
1665.516272	-3.019300	3.419400	-10.323000	25.904726	0.000694	20.984144
1666.512289	-2.976500	3.419900	-10.179000	25.954413	0.000692	20.996600
1667.516357	-3.011400	3.419200	-10.295000	25.928114	0.000691	20.985829
1668.519667	-3.016500	3.417700	-10.308000	25.927171	0.000689	21.012852
1669.511954	-3.022800	3.416200	-10.325000	25.958321	0.000690	20.982985
1670.520981	-2.990500	3.419700	-10.225000	25.970382	0.000689	20.996996
1671.521983	-3.005800	3.418000	-10.274000	25.966658	0.000690	20.995152
1672.507761	-2.992400	3.417400	-10.224000	25.970408	0.000689	21.001763
1673.517559	-2.984800	3.417900	-10.201000	25.989968	0.000689	20.976374
1674.514108	-2.983400	3.416700	-10.192000	25.980503	0.000688	20.967815
1675.514140	-2.996100	3.415400	-10.232000	25.987687	0.000688	20.976453
1676.512672	-3.009800	3.417000	-10.284000	25.939967	0.000687	20.962178
1677.516016	-2.976200	3.417500	-10.170000	25.981499	0.000685	20.978297
1678.505679	-3.001800	3.414900	-10.249000	25.994714	0.000686	20.982564
1679.515100	-3.000200	3.415100	-10.245000	25.998962	0.000686	20.957438
1680.518432	-2.996400	3.414500	-10.230000	25.963119	0.000683	20.977849
1681.530420	-3.000200	3.414700	-10.244000	25.932100	0.000684	20.969447
1682.532549	-2.989500	3.415000	-10.209000	25.950010	0.000684	20.968474
1683.519863	-3.006500	3.412200	-10.258000	25.947257	0.000685	20.969501
1684.519704	-3.000500	3.412200	-10.237000	25.976203	0.000685	20.968710
1685.510634	-3.001500	3.413800	-10.245000	25.971616	0.000684	20.953672
1686.525968	-3.006700	3.412300	-10.258000	26.001742	0.000685	20.959756
1687.517637	-2.988300	3.411200	-10.192000	26.011153	0.000682	20.955936
1688.515833	-3.001800	3.411800	-10.240000	26.019491	0.000682	20.950089
1689.519295	-3.011400	3.410400	-10.269000	26.012755	0.000681	20.956123
1690.526918	-3.003400	3.411400	-10.245000	25.995031	0.000680	20.972927
1691.523376	-2.994700	3.410500	-10.211000	25.976887	0.000682	20.960863
1692.525499	-3.011800	3.410000	-10.269000	25.999435	0.000677	20.974507
1693.519598	-2.980400	3.409800	-10.162000	25.988633	0.000679	20.948010
1694.514987	-2.998500	3.410000	-10.223000	25.914666	0.000678	20.966631
1695.522606	-3.006100	3.408300	-10.245000	25.860571	0.000678	20.957809
1696.514143	-2.984200	3.408800	-10.171000	25.826639	0.000678	20.967343
1697.514627	-2.991500	3.408300	-10.196000	25.806735	0.000677	20.941663
1698.528594	-2.985700	3.408100	-10.174000	25.824619	0.000675	20.953936
1699.529270	-3.013800	3.407900	-10.270000	25.801228	0.000676	20.956044
1700.524899	-3.006300	3.406800	-10.241000	25.807102	0.000676	20.957676
1701.521249	-2.987300	3.408300	-10.181000	25.837338	0.000676	20.940636
1702.535714	-2.996700	3.405500	-10.205000	25.823885	0.000676	20.939924
1703.513163	-3.021100	3.406400	-10.290000	25.838019	0.000675	20.958862
1704.528289	-3.008600	3.405400	-10.244000	25.842137	0.000674	20.941663
1705.525488	-3.006700	3.405800	-10.239000	25.869014	0.000673	20.953488
1706.521944	-2.990200	3.404800	-10.180000	25.890752	0.000672	20.947825
1707.520335	-3.014400	3.405000	-10.262000	25.917104	0.000673	20.963865
1708.525705	-2.987800	3.405000	-10.173000	25.918940	0.000675	20.941057
1709.521475	-3.031300	3.403300	-10.316000	25.901293	0.000673	20.953199
1710.522344	-3.005700	3.404200	-10.232000	25.920697	0.000672	20.943296
1711.525071	-2.996400	3.404800	-10.201000	25.934148	0.000672	20.942110
1712.514762	-2.996900	3.404700	-10.203000	25.973268	0.000671	20.956280
1713.529898	-3.017500	3.403800	-10.269000	25.980426	0.000672	20.943084
1714.534261	-3.006300	3.402000	-10.227000	25.992618	0.000669	20.941109
1715.538723	-3.023600	3.402700	-10.287000	25.990653	0.000671	20.975166
1716.519056	-3.004100	3.402000	-10.219000	25.993353	0.000670	20.966974
1717.517385	-3.014300	3.400600	-10.250000	26.008638	0.000669	20.951039
1718.532426	-2.973200	3.402800	-10.116000	26.018942	0.000667	20.951434
1719.524785	-2.977600	3.401600	-10.127000	26.034280	0.000668	20.945034
1720.519016	-3.005200	3.400900	-10.218000	26.041044	0.000669	20.946614
1721.522742	-2.985500	3.400700	-10.152000	26.000956	0.000667	20.923884
1722.522463	-2.975100	3.401300	-10.118000	25.992514	0.000667	20.927730
1723.524494	-2.990800	3.399400	-10.166000	26.003421	0.000666	20.929205
1724.536942	-2.980600	3.401100	-10.136000	26.012965	0.000666	20.921725
1725.521434	-2.977000	3.400700	-10.123000	26.018287	0.000665	20.936079
1726.533650	-2.985600	3.399200	-10.148000	26.019730	0.000664	20.929469
1727.540923	-3.002700	3.398300	-10.203000	26.036430	0.000664	20.941031
1728.523366	-3.026200	3.399000	-10.285000	25.974501	0.000665	20.938555
1729.533911	-3.001200	3.397900	-10.197000	25.950773	0.000662	20.923253
1730.536385	-3.014700	3.396900	-10.240000	25.922298	0.000661	20.924992
1731.531088	-2.988700	3.397400	-10.153000	25.888997	0.000663	20.957441
1732.519685	-2.997500	3.397000	-10.181000	25.870091	0.000660	20.948881
1733.519735	-2.979500	3.397400	-10.122000	25.858002	0.000660	20.928204
1734.524650	-3.010400	3.395600	-10.220000	25.822785	0.000660	20.926493
1735.531330	-3.019800	3.394800	-10.250000	25.819192	0.000661	20.942322
1736.537816	-2.983900	3.396500	-10.134000	25.816518	0.000661	20.950067
1737.530802	-2.995000	3.396400	-10.172000	25.826220	0.000658	20.936106
1738.533872	-3.014400	3.395400	-10.234000	25.841456	0.000658	20.942402
1739.535429	-2.997100	3.394700	-10.173000	25.880397	0.000659	20.923202
1740.534620	-3.014300	3.394000	-10.230000	25.885562	0.000657	20.939768
1741.530695	-2.993400	3.394200	-10.159000	25.907878	0.000659	20.933738
1742.533536	-3.004700	3.394700	-10.198000	25.959217	0.000657	20.951173
1743.530417	-3.003100	3.393100	-10.189000	26.014802	0.000656	20.909822
1744.538294	-2.987700	3.394000	-10.139000	25.983208	0.000657	20.938294
1745.537978	-3.008900	3.392900	-10.208000	25.981609	0.000657	20.930525
1746.539764	-2.991900	3.393000	-10.151000	25.963150	0.000655	20.929523
1747.532252	-2.989500	3.391700	-10.139000	25.963439	0.000656	20.929813
1748.536860	-3.023000	3.391000	-10.251000	25.907746	0.000654	20.934080
1749.538074	-3.000300	3.391100	-10.173000	25.898358	0.000653	20.939820
1750.526928	-3.014200	3.389700	-10.216000	25.902240	0.000655	20.935186
1751.549359	-3.024000	3.389400	-10.249000	25.888710	0.000653	20.937715
1752.540477	-2.993200	3.391600	-10.150000	25.857426	0.000653	20.925730
1753.545797	-3.018500	3.390000	-10.231000	25.852340	0.000653	20.941481
1754.546730	-2.972400	3.391000	-10.079000	25.874707	0.000652	20.928391
1755.543847	-2.991300	3.389800	-10.138000	25.898333	0.000651	20.936951
1756.535576	-2.963000	3.390300	-10.044000	25.941020	0.000651	20.927205
1757.545719	-3.000500	3.388800	-10.165000	25.947654	0.000649	20.935291
1758.543811	-2.986500	3.390200	-10.123000	25.991860	0.000650	20.922807
1759.543991	-2.996200	3.388200	-10.151000	25.991388	0.000651	20.919962
1760.554567	-3.011400	3.387900	-10.201000	25.967660	0.000648	20.902763
1761.537303	-2.996100	3.386800	-10.146000	25.986145	0.000649	20.929391
1762.540539	-2.997000	3.388600	-10.154000	25.997890	0.000649	20.924123
1763.543382	-2.990500	3.386400	-10.126000	25.970412	0.000647	20.918328
1764.537692	-3.010000	3.386700	-10.193000	25.960764	0.000647	20.929022
1765.549731	-2.995000	3.385100	-10.137000	25.919388	0.000648	20.911164
1766.544820	-2.981400	3.386400	-10.094000	25.884724	0.000646	20.908109
1767.550146	-2.975600	3.385400	-10.073000	25.881550	0.000647	20.929575
1768.539887	-2.987600	3.385700	-10.114000	25.862829	0.000644	20.930208
1769.540306	-3.022400	3.383300	-10.224000	25.896708	0.000644	20.924414
1770.539466	-3.001000	3.384300	-10.155000	25.917896	0.000646	20.931000
1771.552151	-2.994600	3.384200	-10.134000	25.918942	0.000644	20.913561
1772.538336	-3.017200	3.382700	-10.205000	25.914171	0.000645	20.911613
1773.542515	-3.004600	3.383300	-10.165000	25.921408	0.000643	20.932157
1774.545744	-3.009300	3.382500	-10.178000	25.928539	0.000642	20.918935
1775.542456	-2.997900	3.382800	-10.141000	25.900115	0.000641	20.915036
1776.544456	-2.991100	3.382400	-10.116000	25.898726	0.000640	20.897995
1777.537955	-3.019100	3.381900	-10.209000	25.879482	0.000641	20.909007
1778.565845	-2.992600	3.381100	-10.117000	25.869882	0.000640	20.914537
1779.538240	-3.000400	3.382300	-10.147000	25.884856	0.000642	20.907294
1780.557247	-2.984900	3.382000	-10.094000	25.898255	0.000639	20.904160
1781.538847	-3.015700	3.380900	-10.194000	25.949778	0.000640	20.911349
1782.554464	-3.031100	3.379500	-10.241000	25.980824	0.000638	20.911245
1783.554874	-2.984200	3.379300	-10.084000	25.959770	0.000637	20.933239
1784.543026	-2.994600	3.380200	-10.120000	25.979697	0.000640	20.916751
1785.544023	-2.995300	3.379000	-10.120000	26.011368	0.000637	20.927232
1786.542480	-2.985800	3.378500	-10.087000	25.996344	0.000637	20.915458
1787.553625	-2.986700	3.379200	-10.092000	26.013125	0.000637	20.942272
1788.555768	-3.017600	3.377300	-10.190000	26.056857	0.000636	20.925521
1789.549767	-3.014000	3.377800	-10.180000	26.043066	0.000635	20.914984
1790.542978	-3.000100	3.378000	-10.133000	26.065561	0.000634	20.897759
1791.551091	-2.995900	3.377500	-10.117000	26.063411	0.000637	20.928786
1792.546659	-3.001400	3.377400	-10.136000	26.063646	0.000634	20.898205
1793.542461	-2.991400	3.377500	-10.103000	26.087688	0.000634	20.918567
1794.550100	-2.969500	3.378800	-10.032000	26.077305	0.000635	20.920462
1795.541994	-2.996700	3.377100	-10.119000	26.069363	0.000634	20.901579
1796.556490	-2.981700	3.377800	-10.070000	26.030141	0.000633	20.920016
1797.546196	-2.998400	3.374700	-10.118000	26.025291	0.000633	20.927944
1798.554978	-2.988100	3.374800	-10.084000	26.025316	0.000632	20.890989
1799.549477	-2.984400	3.375700	-10.074000	26.026706	0.000632	20.913247
1800.544622	-2.995600	3.376000	-10.112000	26.052190	0.000632	20.903290
1801.555592	-2.980700	3.375600	-10.060000	26.082497	0.000631	20.907663
1802.548499	-2.974900	3.374300	-10.037000	26.100797	0.000631	20.909928
1803.540679	-2.977200	3.374900	-10.047000	26.112778	0.000630	20.920543
1804.550740	-3.000600	3.373900	-10.123000	26.118546	0.000628	20.897891
1805.543269	-2.981600	3.374900	-10.062000	26.124943	0.000631	20.913801
1806.546995	-2.997500	3.373100	-10.109000	26.120959	0.000629	20.938244
1807.536612	-3.000200	3.373500	-10.119000	26.060081	0.000629	20.916907
1808.528305	-3.018800	3.373000	-10.180000	26.037536	0.000626	20.909903
1809.533087	-2.986900	3.372400	-10.071000	25.991968	0.000626	20.933345
1810.534401	-3.029400	3.370900	-10.211000	26.004972	0.000626	20.899472
1811.534075	-3.001600	3.372200	-10.122000	26.029304	0.000626	20.892625
1812.530701	-3.005400	3.372000	-10.133000	26.010216	0.000626	20.904740
1813.540291	-3.013400	3.369300	-10.153000	26.019341	0.000624	20.882141
1814.531476	-2.986300	3.371600	-10.068000	26.011606	0.000624	20.903766
1815.537539	-2.962400	3.371800	-9.987700	25.976079	0.000624	20.910272
1816.532598	-2.987600	3.370000	-10.067000	25.988428	0.000621	20.878111
1817.532758	-2.995500	3.370200	-10.094000	26.006285	0.000622	20.909325
1818.538739	-2.982800	3.370300	-10.051000	26.053293	0.000623	20.886856
1819.545606	-3.020600	3.367200	-10.170000	26.087428	0.000624	20.911194
1820.544799	-2.995000	3.367600	-10.085000	26.093773	0.000621	20.900501
1821.534494	-3.002400	3.367900	-10.110000	26.098991	0.000620	20.909062
1822.537868	-3.015500	3.367000	-10.153000	26.107825	0.000621	20.902292
1823.540099	-2.996100	3.367600	-10.088000	26.108113	0.000621	20.894047
1824.533872	-2.995800	3.366800	-10.084000	26.115165	0.000620	20.881220
1825.546931	-2.989600	3.367200	-10.066000	26.143820	0.000620	20.900054
1826.549972	-2.986400	3.367400	-10.054000	26.112701	0.000620	20.894864
1827.542316	-3.014400	3.364700	-10.141000	26.085463	0.000622	20.881721
1828.543553	-2.991400	3.365600	-10.066000	26.036961	0.000618	20.891310
1829.541384	-2.999800	3.365100	-10.094000	26.036673	0.000618	20.900028
1830.546583	-3.000800	3.366600	-10.102000	26.060714	0.000616	20.895734
1831.540284	-3.000300	3.364100	-10.093000	26.086093	0.000616	20.893733
1832.540082	-3.004000	3.363500	-10.103000	26.074609	0.000617	20.875083
1833.543868	-2.997400	3.365400	-10.087000	26.092961	0.000617	20.899211
1834.545155	-2.989800	3.363600	-10.055000	26.045534	0.000614	20.890440
1835.552223	-2.982600	3.362900	-10.029000	26.008226	0.000615	20.912697
1836.547465	-3.021800	3.363500	-10.163000	25.988377	0.000615	20.913144
1837.557899	-2.970300	3.365700	-9.996200	25.991734	0.000613	20.877165
1838.549034	-2.997200	3.361800	-10.075000	26.017245	0.000613	20.888570
1839.541909	-2.994400	3.363600	-10.071000	25.991734	0.000611	20.898974
1840.543352	-2.979900	3.361600	-10.016000	25.975688	0.000613	20.889492
1841.552348	-3.006100	3.362800	-10.106000	25.983396	0.000610	20.884434
1842.543961	-3.000000	3.360400	-10.080000	25.937196	0.000610	20.891599
1843.541779	-3.001500	3.360600	-10.086000	25.943621	0.000611	20.876243
1844.555158	-2.990200	3.360200	-10.047000	25.919315	0.000609	20.871739
1845.541517	-2.998300	3.360200	-10.074000	25.888819	0.000611	20.891362
1846.549507	-3.009200	3.361400	-10.114000	25.912156	0.000608	20.893469
1847.545073	-2.990500	3.359400	-10.045000	25.907646	0.000609	20.881353
1848.548735	-3.006700	3.360200	-10.102000	25.923457	0.000609	20.890598
1849.560372	-3.000600	3.359900	-10.081000	25.920757	0.000608	20.877455
1850.546014	-3.010600	3.358300	-10.109000	25.938535	0.000608	20.890573
1851.559509	-2.998600	3.357300	-10.065000	25.981849	0.000609	20.889044
1852.546812	-2.999500	3.358700	-10.074000	26.036935	0.000608	20.892232
1853.550838	-2.985200	3.360300	-10.030000	26.057910	0.000606	20.871582
1854.563445	-3.022000	3.357200	-10.144000	26.039112	0.000605	20.886358
1855.551783	-2.995000	3.359000	-10.058000	26.052876	0.000607	20.871265
1856.560601	-2.971900	3.358600	-9.980000	26.055000	0.000604	20.889994
1857.548703	-2.997800	3.357500	-10.064000	26.078518	0.000605	20.868106
1858.551183	-2.984000	3.358000	-10.019000	26.096869	0.000603	20.881802
1859.559701	-2.998700	3.356800	-10.065000	26.126310	0.000604	20.883883
1860.547097	-2.988000	3.356200	-10.026000	26.122718	0.000604	20.882644
1861.564014	-3.022900	3.355600	-10.142000	26.138554	0.000602	20.878642
1862.570605	-3.009200	3.355100	-10.094000	26.173760	0.000602	20.873242
1863.545819	-3.007200	3.354300	-10.085000	26.204011	0.000602	20.890363
1864.554183	-2.990900	3.355800	-10.035000	26.226162	0.000602	20.872320
1865.570492	-2.974400	3.353700	-9.974400	26.204089	0.000600	20.872425
1866.552339	-2.982300	3.354400	-10.003000	26.166943	0.000600	20.874927
1867.549515	-2.989400	3.354600	-10.027000	26.125628	0.000602	20.877509
1868.557099	-3.000200	3.353000	-10.059000	26.106176	0.000599	20.867447
1869.544420	-2.989900	3.353200	-10.025000	26.096580	0.000599	20.865866
1870.559223	-3.011000	3.353700	-10.097000	26.118053	0.000599	20.865156
1871.553793	-2.997400	3.353400	-10.050000	26.175227	0.000598	20.879931
1872.551392	-3.001200	3.352600	-10.060000	26.182804	0.000597	20.871898
1873.558134	-2.994200	3.350100	-10.029000	26.187836	0.000596	20.851826
1874.557541	-2.975400	3.352300	-9.973300	26.184245	0.000597	20.881407
1875.552342	-2.983900	3.350100	-9.994600	26.180995	0.000596	20.868658
1876.549346	-2.992000	3.351900	-10.028000	26.133519	0.000595	20.874057
1877.547100	-3.016000	3.350700	-10.105000	26.117344	0.000595	20.868711
1878.550436	-3.008200	3.350500	-10.077000	26.094955	0.000594	20.861863
1879.553740	-3.004500	3.349700	-10.064000	26.101640	0.000595	20.860993
1880.555135	-2.983700	3.348800	-9.990800	26.078831	0.000596	20.865576
1881.564054	-2.989100	3.349800	-10.012000	26.100538	0.000595	20.863678
1882.549103	-3.007700	3.348100	-10.070000	26.062865	0.000593	20.850957
1883.556959	-2.981800	3.348900	-9.985600	26.120724	0.000594	20.883960
1884.555577	-2.994800	3.347700	-10.025000	26.102217	0.000592	20.873426
1885.558062	-3.026600	3.348800	-10.134000	26.110317	0.000592	20.856909
1886.571106	-2.995400	3.347800	-10.027000	26.081348	0.000592	20.877112
1887.568893	-2.994000	3.347400	-10.021000	26.071753	0.000590	20.849455
1888.561613	-3.030900	3.345500	-10.138000	26.051800	0.000589	20.865443
1889.571017	-3.020500	3.345400	-10.103000	26.024167	0.000589	20.867551
1890.565400	-2.991400	3.347100	-10.012000	26.010741	0.000591	20.861649
1891.557508	-2.975700	3.347500	-9.960200	26.001461	0.000589	20.868446
1892.557474	-3.002900	3.345900	-10.047000	25.975084	0.000587	20.859964
1893.569327	-2.980200	3.346200	-9.970900	25.999965	0.000587	20.879270
1894.578350	-3.019800	3.344500	-10.099000	26.054211	0.000587	20.852693
1895.568451	-3.015300	3.345200	-10.087000	26.066113	0.000586	20.837152
1896.560552	-2.974200	3.344800	-9.947300	26.091964	0.000587	20.850797
1897.555271	-3.003100	3.344600	-10.042000	26.106251	0.000587	20.858040
1898.561468	-3.016300	3.343400	-10.084000	26.134748	0.000583	20.847793
1899.561762	-2.991400	3.345000	-10.005000	26.149507	0.000583	20.850295
1900.562407	-3.000600	3.342100	-10.027000	26.134564	0.000585	20.845237
1901.558902	-2.987200	3.342500	-9.983700	26.167306	0.000582	20.861068
1902.551845	-2.977700	3.344500	-9.957100	26.207309	0.000583	20.854799
1903.559338	-2.986800	3.343400	-9.984800	26.219079	0.000583	20.853350
1904.547825	-2.994100	3.342600	-10.007000	26.222435	0.000582	20.830170
1905.545340	-2.987200	3.342200	-9.982800	26.237062	0.000579	20.844394
1906.551151	-2.989700	3.340400	-9.985600	26.250850	0.000581	20.843077
1907.556918	-2.979800	3.341300	-9.954600	26.291688	0.000581	20.848081
1908.553259	-2.987500	3.340600	-9.979100	26.285712	0.000581	20.825481
1909.548036	-2.983600	3.341600	-9.969500	26.310011	0.000580	20.837098
1910.547972	-3.003800	3.339900	-10.032000	26.317638	0.000580	20.837651
1911.543707	-3.009300	3.339400	-10.048000	26.324531	0.000577	20.848845
1912.545847	-3.023900	3.338200	-10.093000	26.350086	0.000578	20.861252
1913.552228	-3.035500	3.338900	-10.134000	26.312003	0.000578	20.859488
1914.545964	-2.992400	3.338000	-9.987200	26.289670	0.000578	20.855536
1915.546339	-3.021900	3.337800	-10.085000	26.256041	0.000576	20.846871
1916.550666	-3.008000	3.338000	-10.040000	26.231059	0.000577	20.856853
1917.542572	-3.000700	3.339200	-10.019000	26.203638	0.000575	20.857273
1918.567224	-3.000700	3.337000	-10.012000	26.147985	0.000576	20.853034
1919.573162	-2.991200	3.337400	-9.980900	26.152913	0.000575	20.841391
1920.570029	-3.006600	3.336000	-10.029000	26.188278	0.000573	20.871236
1921.577888	-2.983600	3.336500	-9.953800	26.185185	0.000573	20.868601
1922.569965	-2.988600	3.337200	-9.972900	26.185944	0.000572	20.869364
1923.573886	-3.014300	3.336000	-10.055000	26.157186	0.000572	20.869391
1924.563096	-2.999700	3.335900	-10.005000	26.174987	0.000572	20.876845
1925.564575	-3.006400	3.334500	-10.024000	26.148562	0.000573	20.855984
1926.575459	-3.025100	3.333500	-10.083000	26.165707	0.000571	20.855668
1927.569329	-2.978000	3.335200	-9.931100	26.150056	0.000572	20.857011
1928.568069	-2.989900	3.333900	-9.967600	26.176087	0.000572	20.864201
1929.558491	-3.032600	3.332200	-10.104000	26.206968	0.000570	20.842129
1930.584147	-2.999300	3.333700	-9.998000	26.203693	0.000571	20.850216
1931.581468	-2.992500	3.332600	-9.971000	26.242278	0.000571	20.852007
1932.575353	-2.989500	3.332500	-9.961900	26.231137	0.000568	20.854561
1933.569064	-3.032800	3.330200	-10.099000	26.203166	0.000568	20.871023
1934.580703	-2.992600	3.334100	-9.976100	26.168327	0.000570	20.864464
1935.546144	-3.004700	3.330600	-10.006000	26.139779	0.000569	20.862331
1936.555736	-3.011600	3.332100	-10.033000	26.118858	0.000568	20.846052
1937.551255	-3.014700	3.330900	-10.040000	26.133093	0.000565	20.859406
1938.550410	-2.983900	3.331300	-9.938500	26.106536	0.000566	20.855955
1939.551065	-3.001800	3.329900	-9.994100	26.113221	0.000565	20.843232
1940.561156	-3.013200	3.330200	-10.033000	26.120954	0.000565	20.868545
1941.552643	-2.994400	3.329600	-9.969500	26.140091	0.000565	20.874497
1942.580725	-3.006700	3.327400	-10.004000	26.168692	0.000564	20.859141
1943.576923	-3.007000	3.329900	-10.012000	26.205942	0.000563	20.868122
1944.555743	-2.982300	3.329600	-9.928200	26.229744	0.000562	20.858377
1945.562401	-2.987200	3.330200	-9.947100	26.249614	0.000563	20.846576
1946.574739	-2.991400	3.329200	-9.956900	26.272890	0.000561	20.865699
1947.590970	-3.002000	3.328300	-9.990600	26.271212	0.000562	20.871599
1948.571370	-3.008500	3.326900	-10.008000	26.246860	0.000561	20.885058
1949.576433	-3.001100	3.329000	-9.990000	26.277529	0.000560	20.884584
1950.585997	-3.010500	3.326400	-10.013000	26.266048	0.000559	20.848867
1951.575548	-3.019700	3.324800	-10.038000	26.243242	0.000559	20.863406
1952.582367	-2.999900	3.327600	-9.981400	26.249481	0.000559	20.880106
1953.581027	-3.018300	3.326000	-10.039000	26.226807	0.000559	20.860640
1954.579796	-3.019800	3.325000	-10.040000	26.203265	0.000559	20.873019
1955.563296	-2.975400	3.325200	-9.892500	26.161821	0.000558	20.883530
1956.590863	-3.002500	3.324500	-9.980700	26.142448	0.000559	20.863590
1957.577278	-2.992100	3.325800	-9.948600	26.157259	0.000556	20.860930
1958.582061	-2.997500	3.324800	-9.965200	26.160275	0.000559	20.881976
1959.590406	-2.996100	3.323900	-9.957500	26.154087	0.000557	20.875759
1960.580624	-2.996200	3.324100	-9.959000	26.145725	0.000555	20.875891
1961.580684	-3.013500	3.321800	-10.009000	26.162659	0.000555	20.865407
1962.584741	-2.998100	3.323700	-9.963100	26.140639	0.000552	20.852764
1963.587178	-3.006600	3.322400	-9.988600	26.133929	0.000556	20.871625
1964.589499	-2.987800	3.322800	-9.926000	26.138621	0.000552	20.871124
1965.584563	-3.021000	3.322200	-10.036000	26.113480	0.000554	20.881897
1966.579671	-2.972600	3.322700	-9.874500	26.115079	0.000554	20.876866
1967.580704	-3.007800	3.320900	-9.987400	26.147612	0.000553	20.870675
1968.590690	-3.009900	3.320900	-9.993600	26.140246	0.000552	20.877972
1969.560570	-2.995300	3.321200	-9.946400	26.157363	0.000550	20.871938
1970.597788	-2.974500	3.321700	-9.878600	26.123939	0.000551	20.887664
1971.584712	-3.014500	3.320200	-10.009000	26.132721	0.000550	20.877997
1972.586259	-2.993800	3.320800	-9.941300	26.141477	0.000549	20.867830
1973.593205	-3.008400	3.318200	-9.981700	26.210867	0.000551	20.870227
1974.588828	-3.015700	3.318800	-10.008000	26.247067	0.000548	20.884318
1975.577970	-3.003800	3.318100	-9.965500	26.272887	0.000547	20.882290
1976.581561	-2.987300	3.319500	-9.916000	26.302768	0.000546	20.880552
1977.588387	-3.037600	3.316600	-10.074000	26.300567	0.000548	20.875495
1978.582763	-2.995100	3.318600	-9.938300	26.291235	0.000547	20.891720
1979.583195	-2.978800	3.319900	-9.888200	26.297159	0.000547	20.893879
1980.587183	-2.961700	3.319700	-9.831100	26.301091	0.000547	20.882659
1981.586127	-2.995800	3.317800	-9.937600	26.296503	0.000547	20.881367
1982.596004	-3.006200	3.316000	-9.966700	26.292754	0.000544	20.869066
1983.569810	-2.997600	3.316800	-9.941400	26.299123	0.000545	20.892061
1984.585169	-3.000800	3.315700	-9.947600	26.333826	0.000543	20.896590
1985.584236	-2.984700	3.316500	-9.898100	26.329397	0.000543	20.898303
1986.567112	-3.013800	3.314200	-9.987100	26.308140	0.000543	20.887372
1987.592166	-2.997400	3.315000	-9.935500	26.291914	0.000541	20.892402
1988.592040	-2.987900	3.315600	-9.905400	26.250709	0.000541	20.914528
1989.583422	-2.990100	3.314600	-9.908800	26.223525	0.000540	20.895747
1990.583200	-2.995500	3.313400	-9.923900	26.197258	0.000541	20.894008
1991.585147	-2.973500	3.314700	-9.855600	26.236711	0.000540	20.896669
1992.583487	-3.005900	3.311700	-9.952400	26.255085	0.000538	20.902331
1993.593375	-3.003200	3.313000	-9.948200	26.297132	0.000538	20.907127
1994.593683	-2.986300	3.312500	-9.890700	26.339095	0.000538	20.896669
1995.598819	-3.016600	3.311800	-9.989600	26.350260	0.000540	20.888925
1996.588036	-2.983900	3.312200	-9.882500	26.333118	0.000538	20.929540
1997.596931	-3.029500	3.310100	-10.026000	26.321428	0.000535	20.918741
1998.590466	-2.998300	3.311000	-9.925700	26.270053	0.000537	20.923535
1999.571797	-2.995200	3.310000	-9.913600	26.269765	0.000538	20.922297
2000.600178	-2.994200	3.311300	-9.913700	26.267459	0.000534	20.901490
2001.595507	-3.016800	3.310200	-9.985400	26.259150	0.000534	20.894088
2002.592547	-2.980300	3.310400	-9.864000	26.268376	0.000535	20.922798
2003.588473	-3.013700	3.308700	-9.971000	26.262688	0.000535	20.924194
2004.597548	-3.015300	3.308200	-9.974300	26.206434	0.000533	20.915081
2005.582977	-2.982500	3.310600	-9.873000	26.199540	0.000534	20.905783
2006.589495	-2.986500	3.308700	-9.880100	26.170967	0.000531	20.902675
2007.579796	-3.014400	3.306700	-9.965900	26.143284	0.000532	20.902360
2008.574816	-2.997500	3.307400	-9.913200	26.167611	0.000532	20.917320
2009.594802	-2.995100	3.307900	-9.906700	26.120974	0.000530	20.916450
2010.595743	-3.016500	3.307800	-9.976300	26.134816	0.000530	20.902860
2011.604336	-3.006100	3.307700	-9.942200	26.153953	0.000531	20.907390
2012.595284	-3.012000	3.307300	-9.960400	26.141501	0.000530	20.919059
2013.610737	-2.993200	3.305400	-9.891900	26.167742	0.000528	20.925985
2014.598041	-3.011600	3.304700	-9.950900	26.175162	0.000528	20.921588
2015.603388	-2.993100	3.306100	-9.895000	26.209345	0.000526	20.913738
2016.594003	-2.987900	3.306000	-9.876900	26.196107	0.000526	20.933624
2017.596355	-3.008100	3.305300	-9.941300	26.194954	0.000526	20.938155
2018.608483	-3.019100	3.303700	-9.972800	26.179933	0.000526	20.914055
2019.583131	-2.956900	3.305000	-9.770400	26.226828	0.000526	20.930831
2020.583622	-2.994500	3.305300	-9.896800	26.252885	0.000525	20.931886
2021.576270	-2.965500	3.304500	-9.797800	26.310447	0.000526	20.912447
2022.580226	-2.994400	3.303500	-9.891200	26.358622	0.000523	20.937153
2023.587160	-3.012700	3.302200	-9.947900	26.370784	0.000523	20.933729
2024.582796	-3.005900	3.303300	-9.928200	26.419665	0.000523	20.937338
2025.589058	-2.990300	3.302800	-9.875100	26.452110	0.000520	20.937706
2026.585969	-3.020600	3.301300	-9.970400	26.459580	0.000522	20.924354
2027.583846	-3.009800	3.303000	-9.939400	26.417567	0.000520	20.952772
2028.585331	-3.000000	3.302300	-9.905600	26.421577	0.000523	20.928356
2029.584867	-3.006200	3.299000	-9.915600	26.376129	0.000522	20.936731
2030.602818	-2.997200	3.301000	-9.891400	26.394844	0.000521	20.934204
2031.584520	-2.987700	3.301200	-9.862000	26.409048	0.000518	20.939944
2032.589510	-3.018100	3.299700	-9.958200	26.439765	0.000518	20.938574
2033.586559	-2.949600	3.301200	-9.736300	26.426216	0.000517	20.944870
2034.586213	-2.994600	3.297900	-9.875300	26.390886	0.000518	20.941604
2035.582027	-3.021500	3.299000	-9.966000	26.362998	0.000518	20.956247
2036.585532	-3.001600	3.299100	-9.901900	26.358856	0.000515	20.959671
2037.584911	-3.015600	3.298600	-9.946100	26.389915	0.000516	20.939206
2038.586455	-3.004200	3.298400	-9.908300	26.405223	0.000514	20.935626
2039.583491	-3.002500	3.297500	-9.900000	26.450327	0.000515	20.943974
2040.583488	-3.000700	3.297900	-9.894200	26.475930	0.000517	20.950267
2041.588860	-2.986900	3.297200	-9.848000	26.466864	0.000514	20.944001
2042.586395	-2.998600	3.297800	-9.887900	26.455253	0.000514	20.965992
2043.589513	-3.016200	3.295500	-9.938700	26.450430	0.000512	20.931751
2044.589302	-2.992600	3.296800	-9.865600	26.463849	0.000511	20.956141
2045.620781	-2.999400	3.295500	-9.882500	26.435388	0.000513	20.955984
2046.593481	-2.981800	3.296700	-9.828600	26.391698	0.000510	20.947635
2047.588115	-3.014200	3.295200	-9.932000	26.363181	0.000510	20.967335
2048.586412	-2.997400	3.295400	-9.875400	26.332462	0.000510	20.964438
2049.586249	-2.983700	3.295100	-9.830800	26.311179	0.000508	20.959171
2050.594349	-2.981500	3.294600	-9.821700	26.290236	0.000508	20.959935
2051.592752	-2.991500	3.294200	-9.853900	26.314403	0.000509	20.959092
2052.592908	-3.017300	3.292200	-9.932100	26.298388	0.000507	20.950584
2053.590683	-2.966100	3.294800	-9.771500	26.308244	0.000506	20.957643
2054.610511	-2.990400	3.293000	-9.846400	26.268507	0.000507	20.952797
2055.610146	-3.034900	3.290500	-9.986100	26.314325	0.000506	20.968021
2056.616876	-2.998400	3.292400	-9.870900	26.293121	0.000505	20.963307
2057.608122	-2.996400	3.290500	-9.859000	26.312307	0.000505	20.949400
2058.618297	-2.977900	3.293100	-9.805200	26.348137	0.000504	20.973552
2059.614195	-3.007900	3.291400	-9.899200	26.403597	0.000504	20.988038
2060.616253	-3.001200	3.291100	-9.877000	26.431299	0.000502	20.971313
2061.612773	-2.998200	3.289900	-9.862900	26.425795	0.000503	20.975737
2062.615490	-3.013800	3.289700	-9.912900	26.406977	0.000501	20.982427
2063.615795	-3.000800	3.290700	-9.874000	26.425455	0.000501	20.992936
2064.604818	-2.991100	3.290500	-9.841300	26.414840	0.000502	20.971365
2065.615970	-3.020400	3.288000	-9.929700	26.413609	0.000501	20.963017
2066.606873	-3.008600	3.289500	-9.895400	26.442150	0.000500	20.977950
2067.610281	-2.985700	3.287700	-9.814500	26.471371	0.000499	20.983613
2068.600090	-3.002000	3.289000	-9.872800	26.491107	0.000498	20.975950
2069.593042	-2.996600	3.288700	-9.852900	26.502376	0.000498	20.959304
2070.597717	-3.000300	3.287500	-9.862100	26.536994	0.000497	20.969918
2071.594949	-2.985300	3.288500	-9.816100	26.532172	0.000498	20.988302
2072.596920	-3.012100	3.286200	-9.897300	26.496452	0.000495	20.985589
2073.611831	-3.006700	3.286600	-9.879800	26.495667	0.000496	20.996651
2074.614313	-2.987300	3.286500	-9.816800	26.459475	0.000496	20.999154
2075.616974	-2.988300	3.286300	-9.819100	26.426138	0.000494	20.986512
2076.603752	-2.995200	3.287200	-9.845100	26.440474	0.000494	20.981007
2077.600518	-2.993700	3.286900	-9.838500	26.479185	0.000496	20.977243
2078.627480	-3.016300	3.284300	-9.905800	26.471688	0.000493	20.981561
2079.597680	-2.992500	3.284400	-9.828200	26.432010	0.000491	20.984353
2080.596819	-3.000000	3.285300	-9.854600	26.416442	0.000493	20.993834
2081.599986	-3.004100	3.284100	-9.864600	26.399878	0.000492	21.005633
2082.595569	-3.013300	3.283800	-9.894000	26.424959	0.000492	20.979638
2083.623986	-3.025600	3.282300	-9.929700	26.483823	0.000491	20.997074
2084.621510	-3.006900	3.282900	-9.869900	26.516817	0.000489	20.994677
2085.614263	-2.981100	3.283800	-9.788200	26.547897	0.000491	20.989884
2086.617268	-3.011000	3.282000	-9.881500	26.593023	0.000487	20.987830
2087.618342	-3.009800	3.282600	-9.879100	26.634322	0.000488	20.989517
2088.593678	-2.996000	3.282500	-9.833700	26.636129	0.000488	20.997971
2089.618485	-3.026700	3.280000	-9.926600	26.680463	0.000490	21.000814
2090.613187	-3.033900	3.280200	-9.950700	26.693329	0.000487	21.012798
2091.615855	-2.985000	3.281500	-9.794700	26.695163	0.000487	21.013694
2092.594566	-3.007700	3.279800	-9.863400	26.650332	0.000486	20.997550
2093.615895	-3.002300	3.279300	-9.844300	26.617761	0.000483	21.002739
2094.613503	-3.039800	3.280400	-9.970300	26.598344	0.000486	21.001712
2095.624167	-3.010500	3.277800	-9.866800	26.559168	0.000484	21.006426
2096.611457	-2.991800	3.278000	-9.805700	26.568602	0.000483	20.990782
2097.616943	-2.988000	3.280400	-9.800300	26.603586	0.000484	21.007928
2098.615082	-2.983500	3.278600	-9.780200	26.631100	0.000483	21.030841
2099.626782	-3.003100	3.276100	-9.837600	26.656569	0.000482	21.000975
2100.620147	-2.984200	3.277300	-9.779400	26.706406	0.000481	21.018358
2101.624967	-2.995700	3.277300	-9.816600	26.735934	0.000481	20.999684
2102.626651	-3.007100	3.277600	-9.854900	26.750136	0.000480	21.014908
2103.606864	-3.011500	3.275500	-9.863100	26.761585	0.000478	21.028787
2104.608837	-3.011100	3.277000	-9.867000	26.755795	0.000478	21.001160
2105.607723	-3.021000	3.275500	-9.894200	26.777148	0.000477	21.014091
2106.606236	-3.008500	3.273700	-9.848500	26.795986	0.000477	21.023072
2107.604551	-3.016400	3.274400	-9.875900	26.816422	0.000477	21.019912
2108.607487	-2.993400	3.272800	-9.795700	26.834734	0.000476	21.006085
2109.605424	-2.993300	3.274000	-9.798800	26.857973	0.000477	21.013802
2110.611908	-3.013000	3.273500	-9.862200	26.898553	0.000474	21.020939
2111.607031	-2.996200	3.271800	-9.801800	26.855168	0.000475	21.036108
2112.610375	-3.003100	3.274000	-9.831300	26.838743	0.000474	21.009167
2113.609312	-3.001300	3.272000	-9.819400	26.814745	0.000475	21.045248
2114.606611	-3.025100	3.273200	-9.900900	26.802615	0.000472	21.026892
2115.626383	-3.006600	3.271500	-9.835000	26.806912	0.000472	21.037374
2116.638070	-3.011600	3.270000	-9.847100	26.843669	0.000471	21.034503
2117.636364	-3.049700	3.270000	-9.969800	26.842385	0.000469	21.029894
2118.621977	-3.002700	3.270600	-9.820000	26.865754	0.000471	21.009773
2119.609634	-3.014600	3.269200	-9.855100	26.855799	0.000469	21.023942
2120.605267	-2.993900	3.269900	-9.788700	26.839241	0.000468	21.032896
2121.611519	-2.993700	3.271500	-9.793100	26.826954	0.000468	21.034766
2122.610588	-3.012300	3.267300	-9.841300	26.804712	0.000464	21.021889
2123.612512	-3.009900	3.269500	-9.839000	26.797664	0.000466	21.035188
2124.608301	-2.982500	3.268500	-9.747300	26.800153	0.000466	21.014461
2125.607821	-2.991600	3.270600	-9.782900	26.813384	0.000467	21.023495
2126.613235	-3.011800	3.268000	-9.841200	26.810293	0.000464	21.011854
2127.610591	-3.011100	3.266000	-9.833000	26.809193	0.000466	21.014541
2128.613304	-3.000000	3.267900	-9.802800	26.855905	0.000465	21.015041
2129.625363	-3.019400	3.265500	-9.858500	26.874976	0.000463	21.006718
2130.614306	-3.005800	3.266000	-9.816100	26.859415	0.000462	20.985385
2131.611630	-2.997500	3.267000	-9.792000	26.843277	0.000461	21.020361
2132.615112	-2.997300	3.266100	-9.787800	26.818073	0.000461	21.010669
2133.610389	-2.987000	3.265000	-9.751800	26.803219	0.000460	20.995262
2134.613307	-3.000200	3.264700	-9.792400	26.780582	0.000460	21.014699
2135.616957	-2.992100	3.266200	-9.771400	26.819410	0.000460	20.985938
2136.612793	-2.990900	3.263800	-9.760700	26.806939	0.000459	21.009906
2137.634083	-2.997500	3.264600	-9.784800	26.833793	0.000459	21.011776
2138.628123	-3.004200	3.263800	-9.804200	26.799080	0.000459	21.010064
2139.639171	-3.006500	3.264600	-9.814400	26.809664	0.000458	21.010749
2140.614770	-2.996100	3.264900	-9.780500	26.810240	0.000458	20.999950
2141.617651	-3.011300	3.264300	-9.828800	26.850140	0.000454	20.996447
2142.626192	-3.022400	3.262800	-9.860700	26.829784	0.000456	20.992101
2143.614544	-2.996300	3.262800	-9.775200	26.842253	0.000454	20.981406
2144.613249	-3.015400	3.261300	-9.832800	26.851215	0.000455	20.985201
2145.612867	-3.013900	3.260000	-9.824400	26.877648	0.000452	20.997078
2146.633748	-3.010600	3.260400	-9.814300	26.831801	0.000453	20.976588
2147.633280	-2.984900	3.262200	-9.736600	26.799864	0.000453	20.994260
2148.638268	-3.019200	3.260300	-9.842100	26.811261	0.000451	20.986280
2149.632867	-3.011300	3.259500	-9.814800	26.809977	0.000451	20.993048
2150.635303	-3.005700	3.260300	-9.798700	26.826403	0.000450	20.992020
2151.646336	-2.972100	3.261200	-9.690300	26.862007	0.000450	20.996524
2152.643393	-3.018600	3.259000	-9.836700	26.884511	0.000449	20.980748
2153.638106	-3.014400	3.256900	-9.816000	26.922653	0.000451	20.956518
2154.638590	-3.002500	3.258800	-9.783400	26.959301	0.000449	20.997156
2155.638625	-2.999700	3.258300	-9.773100	26.991967	0.000447	20.997289
2156.637606	-2.990800	3.257900	-9.742200	27.023243	0.000447	20.975166
2157.638663	-3.001200	3.256600	-9.772800	27.034452	0.000445	20.994021
2158.634853	-2.991100	3.256900	-9.739700	27.044460	0.000443	20.983225
2159.636423	-3.025400	3.254100	-9.844500	26.971953	0.000444	20.989966
2160.635926	-3.005400	3.255800	-9.784300	26.931716	0.000443	20.961837
2161.635302	-3.005500	3.253500	-9.777500	26.877726	0.000443	20.974876
2162.641400	-2.973900	3.257200	-9.685000	26.847990	0.000442	20.971530
2163.629014	-3.005700	3.255100	-9.782900	26.791872	0.000442	20.974374
2164.644652	-2.975900	3.255800	-9.687600	26.773664	0.000441	20.977878
2165.636327	-3.008800	3.253100	-9.787100	26.823128	0.000440	20.979246
2166.645153	-3.004100	3.252100	-9.768800	26.860226	0.000440	20.988097
2167.644363	-3.002300	3.252700	-9.763500	26.893601	0.000437	20.957176
2168.627890	-3.031200	3.252000	-9.856500	26.920321	0.000440	20.993521
2169.627806	-3.007900	3.250500	-9.775400	26.932424	0.000437	20.987675
2170.624563	-3.017500	3.250000	-9.805900	26.942562	0.000439	20.978905
2171.630466	-3.040600	3.249200	-9.878000	26.975202	0.000437	20.977588
2172.622746	-3.010500	3.250300	-9.784100	26.968967	0.000436	20.986490
2173.628317	-3.004000	3.249800	-9.761600	26.953250	0.000437	20.956939
2174.622925	-3.006500	3.250300	-9.770600	26.978083	0.000434	20.967684
2175.625722	-2.999500	3.249300	-9.744400	26.999485	0.000432	20.971188
2176.622918	-3.001300	3.249900	-9.753200	27.016748	0.000435	20.961049
2177.619873	-2.972900	3.249400	-9.658600	27.050379	0.000434	20.975903
2178.625170	-2.984300	3.250600	-9.699600	27.025759	0.000432	20.976747
2179.619618	-2.997400	3.247800	-9.734300	26.992570	0.000434	20.956650
2180.625193	-3.004200	3.248400	-9.757500	26.958779	0.000430	20.952068
2181.626899	-2.992700	3.247200	-9.717600	26.953541	0.000430	20.955335
2182.629244	-3.029400	3.246800	-9.834300	26.881342	0.000428	20.962392
2183.627515	-3.011800	3.244500	-9.770400	26.860070	0.000428	20.968977
2184.630398	-3.013600	3.244700	-9.776600	26.851058	0.000428	20.951384
2185.630667	-3.011100	3.244500	-9.768100	26.789203	0.000426	20.977854
2186.650067	-3.016000	3.245000	-9.786500	26.779771	0.000427	20.960787
2187.648758	-3.006700	3.246400	-9.760600	26.787292	0.000426	20.961236
2188.649927	-2.996200	3.243900	-9.718900	26.824731	0.000428	20.975169
2189.643615	-2.989300	3.245300	-9.699900	26.860910	0.000425	20.966977
2190.655946	-3.006500	3.243100	-9.749500	26.902433	0.000425	20.983122
2191.652421	-3.026800	3.242900	-9.814000	26.913594	0.000423	20.977751
2192.660443	-3.006300	3.242000	-9.744800	26.904661	0.000424	20.962132
2193.650092	-3.001400	3.243500	-9.733400	26.899186	0.000421	20.965162
2194.658123	-3.008300	3.242300	-9.752600	26.926535	0.000421	20.962316
2195.641934	-3.020800	3.242300	-9.793300	26.964178	0.000421	20.973615
2196.662014	-3.009200	3.241200	-9.751600	26.945501	0.000418	20.967163
2197.636341	-3.011000	3.241300	-9.758000	26.968631	0.000418	20.964818
2198.649071	-2.993700	3.241200	-9.702500	26.934787	0.000419	20.965872
2199.664211	-2.998500	3.240800	-9.717200	26.964048	0.000419	20.961158
2200.652812	-3.004300	3.240400	-9.734400	26.969288	0.000416	20.959789
2201.649190	-3.001300	3.239000	-9.719900	26.946811	0.000418	20.968955
2202.654802	-2.992800	3.240200	-9.695700	26.943119	0.000415	20.963820
2203.656417	-3.023600	3.239500	-9.793400	26.925462	0.000417	20.952704
2204.657753	-3.018500	3.238400	-9.773700	26.908433	0.000414	20.958340
2205.651155	-3.003400	3.237400	-9.722100	26.885355	0.000413	20.951256
2206.660749	-2.988600	3.240000	-9.681800	26.892821	0.000414	20.962081
2207.656242	-2.978000	3.237400	-9.640500	26.944558	0.000413	20.961948
2208.653738	-2.996200	3.237300	-9.698800	26.954855	0.000412	20.952389
2209.654202	-2.990400	3.236100	-9.675800	26.936333	0.000412	20.948464
2210.649727	-2.994400	3.235900	-9.688700	26.993806	0.000411	20.946515
2211.662133	-3.014400	3.236200	-9.754500	26.995770	0.000410	20.955601
2212.650301	-2.991900	3.236900	-9.683900	27.010571	0.000408	20.953890
2213.667671	-2.999600	3.235900	-9.705300	27.003472	0.000409	20.952916
2214.660771	-3.003700	3.233900	-9.712800	27.017250	0.000408	20.965821
2215.656395	-2.998200	3.234100	-9.695400	26.945607	0.000406	20.953995
2216.654346	-2.987200	3.232700	-9.656100	26.926432	0.000404	20.972169
2217.644355	-3.003400	3.234200	-9.712500	26.907073	0.000405	20.956024
2218.642379	-2.983200	3.232900	-9.643500	26.873043	0.000403	20.971590
2219.643442	-3.025600	3.231200	-9.775400	26.853106	0.000405	20.959131
2220.638712	-3.000200	3.233100	-9.699100	26.817189	0.000404	20.937245
2221.638886	-3.013300	3.232800	-9.740300	26.829998	0.000401	20.955337
2222.641937	-3.003500	3.230000	-9.700100	26.862930	0.000403	20.957156
2223.671563	-3.010900	3.229800	-9.724100	26.921533	0.000403	20.946857
2224.665215	-2.960600	3.231800	-9.567200	26.955667	0.000401	20.940405
2225.660453	-2.995600	3.229700	-9.673900	26.963657	0.000400	20.961239
2226.667801	-2.988900	3.229800	-9.652600	26.995772	0.000400	20.961291
2227.664611	-3.008500	3.229100	-9.713500	27.016805	0.000399	20.930764
2228.675328	-3.021700	3.227900	-9.752500	27.030689	0.000399	20.950415
2229.666750	-3.021100	3.229500	-9.756300	27.073200	0.000399	20.963767
2230.667626	-3.032400	3.226400	-9.783000	27.060941	0.000398	20.950018
2231.645176	-3.019000	3.226200	-9.737800	27.091797	0.000395	20.963978
2232.654763	-2.994900	3.226600	-9.662300	27.069347	0.000397	20.956101
2233.654286	-2.996000	3.226500	-9.665100	27.066624	0.000396	20.962370
2234.647468	-2.984900	3.226700	-9.630200	27.058191	0.000395	20.945356
2235.648830	-3.001300	3.226300	-9.682200	27.063953	0.000394	20.962529
2236.647947	-2.991600	3.224900	-9.645200	27.037263	0.000393	20.957025
2237.653000	-2.998000	3.225200	-9.668000	27.046980	0.000396	20.931239
2238.649395	-3.009300	3.225100	-9.704600	27.049548	0.000393	20.954206
2239.651545	-2.983300	3.225600	-9.621300	27.063744	0.000391	20.964215
2240.649225	-2.999600	3.222500	-9.664000	27.089989	0.000390	20.966428
2241.647202	-2.988400	3.223100	-9.631300	27.124117	0.000390	20.953811
2242.649758	-2.992300	3.222800	-9.642300	27.128858	0.000390	20.950519
2243.650749	-2.992200	3.223600	-9.644700	27.104448	0.000389	20.939721
2244.655124	-2.998400	3.222600	-9.661400	27.063090	0.000388	20.957868
2245.658614	-2.994200	3.221000	-9.643000	27.025764	0.000387	20.942618
2246.650516	-3.000200	3.221300	-9.663700	27.000698	0.000388	20.938748
2247.680401	-2.988800	3.220100	-9.623300	26.995849	0.000386	20.957102
2248.650552	-3.002500	3.219200	-9.664000	27.024585	0.000384	20.940484
2249.669886	-3.009200	3.219400	-9.687000	27.002713	0.000387	20.950730
2250.667189	-2.995900	3.218800	-9.641400	26.975654	0.000384	20.964294
2251.653023	-2.992100	3.219000	-9.630500	26.967717	0.000383	20.932135
2252.653288	-3.006400	3.216700	-9.669300	27.000173	0.000383	20.936323
2253.653493	-2.963200	3.220200	-9.540900	27.033622	0.000383	20.952415
2254.656754	-2.982600	3.218500	-9.599100	27.046117	0.000381	20.945067
2255.653293	-2.995500	3.217400	-9.636100	27.073934	0.000380	20.951231
2256.650938	-3.028500	3.214800	-9.735000	27.066783	0.000381	20.941196
2257.670797	-3.004100	3.216200	-9.660300	27.068983	0.000380	20.925392
2258.678147	-3.008400	3.215800	-9.673600	27.067333	0.000379	20.934163
2259.676952	-3.006300	3.213900	-9.661400	27.080351	0.000380	20.950098
2260.667717	-2.994600	3.215200	-9.626000	27.059424	0.000378	20.940433
2261.676096	-3.018600	3.212900	-9.697300	27.076186	0.000376	20.954444
2262.679423	-2.979900	3.214400	-9.577900	27.118985	0.000376	20.954813
2263.674798	-2.962200	3.214700	-9.521800	27.146589	0.000376	20.947016
2264.675829	-2.988700	3.214500	-9.606600	27.136768	0.000376	20.956103
2265.679723	-2.998900	3.213500	-9.635100	27.136322	0.000374	20.944277
2266.669490	-3.013000	3.212400	-9.677200	27.086245	0.000376	20.933743
2267.673621	-2.984800	3.213400	-9.591100	27.064479	0.000373	20.944094
2268.688091	-2.995300	3.211100	-9.617700	27.024743	0.000374	20.968614
2269.677845	-3.001600	3.211100	-9.637000	26.996716	0.000373	20.939484
2270.674079	-3.019000	3.210600	-9.691600	26.983985	0.000372	20.930002
2271.675294	-3.007000	3.209400	-9.649800	27.027048	0.000372	20.909300
2272.671667	-3.002900	3.209500	-9.636600	27.100206	0.000373	20.932137
2273.677094	-2.974800	3.210500	-9.549800	27.126503	0.000369	20.945306
2274.665750	-2.987200	3.207000	-9.579000	27.166260	0.000371	20.940249
2275.675375	-2.991400	3.207800	-9.595000	27.177654	0.000370	20.934640
2276.675807	-3.003300	3.209100	-9.637100	27.156440	0.000368	20.944121
2277.655613	-2.997500	3.207400	-9.613000	27.137607	0.000368	20.938932
2278.657325	-2.991500	3.207300	-9.593100	27.122103	0.000369	20.916228
2279.656157	-2.995800	3.205800	-9.602500	27.077578	0.000369	20.934035
2280.660597	-2.977700	3.206800	-9.547200	27.062542	0.000367	20.951154
2281.672663	-3.005000	3.205800	-9.631500	27.093712	0.000365	20.942674
2282.684083	-3.022600	3.205900	-9.688700	27.124329	0.000365	20.940750
2283.678526	-2.995600	3.204000	-9.596500	27.142585	0.000365	20.949627
2284.661067	-3.019500	3.202900	-9.670500	27.184491	0.000364	20.941516
2285.667112	-3.006000	3.204400	-9.630000	27.210629	0.000362	20.947890
2286.662422	-3.001700	3.203400	-9.614800	27.215002	0.000363	20.925739
2287.655282	-3.027800	3.202000	-9.694300	27.241401	0.000362	20.943755
2288.655603	-2.996600	3.202300	-9.594700	27.177185	0.000362	20.939857
2289.655210	-2.999900	3.202500	-9.605100	27.118387	0.000360	20.939515
2290.658449	-2.999800	3.201500	-9.602200	27.099293	0.000360	20.947337
2291.660060	-3.009900	3.199500	-9.629600	27.071005	0.000361	20.944019
2292.663842	-2.998500	3.200600	-9.596300	27.055185	0.000358	20.914362
2293.666384	-2.992200	3.201300	-9.577500	27.105762	0.000359	20.926346
2294.667021	-2.992000	3.200700	-9.575300	27.128471	0.000357	20.936382
2295.667180	-3.004600	3.198600	-9.609100	27.159376	0.000356	20.925266
2296.660520	-3.004600	3.199500	-9.612500	27.186482	0.000356	20.923132
2297.658123	-2.978100	3.200600	-9.530900	27.201515	0.000356	20.928295
2298.661116	-3.028100	3.197400	-9.681400	27.192139	0.000357	20.916969
2299.659365	-2.992100	3.198500	-9.569400	27.195125	0.000355	20.934194
2300.664248	-3.004600	3.195500	-9.600300	27.150261	0.000355	20.931271
2301.660802	-2.992700	3.196200	-9.563600	27.156129	0.000355	20.927216
2302.687334	-3.007400	3.196900	-9.613400	27.157176	0.000354	20.934906
2303.663095	-3.011700	3.194100	-9.619100	27.191852	0.000352	20.894871
2304.664643	-3.001400	3.196200	-9.591100	27.198871	0.000353	20.935117
2305.668664	-3.000000	3.196300	-9.587100	27.188813	0.000353	20.927847
2306.663066	-3.008600	3.194300	-9.608400	27.179987	0.000352	20.944097
2307.667111	-3.014500	3.193400	-9.625600	27.165531	0.000349	20.904906
2308.661211	-3.013600	3.193000	-9.621700	27.182004	0.000349	20.934274
2309.670943	-3.019000	3.192000	-9.636500	27.221864	0.000349	20.929322
2310.660889	-3.005800	3.190900	-9.590300	27.273221	0.000348	20.924556
2311.664700	-2.985000	3.192700	-9.529900	27.330047	0.000348	20.906329
2312.667531	-2.999300	3.191100	-9.570600	27.368881	0.000346	20.901772
2313.665670	-2.989400	3.190900	-9.537500	27.404074	0.000346	20.908726
2314.668287	-2.993500	3.190600	-9.550800	27.420178	0.000347	20.923977
2315.666082	-2.985200	3.190600	-9.523800	27.450158	0.000344	20.923318
2316.666416	-3.007100	3.190500	-9.592800	27.485687	0.000346	20.914494
2317.688234	-3.014300	3.187700	-9.607400	27.458300	0.000347	20.912071
2318.688007	-2.985700	3.188600	-9.518600	27.467542	0.000345	20.918524
2319.692368	-3.024900	3.188300	-9.641900	27.445052	0.000343	20.918182
2320.683826	-3.005400	3.187600	-9.579200	27.360659	0.000342	20.916733
2321.695524	-2.972200	3.185800	-9.467100	27.313943	0.000341	20.905776
2322.670948	-3.009500	3.187000	-9.590900	27.253581	0.000341	20.922818
2323.670153	-2.992600	3.185300	-9.531700	27.226791	0.000342	20.908675
2324.666682	-3.010500	3.185500	-9.588300	27.201097	0.000340	20.932615
2325.667563	-2.999000	3.185700	-9.552900	27.200705	0.000341	20.922739
2326.664942	-2.987700	3.182900	-9.507600	27.197588	0.000339	20.898269
2327.671539	-3.001600	3.183100	-9.552700	27.245514	0.000339	20.923712
2328.671144	-2.999200	3.182600	-9.543600	27.306375	0.000338	20.905750
2329.668999	-3.020300	3.181600	-9.608700	27.344345	0.000338	20.908858
2330.673996	-3.001200	3.183400	-9.552400	27.392630	0.000336	20.900534
2331.672926	-3.011000	3.181700	-9.579000	27.440940	0.000337	20.920684
2332.673115	-2.991000	3.180500	-9.512000	27.470660	0.000335	20.915022
2333.670439	-3.018900	3.178600	-9.593800	27.469166	0.000335	20.924898
2334.671290	-2.978300	3.180200	-9.470000	27.426278	0.000335	20.923002
2335.668054	-3.002100	3.178800	-9.541400	27.367913	0.000334	20.911229
2336.669078	-2.989200	3.179100	-9.501500	27.325254	0.000336	20.910042
2337.673552	-3.008900	3.178400	-9.562500	27.302735	0.000334	20.911097
2338.687146	-3.015700	3.177400	-9.580800	27.284613	0.000333	20.904249
2339.691963	-3.004400	3.178100	-9.546400	27.304856	0.000333	20.904697
2340.687272	-3.004100	3.177100	-9.543000	27.344974	0.000331	20.907120
2341.692604	-3.000000	3.177600	-9.530900	27.391375	0.000332	20.916339
2342.676219	-2.994300	3.176000	-9.507600	27.366290	0.000330	20.893951
2343.671242	-2.992700	3.176200	-9.504500	27.337773	0.000329	20.896084
2344.670017	-2.997700	3.172900	-9.510800	27.326881	0.000330	20.892240
2345.678919	-3.001700	3.174900	-9.529400	27.375533	0.000327	20.889025
2346.689161	-2.971200	3.175700	-9.435400	27.341519	0.000329	20.900326
2347.671919	-3.010900	3.172400	-9.550600	27.319075	0.000326	20.914732
2348.693224	-3.008300	3.172900	-9.544900	27.347095	0.000328	20.884126
2349.678648	-2.965400	3.174700	-9.412800	27.395826	0.000327	20.880517
2350.693851	-3.006100	3.172300	-9.535900	27.382263	0.000327	20.893899
2351.706385	-2.991900	3.171700	-9.488100	27.388127	0.000327	20.893633
2352.690963	-3.022900	3.171100	-9.585100	27.418031	0.000324	20.890527
2353.690129	-2.995700	3.172600	-9.502800	27.423869	0.000325	20.897347
2354.712224	-3.000200	3.169800	-9.508900	27.434343	0.000324	20.898876
2355.707235	-3.009400	3.168100	-9.533400	27.480319	0.000322	20.884914
2356.687573	-3.003600	3.168800	-9.516300	27.466312	0.000326	20.889314
2357.696324	-3.020600	3.166100	-9.561400	27.456495	0.000323	20.874222
2358.697684	-2.992900	3.168500	-9.482100	27.456599	0.000321	20.879068
2359.705782	-3.017000	3.169000	-9.558100	27.476340	0.000320	20.888497
2360.680593	-2.997000	3.166100	-9.488000	27.498779	0.000321	20.895425
2361.692631	-3.001200	3.167400	-9.505100	27.517185	0.000321	20.894977
2362.698674	-3.009800	3.164700	-9.523400	27.471156	0.000319	20.890868
2363.698681	-3.029500	3.164700	-9.585500	27.438269	0.000321	20.890973
2364.703473	-2.997700	3.164000	-9.483500	27.397815	0.000319	20.871613
2365.700059	-2.998300	3.162400	-9.481000	27.345968	0.000320	20.874931
2366.705087	-2.995800	3.163900	-9.477700	27.375530	0.000317	20.889022
2367.698783	-2.990400	3.162900	-9.457500	27.365712	0.000318	20.876775
2368.705980	-2.998900	3.160700	-9.478100	27.369220	0.000317	20.884572
2369.694969	-3.015900	3.160800	-9.531100	27.379170	0.000314	20.889365
2370.700911	-3.007300	3.159300	-9.499400	27.425648	0.000314	20.884440
2371.698687	-3.002900	3.160500	-9.489900	27.434053	0.000315	20.892420
2372.699483	-2.989000	3.159900	-9.444500	27.395405	0.000316	20.884834
2373.702043	-2.999000	3.159500	-9.475000	27.430307	0.000316	20.873006
2374.699903	-2.992400	3.159000	-9.450600	27.446882	0.000314	20.874035
2375.695035	-3.003600	3.159500	-9.488900	27.514120	0.000314	20.889997
2376.688069	-3.004500	3.154800	-9.477600	27.522314	0.000314	20.873587
2377.687103	-3.001300	3.155800	-9.469400	27.534880	0.000314	20.878643
2378.695522	-2.986200	3.155800	-9.422500	27.584754	0.000311	20.884253
2379.706626	-3.023500	3.154000	-9.534400	27.610960	0.000312	20.872690
2380.706116	-2.996800	3.155300	-9.454700	27.645333	0.000309	20.883568
2381.706737	-2.992000	3.154200	-9.436500	27.606406	0.000311	20.883753
2382.702570	-2.988000	3.152500	-9.417400	27.593630	0.000310	20.868529
2383.710059	-2.977300	3.153500	-9.388200	27.618552	0.000310	20.868475
2384.705442	-2.972100	3.152900	-9.369500	27.640699	0.000309	20.866105
2385.719109	-2.980700	3.151200	-9.391900	27.651563	0.000309	20.879881
2386.709707	-2.979400	3.153700	-9.395600	27.634756	0.000310	20.871978
2387.702863	-3.001400	3.150300	-9.454400	27.589048	0.000308	20.872453
2388.710462	-2.990800	3.150300	-9.421500	27.608159	0.000308	20.876983
2389.708749	-2.983400	3.148800	-9.392700	27.652088	0.000308	20.898425
2390.689329	-3.003000	3.146600	-9.447600	27.651144	0.000305	20.860968
2391.685944	-2.975800	3.147100	-9.364000	27.630804	0.000307	20.850458
2392.691907	-2.967900	3.148900	-9.344400	27.635987	0.000307	20.850458
2393.684962	-3.006600	3.145100	-9.454800	27.623788	0.000307	20.863787
2394.684341	-2.965000	3.146400	-9.328100	27.659417	0.000305	20.865973
2395.684996	-2.977100	3.146300	-9.366100	27.670700	0.000304	20.851723
2396.688069	-3.016200	3.145400	-9.485500	27.676772	0.000304	20.876798
2397.686659	-3.030100	3.144000	-9.525400	27.642009	0.000304	20.861258
2398.691390	-3.009000	3.141900	-9.453200	27.581246	0.000303	20.868871
2399.690136	-2.993400	3.140700	-9.399600	27.525377	0.000303	20.864815
2400.687863	-2.993700	3.141800	-9.404800	27.497598	0.000301	20.851566
2401.694526	-2.993000	3.141500	-9.401800	27.457747	0.000302	20.878801
2402.689712	-2.968200	3.141100	-9.322400	27.414282	0.000300	20.862102
2403.690528	-3.002900	3.139500	-9.427000	27.433502	0.000299	20.843505
2404.704247	-3.047300	3.137800	-9.560500	27.446436	0.000301	20.860784
2405.686510	-2.991500	3.138200	-9.387100	27.485736	0.000300	20.846744
2406.697435	-3.015800	3.137700	-9.461000	27.494222	0.000301	20.855281
2407.693934	-3.021600	3.135900	-9.474800	27.550615	0.000299	20.846587
2408.688764	-3.022000	3.135700	-9.475500	27.548443	0.000297	20.851513
2409.695645	-2.958900	3.137400	-9.282200	27.516317	0.000298	20.846218
2410.706755	-3.006200	3.133500	-9.417700	27.504170	0.000298	20.862918
2411.692822	-3.018700	3.132100	-9.454100	27.472070	0.000298	20.861443
2412.688642	-2.993800	3.134900	-9.384000	27.490397	0.000296	20.857597
2413.693199	-3.008600	3.132900	-9.424600	27.509615	0.000297	20.843268
2414.696204	-2.956100	3.133400	-9.262100	27.531948	0.000297	20.853884
2415.687850	-2.973500	3.132100	-9.312300	27.573548	0.000299	20.862548
2416.694726	-3.005600	3.129200	-9.404200	27.584519	0.000295	20.832336
2417.693986	-2.997300	3.131100	-9.384300	27.586064	0.000298	20.832943
2418.692812	-2.983700	3.129900	-9.337400	27.577424	0.000296	20.832784
2419.694277	-3.000700	3.127400	-9.382400	27.531399	0.000295	20.845745
2420.709185	-2.949500	3.129500	-9.229000	27.494220	0.000297	20.842952
2421.718070	-2.998300	3.125600	-9.369500	27.474949	0.000293	20.842530
2422.708889	-2.986800	3.127400	-9.339500	27.436958	0.000295	20.827068
2423.721640	-2.986500	3.124500	-9.330300	27.425595	0.000294	20.826068
2424.696095	-3.005200	3.125000	-9.389600	27.428343	0.000294	20.834049
2425.719907	-3.001600	3.124200	-9.376600	27.459030	0.000292	20.826041
2426.717944	-3.005000	3.123400	-9.383900	27.489586	0.000293	20.831652
2427.711879	-2.988000	3.122400	-9.328700	27.515637	0.000293	20.832732
2428.698777	-3.007300	3.121400	-9.384500	27.541085	0.000293	20.845533
2429.696628	-2.984200	3.120100	-9.309500	27.569884	0.000292	20.833732
2430.694149	-3.011400	3.119900	-9.394500	27.566218	0.000291	20.815820
2431.701888	-2.991700	3.121100	-9.336700	27.523204	0.000293	20.839397
2432.697126	-3.004500	3.118200	-9.367200	27.511421	0.000290	20.817585
2433.700450	-3.025900	3.117300	-9.431500	27.482229	0.000290	20.814294
2434.700665	-2.990500	3.116600	-9.319900	27.489141	0.000290	20.861549
2435.698703	-2.995500	3.115800	-9.333000	27.506737	0.000290	20.841795
2436.695352	-2.987800	3.115400	-9.306800	27.519172	0.000289	20.843874
2437.701208	-2.997300	3.115200	-9.336200	27.558758	0.000289	20.827754
2438.699523	-2.978000	3.114100	-9.273200	27.592818	0.000290	20.831678
2439.694850	-2.988100	3.113400	-9.302200	27.634811	0.000290	20.808499
2440.698943	-2.974600	3.112100	-9.256300	27.625778	0.000290	20.835445
2441.697590	-2.997800	3.112200	-9.329300	27.601825	0.000290	20.829361
2442.708947	-2.998900	3.111200	-9.328600	27.603553	0.000287	20.837264
2443.704895	-2.994800	3.110200	-9.312500	27.640151	0.000287	20.822881
2444.707840	-2.989900	3.109600	-9.296300	27.679628	0.000287	20.836052
2445.700437	-2.978600	3.109400	-9.259500	27.688318	0.000287	20.819193
2446.706163	-3.003000	3.107900	-9.331700	27.699995	0.000285	20.825727
2447.704852	-3.030400	3.105700	-9.410900	27.710256	0.000288	20.849327
2448.698640	-3.028400	3.105100	-9.402100	27.703371	0.000286	20.817270
2449.702790	-3.000100	3.103700	-9.310100	27.722087	0.000286	20.828518
2450.699821	-3.022700	3.103300	-9.379000	27.731196	0.000287	20.819667
2451.703693	-2.989300	3.103100	-9.275300	27.727375	0.000286	20.832890
2452.702874	-3.011200	3.101200	-9.337600	27.739128	0.000285	20.826226
2453.701925	-2.986500	3.101500	-9.261200	27.736746	0.000284	20.842795
2454.703591	-2.994500	3.100700	-9.283900	27.739860	0.000287	20.828860
2455.709786	-2.969600	3.100200	-9.205500	27.739022	0.000285	20.843663
2456.710578	-2.991600	3.100000	-9.272400	27.731196	0.000285	20.836736
2457.703392	-2.985000	3.100100	-9.252900	27.740829	0.000283	20.806127
2458.706765	-2.998200	3.096800	-9.282200	27.754728	0.000285	20.823433
2459.703408	-2.992300	3.096800	-9.265200	27.754178	0.000285	20.825725
2460.703655	-2.996300	3.094300	-9.270300	27.709888	0.000284	20.829518
2461.702771	-3.010700	3.094700	-9.315700	27.677140	0.000284	20.835919
2462.704187	-3.013300	3.092900	-9.319000	27.629966	0.000284	20.833969
2463.705507	-2.989200	3.093200	-9.244200	27.658475	0.000282	20.812396
2464.711564	-3.010900	3.091500	-9.307000	27.678999	0.000281	20.848220
2465.712173	-2.990600	3.093000	-9.248000	27.681039	0.000282	20.847903
2466.711332	-3.034700	3.089200	-9.374100	27.692426	0.000281	20.840395
2467.706661	-3.015800	3.089400	-9.316000	27.688554	0.000282	20.850248
2468.706428	-3.021500	3.087800	-9.327900	27.687846	0.000283	20.826304
2469.703054	-3.014000	3.087600	-9.305400	27.679862	0.000280	20.851933
2470.707074	-3.011700	3.086300	-9.293200	27.682846	0.000282	20.840712
2471.710663	-2.995000	3.085800	-9.240300	27.642818	0.000279	20.839789
2472.704525	-3.001400	3.085100	-9.258600	27.662925	0.000280	20.835839
2473.710191	-2.988800	3.084700	-9.217300	27.683421	0.000280	20.852196
2474.718407	-3.028900	3.082600	-9.335700	27.747633	0.000279	20.846164
2475.707711	-2.997400	3.082100	-9.237200	27.793230	0.000281	20.836575
2476.710781	-3.016300	3.081700	-9.294200	27.815530	0.000280	20.829146
2477.712696	-3.025000	3.080600	-9.317800	27.822180	0.000279	20.832045
2478.705148	-3.025600	3.080100	-9.318400	27.821053	0.000279	20.856515
2479.708972	-2.992000	3.079300	-9.211600	27.785509	0.000278	20.844925
2480.709567	-2.959100	3.079300	-9.110600	27.772369	0.000278	20.829806
2481.709714	-3.000000	3.075100	-9.224300	27.789042	0.000279	20.840421
2482.709675	-3.014200	3.076600	-9.273100	27.828644	0.000279	20.840921
2483.707792	-3.007900	3.075900	-9.251400	27.827388	0.000279	20.849614
2484.707980	-2.986100	3.074100	-9.178500	27.799825	0.000277	20.849850
2485.709378	-2.992900	3.071600	-9.192000	27.775874	0.000278	20.824325
2486.710896	-2.989900	3.072700	-9.186600	27.787942	0.000277	20.854486
2487.710474	-3.011800	3.070900	-9.247900	27.806892	0.000279	20.858858
2488.714039	-3.002100	3.070900	-9.218200	27.851806	0.000276	20.847162
2489.712383	-3.010000	3.067600	-9.232700	27.866725	0.000277	20.835626
2490.711309	-2.992300	3.068100	-9.178900	27.847959	0.000278	20.850877
2491.716145	-3.023500	3.068600	-9.275600	27.824821	0.000276	20.835652
2492.713146	-2.986600	3.066100	-9.155800	27.805793	0.000277	20.862493
2493.715660	-2.997500	3.065100	-9.186900	27.803777	0.000278	20.848137
2494.711083	-3.006700	3.063500	-9.208900	27.744515	0.000278	20.860095
2495.719728	-3.005200	3.063100	-9.203600	27.729412	0.000279	20.849638
2496.712569	-3.026000	3.061400	-9.261900	27.769906	0.000278	20.850086
2497.715093	-3.005100	3.060200	-9.194800	27.750849	0.000278	20.847504
2498.718920	-3.008300	3.060100	-9.204600	27.765298	0.000275	20.859198
2499.714702	-2.995300	3.059100	-9.161500	27.758964	0.000276	20.854721
2500.720395	-3.030500	3.056300	-9.260800	27.764906	0.000278	20.863071
2501.716850	-3.026600	3.056700	-9.250100	27.750142	0.000276	20.858646
2502.721188	-2.992100	3.056400	-9.143800	27.776842	0.000276	20.848531
2503.724271	-2.989400	3.056000	-9.134500	27.789012	0.000274	20.831382
2504.717380	-2.991800	3.053600	-9.135000	27.793645	0.000277	20.845053
2505.723740	-2.981100	3.053700	-9.102700	27.748126	0.000275	20.879849
2506.725602	-2.956000	3.052100	-9.020800	27.702029	0.000275	20.851954
2507.725548	-2.982100	3.050800	-9.096900	27.631740	0.000275	20.838124
2508.731527	-2.996300	3.049100	-9.135400	27.595533	0.000275	20.844367
2509.721914	-2.991700	3.049100	-9.120000	27.580559	0.000274	20.857749
2510.730285	-2.982500	3.047300	-9.087400	27.567311	0.000274	20.870022
2511.722407	-3.002100	3.043900	-9.137600	27.583806	0.000275	20.854377
2512.721856	-3.003500	3.043600	-9.140800	27.629252	0.000275	20.878767
2513.726671	-2.990300	3.043100	-9.099000	27.579955	0.000274	20.848132
2514.728724	-2.979300	3.042600	-9.063500	27.591134	0.000274	20.856061
2515.723213	-3.002000	3.042800	-9.133500	27.583909	0.000274	20.851162
2516.729527	-2.984400	3.040200	-9.072000	27.640927	0.000275	20.864437
2517.728802	-2.993000	3.039500	-9.094700	27.659827	0.000272	20.857852
2518.727358	-2.984900	3.039500	-9.071600	27.689829	0.000274	20.875238
2519.729312	-2.999900	3.036300	-9.108000	27.719487	0.000274	20.877582
2520.722014	-3.019500	3.035000	-9.162000	27.698048	0.000273	20.876396
2521.725731	-3.015500	3.035300	-9.150700	27.691031	0.000272	20.866965
2522.726909	-3.014300	3.034700	-9.146700	27.705769	0.000274	20.844812
2523.728675	-2.985100	3.033200	-9.053600	27.740610	0.000274	20.863751
2524.725795	-2.986600	3.030400	-9.050000	27.733281	0.000274	20.868704
2525.728533	-3.012900	3.029500	-9.126200	27.711449	0.000273	20.886088
2526.728440	-2.989000	3.027900	-9.049200	27.702811	0.000272	20.859853
2527.737124	-2.970000	3.029100	-8.995100	27.740898	0.000271	20.855507
2528.729616	-2.983100	3.029000	-9.034100	27.816126	0.000272	20.867203
2529.731055	-3.004900	3.026200	-9.092100	27.852508	0.000273	20.892436
2530.726808	-2.991700	3.024500	-9.047000	27.907889	0.000270	20.872786
2531.734516	-2.981700	3.023300	-9.014000	27.943301	0.000272	20.872867
2532.728693	-3.007800	3.021900	-9.088200	28.008439	0.000272	20.878214
2533.729195	-2.981500	3.021300	-9.007400	28.015373	0.000273	20.865754
2534.740789	-3.008200	3.019200	-9.081500	28.048581	0.000272	20.902024
2535.735188	-2.998000	3.019400	-9.051100	28.047429	0.000272	20.876684
2536.731039	-3.035600	3.015800	-9.153300	28.057087	0.000270	20.886879
2537.733632	-2.978100	3.015600	-8.979300	28.013043	0.000271	20.880951
2538.731793	-2.999700	3.015300	-9.043500	27.989360	0.000272	20.877501
2539.732034	-2.980300	3.015200	-8.985700	28.008071	0.000270	20.893490
2540.735854	-3.012300	3.011800	-9.071900	27.973396	0.000271	20.884191
2541.730986	-3.004400	3.011000	-9.044800	27.964760	0.000270	20.875499
2542.732691	-3.006000	3.010500	-9.048300	27.903492	0.000272	20.892067
2543.740507	-3.015000	3.008700	-9.069900	27.886480	0.000272	20.881584
2544.731200	-3.024100	3.006800	-9.091800	27.857167	0.000271	20.899021
2545.732273	-3.010300	3.005600	-9.046800	27.838007	0.000269	20.877844
2546.733455	-2.998700	3.003600	-9.005900	27.847534	0.000271	20.881268
2547.738422	-2.990500	3.003200	-8.979200	27.857297	0.000271	20.881136
2548.736637	-2.990600	3.003100	-8.980500	27.858264	0.000271	20.890643
2549.734495	-3.000300	3.000400	-8.999900	27.851041	0.000273	20.902339
2550.733989	-3.011500	3.000700	-9.034700	27.796991	0.000272	20.885402
2551.738846	-3.020200	2.997700	-9.052700	27.802253	0.000270	20.901602
2552.733954	-2.991100	2.997000	-8.962800	27.817095	0.000271	20.881927
2553.737622	-3.012100	2.996000	-9.023500	27.859756	0.000270	20.871284
2554.736570	-2.998000	2.994500	-8.975600	27.884621	0.000273	20.886350
2555.738654	-2.990600	2.994300	-8.954500	27.894566	0.000272	20.902523
2556.736139	-2.968100	2.993200	-8.882500	27.896451	0.000273	20.888774
2557.735057	-2.986900	2.991600	-8.935400	27.976274	0.000270	20.897045
2558.737515	-2.999300	2.990800	-8.969600	27.976770	0.000272	20.890432
2559.735106	-3.026000	2.988300	-9.041200	27.989725	0.000272	20.871705
2560.737546	-2.998900	2.987700	-8.958700	28.000821	0.000271	20.891881
2561.735873	-2.962900	2.987200	-8.849400	28.029660	0.000269	20.905262
2562.739253	-2.996400	2.984600	-8.942500	28.043032	0.000271	20.910187
2563.742246	-2.981100	2.982700	-8.890300	28.065694	0.000271	20.905025
2564.738652	-2.977600	2.981500	-8.875200	28.080951	0.000269	20.901891
2565.743040	-2.996500	2.981000	-8.931700	28.060434	0.000270	20.913480
2566.737453	-3.029800	2.978400	-9.023400	28.096990	0.000271	20.901442
2567.736645	-3.003500	2.977600	-8.942100	28.101257	0.000270	20.902418
2568.737799	-3.002900	2.976200	-8.936900	28.119155	0.000270	20.902892
2569.736348	-3.011500	2.973600	-8.953900	28.077364	0.000271	20.902074
2570.738003	-3.033100	2.972300	-9.013900	28.064594	0.000270	20.915770
2571.738439	-3.019700	2.970200	-8.968500	28.099345	0.000271	20.907131
2572.739367	-3.014800	2.968400	-8.948300	28.114549	0.000269	20.913427
2573.737765	-2.959700	2.969200	-8.786700	28.135481	0.000269	20.911740
2574.739129	-2.982500	2.968600	-8.853100	28.186820	0.000269	20.895147
2575.736915	-2.975500	2.966800	-8.827200	28.231248	0.000269	20.920434
2576.742187	-2.973100	2.965700	-8.815900	28.257778	0.000271	20.911109
2577.739529	-3.005700	2.962700	-8.903800	28.265652	0.000267	20.919985
2578.740279	-2.993000	2.962600	-8.866300	28.243125	0.000270	20.943769
2579.740581	-2.993300	2.960100	-8.859300	28.225830	0.000269	20.914032
2580.742007	-3.006200	2.958400	-8.891700	28.190875	0.000271	20.954225
2581.742699	-2.986600	2.956600	-8.828700	28.171512	0.000269	20.920512
2582.742439	-2.991800	2.955100	-8.839000	28.140663	0.000270	20.924068
2583.745644	-3.013600	2.953700	-8.901000	28.127004	0.000270	20.920275
2584.740559	-2.967800	2.954900	-8.767900	28.148538	0.000269	20.909238
2585.754039	-3.002500	2.953000	-8.865200	28.140976	0.000269	20.940977
2586.750746	-2.995500	2.949000	-8.832100	28.128574	0.000270	20.918062
2587.742305	-2.980200	2.949500	-8.789700	28.120306	0.000269	20.922066
2588.746163	-2.997500	2.946900	-8.831700	28.111278	0.000269	20.929573
2589.745528	-2.989700	2.946300	-8.806800	28.155264	0.000270	20.939713
2590.745188	-3.013600	2.945100	-8.873900	28.180384	0.000270	20.939872
2591.748055	-3.017600	2.942500	-8.878100	28.222744	0.000270	20.928940
2592.749527	-3.009900	2.940300	-8.849000	28.238128	0.000270	20.924990
2593.745127	-3.009500	2.939200	-8.844600	28.204795	0.000268	20.921302
2594.748986	-3.004700	2.938700	-8.828700	28.154190	0.000269	20.940529
2595.747150	-2.989100	2.936800	-8.777800	28.125015	0.000269	20.946718
2596.746367	-2.964400	2.936800	-8.704900	28.089009	0.000267	20.945560
2597.746266	-2.985700	2.934200	-8.759500	28.055698	0.000268	20.929573
2598.747807	-2.980200	2.933700	-8.742400	28.104160	0.000268	20.942320
2599.749454	-2.999300	2.931500	-8.790800	28.149455	0.000267	20.928177
2600.745249	-2.955400	2.931400	-8.662000	28.168583	0.000269	20.947431
2601.745670	-2.960900	2.928400	-8.669100	28.201708	0.000269	20.951856
2602.750921	-2.995800	2.926700	-8.767100	28.242917	0.000268	20.919380
2603.750789	-2.987200	2.925200	-8.736800	28.292130	0.000269	20.934314
2604.747372	-3.002900	2.923300	-8.777100	28.330432	0.000268	20.941110
2605.743950	-3.026200	2.919900	-8.834700	28.384846	0.000270	20.953225
2606.746372	-2.996400	2.919800	-8.747800	28.381446	0.000270	20.933682
2607.752190	-3.012900	2.917400	-8.789200	28.395781	0.000268	20.957597
2608.749530	-3.007000	2.916700	-8.769800	28.422280	0.000269	20.953936
2609.749472	-3.011700	2.915100	-8.778200	28.425421	0.000269	20.948564
2610.750595	-2.987400	2.914400	-8.705200	28.391754	0.000268	20.955913
2611.748915	-3.008900	2.913200	-8.764400	28.376057	0.000267	20.958599
2612.748707	-3.000000	2.909900	-8.728700	28.383146	0.000269	20.953884
2613.751850	-3.022100	2.906600	-8.782500	28.339484	0.000269	20.963972
2614.751334	-3.023600	2.905200	-8.781700	28.261625	0.000268	20.938213
2615.751437	-3.026300	2.903200	-8.785200	28.207936	0.000269	20.958125
2616.752666	-3.002400	2.904500	-8.718900	28.164502	0.000267	20.946642
2617.751774	-3.040200	2.899200	-8.812600	28.158091	0.000269	20.950618
2618.752057	-3.008500	2.899000	-8.720400	28.172927	0.000267	20.959390
2619.752645	-2.970100	2.898400	-8.607300	28.194305	0.000271	20.970953
2620.753954	-3.003000	2.896000	-8.695700	28.224028	0.000268	20.977642
2621.755327	-3.015700	2.893500	-8.724800	28.260213	0.000268	20.980882
2622.755931	-2.984000	2.894500	-8.636000	28.318608	0.000267	20.956230
2623.756032	-3.016800	2.890400	-8.718800	28.294433	0.000266	20.985938
2624.754746	-2.998400	2.889000	-8.661000	28.265864	0.000267	20.958126
2625.755239	-3.043100	2.884700	-8.776900	28.214792	0.000268	20.958863
2626.756046	-3.062800	2.883800	-8.831900	28.206891	0.000268	20.976510
2627.757226	-3.009900	2.883500	-8.678500	28.173608	0.000267	20.972875
2628.761098	-3.002500	2.881900	-8.651500	28.123447	0.000267	20.957467
2629.756278	-2.973500	2.880300	-8.563700	28.099505	0.000269	20.986466
2630.758872	-2.990300	2.879200	-8.608900	28.039580	0.000268	20.961709
2631.756736	-2.960500	2.877000	-8.516000	28.053868	0.000268	20.971348
2632.755691	-2.979200	2.875500	-8.566100	28.048033	0.000268	20.985386
2633.760567	-2.994300	2.872900	-8.601200	28.026078	0.000266	20.965660
2634.756433	-3.000500	2.869900	-8.610000	28.029061	0.000269	20.960603
2635.760503	-2.984000	2.869000	-8.559900	28.078650	0.000268	20.968794
2636.758390	-3.011900	2.866400	-8.631700	28.086344	0.000271	20.969900
2637.759501	-2.975800	2.865600	-8.527000	28.094954	0.000269	20.990418
2638.759416	-2.982400	2.863300	-8.537900	28.105237	0.000269	20.972323
2639.760983	-3.008600	2.860700	-8.605600	28.143676	0.000270	20.980199
2640.760145	-2.977600	2.860600	-8.516400	28.187949	0.000268	20.959339
2641.761777	-3.009900	2.857800	-8.600900	28.228452	0.000268	20.971191
2642.761980	-2.993500	2.855100	-8.545800	28.270314	0.000270	20.987257
2643.759911	-2.994700	2.853000	-8.542800	28.341004	0.000267	20.975932
2644.765587	-3.036600	2.849200	-8.650000	28.371089	0.000265	20.987732
2645.763504	-2.988300	2.849600	-8.514500	28.360782	0.000269	20.987310
2646.763289	-2.979100	2.847500	-8.481500	28.367479	0.000268	20.987889
2647.764322	-3.011600	2.845500	-8.568200	28.377054	0.000269	20.988048
2648.763998	-2.991100	2.843500	-8.503600	28.398637	0.000268	21.005036
2649.764174	-2.993500	2.841700	-8.505800	28.464322	0.000268	20.985835
2650.765702	-3.021300	2.837900	-8.571800	28.493200	0.000268	20.989311
2651.769511	-2.999300	2.837100	-8.508200	28.509549	0.000267	21.002454
2652.767294	-3.032400	2.833100	-8.590400	28.480958	0.000266	21.003534
2653.768147	-2.980200	2.833500	-8.443400	28.528800	0.000268	20.987705
2654.767824	-2.984200	2.830900	-8.446800	28.561104	0.000267	20.997477
2655.771464	-2.993600	2.830200	-8.471400	28.581349	0.000268	20.987521
2656.771798	-2.991300	2.827700	-8.457900	28.600338	0.000268	21.002850
2657.767745	-2.983900	2.823200	-8.423000	28.635489	0.000268	20.971877
2658.770719	-3.010400	2.822800	-8.496800	28.651808	0.000268	20.987837
2659.768283	-3.019300	2.818600	-8.509500	28.651286	0.000267	21.001533
2660.767103	-3.002900	2.817700	-8.460700	28.630860	0.000268	21.004667
2661.769441	-2.983300	2.815100	-8.397800	28.606143	0.000267	21.016755
2662.769844	-3.020800	2.812300	-8.494200	28.587181	0.000270	21.015201
2663.769992	-2.978100	2.810600	-8.369500	28.598507	0.000271	21.015229
2664.771281	-3.018500	2.806700	-8.470500	28.620921	0.000269	21.014570
2665.772927	-2.996400	2.806000	-8.407600	28.667475	0.000268	20.992710
2666.768544	-3.005500	2.802200	-8.421100	28.663682	0.000267	21.023971
2667.773235	-2.996800	2.800100	-8.390800	28.640117	0.000268	21.017308
2668.770980	-2.994700	2.799300	-8.381800	28.611976	0.000267	21.015518
2669.772600	-2.978900	2.796700	-8.330700	28.614093	0.000268	21.023338
2670.775338	-2.984500	2.793300	-8.335100	28.639386	0.000269	21.019415
2671.773560	-3.016300	2.790200	-8.414800	28.655024	0.000268	21.018097
2672.773039	-3.007900	2.788900	-8.388200	28.628034	0.000269	21.029791
2673.777251	-2.997100	2.786000	-8.349100	28.596256	0.000268	20.992577
2674.774181	-3.012000	2.782300	-8.379400	28.584643	0.000267	21.010750
2675.773323	-3.023700	2.779400	-8.403500	28.544728	0.000270	21.005165
2676.785591	-2.984800	2.777300	-8.288400	28.499373	0.000268	21.011171
2677.775392	-3.025100	2.775000	-8.391300	28.470311	0.000268	21.010829
2678.776320	-3.039200	2.772200	-8.423700	28.413050	0.000268	21.028554
2679.778045	-2.991800	2.772000	-8.292000	28.405464	0.000268	21.030398
2680.783532	-3.027400	2.767000	-8.376400	28.417758	0.000270	21.025708
2681.776320	-3.003500	2.762600	-8.296100	28.421656	0.000269	21.032952
2682.786639	-3.002900	2.761400	-8.291800	28.464373	0.000267	21.011961
2683.776448	-3.025600	2.757700	-8.343000	28.509287	0.000268	21.031582
2684.776925	-2.994100	2.755500	-8.249800	28.561809	0.000268	21.023786
2685.789316	-3.008100	2.752200	-8.277200	28.561522	0.000269	21.000742
2686.779840	-2.982600	2.750200	-8.200900	28.552184	0.000268	21.016939
2687.784354	-3.030000	2.744400	-8.314400	28.578731	0.000267	21.014752
2688.794160	-2.996400	2.743700	-8.220200	28.633448	0.000267	21.033347
2689.779652	-3.016300	2.739000	-8.261000	28.654004	0.000268	21.015174
2690.779672	-2.987100	2.736200	-8.172500	28.666217	0.000269	21.029368
2691.786283	-2.989300	2.734000	-8.170600	28.665695	0.000269	21.011303
2692.783329	-2.993500	2.730800	-8.173600	28.668885	0.000270	21.016885
2693.784422	-3.033100	2.726300	-8.268500	28.665851	0.000269	21.020940
2694.785962	-3.010400	2.722500	-8.194800	28.644249	0.000269	21.011513
2695.782086	-3.014300	2.720300	-8.198600	28.649506	0.000269	21.014436
2696.784556	-3.018200	2.714300	-8.191300	28.645321	0.000268	21.014015
2697.782732	-3.012900	2.713100	-8.173400	28.653455	0.000267	20.993762
2698.781923	-2.957900	2.712400	-8.021300	28.694462	0.000267	20.975799
2699.786895	-3.023100	2.707000	-8.182500	28.714522	0.000267	20.979407
2700.788752	-2.999100	2.703400	-8.106300	28.675920	0.000266	20.999792
2701.780493	-3.000600	2.700200	-8.100500	28.638077	0.000267	21.002453
2702.783643	-2.995200	2.697400	-8.078500	28.639331	0.000268	20.991391
2703.786404	-3.006100	2.693400	-8.096400	28.599289	0.000267	20.981409
2704.784648	-2.977800	2.691400	-8.012700	28.610404	0.000267	20.971742
2705.790820	-3.007300	2.685700	-8.075600	28.564920	0.000268	20.982357
2706.786056	-2.962500	2.682100	-7.944600	28.588198	0.000268	20.986834
2707.785052	-2.997000	2.676900	-8.021000	28.588381	0.000268	20.972321
2708.788366	-2.986500	2.674600	-7.986900	28.630229	0.000268	20.988861
2709.787729	-3.020900	2.669400	-8.062800	28.657481	0.000269	21.011564
2710.789447	-3.002600	2.665400	-8.002200	28.617519	0.000267	20.981751
2711.785460	-2.996900	2.662800	-7.978600	28.577684	0.000268	21.006113
2712.788580	-3.012200	2.657000	-8.002600	28.627771	0.000267	20.980223
2713.785840	-3.062900	2.652900	-8.124000	28.654109	0.000267	20.979724
2714.784572	-2.994200	2.650600	-7.935400	28.660620	0.000268	20.978696
2715.788799	-2.994800	2.646300	-7.924100	28.643620	0.000269	20.987176
2716.786676	-3.001000	2.642900	-7.930400	28.667812	0.000266	20.983568
2717.789728	-3.011200	2.637100	-7.939500	28.642417	0.000269	20.984068
2718.791180	-3.011200	2.633100	-7.928300	28.622384	0.000266	20.965791
2719.788614	-3.024500	2.627200	-7.945000	28.565730	0.000267	20.974639
2720.789283	-2.987200	2.624000	-7.836000	28.575174	0.000268	20.950962
2721.793019	-3.006400	2.618300	-7.870000	28.587964	0.000267	20.951515
2722.789513	-2.967800	2.615100	-7.759400	28.587048	0.000269	20.968134
2723.790402	-2.978400	2.610600	-7.774300	28.559794	0.000268	20.975298
2724.794719	-3.005500	2.604800	-7.827800	28.510541	0.000265	20.966476
2725.790873	-2.979400	2.600300	-7.746600	28.471645	0.000269	20.972823
2726.792182	-3.001400	2.594700	-7.787000	28.449253	0.000269	20.982990
2727.794923	-3.029100	2.588900	-7.840900	28.491995	0.000267	20.957757
2728.792435	-3.006100	2.582900	-7.763800	28.556369	0.000268	20.956679
2729.793072	-3.028300	2.577500	-7.802800	28.569158	0.000268	20.976668
2730.795690	-3.037500	2.571600	-7.809800	28.614510	0.000267	20.984885
2731.796510	-3.010100	2.567200	-7.726900	28.646628	0.000268	20.962234
2732.793742	-3.011500	2.561800	-7.713500	28.710311	0.000267	20.976589
2733.798741	-2.963100	2.556200	-7.572700	28.751395	0.000267	20.958705
2734.798422	-3.004300	2.550800	-7.662600	28.753592	0.000270	20.973718
2735.798312	-2.995000	2.545400	-7.622600	28.793551	0.000269	20.977932
2736.799236	-3.009900	2.538400	-7.639700	28.796584	0.000271	20.955387
2737.799702	-2.993900	2.533700	-7.583900	28.819963	0.000270	20.941007
2738.797464	-3.001700	2.527800	-7.586900	28.850321	0.000269	20.963051
2739.806568	-3.015300	2.521700	-7.603100	28.842633	0.000270	20.955782
2740.805815	-2.967400	2.514000	-7.458900	28.885386	0.000268	20.955229
2741.799793	-2.984800	2.508300	-7.485500	28.885386	0.000269	20.964711
2742.807349	-2.996200	2.504100	-7.502100	28.883190	0.000267	20.936897
2743.800323	-3.007600	2.496400	-7.506900	28.876051	0.000267	20.947248
