LabVIEW Measurement	
Writer_Version	2
Reader_Version	2
Separator	Tab
Decimal_Separator	.
Multi_Headings	No
X_Columns	One
Time_Pref	Absolute
Operator	admin
Description	Clolumns are: time, Current, Voltage, Power, Battery Temp, and Chamber Temp
Date	2024/08/16
Time	13:06:06.104549407958984375
***End_of_Header***	
	
Channels	6						
Samples	1	1	1	1	1	1	
Date	2024/09/05	2024/09/05	2024/09/05	2024/09/05	2024/09/05	2024/09/05	
Time	08:20:42.0467329025268554688	08:20:42.0537309646606445313	08:20:42.0610032081604003906	08:20:42.024707794189453125	08:20:42.024707794189453125	08:20:42.024707794189453125	
X_Dimension	Time	Time	Time	Time	Time	Time	
X0	0.0000000000000000E+0	0.0000000000000000E+0	0.0000000000000000E+0	0.0000000000000000E+0	0.0000000000000000E+0	0.0000000000000000E+0	
Delta_X	1.000000	1.000000	1.000000	1.000000	1.000000	1.000000	
***End_of_Header***							
X_Value	Untitled	Untitled 1	Untitled 2	Untitled 3	Untitled 4	Untitled 5	Comment
0.000000	0.017997	4.100300	0.073707	20.920172	0.000920	20.656540
0.994711	-3.011400	3.928900	-11.831000	20.924193	0.000916	20.682376
1.996888	-2.988300	3.922100	-11.720000	20.947269	0.000918	20.689808
2.994462	-2.985200	3.917400	-11.693000	20.934019	0.000917	20.684142
3.995687	-2.982000	3.914800	-11.672000	20.930619	0.000917	20.678845
4.996593	-2.982300	3.911500	-11.663000	20.926082	0.000917	20.680946
5.997961	-2.984800	3.908200	-11.664000	20.939046	0.000913	20.687275
7.000706	-3.003800	3.904700	-11.727000	20.940845	0.000914	20.696660
7.999847	-2.996700	3.902500	-11.693000	20.925968	0.000913	20.692687
8.997530	-3.013300	3.902500	-11.759000	20.946003	0.000915	20.673842
9.997563	-3.014800	3.899300	-11.755000	20.942529	0.000910	20.680326
10.998338	-2.998500	3.897700	-11.686000	20.929230	0.000909	20.688362
11.999078	-3.040200	3.894600	-11.839000	20.939260	0.000910	20.698394
12.998370	-3.001400	3.893900	-11.686000	20.947246	0.000912	20.700692
14.004637	-3.017400	3.892800	-11.745000	20.952052	0.000909	20.705499
15.003545	-3.014200	3.890300	-11.725000	20.945071	0.000907	20.673859
15.999250	-2.995900	3.891100	-11.656000	20.973010	0.000909	20.678568
17.001110	-3.015300	3.890300	-11.729000	20.972487	0.000907	20.694642
18.000594	-2.999200	3.889000	-11.663000	20.974514	0.000907	20.693824
18.999736	-3.002300	3.887500	-11.671000	20.983865	0.000906	20.700332
20.002849	-2.981900	3.888100	-11.593000	21.004275	0.000904	20.688502
21.001860	-3.000300	3.886800	-11.660000	21.017647	0.000904	20.684807
22.001186	-3.001200	3.885800	-11.661000	21.014304	0.000905	20.682411
23.002490	-2.995900	3.885300	-11.639000	21.001831	0.000904	20.683212
24.002971	-2.998200	3.882900	-11.640000	21.004675	0.000905	20.698386
25.009328	-2.996800	3.881900	-11.632000	21.027005	0.000905	20.693694
26.004146	-3.012000	3.881800	-11.691000	21.031149	0.000903	20.699735
27.008753	-3.013600	3.880800	-11.694000	21.023515	0.000904	20.701583
28.002651	-2.995500	3.880800	-11.624000	21.038570	0.000901	20.684871
29.003503	-3.018900	3.880400	-11.714000	21.047471	0.000904	20.720330
30.008123	-3.003200	3.879000	-11.648000	21.047250	0.000903	20.689286
31.005016	-3.033600	3.877800	-11.762000	21.045902	0.000904	20.708802
32.007654	-3.014400	3.877200	-11.686000	21.057230	0.000902	20.701640
33.009626	-2.971200	3.878600	-11.522000	21.077712	0.000900	20.720231
34.008423	-2.993800	3.876500	-11.602000	21.078864	0.000901	20.721858
35.008413	-2.999700	3.876200	-11.626000	21.079011	0.000902	20.713944
36.009120	-2.980600	3.877100	-11.554000	21.075848	0.000901	20.715996
37.008299	-2.993900	3.876000	-11.604000	21.089072	0.000902	20.694608
38.006013	-3.006800	3.873800	-11.647000	21.091115	0.000900	20.706611
39.008990	-2.993100	3.875600	-11.598000	21.111024	0.000898	20.699023
40.004925	-3.015800	3.873800	-11.682000	21.110273	0.000899	20.694952
41.006269	-2.990100	3.873700	-11.582000	21.123325	0.000900	20.710854
42.009838	-2.990400	3.872900	-11.581000	21.143462	0.000899	20.702547
43.006745	-2.994400	3.873300	-11.598000	21.130165	0.000899	20.690193
44.008494	-3.009700	3.873000	-11.656000	21.130435	0.000900	20.704215
45.009473	-3.008100	3.872900	-11.649000	21.146421	0.000897	20.712620
46.009986	-2.995100	3.870400	-11.591000	21.162349	0.000897	20.722389
47.015382	-3.016400	3.870400	-11.673000	21.156358	0.000898	20.726829
48.008346	-3.009900	3.869900	-11.647000	21.162373	0.000898	20.708662
49.009425	-2.995200	3.872600	-11.598000	21.168380	0.000899	20.719888
50.013998	-3.019300	3.870000	-11.683000	21.189612	0.000897	20.712203
51.009464	-2.999300	3.869400	-11.604000	21.188386	0.000897	20.719512
52.012180	-2.980700	3.869900	-11.533000	21.194221	0.000896	20.713020
53.013608	-3.028300	3.867400	-11.710000	21.203473	0.000895	20.724646
54.011244	-3.026600	3.868700	-11.707000	21.223486	0.000896	20.714320
55.015503	-3.014400	3.867800	-11.658000	21.213778	0.000896	20.708401
56.018683	-2.981700	3.870400	-11.538000	21.213394	0.000894	20.704698
57.011062	-2.973000	3.869800	-11.503000	21.218264	0.000895	20.707674
58.011359	-2.989000	3.868400	-11.561000	21.227074	0.000893	20.710797
59.014150	-2.995100	3.866400	-11.579000	21.237795	0.000895	20.713937
60.010593	-2.993300	3.867400	-11.574000	21.262614	0.000893	20.717428
61.014569	-3.024900	3.866300	-11.693000	21.253012	0.000892	20.724892
62.015302	-3.006200	3.865200	-11.619000	21.276285	0.000894	20.727312
63.012895	-3.005700	3.867200	-11.623000	21.285192	0.000893	20.715833
64.013576	-3.006200	3.864100	-11.614000	21.295987	0.000892	20.727108
65.015683	-2.973100	3.864800	-11.488000	21.305572	0.000894	20.714411
66.012417	-3.008500	3.864300	-11.625000	21.295537	0.000894	20.728081
67.013341	-2.995500	3.864500	-11.574000	21.289670	0.000896	20.728375
68.015249	-3.020300	3.863800	-11.668000	21.310001	0.000893	20.719791
69.012527	-3.006000	3.863800	-11.613000	21.325241	0.000892	20.730297
70.015613	-2.994500	3.863600	-11.568000	21.324963	0.000895	20.718164
71.017557	-3.016000	3.864900	-11.656000	21.344493	0.000891	20.713995
72.016868	-2.989400	3.864000	-11.549000	21.335390	0.000893	20.724803
73.015538	-2.999400	3.864200	-11.590000	21.352476	0.000892	20.717240
74.018954	-3.011400	3.862600	-11.631000	21.362045	0.000893	20.723969
75.018749	-2.997600	3.863700	-11.579000	21.368279	0.000892	20.733527
76.018479	-2.989500	3.862900	-11.547000	21.374718	0.000893	20.749926
77.017696	-2.987400	3.862800	-11.539000	21.388535	0.000894	20.725817
78.028655	-2.959000	3.863100	-11.429000	21.387661	0.000893	20.728736
79.017187	-3.010200	3.860400	-11.620000	21.390880	0.000896	20.725318
80.017927	-2.996100	3.862900	-11.571000	21.395292	0.000893	20.722146
81.020056	-2.978700	3.861800	-11.501000	21.429357	0.000893	20.721141
82.017439	-2.979400	3.862500	-11.507000	21.409134	0.000893	20.740263
83.019585	-2.981400	3.860900	-11.509000	21.429936	0.000893	20.722670
84.021177	-2.991200	3.860200	-11.546000	21.440117	0.000894	20.740917
85.019529	-3.014600	3.859300	-11.633000	21.453076	0.000895	20.735391
86.021252	-3.013300	3.858600	-11.626000	21.428311	0.000893	20.743329
87.022748	-3.006300	3.859400	-11.601000	21.480757	0.000891	20.742226
88.020324	-3.013700	3.858700	-11.627000	21.456842	0.000895	20.741057
89.020537	-3.013800	3.858800	-11.628000	21.483004	0.000893	20.743526
90.020438	-3.007000	3.858600	-11.602000	21.462880	0.000894	20.764643
91.022309	-3.013400	3.857700	-11.622000	21.484499	0.000894	20.739806
92.022131	-2.990000	3.859200	-11.538000	21.483151	0.000894	20.744621
93.024453	-2.975900	3.859100	-11.482000	21.497244	0.000893	20.724109
94.025050	-3.002000	3.857300	-11.578000	21.508796	0.000892	20.721443
95.024850	-3.014300	3.857000	-11.624000	21.517294	0.000895	20.740378
96.025186	-3.002800	3.856100	-11.578000	21.520709	0.000894	20.733838
97.031798	-3.010000	3.857700	-11.610000	21.529941	0.000896	20.741654
98.031330	-2.976500	3.857900	-11.481000	21.536403	0.000894	20.754759
99.026785	-3.010500	3.854900	-11.603000	21.530161	0.000894	20.766057
100.026099	-3.005800	3.855600	-11.589000	21.551541	0.000895	20.756631
101.025757	-3.004200	3.857400	-11.588000	21.557644	0.000894	20.749936
102.026258	-2.991100	3.855200	-11.530000	21.549164	0.000895	20.747140
103.027046	-2.986200	3.855600	-11.512000	21.564801	0.000896	20.759468
104.025566	-3.011200	3.854700	-11.606000	21.566198	0.000896	20.736209
105.027406	-3.012000	3.855400	-11.611000	21.589644	0.000896	20.753982
106.028666	-3.017400	3.855500	-11.632000	21.597120	0.000896	20.745815
107.027669	-3.003000	3.855000	-11.576000	21.606123	0.000894	20.759092
108.028262	-2.999800	3.854600	-11.561000	21.618442	0.000897	20.741548
109.029986	-3.018200	3.853600	-11.630000	21.608818	0.000895	20.748513
110.030693	-3.002700	3.852800	-11.568000	21.617175	0.000898	20.747393
111.034991	-3.001800	3.853100	-11.565000	21.625459	0.000895	20.733396
112.031455	-3.019100	3.853800	-11.634000	21.657368	0.000895	20.747786
113.034294	-3.013700	3.853700	-11.613000	21.647997	0.000895	20.772548
114.031213	-2.996600	3.853200	-11.546000	21.651674	0.000897	20.762003
115.031387	-2.997800	3.853900	-11.551000	21.657515	0.000899	20.772116
116.030000	-3.001300	3.852100	-11.561000	21.668952	0.000897	20.768388
117.032419	-3.003900	3.853600	-11.575000	21.660775	0.000897	20.762101
118.035869	-3.000400	3.851700	-11.556000	21.664965	0.000899	20.761079
119.033580	-2.996600	3.852100	-11.542000	21.658030	0.000898	20.761725
120.033405	-2.993400	3.853200	-11.533000	21.663880	0.000898	20.762838
121.032705	-3.001100	3.851900	-11.559000	21.692928	0.000898	20.756821
122.037575	-2.987900	3.850400	-11.504000	21.708514	0.000898	20.742547
123.035653	-3.001400	3.853000	-11.562000	21.688370	0.000898	20.741827
124.035408	-2.984700	3.851600	-11.494000	21.710630	0.000899	20.770269
125.039579	-3.004100	3.851300	-11.568000	21.723267	0.000900	20.753044
126.035930	-2.981300	3.851100	-11.480000	21.730823	0.000898	20.751597
127.035248	-3.000500	3.850900	-11.552000	21.735609	0.000899	20.757336
128.035849	-3.001800	3.849800	-11.554000	21.758914	0.000898	20.765488
129.040097	-3.003000	3.851200	-11.564000	21.734082	0.000900	20.765766
130.038907	-3.009300	3.850400	-11.585000	21.740266	0.000900	20.769109
131.036437	-2.998800	3.848700	-11.540000	21.774899	0.000900	20.767262
132.041226	-3.000200	3.849700	-11.547000	21.761553	0.000901	20.774767
133.038957	-2.998100	3.848400	-11.537000	21.807923	0.000901	20.761434
134.037402	-3.007200	3.849700	-11.576000	21.778208	0.000900	20.773418
135.043150	-3.002800	3.849100	-11.557000	21.775088	0.000902	20.772192
136.037188	-2.997000	3.848200	-11.533000	21.782260	0.000902	20.771310
137.038829	-3.005300	3.847800	-11.562000	21.789398	0.000903	20.768971
138.040336	-2.999900	3.848900	-11.545000	21.815667	0.000903	20.757804
139.039110	-3.007200	3.848200	-11.572000	21.808888	0.000901	20.783262
140.038286	-2.987700	3.848400	-11.496000	21.797461	0.000902	20.763290
141.042522	-3.014000	3.847200	-11.594000	21.828009	0.000904	20.773476
142.040020	-3.007400	3.846500	-11.566000	21.857070	0.000901	20.775063
143.042005	-2.989800	3.847500	-11.502000	21.863130	0.000904	20.775913
144.045221	-3.002400	3.846800	-11.548000	21.865548	0.000904	20.780704
145.045774	-3.006800	3.845900	-11.563000	21.881622	0.000905	20.759334
146.041922	-3.001400	3.846100	-11.543000	21.893808	0.000905	20.799033
147.045647	-2.993900	3.846900	-11.516000	21.890050	0.000904	20.779151
148.041857	-3.002600	3.845600	-11.544000	21.907472	0.000906	20.802279
149.041523	-3.007200	3.845700	-11.564000	21.885045	0.000906	20.777934
150.040764	-2.997500	3.846300	-11.529000	21.918408	0.000904	20.787147
151.042744	-2.991600	3.845900	-11.503000	21.935134	0.000907	20.795829
152.042998	-3.012900	3.843600	-11.579000	21.929990	0.000905	20.790680
153.043297	-3.004100	3.845200	-11.550000	21.930088	0.000906	20.764225
154.042978	-3.006900	3.844800	-11.558000	21.923848	0.000907	20.800654
155.044451	-3.002400	3.845000	-11.543000	21.933200	0.000907	20.794841
156.043717	-2.987500	3.844800	-11.485000	21.928765	0.000909	20.804152
157.045053	-3.005900	3.843700	-11.553000	21.936761	0.000907	20.796983
158.047287	-2.994400	3.843800	-11.508000	21.948382	0.000909	20.799607
159.045475	-3.018700	3.843400	-11.600000	21.938721	0.000908	20.794679
160.045550	-3.008400	3.843800	-11.562000	21.964349	0.000911	20.780503
161.049873	-2.979900	3.844400	-11.455000	21.978493	0.000911	20.786601
162.045464	-2.991200	3.844100	-11.497000	21.949984	0.000911	20.818280
163.046723	-2.988400	3.842900	-11.482000	21.948433	0.000913	20.799184
164.051457	-3.002200	3.842400	-11.533000	21.980446	0.000910	20.786185
165.047680	-3.024200	3.842400	-11.619000	21.982962	0.000912	20.811463
166.050317	-3.011000	3.843600	-11.573000	21.981435	0.000912	20.819891
167.049086	-2.993700	3.842800	-11.503000	21.983509	0.000913	20.792096
168.049103	-3.012800	3.843100	-11.577000	21.998838	0.000913	20.801751
169.051363	-2.989200	3.842900	-11.484000	22.006212	0.000913	20.811978
170.050124	-2.997100	3.841400	-11.512000	22.017408	0.000912	20.783831
171.048185	-3.000200	3.842000	-11.524000	22.034028	0.000916	20.799046
172.048818	-2.995300	3.841300	-11.506000	22.079415	0.000914	20.799439
173.051528	-2.979200	3.842100	-11.445000	22.046776	0.000916	20.782411
174.047485	-2.991200	3.840800	-11.488000	22.071577	0.000915	20.811506
175.050725	-3.020400	3.840600	-11.600000	22.066440	0.000914	20.799726
176.049098	-2.997000	3.840800	-11.510000	22.087876	0.000915	20.797952
177.050789	-2.997700	3.838900	-11.507000	22.090767	0.000917	20.820760
178.051010	-2.989200	3.839100	-11.475000	22.077621	0.000918	20.813289
179.050302	-2.993700	3.841400	-11.499000	22.101832	0.000916	20.813346
180.051817	-2.986200	3.839500	-11.464000	22.110406	0.000917	20.804386
181.049843	-2.981700	3.839100	-11.445000	22.113265	0.000917	20.811989
182.049519	-3.007400	3.839200	-11.544000	22.123014	0.000917	20.801836
183.055207	-2.992600	3.838000	-11.485000	22.130960	0.000920	20.814532
184.051338	-3.021400	3.838100	-11.595000	22.133173	0.000918	20.825282
185.052606	-2.986200	3.837700	-11.458000	22.129563	0.000918	20.804125
186.056358	-2.991800	3.839300	-11.485000	22.154191	0.000920	20.822143
187.056534	-2.999000	3.837100	-11.506000	22.178017	0.000921	20.838885
188.053208	-3.000500	3.837600	-11.514000	22.165181	0.000919	20.823663
189.060223	-2.995200	3.837000	-11.491000	22.186166	0.000920	20.819069
190.054969	-3.012200	3.836900	-11.555000	22.180606	0.000921	20.815873
191.056894	-2.989400	3.836500	-11.469000	22.214254	0.000919	20.818268
192.055853	-3.004000	3.837000	-11.526000	22.211119	0.000922	20.819396
193.056657	-2.999000	3.835900	-11.503000	22.225824	0.000921	20.803774
194.055295	-2.993400	3.836200	-11.482000	22.231735	0.000922	20.810640
195.057110	-2.996300	3.836200	-11.492000	22.227350	0.000922	20.838966
196.061126	-2.986500	3.836400	-11.456000	22.229269	0.000922	20.847051
197.055923	-3.006400	3.835100	-11.528000	22.231882	0.000923	20.833073
198.055800	-3.002300	3.834600	-11.512000	22.249754	0.000923	20.825364
199.058301	-3.018400	3.835800	-11.577000	22.233384	0.000924	20.836947
200.062077	-2.985300	3.833900	-11.443000	22.274860	0.000925	20.815414
201.058794	-3.002600	3.835600	-11.515000	22.280437	0.000925	20.851817
202.059653	-2.986800	3.834100	-11.451000	22.277081	0.000924	20.825698
203.057705	-2.990500	3.835400	-11.469000	22.303518	0.000927	20.841263
204.057141	-3.016800	3.833800	-11.565000	22.310302	0.000926	20.838099
205.059512	-3.000300	3.833600	-11.501000	22.321299	0.000925	20.812601
206.059929	-3.010600	3.833600	-11.541000	22.318482	0.000927	20.815945
207.060566	-3.016100	3.832700	-11.560000	22.307640	0.000928	20.825951
208.061296	-3.006900	3.834100	-11.527000	22.311853	0.000929	20.806936
209.064957	-3.013000	3.833200	-11.548000	22.302691	0.000929	20.805824
210.064092	-3.014400	3.832700	-11.551000	22.331626	0.000928	20.807769
211.063013	-2.993400	3.832700	-11.470000	22.316473	0.000930	20.815356
212.065135	-2.978000	3.833200	-11.413000	22.342713	0.000928	20.810336
213.062518	-2.999600	3.832600	-11.494000	22.352036	0.000930	20.804499
214.063330	-2.994800	3.831000	-11.472000	22.351391	0.000930	20.804802
215.063904	-2.994100	3.831900	-11.472000	22.357946	0.000929	20.804728
216.067980	-3.000100	3.832600	-11.497000	22.365604	0.000929	20.809077
217.073607	-3.007000	3.830700	-11.517000	22.351545	0.000932	20.815388
218.065537	-2.984100	3.831500	-11.431000	22.353839	0.000930	20.811995
219.069238	-2.999600	3.831600	-11.492000	22.342034	0.000932	20.771250
220.070287	-3.012600	3.829800	-11.537000	22.367979	0.000933	20.828050
221.074111	-2.986500	3.831200	-11.441000	22.378273	0.000932	20.802798
222.070993	-3.013300	3.829100	-11.537000	22.379392	0.000935	20.799650
223.069336	-3.012700	3.830900	-11.539000	22.400763	0.000934	20.811094
224.065691	-2.989800	3.829900	-11.449000	22.396379	0.000936	20.803385
225.069467	-2.969400	3.830500	-11.374000	22.378305	0.000935	20.805200
226.067929	-3.008500	3.830200	-11.522000	22.375611	0.000937	20.794442
227.078286	-3.019000	3.829300	-11.559000	22.380778	0.000935	20.797246
228.067470	-3.010400	3.828100	-11.522000	22.419759	0.000937	20.802142
229.071440	-2.968900	3.830400	-11.371000	22.408224	0.000936	20.789642
230.070677	-2.985300	3.827700	-11.426000	22.428371	0.000939	20.782791
231.070747	-3.004100	3.827700	-11.498000	22.438331	0.000938	20.804145
232.069530	-2.993300	3.826100	-11.452000	22.423938	0.000937	20.778826
233.070893	-2.997300	3.827100	-11.470000	22.442330	0.000938	20.806253
234.071455	-3.012800	3.826100	-11.526000	22.433072	0.000938	20.787973
235.073328	-2.991400	3.827500	-11.448000	22.450705	0.000939	20.772915
236.072263	-3.010700	3.826100	-11.518000	22.473194	0.000941	20.763194
237.074111	-3.028100	3.826400	-11.585000	22.432648	0.000942	20.788022
238.078822	-3.010400	3.826600	-11.520000	22.446761	0.000941	20.783664
239.072135	-2.977800	3.827500	-11.397000	22.423789	0.000941	20.784367
240.075610	-3.009400	3.825700	-11.511000	22.460418	0.000940	20.785487
241.077780	-3.003300	3.827300	-11.493000	22.471610	0.000942	20.787212
242.077456	-3.009200	3.825200	-11.510000	22.463291	0.000941	20.763234
243.074840	-3.016200	3.825000	-11.536000	22.469381	0.000945	20.782134
244.076424	-2.999400	3.825900	-11.473000	22.492906	0.000944	20.764917
245.075210	-3.000300	3.825400	-11.476000	22.509999	0.000946	20.780139
246.074965	-3.007400	3.825900	-11.504000	22.485682	0.000943	20.768587
247.079445	-2.994200	3.825400	-11.453000	22.498359	0.000945	20.765637
248.076890	-2.993900	3.825100	-11.451000	22.517982	0.000946	20.792401
249.074993	-3.027300	3.822200	-11.569000	22.529703	0.000945	20.781381
250.084632	-3.009100	3.823900	-11.506000	22.533834	0.000946	20.760387
251.076046	-2.980800	3.826400	-11.405000	22.526887	0.000946	20.777138
252.077669	-3.016000	3.822200	-11.527000	22.526414	0.000949	20.792311
253.078930	-2.994900	3.822900	-11.447000	22.510121	0.000948	20.768881
254.075679	-2.987900	3.823200	-11.422000	22.514716	0.000950	20.763525
255.075976	-3.002200	3.824600	-11.481000	22.527344	0.000952	20.769060
256.077250	-2.998900	3.822500	-11.462000	22.516666	0.000949	20.756469
257.077238	-3.012500	3.822600	-11.515000	22.555961	0.000949	20.786816
258.092280	-3.021200	3.821300	-11.544000	22.551708	0.000949	20.770702
259.077116	-2.986000	3.822500	-11.413000	22.547692	0.000949	20.766206
260.076567	-3.027600	3.821600	-11.569000	22.568253	0.000951	20.759772
261.076637	-3.001000	3.821200	-11.466000	22.575632	0.000952	20.740608
262.077085	-3.019700	3.819900	-11.534000	22.576905	0.000951	20.758006
263.076936	-2.978700	3.821400	-11.381000	22.574848	0.000955	20.769696
264.079027	-2.995200	3.821500	-11.444000	22.579582	0.000952	20.764480
265.078748	-2.996500	3.820600	-11.447000	22.575729	0.000953	20.745447
266.078915	-2.993100	3.820900	-11.435000	22.563273	0.000954	20.766637
267.080568	-2.988800	3.821200	-11.419000	22.556995	0.000955	20.764144
268.077646	-3.007400	3.818800	-11.484000	22.595016	0.000955	20.755756
269.077120	-2.993800	3.820300	-11.436000	22.599905	0.000957	20.762549
270.082924	-3.010500	3.820100	-11.499000	22.616857	0.000954	20.748708
271.079117	-3.007800	3.820300	-11.490000	22.630186	0.000957	20.751153
272.077061	-3.008500	3.818900	-11.489000	22.642526	0.000956	20.767307
273.081138	-3.001100	3.817600	-11.456000	22.647929	0.000957	20.749959
274.081038	-3.035900	3.816900	-11.586000	22.665077	0.000958	20.748642
275.078651	-3.034900	3.817800	-11.586000	22.666424	0.000958	20.747620
276.083809	-2.981700	3.820400	-11.390000	22.673851	0.000957	20.737989
277.082489	-3.010300	3.818500	-11.492000	22.687905	0.000959	20.732626
278.078062	-2.973000	3.819800	-11.355000	22.685815	0.000958	20.741439
279.083436	-3.023200	3.817800	-11.540000	22.696229	0.000959	20.746181
280.083052	-3.007700	3.816600	-11.478000	22.712829	0.000961	20.750481
281.081937	-2.997400	3.818100	-11.442000	22.728425	0.000960	20.760414
282.080150	-3.012100	3.816000	-11.492000	22.732212	0.000962	20.751879
283.081888	-2.990100	3.816300	-11.411000	22.712584	0.000961	20.736958
284.080750	-3.020400	3.816600	-11.527000	22.730106	0.000960	20.749295
285.079929	-3.006800	3.816500	-11.475000	22.726695	0.000963	20.751567
286.080987	-2.986900	3.817600	-11.401000	22.723038	0.000963	20.750749
287.080192	-2.977700	3.816900	-11.364000	22.719823	0.000963	20.741364
288.080050	-3.002900	3.815500	-11.456000	22.703712	0.000964	20.739451
289.080367	-2.994500	3.814300	-11.421000	22.713807	0.000964	20.730122
290.080341	-2.995400	3.814700	-11.426000	22.714256	0.000964	20.757126
291.079750	-2.980200	3.815800	-11.372000	22.702985	0.000964	20.754845
292.082346	-3.005300	3.814200	-11.461000	22.715259	0.000966	20.741061
293.084334	-3.006800	3.813000	-11.463000	22.691240	0.000967	20.742132
294.083420	-3.002100	3.813200	-11.446000	22.681773	0.000966	20.745451
295.084397	-3.019500	3.812700	-11.512000	22.682916	0.000967	20.755605
296.084410	-2.992500	3.813600	-11.410000	22.693117	0.000969	20.734528
297.085413	-2.997700	3.812300	-11.427000	22.699418	0.000969	20.735624
298.082996	-3.019600	3.811400	-11.508000	22.727093	0.000968	20.747699
299.083365	-2.992700	3.813200	-11.411000	22.736136	0.000966	20.726410
300.083992	-3.001500	3.811800	-11.440000	22.741775	0.000972	20.728740
301.083274	-2.985500	3.813200	-11.382000	22.763345	0.000972	20.720000
302.084891	-3.019300	3.811800	-11.508000	22.777700	0.000971	20.752399
303.087801	-2.998700	3.813000	-11.432000	22.774525	0.000972	20.758703
304.085097	-2.988800	3.812000	-11.393000	22.794739	0.000973	20.730587
305.090464	-2.977300	3.811500	-11.348000	22.781707	0.000972	20.721325
306.085929	-2.998500	3.811900	-11.429000	22.804149	0.000973	20.744756
307.083861	-2.980200	3.812500	-11.360000	22.819124	0.000973	20.738894
308.085253	-3.013700	3.810500	-11.483000	22.818577	0.000973	20.722698
309.088933	-3.003700	3.811300	-11.448000	22.825595	0.000973	20.717875
310.084474	-2.997300	3.810300	-11.418000	22.841026	0.000974	20.734757
311.085482	-3.004200	3.810000	-11.444000	22.846453	0.000975	20.736400
312.094090	-3.011400	3.809300	-11.469000	22.857616	0.000973	20.737626
313.088008	-3.008700	3.808900	-11.459000	22.858906	0.000976	20.718054
314.090608	-2.991700	3.808000	-11.390000	22.858914	0.000976	20.736555
315.092829	-2.994800	3.809300	-11.408000	22.894043	0.000977	20.715323
316.089908	-2.988600	3.808500	-11.381000	22.869873	0.000977	20.735681
317.091037	-3.020000	3.807100	-11.497000	22.885695	0.000976	20.736833
318.089936	-3.010400	3.808100	-11.463000	22.892623	0.000977	20.725755
319.092553	-3.001300	3.808000	-11.428000	22.907050	0.000978	20.727406
320.092596	-2.974700	3.807900	-11.326000	22.905769	0.000979	20.722330
321.091192	-3.007800	3.807700	-11.451000	22.904953	0.000979	20.732892
322.091949	-2.988500	3.807800	-11.378000	22.901591	0.000977	20.713402
323.092182	-2.998800	3.807000	-11.414000	22.903215	0.000979	20.722615
324.096132	-3.004800	3.806900	-11.438000	22.904879	0.000981	20.717171
325.095085	-3.003400	3.806800	-11.433000	22.923109	0.000980	20.725951
326.092672	-2.998800	3.805100	-11.410000	22.934451	0.000980	20.717399
327.091564	-2.985700	3.805600	-11.360000	22.958538	0.000979	20.717824
328.091889	-2.998000	3.805600	-11.408000	22.962952	0.000982	20.716083
329.092194	-2.989800	3.805600	-11.377000	22.969447	0.000982	20.731600
330.091592	-3.019300	3.804000	-11.484000	22.953291	0.000980	20.717309
331.094143	-2.989500	3.805300	-11.375000	22.940660	0.000984	20.724569
332.093613	-2.994500	3.804800	-11.393000	22.940807	0.000983	20.711439
333.093864	-3.029500	3.803400	-11.521000	22.939493	0.000984	20.714864
334.094297	-3.027000	3.802900	-11.510000	22.957281	0.000986	20.716091
335.094117	-2.989700	3.802900	-11.367000	22.980894	0.000985	20.696126
336.095169	-2.971900	3.805900	-11.309000	22.992032	0.000985	20.719614
337.095662	-2.983900	3.802900	-11.347000	22.989192	0.000987	20.713450
338.095546	-2.992100	3.803500	-11.378000	22.997735	0.000986	20.705413
339.093927	-3.011600	3.802300	-11.450000	22.977581	0.000986	20.708929
340.094978	-2.992400	3.802600	-11.378000	22.940969	0.000987	20.709231
341.094140	-2.988900	3.802000	-11.363000	22.928942	0.000987	20.699077
342.097096	-3.001300	3.802900	-11.413000	22.958561	0.000985	20.721167
343.097201	-3.009100	3.802500	-11.441000	22.951707	0.000989	20.714774
344.096698	-3.021500	3.800800	-11.483000	22.978886	0.000990	20.719246
345.101665	-2.989600	3.801900	-11.365000	22.971445	0.000989	20.699935
346.098897	-2.989200	3.802500	-11.365000	22.979678	0.000990	20.697278
347.101133	-2.991300	3.800900	-11.369000	22.993255	0.000988	20.721789
348.101224	-3.002600	3.800400	-11.411000	22.983268	0.000991	20.698504
349.100741	-2.975300	3.801800	-11.311000	23.015840	0.000992	20.694155
350.103329	-3.003400	3.801200	-11.415000	23.011091	0.000992	20.727806
351.106582	-3.010400	3.798700	-11.435000	23.026153	0.000992	20.711128
352.100044	-3.005800	3.799300	-11.418000	23.030429	0.000994	20.698341
353.102722	-2.966800	3.800400	-11.272000	23.042782	0.000993	20.712142
354.101357	-2.996300	3.798000	-11.379000	23.046339	0.000994	20.702904
355.100878	-3.002800	3.799400	-11.407000	23.040359	0.000997	20.695014
356.104361	-2.994400	3.798900	-11.374000	23.061230	0.000995	20.693641
357.104978	-3.025300	3.798000	-11.489000	23.069193	0.000995	20.695930
358.100590	-2.983100	3.799600	-11.332000	23.090479	0.000997	20.699242
359.102793	-3.007200	3.797200	-11.418000	23.092698	0.000997	20.715691
360.103397	-2.993700	3.796600	-11.364000	23.094012	0.000996	20.689031
361.104302	-3.002900	3.796700	-11.399000	23.105035	0.000997	20.699128
362.103034	-3.000700	3.797200	-11.392000	23.118937	0.000995	20.711163
363.103600	-3.017500	3.795000	-11.450000	23.133549	0.000995	20.703993
364.103150	-2.998700	3.796500	-11.383000	23.098753	0.000998	20.691885
365.101488	-3.017600	3.795100	-11.451000	23.139724	0.000998	20.712553
366.103486	-3.019800	3.795600	-11.461000	23.122233	0.000998	20.694076
367.107555	-2.968600	3.796200	-11.269000	23.142727	0.000998	20.691378
368.101993	-2.998800	3.794500	-11.378000	23.133133	0.000999	20.710690
369.106286	-2.996000	3.795000	-11.369000	23.133411	0.001000	20.694371
370.104774	-3.006900	3.795800	-11.413000	23.122380	0.000999	20.687110
371.102596	-2.990700	3.795400	-11.350000	23.135394	0.001000	20.692564
372.106286	-2.996900	3.793900	-11.369000	23.127879	0.001002	20.699260
373.105937	-3.011300	3.793500	-11.421000	23.120504	0.000999	20.710837
374.104961	-3.022100	3.793200	-11.463000	23.140655	0.001001	20.686931
375.106073	-2.968200	3.793900	-11.260000	23.107949	0.001002	20.695409
376.106971	-2.969900	3.795500	-11.271000	23.143070	0.001001	20.702628
377.106719	-2.999000	3.794100	-11.377000	23.156711	0.001002	20.694960
378.105118	-3.011400	3.792500	-11.419000	23.183135	0.001002	20.683980
379.110558	-2.995300	3.793700	-11.361000	23.160594	0.001006	20.698852
380.106693	-2.994100	3.790800	-11.349000	23.171004	0.001004	20.707387
381.108374	-3.010700	3.792200	-11.415000	23.169136	0.001004	20.684176
382.110917	-3.016200	3.790300	-11.431000	23.176486	0.001002	20.701500
383.111104	-2.993300	3.791400	-11.347000	23.211458	0.001003	20.707149
384.109908	-3.009100	3.790000	-11.402000	23.190607	0.001004	20.685304
385.113558	-3.010000	3.789300	-11.405000	23.198896	0.001004	20.692663
386.110207	-3.004500	3.790400	-11.387000	23.178967	0.001005	20.694502
387.109975	-3.000600	3.789700	-11.370000	23.220212	0.001006	20.684152
388.110686	-3.028400	3.789400	-11.473000	23.203203	0.001005	20.692237
389.116791	-2.975200	3.789300	-11.274000	23.213971	0.001006	20.690700
390.113157	-2.985300	3.790300	-11.314000	23.213392	0.001007	20.699604
391.114145	-2.997600	3.790100	-11.360000	23.245411	0.001007	20.679058
392.114259	-3.012400	3.789000	-11.412000	23.210823	0.001007	20.693235
393.118837	-2.986200	3.788400	-11.310000	23.183804	0.001007	20.700773
394.112871	-3.003600	3.787600	-11.375000	23.155912	0.001006	20.678510
395.115578	-2.990100	3.788500	-11.327000	23.157127	0.001007	20.675935
396.118122	-2.979900	3.788100	-11.287000	23.199957	0.001009	20.689458
397.116288	-3.020600	3.785600	-11.434000	23.214681	0.001007	20.674815
398.116296	-2.991100	3.787600	-11.327000	23.220734	0.001008	20.677562
399.119914	-3.010800	3.786900	-11.401000	23.204223	0.001009	20.689940
400.116200	-2.999800	3.785300	-11.355000	23.235875	0.001008	20.674717
401.117666	-3.001700	3.787100	-11.365000	23.248747	0.001008	20.677186
402.122222	-2.984100	3.785600	-11.295000	23.273635	0.001011	20.689801
403.116961	-3.009000	3.786300	-11.392000	23.277216	0.001010	20.683432
404.117628	-2.979200	3.787000	-11.282000	23.284631	0.001012	20.681380
405.120928	-2.965200	3.786800	-11.228000	23.307545	0.001013	20.684904
406.120459	-2.996700	3.784800	-11.340000	23.311297	0.001011	20.671119
407.117305	-2.997000	3.784500	-11.341000	23.311851	0.001010	20.683530
408.123132	-3.013600	3.783500	-11.401000	23.286157	0.001010	20.686228
409.121600	-2.999000	3.783700	-11.346000	23.315212	0.001012	20.685476
410.117737	-3.000500	3.782300	-11.348000	23.318654	0.001012	20.679916
411.121356	-3.010600	3.783200	-11.388000	23.315864	0.001013	20.673800
412.122221	-3.004700	3.782900	-11.365000	23.310359	0.001015	20.680137
413.120039	-2.991700	3.783300	-11.317000	23.317480	0.001012	20.672100
414.122278	-2.990000	3.783700	-11.312000	23.323711	0.001014	20.670285
415.121099	-3.005000	3.781400	-11.361000	23.333752	0.001015	20.688410
416.120232	-2.998100	3.781900	-11.338000	23.335245	0.001015	20.682319
417.119803	-2.993400	3.781800	-11.320000	23.349340	0.001016	20.692653
418.121693	-2.995800	3.780700	-11.324000	23.359071	0.001014	20.688182
419.119685	-2.994900	3.781100	-11.322000	23.332210	0.001013	20.686865
420.123618	-2.986900	3.782400	-11.296000	23.328948	0.001014	20.680749
421.119470	-2.963900	3.782200	-11.209000	23.326680	0.001013	20.678002
422.121305	-3.006300	3.779400	-11.360000	23.328433	0.001017	20.676440
423.122292	-3.001100	3.780300	-11.343000	23.346150	0.001016	20.662902
424.121439	-3.015100	3.779500	-11.395000	23.361836	0.001017	20.688108
425.132844	-3.015800	3.778700	-11.394000	23.350457	0.001016	20.676703
426.123458	-3.011100	3.779200	-11.379000	23.350286	0.001017	20.683644
427.122238	-2.992800	3.777900	-11.305000	23.335612	0.001016	20.695017
428.121380	-3.003000	3.778500	-11.345000	23.346665	0.001015	20.684756
429.123765	-2.979600	3.777700	-11.255000	23.328540	0.001017	20.659476
430.125871	-3.010800	3.778400	-11.374000	23.334112	0.001017	20.682132
431.124770	-3.014500	3.777400	-11.386000	23.326893	0.001017	20.678216
432.124383	-2.995100	3.778000	-11.315000	23.338345	0.001019	20.691591
433.126558	-2.984400	3.777900	-11.274000	23.331175	0.001017	20.678240
434.124011	-3.005600	3.775500	-11.346000	23.337318	0.001018	20.658316
435.123880	-2.997200	3.777100	-11.320000	23.345336	0.001020	20.682001
436.124883	-3.007100	3.774700	-11.350000	23.338892	0.001017	20.692613
437.125247	-2.993300	3.776500	-11.304000	23.335491	0.001020	20.668340
438.122285	-3.000200	3.776400	-11.328000	23.343338	0.001019	20.685215
439.128029	-3.006000	3.774900	-11.346000	23.346495	0.001019	20.684111
440.123923	-3.008600	3.775600	-11.359000	23.366764	0.001018	20.678822
441.126372	-3.006200	3.773900	-11.342000	23.377922	0.001020	20.684790
442.125607	-3.000800	3.775000	-11.326000	23.394342	0.001020	20.681332
443.124928	-3.001100	3.775400	-11.329000	23.407465	0.001020	20.692116
444.131725	-3.004900	3.773600	-11.338000	23.416608	0.001023	20.688477
445.124903	-3.010200	3.772700	-11.355000	23.413370	0.001020	20.689499
446.126609	-2.983200	3.773400	-11.255000	23.413696	0.001020	20.687455
447.128072	-2.991700	3.771200	-11.281000	23.412065	0.001022	20.712376
448.127585	-2.984200	3.771600	-11.254000	23.422725	0.001023	20.680384
449.127838	-3.006100	3.773200	-11.341000	23.405695	0.001023	20.699352
450.129039	-2.978600	3.773400	-11.237000	23.423867	0.001021	20.680580
451.127041	-2.992200	3.771300	-11.283000	23.420107	0.001022	20.691511
452.129573	-3.005700	3.769900	-11.330000	23.445905	0.001023	20.692239
453.132875	-3.012100	3.769900	-11.354000	23.460618	0.001021	20.679010
454.126381	-2.991600	3.770800	-11.279000	23.496267	0.001022	20.692460
455.128679	-3.006900	3.771200	-11.338000	23.505377	0.001023	20.693531
456.130359	-3.008100	3.770000	-11.339000	23.514414	0.001024	20.710177
457.128500	-2.993900	3.769700	-11.286000	23.534778	0.001023	20.698346
458.128086	-2.991800	3.769300	-11.276000	23.541800	0.001024	20.677882
459.127087	-3.003800	3.769300	-11.322000	23.564854	0.001022	20.712850
460.126897	-3.018900	3.769300	-11.378000	23.526541	0.001023	20.706211
461.131045	-3.013800	3.767400	-11.353000	23.566102	0.001023	20.689443
462.130975	-3.001200	3.768400	-11.309000	23.569209	0.001022	20.702516
463.130275	-2.994400	3.768400	-11.281000	23.585340	0.001024	20.702565
464.132161	-3.025600	3.768200	-11.400000	23.597694	0.001024	20.689344
465.128581	-2.991300	3.767700	-11.270000	23.583024	0.001025	20.695975
466.131454	-2.992700	3.768000	-11.275000	23.589800	0.001023	20.686647
467.132111	-2.981600	3.767200	-11.231000	23.585666	0.001025	20.705263
468.130884	-3.003100	3.765900	-11.308000	23.584239	0.001025	20.702884
469.131454	-2.987600	3.767100	-11.253000	23.620096	0.001024	20.689516
470.131268	-2.990400	3.766900	-11.263000	23.615439	0.001026	20.708083
471.130619	-2.988500	3.765600	-11.252000	23.616850	0.001026	20.710921
472.130253	-3.005700	3.765100	-11.316000	23.612863	0.001026	20.702181
473.131010	-3.006100	3.766200	-11.320000	23.607261	0.001026	20.687555
474.136587	-2.997600	3.765900	-11.286000	23.588643	0.001026	20.695919
475.131110	-3.027600	3.763900	-11.394000	23.580105	0.001026	20.704430
476.132867	-3.005200	3.765000	-11.313000	23.567260	0.001027	20.691553
477.133354	-2.992500	3.765300	-11.267000	23.539598	0.001026	20.713137
478.133580	-3.011500	3.763700	-11.333000	23.535667	0.001026	20.713938
479.136719	-3.017400	3.763300	-11.354000	23.556651	0.001025	20.706523
480.134800	-3.001800	3.763600	-11.297000	23.558649	0.001025	20.707577
481.134066	-3.012800	3.762300	-11.333000	23.586947	0.001026	20.731205
482.137171	-2.982600	3.764000	-11.225000	23.611094	0.001027	20.717952
483.135115	-2.994800	3.761900	-11.264000	23.593577	0.001026	20.686165
484.133514	-3.019800	3.762100	-11.360000	23.606967	0.001027	20.702435
485.134829	-2.983100	3.762100	-11.221000	23.597532	0.001027	20.714788
486.138601	-2.998400	3.761400	-11.277000	23.600590	0.001027	20.722596
487.135120	-3.010300	3.760300	-11.317000	23.612765	0.001026	20.710144
488.139023	-3.004700	3.759900	-11.297000	23.590111	0.001029	20.715884
489.139176	-3.010400	3.759400	-11.317000	23.573907	0.001028	20.697268
490.138394	-3.014700	3.759100	-11.330000	23.614184	0.001027	20.702083
491.137902	-3.037500	3.759600	-11.418000	23.615383	0.001028	20.706604
492.139921	-2.994000	3.759500	-11.254000	23.622053	0.001029	20.715189
493.139259	-2.995500	3.757600	-11.255000	23.637294	0.001030	20.721933
494.139041	-3.003300	3.759400	-11.290000	23.609927	0.001029	20.707299
495.143064	-2.999900	3.759600	-11.277000	23.641893	0.001028	20.697145
496.140691	-2.975000	3.759100	-11.183000	23.641600	0.001028	20.699221
497.141476	-3.005800	3.757000	-11.291000	23.661219	0.001029	20.712727
498.143444	-2.984200	3.758100	-11.214000	23.670972	0.001030	20.703064
499.142654	-3.023700	3.756200	-11.356000	23.699479	0.001029	20.691339
500.142519	-3.018600	3.757500	-11.342000	23.707536	0.001031	20.733085
501.149580	-3.019900	3.756200	-11.342000	23.682453	0.001029	20.721213
502.142862	-3.022300	3.755500	-11.349000	23.680145	0.001031	20.718899
503.141686	-3.012800	3.755200	-11.313000	23.660232	0.001030	20.699408
504.144975	-3.004400	3.755900	-11.283000	23.663469	0.001030	20.713561
505.144944	-2.993100	3.756800	-11.244000	23.639250	0.001030	20.712040
506.145565	-2.981900	3.756300	-11.200000	23.662727	0.001028	20.703807
507.149775	-2.981000	3.756100	-11.196000	23.664097	0.001030	20.738373
508.145810	-2.980900	3.756300	-11.196000	23.672725	0.001032	20.736591
509.143397	-2.986300	3.755000	-11.213000	23.669951	0.001029	20.716740
510.144980	-3.000100	3.752400	-11.257000	23.680364	0.001029	20.715325
511.154681	-3.011500	3.755400	-11.307000	23.695547	0.001029	20.710633
512.145612	-2.984100	3.754500	-11.201000	23.683055	0.001031	20.713756
513.146013	-2.986500	3.752500	-11.205000	23.711007	0.001030	20.725185
514.148916	-2.999500	3.752700	-11.255000	23.732346	0.001031	20.726665
515.147642	-2.999400	3.752600	-11.254000	23.733348	0.001032	20.725299
516.150214	-2.990400	3.753100	-11.222000	23.719160	0.001029	20.713444
517.148208	-2.996200	3.751600	-11.240000	23.720783	0.001031	20.715545
518.147234	-3.003600	3.750500	-11.263000	23.704108	0.001032	20.734390
519.147986	-2.989000	3.751300	-11.212000	23.733976	0.001031	20.731144
520.146958	-3.000800	3.751500	-11.256000	23.771246	0.001028	20.741486
521.148394	-3.001800	3.749700	-11.255000	23.764430	0.001029	20.715209
522.147315	-2.989500	3.749200	-11.206000	23.773138	0.001031	20.722044
523.147950	-2.981400	3.751600	-11.183000	23.780614	0.001030	20.740447
524.149781	-2.994300	3.750100	-11.228000	23.793986	0.001034	20.736310
525.150916	-2.996900	3.749400	-11.236000	23.816603	0.001031	20.744289
526.151395	-3.008000	3.748600	-11.275000	23.834328	0.001031	20.716541
527.152114	-3.020000	3.748400	-11.320000	23.805800	0.001031	20.740095
528.151479	-2.979400	3.749700	-11.171000	23.784381	0.001031	20.731421
529.148589	-3.016400	3.747700	-11.304000	23.795551	0.001032	20.720335
530.150856	-2.987800	3.749000	-11.200000	23.784479	0.001031	20.718242
531.153056	-3.004800	3.747500	-11.260000	23.787911	0.001031	20.739228
532.153701	-3.015100	3.746600	-11.295000	23.803101	0.001031	20.734544
533.150405	-2.997500	3.748500	-11.235000	23.805546	0.001032	20.750747
534.153412	-2.990100	3.746900	-11.201000	23.800778	0.001032	20.749759
535.151744	-3.024000	3.745400	-11.325000	23.800092	0.001032	20.746700
536.154440	-2.986800	3.745500	-11.185000	23.775403	0.001028	20.735696
537.157859	-2.998300	3.745700	-11.230000	23.817785	0.001029	20.714652
538.153471	-3.004700	3.745300	-11.253000	23.808107	0.001029	20.745727
539.156603	-2.968600	3.747100	-11.123000	23.814808	0.001032	20.729687
540.153083	-2.986800	3.745800	-11.187000	23.845122	0.001031	20.758186
541.152964	-2.974300	3.746100	-11.140000	23.854653	0.001032	20.727439
542.150787	-3.014700	3.743900	-11.285000	23.834694	0.001031	20.745833
543.155163	-2.988000	3.744000	-11.186000	23.836887	0.001031	20.725272
544.156248	-2.983200	3.744200	-11.169000	23.831115	0.001032	20.739873
545.157869	-2.988300	3.743600	-11.187000	23.827479	0.001031	20.734330
546.157833	-3.004800	3.743500	-11.247000	23.822431	0.001033	20.761513
547.160940	-2.999300	3.742300	-11.224000	23.811449	0.001031	20.736276
548.159628	-2.995900	3.743500	-11.214000	23.821804	0.001030	20.735279
549.159661	-2.994700	3.742300	-11.206000	23.840866	0.001033	20.759609
550.161493	-3.004900	3.742400	-11.245000	23.861126	0.001033	20.729662
551.158502	-2.996900	3.740700	-11.210000	23.897887	0.001031	20.737126
552.159962	-3.009400	3.740100	-11.255000	23.897260	0.001032	20.737446
553.163326	-3.005800	3.739100	-11.238000	23.919631	0.001034	20.758931
554.158588	-2.998900	3.740700	-11.217000	23.917641	0.001029	20.752194
555.158814	-3.001000	3.740300	-11.223000	23.915302	0.001032	20.771659
556.165953	-3.000800	3.738800	-11.217000	23.908828	0.001031	20.734821
557.158674	-3.009600	3.740800	-11.257000	23.886947	0.001033	20.743700
558.157800	-2.991600	3.740300	-11.189000	23.875158	0.001033	20.766019
559.159717	-3.003500	3.739600	-11.231000	23.863157	0.001031	20.762046
560.158094	-3.006000	3.739100	-11.238000	23.883963	0.001030	20.739760
561.163541	-2.983000	3.740500	-11.156000	23.887526	0.001030	20.746651
562.160943	-3.027700	3.738300	-11.317000	23.902380	0.001033	20.760124
563.163440	-3.003400	3.736900	-11.222000	23.908943	0.001031	20.748213
564.158736	-3.011100	3.738400	-11.256000	23.917447	0.001032	20.762431
565.161193	-2.996300	3.738100	-11.199000	23.940648	0.001032	20.761989
566.163216	-3.015500	3.736000	-11.264000	23.946192	0.001033	20.752375
567.159246	-3.006400	3.737500	-11.235000	23.934224	0.001031	20.751753
568.158936	-3.006800	3.736000	-11.233000	23.930792	0.001031	20.768227
569.165058	-2.997500	3.737500	-11.202000	23.943803	0.001032	20.733857
570.164358	-2.989900	3.736300	-11.169000	23.957792	0.001034	20.756896
571.158758	-2.989600	3.735400	-11.167000	23.966972	0.001030	20.746186
572.159938	-3.011800	3.733800	-11.243000	23.987181	0.001031	20.764082
573.159749	-2.996000	3.735600	-11.191000	23.987964	0.001032	20.769609
574.161353	-3.017900	3.733300	-11.265000	23.996189	0.001030	20.755571
575.159685	-2.993800	3.733500	-11.177000	24.001838	0.001032	20.761711
576.160264	-3.030000	3.732100	-11.307000	24.042842	0.001031	20.767270
577.159621	-2.990100	3.735100	-11.167000	24.043633	0.001031	20.766641
578.158217	-2.967600	3.734600	-11.082000	24.030125	0.001031	20.761155
579.160674	-2.999500	3.734100	-11.200000	24.033239	0.001030	20.745786
580.159461	-3.005100	3.732800	-11.217000	24.050725	0.001031	20.764745
581.159444	-3.000100	3.733200	-11.199000	24.052917	0.001031	20.756986
582.161141	-3.013900	3.732100	-11.247000	24.038864	0.001032	20.767074
583.160598	-3.022800	3.730900	-11.276000	24.065813	0.001032	20.758065
584.159095	-3.003800	3.731900	-11.208000	24.049591	0.001029	20.775462
585.165080	-3.013900	3.731200	-11.245000	24.022063	0.001032	20.778201
586.158426	-3.005400	3.730600	-11.211000	24.009623	0.001032	20.792278
587.159817	-3.013200	3.730100	-11.238000	24.011343	0.001033	20.772192
588.162040	-2.992400	3.731400	-11.165000	23.997338	0.001031	20.780432
589.161013	-3.000200	3.728700	-11.186000	24.025087	0.001032	20.761792
590.160984	-3.008500	3.729100	-11.218000	24.052550	0.001031	20.778904
591.165970	-2.990000	3.729600	-11.150000	24.039099	0.001030	20.775371
592.165844	-2.994000	3.728600	-11.162000	24.065347	0.001031	20.765185
593.167767	-3.027400	3.728900	-11.287000	24.090926	0.001031	20.773769
594.161238	-2.992900	3.729500	-11.160000	24.098229	0.001030	20.795792
595.161893	-2.983000	3.728900	-11.122000	24.122308	0.001030	20.775845
596.164771	-3.002100	3.728400	-11.191000	24.105468	0.001029	20.791198
597.167354	-3.001800	3.728300	-11.191000	24.100691	0.001031	20.777873
598.164321	-2.981100	3.727800	-11.112000	24.120979	0.001031	20.770245
599.163943	-2.990900	3.727100	-11.147000	24.109698	0.001028	20.759405
600.163189	-2.987700	3.727400	-11.135000	24.117466	0.001029	20.779524
601.161880	-2.999900	3.726000	-11.177000	24.128143	0.001032	20.772689
602.162141	-3.027400	3.726600	-11.280000	24.134338	0.001029	20.786489
603.163195	-2.996600	3.726200	-11.164000	24.146564	0.001028	20.761292
604.164052	-3.003200	3.725700	-11.189000	24.157804	0.001032	20.793904
605.162471	-3.008000	3.725600	-11.205000	24.159956	0.001032	20.788949
606.163381	-3.000800	3.724500	-11.175000	24.165351	0.001029	20.774921
607.163538	-3.003700	3.724700	-11.187000	24.174187	0.001030	20.792791
608.161486	-3.003900	3.724500	-11.187000	24.148316	0.001029	20.799086
609.163482	-3.010100	3.723500	-11.207000	24.121019	0.001029	20.771707
610.162776	-3.005800	3.722200	-11.188000	24.133017	0.001027	20.803181
611.166251	-3.018800	3.723600	-11.240000	24.134362	0.001030	20.757114
612.164689	-3.006700	3.723200	-11.193000	24.141950	0.001029	20.802658
613.164921	-2.980300	3.723400	-11.096000	24.118614	0.001028	20.777830
614.166275	-3.016500	3.720900	-11.223000	24.120480	0.001030	20.798194
615.164685	-3.007800	3.720600	-11.189000	24.123447	0.001028	20.806860
616.163808	-3.007100	3.722300	-11.192000	24.137850	0.001028	20.813719
617.164104	-3.020600	3.722500	-11.243000	24.170298	0.001027	20.792210
618.167059	-2.991200	3.721600	-11.131000	24.166320	0.001028	20.788220
619.165889	-2.979200	3.721700	-11.087000	24.193812	0.001029	20.809157
620.164644	-3.005400	3.721200	-11.183000	24.178709	0.001029	20.794483
621.168206	-2.985100	3.720700	-11.106000	24.194138	0.001029	20.800949
622.165893	-2.994000	3.718900	-11.132000	24.192573	0.001027	20.797957
623.168259	-2.997700	3.720000	-11.151000	24.161071	0.001029	20.801448
624.171540	-3.010000	3.718400	-11.191000	24.144851	0.001029	20.811732
625.173106	-3.006300	3.719700	-11.181000	24.165733	0.001028	20.798063
626.169089	-3.026700	3.718700	-11.254000	24.149358	0.001028	20.785432
627.172368	-3.013100	3.718500	-11.203000	24.173118	0.001027	20.806892
628.168527	-3.003900	3.718200	-11.168000	24.192051	0.001027	20.798382
629.171378	-3.011400	3.717700	-11.194000	24.196689	0.001027	20.805878
630.173388	-3.004900	3.718100	-11.172000	24.180510	0.001026	20.820945
631.169357	-3.014900	3.716400	-11.202000	24.171357	0.001026	20.807023
632.171394	-2.980100	3.717600	-11.077000	24.188082	0.001025	20.812418
633.176825	-2.999300	3.718000	-11.151000	24.190119	0.001028	20.818255
634.170681	-2.976400	3.717200	-11.062000	24.177013	0.001027	20.814118
635.172499	-2.998200	3.716300	-11.142000	24.182091	0.001026	20.796926
636.174440	-3.015200	3.715600	-11.202000	24.206746	0.001026	20.789413
637.174263	-2.977400	3.715200	-11.061000	24.235459	0.001026	20.827696
638.174727	-2.999300	3.715000	-11.141000	24.218246	0.001027	20.808060
639.174844	-3.019600	3.714100	-11.214000	24.227154	0.001026	20.807987
640.172819	-2.974100	3.715700	-11.051000	24.230422	0.001026	20.825963
641.175663	-2.981600	3.714500	-11.075000	24.246592	0.001025	20.816578
642.175061	-3.003800	3.715300	-11.159000	24.263316	0.001025	20.788783
643.175895	-3.042300	3.714400	-11.299000	24.286029	0.001026	20.793549
644.174835	-2.997000	3.713700	-11.128000	24.307496	0.001026	20.824091
645.174228	-2.979300	3.714300	-11.066000	24.301677	0.001025	20.813512
646.178408	-3.021200	3.712400	-11.215000	24.298922	0.001026	20.801266
647.177139	-3.007000	3.711800	-11.161000	24.264790	0.001025	20.810651
648.174130	-2.992900	3.712900	-11.110000	24.251555	0.001025	20.805909
649.175466	-2.979400	3.713600	-11.064000	24.259868	0.001024	20.811403
650.176937	-2.994300	3.711700	-11.113000	24.266069	0.001026	20.793442
651.188056	-3.003500	3.711900	-11.147000	24.256689	0.001025	20.797783
652.176325	-2.997900	3.711400	-11.125000	24.216761	0.001025	20.809890
653.176871	-3.002300	3.712600	-11.145000	24.197037	0.001024	20.802908
654.179929	-2.992500	3.711300	-11.105000	24.182928	0.001027	20.797766
655.185760	-3.021900	3.710400	-11.211000	24.170295	0.001024	20.779405
656.178145	-2.975000	3.710900	-11.039000	24.176220	0.001024	20.796253
657.178550	-2.987000	3.710400	-11.082000	24.186050	0.001024	20.789991
658.179681	-2.979200	3.709300	-11.049000	24.212221	0.001023	20.776887
659.178765	-2.995000	3.710700	-11.111000	24.219165	0.001023	20.782903
660.177063	-2.983700	3.709500	-11.067000	24.232409	0.001024	20.786230
661.178353	-2.989100	3.709500	-11.087000	24.255596	0.001023	20.797160
662.183929	-3.025800	3.708400	-11.220000	24.253648	0.001023	20.802793
663.177551	-2.983000	3.709700	-11.065000	24.243452	0.001022	20.775496
664.177183	-2.998400	3.708700	-11.119000	24.225326	0.001022	20.779600
665.179070	-2.994300	3.707100	-11.099000	24.217559	0.001021	20.790776
666.182305	-3.008300	3.707700	-11.153000	24.217037	0.001022	20.792149
667.177984	-2.987000	3.707500	-11.073000	24.253174	0.001021	20.773869
668.180612	-2.994800	3.706700	-11.100000	24.239165	0.001022	20.778308
669.180758	-2.989700	3.705700	-11.078000	24.236654	0.001020	20.774368
670.179729	-2.993800	3.708100	-11.100000	24.236524	0.001020	20.776134
671.178729	-3.006900	3.704100	-11.137000	24.209636	0.001020	20.767656
672.179891	-3.014900	3.704200	-11.166000	24.181224	0.001021	20.780883
673.179664	-2.981400	3.705400	-11.047000	24.179316	0.001020	20.783237
674.179855	-2.975300	3.706000	-11.026000	24.177295	0.001020	20.766511
675.184155	-2.999100	3.704400	-11.109000	24.178045	0.001020	20.775798
676.178872	-2.996500	3.705400	-11.102000	24.191485	0.001021	20.777899
677.182285	-3.014500	3.703800	-11.164000	24.218234	0.001020	20.777702
678.182436	-2.990800	3.704200	-11.077000	24.215072	0.001020	20.761254
679.185256	-2.996400	3.704800	-11.099000	24.190425	0.001018	20.768775
680.182426	-2.995800	3.704400	-11.097000	24.230305	0.001019	20.767050
681.186098	-3.002600	3.704200	-11.121000	24.213336	0.001019	20.763306
682.184449	-2.996800	3.703100	-11.096000	24.209358	0.001018	20.769748
683.184115	-2.990300	3.702300	-11.070000	24.198738	0.001018	20.757198
684.183884	-3.001800	3.702300	-11.113000	24.211705	0.001016	20.764989
685.183619	-2.991500	3.703100	-11.077000	24.190156	0.001016	20.768031
686.185121	-2.996900	3.701500	-11.092000	24.209668	0.001019	20.764368
687.183835	-3.011600	3.701600	-11.147000	24.212048	0.001017	20.771023
688.186234	-2.996900	3.701500	-11.091000	24.239490	0.001017	20.756822
689.186896	-2.987600	3.702100	-11.059000	24.240590	0.001016	20.753184
690.184079	-3.017200	3.699800	-11.161000	24.249343	0.001017	20.751059
691.187069	-2.984900	3.700800	-11.046000	24.283377	0.001017	20.772871
692.187870	-2.986400	3.701100	-11.052000	24.289595	0.001017	20.757771
693.191323	-3.008400	3.700800	-11.133000	24.304232	0.001017	20.765815
694.186351	-3.005800	3.699500	-11.118000	24.318755	0.001016	20.731070
695.190643	-3.009800	3.699300	-11.133000	24.338957	0.001013	20.758923
696.187789	-2.991700	3.698800	-11.064000	24.331199	0.001016	20.756356
697.189854	-2.980800	3.699900	-11.027000	24.320751	0.001016	20.768161
698.188825	-2.982500	3.698800	-11.030000	24.301738	0.001015	20.753356
699.187701	-3.006400	3.698100	-11.116000	24.315177	0.001016	20.761147
700.187210	-3.023900	3.696800	-11.176000	24.355834	0.001015	20.754042
701.196571	-2.989300	3.697100	-11.051000	24.355736	0.001014	20.764376
702.189344	-2.993700	3.697800	-11.068000	24.336210	0.001014	20.734356
703.188876	-2.984700	3.698400	-11.038000	24.340880	0.001014	20.756585
704.189307	-2.994300	3.697800	-11.071000	24.334165	0.001013	20.757909
705.190960	-2.981900	3.696200	-11.021000	24.335754	0.001015	20.756659
706.197419	-3.005700	3.695000	-11.105000	24.338777	0.001013	20.761588
707.190538	-2.991200	3.696300	-11.055000	24.364056	0.001015	20.749014
708.190975	-3.010600	3.695300	-11.125000	24.379621	0.001014	20.755620
709.189685	-2.981700	3.696800	-11.022000	24.376737	0.001012	20.729965
710.188402	-2.995100	3.693400	-11.061000	24.406301	0.001012	20.730701
711.192458	-2.999100	3.694900	-11.080000	24.406171	0.001012	20.737209
712.189242	-3.005600	3.694200	-11.103000	24.454957	0.001013	20.758178
713.190002	-2.999400	3.693400	-11.077000	24.456399	0.001011	20.747297
714.195471	-3.017200	3.692700	-11.139000	24.473014	0.001012	20.729826
715.193177	-2.997900	3.693200	-11.071000	24.464963	0.001013	20.749251
716.194011	-3.009200	3.692700	-11.111000	24.480909	0.001011	20.747705
717.193635	-2.993100	3.691400	-11.047000	24.505582	0.001012	20.734053
718.192159	-3.013600	3.692500	-11.126000	24.505851	0.001012	20.745229
719.193712	-2.992800	3.693100	-11.051000	24.505566	0.001012	20.752055
720.196992	-3.010700	3.691600	-11.114000	24.500335	0.001009	20.748703
721.193821	-2.996700	3.690200	-11.058000	24.479149	0.001010	20.754000
722.196413	-2.972600	3.692100	-10.974000	24.434601	0.001007	20.716417
723.194839	-3.009800	3.690900	-11.108000	24.415052	0.001010	20.759396
724.198107	-2.984900	3.692500	-11.021000	24.410326	0.001010	20.747542
725.196583	-2.994800	3.691600	-11.055000	24.400531	0.001010	20.723015
726.196733	-2.999400	3.690900	-11.069000	24.461458	0.001008	20.743363
727.196535	-3.003100	3.690500	-11.081000	24.456252	0.001010	20.728656
728.201062	-2.996800	3.689400	-11.056000	24.447956	0.001010	20.752103
729.194464	-3.017500	3.690100	-11.132000	24.471684	0.001007	20.737027
730.195406	-2.990000	3.689700	-11.031000	24.486612	0.001008	20.737305
731.202152	-3.005000	3.690000	-11.087000	24.469973	0.001007	20.712550
732.200906	-2.984700	3.688800	-11.008000	24.481821	0.001008	20.740559
733.201149	-2.971400	3.688600	-10.960000	24.483687	0.001007	20.740534
734.201756	-2.971100	3.689300	-10.960000	24.491077	0.001008	20.733724
735.198670	-2.981600	3.688100	-10.995000	24.510307	0.001006	20.731206
736.197797	-3.009700	3.688100	-11.099000	24.503226	0.001008	20.724101
737.201361	-3.004200	3.686600	-11.074000	24.495240	0.001006	20.739798
738.199692	-3.007800	3.688000	-11.091000	24.490701	0.001008	20.741882
739.200912	-2.981800	3.688500	-10.996000	24.490718	0.001006	20.734786
740.201722	-2.995100	3.686700	-11.040000	24.500202	0.001008	20.705419
741.201941	-2.995600	3.686500	-11.042000	24.488436	0.001007	20.717323
742.209184	-3.003200	3.685400	-11.067000	24.519586	0.001007	20.741939
743.205282	-3.005200	3.684800	-11.072000	24.528794	0.001006	20.740272
744.202807	-2.995600	3.686800	-11.044000	24.525290	0.001004	20.714944
745.200551	-3.005900	3.686100	-11.079000	24.563894	0.001006	20.719064
746.204067	-3.018900	3.685000	-11.123000	24.563226	0.001006	20.734042
747.201301	-3.011200	3.683000	-11.089000	24.600314	0.001005	20.731425
748.201034	-3.007800	3.684700	-11.082000	24.583921	0.001005	20.724460
749.203606	-2.997500	3.685300	-11.045000	24.571015	0.001004	20.725735
750.201957	-3.001700	3.683800	-11.057000	24.553660	0.001002	20.721598
751.200411	-3.003100	3.683600	-11.061000	24.506361	0.001005	20.716341
752.201351	-2.996400	3.684500	-11.039000	24.523766	0.001005	20.712466
753.199098	-3.018100	3.683100	-11.115000	24.525843	0.001005	20.720715
754.200930	-3.022500	3.681700	-11.127000	24.557775	0.001005	20.724778
755.200912	-3.001100	3.682200	-11.050000	24.531808	0.001004	20.726699
756.200850	-2.991600	3.682800	-11.016000	24.560496	0.001003	20.720396
757.202528	-3.027700	3.680500	-11.142000	24.557888	0.001002	20.714460
758.202339	-3.004000	3.681600	-11.059000	24.565841	0.001002	20.706792
759.204346	-2.987500	3.681600	-10.998000	24.550547	0.001001	20.708517
760.202731	-2.988500	3.681700	-11.003000	24.548804	0.001001	20.706293
761.203417	-3.013100	3.681300	-11.091000	24.539580	0.001002	20.722170
762.203590	-3.008300	3.680700	-11.071000	24.539018	0.000999	20.697896
763.204124	-2.999800	3.681200	-11.042000	24.509913	0.000999	20.714215
764.204610	-2.987400	3.679600	-10.991000	24.492305	0.001000	20.708876
765.207101	-3.007400	3.679000	-11.064000	24.471527	0.001002	20.716005
766.206540	-3.000000	3.680000	-11.039000	24.472285	0.001001	20.688314
767.205681	-2.999100	3.679400	-11.033000	24.511258	0.001001	20.689009
768.205997	-3.005300	3.678800	-11.055000	24.502808	0.001000	20.696653
769.207065	-3.013800	3.679500	-11.088000	24.532206	0.000999	20.701019
770.207098	-2.999900	3.677300	-11.030000	24.540460	0.000999	20.703137
771.207562	-3.010700	3.678100	-11.073000	24.517678	0.000999	20.696874
772.209340	-2.993900	3.677900	-11.010000	24.526853	0.000999	20.699441
773.211845	-3.016500	3.675900	-11.088000	24.560879	0.000997	20.710822
774.213106	-2.969600	3.677200	-10.919000	24.563209	0.000997	20.700357
775.214018	-2.994000	3.677400	-11.007000	24.580205	0.000999	20.697970
776.210792	-2.993600	3.676400	-11.004000	24.618702	0.000996	20.689655
777.216515	-3.001100	3.677500	-11.035000	24.593909	0.000998	20.696547
778.213345	-2.998800	3.675500	-11.021000	24.585476	0.000998	20.688085
779.212157	-3.003800	3.675400	-11.039000	24.552698	0.000995	20.708778
780.218563	-2.984900	3.676300	-10.971000	24.556177	0.000995	20.693776
781.212568	-3.009100	3.675700	-11.060000	24.550335	0.000996	20.706881
782.212228	-3.002000	3.675800	-11.034000	24.556878	0.000995	20.691633
783.215137	-3.001300	3.674200	-11.026000	24.552657	0.000995	20.702098
784.217863	-3.000300	3.675300	-11.026000	24.507314	0.000995	20.710658
785.214989	-3.014300	3.674300	-11.073000	24.555990	0.000995	20.699278
786.215663	-2.994100	3.674400	-10.999000	24.559900	0.000995	20.707944
787.215680	-3.013200	3.674000	-11.070000	24.575446	0.000995	20.696040
788.216604	-2.998700	3.672600	-11.012000	24.581435	0.000996	20.699204
789.218075	-3.034600	3.672200	-11.143000	24.592434	0.000994	20.694593
790.219942	-2.978400	3.674300	-10.942000	24.573532	0.000995	20.676099
791.218670	-2.992000	3.672400	-10.987000	24.561008	0.000994	20.712375
792.218525	-2.980600	3.674100	-10.950000	24.563396	0.000993	20.714296
793.219977	-2.988100	3.671400	-10.969000	24.577100	0.000994	20.681102
794.218942	-2.990100	3.671900	-10.978000	24.593965	0.000993	20.681903
795.219286	-3.009200	3.671300	-11.046000	24.580342	0.000993	20.691943
796.220047	-3.005600	3.671300	-11.034000	24.550000	0.000992	20.694216
797.218568	-3.007500	3.669700	-11.035000	24.537216	0.000991	20.680914
798.219121	-2.999400	3.669200	-11.004000	24.525223	0.000992	20.694486
799.221476	-3.026400	3.669400	-11.105000	24.499857	0.000991	20.684683
800.218143	-3.012600	3.670600	-11.057000	24.493518	0.000991	20.723845
801.219172	-3.028500	3.669300	-11.110000	24.502228	0.000991	20.695123
802.220878	-2.996400	3.669200	-10.993000	24.499865	0.000991	20.677104
803.220270	-3.002800	3.668800	-11.015000	24.527561	0.000989	20.682606
804.221233	-2.987900	3.668200	-10.958000	24.550831	0.000990	20.692679
805.221960	-3.013400	3.668800	-11.054000	24.552998	0.000990	20.681576
806.220503	-3.006700	3.668300	-11.029000	24.549242	0.000991	20.700568
807.220441	-2.988600	3.668400	-10.962000	24.582004	0.000990	20.690291
808.223746	-3.000000	3.667900	-11.003000	24.568748	0.000989	20.700699
809.221555	-2.983600	3.667800	-10.943000	24.607424	0.000987	20.691616
810.220565	-2.997600	3.667900	-10.993000	24.588799	0.000989	20.688100
811.222003	-2.997600	3.666500	-10.989000	24.599733	0.000987	20.686269
812.220782	-2.995700	3.666700	-10.984000	24.618244	0.000987	20.680660
813.220755	-2.995800	3.664800	-10.978000	24.589272	0.000988	20.675771
814.222269	-3.018800	3.665400	-11.064000	24.589923	0.000984	20.689702
815.223668	-2.986500	3.665800	-10.946000	24.588880	0.000987	20.682966
816.223337	-2.991800	3.665400	-10.965000	24.599554	0.000987	20.676130
817.223560	-2.995900	3.665300	-10.979000	24.590575	0.000987	20.694150
818.225470	-2.987600	3.665600	-10.949000	24.607766	0.000987	20.672517
819.227337	-2.996500	3.665000	-10.981000	24.614178	0.000986	20.678951
820.222811	-2.979400	3.666000	-10.921000	24.597940	0.000986	20.688738
821.226721	-2.994500	3.664100	-10.971000	24.621918	0.000985	20.680554
822.224216	-2.990900	3.664600	-10.959000	24.637259	0.000985	20.680774
823.223730	-3.018400	3.663800	-11.057000	24.643060	0.000985	20.676163
824.224130	-3.002500	3.662600	-10.996000	24.649032	0.000985	20.665085
825.224146	-2.998800	3.661500	-10.979000	24.653382	0.000986	20.686522
826.223779	-2.997000	3.663000	-10.976000	24.687746	0.000985	20.674062
827.228001	-3.004900	3.662500	-11.005000	24.695877	0.000984	20.661831
828.224420	-3.023400	3.660900	-11.067000	24.678451	0.000984	20.671372
829.223650	-3.003100	3.661900	-10.996000	24.666336	0.000983	20.669173
830.222046	-3.002900	3.662500	-10.997000	24.655598	0.000983	20.675468
831.227734	-2.996500	3.661100	-10.969000	24.653553	0.000982	20.695703
832.223466	-2.998300	3.660200	-10.973000	24.653553	0.000981	20.693807
833.233545	-3.029400	3.659200	-11.084000	24.617396	0.000981	20.676016
834.230234	-3.006800	3.660800	-11.006000	24.617967	0.000982	20.673743
835.229024	-2.999500	3.660000	-10.977000	24.643166	0.000982	20.658724
836.228345	-2.986500	3.659200	-10.927000	24.673579	0.000981	20.679286
837.229100	-2.982000	3.659000	-10.909000	24.696585	0.000981	20.667758
838.227421	-2.988400	3.658300	-10.931000	24.706198	0.000980	20.662231
839.227807	-2.962700	3.658700	-10.838000	24.697709	0.000981	20.666515
840.227367	-3.005000	3.658500	-10.991000	24.661871	0.000981	20.639085
841.226782	-2.990200	3.659600	-10.942000	24.647818	0.000980	20.672402
842.227291	-2.997600	3.657400	-10.962000	24.638774	0.000981	20.661430
843.226307	-3.000000	3.658000	-10.972000	24.630586	0.000979	20.662697
844.228053	-3.014500	3.656700	-11.022000	24.639834	0.000980	20.659173
845.228864	-2.996300	3.658400	-10.959000	24.617730	0.000978	20.664496
846.227562	-3.013800	3.656600	-11.019000	24.603603	0.000978	20.669287
847.226830	-3.001600	3.657200	-10.976000	24.600172	0.000978	20.669164
848.227614	-2.996500	3.657700	-10.959000	24.645659	0.000977	20.657432
849.228231	-3.008200	3.655500	-10.996000	24.632338	0.000976	20.655919
850.228586	-2.989200	3.656300	-10.929000	24.646636	0.000977	20.677855
851.229130	-2.986000	3.656400	-10.917000	24.627441	0.000976	20.681828
852.232378	-2.964900	3.657500	-10.843000	24.618610	0.000976	20.664904
853.232124	-2.997600	3.654700	-10.954000	24.615775	0.000976	20.658740
854.229963	-2.984200	3.655200	-10.907000	24.616915	0.000977	20.668894
855.229504	-2.989000	3.654300	-10.922000	24.632110	0.000976	20.662329
856.230234	-2.997700	3.654800	-10.955000	24.654751	0.000977	20.662762
857.229891	-3.010000	3.654400	-10.997000	24.680902	0.000975	20.655813
858.229295	-2.993300	3.654300	-10.937000	24.702100	0.000976	20.670448
859.232270	-3.010400	3.653900	-10.999000	24.696878	0.000973	20.654774
860.233384	-2.996900	3.653400	-10.947000	24.678825	0.000974	20.650408
861.234457	-3.010500	3.653500	-10.997000	24.682458	0.000973	20.664487
862.232050	-3.003200	3.652100	-10.967000	24.650628	0.000972	20.667635
863.237371	-2.998700	3.652200	-10.951000	24.673806	0.000973	20.659598
864.237436	-3.006100	3.651800	-10.976000	24.655924	0.000972	20.675795
865.232440	-3.001200	3.651500	-10.958000	24.694540	0.000972	20.667602
866.233823	-3.006800	3.652100	-10.981000	24.718744	0.000974	20.655379
867.238142	-3.026700	3.648900	-11.044000	24.775956	0.000971	20.661111
868.240305	-2.972400	3.652100	-10.855000	24.753537	0.000972	20.667063
869.236739	-3.009600	3.650500	-10.984000	24.822241	0.000973	20.666785
870.238835	-2.981200	3.651300	-10.884000	24.820750	0.000973	20.653433
871.233258	-2.970500	3.651000	-10.845000	24.829979	0.000970	20.680242
872.236658	-2.995600	3.649400	-10.931000	24.818339	0.000969	20.681837
873.237545	-2.976500	3.650100	-10.863000	24.838882	0.000970	20.657407
874.235856	-2.977300	3.650200	-10.867000	24.818070	0.000970	20.659753
875.235247	-2.992100	3.649800	-10.920000	24.822070	0.000968	20.653335
876.246017	-2.999500	3.649400	-10.945000	24.845399	0.000969	20.651618
877.235710	-2.998500	3.650200	-10.944000	24.853675	0.000967	20.646173
878.236854	-3.019100	3.648300	-11.012000	24.860069	0.000969	20.665395
879.237574	-2.982900	3.649900	-10.886000	24.865861	0.000967	20.671682
880.237211	-2.999700	3.647700	-10.941000	24.876629	0.000968	20.668739
881.236713	-3.008600	3.647200	-10.972000	24.889034	0.000969	20.661748
882.241005	-2.987200	3.647800	-10.896000	24.913152	0.000967	20.651814
883.244443	-3.006800	3.647700	-10.966000	24.932342	0.000967	20.659696
884.240954	-3.003900	3.647600	-10.954000	24.913828	0.000967	20.682368
885.241704	-2.995300	3.647700	-10.925000	24.902832	0.000969	20.676547
886.242155	-3.014600	3.645800	-10.990000	24.850449	0.000967	20.665223
887.240736	-3.015300	3.645300	-10.991000	24.856730	0.000966	20.666310
888.239871	-2.998300	3.645500	-10.930000	24.846270	0.000966	20.667193
889.240638	-3.006900	3.644400	-10.957000	24.834533	0.000966	20.659680
890.240517	-2.993900	3.644800	-10.912000	24.868972	0.000964	20.676228
891.240585	-3.010800	3.644800	-10.973000	24.835478	0.000965	20.680545
892.239185	-3.008300	3.644600	-10.962000	24.820603	0.000965	20.656131
893.240186	-2.986700	3.644700	-10.884000	24.810388	0.000962	20.668166
894.241890	-2.985500	3.644800	-10.881000	24.795595	0.000963	20.672761
895.244384	-2.974600	3.644700	-10.840000	24.779409	0.000962	20.681174
896.245134	-3.021100	3.641500	-10.999000	24.817231	0.000964	20.668395
897.242638	-3.013200	3.642100	-10.973000	24.817997	0.000961	20.672483
898.250748	-3.009500	3.642800	-10.962000	24.797388	0.000963	20.675982
899.246155	-3.019100	3.642800	-10.997000	24.815838	0.000963	20.667471
900.247580	-3.011500	3.640600	-10.963000	24.812653	0.000961	20.669965
901.245622	-3.016700	3.641800	-10.985000	24.821858	0.000963	20.670668
902.246975	-3.045900	3.640500	-11.087000	24.828317	0.000960	20.659606
903.247567	-3.003200	3.640300	-10.932000	24.860884	0.000959	20.673800
904.247454	-3.001600	3.640800	-10.926000	24.875806	0.000961	20.657955
905.248879	-2.976900	3.642000	-10.841000	24.905276	0.000961	20.678051
906.248998	-2.989500	3.640600	-10.882000	24.931649	0.000959	20.684134
907.249606	-3.006700	3.640100	-10.942000	24.902221	0.000960	20.664552
908.249844	-3.005000	3.640200	-10.937000	24.894329	0.000959	20.659001
909.248293	-2.997900	3.640100	-10.912000	24.921574	0.000961	20.686350
910.250504	-2.995300	3.640600	-10.903000	24.917094	0.000958	20.669524
911.251585	-2.995200	3.640200	-10.902000	24.954545	0.000958	20.686726
912.249697	-3.004300	3.640800	-10.937000	24.952794	0.000957	20.666000
913.249669	-3.026000	3.638300	-11.008000	24.929149	0.000958	20.661708
914.250562	-3.000000	3.638700	-10.915000	24.946384	0.000956	20.668575
915.252608	-2.995500	3.637700	-10.895000	24.930485	0.000954	20.694346
916.250770	-2.979200	3.638800	-10.839000	24.916565	0.000957	20.667570
917.253022	-2.991400	3.636900	-10.878000	24.907809	0.000955	20.683439
918.253722	-2.987800	3.638000	-10.868000	24.916060	0.000956	20.672279
919.252021	-3.002000	3.637400	-10.918000	24.928245	0.000955	20.685933
920.253151	-3.014500	3.635900	-10.958000	24.941986	0.000954	20.699726
921.257327	-3.009100	3.635400	-10.937000	24.918765	0.000953	20.672623
922.254833	-3.010900	3.635700	-10.946000	24.903028	0.000953	20.691444
923.254245	-3.010800	3.635700	-10.945000	24.917095	0.000953	20.695131
924.257204	-2.973500	3.637000	-10.813000	24.928286	0.000953	20.677438
925.258988	-2.989900	3.635900	-10.870000	24.948347	0.000953	20.685721
926.257779	-3.006000	3.635100	-10.924000	24.946335	0.000953	20.695082
927.256518	-3.029100	3.634200	-11.007000	24.965133	0.000952	20.677438
928.261363	-2.990900	3.634800	-10.869000	24.928531	0.000954	20.677684
929.257174	-3.006000	3.633600	-10.922000	24.919335	0.000951	20.682679
930.257175	-3.010300	3.632500	-10.933000	24.931169	0.000951	20.698826
931.258645	-3.004800	3.633100	-10.916000	24.892106	0.000951	20.686645
932.257715	-3.005700	3.633500	-10.920000	24.894125	0.000950	20.665910
933.257589	-3.009400	3.632900	-10.932000	24.879277	0.000950	20.695106
934.256795	-3.028900	3.633500	-11.005000	24.867466	0.000948	20.699374
935.258609	-2.971700	3.634800	-10.801000	24.857349	0.000947	20.710558
936.259068	-2.984300	3.633200	-10.840000	24.852006	0.000950	20.691444
937.258666	-2.993300	3.632100	-10.871000	24.845196	0.000948	20.687454
938.264500	-3.004100	3.630900	-10.905000	24.849472	0.000948	20.695065
939.261248	-2.990300	3.631300	-10.858000	24.879586	0.000948	20.703952
940.258274	-2.988000	3.631700	-10.850000	24.890558	0.000946	20.692678
941.259371	-2.980700	3.632500	-10.826000	24.906864	0.000947	20.699562
942.264491	-3.010700	3.629900	-10.927000	24.915001	0.000949	20.680226
943.257980	-2.978400	3.631100	-10.813000	24.896308	0.000947	20.709356
944.260902	-2.997500	3.631300	-10.884000	24.883748	0.000946	20.681101
945.259845	-3.005400	3.628900	-10.905000	24.870642	0.000946	20.692604
946.260138	-3.016200	3.628700	-10.943000	24.875423	0.000945	20.696929
947.261891	-2.995200	3.630400	-10.872000	24.892512	0.000947	20.688950
948.260818	-3.010100	3.629200	-10.923000	24.881997	0.000946	20.690724
949.262692	-3.009600	3.629900	-10.923000	24.921346	0.000942	20.704140
950.262248	-3.013200	3.629600	-10.935000	24.898434	0.000945	20.700584
951.263346	-3.012800	3.627700	-10.927000	24.885377	0.000942	20.692694
952.261314	-3.013700	3.626700	-10.928000	24.884636	0.000943	20.700485
953.264736	-2.986000	3.628200	-10.833000	24.905968	0.000943	20.685859
954.263607	-2.992000	3.629000	-10.857000	24.944559	0.000944	20.701834
955.266549	-2.988500	3.626900	-10.838000	24.933400	0.000941	20.701066
956.263730	-3.008200	3.626100	-10.906000	24.946758	0.000944	20.677012
957.264778	-2.988900	3.627200	-10.840000	24.976894	0.000942	20.689718
958.265195	-3.007200	3.625700	-10.901000	24.980966	0.000942	20.706609
959.264349	-3.003300	3.626600	-10.890000	24.971722	0.000941	20.703020
960.270069	-2.988300	3.626200	-10.835000	24.983922	0.000940	20.685393
961.265262	-3.007400	3.625000	-10.900000	24.941879	0.000940	20.683022
962.266312	-3.022900	3.624700	-10.955000	24.904665	0.000938	20.702096
963.266766	-2.996000	3.625000	-10.859000	24.873436	0.000939	20.681182
964.266821	-3.027800	3.622900	-10.968000	24.891486	0.000939	20.700248
965.265577	-2.992000	3.625000	-10.845000	24.927609	0.000939	20.708530
966.271163	-2.997900	3.623800	-10.862000	24.932814	0.000938	20.702374
967.267866	-3.015200	3.623000	-10.923000	24.956703	0.000935	20.725879
968.267560	-3.003100	3.624000	-10.882000	24.953469	0.000937	20.691811
969.269541	-2.988100	3.622800	-10.824000	24.921272	0.000937	20.706437
970.271284	-2.984100	3.622900	-10.810000	24.926298	0.000936	20.715275
971.267271	-2.980400	3.623000	-10.797000	24.961280	0.000936	20.719093
972.268929	-2.990700	3.623000	-10.833000	24.969254	0.000935	20.706707
973.269677	-3.002800	3.622200	-10.876000	24.974580	0.000936	20.699251
974.269272	-2.994700	3.620000	-10.839000	25.005326	0.000936	20.699766
975.271609	-3.018800	3.620200	-10.927000	25.000277	0.000935	20.722674
976.275693	-3.005200	3.620700	-10.880000	25.006124	0.000937	20.718586
977.272552	-3.022200	3.620600	-10.942000	24.989966	0.000936	20.707582
978.272525	-3.022000	3.619900	-10.938000	24.989518	0.000935	20.708081
979.275128	-3.045900	3.618600	-11.020000	24.960002	0.000934	20.711645
980.273230	-3.006400	3.620500	-10.884000	24.935282	0.000935	20.713387
981.274740	-2.980400	3.618200	-10.783000	24.935982	0.000933	20.732583
982.273728	-3.003700	3.619200	-10.869000	24.923602	0.000932	20.724898
983.272449	-3.013700	3.619600	-10.908000	24.912875	0.000932	20.701328
984.274966	-2.988600	3.618400	-10.813000	24.908754	0.000932	20.710468
985.274152	-2.984400	3.617200	-10.794000	24.940128	0.000930	20.720148
986.278150	-3.013300	3.617800	-10.901000	24.927838	0.000932	20.709708
987.276830	-2.979000	3.618400	-10.778000	24.954121	0.000929	20.721391
988.276486	-2.982700	3.618200	-10.791000	24.968790	0.000928	20.714302
989.277036	-2.985600	3.618700	-10.803000	24.985096	0.000928	20.728773
990.277306	-2.987500	3.617400	-10.806000	24.955905	0.000928	20.715594
991.279191	-2.996200	3.616400	-10.834000	24.949479	0.000929	20.727163
992.277602	-3.006000	3.616200	-10.869000	24.936504	0.000929	20.739271
993.277844	-2.992200	3.617000	-10.821000	24.962462	0.000928	20.729763
994.279181	-3.004300	3.616100	-10.862000	25.016411	0.000929	20.721800
995.280132	-3.003900	3.615800	-10.860000	25.017014	0.000926	20.714818
996.277909	-2.992200	3.613400	-10.810000	25.058329	0.000927	20.726893
997.281222	-2.999000	3.614700	-10.839000	25.058899	0.000925	20.727940
998.280377	-2.964300	3.615000	-10.714000	25.056195	0.000927	20.713371
999.282367	-2.999800	3.615400	-10.845000	25.022128	0.000926	20.720426
1000.284450	-2.995200	3.615100	-10.826000	24.971535	0.000924	20.727016
1001.282339	-2.993200	3.613900	-10.816000	24.992475	0.000925	20.730016
1002.284013	-3.011300	3.613700	-10.881000	24.994291	0.000924	20.736581
1003.282342	-3.029500	3.613100	-10.945000	24.993509	0.000923	20.758083
1004.280477	-2.974800	3.613700	-10.748000	25.018822	0.000924	20.748403
1005.285903	-2.985200	3.613000	-10.785000	25.024050	0.000924	20.738952
1006.284551	-3.014900	3.611400	-10.886000	25.041821	0.000922	20.721702
1007.281030	-2.996200	3.612100	-10.822000	25.028155	0.000921	20.727424
1008.282796	-2.995100	3.613300	-10.821000	25.067059	0.000923	20.749408
1009.292953	-2.989500	3.611700	-10.797000	25.072654	0.000922	20.739377
1010.282364	-2.993900	3.611900	-10.812000	25.052596	0.000920	20.742475
1011.287591	-3.012000	3.610200	-10.872000	25.026143	0.000921	20.746743
1012.285851	-3.004700	3.609600	-10.844000	25.064584	0.000921	20.737913
1013.282436	-2.979400	3.610200	-10.754000	25.031274	0.000920	20.740987
1014.281518	-3.000300	3.609800	-10.829000	25.028595	0.000920	20.740194
1015.283358	-3.004600	3.609700	-10.845000	25.048035	0.000919	20.731733
1016.282880	-3.013700	3.609000	-10.875000	25.042546	0.000919	20.739025
1017.284869	-3.000800	3.608100	-10.826000	25.080578	0.000919	20.749702
1018.287474	-2.994100	3.608100	-10.802000	25.041625	0.000917	20.747585
1019.284232	-2.999100	3.607700	-10.818000	25.029222	0.000918	20.736556
1020.283834	-2.993000	3.607700	-10.796000	24.995936	0.000918	20.739655
1021.283902	-2.990400	3.607700	-10.788000	24.990389	0.000915	20.747364
1022.283904	-3.002200	3.608200	-10.832000	25.004292	0.000915	20.743775
1023.284498	-2.996900	3.607500	-10.810000	25.025076	0.000913	20.748991
1024.283453	-2.989400	3.606200	-10.779000	25.057327	0.000917	20.730155
1025.284236	-3.000200	3.605500	-10.816000	25.072564	0.000913	20.729803
1026.285711	-2.977600	3.608000	-10.742000	25.040794	0.000913	20.750544
1027.285034	-3.006000	3.607100	-10.842000	25.024669	0.000913	20.733408
1028.289592	-2.977500	3.606600	-10.737000	25.046699	0.000915	20.750307
1029.288741	-2.986500	3.606900	-10.771000	25.019261	0.000914	20.736041
1030.288282	-3.038400	3.603000	-10.946000	25.011752	0.000915	20.731822
1031.288597	-3.005400	3.605400	-10.835000	24.983303	0.000914	20.740725
1032.285361	-3.011100	3.604500	-10.852000	24.976274	0.000912	20.736041
1033.288255	-3.010600	3.604200	-10.850000	24.990519	0.000914	20.749865
1034.290085	-3.007500	3.602600	-10.834000	25.009422	0.000911	20.739916
1035.288946	-2.991900	3.604200	-10.782000	25.017493	0.000911	20.750863
1036.287638	-2.993000	3.603500	-10.784000	25.044622	0.000910	20.756757
1037.290258	-2.990900	3.603400	-10.776000	25.081571	0.000909	20.763027
1038.287383	-2.988900	3.604400	-10.773000	25.125351	0.000908	20.758139
1039.286752	-3.002800	3.602100	-10.816000	25.145954	0.000909	20.745630
1040.293853	-2.999300	3.602300	-10.803000	25.159431	0.000910	20.752522
1041.290768	-3.005200	3.600900	-10.820000	25.210659	0.000908	20.756536
1042.286982	-3.000800	3.603100	-10.811000	25.230365	0.000909	20.749767
1043.293427	-3.008200	3.599900	-10.828000	25.216417	0.000907	20.772748
1044.290058	-2.999700	3.600600	-10.800000	25.221693	0.000907	20.751492
1045.287301	-2.997200	3.600000	-10.789000	25.237718	0.000909	20.767107
1046.287154	-2.995700	3.600700	-10.786000	25.237669	0.000906	20.781757
1047.288320	-2.988100	3.600800	-10.757000	25.274653	0.000905	20.755351
1048.288414	-3.008800	3.599400	-10.828000	25.289985	0.000906	20.758417
1049.287175	-3.004500	3.600000	-10.814000	25.312587	0.000906	20.755032
1050.291581	-3.013000	3.598400	-10.841000	25.327593	0.000906	20.768203
1051.287469	-3.020100	3.597900	-10.865000	25.313727	0.000902	20.758073
1052.287595	-2.996200	3.597900	-10.778000	25.325476	0.000902	20.759439
1053.289228	-3.000300	3.598000	-10.793000	25.344789	0.000903	20.775037
1054.289568	-2.984400	3.597600	-10.735000	25.322741	0.000903	20.767124
1055.288663	-3.001400	3.597400	-10.796000	25.318360	0.000903	20.775528
1056.289648	-3.019300	3.595600	-10.855000	25.326665	0.000903	20.762529
1057.294939	-2.972700	3.597500	-10.693000	25.305113	0.000901	20.760330
1058.287455	-3.003100	3.596500	-10.800000	25.283862	0.000903	20.770762
1059.288630	-2.999700	3.599000	-10.795000	25.273822	0.000900	20.783441
1060.290448	-3.017500	3.595800	-10.849000	25.298868	0.000900	20.762595
1061.287804	-3.007000	3.595600	-10.811000	25.280214	0.000899	20.757141
1062.290365	-3.002700	3.597200	-10.800000	25.286427	0.000899	20.782346
1063.290780	-3.002200	3.596000	-10.794000	25.274368	0.000900	20.771187
1064.289229	-3.014700	3.594100	-10.833000	25.300293	0.000899	20.772086
1065.288715	-3.021400	3.593700	-10.856000	25.300692	0.000900	20.780547
1066.292078	-3.009300	3.593400	-10.811000	25.329075	0.000898	20.773958
1067.288880	-3.011800	3.593600	-10.823000	25.334864	0.000899	20.767917
1068.288973	-3.022500	3.592100	-10.856000	25.325224	0.000897	20.790480
1069.292309	-2.997300	3.594700	-10.773000	25.280963	0.000896	20.799146
1070.290720	-3.006000	3.592500	-10.798000	25.260428	0.000896	20.789908
1071.290210	-2.986300	3.594400	-10.734000	25.228639	0.000896	20.811097
1072.291019	-2.988800	3.593200	-10.738000	25.242262	0.000895	20.804860
1073.290065	-3.001400	3.592300	-10.781000	25.248027	0.000896	20.794527
1074.290544	-3.010900	3.591400	-10.812000	25.260737	0.000893	20.806339
1075.289280	-3.002600	3.593200	-10.788000	25.303875	0.000893	20.774735
1076.293754	-3.013300	3.590400	-10.818000	25.317969	0.000896	20.795050
1077.289574	-3.017900	3.589400	-10.831000	25.359224	0.000893	20.799015
1078.290699	-2.998200	3.590800	-10.765000	25.347581	0.000890	20.771203
1079.295424	-2.981800	3.590000	-10.703000	25.369173	0.000892	20.785297
1080.291678	-3.006700	3.591100	-10.795000	25.401829	0.000891	20.793431
1081.290362	-3.001400	3.589800	-10.774000	25.391188	0.000891	20.781324
1082.293884	-2.988700	3.590800	-10.730000	25.394331	0.000890	20.775470
1083.293173	-2.998600	3.589200	-10.761000	25.378447	0.000892	20.790815
1084.292033	-3.012700	3.589100	-10.812000	25.363507	0.000888	20.795254
1085.294996	-2.991800	3.589500	-10.739000	25.338088	0.000891	20.814302
1086.291963	-3.016700	3.587600	-10.822000	25.307686	0.000891	20.797527
1087.294101	-2.989900	3.587700	-10.725000	25.336737	0.000890	20.771693
1088.292682	-2.987300	3.589200	-10.721000	25.308174	0.000890	20.791379
1089.294121	-3.005000	3.589000	-10.782000	25.316088	0.000889	20.788420
1090.292133	-3.001300	3.589100	-10.771000	25.306595	0.000891	20.797854
1091.295074	-3.014000	3.586100	-10.808000	25.310071	0.000888	20.791387
1092.293009	-3.040400	3.585700	-10.900000	25.344626	0.000888	20.790995
1093.294199	-2.997500	3.585700	-10.747000	25.373252	0.000887	20.822583
1094.293408	-2.996400	3.586000	-10.743000	25.382452	0.000886	20.800527
1095.295461	-2.993900	3.586300	-10.736000	25.403995	0.000886	20.806037
1096.295094	-3.002400	3.585400	-10.763000	25.383690	0.000885	20.830218
1097.295177	-2.986200	3.584900	-10.704000	25.419659	0.000883	20.799481
1098.295653	-3.003600	3.584900	-10.766000	25.425423	0.000885	20.802898
1099.295183	-2.992600	3.584400	-10.726000	25.441135	0.000882	20.800658
1100.294973	-2.996500	3.584500	-10.740000	25.431285	0.000885	20.799775
1101.296474	-2.988900	3.583800	-10.710000	25.423290	0.000882	20.802178
1102.296654	-3.007400	3.584300	-10.778000	25.383446	0.000881	20.820490
1103.296595	-3.014900	3.583000	-10.802000	25.334286	0.000882	20.800527
1104.296848	-3.001900	3.582500	-10.752000	25.305430	0.000882	20.825608
1105.295489	-3.004400	3.582500	-10.762000	25.296588	0.000880	20.824790
1106.297843	-3.015000	3.582300	-10.800000	25.285099	0.000880	20.823687
1107.297066	-3.018300	3.581400	-10.808000	25.295472	0.000881	20.821299
1108.296453	-3.013400	3.581300	-10.790000	25.332551	0.000878	20.816329
1109.299908	-2.998000	3.581100	-10.735000	25.301937	0.000878	20.802186
1110.300003	-3.013700	3.580500	-10.790000	25.297532	0.000879	20.819575
1111.301570	-3.020800	3.579700	-10.812000	25.292712	0.000878	20.832752
1112.300474	-2.998600	3.581300	-10.738000	25.294552	0.000876	20.825591
1113.301569	-3.028300	3.580000	-10.839000	25.257447	0.000876	20.815839
1114.299553	-2.992800	3.579600	-10.712000	25.279074	0.000877	20.811947
1115.301752	-3.016900	3.579600	-10.799000	25.275711	0.000876	20.817580
1116.303568	-3.010700	3.579500	-10.776000	25.256324	0.000875	20.806650
1117.301390	-3.002700	3.578300	-10.743000	25.250437	0.000875	20.819231
1118.301603	-3.011400	3.578100	-10.774000	25.267414	0.000875	20.815414
1119.301590	-3.008000	3.578300	-10.763000	25.289862	0.000874	20.800494
1120.300326	-3.004700	3.577100	-10.747000	25.284920	0.000872	20.821610
1121.300277	-3.027200	3.575700	-10.824000	25.293192	0.000871	20.816640
1122.301596	-2.997100	3.578200	-10.723000	25.284439	0.000874	20.830611
1123.304367	-2.991600	3.577100	-10.700000	25.332885	0.000872	20.831363
1124.301911	-3.010400	3.576600	-10.766000	25.366543	0.000872	20.795932
1125.301631	-3.010400	3.576300	-10.765000	25.393256	0.000870	20.816117
1126.301665	-2.992600	3.575800	-10.699000	25.380295	0.000870	20.835344
1127.303188	-3.002600	3.574700	-10.731000	25.399126	0.000870	20.802571
1128.309474	-2.982100	3.576500	-10.664000	25.420578	0.000871	20.819844
1129.305672	-2.962600	3.577000	-10.595000	25.418095	0.000870	20.815454
1130.301609	-2.995200	3.575000	-10.707000	25.445824	0.000868	20.813901
1131.307374	-3.009700	3.574700	-10.757000	25.447322	0.000868	20.822517
1132.311625	-3.001600	3.574400	-10.729000	25.436315	0.000867	20.795344
1133.302866	-2.998300	3.573400	-10.713000	25.434793	0.000867	20.811833
1134.307364	-2.989000	3.574700	-10.683000	25.450603	0.000865	20.807320
1135.304989	-3.015000	3.573400	-10.772000	25.476304	0.000866	20.808947
1136.303555	-2.988700	3.571800	-10.674000	25.466063	0.000864	20.827586
1137.304796	-3.013400	3.571700	-10.762000	25.457515	0.000866	20.789131
1138.308945	-3.018500	3.571000	-10.776000	25.464223	0.000865	20.797764
1139.303073	-2.994300	3.573700	-10.700000	25.470264	0.000864	20.797665
1140.304667	-2.982000	3.572100	-10.651000	25.473365	0.000864	20.792245
1141.309139	-3.010300	3.572000	-10.752000	25.493302	0.000863	20.809895
1142.304625	-2.994200	3.570100	-10.689000	25.485422	0.000862	20.797240
1143.304511	-3.016200	3.570600	-10.768000	25.463979	0.000862	20.817907
1144.309328	-2.995200	3.571400	-10.696000	25.422060	0.000861	20.818013
1145.307677	-3.007200	3.569800	-10.733000	25.403937	0.000862	20.808350
1146.306836	-3.011800	3.568400	-10.746000	25.386466	0.000862	20.807402
1147.311930	-3.008400	3.568900	-10.736000	25.415368	0.000861	20.787585
1148.307166	-3.001200	3.568200	-10.708000	25.434329	0.000860	20.811367
1149.308829	-3.013800	3.568700	-10.754000	25.456131	0.000859	20.793905
1150.314958	-2.991300	3.569100	-10.675000	25.467268	0.000859	20.777587
1151.311640	-3.011700	3.567900	-10.744000	25.478844	0.000860	20.790161
1152.310049	-3.002100	3.567000	-10.707000	25.458272	0.000859	20.786098
1153.312555	-2.997300	3.566700	-10.690000	25.444375	0.000857	20.796325
1154.310492	-2.995700	3.566700	-10.682000	25.439181	0.000858	20.793006
1155.308345	-2.997200	3.566700	-10.689000	25.474570	0.000857	20.783024
1156.310989	-3.002500	3.567400	-10.709000	25.496664	0.000856	20.776761
1157.308760	-2.987800	3.566700	-10.656000	25.461251	0.000855	20.776287
1158.309999	-3.005800	3.567300	-10.721000	25.458296	0.000856	20.782803
1159.310379	-3.005000	3.566100	-10.715000	25.422557	0.000853	20.785795
1160.310442	-3.007700	3.566800	-10.726000	25.445368	0.000856	20.782623
1161.310815	-2.994900	3.565600	-10.676000	25.423753	0.000852	20.761866
1162.311050	-3.013100	3.564000	-10.738000	25.436177	0.000853	20.773867
1163.313945	-2.999100	3.564600	-10.690000	25.423200	0.000853	20.787863
1164.314023	-2.984800	3.564200	-10.638000	25.440475	0.000850	20.795254
1165.312451	-3.002600	3.563400	-10.699000	25.444904	0.000850	20.789269
1166.312136	-2.991000	3.564100	-10.660000	25.386962	0.000850	20.786564
1167.312414	-3.000200	3.563100	-10.689000	25.401470	0.000850	20.795442
1168.312684	-2.979700	3.563900	-10.617000	25.447192	0.000850	20.780661
1169.312129	-3.028600	3.561700	-10.787000	25.430315	0.000849	20.789793
1170.315807	-2.978500	3.562800	-10.611000	25.394216	0.000847	20.781045
1171.313558	-3.007600	3.562300	-10.713000	25.401959	0.000849	20.770328
1172.313782	-3.010200	3.560800	-10.717000	25.340970	0.000848	20.774047
1173.313176	-2.993100	3.561100	-10.658000	25.326029	0.000847	20.772322
1174.316197	-3.010300	3.561500	-10.719000	25.303712	0.000846	20.783105
1175.311852	-2.973000	3.562500	-10.590000	25.282664	0.000846	20.768611
1176.314133	-2.989900	3.560300	-10.643000	25.260118	0.000845	20.787226
1177.315874	-2.996100	3.560100	-10.664000	25.286068	0.000844	20.787201
1178.314152	-2.989100	3.560000	-10.640000	25.284048	0.000844	20.760517
1179.312931	-3.013700	3.557100	-10.718000	25.309338	0.000844	20.775478
1180.315690	-2.983400	3.558600	-10.616000	25.339081	0.000843	20.784005
1181.314879	-2.998100	3.559000	-10.670000	25.347858	0.000843	20.774799
1182.313631	-2.974400	3.559200	-10.585000	25.417525	0.000844	20.801131
1183.317060	-2.988200	3.559100	-10.634000	25.441371	0.000843	20.757272
1184.315874	-2.997700	3.558200	-10.666000	25.440304	0.000838	20.773745
1185.316311	-3.008500	3.557600	-10.702000	25.456619	0.000842	20.776377
1186.313867	-3.033100	3.558400	-10.792000	25.426074	0.000841	20.768464
1187.315989	-2.997800	3.556700	-10.661000	25.400721	0.000841	20.772878
1188.317033	-2.998200	3.555900	-10.660000	25.377314	0.000840	20.774979
1189.318014	-3.029000	3.553800	-10.762000	25.358125	0.000838	20.774677
1190.317304	-2.988800	3.557300	-10.630000	25.353166	0.000838	20.768750
1191.316153	-2.980500	3.556800	-10.600000	25.336654	0.000838	20.775878
1192.316327	-3.003000	3.554000	-10.672000	25.313515	0.000838	20.768292
1193.317962	-2.991500	3.555300	-10.635000	25.301986	0.000837	20.773786
1194.319037	-2.976100	3.555700	-10.582000	25.314712	0.000836	20.772813
1195.317597	-3.001600	3.555700	-10.672000	25.295675	0.000835	20.772666
1196.320920	-3.002400	3.554000	-10.669000	25.293607	0.000835	20.767744
1197.320033	-3.009900	3.554100	-10.697000	25.304062	0.000834	20.763068
1198.317070	-3.010700	3.552900	-10.696000	25.369344	0.000834	20.775985
1199.321208	-2.988900	3.554300	-10.623000	25.398922	0.000833	20.753053
1200.317985	-2.986600	3.552900	-10.609000	25.434964	0.000833	20.775968
1201.318090	-2.993000	3.553100	-10.634000	25.444652	0.000833	20.733538
1202.321590	-2.974700	3.553000	-10.568000	25.442087	0.000832	20.766526
1203.316976	-2.985800	3.552500	-10.607000	25.470752	0.000833	20.772551
1204.319244	-3.000400	3.554200	-10.662000	25.473088	0.000832	20.755456
1205.319509	-3.012000	3.552000	-10.698000	25.481986	0.000830	20.759650
1206.319307	-2.990900	3.551700	-10.622000	25.476515	0.000829	20.765537
1207.320056	-2.989800	3.550300	-10.614000	25.501890	0.000829	20.761146
1208.319723	-2.972200	3.550700	-10.551000	25.508777	0.000827	20.755260
1209.321279	-3.020400	3.549300	-10.719000	25.508053	0.000828	20.765439
1210.319775	-2.989900	3.550200	-10.613000	25.500832	0.000829	20.771464
1211.319919	-3.013800	3.549400	-10.695000	25.516511	0.000827	20.745957
1212.323392	-3.018400	3.547700	-10.707000	25.499415	0.000827	20.760084
1213.320850	-2.986000	3.550200	-10.600000	25.466640	0.000827	20.751352
1214.320446	-3.007300	3.548100	-10.669000	25.472038	0.000827	20.745867
1215.322755	-3.003200	3.548400	-10.656000	25.482670	0.000824	20.746586
1216.324406	-3.015300	3.548100	-10.697000	25.484672	0.000827	20.764245
1217.321125	-2.992700	3.546800	-10.613000	25.498316	0.000825	20.758980
1218.319245	-2.994000	3.548300	-10.623000	25.503681	0.000822	20.756781
1219.324930	-3.020300	3.546900	-10.712000	25.520825	0.000823	20.746970
1220.321105	-3.001300	3.545300	-10.640000	25.513678	0.000822	20.772036
1221.321748	-2.984500	3.547500	-10.587000	25.554982	0.000823	20.741918
1222.325692	-3.002800	3.544400	-10.642000	25.544823	0.000821	20.751156
1223.324331	-2.976800	3.545500	-10.552000	25.536780	0.000821	20.747820
1224.325416	-2.991400	3.544400	-10.600000	25.542812	0.000822	20.755301
1225.324715	-3.014500	3.542700	-10.678000	25.558173	0.000819	20.752709
1226.324440	-2.987800	3.544700	-10.590000	25.539491	0.000819	20.762871
1227.324496	-2.988200	3.544500	-10.591000	25.534297	0.000820	20.742956
1228.324499	-3.000000	3.543600	-10.630000	25.534037	0.000819	20.715192
1229.328603	-3.002500	3.544200	-10.640000	25.532767	0.000818	20.744738
1230.325980	-2.991900	3.542800	-10.599000	25.501133	0.000817	20.734306
1231.326054	-3.008900	3.543100	-10.660000	25.484558	0.000818	20.745163
1232.333363	-3.015200	3.542100	-10.679000	25.449454	0.000817	20.754957
1233.326166	-2.982200	3.543300	-10.565000	25.432651	0.000814	20.739506
1234.327645	-3.024500	3.540700	-10.708000	25.409359	0.000814	20.728444
1235.327020	-2.982500	3.541900	-10.563000	25.372690	0.000815	20.750420
1236.327212	-2.987700	3.541700	-10.580000	25.392327	0.000813	20.727938
1237.327128	-2.988900	3.540600	-10.581000	25.420057	0.000814	20.753412
1238.327780	-2.987400	3.540800	-10.577000	25.435492	0.000813	20.756584
1239.328214	-2.989100	3.542400	-10.587000	25.432684	0.000812	20.749970
1240.329494	-2.974100	3.541400	-10.531000	25.461666	0.000811	20.735925
1241.327703	-3.009400	3.539200	-10.650000	25.481326	0.000813	20.732908
1242.333035	-3.003500	3.540600	-10.633000	25.492316	0.000812	20.742997
1243.331381	-2.994300	3.539400	-10.596000	25.525164	0.000811	20.737102
1244.330227	-2.992300	3.538500	-10.587000	25.537391	0.000811	20.725673
1245.333166	-3.001700	3.539900	-10.625000	25.558857	0.000808	20.742964
1246.332957	-2.998100	3.538000	-10.606000	25.558759	0.000810	20.737176
1247.330465	-3.000900	3.538600	-10.617000	25.503347	0.000809	20.754074
1248.329391	-2.985400	3.537200	-10.558000	25.534737	0.000806	20.715421
1249.330187	-2.977300	3.536600	-10.529000	25.544798	0.000809	20.736906
1250.329576	-2.987400	3.538000	-10.567000	25.576187	0.000808	20.744248
1251.335209	-3.007800	3.536800	-10.637000	25.575642	0.000807	20.720465
1252.336226	-3.015900	3.535000	-10.659000	25.602878	0.000806	20.739759
1253.332749	-2.985000	3.537200	-10.557000	25.581763	0.000806	20.742735
1254.332955	-2.995700	3.536100	-10.592000	25.583619	0.000806	20.729900
1255.341457	-3.005400	3.536100	-10.626000	25.608202	0.000804	20.717604
1256.335817	-2.986600	3.535000	-10.557000	25.604002	0.000803	20.720972
1257.334445	-3.008200	3.535400	-10.634000	25.563554	0.000806	20.741043
1258.334032	-2.987700	3.535000	-10.560000	25.568853	0.000805	20.730717
1259.334279	-3.003400	3.535600	-10.618000	25.531033	0.000802	20.734936
1260.331972	-2.989200	3.533200	-10.560000	25.520678	0.000801	20.738762
1261.338253	-2.999000	3.532500	-10.593000	25.525441	0.000801	20.739751
1262.337349	-3.012600	3.532300	-10.640000	25.520874	0.000800	20.732320
1263.333481	-2.980500	3.534300	-10.533000	25.502663	0.000800	20.736792
1264.335978	-3.004200	3.532100	-10.610000	25.486634	0.000800	20.721168
1265.336649	-3.002100	3.532000	-10.603000	25.463506	0.000799	20.719754
1266.334998	-2.989400	3.531400	-10.556000	25.449121	0.000799	20.727594
1267.336655	-3.017300	3.530700	-10.653000	25.459981	0.000798	20.747035
1268.336419	-2.989200	3.530300	-10.552000	25.449373	0.000797	20.708406
1269.333923	-3.018500	3.530300	-10.655000	25.436030	0.000799	20.729622
1270.338015	-3.028900	3.529700	-10.690000	25.462285	0.000797	20.719002
1271.335179	-3.005600	3.529700	-10.607000	25.442030	0.000798	20.710041
1272.337864	-2.995800	3.529800	-10.574000	25.479560	0.000795	20.725444
1273.335207	-2.994500	3.530900	-10.572000	25.480634	0.000796	20.708978
1274.340623	-2.998700	3.528700	-10.581000	25.450065	0.000796	20.710524
1275.337430	-2.968900	3.528300	-10.473000	25.471720	0.000794	20.711407
1276.338721	-3.011600	3.527200	-10.620000	25.501214	0.000794	20.713998
1277.339751	-3.013700	3.526200	-10.626000	25.519034	0.000795	20.720514
1278.339032	-3.000400	3.527500	-10.583000	25.531025	0.000795	20.724970
1279.338857	-3.002800	3.526900	-10.590000	25.579802	0.000793	20.703779
1280.342045	-2.988000	3.527600	-10.538000	25.620233	0.000793	20.716884
1281.341153	-2.990800	3.527800	-10.549000	25.620811	0.000792	20.708929
1282.341484	-3.010100	3.525300	-10.610000	25.626566	0.000791	20.702381
1283.345713	-2.991300	3.526400	-10.547000	25.599501	0.000790	20.707442
1284.342066	-3.024500	3.523700	-10.655000	25.563977	0.000792	20.729140
1285.341166	-3.020000	3.524200	-10.642000	25.531603	0.000788	20.717964
1286.349679	-3.007700	3.523800	-10.596000	25.518806	0.000789	20.705112
1287.343249	-2.966200	3.526100	-10.457000	25.526141	0.000789	20.704891
1288.343071	-2.984900	3.523700	-10.518000	25.500669	0.000786	20.702544
1289.345254	-3.003000	3.524000	-10.581000	25.553306	0.000788	20.705619
1290.345121	-2.997100	3.524500	-10.561000	25.564083	0.000787	20.694630
1291.345445	-2.992200	3.523200	-10.542000	25.581471	0.000786	20.717310
1292.347105	-3.001100	3.521700	-10.568000	25.612460	0.000786	20.711922
1293.347913	-3.028100	3.521300	-10.662000	25.623986	0.000785	20.695996
1294.346928	-3.012000	3.521800	-10.607000	25.617775	0.000785	20.721054
1295.349952	-3.018800	3.521500	-10.629000	25.603099	0.000783	20.708210
1296.347293	-2.988000	3.521600	-10.521000	25.580820	0.000784	20.706698
1297.346191	-2.994900	3.522300	-10.546000	25.549333	0.000783	20.694990
1298.353137	-2.986600	3.521700	-10.517000	25.565044	0.000782	20.712192
1299.346793	-2.983400	3.520000	-10.501000	25.593665	0.000781	20.712012
1300.349747	-3.010700	3.519200	-10.594000	25.616383	0.000781	20.691205
1301.348125	-2.980000	3.518500	-10.483000	25.574731	0.000782	20.706273
1302.350269	-2.981400	3.518800	-10.490000	25.560298	0.000781	20.693674
1303.347638	-2.979600	3.519700	-10.486000	25.573901	0.000781	20.693584
1304.347573	-3.006200	3.517100	-10.571000	25.592371	0.000780	20.694590
1305.350316	-2.983200	3.519200	-10.497000	25.602896	0.000779	20.677184
1306.348077	-2.990200	3.517500	-10.516000	25.620844	0.000780	20.702798
1307.348699	-2.999200	3.518100	-10.550000	25.636725	0.000778	20.693143
1308.348216	-3.011100	3.517300	-10.589000	25.619061	0.000780	20.683463
1309.350544	-3.017000	3.516300	-10.607000	25.616229	0.000777	20.694369
1310.348585	-2.998600	3.516000	-10.541000	25.623758	0.000778	20.677274
1311.350454	-3.002400	3.515800	-10.555000	25.607723	0.000776	20.693413
1312.352863	-3.017800	3.516500	-10.611000	25.598061	0.000775	20.693666
1313.350476	-2.998800	3.515200	-10.540000	25.576270	0.000776	20.676996
1314.349944	-3.001600	3.514500	-10.548000	25.577434	0.000773	20.694287
1315.352121	-2.974000	3.515400	-10.454000	25.586127	0.000775	20.679784
1316.351162	-3.003600	3.514400	-10.554000	25.615032	0.000774	20.696487
1317.352302	-3.003100	3.515600	-10.555000	25.585785	0.000772	20.690347
1318.353301	-3.003200	3.514300	-10.552000	25.598256	0.000773	20.696233
1319.358191	-3.005000	3.514100	-10.559000	25.606982	0.000773	20.679865
1320.353737	-3.002100	3.514100	-10.547000	25.619721	0.000772	20.689341
1321.354172	-2.987900	3.512100	-10.493000	25.636806	0.000771	20.696070
1322.354803	-3.013500	3.511200	-10.580000	25.657456	0.000772	20.680773
1323.355085	-2.990500	3.511400	-10.500000	25.646647	0.000769	20.698841
1324.357730	-3.003000	3.511600	-10.543000	25.637758	0.000770	20.703665
1325.354865	-3.004500	3.511200	-10.548000	25.628186	0.000770	20.682670
1326.354635	-2.996000	3.510800	-10.517000	25.636781	0.000769	20.691777
1327.354089	-2.991400	3.511200	-10.502000	25.664912	0.000769	20.678304
1328.354961	-3.000200	3.510700	-10.531000	25.676779	0.000768	20.671730
1329.355237	-2.995100	3.509300	-10.508000	25.692341	0.000768	20.688311
1330.355390	-2.985600	3.510200	-10.479000	25.648087	0.000768	20.677527
1331.357473	-3.005700	3.509200	-10.546000	25.596823	0.000767	20.693846
1332.357893	-2.996500	3.508300	-10.511000	25.603799	0.000766	20.670029
1333.356478	-3.016200	3.509600	-10.586000	25.590165	0.000765	20.672932
1334.359190	-3.007300	3.507500	-10.547000	25.590580	0.000765	20.686627
1335.355649	-2.985500	3.507400	-10.470000	25.567893	0.000764	20.670953
1336.356197	-2.983800	3.507200	-10.464000	25.546549	0.000764	20.668010
1337.361103	-3.002600	3.507200	-10.529000	25.590295	0.000762	20.695350
1338.358070	-2.981400	3.507300	-10.456000	25.613233	0.000765	20.685196
1339.359061	-2.995500	3.507100	-10.504000	25.638132	0.000763	20.688392
1340.358600	-2.972400	3.506200	-10.421000	25.665913	0.000762	20.689741
1341.357972	-2.981200	3.506400	-10.452000	25.660622	0.000762	20.667830
1342.357989	-3.003700	3.504500	-10.526000	25.685838	0.000763	20.663758
1343.359095	-3.013900	3.504000	-10.560000	25.683770	0.000761	20.687289
1344.358461	-3.011800	3.504400	-10.553000	25.647517	0.000761	20.672687
1345.358848	-3.003700	3.504600	-10.526000	25.641600	0.000760	20.662000
1346.358081	-3.007400	3.503300	-10.534000	25.680645	0.000760	20.676562
1347.362587	-2.977600	3.504600	-10.434000	25.647998	0.000756	20.675540
1348.360672	-3.009800	3.502800	-10.541000	25.655795	0.000757	20.663930
1349.360878	-2.995700	3.502900	-10.491000	25.658945	0.000756	20.678949
1350.360227	-3.010200	3.502800	-10.543000	25.679473	0.000757	20.669694
1351.360370	-3.010800	3.502100	-10.543000	25.704932	0.000756	20.656858
1352.359114	-3.036800	3.499700	-10.626000	25.683811	0.000756	20.664094
1353.361672	-2.995200	3.501300	-10.486000	25.683990	0.000754	20.661428
1354.360784	-3.011900	3.500400	-10.541000	25.660785	0.000754	20.677003
1355.361078	-2.995000	3.501900	-10.487000	25.639068	0.000755	20.671313
1356.362477	-3.002400	3.499600	-10.506000	25.596839	0.000754	20.674420
1357.360499	-2.999500	3.498800	-10.493000	25.552019	0.000754	20.667339
1358.360855	-3.004800	3.499500	-10.513000	25.525726	0.000754	20.660373
1359.360683	-2.985800	3.498800	-10.446000	25.514118	0.000754	20.676693
1360.363066	-3.009700	3.498200	-10.527000	25.512953	0.000752	20.659875
1361.361766	-2.989400	3.498100	-10.457000	25.497397	0.000751	20.658951
1362.363623	-2.976900	3.498600	-10.414000	25.543570	0.000750	20.664069
1363.362335	-3.014100	3.496700	-10.538000	25.564946	0.000750	20.664200
1364.360779	-3.009200	3.496200	-10.520000	25.608894	0.000752	20.676096
1365.361349	-2.985300	3.498900	-10.444000	25.605166	0.000751	20.677093
1366.362197	-2.996700	3.496500	-10.476000	25.654941	0.000750	20.664968
1367.362484	-3.002800	3.496400	-10.498000	25.640452	0.000750	20.673651
1368.363089	-2.993600	3.495700	-10.464000	25.612500	0.000749	20.679244
1369.363657	-3.007900	3.496400	-10.516000	25.626037	0.000747	20.676717
1370.363945	-3.012300	3.495700	-10.530000	25.635161	0.000748	20.657430
1371.364008	-3.009200	3.494900	-10.516000	25.630782	0.000747	20.662041
1372.366762	-2.985100	3.494700	-10.431000	25.645539	0.000746	20.675916
1373.366754	-2.975800	3.494500	-10.398000	25.696728	0.000745	20.668533
1374.367144	-2.997900	3.494700	-10.475000	25.707455	0.000747	20.641372
1375.365075	-3.006300	3.493600	-10.502000	25.744057	0.000747	20.662017
1376.365257	-2.991500	3.492200	-10.446000	25.746669	0.000745	20.660848
1377.366959	-3.019500	3.491700	-10.542000	25.740134	0.000745	20.666612
1378.365938	-2.995400	3.493400	-10.463000	25.698120	0.000744	20.659973
1379.366577	-3.002300	3.492600	-10.485000	25.725899	0.000743	20.670806
1380.365981	-2.986600	3.492800	-10.430000	25.742738	0.000741	20.649311
1381.374510	-2.985100	3.492500	-10.425000	25.742811	0.000741	20.667879
1382.367527	-3.004100	3.491600	-10.487000	25.737716	0.000742	20.656122
1383.368430	-2.998100	3.490900	-10.465000	25.733541	0.000742	20.662834
1384.368601	-3.009500	3.489600	-10.501000	25.778117	0.000739	20.662090
1385.368649	-2.982200	3.490500	-10.408000	25.787501	0.000741	20.689537
1386.368327	-2.995200	3.488800	-10.448000	25.745814	0.000740	20.666154
1387.369096	-2.994700	3.490100	-10.451000	25.756020	0.000740	20.680674
1388.372643	-2.979500	3.489700	-10.397000	25.743910	0.000739	20.664715
1389.370985	-3.011000	3.487200	-10.500000	25.775513	0.000740	20.669432
1390.372083	-2.991500	3.488900	-10.436000	25.783806	0.000738	20.664012
1391.375518	-2.999600	3.487200	-10.459000	25.767854	0.000737	20.670274
1392.372568	-3.011100	3.486600	-10.498000	25.771606	0.000738	20.663137
1393.374945	-3.002700	3.487900	-10.472000	25.751227	0.000737	20.653096
1394.375058	-3.013000	3.486000	-10.503000	25.705836	0.000737	20.662981
1395.374515	-3.009700	3.486000	-10.491000	25.674573	0.000736	20.668565
1396.371572	-2.984300	3.485500	-10.401000	25.672090	0.000735	20.650897
1397.375254	-3.002300	3.485600	-10.463000	25.682150	0.000734	20.668590
1398.373083	-2.992500	3.484200	-10.425000	25.717792	0.000734	20.678311
1399.373354	-2.999800	3.484300	-10.451000	25.720828	0.000736	20.660970
1400.379337	-2.992500	3.483900	-10.425000	25.715261	0.000734	20.681933
1401.373341	-3.002000	3.483800	-10.457000	25.687457	0.000732	20.664911
1402.372985	-3.004700	3.482100	-10.460000	25.648722	0.000734	20.662041
1403.376083	-2.970100	3.483800	-10.346000	25.626126	0.000734	20.669694
1404.373117	-2.970500	3.483700	-10.347000	25.606102	0.000731	20.674714
1405.374638	-3.000300	3.482600	-10.449000	25.588088	0.000732	20.676063
1406.374160	-2.988500	3.481700	-10.404000	25.580827	0.000731	20.673986
1407.376580	-2.992900	3.482400	-10.421000	25.595862	0.000730	20.686242
1408.376190	-2.995400	3.480900	-10.424000	25.634249	0.000730	20.677379
1409.376344	-3.010200	3.480500	-10.476000	25.658896	0.000727	20.656612
1410.379300	-2.980600	3.481500	-10.376000	25.679236	0.000730	20.657127
1411.375663	-3.001100	3.481200	-10.446000	25.683021	0.000729	20.682268
1412.375363	-3.029600	3.479700	-10.541000	25.716213	0.000727	20.671034
1413.378238	-2.999000	3.478600	-10.431000	25.735714	0.000727	20.680191
1414.388456	-3.010700	3.478600	-10.472000	25.751910	0.000728	20.672277
1415.383113	-3.008500	3.478200	-10.463000	25.773600	0.000726	20.678417
1416.377357	-3.001100	3.477500	-10.435000	25.793840	0.000726	20.681205
1417.381797	-3.002100	3.477800	-10.440000	25.800351	0.000724	20.678736
1418.378301	-3.018000	3.477700	-10.494000	25.821315	0.000726	20.685097
1419.386324	-2.999800	3.476500	-10.428000	25.800848	0.000724	20.672596
1420.380157	-3.007400	3.476400	-10.453000	25.804298	0.000725	20.693134
1421.385484	-3.000500	3.477400	-10.431000	25.828835	0.000725	20.666570
1422.380381	-2.998900	3.476900	-10.425000	25.825287	0.000725	20.661583
1423.378297	-3.004100	3.475400	-10.440000	25.817214	0.000725	20.670070
1424.379973	-2.999600	3.475200	-10.423000	25.769083	0.000722	20.671034
1425.380255	-3.007600	3.473700	-10.446000	25.748093	0.000722	20.672710
1426.379585	-3.011800	3.474900	-10.465000	25.760098	0.000722	20.673863
1427.378509	-3.003600	3.475100	-10.437000	25.774129	0.000722	20.676103
1428.380359	-2.977500	3.474100	-10.343000	25.766820	0.000722	20.679668
1429.380560	-3.021200	3.473600	-10.493000	25.788900	0.000722	20.689994
1430.380558	-3.005400	3.472400	-10.434000	25.788363	0.000720	20.668590
1431.382913	-3.001600	3.471900	-10.419000	25.812282	0.000719	20.659424
1432.381498	-2.998700	3.472100	-10.411000	25.818321	0.000718	20.687304
1433.381184	-3.001900	3.472200	-10.422000	25.846886	0.000719	20.703198
1434.382564	-2.994800	3.471700	-10.396000	25.806487	0.000719	20.698178
1435.383850	-3.006600	3.470900	-10.435000	25.831928	0.000716	20.694810
1436.385286	-2.986400	3.472100	-10.368000	25.854755	0.000716	20.689765
1437.385393	-3.000900	3.470600	-10.414000	25.862079	0.000716	20.703288
1438.385182	-3.008300	3.471100	-10.441000	25.873131	0.000717	20.679300
1439.385591	-2.998300	3.470300	-10.403000	25.875832	0.000715	20.691973
1440.385962	-2.968400	3.469900	-10.298000	25.893467	0.000714	20.692619
1441.385018	-2.980900	3.468600	-10.338000	25.874905	0.000716	20.682979
1442.387745	-3.029700	3.468700	-10.507000	25.897707	0.000713	20.694033
1443.389315	-3.023000	3.466700	-10.479000	25.916456	0.000713	20.700067
1444.385880	-3.008100	3.467500	-10.430000	25.946312	0.000713	20.697344
1445.386797	-2.996000	3.467000	-10.386000	25.917839	0.000715	20.694344
1446.388663	-3.004100	3.467300	-10.415000	25.881122	0.000712	20.689226
1447.387831	-2.981200	3.466800	-10.334000	25.878933	0.000714	20.706468
1448.389284	-2.990900	3.465300	-10.363000	25.876931	0.000710	20.706354
1449.390622	-2.985200	3.466500	-10.347000	25.823204	0.000713	20.702642
1450.390403	-2.979800	3.466300	-10.328000	25.828160	0.000713	20.706673
1451.390931	-2.998200	3.465000	-10.388000	25.804111	0.000711	20.692946
1452.390049	-2.990900	3.465800	-10.365000	25.801027	0.000712	20.690796
1453.394673	-3.001800	3.463900	-10.397000	25.831407	0.000710	20.694761
1454.393678	-3.013900	3.462900	-10.436000	25.833759	0.000710	20.688588
1455.389113	-2.992100	3.465300	-10.367000	25.859671	0.000710	20.704662
1456.394234	-3.015800	3.461800	-10.439000	25.911305	0.000708	20.697737
1457.400250	-2.983800	3.462800	-10.332000	25.901190	0.000707	20.706068
1458.390762	-3.015700	3.461200	-10.436000	25.869257	0.000708	20.715241
1459.395089	-3.014300	3.461900	-10.434000	25.841783	0.000707	20.695227
1460.393976	-3.010500	3.463400	-10.426000	25.827810	0.000708	20.712486
1461.392285	-2.997300	3.460700	-10.372000	25.802915	0.000706	20.696486
1462.397510	-2.976200	3.461600	-10.301000	25.791749	0.000705	20.719885
1463.401039	-2.990700	3.459600	-10.346000	25.762385	0.000706	20.684697
1464.396577	-2.988100	3.461100	-10.341000	25.706674	0.000704	20.705079
1465.399055	-3.002300	3.460200	-10.388000	25.691332	0.000704	20.709110
1466.397322	-3.021700	3.459200	-10.452000	25.658416	0.000703	20.715405
1467.396738	-2.992500	3.457800	-10.346000	25.639549	0.000703	20.721112
1468.396553	-3.006200	3.459000	-10.398000	25.652190	0.000704	20.730963
1469.398230	-3.004900	3.458200	-10.390000	25.676616	0.000703	20.710451
1470.396885	-2.998200	3.458400	-10.368000	25.691047	0.000703	20.727791
1471.400566	-2.996100	3.458300	-10.360000	25.743218	0.000704	20.704327
1472.398330	-3.003100	3.457500	-10.382000	25.774162	0.000701	20.692260
1473.397382	-3.001600	3.456200	-10.373000	25.791505	0.000701	20.707311
1474.402835	-3.012100	3.456600	-10.410000	25.808002	0.000702	20.716771
1475.398089	-2.994300	3.455300	-10.345000	25.799725	0.000701	20.718888
1476.399208	-3.006000	3.457200	-10.391000	25.821935	0.000700	20.707532
1477.395311	-3.006400	3.455800	-10.388000	25.797634	0.000697	20.719632
1478.396894	-3.017900	3.455400	-10.427000	25.834224	0.000698	20.735051
1479.398867	-2.983600	3.454700	-10.305000	25.834818	0.000697	20.718103
1480.398146	-3.017900	3.454000	-10.423000	25.835933	0.000698	20.715904
1481.399284	-3.033000	3.453200	-10.471000	25.830521	0.000696	20.705725
1482.398936	-3.011200	3.453200	-10.397000	25.829495	0.000697	20.727930
1483.399282	-2.999600	3.454000	-10.360000	25.825272	0.000696	20.729852
1484.399577	-3.009800	3.451700	-10.387000	25.777670	0.000694	20.746047
1485.401610	-3.001400	3.453000	-10.363000	25.740802	0.000693	20.729402
1486.399558	-2.976000	3.453800	-10.275000	25.715082	0.000697	20.730596
1487.398942	-2.991900	3.452100	-10.327000	25.702271	0.000695	20.729108
1488.401457	-2.988200	3.452000	-10.314000	25.701344	0.000695	20.731021
1489.398645	-2.993700	3.451400	-10.331000	25.727771	0.000692	20.736703
1490.406697	-3.017100	3.449800	-10.407000	25.723767	0.000690	20.729836
1491.399263	-3.001400	3.450200	-10.354000	25.750674	0.000691	20.728413
1492.401274	-3.002800	3.450400	-10.360000	25.769906	0.000692	20.731610
1493.398583	-3.001500	3.449400	-10.352000	25.791546	0.000692	20.726320
1494.398015	-3.027900	3.446700	-10.435000	25.804137	0.000692	20.739916
1495.402903	-2.998000	3.449100	-10.340000	25.814725	0.000689	20.736801
1496.398212	-2.984500	3.448800	-10.291000	25.801435	0.000690	20.722976
1497.399323	-3.025500	3.446600	-10.426000	25.811046	0.000691	20.720303
1498.401035	-2.987700	3.448200	-10.301000	25.779241	0.000690	20.721546
1499.397765	-2.995800	3.448200	-10.328000	25.780462	0.000688	20.719927
1500.401096	-2.999800	3.446000	-10.336000	25.790122	0.000688	20.727260
1501.401497	-2.993800	3.446900	-10.318000	25.827762	0.000688	20.729509
1502.404379	-3.014700	3.444400	-10.382000	25.841264	0.000686	20.745443
1503.401693	-3.006400	3.446400	-10.359000	25.862626	0.000687	20.737979
1504.402314	-3.009800	3.444600	-10.367000	25.857686	0.000684	20.737758
1505.407084	-2.992000	3.444900	-10.306000	25.874776	0.000687	20.758245
1506.404799	-2.985800	3.444700	-10.284000	25.867883	0.000687	20.742312
1507.407354	-3.000900	3.444200	-10.335000	25.870992	0.000685	20.741641
1508.404670	-3.009800	3.443600	-10.363000	25.872709	0.000684	20.727718
1509.407375	-3.008100	3.442000	-10.352000	25.866541	0.000684	20.739066
1510.403458	-2.971100	3.443100	-10.229000	25.882214	0.000683	20.736793
1511.411250	-3.018600	3.441400	-10.388000	25.868616	0.000686	20.722184
1512.408753	-2.975700	3.443200	-10.244000	25.821317	0.000684	20.724457
1513.406861	-2.995100	3.441700	-10.307000	25.805049	0.000683	20.734194
1514.413904	-3.003500	3.442100	-10.338000	25.794778	0.000682	20.730989
1515.407747	-3.013300	3.441000	-10.368000	25.836300	0.000683	20.758000
1516.406489	-3.025200	3.439800	-10.404000	25.840344	0.000682	20.734562
1517.410833	-2.979300	3.441500	-10.252000	25.869788	0.000680	20.748018
1518.407608	-3.006900	3.439300	-10.341000	25.871513	0.000681	20.737423
1519.407667	-3.000800	3.438800	-10.319000	25.877014	0.000682	20.727776
1520.408236	-3.003000	3.439000	-10.326000	25.906025	0.000679	20.736532
1521.420014	-2.996100	3.439800	-10.305000	25.892509	0.000678	20.740023
1522.412866	-2.989100	3.438400	-10.277000	25.859322	0.000678	20.734186
1523.410823	-2.972500	3.437700	-10.217000	25.826404	0.000678	20.747111
1524.414087	-2.969300	3.438700	-10.209000	25.803893	0.000679	20.761483
1525.413779	-2.988800	3.437800	-10.274000	25.779641	0.000676	20.751346
1526.414409	-2.991000	3.436900	-10.280000	25.735203	0.000678	20.741323
1527.415337	-3.004400	3.436000	-10.321000	25.739744	0.000677	20.760110
1528.415578	-2.997800	3.436100	-10.300000	25.743350	0.000675	20.757093
1529.410878	-2.967800	3.435500	-10.195000	25.698122	0.000675	20.758132
1530.413338	-2.977300	3.434600	-10.224000	25.694369	0.000675	20.742034
1531.416020	-2.999800	3.434700	-10.302000	25.697023	0.000673	20.745648
1532.412089	-2.995800	3.433700	-10.286000	25.716207	0.000674	20.757805
1533.413637	-2.994500	3.432800	-10.277000	25.733624	0.000675	20.733098
1534.411653	-2.987800	3.434100	-10.260000	25.755664	0.000674	20.751918
1535.410792	-2.999600	3.433900	-10.299000	25.802909	0.000674	20.735837
1536.411537	-2.988700	3.433300	-10.260000	25.817387	0.000671	20.764607
1537.412868	-3.017000	3.432000	-10.354000	25.819129	0.000672	20.751657
1538.416210	-3.006600	3.430900	-10.314000	25.784548	0.000672	20.776665
1539.411932	-2.995500	3.433500	-10.284000	25.789147	0.000671	20.749515
1540.417421	-2.997400	3.431100	-10.283000	25.755152	0.000671	20.754249
1541.415000	-3.013200	3.431600	-10.339000	25.774701	0.000672	20.768196
1542.412707	-2.988800	3.431000	-10.254000	25.799002	0.000670	20.753725
1543.413284	-2.990900	3.429800	-10.257000	25.835169	0.000668	20.763503
1544.413673	-2.992800	3.429900	-10.265000	25.878349	0.000668	20.762784
1545.413463	-2.999600	3.431000	-10.291000	25.878537	0.000668	20.749695
1546.413495	-3.001100	3.429200	-10.290000	25.881295	0.000666	20.755312
1547.416765	-3.007600	3.430000	-10.315000	25.890109	0.000667	20.768907
1548.413229	-3.002900	3.427100	-10.290000	25.885494	0.000668	20.742934
1549.414731	-3.010700	3.428700	-10.321000	25.890906	0.000666	20.763070
1550.415121	-3.012300	3.428000	-10.325000	25.875453	0.000664	20.767934
1551.415627	-3.001800	3.427600	-10.288000	25.881263	0.000668	20.775194
1552.424924	-3.006600	3.426600	-10.301000	25.891020	0.000664	20.765081
1553.417995	-3.009100	3.427000	-10.311000	25.931611	0.000664	20.758917
1554.417587	-3.004600	3.425800	-10.292000	25.949049	0.000664	20.763634
1555.418120	-3.013300	3.426700	-10.325000	25.985634	0.000666	20.752974
1556.419080	-2.985100	3.427100	-10.230000	25.999702	0.000666	20.767109
1557.417662	-2.996400	3.426200	-10.265000	26.000712	0.000664	20.748682
1558.418128	-2.986700	3.427000	-10.234000	26.028409	0.000662	20.766553
1559.417397	-3.018300	3.424400	-10.335000	26.026042	0.000663	20.781244
1560.421471	-2.992100	3.425100	-10.248000	26.015505	0.000664	20.760700
1561.416393	-2.985700	3.426000	-10.227000	26.035871	0.000661	20.783533
1562.420753	-3.005800	3.424100	-10.289000	26.047042	0.000662	20.766308
1563.418339	-3.001600	3.424000	-10.276000	26.019728	0.000660	20.771107
1564.418686	-3.027700	3.422900	-10.363000	26.026375	0.000662	20.780631
1565.418977	-3.009800	3.422500	-10.300000	26.022624	0.000659	20.788716
1566.423790	-3.000700	3.421400	-10.265000	26.022649	0.000660	20.790637
1567.419318	-2.987400	3.421900	-10.222000	26.021127	0.000657	20.783419
1568.418529	-3.022400	3.421700	-10.340000	26.022071	0.000659	20.777255
1569.420851	-3.008100	3.420900	-10.289000	25.982274	0.000658	20.776151
1570.419163	-3.003200	3.421400	-10.274000	25.983079	0.000659	20.799720
1571.421214	-3.002300	3.422200	-10.273000	25.997222	0.000657	20.782160
1572.420414	-2.996200	3.420900	-10.247000	25.992453	0.000657	20.782111
1573.425918	-2.997300	3.419700	-10.248000	26.011013	0.000657	20.807397
1574.423874	-2.996400	3.419400	-10.245000	25.986383	0.000657	20.785496
1575.425631	-2.998700	3.418900	-10.251000	25.965341	0.000654	20.780951
1576.427773	-2.992700	3.418600	-10.230000	25.934785	0.000653	20.800514
1577.423855	-2.985000	3.419800	-10.207000	25.949140	0.000654	20.776054
1578.424481	-3.019400	3.417600	-10.318000	25.954632	0.000654	20.776356
1579.424265	-2.980900	3.419100	-10.191000	25.960117	0.000655	20.779021
1580.425974	-2.999000	3.417100	-10.246000	25.958766	0.000652	20.791889
1581.427901	-3.006000	3.415800	-10.266000	25.935119	0.000651	20.777141
1582.427058	-3.023300	3.416300	-10.327000	25.929399	0.000651	20.796525
1583.424106	-2.993000	3.416800	-10.225000	25.939058	0.000650	20.804332
1584.425769	-3.011700	3.415900	-10.287000	25.956936	0.000650	20.785783
1585.429891	-2.997900	3.415400	-10.238000	25.971152	0.000652	20.806229
1586.425906	-3.004500	3.414800	-10.259000	25.980184	0.000652	20.802975
1587.428125	-2.992500	3.415600	-10.220000	25.947115	0.000649	20.788718
1588.425366	-2.974200	3.414900	-10.154000	25.935470	0.000649	20.792667
1589.427918	-3.012100	3.413100	-10.279000	25.930872	0.000651	20.800376
1590.427714	-3.003500	3.414600	-10.254000	25.916265	0.000649	20.788072
1591.428965	-3.023500	3.413500	-10.320000	25.914118	0.000647	20.812941
1592.425677	-3.004500	3.413800	-10.256000	25.926796	0.000649	20.818565
1593.429524	-3.011200	3.412100	-10.274000	25.921449	0.000646	20.807979
1594.428896	-3.008200	3.411000	-10.260000	25.933916	0.000646	20.787312
1595.430756	-3.008600	3.410800	-10.259000	25.929986	0.000646	20.802330
1596.431314	-3.003700	3.411900	-10.247000	25.893342	0.000645	20.813407
1597.429718	-2.988600	3.411800	-10.196000	25.865983	0.000646	20.783078
1598.431159	-3.002700	3.410700	-10.241000	25.870703	0.000645	20.818639
1599.432001	-2.986200	3.410500	-10.184000	25.895271	0.000643	20.805862
1600.433323	-3.013400	3.410000	-10.274000	25.909374	0.000646	20.807702
1601.432728	-3.010500	3.408400	-10.259000	25.919806	0.000644	20.791155
1602.433079	-2.980800	3.409300	-10.160000	25.902693	0.000645	20.809525
1603.430348	-3.003900	3.408600	-10.238000	25.872519	0.000643	20.813351
1604.429897	-2.975800	3.409900	-10.146000	25.830396	0.000643	20.803279
1605.432199	-3.011800	3.407800	-10.263000	25.852548	0.000642	20.804669
1606.430117	-2.981700	3.409100	-10.163000	25.845964	0.000642	20.798055
1607.435863	-3.002100	3.407700	-10.230000	25.868425	0.000642	20.798807
1608.431756	-3.020200	3.407500	-10.290000	25.936774	0.000640	20.791606
1609.430821	-2.999500	3.406800	-10.218000	25.949053	0.000641	20.817218
1610.432279	-2.983400	3.407200	-10.164000	25.985581	0.000640	20.804604
1611.433264	-2.983100	3.405500	-10.157000	26.014320	0.000639	20.816409
1612.431161	-2.979300	3.407300	-10.149000	26.043979	0.000638	20.813490
1613.434206	-3.008700	3.404000	-10.240000	26.019886	0.000639	20.822000
1614.435562	-2.965900	3.405300	-10.099000	26.033889	0.000639	20.830380
1615.435887	-2.968800	3.404200	-10.106000	26.050325	0.000638	20.835040
1616.433528	-2.995500	3.404300	-10.197000	26.036689	0.000636	20.808062
1617.439165	-2.993800	3.405200	-10.193000	26.021961	0.000638	20.820766
1618.438190	-3.000600	3.403500	-10.212000	25.977224	0.000635	20.828451
1619.434954	-3.012800	3.402700	-10.251000	25.960307	0.000637	20.826154
1620.436904	-2.995100	3.403000	-10.192000	25.915023	0.000634	20.812902
1621.435415	-2.991100	3.401800	-10.173000	25.866205	0.000636	20.799896
1622.436596	-3.012100	3.403400	-10.250000	25.874155	0.000635	20.833012
1623.439946	-3.006900	3.402800	-10.230000	25.897250	0.000635	20.844359
1624.438426	-2.995000	3.401300	-10.185000	25.913420	0.000633	20.855387
1625.440771	-2.979500	3.403000	-10.138000	25.891237	0.000634	20.827887
1626.440824	-3.017300	3.400500	-10.259000	25.873277	0.000633	20.824544
1627.437826	-3.019800	3.400700	-10.269000	25.846885	0.000633	20.828378
1628.437734	-2.994400	3.400500	-10.181000	25.873489	0.000631	20.812429
1629.439635	-2.984500	3.399900	-10.147000	25.916895	0.000633	20.842283
1630.436031	-3.023100	3.399500	-10.277000	25.956313	0.000631	20.833520
1631.437539	-3.002900	3.398400	-10.204000	25.975460	0.000632	20.832841
1632.440306	-3.006500	3.397400	-10.212000	26.003874	0.000630	20.831991
1633.446033	-3.006300	3.397800	-10.214000	25.994337	0.000630	20.843272
1634.438928	-2.998100	3.397700	-10.186000	26.015225	0.000628	20.838180
1635.441925	-2.986300	3.397400	-10.144000	26.042939	0.000630	20.844213
1636.439122	-2.995800	3.396200	-10.173000	26.071660	0.000627	20.829449
1637.440584	-3.017700	3.395100	-10.244000	26.076819	0.000627	20.825623
1638.444978	-3.007200	3.396700	-10.214000	26.110519	0.000628	20.814440
1639.440326	-3.000100	3.396200	-10.188000	26.065989	0.000626	20.821381
1640.440469	-3.003000	3.394800	-10.194000	26.034762	0.000627	20.827937
1641.443813	-2.986000	3.395600	-10.138000	26.003785	0.000624	20.835695
1642.443526	-2.972400	3.396600	-10.093000	25.994256	0.000626	20.857415
1643.443392	-3.012700	3.393600	-10.224000	25.982547	0.000624	20.828583
1644.444933	-2.994100	3.394900	-10.163000	25.997674	0.000623	20.820547
1645.444918	-2.999700	3.393800	-10.180000	26.040124	0.000622	20.819100
1646.444141	-3.033500	3.392800	-10.291000	26.027984	0.000623	20.819231
1647.448340	-3.006000	3.392900	-10.198000	26.064940	0.000621	20.822223
1648.444426	-2.994000	3.392100	-10.155000	26.075762	0.000622	20.816501
1649.445108	-2.993000	3.392800	-10.153000	26.059416	0.000621	20.819517
1650.446318	-3.004400	3.390900	-10.186000	26.059049	0.000621	20.794493
1651.444081	-3.020900	3.389700	-10.239000	26.040091	0.000620	20.808636
1652.447801	-2.988000	3.391700	-10.131000	26.044265	0.000620	20.836537
1653.446050	-3.013700	3.391000	-10.217000	26.067145	0.000619	20.814481
1654.448596	-3.000700	3.389700	-10.170000	26.075143	0.000618	20.823466
1655.452585	-2.997300	3.390500	-10.161000	26.067113	0.000620	20.819190
1656.447817	-3.001100	3.388000	-10.167000	26.026528	0.000618	20.819664
1657.450418	-3.011900	3.388000	-10.203000	26.010083	0.000618	20.816893
1658.447976	-2.986000	3.390200	-10.122000	25.987731	0.000618	20.813402
1659.448572	-2.995300	3.388600	-10.148000	25.986340	0.000617	20.811530
1660.449730	-2.992500	3.388900	-10.140000	26.028440	0.000616	20.807835
1661.450935	-3.016400	3.387600	-10.218000	26.035096	0.000616	20.805988
1662.449033	-2.970500	3.388200	-10.064000	26.044884	0.000614	20.804443
1663.458622	-3.024100	3.386200	-10.239000	26.037179	0.000617	20.827047
1664.454676	-2.993400	3.388400	-10.141000	26.017057	0.000615	20.817735
1665.451934	-2.995000	3.386600	-10.142000	25.995624	0.000615	20.822755
1666.450366	-2.993900	3.387100	-10.140000	25.977788	0.000614	20.813844
1667.454758	-3.014600	3.386000	-10.207000	25.963979	0.000613	20.801394
1668.452685	-3.000700	3.386000	-10.159000	26.000165	0.000615	20.800290
1669.451758	-3.004600	3.384800	-10.169000	26.009481	0.000612	20.791633
1670.459424	-2.985700	3.386400	-10.111000	26.024356	0.000613	20.790456
1671.453494	-3.009600	3.384700	-10.186000	26.079847	0.000611	20.805432
1672.451275	-3.023300	3.383000	-10.227000	26.066308	0.000612	20.796096
1673.453078	-2.980200	3.384900	-10.086000	26.056642	0.000610	20.788281
1674.455738	-3.013500	3.382200	-10.190000	26.083313	0.000612	20.785682
1675.452943	-3.001200	3.383500	-10.154000	26.099065	0.000610	20.780646
1676.452901	-2.995900	3.383500	-10.135000	26.086218	0.000609	20.799980
1677.464710	-2.997600	3.382800	-10.140000	26.042728	0.000608	20.789001
1678.452323	-3.034200	3.380300	-10.256000	26.033241	0.000607	20.787529
1679.453014	-2.992800	3.383500	-10.124000	26.073151	0.000608	20.801550
1680.457835	-3.007900	3.381500	-10.170000	26.068065	0.000606	20.787431
1681.452501	-3.003500	3.381500	-10.155000	26.061972	0.000610	20.807861
1682.454502	-2.979600	3.381800	-10.074000	26.065657	0.000605	20.780744
1683.459034	-2.983500	3.380700	-10.085000	26.049010	0.000605	20.798631
1684.455219	-2.993800	3.380300	-10.119000	26.069229	0.000604	20.795238
1685.455090	-2.970500	3.380700	-10.042000	26.019807	0.000605	20.775928
1686.459917	-2.992600	3.379400	-10.113000	25.980107	0.000605	20.780139
1687.459429	-3.014100	3.377800	-10.180000	25.970937	0.000602	20.766184
1688.457937	-2.980500	3.380600	-10.075000	25.999978	0.000603	20.781136
1689.461999	-3.004800	3.377500	-10.148000	25.961791	0.000601	20.758418
1690.455614	-3.009900	3.378300	-10.168000	25.970050	0.000602	20.754387
1691.456878	-3.002500	3.378400	-10.142000	25.954321	0.000602	20.770353
1692.464700	-3.003500	3.377600	-10.144000	25.939788	0.000601	20.783254
1693.458498	-3.022200	3.377200	-10.206000	25.952783	0.000602	20.756954
1694.458305	-3.010800	3.376400	-10.165000	25.956054	0.000602	20.763086
1695.460530	-2.994300	3.376700	-10.110000	25.911323	0.000600	20.758450
1696.462006	-2.978800	3.377700	-10.060000	25.918777	0.000598	20.763094
1697.459244	-3.002500	3.376100	-10.136000	25.929152	0.000599	20.796277
1698.459434	-3.012600	3.375100	-10.166000	25.931935	0.000599	20.781529
1699.458358	-2.996200	3.374800	-10.111000	25.923244	0.000599	20.781807
1700.460367	-3.002900	3.375900	-10.137000	25.921576	0.000599	20.783924
1701.458514	-2.995100	3.374800	-10.108000	25.929844	0.000597	20.765677
1702.460207	-2.992000	3.375600	-10.099000	25.935337	0.000598	20.767402
1703.458918	-2.995200	3.373300	-10.103000	25.919021	0.000598	20.771874
1704.461160	-3.025900	3.374200	-10.209000	25.933579	0.000596	20.789344
1705.463506	-3.014400	3.372700	-10.166000	25.963207	0.000594	20.751779
1706.460540	-3.014500	3.372100	-10.164000	25.982158	0.000594	20.788364
1707.460646	-3.001100	3.373400	-10.123000	25.985763	0.000597	20.777286
1708.459750	-3.015300	3.372100	-10.166000	26.001687	0.000593	20.787121
1709.462646	-2.991800	3.372500	-10.089000	26.036683	0.000593	20.765383
1710.460999	-2.991500	3.372300	-10.087000	26.077285	0.000593	20.766822
1711.460440	-2.984400	3.372000	-10.063000	26.120064	0.000591	20.757175
1712.462678	-3.011200	3.370900	-10.150000	26.162159	0.000593	20.757747
1713.462810	-3.001200	3.371100	-10.116000	26.130389	0.000591	20.791258
1714.462237	-3.005300	3.370400	-10.128000	26.182263	0.000592	20.756611
1715.471985	-3.009000	3.370700	-10.141000	26.199477	0.000589	20.748779
1716.462404	-3.012100	3.369300	-10.148000	26.197874	0.000591	20.757126
1717.462086	-2.981200	3.370300	-10.045000	26.192627	0.000589	20.763233
1718.462818	-3.020400	3.369200	-10.175000	26.198086	0.000590	20.749752
1719.461636	-2.986000	3.369600	-10.060000	26.201763	0.000587	20.746809
1720.463519	-2.997900	3.368100	-10.097000	26.213055	0.000588	20.775227
1721.464197	-3.009900	3.367500	-10.135000	26.241342	0.000589	20.753390
1722.467097	-3.023300	3.366900	-10.178000	26.233499	0.000587	20.761157
1723.461406	-2.996900	3.368200	-10.093000	26.278022	0.000588	20.760380
1724.464241	-3.005100	3.366700	-10.116000	26.214349	0.000588	20.754240
1725.472391	-2.994600	3.366400	-10.080000	26.193848	0.000585	20.752606
1726.464735	-2.957600	3.366200	-9.954000	26.209427	0.000585	20.750243
1727.464118	-2.986700	3.365900	-10.052000	26.223078	0.000586	20.745943
1728.471110	-3.004200	3.365600	-10.109000	26.228716	0.000584	20.745918
1729.465686	-2.996300	3.366100	-10.085000	26.221362	0.000584	20.746115
1730.470954	-2.990800	3.365600	-10.063000	26.227203	0.000583	20.753881
1731.466737	-2.999600	3.365000	-10.093000	26.183956	0.000584	20.769218
1732.468992	-3.013700	3.364100	-10.138000	26.162323	0.000583	20.758386
1733.465739	-2.989300	3.363900	-10.055000	26.155856	0.000584	20.743352
1734.466736	-2.997600	3.365100	-10.086000	26.133360	0.000580	20.756784
1735.467905	-3.013900	3.362900	-10.134000	26.133206	0.000582	20.739085
1736.467405	-3.008000	3.362000	-10.112000	26.092745	0.000583	20.743475
1737.466986	-2.988300	3.363200	-10.049000	26.048532	0.000580	20.753106
1738.467100	-3.015700	3.361000	-10.135000	26.018052	0.000580	20.738603
1739.468817	-2.983600	3.363000	-10.033000	26.016531	0.000579	20.760308
1740.468280	-3.018200	3.360800	-10.143000	26.013496	0.000579	20.750147
1741.470486	-3.002300	3.361900	-10.091000	26.012748	0.000577	20.759826
1742.469694	-3.006600	3.360700	-10.104000	25.999298	0.000579	20.735881
1743.468884	-2.995700	3.361900	-10.070000	25.995897	0.000577	20.773717
1744.473301	-3.021300	3.359700	-10.149000	25.995083	0.000576	20.737336
1745.471877	-3.025500	3.358800	-10.161000	26.029942	0.000577	20.749600
1746.470156	-2.984300	3.359700	-10.026000	26.035353	0.000575	20.736070
1747.470955	-3.004800	3.359300	-10.093000	26.067793	0.000574	20.747327
1748.471341	-3.014600	3.358900	-10.125000	26.112738	0.000575	20.746494
1749.470702	-2.992400	3.358800	-10.049000	26.099769	0.000575	20.741998
1750.472492	-3.007900	3.359700	-10.105000	26.133989	0.000575	20.744614
1751.473050	-3.008900	3.357400	-10.101000	26.170568	0.000573	20.751972
1752.473358	-2.994900	3.358200	-10.057000	26.195593	0.000572	20.749618
1753.473753	-2.979400	3.356900	-10.000000	26.234155	0.000573	20.738581
1754.475649	-3.007800	3.356000	-10.093000	26.221814	0.000573	20.730447
1755.476717	-3.014400	3.355900	-10.114000	26.238394	0.000572	20.748057
1756.477803	-3.021700	3.356400	-10.140000	26.264198	0.000571	20.714243
1757.480025	-2.990100	3.357400	-10.038000	26.278792	0.000570	20.764473
1758.482406	-3.000400	3.356000	-10.068000	26.258699	0.000570	20.730529
1759.478663	-3.001100	3.353800	-10.064000	26.238061	0.000571	20.744877
1760.480269	-3.016200	3.355000	-10.118000	26.208466	0.000568	20.744535
1761.477721	-2.992800	3.354400	-10.038000	26.194269	0.000569	20.747813
1762.478357	-2.996400	3.355300	-10.052000	26.207791	0.000570	20.729157
1763.480929	-3.007600	3.355200	-10.090000	26.222564	0.000567	20.735469
1764.484219	-2.998200	3.354000	-10.054000	26.220555	0.000568	20.754787
1765.481302	-3.009500	3.352700	-10.087000	26.224639	0.000566	20.743718
1766.478534	-2.995200	3.353000	-10.042000	26.222102	0.000567	20.727891
1767.484750	-3.005300	3.352100	-10.073000	26.201804	0.000566	20.734047
1768.485520	-3.010200	3.352800	-10.091000	26.173297	0.000564	20.740489
1769.483133	-2.995300	3.350900	-10.036000	26.145994	0.000564	20.733917
1770.484610	-3.000600	3.351100	-10.053000	26.156270	0.000564	20.728595
1771.485417	-3.029600	3.349700	-10.147000	26.145686	0.000562	20.721752
1772.484216	-3.033200	3.350800	-10.162000	26.117267	0.000563	20.718801
1773.487089	-2.982500	3.350800	-9.991300	26.115917	0.000563	20.727402
1774.485538	-2.996400	3.351700	-10.042000	26.085643	0.000563	20.735390
1775.484838	-2.994000	3.350500	-10.029000	26.106667	0.000561	20.729962
1776.488582	-3.002000	3.350100	-10.055000	26.127276	0.000561	20.725065
1777.485941	-2.989100	3.351100	-10.016000	26.137039	0.000560	20.746256
1778.490337	-3.006100	3.350300	-10.071000	26.168891	0.000560	20.733691
1779.487165	-3.012700	3.348900	-10.088000	26.166581	0.000561	20.738008
1780.489094	-3.007300	3.349000	-10.070000	26.195609	0.000560	20.723553
1781.486728	-3.029200	3.347000	-10.138000	26.207251	0.000558	20.733830
1782.486460	-2.992600	3.349000	-10.021000	26.220780	0.000558	20.735098
1783.489445	-2.995900	3.347300	-10.026000	26.280605	0.000557	20.732629
1784.489294	-2.980300	3.348000	-9.977000	26.312575	0.000556	20.732989
1785.492594	-2.988900	3.347300	-10.003000	26.294297	0.000557	20.722206
1786.495415	-3.026400	3.345600	-10.123000	26.315227	0.000557	20.745613
1787.492774	-2.997000	3.346700	-10.029000	26.300804	0.000557	20.739652
1788.490464	-3.016400	3.345800	-10.091000	26.311599	0.000555	20.727741
1789.491345	-2.999300	3.344600	-10.030000	26.315838	0.000554	20.729156
1790.497546	-2.995500	3.345600	-10.021000	26.279834	0.000556	20.721896
1791.492929	-2.986900	3.345700	-9.992400	26.239672	0.000553	20.734642
1792.491181	-2.978700	3.344000	-9.959700	26.261449	0.000554	20.713852
1793.492566	-3.013400	3.342800	-10.072000	26.265745	0.000553	20.739507
1794.493883	-2.996800	3.344400	-10.021000	26.279371	0.000553	20.715266
1795.501153	-3.014300	3.341700	-10.071000	26.279517	0.000553	20.722052
1796.493650	-3.007800	3.343100	-10.053000	26.263199	0.000553	20.728413
1797.494794	-3.000200	3.343300	-10.030000	26.221580	0.000551	20.746808
1798.494942	-3.041100	3.339900	-10.156000	26.213429	0.000551	20.706846
1799.496200	-3.004900	3.342900	-10.043000	26.231838	0.000551	20.735305
1800.499583	-3.023800	3.341400	-10.101000	26.251623	0.000551	20.700183
1801.498744	-2.988000	3.341400	-9.983300	26.266242	0.000550	20.720091
1802.497906	-3.007400	3.339900	-10.043000	26.281162	0.000550	20.723705
1803.500130	-3.004600	3.340800	-10.036000	26.258490	0.000550	20.728422
1804.500020	-2.999100	3.341000	-10.019000	26.224698	0.000549	20.716749
1805.500485	-3.013400	3.340200	-10.065000	26.231873	0.000546	20.709260
1806.507526	-2.989700	3.341100	-9.987300	26.255416	0.000548	20.703521
1807.498366	-2.979400	3.340600	-9.951600	26.274656	0.000545	20.719537
1808.498013	-2.991400	3.339800	-9.987900	26.246786	0.000547	20.716186
1809.499695	-2.963400	3.339400	-9.894200	26.200846	0.000546	20.721704
1810.501206	-2.979900	3.339500	-9.950300	26.191328	0.000544	20.695068
1811.500653	-3.022600	3.337200	-10.086000	26.149992	0.000546	20.723234
1812.500829	-2.999800	3.338200	-10.013000	26.140107	0.000544	20.717568
1813.506142	-3.028300	3.336500	-10.103000	26.145094	0.000544	20.721632
1814.503632	-2.991000	3.340400	-9.989000	26.188670	0.000542	20.720374
1815.500813	-2.994100	3.338900	-9.995700	26.211319	0.000543	20.708045
1816.507122	-3.009500	3.334700	-10.035000	26.265523	0.000543	20.707988
1817.501448	-3.016700	3.336200	-10.064000	26.280712	0.000541	20.733685
1818.503009	-2.991800	3.336500	-9.981200	26.294785	0.000542	20.713213
1819.504435	-3.005000	3.335600	-10.023000	26.304238	0.000541	20.699005
1820.506385	-3.023600	3.334600	-10.081000	26.294095	0.000544	20.701139
1821.503369	-3.014200	3.333300	-10.046000	26.258335	0.000540	20.713567
1822.506275	-3.009900	3.334600	-10.035000	26.212786	0.000541	20.709994
1823.504170	-3.001700	3.334600	-10.009000	26.201398	0.000538	20.712301
1824.504531	-3.008100	3.335400	-10.031000	26.222875	0.000539	20.697372
1825.507223	-3.015800	3.334400	-10.055000	26.226415	0.000540	20.707094
1826.505031	-3.001300	3.334500	-10.006000	26.201180	0.000539	20.712081
1827.504325	-2.982900	3.333400	-9.942200	26.154653	0.000539	20.703261
1828.504430	-2.993300	3.333700	-9.977200	26.138553	0.000536	20.716955
1829.508468	-2.990500	3.332100	-9.963100	26.091894	0.000538	20.719385
1830.505575	-2.993600	3.333600	-9.978300	26.074808	0.000536	20.711700
1831.506881	-2.990100	3.332000	-9.961500	26.089698	0.000537	20.704375
1832.508586	-3.028300	3.330800	-10.086000	26.101561	0.000535	20.716770
1833.508438	-3.024200	3.329800	-10.068000	26.116231	0.000535	20.715389
1834.507246	-3.015700	3.329900	-10.041000	26.118486	0.000534	20.711016
1835.512698	-3.017200	3.329800	-10.046000	26.099424	0.000532	20.715571
1836.513653	-3.003000	3.329300	-9.997400	26.088961	0.000532	20.697470
1837.507150	-2.972600	3.330800	-9.898900	26.050127	0.000533	20.718197
1838.509184	-2.995000	3.329700	-9.969800	26.055115	0.000533	20.693335
1839.509744	-2.994100	3.329200	-9.967400	26.061886	0.000530	20.716734
1840.509593	-2.995200	3.328800	-9.968300	26.104993	0.000530	20.718321
1841.511345	-2.986600	3.328300	-9.939300	26.169682	0.000529	20.711250
1842.510275	-2.992000	3.328100	-9.956800	26.193544	0.000529	20.711520
1843.510642	-3.011900	3.325800	-10.016000	26.164833	0.000530	20.713965
1844.511677	-2.995600	3.326300	-9.963900	26.161100	0.000528	20.703100
1845.513133	-3.013700	3.326100	-10.023000	26.165762	0.000527	20.704466
1846.510875	-3.018000	3.325300	-10.035000	26.157229	0.000527	20.699685
1847.511812	-3.009300	3.324600	-10.004000	26.176275	0.000527	20.700331
1848.515257	-2.975400	3.326400	-9.895700	26.184363	0.000527	20.702294
1849.515116	-3.009900	3.323800	-10.003000	26.140821	0.000528	20.697896
1850.511162	-3.008500	3.324500	-10.001000	26.173551	0.000525	20.711819
1851.513817	-3.008400	3.322900	-9.994700	26.190254	0.000525	20.711534
1852.511586	-3.007700	3.324500	-9.997400	26.175952	0.000522	20.716603
1853.511361	-3.012300	3.322600	-10.007000	26.170575	0.000522	20.705510
1854.512852	-3.004400	3.323800	-9.984200	26.123437	0.000524	20.682797
1855.512124	-2.993600	3.323800	-9.948500	26.169079	0.000523	20.688832
1856.511383	-3.006600	3.322600	-9.987900	26.174067	0.000523	20.709492
1857.513968	-2.996800	3.322300	-9.955400	26.172050	0.000522	20.683755
1858.512910	-3.014000	3.322200	-10.013000	26.199337	0.000521	20.697900
1859.512833	-3.024700	3.320200	-10.041000	26.218959	0.000520	20.695807
1860.516459	-2.998700	3.321100	-9.957600	26.233204	0.000521	20.712494
1861.513246	-3.010300	3.319500	-9.991400	26.253258	0.000519	20.711310
1862.513769	-2.992300	3.321200	-9.936200	26.236101	0.000518	20.700706
1863.513790	-3.019600	3.318500	-10.020000	26.218115	0.000519	20.716298
1864.513646	-2.992900	3.321500	-9.940400	26.209094	0.000517	20.713870
1865.514141	-3.011900	3.319000	-9.994400	26.230009	0.000518	20.712602
1866.513392	-2.985500	3.319500	-9.909100	26.250014	0.000517	20.723698
1867.514758	-3.012600	3.318000	-9.995100	26.272312	0.000514	20.706750
1868.513253	-2.997800	3.317800	-9.944500	26.304493	0.000515	20.713487
1869.513252	-2.997900	3.317600	-9.944300	26.346532	0.000515	20.683188
1870.518839	-3.015200	3.318800	-10.006000	26.378061	0.000512	20.713929
1871.518238	-3.018500	3.316100	-10.008000	26.416966	0.000515	20.719840
1872.514360	-3.027100	3.315500	-10.036000	26.386951	0.000515	20.725710
1873.516816	-3.007700	3.318400	-9.979400	26.390889	0.000512	20.714020
1874.513690	-3.012100	3.316000	-9.986200	26.358036	0.000512	20.721779
1875.517568	-2.982300	3.318900	-9.895600	26.348520	0.000513	20.698937
1876.516142	-2.983500	3.316800	-9.895000	26.304943	0.000509	20.724371
1877.515039	-2.986900	3.317400	-9.907700	26.346975	0.000512	20.715403
1878.514064	-2.992700	3.316400	-9.924100	26.386352	0.000511	20.709934
1879.517422	-2.985300	3.315000	-9.895800	26.356557	0.000511	20.708912
1880.517080	-2.982600	3.314600	-9.884900	26.319628	0.000509	20.701669
1881.515621	-2.982300	3.314900	-9.884900	26.327421	0.000510	20.720882
1882.516273	-3.001600	3.313600	-9.945700	26.352898	0.000509	20.718037
1883.523046	-2.976100	3.314000	-9.862000	26.382815	0.000509	20.709224
1884.523649	-3.026200	3.313500	-10.025000	26.422118	0.000508	20.707949
1885.518297	-2.996200	3.312000	-9.921900	26.451279	0.000508	20.703592
1886.516094	-2.989200	3.314000	-9.905700	26.448196	0.000507	20.725152
1887.517186	-3.022100	3.311000	-10.003000	26.458941	0.000505	20.724572
1888.515484	-2.991900	3.312400	-9.909300	26.441357	0.000505	20.702629
1889.522788	-3.032800	3.311300	-10.040000	26.431898	0.000502	20.705924
1890.518190	-2.977100	3.312700	-9.861400	26.462180	0.000505	20.715499
1891.521321	-3.006000	3.311600	-9.954200	26.450949	0.000504	20.718909
1892.522693	-2.983100	3.311400	-9.877100	26.416430	0.000503	20.730682
1893.520664	-3.004500	3.310900	-9.947000	26.428696	0.000503	20.707921
1894.518653	-2.989400	3.308600	-9.889200	26.446517	0.000502	20.715403
1895.520444	-2.994300	3.310200	-9.910800	26.471089	0.000501	20.719712
1896.518520	-2.999500	3.310100	-9.928100	26.487918	0.000500	20.709600
1897.520545	-2.985900	3.309200	-9.879300	26.499654	0.000498	20.741787
1898.520006	-2.983200	3.309300	-9.871300	26.520053	0.000499	20.716771
1899.522026	-2.999500	3.308400	-9.922200	26.533107	0.000500	20.718513
1900.519932	-3.017200	3.307200	-9.976900	26.522576	0.000499	20.728791
1901.519454	-2.990100	3.308400	-9.890500	26.512841	0.000498	20.722798
1902.523801	-3.004900	3.307600	-9.937800	26.514874	0.000496	20.710617
1903.520069	-3.003300	3.307200	-9.932300	26.519455	0.000497	20.717118
1904.523489	-3.013200	3.305800	-9.959500	26.507109	0.000497	20.710872
1905.520301	-3.000900	3.307100	-9.923400	26.472544	0.000495	20.719278
1906.521257	-2.991100	3.305700	-9.886400	26.490298	0.000495	20.720054
1907.519837	-3.003200	3.305200	-9.922600	26.466907	0.000495	20.704128
1908.521195	-3.005300	3.305200	-9.932100	26.439913	0.000496	20.710187
1909.523091	-2.995300	3.305800	-9.900900	26.452870	0.000494	20.714676
1910.524417	-2.992200	3.305300	-9.888100	26.471732	0.000492	20.725101
1911.521840	-2.986300	3.305700	-9.871200	26.483355	0.000493	20.730145
1912.524195	-2.990700	3.305300	-9.884200	26.434465	0.000490	20.730791
1913.523312	-3.003000	3.303000	-9.917600	26.451399	0.000490	20.727897
1914.522237	-3.003400	3.302900	-9.919100	26.462168	0.000491	20.743938
1915.526285	-3.012800	3.302300	-9.948400	26.487146	0.000490	20.738223
1916.530227	-2.995900	3.302400	-9.893000	26.487991	0.000489	20.740496
1917.522806	-2.996100	3.301900	-9.891700	26.430781	0.000490	20.720924
1918.523575	-2.996000	3.302800	-9.893300	26.411894	0.000488	20.728019
1919.524502	-3.006200	3.302100	-9.925900	26.410349	0.000488	20.730260
1920.524238	-3.005000	3.299500	-9.913600	26.414766	0.000487	20.722845
1921.524341	-2.991100	3.301400	-9.873700	26.464048	0.000488	20.695089
1922.526730	-2.986300	3.300400	-9.854200	26.522168	0.000487	20.714629
1923.524448	-2.987900	3.299400	-9.857500	26.538849	0.000486	20.721914
1924.524722	-2.999100	3.299200	-9.893500	26.562011	0.000485	20.720067
1925.528803	-2.999700	3.299100	-9.895500	26.564467	0.000484	20.727752
1926.523806	-2.998500	3.299400	-9.892000	26.598639	0.000483	20.736498
1927.524982	-3.004800	3.298600	-9.910500	26.610325	0.000486	20.758679
1928.527995	-3.001700	3.298200	-9.899700	26.631990	0.000482	20.721661
1929.523089	-3.011100	3.296300	-9.924500	26.641155	0.000480	20.712381
1930.524854	-3.001700	3.297700	-9.897200	26.668706	0.000481	20.706414
1931.528858	-3.026500	3.296400	-9.975500	26.674139	0.000480	20.748387
1932.525620	-3.003200	3.298100	-9.903300	26.679082	0.000480	20.734390
1933.525108	-3.010200	3.296500	-9.922800	26.647995	0.000479	20.713094
1934.532455	-3.011700	3.295300	-9.923300	26.647800	0.000478	20.718588
1935.529078	-3.015600	3.294500	-9.934200	26.658924	0.000478	20.739729
1936.530050	-3.002200	3.294800	-9.889400	26.680302	0.000476	20.728978
1937.533939	-3.015300	3.294600	-9.932800	26.689085	0.000478	20.725005
1938.530357	-2.987000	3.297300	-9.846700	26.698175	0.000475	20.720868
1939.531869	-2.991400	3.294800	-9.854300	26.706161	0.000474	20.738380
1940.535163	-3.005900	3.292900	-9.895700	26.690328	0.000477	20.736688
1941.534182	-2.990900	3.294100	-9.851500	26.662973	0.000474	20.727678
1942.530250	-3.028100	3.292200	-9.967800	26.599900	0.000473	20.739663
1943.539250	-3.019800	3.292500	-9.941800	26.615685	0.000475	20.732771
1944.532516	-3.019300	3.291300	-9.934800	26.616702	0.000474	20.720042
1945.537598	-3.002600	3.292300	-9.884600	26.626069	0.000473	20.738469
1946.532580	-2.988900	3.291700	-9.837000	26.600120	0.000472	20.749842
1947.535650	-2.978200	3.292000	-9.803200	26.551333	0.000473	20.733516
1948.538740	-2.992800	3.291700	-9.850700	26.558709	0.000471	20.736663
1949.535783	-2.994200	3.289700	-9.848300	26.546389	0.000470	20.723804
1950.541667	-3.011400	3.289800	-9.905800	26.532343	0.000470	20.727703
1951.537551	-3.017200	3.289600	-9.923600	26.542640	0.000469	20.724302
1952.537292	-3.021500	3.289700	-9.938300	26.530033	0.000469	20.753832
1953.541393	-3.002900	3.288600	-9.874400	26.468157	0.000469	20.739051
1954.539571	-3.014400	3.289700	-9.914200	26.487620	0.000468	20.734906
1955.539253	-2.998600	3.289300	-9.862600	26.517761	0.000470	20.745289
1956.543419	-2.997800	3.287800	-9.854000	26.535249	0.000468	20.708812
1957.541890	-3.005200	3.287900	-9.879600	26.540047	0.000466	20.745405
1958.540370	-2.989300	3.287300	-9.824800	26.553596	0.000467	20.727256
1959.540881	-2.995900	3.287800	-9.849900	26.607019	0.000468	20.745397
1960.541109	-2.983200	3.287700	-9.807300	26.619723	0.000465	20.737779
1961.539477	-2.976800	3.287400	-9.784900	26.644672	0.000465	20.739626
1962.539283	-2.987600	3.286400	-9.817200	26.630459	0.000465	20.733873
1963.542241	-2.979400	3.286300	-9.790500	26.605037	0.000464	20.748621
1964.544155	-2.969400	3.286600	-9.757400	26.619195	0.000461	20.741516
1965.544460	-3.000100	3.284600	-9.853100	26.599069	0.000461	20.749260
1966.542315	-2.999100	3.284400	-9.848900	26.626874	0.000461	20.729320
1967.544380	-3.014000	3.285100	-9.899800	26.603095	0.000460	20.739081
1968.547961	-2.986900	3.286100	-9.814400	26.550007	0.000461	20.737873
1969.544764	-2.993400	3.285400	-9.832900	26.522721	0.000460	20.735575
1970.543299	-3.006800	3.283600	-9.872300	26.548210	0.000458	20.740335
1971.545192	-3.003400	3.283700	-9.861900	26.556806	0.000457	20.745182
1972.544307	-3.000400	3.283400	-9.850900	26.596770	0.000457	20.763070
1973.541858	-3.014800	3.282600	-9.895800	26.630772	0.000457	20.750784
1974.544279	-2.996700	3.282100	-9.834000	26.628511	0.000455	20.736657
1975.546008	-2.988400	3.283000	-9.809600	26.624584	0.000457	20.758314
1976.542527	-2.980700	3.283400	-9.785900	26.601203	0.000453	20.752828
1977.543869	-2.992300	3.280600	-9.815600	26.618086	0.000453	20.741824
1978.545306	-3.042100	3.279100	-9.974500	26.635677	0.000454	20.765198
1979.543406	-3.014600	3.281800	-9.892300	26.673979	0.000451	20.762451
1980.546279	-2.990700	3.280300	-9.807900	26.712328	0.000455	20.753115
1981.544943	-3.000000	3.281300	-9.843300	26.734990	0.000453	20.765943
1982.546285	-2.995000	3.279900	-9.822300	26.737268	0.000453	20.772500
1983.547001	-2.984900	3.279600	-9.787800	26.749131	0.000452	20.760720
1984.545846	-3.013200	3.278900	-9.879200	26.801748	0.000448	20.761938
1985.545805	-2.990800	3.279300	-9.806700	26.807561	0.000451	20.766835
1986.545613	-2.999100	3.278900	-9.833000	26.836896	0.000451	20.759346
1987.548281	-3.004300	3.276800	-9.843400	26.845922	0.000449	20.745662
1988.547566	-2.979000	3.277000	-9.761500	26.836320	0.000447	20.758766
1989.545584	-2.993900	3.276800	-9.807400	26.790178	0.000448	20.775436
1990.546266	-2.993000	3.276400	-9.805700	26.767688	0.000448	20.736227
1991.548236	-2.980100	3.277000	-9.764900	26.751622	0.000446	20.770336
1992.547066	-3.014600	3.275600	-9.873600	26.733627	0.000445	20.755563
1993.548994	-2.977100	3.275800	-9.751100	26.725211	0.000446	20.774129
1994.547457	-2.989200	3.273700	-9.785400	26.752411	0.000444	20.768285
1995.551291	-2.970800	3.274800	-9.727800	26.725431	0.000446	20.769135
1996.548640	-3.008600	3.273300	-9.846000	26.679553	0.000443	20.744348
1997.550117	-3.002300	3.272500	-9.824600	26.667633	0.000441	20.755124
1998.549714	-3.003900	3.273600	-9.832600	26.701469	0.000441	20.749785
1999.549276	-2.976300	3.273500	-9.741300	26.729068	0.000442	20.756195
2000.548294	-3.015100	3.271300	-9.861500	26.753022	0.000440	20.767476
2001.548778	-3.008200	3.271000	-9.839300	26.766049	0.000441	20.767771
2002.549301	-3.009500	3.273400	-9.849700	26.725515	0.000438	20.754519
2003.548737	-3.015800	3.271000	-9.863800	26.709731	0.000438	20.768049
2004.548511	-2.993200	3.271900	-9.792600	26.728400	0.000437	20.774491
2005.549399	-3.002000	3.271100	-9.818400	26.745403	0.000436	20.761239
2006.548122	-2.997700	3.271900	-9.807400	26.711397	0.000436	20.774466
2007.548566	-3.008900	3.270800	-9.839800	26.724970	0.000437	20.782895
2008.552173	-3.035700	3.268300	-9.920600	26.749704	0.000436	20.782632
2009.550194	-3.016000	3.269400	-9.859500	26.739101	0.000436	20.770076
2010.547134	-2.994200	3.270500	-9.791000	26.762308	0.000433	20.768751
2011.555838	-3.009200	3.267800	-9.832600	26.789343	0.000435	20.776019
2012.550687	-3.019300	3.268500	-9.866800	26.806239	0.000434	20.762187
2013.550068	-3.016000	3.267300	-9.853200	26.815972	0.000433	20.779559
2014.551146	-2.990100	3.268900	-9.772200	26.861145	0.000432	20.778986
2015.549113	-3.002200	3.266800	-9.806300	26.859112	0.000432	20.754657
2016.550049	-2.990400	3.267400	-9.770000	26.876039	0.000432	20.782583
2017.548472	-2.994900	3.266100	-9.781000	26.894007	0.000431	20.769830
2018.549273	-3.004500	3.267000	-9.814300	26.916470	0.000430	20.764442
2019.548922	-2.993800	3.264200	-9.771600	26.918730	0.000430	20.797535
2020.548327	-2.992600	3.264800	-9.768600	26.928786	0.000427	20.788207
2021.548649	-2.966100	3.266400	-9.687200	26.913201	0.000427	20.781070
2022.549834	-2.993200	3.264500	-9.769700	26.904584	0.000426	20.770034
2023.552712	-2.994300	3.264300	-9.772800	26.902680	0.000425	20.770491
2024.548654	-2.967500	3.263300	-9.682000	26.932736	0.000423	20.798817
2025.553202	-2.999200	3.263400	-9.786600	26.912184	0.000426	20.768193
2026.549598	-2.992500	3.263300	-9.763700	26.878785	0.000424	20.790086
2027.550683	-2.980100	3.263000	-9.722300	26.901573	0.000424	20.764636
2028.554524	-2.985300	3.262600	-9.738200	26.903037	0.000422	20.781281
2029.549898	-2.995300	3.262300	-9.770400	26.917598	0.000423	20.772215
2030.550968	-2.988900	3.262900	-9.750300	26.934329	0.000422	20.777659
2031.553313	-3.006600	3.261000	-9.804000	26.951929	0.000421	20.766908
2032.551514	-2.997600	3.261000	-9.774100	26.935223	0.000418	20.784248
2033.551294	-3.007400	3.261100	-9.806400	26.925597	0.000421	20.785474
2034.556592	-2.976700	3.260700	-9.705000	26.876036	0.000417	20.793486
2035.551441	-3.006000	3.259300	-9.796200	26.855214	0.000419	20.788196
2036.554043	-2.991700	3.260300	-9.753300	26.876312	0.000420	20.803246
2037.556373	-2.998000	3.259400	-9.771200	26.849018	0.000417	20.798087
2038.556461	-3.006000	3.258500	-9.793700	26.844068	0.000416	20.770824
2039.555968	-3.017400	3.257300	-9.827700	26.855669	0.000416	20.773006
2040.554182	-3.010600	3.257900	-9.807100	26.834619	0.000413	20.798308
2041.559470	-3.004400	3.257100	-9.784600	26.823326	0.000413	20.799281
2042.557246	-2.999300	3.258600	-9.773100	26.834619	0.000414	20.787877
2043.565086	-3.004800	3.257600	-9.787800	26.798307	0.000414	20.767014
2044.558033	-3.003600	3.256700	-9.781500	26.817171	0.000411	20.788351
2045.557271	-2.997800	3.256100	-9.759700	26.796844	0.000411	20.795888
2046.556928	-3.005200	3.255400	-9.782200	26.817220	0.000410	20.785555
2047.558391	-2.985700	3.255600	-9.718800	26.848546	0.000410	20.793820
2048.556119	-3.015800	3.254400	-9.812600	26.883557	0.000408	20.811953
2049.558726	-3.016200	3.254700	-9.815800	26.875816	0.000409	20.804170
2050.557432	-3.016700	3.254400	-9.816500	26.860929	0.000409	20.792520
2051.559679	-2.980500	3.253900	-9.697100	26.846635	0.000408	20.804227
2052.558236	-3.002500	3.252900	-9.766100	26.845521	0.000406	20.786511
2053.555974	-2.997300	3.252500	-9.747800	26.844302	0.000406	20.803777
2054.556804	-3.004200	3.252200	-9.768000	26.863214	0.000405	20.809990
2055.556672	-3.010100	3.251800	-9.786800	26.918783	0.000405	20.808968
2056.559802	-3.015900	3.250900	-9.803100	26.921986	0.000404	20.813137
2057.559608	-2.980400	3.251100	-9.688000	26.945936	0.000401	20.812090
2058.561845	-2.997200	3.251100	-9.742900	26.973976	0.000404	20.784811
2059.559768	-3.007600	3.249300	-9.772200	26.989780	0.000402	20.803074
2060.561277	-2.997200	3.251200	-9.743500	26.975464	0.000401	20.796264
2061.564718	-2.983000	3.250400	-9.695200	26.973284	0.000401	20.811142
2062.560071	-3.011500	3.250000	-9.786500	26.937725	0.000399	20.817110
2063.566024	-2.993800	3.249700	-9.727300	26.921466	0.000397	20.805027
2064.563478	-2.994900	3.248000	-9.726500	26.950976	0.000400	20.810521
2065.563443	-2.995100	3.248400	-9.727800	26.924986	0.000397	20.804300
2066.565217	-2.993800	3.247900	-9.722500	26.940749	0.000395	20.809246
2067.566209	-2.993700	3.248600	-9.723300	26.952098	0.000396	20.802639
2068.568390	-2.997200	3.247500	-9.732000	26.899034	0.000395	20.784368
2069.565306	-3.002100	3.247200	-9.746800	26.887742	0.000394	20.806204
2070.569396	-3.040000	3.244500	-9.861800	26.879676	0.000394	20.818483
2071.564204	-3.015200	3.246100	-9.785900	26.930708	0.000392	20.784924
2072.567982	-3.017600	3.244400	-9.789800	26.942552	0.000393	20.805843
2073.570078	-2.998900	3.246400	-9.733900	26.962510	0.000393	20.806472
2074.570815	-3.028500	3.242700	-9.818900	27.009360	0.000392	20.809014
2075.570934	-2.995300	3.244100	-9.716100	27.071051	0.000392	20.807518
2076.572503	-2.990900	3.244300	-9.701600	27.081172	0.000389	20.807265
2077.567246	-3.005800	3.242400	-9.745000	27.066888	0.000389	20.800961
2078.567587	-2.986200	3.244900	-9.689300	27.076472	0.000388	20.820082
2079.567537	-3.002900	3.243300	-9.737900	27.092672	0.000388	20.833530
2080.568289	-3.007000	3.241700	-9.746700	27.106830	0.000387	20.816949
2081.568285	-2.970300	3.243600	-9.632300	27.080844	0.000386	20.818789
2082.569945	-2.974000	3.242400	-9.641900	27.069805	0.000387	20.831869
2083.570213	-2.994200	3.241000	-9.703500	27.103328	0.000385	20.823858
2084.569978	-2.993200	3.240000	-9.697300	27.096637	0.000386	20.817603
2085.570257	-3.018400	3.240300	-9.778800	27.133979	0.000384	20.815804
2086.573856	-2.998200	3.239900	-9.713300	27.119186	0.000385	20.806616
2087.569414	-2.999800	3.240500	-9.720300	27.082224	0.000382	20.826815
2088.571739	-3.036500	3.239100	-9.834200	27.015494	0.000383	20.841735
2089.570319	-3.000900	3.239600	-9.719400	26.975741	0.000382	20.809820
2090.571563	-3.012400	3.238100	-9.752000	26.986513	0.000381	20.799315
2091.570210	-2.974900	3.239900	-9.637400	27.049165	0.000380	20.814905
2092.576258	-3.018400	3.237300	-9.769700	27.081201	0.000378	20.816303
2093.570171	-3.028300	3.237200	-9.802100	27.117056	0.000381	20.825810
2094.572151	-3.004300	3.238100	-9.727400	27.139416	0.000379	20.811316
2095.574080	-2.983600	3.238100	-9.659500	27.101872	0.000377	20.811014
2096.572606	-2.976500	3.235500	-9.629500	27.084054	0.000378	20.826759
2097.573202	-2.988400	3.235300	-9.667800	27.097597	0.000375	20.831844
2098.574111	-2.982400	3.235800	-9.649100	27.137352	0.000377	20.822042
2099.574277	-3.002500	3.234300	-9.708700	27.188811	0.000375	20.825909
2100.575641	-3.020700	3.234600	-9.769200	27.194989	0.000375	20.808889
2101.578859	-3.006100	3.234600	-9.722600	27.214292	0.000374	20.829252
2102.577964	-3.015800	3.231900	-9.744800	27.217047	0.000371	20.838187
2103.578660	-3.001700	3.233800	-9.706000	27.227840	0.000372	20.847147
2104.581109	-2.980200	3.232800	-9.633300	27.238829	0.000369	20.825484
2105.579027	-2.982000	3.233700	-9.642000	27.250321	0.000370	20.852215
2106.577489	-2.987300	3.232300	-9.655600	27.279718	0.000369	20.843378
2107.582586	-2.988200	3.232300	-9.657900	27.263764	0.000368	20.823064
2108.578710	-2.993300	3.231300	-9.671200	27.244908	0.000370	20.865736
2109.579321	-2.998000	3.230300	-9.683700	27.184415	0.000370	20.846616
2110.586205	-2.985300	3.231600	-9.646600	27.140977	0.000367	20.842282
2111.578501	-2.997100	3.229900	-9.679500	27.171027	0.000367	20.839315
2112.577633	-2.990700	3.229500	-9.657300	27.195582	0.000367	20.849788
2113.583651	-2.995900	3.230700	-9.678000	27.223053	0.000366	20.837116
2114.582121	-2.999700	3.228100	-9.682200	27.244144	0.000366	20.848847
2115.578306	-2.998700	3.227000	-9.675800	27.219697	0.000363	20.845120
2116.579681	-3.008500	3.227700	-9.710000	27.232855	0.000363	20.841759
2117.581017	-3.042600	3.225300	-9.812100	27.249305	0.000365	20.844081
2118.579540	-2.991900	3.227900	-9.656500	27.271826	0.000361	20.854406
2119.581678	-2.978300	3.226500	-9.608300	27.256473	0.000362	20.842757
2120.582260	-2.996700	3.226300	-9.667300	27.300409	0.000360	20.820570
2121.579709	-3.006000	3.224500	-9.692300	27.332786	0.000358	20.849345
2122.579949	-2.996300	3.224800	-9.660700	27.335890	0.000360	20.853890
2123.581652	-3.003000	3.225100	-9.684900	27.370218	0.000358	20.827257
2124.578868	-2.993500	3.224600	-9.652000	27.383870	0.000358	20.833404
2125.581316	-2.975400	3.223900	-9.591700	27.385779	0.000358	20.831058
2126.581111	-2.983300	3.224400	-9.618500	27.386983	0.000357	20.817097
2127.582630	-2.993500	3.223100	-9.647100	27.423754	0.000353	20.837492
2128.581070	-2.994200	3.223600	-9.651400	27.429287	0.000355	20.836895
2129.586024	-2.977500	3.223400	-9.596000	27.450828	0.000355	20.826798
2130.582446	-3.011100	3.221400	-9.699100	27.448716	0.000352	20.826569
2131.583429	-3.014400	3.220800	-9.706800	27.423998	0.000353	20.840582
2132.594138	-3.006900	3.223100	-9.691400	27.357817	0.000355	20.832326
2133.585711	-3.004600	3.221600	-9.678900	27.321222	0.000352	20.833446
2134.583304	-3.008200	3.221000	-9.688900	27.278579	0.000352	20.824216
2135.582706	-3.003900	3.221400	-9.676000	27.236570	0.000350	20.825108
2136.585273	-2.998100	3.221200	-9.656800	27.220591	0.000350	20.810933
2137.581085	-2.999300	3.220400	-9.657200	27.187973	0.000350	20.818902
2138.583642	-3.006600	3.218700	-9.677000	27.198313	0.000349	20.828827
2139.581858	-2.999000	3.219300	-9.653900	27.232953	0.000346	20.838539
2140.585453	-2.999600	3.217700	-9.651100	27.242957	0.000348	20.813040
2141.583494	-2.988500	3.216600	-9.611500	27.292064	0.000346	20.821185
2142.586058	-3.008800	3.217300	-9.678700	27.369146	0.000345	20.829498
2143.587406	-2.999600	3.217500	-9.650400	27.403780	0.000345	20.818347
2144.588837	-2.989100	3.217400	-9.614800	27.422528	0.000343	20.816819
2145.586497	-2.991600	3.215700	-9.619500	27.397800	0.000342	20.821813
2146.587986	-2.993100	3.216000	-9.623300	27.378248	0.000341	20.818266
2147.587589	-3.010800	3.213000	-9.672800	27.375696	0.000343	20.799104
2148.586074	-3.000600	3.213300	-9.640800	27.369561	0.000340	20.821381
2149.588327	-3.009800	3.214600	-9.674600	27.338851	0.000339	20.815144
2150.592609	-3.012400	3.213200	-9.678500	27.300524	0.000341	20.803142
2151.592038	-2.991700	3.214700	-9.615400	27.285150	0.000340	20.812808
2152.591917	-2.998200	3.211300	-9.625700	27.317632	0.000336	20.796170
2153.591729	-3.007000	3.211400	-9.655600	27.349667	0.000338	20.800895
2154.589011	-3.007900	3.211800	-9.659100	27.352293	0.000336	20.814441
2155.588910	-3.027300	3.209800	-9.716000	27.386424	0.000337	20.831233
2156.589906	-3.002300	3.211200	-9.638900	27.394664	0.000335	20.812021
2157.591620	-2.998700	3.211200	-9.627200	27.399077	0.000334	20.824047
2158.588706	-2.996000	3.211200	-9.621000	27.375022	0.000333	20.797477
2159.588801	-3.000400	3.209000	-9.627200	27.360931	0.000334	20.798001
2160.593408	-2.996600	3.209000	-9.614000	27.368870	0.000331	20.808832
2161.594292	-2.993200	3.208400	-9.603000	27.364806	0.000333	20.815650
2162.590379	-3.015600	3.207900	-9.673100	27.385123	0.000330	20.818544
2163.590858	-3.005000	3.207300	-9.635700	27.412110	0.000331	20.805865
2164.590661	-3.012100	3.206800	-9.657700	27.445978	0.000329	20.792048
2165.593433	-2.999400	3.205000	-9.612100	27.404178	0.000329	20.787454
2166.592144	-2.990800	3.205700	-9.587100	27.404105	0.000330	20.814406
2167.590852	-3.002800	3.205800	-9.623700	27.387389	0.000328	20.794745
2168.590336	-2.993100	3.205200	-9.592400	27.360076	0.000327	20.799511
2169.592569	-2.994500	3.204600	-9.595500	27.352786	0.000328	20.796445
2170.593469	-2.980000	3.205400	-9.551100	27.376108	0.000326	20.791932
2171.593806	-2.997800	3.203400	-9.603000	27.431326	0.000327	20.787264
2172.591104	-2.997400	3.203300	-9.601200	27.418706	0.000325	20.808707
2173.592679	-2.986400	3.204200	-9.567600	27.382836	0.000323	20.801071
2174.593942	-2.975500	3.203000	-9.529400	27.328583	0.000322	20.791539
2175.593846	-3.000100	3.203700	-9.609900	27.297603	0.000324	20.794988
2176.592650	-2.980600	3.202500	-9.543900	27.307753	0.000322	20.787180
2177.593424	-2.999800	3.200300	-9.599300	27.259892	0.000322	20.797833
2178.594429	-2.994700	3.200300	-9.583000	27.200626	0.000319	20.774729
2179.592559	-3.011500	3.199500	-9.633800	27.188369	0.000322	20.788006
2180.597985	-2.991700	3.199900	-9.572100	27.215491	0.000319	20.785888
2181.593278	-2.988500	3.198800	-9.559100	27.224919	0.000320	20.770241
2182.596139	-2.985900	3.199200	-9.550000	27.283298	0.000317	20.792453
2183.596726	-3.007900	3.199300	-9.622100	27.328378	0.000317	20.770943
2184.602386	-2.992300	3.197900	-9.567600	27.392878	0.000317	20.782724
2185.594597	-2.996200	3.197800	-9.580400	27.426366	0.000316	20.779903
2186.596585	-2.989100	3.198000	-9.558300	27.463477	0.000317	20.788790
2187.596688	-2.995100	3.197600	-9.575500	27.485010	0.000314	20.790065
2188.595998	-3.009300	3.195200	-9.613800	27.524824	0.000314	20.796457
2189.603356	-2.997600	3.196800	-9.581700	27.510134	0.000312	20.789738
2190.596333	-2.992100	3.194900	-9.558800	27.503756	0.000313	20.777631
2191.597408	-3.003200	3.194400	-9.592700	27.508728	0.000311	20.800177
2192.601596	-2.998400	3.194400	-9.577400	27.548265	0.000311	20.766936
2193.595280	-3.001600	3.194000	-9.586000	27.525686	0.000310	20.785470
2194.598209	-2.986600	3.193400	-9.536500	27.521501	0.000311	20.770828
2195.599978	-2.996800	3.192100	-9.565400	27.530528	0.000312	20.787023
2196.598525	-2.991400	3.192700	-9.549400	27.569074	0.000310	20.774122
2197.599373	-2.995900	3.192500	-9.563900	27.558374	0.000308	20.762408
2198.598702	-2.994300	3.191000	-9.554500	27.581546	0.000308	20.770076
2199.602910	-3.015300	3.189500	-9.616400	27.557788	0.000307	20.777466
2200.600124	-3.006100	3.190000	-9.588700	27.603823	0.000306	20.777319
2201.598145	-3.009100	3.189200	-9.595900	27.653165	0.000305	20.769120
2202.603735	-3.023000	3.189700	-9.641800	27.598291	0.000304	20.794985
2203.599580	-2.975800	3.190000	-9.491500	27.540173	0.000304	20.766855
2204.601933	-3.035400	3.187000	-9.673200	27.504137	0.000305	20.782756
2205.598039	-3.019600	3.187800	-9.625300	27.498855	0.000304	20.778390
2206.600041	-2.992300	3.188400	-9.539900	27.488714	0.000303	20.790472
2207.600475	-3.021000	3.186900	-9.626400	27.503129	0.000303	20.764197
2208.600510	-2.998600	3.187200	-9.555800	27.526043	0.000303	20.786303
2209.599524	-2.993400	3.187200	-9.539400	27.532860	0.000302	20.777041
2210.602696	-3.017400	3.184900	-9.608500	27.535517	0.000300	20.774972
2211.600619	-2.985900	3.184900	-9.508900	27.520534	0.000300	20.786451
2212.600797	-3.015500	3.184300	-9.601300	27.463509	0.000300	20.780287
2213.601140	-2.991700	3.187300	-9.533800	27.452620	0.000298	20.773599
2214.599917	-2.962600	3.185100	-9.435200	27.456495	0.000298	20.768963
2215.600732	-2.990600	3.183900	-9.520300	27.443795	0.000297	20.767565
2216.604472	-2.985200	3.182100	-9.498400	27.436474	0.000298	20.764467
2217.601126	-2.991900	3.181900	-9.518200	27.427924	0.000295	20.755392
2218.604053	-3.007700	3.180500	-9.565100	27.442803	0.000297	20.774628
2219.600740	-3.018600	3.178300	-9.591900	27.459948	0.000294	20.751574
2220.601758	-2.993000	3.179700	-9.515300	27.489859	0.000294	20.793047
2221.605419	-3.013100	3.181100	-9.584000	27.518510	0.000294	20.756438
2222.604819	-3.018600	3.181100	-9.601300	27.535881	0.000293	20.773442
2223.601642	-3.004300	3.180500	-9.553700	27.569357	0.000293	20.753070
2224.603893	-3.010500	3.178000	-9.566600	27.606438	0.000290	20.766673
2225.602627	-2.991200	3.179900	-9.510700	27.641057	0.000290	20.765472
2226.603686	-3.005400	3.176700	-9.546400	27.674716	0.000291	20.765202
2227.602251	-3.014000	3.177400	-9.575600	27.696967	0.000289	20.786170
2228.604325	-3.002800	3.175700	-9.534500	27.705270	0.000289	20.755645
2229.601301	-3.023300	3.174000	-9.595400	27.688185	0.000289	20.772118
2230.603409	-3.024600	3.175500	-9.603300	27.683969	0.000288	20.752227
2231.605393	-2.969900	3.175600	-9.430600	27.667843	0.000286	20.761131
2232.602545	-3.007400	3.174300	-9.544600	27.612711	0.000284	20.774407
2233.605537	-2.995800	3.176300	-9.514700	27.599345	0.000287	20.761433
2234.606946	-2.995600	3.174900	-9.510100	27.542000	0.000285	20.753994
2235.606041	-3.006300	3.172700	-9.537000	27.479791	0.000283	20.762529
2236.604558	-2.966800	3.172400	-9.410800	27.439861	0.000285	20.745114
2237.608001	-3.010800	3.172100	-9.550100	27.417953	0.000283	20.756266
2238.606134	-2.984900	3.171900	-9.466800	27.413045	0.000281	20.766027
2239.604970	-2.953200	3.172800	-9.368500	27.443997	0.000282	20.762079
2240.605821	-3.004700	3.170600	-9.525900	27.481725	0.000282	20.743137
2241.605056	-2.984400	3.169500	-9.458200	27.507297	0.000279	20.740889
2242.606518	-3.000300	3.170200	-9.510800	27.539822	0.000280	20.754647
2243.609001	-2.979100	3.169100	-9.439500	27.562710	0.000280	20.735950
2244.607840	-3.023700	3.168900	-9.580900	27.620778	0.000278	20.762135
2245.606323	-3.001700	3.166200	-9.502900	27.647930	0.000279	20.750102
2246.610048	-2.992300	3.167300	-9.476300	27.696220	0.000279	20.750805
2247.606188	-2.992600	3.167000	-9.476500	27.707326	0.000278	20.751075
2248.607818	-2.988000	3.165600	-9.457900	27.739122	0.000276	20.752726
2249.608113	-3.011600	3.164900	-9.529700	27.741380	0.000275	20.747412
2250.607989	-2.984500	3.167000	-9.451100	27.715807	0.000274	20.754394
2251.609488	-2.999900	3.165000	-9.492900	27.712687	0.000275	20.759789
2252.607683	-2.979600	3.164300	-9.427600	27.698202	0.000276	20.752800
2253.608737	-2.970400	3.163100	-9.394700	27.668939	0.000274	20.755595
2254.606297	-3.000200	3.163200	-9.488700	27.677519	0.000273	20.760910
2255.609022	-2.998400	3.161800	-9.479400	27.705668	0.000273	20.744191
2256.609361	-3.003600	3.161200	-9.494400	27.710736	0.000272	20.731747
2257.609350	-2.988500	3.160600	-9.444300	27.743070	0.000271	20.744370
2258.613384	-3.002200	3.162200	-9.492400	27.751753	0.000268	20.748841
2259.609715	-2.971600	3.160500	-9.390400	27.771811	0.000269	20.744844
2260.615308	-3.009200	3.161800	-9.513000	27.793215	0.000269	20.735565
2261.610326	-3.002300	3.157600	-9.479500	27.777821	0.000269	20.751367
2262.609138	-3.020900	3.157800	-9.537400	27.805741	0.000269	20.741532
2263.614253	-2.989700	3.157300	-9.437900	27.803783	0.000269	20.736717
2264.610085	-2.993800	3.155700	-9.446400	27.824066	0.000268	20.766140
2265.611662	-3.011500	3.156400	-9.503200	27.834854	0.000267	20.768462
2266.613314	-2.985200	3.158100	-9.425500	27.825731	0.000267	20.755961
2267.609402	-2.990900	3.155000	-9.435400	27.872949	0.000266	20.739471
2268.611740	-3.014600	3.153900	-9.506500	27.873095	0.000265	20.750524
2269.615516	-2.995900	3.154800	-9.450600	27.822653	0.000264	20.739586
2270.610567	-3.014000	3.153500	-9.503500	27.810191	0.000265	20.726570
2271.611610	-2.979900	3.152200	-9.391700	27.738997	0.000263	20.745014
2272.615841	-2.985500	3.153300	-9.412400	27.711662	0.000264	20.738368
2273.612125	-2.999400	3.151700	-9.452200	27.679945	0.000263	20.727314
2274.611310	-3.042800	3.149300	-9.581300	27.699191	0.000262	20.729137
2275.615942	-2.985800	3.150700	-9.405700	27.728282	0.000263	20.729014
2276.611282	-3.011200	3.147900	-9.478500	27.775521	0.000261	20.731508
2277.611561	-3.009400	3.146900	-9.468700	27.784295	0.000262	20.744132
2278.612908	-2.988300	3.149700	-9.411500	27.797470	0.000262	20.730837
2279.615323	-3.004800	3.147400	-9.456300	27.798576	0.000260	20.736692
2280.613315	-2.979000	3.149600	-9.381600	27.818015	0.000260	20.720693
2281.616825	-2.994700	3.146300	-9.421500	27.799640	0.000257	20.735393
2282.616084	-2.973500	3.146600	-9.355400	27.782257	0.000258	20.723113
2283.615322	-2.972700	3.145600	-9.350200	27.789924	0.000256	20.727037
2284.620590	-3.014300	3.143900	-9.475100	27.799169	0.000255	20.740134
2285.623150	-2.992700	3.142500	-9.403700	27.780365	0.000255	20.730218
2286.617487	-3.007900	3.143700	-9.455300	27.832532	0.000256	20.741469
2287.618189	-3.015600	3.142000	-9.474000	27.856333	0.000255	20.723221
2288.618221	-2.992700	3.140800	-9.398500	27.845497	0.000254	20.728437
2289.618762	-3.006100	3.142600	-9.445600	27.816353	0.000254	20.725659
2290.617239	-2.973600	3.140900	-9.339100	27.709611	0.000253	20.736304
2291.618361	-3.014200	3.140000	-9.463500	27.659640	0.000253	20.712096
2292.619197	-2.993800	3.139300	-9.397100	27.689309	0.000256	20.739108
2293.619046	-3.015900	3.138700	-9.465100	27.718093	0.000253	20.718285
2294.620317	-2.988000	3.137000	-9.372400	27.757022	0.000251	20.717632
2295.620308	-2.987500	3.138000	-9.374100	27.762644	0.000251	20.725187
2296.621106	-2.964200	3.137500	-9.297800	27.751685	0.000250	20.739764
2297.619423	-3.002000	3.136200	-9.414100	27.726542	0.000248	20.724892
2298.622526	-3.004600	3.134900	-9.417900	27.696037	0.000250	20.706996
2299.626465	-2.978700	3.135300	-9.338400	27.703244	0.000251	20.720888
2300.620273	-3.009700	3.133500	-9.430300	27.738810	0.000248	20.736764
2301.623306	-3.002200	3.131800	-9.401400	27.801718	0.000250	20.731794
2302.619389	-2.996400	3.133300	-9.387900	27.796958	0.000247	20.730796
2303.620919	-2.993700	3.132100	-9.375700	27.762815	0.000248	20.713030
2304.619903	-3.009500	3.130200	-9.418800	27.768843	0.000246	20.713880
2305.624656	-3.006100	3.131200	-9.410100	27.733700	0.000247	20.715500
2306.627394	-3.015900	3.129400	-9.437000	27.713415	0.000247	20.706465
2307.621269	-3.018100	3.128400	-9.440100	27.724326	0.000247	20.721713
2308.625330	-2.980800	3.128200	-9.323700	27.746642	0.000244	20.710030
2309.625434	-2.987700	3.127800	-9.343200	27.773425	0.000244	20.712328
2310.624660	-2.989300	3.128600	-9.351100	27.778388	0.000244	20.712106
2311.621549	-2.992400	3.126400	-9.352400	27.823269	0.000245	20.695633
2312.622058	-2.991200	3.126100	-9.350200	27.795796	0.000244	20.723937
2313.621163	-3.008700	3.123600	-9.397200	27.809337	0.000243	20.714804
2314.622283	-2.979400	3.123800	-9.304200	27.747958	0.000241	20.723209
2315.624558	-3.007800	3.122300	-9.390300	27.716518	0.000243	20.726185
2316.623998	-2.998300	3.121700	-9.358300	27.726908	0.000243	20.713406
2317.624245	-2.998300	3.122100	-9.360300	27.787843	0.000240	20.725416
2318.626840	-2.980000	3.121700	-9.301900	27.833194	0.000241	20.717003
2319.626353	-3.008600	3.119900	-9.385200	27.852908	0.000241	20.713610
2320.623769	-3.014900	3.120400	-9.406800	27.862826	0.000240	20.707470
2321.628772	-2.999500	3.118100	-9.352000	27.863988	0.000239	20.712907
2322.626064	-2.984900	3.119200	-9.309400	27.874328	0.000239	20.702451
2323.625688	-3.017200	3.117600	-9.405100	27.880851	0.000239	20.718974
2324.628119	-2.995400	3.116200	-9.333500	27.853152	0.000239	20.713856
2325.625941	-3.020000	3.115000	-9.405500	27.806242	0.000239	20.694618
2326.624922	-2.980600	3.116700	-9.287500	27.786698	0.000238	20.689173
2327.627117	-3.009300	3.114400	-9.371200	27.762595	0.000238	20.708541
2328.626920	-2.987600	3.112500	-9.297300	27.815584	0.000240	20.688846
2329.629728	-3.008300	3.111000	-9.357600	27.821838	0.000236	20.707470
2330.629580	-3.015200	3.111100	-9.378600	27.881493	0.000238	20.701126
2331.631268	-3.005800	3.111900	-9.352400	27.902002	0.000234	20.695215
2332.634329	-3.003900	3.110800	-9.343900	27.900686	0.000237	20.704323
2333.626050	-2.992800	3.110600	-9.308600	27.870633	0.000237	20.693041
2334.633934	-2.985400	3.108700	-9.278300	27.814764	0.000235	20.683753
2335.629721	-2.998100	3.108700	-9.319300	27.770793	0.000235	20.710153
2336.629424	-2.993200	3.107100	-9.298500	27.744286	0.000235	20.676363
2337.631221	-3.012200	3.104700	-9.350600	27.688613	0.000234	20.697154
2338.631288	-3.003800	3.105200	-9.325700	27.653248	0.000235	20.709932
2339.629384	-2.994400	3.104600	-9.294300	27.620832	0.000233	20.693434
2340.635395	-2.973600	3.105200	-9.232300	27.596377	0.000234	20.671670
2341.631062	-2.981400	3.103800	-9.253100	27.632190	0.000232	20.705338
2342.630747	-2.999300	3.100600	-9.298100	27.689971	0.000234	20.721755
2343.634731	-3.023700	3.100900	-9.375000	27.736715	0.000231	20.709050
2344.632014	-3.002700	3.100500	-9.308800	27.727819	0.000233	20.705313
2345.631041	-2.996400	3.098600	-9.284200	27.697712	0.000232	20.714372
2346.630551	-3.008400	3.097200	-9.316500	27.721938	0.000232	20.695127
2347.634114	-3.031600	3.096700	-9.386900	27.714521	0.000232	20.706156
2348.630658	-3.017800	3.096800	-9.343100	27.748177	0.000230	20.688340
2349.630873	-3.005300	3.094500	-9.298200	27.801516	0.000231	20.688439
2350.631298	-2.991900	3.095500	-9.259100	27.850709	0.000230	20.697645
2351.630729	-3.008200	3.093300	-9.304200	27.902304	0.000228	20.674181
2352.631505	-2.994900	3.094300	-9.265200	27.864850	0.000230	20.701920
2353.630133	-2.994800	3.092600	-9.260300	27.865809	0.000230	20.686289
2354.630713	-3.003100	3.091400	-9.282400	27.865775	0.000231	20.690048
2355.632399	-2.979200	3.092100	-9.210900	27.836761	0.000229	20.712057
2356.635687	-3.000300	3.089300	-9.267800	27.812132	0.000231	20.665930
2357.642489	-2.999100	3.088600	-9.262100	27.788533	0.000227	20.691969
2358.633645	-3.016400	3.088300	-9.315300	27.844892	0.000229	20.666657
2359.633213	-2.994300	3.086900	-9.241900	27.829969	0.000228	20.695738
2360.639504	-2.965000	3.087100	-9.152400	27.794756	0.000229	20.699180
2361.633445	-2.990800	3.087200	-9.232100	27.771677	0.000228	20.694446
2362.632403	-3.030200	3.083500	-9.342200	27.710871	0.000226	20.693947
2363.632836	-3.008200	3.083400	-9.274700	27.719150	0.000227	20.686156
2364.632814	-3.005900	3.083800	-9.268700	27.698003	0.000226	20.683367
2365.634381	-3.009200	3.082000	-9.274000	27.701975	0.000228	20.702539
2366.633595	-2.995100	3.082100	-9.229800	27.687165	0.000227	20.697593
2367.634584	-2.996500	3.079600	-9.226500	27.677448	0.000227	20.680701
2368.635789	-2.991200	3.080300	-9.213200	27.681940	0.000227	20.715096
2369.636568	-2.988700	3.078000	-9.198600	27.683825	0.000226	20.700871
2370.635507	-2.975300	3.078300	-9.157000	27.701235	0.000227	20.686620
2371.638725	-3.012300	3.076600	-9.265800	27.766062	0.000225	20.698753
2372.636003	-3.004900	3.074600	-9.237400	27.826417	0.000226	20.711131
2373.636235	-3.004500	3.073700	-9.234100	27.908179	0.000224	20.706175
2374.636253	-2.996200	3.073100	-9.206300	27.928509	0.000226	20.704352
2375.636941	-3.032600	3.070000	-9.308400	27.910950	0.000225	20.693790
2376.637007	-2.994400	3.070900	-9.195400	27.938053	0.000224	20.722968
2377.637604	-2.987300	3.071400	-9.174200	27.996068	0.000224	20.696962
2378.634130	-3.033300	3.068600	-9.306900	27.993340	0.000224	20.692318
2379.642710	-3.007700	3.067700	-9.224200	27.960819	0.000224	20.693249
2380.635916	-3.022700	3.067300	-9.270600	27.943787	0.000224	20.686537
2381.636572	-3.000900	3.066400	-9.200000	27.933918	0.000224	20.704106
2382.637522	-3.001400	3.064800	-9.196400	27.870962	0.000222	20.696217
2383.637372	-3.013200	3.063500	-9.229200	27.874365	0.000221	20.674509
2384.636498	-3.002400	3.064100	-9.198800	27.869280	0.000222	20.687411
2385.639190	-2.983900	3.062000	-9.134900	27.869458	0.000223	20.690436
2386.636352	-2.981900	3.062900	-9.131800	27.874933	0.000219	20.688360
2387.637040	-2.992900	3.061200	-9.161100	27.819690	0.000224	20.693927
2388.638574	-3.010200	3.060200	-9.209900	27.786734	0.000221	20.694900
2389.639043	-2.978600	3.058500	-9.108400	27.827106	0.000221	20.708978
2390.639349	-2.983400	3.058700	-9.124800	27.847542	0.000222	20.717219
2391.638113	-2.997700	3.057400	-9.164100	27.856713	0.000221	20.700843
2392.640372	-2.992100	3.055400	-9.141100	27.832459	0.000220	20.714366
2393.636451	-2.980100	3.055600	-9.104500	27.778456	0.000221	20.683249
2394.638830	-3.009000	3.052900	-9.185500	27.824003	0.000221	20.697794
2395.639088	-3.019300	3.051600	-9.212900	27.835440	0.000220	20.701244
2396.640577	-2.992800	3.051900	-9.132800	27.919891	0.000220	20.689986
2397.639540	-3.006000	3.048400	-9.162700	27.964473	0.000219	20.710679
2398.643284	-3.004500	3.047900	-9.156700	27.987408	0.000220	20.695831
2399.639212	-2.990500	3.048400	-9.115200	27.940943	0.000220	20.725403
2400.638368	-3.033300	3.045100	-9.235100	27.932505	0.000219	20.708374
2401.643390	-2.972500	3.046400	-9.054700	27.961915	0.000220	20.736555
2402.643151	-3.019000	3.045000	-9.192000	27.958788	0.000219	20.700214
2403.641704	-2.995100	3.042700	-9.112200	27.924148	0.000220	20.704229
2404.644792	-3.011000	3.042300	-9.157900	27.906546	0.000219	20.692677
2405.643170	-2.971500	3.043200	-9.041600	27.928534	0.000218	20.728560
2406.644611	-2.987700	3.040100	-9.081800	27.979703	0.000219	20.690446
2407.644799	-3.009200	3.038700	-9.142800	28.020556	0.000217	20.693161
2408.644392	-2.986400	3.038300	-9.072400	28.066840	0.000219	20.716519
2409.645207	-3.024400	3.035600	-9.179700	28.143395	0.000218	20.705391
2410.644241	-2.997100	3.034900	-9.094900	28.168162	0.000218	20.716575
2411.644422	-3.008000	3.035600	-9.130100	28.137970	0.000217	20.723639
2412.644024	-2.994200	3.034900	-9.086100	28.109004	0.000217	20.729568
2413.643134	-2.978800	3.032400	-9.031500	28.055503	0.000217	20.723126
2414.647145	-2.974900	3.031600	-9.018200	28.013556	0.000217	20.716937
2415.649910	-3.002600	3.030300	-9.097900	28.011250	0.000215	20.721728
2416.648105	-2.978100	3.029200	-9.019800	28.038692	0.000217	20.727067
2417.651642	-3.010200	3.027300	-9.111400	28.053043	0.000217	20.713062
2418.646982	-3.007200	3.027600	-9.103700	28.071950	0.000216	20.701274
2419.647436	-2.981200	3.026300	-9.020600	28.124135	0.000216	20.721091
2420.651023	-3.000800	3.024200	-9.074100	28.101471	0.000216	20.720087
2421.650718	-2.978700	3.021900	-9.000100	28.141157	0.000217	20.729219
2422.648598	-2.991600	3.020500	-9.035000	28.179981	0.000217	20.712826
2423.649722	-2.993500	3.019700	-9.037200	28.217051	0.000215	20.716957
2424.654478	-2.973900	3.019100	-8.977800	28.232917	0.000215	20.723922
2425.649764	-3.005700	3.018000	-9.069400	28.222758	0.000215	20.717487
2426.653203	-2.997900	3.017300	-9.044800	28.196872	0.000214	20.721298
2427.651592	-2.996400	3.015500	-9.035200	28.229564	0.000215	20.729082
2428.651365	-3.000700	3.013700	-9.042600	28.256928	0.000214	20.723915
2429.651084	-3.018000	3.012100	-9.088300	28.294449	0.000214	20.737511
2430.651513	-3.043700	3.010400	-9.161200	28.316680	0.000214	20.715323
2431.649546	-2.983000	3.011400	-8.981800	28.340689	0.000213	20.716264
2432.651330	-3.012900	3.009900	-9.068000	28.359581	0.000214	20.724382
2433.655153	-3.019500	3.007200	-9.079200	28.408271	0.000218	20.720303
2434.651499	-3.024300	3.006800	-9.092400	28.419401	0.000217	20.729141
2435.651784	-3.017400	3.005500	-9.067600	28.413701	0.000214	20.727195
2436.653574	-3.003000	3.004000	-9.019900	28.382753	0.000212	20.713099
2437.651365	-2.976800	3.002800	-8.937900	28.299995	0.000215	20.725077
2438.651914	-3.018200	3.001200	-9.056700	28.265764	0.000214	20.712421
2439.656374	-2.994100	2.999800	-8.980100	28.256669	0.000216	20.714645
2440.654957	-2.978500	3.000800	-8.936800	28.238498	0.000214	20.739025
2441.656106	-2.996800	2.999000	-8.986700	28.183182	0.000213	20.729327
2442.660162	-3.024700	2.996100	-9.060700	28.181162	0.000216	20.725871
2443.658752	-3.014100	2.994800	-9.026000	28.184166	0.000213	20.726998
2444.657449	-2.993700	2.994100	-8.962800	28.227592	0.000215	20.738003
2445.657142	-3.006800	2.992700	-8.997500	28.235606	0.000215	20.714301
2446.658969	-2.995000	2.992100	-8.960800	28.278559	0.000213	20.730996
2447.659081	-3.013900	2.989800	-9.010000	28.309592	0.000213	20.737111
2448.660779	-3.013200	2.987700	-9.001900	28.334623	0.000215	20.746668
2449.662269	-3.010100	2.985900	-8.986300	28.352469	0.000215	20.738558
2450.666575	-2.984000	2.987300	-8.912800	28.394029	0.000214	20.743897
2451.662844	-3.021200	2.985000	-9.018100	28.412516	0.000213	20.728372
2452.665270	-3.007800	2.983500	-8.972300	28.360847	0.000214	20.732295
2453.664322	-3.001300	2.982400	-8.950800	28.330458	0.000214	20.732516
2454.661632	-2.969200	2.981400	-8.851100	28.284040	0.000214	20.749316
2455.664613	-2.997600	2.978500	-8.927700	28.241265	0.000211	20.721421
2456.662794	-2.994700	2.976800	-8.913700	28.240462	0.000214	20.760444
2457.661214	-2.952900	2.976900	-8.789400	28.256401	0.000213	20.744248
2458.663606	-3.001900	2.975100	-8.930000	28.227997	0.000213	20.751213
2459.661538	-2.997200	2.973800	-8.912200	28.255271	0.000213	20.746430
2460.661987	-2.992100	2.972000	-8.891800	28.286541	0.000212	20.757525
2461.662265	-2.989200	2.971200	-8.880400	28.318044	0.000213	20.748466
2462.660694	-3.010600	2.968800	-8.937100	28.377182	0.000211	20.742106
2463.663325	-2.985400	2.968200	-8.860400	28.403625	0.000210	20.745973
2464.663780	-3.003100	2.966300	-8.906800	28.389903	0.000211	20.727413
2465.661836	-3.000300	2.965000	-8.893400	28.327340	0.000212	20.755456
2466.662442	-3.011200	2.963300	-8.921300	28.300229	0.000213	20.749970
2467.664148	-3.013800	2.961100	-8.922700	28.304841	0.000210	20.746078
2468.674664	-2.985200	2.961100	-8.838500	28.356024	0.000214	20.742137
2469.662882	-3.007200	2.958900	-8.896500	28.380998	0.000211	20.766812
2470.664546	-3.005000	2.957300	-8.885800	28.432729	0.000214	20.749201
2471.667249	-2.999900	2.956400	-8.867800	28.419618	0.000211	20.726988
2472.664473	-3.023400	2.953900	-8.930300	28.419600	0.000210	20.742619
2473.664909	-3.025700	2.952700	-8.932800	28.382150	0.000211	20.747582
2474.666946	-3.014500	2.951300	-8.895400	28.328687	0.000210	20.757286
2475.665109	-2.944400	2.951800	-8.689700	28.323263	0.000211	20.748980
2476.666977	-3.025700	2.948300	-8.919000	28.368574	0.000211	20.734386
2477.667011	-2.998100	2.947200	-8.835500	28.376775	0.000210	20.771094
2478.664207	-2.982500	2.945400	-8.784300	28.363785	0.000213	20.749478
2479.666733	-3.019900	2.943200	-8.887600	28.340767	0.000211	20.747164
2480.668305	-2.941400	2.945700	-8.662300	28.291321	0.000209	20.766605
2481.667209	-2.994600	2.940300	-8.804400	28.224656	0.000212	20.735521
2482.667438	-2.988400	2.940200	-8.785400	28.188612	0.000212	20.747596
2483.673296	-3.014800	2.938200	-8.856700	28.138517	0.000210	20.742208
2484.669669	-2.975400	2.935700	-8.733800	28.140401	0.000211	20.757856
2485.670519	-2.998300	2.935000	-8.799100	28.107455	0.000210	20.741285
2486.671162	-3.006200	2.933600	-8.817800	28.107657	0.000209	20.728686
2487.674035	-2.992700	2.932200	-8.774600	28.150567	0.000211	20.757659
2488.670235	-3.007900	2.930100	-8.812500	28.172345	0.000211	20.763462
2489.670197	-2.994500	2.928000	-8.767100	28.189048	0.000210	20.762261
2490.670549	-3.013300	2.926800	-8.818500	28.219417	0.000212	20.755851
2491.668020	-3.009100	2.924500	-8.799000	28.221821	0.000210	20.778186
2492.669253	-2.983500	2.923500	-8.721400	28.222641	0.000210	20.767632
2493.671051	-2.993400	2.922300	-8.746800	28.240390	0.000210	20.776493
2494.671726	-3.023200	2.919600	-8.824700	28.273234	0.000210	20.763568
2495.669685	-3.024500	2.916600	-8.820600	28.325556	0.000212	20.754608
2496.670280	-2.999700	2.916400	-8.747600	28.378970	0.000209	20.739164
2497.678464	-3.007200	2.914400	-8.763500	28.387024	0.000210	20.792794
2498.673725	-2.989700	2.914400	-8.711900	28.423704	0.000210	20.762873
2499.674942	-2.993200	2.910800	-8.712200	28.448757	0.000210	20.751117
2500.670801	-3.003200	2.909900	-8.738100	28.418556	0.000210	20.765750
2501.673899	-2.998200	2.908400	-8.718800	28.465244	0.000209	20.750650
2502.673390	-2.998600	2.906700	-8.714800	28.507515	0.000210	20.776623
2503.673545	-2.997400	2.905500	-8.707300	28.526226	0.000210	20.775078
2504.672603	-2.995700	2.903600	-8.697300	28.528873	0.000208	20.777270
2505.673720	-2.976600	2.902600	-8.639300	28.539109	0.000209	20.771931
2506.676582	-3.008000	2.900000	-8.722300	28.549921	0.000210	20.784242
2507.673314	-2.985300	2.896300	-8.643800	28.555619	0.000209	20.755841
2508.674757	-2.999600	2.896800	-8.687900	28.537355	0.000210	20.773009
2509.672758	-2.975000	2.896300	-8.614400	28.475229	0.000212	20.764025
2510.677477	-2.992700	2.893400	-8.657500	28.473126	0.000212	20.788934
2511.674826	-3.013000	2.891700	-8.711100	28.483778	0.000210	20.767418
2512.675726	-3.017700	2.888000	-8.713900	28.508642	0.000210	20.781077
2513.676206	-2.985900	2.887900	-8.621700	28.542168	0.000210	20.782598
2514.679971	-3.002100	2.885900	-8.661700	28.571309	0.000210	20.764057
2515.676888	-3.000900	2.883800	-8.653300	28.595881	0.000211	20.779321
2516.679772	-3.005200	2.881000	-8.656700	28.600523	0.000210	20.788738
2517.676740	-2.998400	2.879800	-8.632500	28.647179	0.000211	20.783571
2518.681042	-2.990000	2.878000	-8.604600	28.666805	0.000211	20.772518
2519.682238	-3.004700	2.877300	-8.644100	28.654938	0.000210	20.797076
2520.676480	-2.985600	2.874500	-8.581200	28.676196	0.000209	20.785296
2521.680769	-3.000300	2.874000	-8.621800	28.682242	0.000208	20.790912
2522.676455	-3.002200	2.871200	-8.618800	28.687591	0.000210	20.790610
2523.676998	-2.977000	2.868800	-8.539400	28.698597	0.000211	20.774193
2524.680024	-2.973500	2.866400	-8.522300	28.719756	0.000208	20.774643
2525.678251	-2.995200	2.864500	-8.579200	28.760043	0.000209	20.791042
2526.690907	-2.982500	2.863800	-8.540600	28.794851	0.000209	20.780112
2527.678952	-2.992900	2.860500	-8.559700	28.805409	0.000209	20.779842
2528.681818	-2.995800	2.858200	-8.561800	28.829690	0.000208	20.804775
2529.682274	-3.026700	2.856500	-8.644700	28.853475	0.000209	20.802658
2530.679738	-3.040300	2.853900	-8.675700	28.837479	0.000210	20.795078
2531.682089	-3.019700	2.851700	-8.610400	28.818157	0.000210	20.793157
2532.680440	-2.981200	2.850500	-8.497500	28.779706	0.000210	20.783347
2533.680885	-2.982700	2.848600	-8.496000	28.773228	0.000209	20.787254
2534.680620	-2.985800	2.847600	-8.501000	28.785142	0.000211	20.795936
2535.680562	-3.010800	2.843500	-8.560700	28.814577	0.000209	20.799982
2536.681435	-3.018800	2.841000	-8.575300	28.770233	0.000211	20.797513
2537.680066	-2.982300	2.840100	-8.468800	28.722794	0.000212	20.787187
2538.683353	-2.977000	2.839000	-8.450600	28.720863	0.000211	20.783819
2539.682590	-3.004700	2.834400	-8.515300	28.728402	0.000211	20.774817
2540.681664	-2.996200	2.834700	-8.492600	28.752758	0.000210	20.786548
2541.684452	-3.014600	2.831400	-8.534900	28.712801	0.000210	20.799407
2542.680515	-2.993600	2.829800	-8.470800	28.711609	0.000209	20.810059
2543.681414	-3.038400	2.824200	-8.579600	28.732841	0.000211	20.803945
2544.683558	-2.999400	2.826500	-8.477000	28.767747	0.000210	20.802596
2545.683734	-3.015100	2.823500	-8.512500	28.784352	0.000208	20.808416
2546.683197	-2.979200	2.822900	-8.409100	28.808106	0.000209	20.797732
2547.683856	-3.019500	2.818000	-8.507800	28.837174	0.000209	20.779124
2548.683900	-3.008900	2.816300	-8.473100	28.859994	0.000209	20.785516
2549.682661	-3.008800	2.814200	-8.466000	28.867420	0.000210	20.790627
2550.682167	-3.001700	2.811100	-8.437400	28.849015	0.000209	20.786784
2551.684516	-3.004800	2.809200	-8.440100	28.800419	0.000210	20.787143
2552.683637	-3.013800	2.805600	-8.454400	28.814986	0.000210	20.810826
2553.683182	-2.988500	2.803900	-8.378800	28.825049	0.000208	20.799626
2554.691835	-3.016600	2.802100	-8.450900	28.847171	0.000211	20.801996
2555.684568	-3.022600	2.799800	-8.460800	28.814425	0.000211	20.798407
2556.686714	-3.000200	2.796500	-8.388600	28.793463	0.000210	20.795783
2557.686384	-3.019200	2.793500	-8.433500	28.773847	0.000210	20.814430
2558.685052	-2.969300	2.792900	-8.291400	28.789510	0.000210	20.797491
2559.685530	-2.977200	2.789500	-8.303900	28.789590	0.000208	20.791408
2560.685888	-3.001400	2.786000	-8.360900	28.799297	0.000209	20.819677
2561.685645	-3.021200	2.781900	-8.403000	28.806187	0.000213	20.811445
2562.685592	-3.005800	2.780900	-8.357300	28.795280	0.000210	20.814209
2563.687171	-3.005400	2.779100	-8.350500	28.795263	0.000209	20.818459
2564.691656	-3.003500	2.775200	-8.334000	28.780752	0.000210	20.819962
2565.687259	-2.976800	2.774200	-8.258000	28.760933	0.000210	20.809956
2566.688610	-2.993800	2.769000	-8.288500	28.761996	0.000209	20.822881
2567.690426	-3.010500	2.768400	-8.333400	28.794409	0.000208	20.821866
2568.687140	-3.045600	2.763000	-8.413900	28.816240	0.000211	20.818727
2569.689834	-2.991500	2.761500	-8.260200	28.881762	0.000209	20.815506
2570.687910	-3.041200	2.758200	-8.386200	28.932787	0.000210	20.802900
2571.688121	-3.001800	2.755800	-8.271700	28.942727	0.000211	20.815285
2572.686539	-3.021300	2.753300	-8.316900	28.905392	0.000208	20.822716
2573.692379	-3.008700	2.749600	-8.272200	28.884269	0.000211	20.807126
2574.689829	-3.003300	2.745300	-8.243900	28.878321	0.000208	20.818203
2575.688383	-3.018500	2.743900	-8.281500	28.836350	0.000211	20.830924
2576.687237	-3.012100	2.740900	-8.254700	28.809804	0.000209	20.824571
2577.688697	-3.009900	2.736600	-8.234700	28.796502	0.000209	20.817336
2578.689350	-3.002200	2.733600	-8.206500	28.829670	0.000210	20.826092
2579.691615	-3.005000	2.732300	-8.208700	28.860038	0.000209	20.817329
2580.690281	-2.996200	2.727400	-8.171000	28.901593	0.000207	20.823630
2581.689501	-2.989600	2.724700	-8.145200	28.949396	0.000209	20.846185
2582.690573	-2.984000	2.721200	-8.119500	28.987168	0.000210	20.836825
2583.692213	-2.998100	2.718200	-8.148400	28.994844	0.000209	20.819903
2584.691314	-3.002500	2.714200	-8.148600	29.045750	0.000210	20.840373
2585.689866	-3.002900	2.709800	-8.135800	29.028979	0.000208	20.830113
2586.690386	-3.014700	2.706700	-8.159000	29.004264	0.000212	20.859738
2587.689898	-3.004700	2.702600	-8.119600	29.019348	0.000209	20.816142
2588.689404	-3.008900	2.700300	-8.123800	29.029969	0.000208	20.832059
2589.692458	-2.996300	2.696500	-8.079100	29.022740	0.000211	20.824775
2590.689931	-3.002900	2.692700	-8.084700	29.034829	0.000212	20.842645
2591.688553	-2.988600	2.689600	-8.037200	29.047584	0.000210	20.818987
2592.691257	-3.008800	2.684100	-8.075100	29.014691	0.000211	20.836579
2593.692921	-2.982300	2.682400	-7.998100	28.979224	0.000209	20.833089
2594.692438	-2.982700	2.678000	-7.985600	29.016183	0.000209	20.848040
2595.692366	-3.025400	2.671800	-8.082600	29.038447	0.000209	20.840601
2596.691627	-3.033900	2.668600	-8.095400	29.086398	0.000211	20.826802
2597.691002	-2.981000	2.667500	-7.951200	29.127459	0.000211	20.848735
2598.690509	-3.008700	2.660900	-8.004600	29.177783	0.000210	20.831642
2599.692555	-3.021900	2.656100	-8.025900	29.186748	0.000209	20.852054
2600.690908	-2.987600	2.653600	-7.925200	29.223051	0.000210	20.834585
2601.692980	-3.011300	2.649300	-7.977200	29.232656	0.000211	20.851376
2602.690998	-2.987900	2.645700	-7.903800	29.213892	0.000209	20.850484
2603.690135	-3.007700	2.640200	-7.940400	29.215230	0.000209	20.828600
2604.693192	-3.022200	2.636500	-7.966700	29.183607	0.000209	20.860269
2605.692202	-3.032900	2.629700	-7.974600	29.151214	0.000211	20.835214
2606.691168	-2.999700	2.628700	-7.883900	29.079023	0.000211	20.841181
2607.694310	-3.034000	2.620600	-7.948600	29.045831	0.000210	20.839980
2608.690847	-3.042000	2.615700	-7.955800	29.056142	0.000211	20.835196
2609.691722	-2.995800	2.613000	-7.827200	29.056759	0.000211	20.852887
2610.692417	-2.972700	2.609100	-7.754500	29.074756	0.000208	20.845890
2611.692079	-2.994600	2.603100	-7.793500	29.109756	0.000208	20.845595
2612.691399	-2.983500	2.597600	-7.749300	29.161639	0.000211	20.843822
2613.692712	-3.009100	2.592500	-7.798800	29.138784	0.000211	20.828853
2614.694544	-3.004300	2.587200	-7.772000	29.143417	0.000210	20.858176
2615.696867	-3.010500	2.582300	-7.773500	29.172754	0.000210	20.842220
2616.692081	-3.021300	2.576300	-7.782200	29.215993	0.000210	20.827947
2617.696261	-2.966500	2.571900	-7.627700	29.254704	0.000209	20.841353
2618.694211	-3.007400	2.564700	-7.712400	29.297884	0.000213	20.823230
2619.691911	-2.996900	2.559800	-7.670600	29.285327	0.000211	20.860360
2620.696065	-2.977000	2.555000	-7.605600	29.285408	0.000212	20.850484
2621.694975	-2.984300	2.549400	-7.607200	29.310238	0.000211	20.840422
2622.695881	-3.014000	2.542500	-7.661600	29.327670	0.000211	20.826222
2623.697559	-3.010800	2.536800	-7.637500	29.347681	0.000210	20.829320
2624.698410	-3.003700	2.530100	-7.598700	29.386331	0.000212	20.839825
2625.694536	-2.987200	2.525800	-7.543800	29.404604	0.000210	20.815570
2626.695694	-3.026300	2.518800	-7.622100	29.405416	0.000211	20.829664
2627.699032	-2.986400	2.513200	-7.504400	29.407922	0.000211	20.820336
2628.696561	-2.982700	2.507600	-7.478500	29.407663	0.000211	20.829558
2629.697470	-2.969200	2.502500	-7.429400	29.440171	0.000213	20.820599
2630.700281	-2.979000	2.495200	-7.431700	29.420519	0.000213	20.815963
