LabVIEW Measurement	
Writer_Version	2
Reader_Version	2
Separator	Tab
Decimal_Separator	.
Multi_Headings	No
X_Columns	One
Time_Pref	Absolute
Operator	admin
Description	Clolumns are: time, Current, Voltage, Power, Battery Temp, and Chamber Temp
Date	2024/08/16
Time	13:06:06.104549407958984375
***End_of_Header***	
	
Channels	6						
Samples	1	1	1	1	1	1	
Date	2024/08/26	2024/08/26	2024/08/26	2024/08/26	2024/08/26	2024/08/26	
Time	00:32:50.3207449913024902344	00:32:50.3277192115783691406	00:32:50.3337697982788085937	00:32:50.3046865463256835937	00:32:50.3046865463256835937	00:32:50.3046865463256835937	
X_Dimension	Time	Time	Time	Time	Time	Time	
X0	0.0000000000000000E+0	0.0000000000000000E+0	0.0000000000000000E+0	0.0000000000000000E+0	0.0000000000000000E+0	0.0000000000000000E+0	
Delta_X	1.000000	1.000000	1.000000	1.000000	1.000000	1.000000	
***End_of_Header***							
X_Value	Untitled	Untitled 1	Untitled 2	Untitled 3	Untitled 4	Untitled 5	Comment
0.000000	0.019437	4.107600	0.079737	21.034626	0.000974	20.816065
1.002585	-3.003400	3.949400	-11.860000	21.018390	0.000974	20.802672
1.999876	-3.032700	3.939800	-11.947000	21.026449	0.000976	20.810732
2.999020	-3.012400	3.935000	-11.853000	21.029564	0.000972	20.804364
4.003180	-3.008700	3.932300	-11.829000	21.029252	0.000970	20.818751
5.000902	-3.000800	3.927900	-11.785000	21.026001	0.000975	20.814077
5.999321	-3.000800	3.925500	-11.778000	21.033967	0.000969	20.807820
7.002882	-3.010200	3.924600	-11.812000	21.030986	0.000970	20.800571
8.001321	-3.021900	3.920000	-11.843000	21.025527	0.000969	20.796533
9.002244	-3.024100	3.918300	-11.847000	21.026815	0.000968	20.788339
10.005029	-3.019900	3.917400	-11.829000	21.022040	0.000967	20.808692
11.000113	-2.984100	3.915800	-11.683000	21.034712	0.000967	20.802875
12.004702	-2.996000	3.914300	-11.726000	21.024038	0.000966	20.784138
12.999705	-3.014900	3.913000	-11.796000	21.033748	0.000965	20.806178
14.000372	-3.001500	3.910900	-11.738000	21.048418	0.000964	20.788135
15.005311	-2.983100	3.909500	-11.662000	21.044075	0.000965	20.809396
16.002949	-2.998800	3.908000	-11.718000	21.043178	0.000964	20.796170
17.003329	-3.011800	3.907300	-11.768000	21.059464	0.000961	20.804399
18.002528	-3.003300	3.906900	-11.732000	21.056181	0.000962	20.811547
19.003930	-3.005700	3.904700	-11.736000	21.071366	0.000961	20.791174
20.003401	-2.988100	3.905700	-11.669000	21.068481	0.000960	20.795400
21.004111	-2.992100	3.903100	-11.677000	21.083176	0.000959	20.793504
22.002808	-2.993900	3.902800	-11.684000	21.074128	0.000960	20.803894
23.004019	-3.014700	3.900800	-11.758000	21.073899	0.000960	20.794656
24.003127	-3.004200	3.900700	-11.718000	21.078359	0.000958	20.804333
25.006509	-2.996600	3.899600	-11.685000	21.106995	0.000956	20.787457
26.004268	-2.989600	3.900900	-11.661000	21.110349	0.000957	20.807407
27.004754	-2.978000	3.900300	-11.613000	21.096128	0.000956	20.812622
28.006299	-3.003500	3.898000	-11.707000	21.097244	0.000956	20.797144
29.009210	-3.000300	3.897000	-11.691000	21.110078	0.000955	20.802395
30.005939	-2.987300	3.897400	-11.641000	21.105160	0.000954	20.803639
31.006048	-2.994000	3.896100	-11.662000	21.102764	0.000953	20.810726
32.007471	-3.015400	3.895600	-11.746000	21.113304	0.000953	20.789026
33.006013	-3.013000	3.895600	-11.736000	21.121016	0.000954	20.805749
34.005775	-3.015400	3.893800	-11.740000	21.131944	0.000951	20.787757
35.006533	-3.010400	3.893800	-11.721000	21.133137	0.000952	20.797959
36.006849	-3.007300	3.892800	-11.706000	21.138259	0.000952	20.788383
37.007663	-2.996000	3.893900	-11.665000	21.116260	0.000951	20.802414
38.009575	-2.999700	3.891700	-11.672000	21.167902	0.000951	20.795750
39.007738	-3.006200	3.890400	-11.694000	21.153656	0.000950	20.762534
40.009262	-2.998500	3.891700	-11.668000	21.152285	0.000953	20.778706
41.008765	-3.016100	3.889800	-11.731000	21.182927	0.000951	20.787547
42.009844	-2.999900	3.890400	-11.670000	21.175470	0.000950	20.785777
43.011034	-2.991400	3.890200	-11.636000	21.193431	0.000949	20.784778
44.012571	-2.991500	3.889000	-11.632000	21.192788	0.000949	20.805472
45.011459	-2.997800	3.888600	-11.657000	21.210402	0.000950	20.791324
46.011162	-2.989300	3.889000	-11.624000	21.197732	0.000950	20.799986
47.015182	-2.991500	3.890400	-11.637000	21.207068	0.000947	20.780877
48.013425	-3.004400	3.887700	-11.680000	21.209133	0.000948	20.763027
49.012981	-2.996600	3.887900	-11.649000	21.214127	0.000948	20.783671
50.013057	-3.008300	3.887800	-11.695000	21.203531	0.000947	20.787295
51.011455	-3.005100	3.887300	-11.681000	21.222067	0.000947	20.806787
52.015173	-2.997100	3.887100	-11.648000	21.243574	0.000946	20.792740
53.016265	-3.001700	3.886900	-11.666000	21.242677	0.000947	20.796584
54.014772	-3.005200	3.885400	-11.674000	21.244726	0.000946	20.784409
55.016115	-3.026500	3.883400	-11.751000	21.260729	0.000944	20.802316
56.016193	-3.013600	3.884700	-11.706000	21.250566	0.000946	20.791674
57.015887	-2.987600	3.884300	-11.604000	21.277980	0.000946	20.791598
58.014923	-3.004800	3.883000	-11.667000	21.282592	0.000946	20.799531
59.016381	-3.023600	3.881200	-11.734000	21.280105	0.000945	20.789456
60.018176	-3.012300	3.883500	-11.696000	21.298732	0.000943	20.792444
61.019769	-3.022300	3.881700	-11.730000	21.297014	0.000947	20.805899
62.019450	-2.993900	3.883600	-11.626000	21.286909	0.000944	20.801005
63.021658	-2.996800	3.882400	-11.633000	21.297014	0.000944	20.770337
64.020300	-2.992600	3.882100	-11.615000	21.298318	0.000946	20.810048
65.022652	-2.992000	3.882800	-11.617000	21.320492	0.000943	20.770592
66.021337	-2.993800	3.882400	-11.622000	21.323886	0.000944	20.780151
67.021145	-2.997900	3.882500	-11.638000	21.323463	0.000944	20.787789
68.021844	-2.982900	3.882200	-11.580000	21.321694	0.000944	20.795503
69.021393	-2.989300	3.881300	-11.601000	21.344571	0.000945	20.798001
70.021733	-3.012400	3.880500	-11.689000	21.341651	0.000943	20.782277
71.025960	-2.977100	3.882500	-11.557000	21.336167	0.000942	20.800025
72.027699	-2.999000	3.880900	-11.638000	21.349294	0.000944	20.788028
73.022512	-3.009300	3.880100	-11.675000	21.357809	0.000942	20.793227
74.023686	-3.017600	3.878800	-11.703000	21.365153	0.000943	20.800101
75.027040	-3.002800	3.879700	-11.649000	21.353788	0.000941	20.783989
76.025574	-2.999300	3.879200	-11.633000	21.392201	0.000942	20.786860
77.026292	-3.012500	3.877300	-11.680000	21.387793	0.000942	20.788613
78.026361	-2.999700	3.878600	-11.634000	21.399396	0.000942	20.794532
79.025828	-2.991200	3.878800	-11.601000	21.403162	0.000942	20.798774
80.026696	-3.024700	3.876200	-11.723000	21.406132	0.000941	20.801272
81.031019	-3.005200	3.877700	-11.652000	21.402596	0.000941	20.803898
82.024454	-2.992500	3.877200	-11.602000	21.399100	0.000943	20.794711
83.028017	-2.984700	3.877800	-11.574000	21.403798	0.000942	20.777125
84.028998	-2.982600	3.877600	-11.564000	21.403019	0.000942	20.786777
85.028476	-3.001500	3.877800	-11.638000	21.435024	0.000942	20.780868
86.031515	-2.998000	3.877100	-11.622000	21.416348	0.000941	20.807226
87.029996	-2.988600	3.876500	-11.585000	21.434738	0.000939	20.791961
88.030015	-3.004000	3.875400	-11.641000	21.473648	0.000942	20.784426
89.030349	-3.010300	3.875400	-11.665000	21.452247	0.000942	20.796203
90.031969	-2.997000	3.875200	-11.612000	21.459915	0.000941	20.784910
91.028830	-3.010400	3.873300	-11.658000	21.453423	0.000941	20.781734
92.031449	-2.995500	3.874300	-11.604000	21.475553	0.000940	20.790125
93.032922	-2.992000	3.875300	-11.594000	21.479945	0.000941	20.811589
94.031881	-3.007200	3.873300	-11.647000	21.484016	0.000942	20.793852
95.031898	-2.993100	3.873600	-11.593000	21.488796	0.000940	20.796738
96.030086	-2.994200	3.874600	-11.601000	21.501946	0.000941	20.794250
97.031905	-2.983300	3.875100	-11.558000	21.509757	0.000941	20.799220
98.031108	-3.004100	3.872700	-11.632000	21.498054	0.000941	20.804579
99.031447	-2.986600	3.873800	-11.569000	21.515097	0.000940	20.791287
100.032671	-2.988300	3.872500	-11.571000	21.529262	0.000941	20.786495
101.033070	-3.011400	3.871600	-11.659000	21.529313	0.000942	20.812150
102.032423	-3.016900	3.870900	-11.676000	21.519066	0.000940	20.819440
103.032081	-3.000300	3.871600	-11.615000	21.544934	0.000940	20.814505
104.032382	-2.977000	3.873400	-11.530000	21.567036	0.000941	20.783516
105.031763	-2.979600	3.872900	-11.539000	21.579187	0.000940	20.824125
106.032332	-3.008000	3.871600	-11.645000	21.575820	0.000941	20.793254
107.031088	-3.005900	3.872000	-11.637000	21.580278	0.000940	20.802457
108.031377	-3.005200	3.870100	-11.628000	21.599190	0.000942	20.820433
109.033477	-3.002700	3.870300	-11.620000	21.582148	0.000941	20.832777
110.033962	-3.010500	3.869900	-11.648000	21.592928	0.000941	20.820806
111.034572	-2.994600	3.871100	-11.591000	21.583798	0.000942	20.808350
112.034234	-2.995000	3.869800	-11.589000	21.622019	0.000943	20.831425
113.033727	-3.003800	3.869500	-11.623000	21.593479	0.000940	20.814718
114.033477	-2.986300	3.870700	-11.558000	21.585424	0.000942	20.813296
115.036135	-3.006700	3.870400	-11.636000	21.612661	0.000940	20.811628
116.033435	-3.007800	3.867800	-11.633000	21.613990	0.000941	20.813433
117.033708	-3.003700	3.869600	-11.622000	21.617593	0.000943	20.824624
118.035159	-2.997400	3.868900	-11.595000	21.633213	0.000944	20.830772
119.034903	-3.000700	3.868600	-11.607000	21.634160	0.000942	20.811332
120.034817	-3.006200	3.869300	-11.631000	21.640641	0.000942	20.840102
121.035442	-3.004400	3.868500	-11.621000	21.660169	0.000943	20.825980
122.034292	-3.006900	3.867600	-11.629000	21.665187	0.000943	20.840010
123.035165	-3.005700	3.868200	-11.625000	21.648324	0.000944	20.823135
124.035440	-2.972800	3.869100	-11.501000	21.673165	0.000943	20.820020
125.035699	-3.004000	3.867300	-11.617000	21.693074	0.000943	20.821926
126.038024	-3.006200	3.868300	-11.627000	21.666776	0.000943	20.810782
127.035184	-3.017900	3.866400	-11.666000	21.677047	0.000945	20.821534
128.036324	-2.977300	3.867900	-11.514000	21.676777	0.000943	20.829798
129.035161	-2.987400	3.867100	-11.551000	21.687801	0.000943	20.799580
130.036969	-3.010100	3.866700	-11.638000	21.659501	0.000944	20.816777
131.037251	-3.011400	3.864300	-11.636000	21.706355	0.000944	20.825261
132.035713	-3.013900	3.866700	-11.653000	21.696635	0.000944	20.827386
133.037466	-3.004400	3.865000	-11.611000	21.712565	0.000943	20.806346
134.037460	-3.007200	3.865300	-11.623000	21.749351	0.000944	20.809496
135.037620	-2.997200	3.864600	-11.581000	21.740772	0.000944	20.837420
136.038060	-2.999100	3.865200	-11.591000	21.755755	0.000944	20.812112
137.037692	-3.017500	3.864600	-11.660000	21.768266	0.000946	20.802349
138.038270	-3.007900	3.866200	-11.628000	21.776565	0.000945	20.820137
139.038339	-3.000400	3.864700	-11.595000	21.758607	0.000944	20.818286
140.037295	-3.024900	3.863500	-11.686000	21.775983	0.000945	20.816236
141.037454	-3.036600	3.864000	-11.732000	21.791083	0.000948	20.812857
142.039549	-2.970200	3.865200	-11.479000	21.770594	0.000945	20.805153
143.039374	-2.985000	3.863200	-11.530000	21.803435	0.000947	20.808150
144.038599	-2.995600	3.863300	-11.571000	21.791286	0.000944	20.845776
145.039972	-2.985500	3.864700	-11.538000	21.820311	0.000945	20.831679
146.040803	-2.983600	3.864500	-11.529000	21.854741	0.000948	20.838164
147.038937	-2.999100	3.863700	-11.586000	21.835328	0.000948	20.839122
148.040732	-3.005300	3.863100	-11.609000	21.841833	0.000946	20.828564
149.042972	-3.008700	3.862700	-11.621000	21.840927	0.000947	20.854683
150.039422	-3.012600	3.862300	-11.635000	21.856569	0.000946	20.830511
151.040940	-2.984200	3.863500	-11.529000	21.840361	0.000948	20.828987
152.042535	-2.999600	3.861500	-11.581000	21.843550	0.000947	20.833127
153.040208	-3.011700	3.862500	-11.632000	21.849819	0.000948	20.829920
154.039171	-2.988500	3.861900	-11.539000	21.865020	0.000946	20.848452
155.047536	-3.007900	3.861800	-11.614000	21.879215	0.000950	20.834212
156.041160	-2.996200	3.861300	-11.568000	21.878115	0.000948	20.825999
157.041314	-2.996600	3.862400	-11.574000	21.871178	0.000949	20.838970
158.042576	-2.984000	3.863100	-11.526000	21.884671	0.000950	20.839673
159.039858	-2.999100	3.860700	-11.578000	21.898459	0.000950	20.841620
160.039399	-3.003700	3.861500	-11.598000	21.905936	0.000948	20.824449
161.043126	-2.998400	3.860600	-11.575000	21.890406	0.000949	20.849206
162.040638	-2.994200	3.859100	-11.553000	21.902875	0.000950	20.845566
163.042750	-2.998300	3.860200	-11.573000	21.924334	0.000951	20.841916
164.043134	-2.971700	3.862000	-11.475000	21.915048	0.000951	20.835940
165.042412	-3.009500	3.859000	-11.612000	21.915064	0.000949	20.859189
166.043719	-3.010500	3.858400	-11.614000	21.940052	0.000952	20.836787
167.045722	-3.005300	3.860300	-11.599000	21.945211	0.000951	20.848115
168.042425	-2.990600	3.860100	-11.543000	21.956681	0.000953	20.856751
169.042857	-2.989100	3.860300	-11.537000	21.956732	0.000951	20.842104
170.044510	-3.020500	3.857500	-11.651000	21.961622	0.000952	20.846524
171.044899	-3.011100	3.858000	-11.616000	21.949484	0.000953	20.843858
172.044190	-3.008400	3.857700	-11.605000	21.981516	0.000953	20.819024
173.044826	-3.004100	3.858500	-11.589000	21.966664	0.000953	20.851571
174.043568	-3.008000	3.857400	-11.601000	21.981770	0.000952	20.845356
175.046572	-2.985800	3.858700	-11.521000	22.008988	0.000953	20.836567
176.045437	-2.986400	3.859800	-11.527000	22.020957	0.000954	20.856134
177.045518	-2.971000	3.859000	-11.464000	21.995287	0.000956	20.867421
178.044058	-2.996300	3.857100	-11.555000	21.986160	0.000956	20.851647
179.044250	-2.989400	3.857900	-11.532000	21.986110	0.000957	20.844959
180.045231	-2.993200	3.856800	-11.543000	22.002968	0.000954	20.852825
181.045958	-2.978000	3.857600	-11.487000	22.001664	0.000954	20.856261
182.046431	-3.007400	3.856900	-11.597000	21.999830	0.000955	20.861538
183.046319	-2.999000	3.857400	-11.567000	22.019393	0.000956	20.846034
184.044850	-2.998900	3.856200	-11.563000	22.013363	0.000956	20.829093
185.044824	-3.025700	3.854200	-11.661000	22.034060	0.000957	20.849337
186.047050	-3.007200	3.855900	-11.593000	22.024806	0.000957	20.865203
187.046859	-3.001300	3.856100	-11.571000	22.057564	0.000958	20.856271
188.048298	-2.980900	3.856800	-11.496000	22.057345	0.000959	20.876913
189.048041	-2.987300	3.855400	-11.516000	22.057294	0.000957	20.859320
190.049176	-2.991900	3.855300	-11.533000	22.056474	0.000958	20.862766
191.050567	-2.995400	3.855800	-11.549000	22.073718	0.000958	20.861063
192.049486	-3.020400	3.852300	-11.635000	22.061506	0.000960	20.856424
193.049951	-3.010300	3.854100	-11.600000	22.076687	0.000960	20.856924
194.050972	-3.001800	3.854900	-11.571000	22.093111	0.000960	20.862460
195.051677	-3.008400	3.852600	-11.589000	22.113502	0.000961	20.868175
196.049740	-3.018600	3.852500	-11.628000	22.109892	0.000960	20.859345
197.051814	-3.019200	3.853200	-11.633000	22.148263	0.000962	20.861251
198.052310	-2.963500	3.855000	-11.422000	22.146028	0.000963	20.882720
199.051465	-3.014300	3.852700	-11.612000	22.136388	0.000962	20.879707
200.052120	-2.972800	3.853200	-11.454000	22.150774	0.000964	20.883678
201.052148	-3.001400	3.853500	-11.564000	22.160017	0.000962	20.867803
202.050188	-3.021300	3.851100	-11.634000	22.163882	0.000963	20.872147
203.051311	-2.988800	3.853300	-11.516000	22.177565	0.000964	20.882526
204.051783	-2.988600	3.853700	-11.516000	22.171577	0.000965	20.882221
205.051661	-3.014100	3.851300	-11.607000	22.176593	0.000965	20.873018
206.049894	-2.984800	3.852400	-11.497000	22.207019	0.000962	20.870765
207.053953	-3.012100	3.850900	-11.598000	22.197878	0.000964	20.865881
208.054187	-3.028900	3.850300	-11.660000	22.216297	0.000964	20.876261
209.054124	-3.003400	3.850300	-11.563000	22.209565	0.000966	20.869521
210.054237	-3.015400	3.850600	-11.610000	22.221827	0.000966	20.878479
211.054815	-3.000100	3.849900	-11.549000	22.245108	0.000967	20.897994
212.055769	-3.017300	3.849800	-11.615000	22.229811	0.000965	20.890265
213.053871	-3.017600	3.849100	-11.614000	22.249802	0.000966	20.886100
214.055104	-2.983100	3.850500	-11.485000	22.235713	0.000968	20.878631
215.055918	-3.011100	3.849300	-11.590000	22.237877	0.000968	20.888384
216.054540	-3.002600	3.850200	-11.560000	22.257058	0.000969	20.873451
217.052857	-2.999000	3.849200	-11.543000	22.272650	0.000971	20.872942
218.057153	-3.002200	3.850600	-11.559000	22.274223	0.000967	20.890637
219.055154	-2.996500	3.849300	-11.534000	22.269065	0.000968	20.896852
220.058177	-3.002500	3.850000	-11.559000	22.260439	0.000971	20.874466
221.060308	-3.015300	3.847900	-11.601000	22.252872	0.000970	20.887751
222.057372	-2.996300	3.848500	-11.531000	22.273861	0.000972	20.890275
223.058369	-3.024300	3.847000	-11.633000	22.245153	0.000973	20.885238
224.057348	-2.984700	3.849000	-11.487000	22.283128	0.000971	20.901924
225.058352	-2.995800	3.849000	-11.530000	22.289284	0.000971	20.888174
226.059309	-2.991700	3.849200	-11.515000	22.301520	0.000972	20.892839
227.063816	-3.009800	3.847400	-11.579000	22.305512	0.000972	20.904422
228.059633	-2.994200	3.848400	-11.521000	22.300894	0.000974	20.920659
229.059268	-2.987700	3.847200	-11.492000	22.299982	0.000973	20.885136
230.064364	-2.976200	3.847800	-11.451000	22.319514	0.000976	20.888572
231.061501	-2.999700	3.846600	-11.538000	22.343022	0.000976	20.902153
232.061361	-2.984300	3.846500	-11.478000	22.347293	0.000974	20.892206
233.062668	-2.981000	3.847600	-11.469000	22.355629	0.000976	20.896759
234.060761	-3.000500	3.846000	-11.539000	22.358225	0.000978	20.903152
235.064578	-3.017100	3.845700	-11.602000	22.361870	0.000977	20.904431
236.062578	-3.002100	3.846800	-11.547000	22.369472	0.000977	20.891656
237.062317	-3.004200	3.846000	-11.553000	22.360195	0.000977	20.898961
238.064386	-3.002300	3.846400	-11.547000	22.356519	0.000975	20.918986
239.062113	-3.006600	3.846200	-11.562000	22.366005	0.000978	20.901933
240.061971	-2.981300	3.846100	-11.465000	22.349238	0.000979	20.880404
241.063100	-3.002900	3.844400	-11.543000	22.338770	0.000980	20.903585
242.063855	-3.001300	3.843600	-11.535000	22.341738	0.000979	20.890437
243.063969	-2.994000	3.843600	-11.507000	22.348841	0.000979	20.899919
244.065031	-2.988600	3.844500	-11.488000	22.345027	0.000981	20.894679
245.064861	-2.989900	3.843200	-11.490000	22.355302	0.000981	20.901173
246.063230	-2.981400	3.844000	-11.459000	22.357990	0.000979	20.919037
247.066070	-3.008000	3.842700	-11.556000	22.377770	0.000982	20.916084
248.066325	-3.035800	3.843000	-11.665000	22.398263	0.000981	20.903891
249.068562	-3.009400	3.843500	-11.566000	22.407590	0.000982	20.897584
250.066377	-3.013500	3.841600	-11.575000	22.426234	0.000983	20.912934
251.066813	-3.014000	3.842100	-11.579000	22.437521	0.000986	20.921865
252.067674	-3.009300	3.843300	-11.564000	22.434080	0.000984	20.920790
253.068260	-3.005600	3.843700	-11.551000	22.446339	0.000983	20.925480
254.068824	-2.985800	3.844100	-11.476000	22.431274	0.000986	20.936945
255.067807	-3.026400	3.840100	-11.619000	22.444226	0.000985	20.911037
256.067249	-3.000200	3.842500	-11.527000	22.438249	0.000985	20.930654
257.068336	-3.003800	3.841500	-11.538000	22.444429	0.000986	20.905078
258.071054	-2.992800	3.840700	-11.494000	22.455752	0.000986	20.933009
259.070171	-2.986800	3.843300	-11.478000	22.475373	0.000987	20.909513
260.071205	-3.004000	3.840200	-11.534000	22.496434	0.000988	20.941507
261.070682	-2.994300	3.840200	-11.497000	22.517672	0.000988	20.927692
262.072501	-2.995000	3.842000	-11.505000	22.509563	0.000989	20.900607
263.074401	-3.011900	3.841800	-11.570000	22.522963	0.000988	20.922085
264.071867	-2.994900	3.841400	-11.504000	22.545147	0.000991	20.911588
265.072647	-2.992300	3.841200	-11.493000	22.543432	0.000989	20.918404
266.076302	-2.995000	3.841100	-11.503000	22.558006	0.000990	20.932525
267.074659	-2.993700	3.841100	-11.499000	22.574948	0.000990	20.931475
268.073840	-2.994800	3.840500	-11.500000	22.611874	0.000993	20.931475
269.077092	-3.012900	3.838600	-11.564000	22.579529	0.000991	20.934641
270.074244	-3.004600	3.839200	-11.534000	22.583841	0.000993	20.934692
271.074993	-3.014100	3.838200	-11.567000	22.588575	0.000993	20.920943
272.076567	-2.985900	3.839200	-11.462000	22.586259	0.000992	20.929053
273.074953	-2.994600	3.839200	-11.496000	22.602447	0.000994	20.928197
274.077277	-2.993600	3.838800	-11.490000	22.607959	0.000994	20.939407
275.074309	-3.004400	3.836900	-11.527000	22.618695	0.000997	20.936410
276.074225	-2.951900	3.838900	-11.332000	22.644080	0.000995	20.913949
277.073700	-3.003800	3.837600	-11.527000	22.618670	0.000995	20.926902
278.077233	-2.986600	3.838000	-11.462000	22.612862	0.000993	20.938153
279.074897	-3.011100	3.837000	-11.552000	22.607670	0.000997	20.936747
280.081766	-2.999200	3.836600	-11.506000	22.622355	0.000996	20.949557
281.077819	-2.994000	3.837800	-11.488000	22.611187	0.000999	20.933632
282.077774	-2.980800	3.836800	-11.436000	22.608626	0.000998	20.939127
283.078242	-2.995200	3.836700	-11.489000	22.652398	0.000999	20.926072
284.080160	-2.985200	3.836900	-11.453000	22.663209	0.001002	20.938322
285.076552	-2.997900	3.837400	-11.503000	22.669465	0.001001	20.952172
286.081882	-3.014000	3.835000	-11.557000	22.649516	0.001002	20.945943
287.078586	-2.998800	3.836400	-11.504000	22.656109	0.001000	20.945907
288.076696	-2.994200	3.835600	-11.484000	22.656709	0.001003	20.941768
289.079430	-3.005500	3.834300	-11.523000	22.663092	0.001003	20.940575
290.082713	-3.026700	3.834900	-11.605000	22.664801	0.001004	20.940390
291.081534	-3.004300	3.834300	-11.518000	22.683025	0.001003	20.932092
292.082548	-2.985900	3.836000	-11.453000	22.711630	0.001004	20.938459
293.082379	-3.000000	3.835000	-11.504000	22.685916	0.001003	20.946840
294.081655	-3.007900	3.834800	-11.534000	22.685579	0.001006	20.936547
295.081658	-2.999100	3.834500	-11.499000	22.696829	0.001006	20.954925
296.084849	-3.005200	3.834000	-11.520000	22.702636	0.001006	20.930873
297.083205	-2.999800	3.833300	-11.496000	22.690033	0.001006	20.919673
298.083598	-3.011800	3.832800	-11.542000	22.697210	0.001005	20.935869
299.085519	-3.006500	3.832900	-11.522000	22.718486	0.001006	20.939636
300.084700	-2.984100	3.834000	-11.440000	22.734361	0.001006	20.943684
301.084109	-2.995000	3.834000	-11.481000	22.738020	0.001007	20.924118
302.085456	-3.006800	3.831500	-11.519000	22.717514	0.001008	20.927758
303.089332	-3.032800	3.830800	-11.617000	22.740514	0.001009	20.941313
304.084257	-3.022700	3.831000	-11.579000	22.736727	0.001009	20.932779
305.087488	-3.000900	3.831200	-11.496000	22.735139	0.001010	20.913173
306.088354	-3.013800	3.831500	-11.546000	22.727708	0.001009	20.902411
307.085076	-3.016100	3.831100	-11.554000	22.725504	0.001010	20.946191
308.089140	-3.004400	3.830300	-11.506000	22.711303	0.001012	20.934813
309.090428	-3.002500	3.831300	-11.502000	22.706020	0.001011	20.923358
310.088192	-3.001400	3.829300	-11.492000	22.703281	0.001011	20.932942
311.087739	-3.000500	3.829600	-11.489000	22.744778	0.001012	20.931835
312.091815	-3.014000	3.830100	-11.543000	22.736366	0.001012	20.924357
313.089533	-3.013500	3.828900	-11.537000	22.740956	0.001013	20.908095
314.088783	-3.007200	3.831200	-11.519000	22.774421	0.001013	20.914589
315.091356	-3.003200	3.830300	-11.502000	22.794183	0.001013	20.918739
316.092208	-2.995800	3.830200	-11.474000	22.771006	0.001014	20.919702
317.089947	-3.000200	3.830400	-11.492000	22.770558	0.001015	20.895074
318.091787	-3.011900	3.828000	-11.528000	22.791190	0.001016	20.922853
319.088659	-3.019700	3.827700	-11.557000	22.754693	0.001017	20.946507
320.089236	-2.994100	3.828600	-11.461000	22.776197	0.001016	20.916368
321.093277	-3.011300	3.826500	-11.521000	22.770964	0.001015	20.911127
322.089480	-3.012800	3.828700	-11.533000	22.772817	0.001015	20.918672
323.089700	-3.007900	3.827300	-11.511000	22.774548	0.001017	20.901916
324.093000	-2.996800	3.827800	-11.470000	22.797506	0.001016	20.913059
325.090480	-2.988200	3.827300	-11.436000	22.827620	0.001018	20.903873
326.090365	-3.005700	3.827100	-11.502000	22.819498	0.001019	20.917545
327.094339	-2.999500	3.826900	-11.478000	22.791210	0.001019	20.899167
328.090079	-2.991100	3.826600	-11.444000	22.805543	0.001019	20.912575
329.090933	-2.994900	3.826300	-11.458000	22.808535	0.001019	20.893289
330.097584	-2.986500	3.825800	-11.424000	22.800702	0.001021	20.894925
331.092509	-3.008800	3.826800	-11.513000	22.786054	0.001020	20.914389
332.092967	-3.001200	3.827000	-11.482000	22.797363	0.001020	20.924769
333.094535	-3.006900	3.826500	-11.505000	22.810194	0.001020	20.899218
334.094614	-2.984000	3.825500	-11.414000	22.815257	0.001022	20.890541
335.095975	-3.005000	3.824000	-11.491000	22.842751	0.001023	20.889634
336.098949	-3.007100	3.824700	-11.500000	22.855667	0.001022	20.913950
337.094141	-3.010500	3.823400	-11.509000	22.850740	0.001024	20.907593
338.095216	-2.955200	3.825700	-11.303000	22.875377	0.001023	20.890076
339.098095	-2.998000	3.824700	-11.466000	22.896573	0.001024	20.889500
340.094245	-3.019100	3.823200	-11.541000	22.931713	0.001025	20.889144
341.094760	-3.004900	3.822700	-11.484000	22.922165	0.001024	20.895225
342.098042	-2.995600	3.823900	-11.454000	22.951228	0.001026	20.908220
343.096723	-2.976300	3.823700	-11.378000	22.926974	0.001025	20.890560
344.096007	-2.966000	3.825400	-11.345000	22.952556	0.001028	20.901016
345.100819	-3.012000	3.822300	-11.511000	22.951034	0.001026	20.895699
346.098470	-3.000100	3.821400	-11.464000	22.937513	0.001028	20.894481
347.097029	-3.015800	3.822300	-11.525000	22.938933	0.001027	20.889265
348.104094	-3.005800	3.822700	-11.488000	22.936795	0.001029	20.887598
349.096703	-2.994200	3.822400	-11.444000	22.926139	0.001030	20.906318
350.099527	-3.000000	3.823000	-11.468000	22.930602	0.001029	20.887083
351.105263	-2.989800	3.821600	-11.425000	22.927660	0.001031	20.888877
352.100808	-3.004500	3.821600	-11.481000	22.942652	0.001028	20.881613
353.100092	-3.003500	3.821600	-11.477000	22.961888	0.001031	20.898512
354.104825	-3.003800	3.821200	-11.476000	22.947166	0.001032	20.879497
355.106885	-3.013300	3.821600	-11.514000	22.982482	0.001032	20.888327
356.104475	-3.003900	3.820200	-11.475000	22.965455	0.001031	20.898293
357.101529	-3.005400	3.819700	-11.479000	22.959868	0.001032	20.889851
358.100860	-2.995200	3.819900	-11.441000	22.960046	0.001033	20.872013
359.099366	-3.009400	3.819900	-11.495000	22.934464	0.001034	20.873884
360.103004	-3.000700	3.819900	-11.461000	22.924983	0.001032	20.877187
361.102381	-3.024800	3.818300	-11.549000	22.944768	0.001034	20.875673
362.102090	-3.031700	3.820100	-11.579000	22.949923	0.001033	20.885578
363.105841	-2.984800	3.818700	-11.396000	22.938194	0.001035	20.894214
364.104480	-3.003800	3.818200	-11.467000	22.910067	0.001035	20.891640
365.101505	-2.987400	3.820100	-11.410000	22.924754	0.001035	20.857993
366.106994	-2.985500	3.819600	-11.402000	22.925965	0.001036	20.888127
367.105799	-3.028100	3.817000	-11.557000	22.932759	0.001035	20.867908
368.101078	-2.979800	3.817600	-11.375000	22.935379	0.001038	20.870059
369.108676	-2.980000	3.818300	-11.377000	22.949282	0.001039	20.887780
370.102703	-3.004700	3.816900	-11.468000	22.960141	0.001039	20.875902
371.105252	-3.004800	3.816800	-11.468000	22.967586	0.001037	20.873404
372.105734	-3.006900	3.815700	-11.471000	22.986297	0.001040	20.871288
373.104334	-2.990400	3.817700	-11.415000	23.020488	0.001038	20.875673
374.104997	-3.005500	3.815900	-11.466000	23.007568	0.001038	20.863676
375.111426	-2.995500	3.815100	-11.427000	23.036679	0.001040	20.860602
376.103698	-2.986300	3.815700	-11.394000	23.004067	0.001039	20.882927
377.104207	-3.009100	3.813800	-11.475000	23.019668	0.001040	20.892394
378.108037	-3.007600	3.814900	-11.472000	23.010534	0.001041	20.869019
379.105983	-2.993000	3.814400	-11.416000	23.023327	0.001043	20.877095
380.104200	-3.004100	3.815400	-11.461000	23.038226	0.001043	20.880643
381.110871	-3.001800	3.813800	-11.446000	23.064665	0.001042	20.878212
382.105785	-3.029100	3.814100	-11.552000	23.064777	0.001042	20.873582
383.105458	-2.990000	3.813600	-11.401000	23.064370	0.001042	20.869856
384.106189	-3.012000	3.813000	-11.484000	23.071967	0.001044	20.890268
385.107555	-2.983600	3.812800	-11.375000	23.067591	0.001047	20.863126
386.107666	-2.991000	3.811900	-11.401000	23.074806	0.001043	20.863718
387.108072	-2.980600	3.813000	-11.364000	23.069163	0.001045	20.861382
388.108812	-2.997200	3.812200	-11.425000	23.092772	0.001045	20.861331
389.109597	-3.016100	3.812300	-11.497000	23.104500	0.001045	20.879246
390.109305	-2.999700	3.811300	-11.431000	23.111674	0.001046	20.874581
391.109865	-3.002400	3.811800	-11.443000	23.130307	0.001048	20.854372
392.108116	-3.019500	3.811400	-11.507000	23.103773	0.001045	20.871880
393.109067	-2.999300	3.812900	-11.435000	23.096084	0.001047	20.860857
394.111795	-2.973600	3.812700	-11.337000	23.090371	0.001047	20.855132
395.111794	-2.996000	3.811000	-11.417000	23.112957	0.001047	20.871125
396.111836	-2.992200	3.812400	-11.406000	23.106653	0.001047	20.842525
397.113740	-2.986600	3.810900	-11.380000	23.097866	0.001049	20.855056
398.112993	-3.001700	3.810000	-11.435000	23.081075	0.001049	20.860990
399.113457	-2.995800	3.809600	-11.412000	23.075422	0.001047	20.860068
400.112542	-3.006200	3.810400	-11.453000	23.103392	0.001048	20.862489
401.111321	-3.004400	3.809200	-11.444000	23.104150	0.001050	20.863249
402.114136	-2.996500	3.810200	-11.416000	23.099774	0.001051	20.864080
403.114855	-3.002600	3.808900	-11.434000	23.102807	0.001049	20.860481
404.116201	-3.006400	3.808200	-11.448000	23.111848	0.001051	20.863377
405.113121	-2.984900	3.809100	-11.368000	23.114932	0.001051	20.865992
406.114528	-2.981500	3.808500	-11.355000	23.130954	0.001053	20.873512
407.114195	-2.976700	3.809100	-11.337000	23.146019	0.001052	20.878176
408.117983	-2.985000	3.807500	-11.364000	23.158246	0.001055	20.840170
409.115015	-3.001400	3.807000	-11.426000	23.141033	0.001051	20.836672
410.112862	-2.996100	3.806900	-11.405000	23.128445	0.001052	20.850136
411.113652	-2.996800	3.807800	-11.410000	23.153234	0.001055	20.856484
412.116540	-2.993400	3.807200	-11.396000	23.129229	0.001054	20.843336
413.114463	-2.995500	3.806800	-11.402000	23.126584	0.001052	20.850168
414.115705	-3.008400	3.806100	-11.449000	23.136378	0.001055	20.846232
415.116741	-3.011900	3.805400	-11.460000	23.136851	0.001056	20.837223
416.115532	-2.999300	3.805100	-11.412000	23.115700	0.001056	20.844004
417.117537	-3.017700	3.804600	-11.479000	23.109651	0.001055	20.857382
418.120736	-2.965900	3.805200	-11.284000	23.094661	0.001056	20.847578
419.115654	-2.992600	3.802900	-11.380000	23.134806	0.001057	20.849398
420.118124	-3.008200	3.803500	-11.440000	23.149728	0.001055	20.850601
421.121777	-3.012700	3.802900	-11.455000	23.147083	0.001059	20.865493
422.117872	-3.020300	3.803400	-11.487000	23.152323	0.001056	20.867898
423.117761	-3.005000	3.804400	-11.432000	23.159233	0.001058	20.835944
424.120561	-3.026300	3.800600	-11.500000	23.167801	0.001059	20.853063
425.118584	-2.995600	3.803300	-11.391000	23.201176	0.001057	20.877973
426.117709	-3.008000	3.802500	-11.437000	23.196562	0.001058	20.842056
427.121249	-2.975800	3.802800	-11.314000	23.224224	0.001059	20.849862
428.117793	-3.009900	3.802300	-11.444000	23.238891	0.001060	20.856974
429.119590	-2.987100	3.803300	-11.358000	23.248058	0.001059	20.828704
430.126717	-2.987600	3.804100	-11.364000	23.258493	0.001060	20.845324
431.121399	-2.990300	3.802500	-11.369000	23.240127	0.001060	20.839721
432.120812	-2.980300	3.803200	-11.333000	23.235207	0.001059	20.836688
433.124062	-3.022300	3.800900	-11.487000	23.252504	0.001062	20.851177
434.119628	-3.006300	3.801200	-11.427000	23.260141	0.001062	20.840812
435.120833	-3.003700	3.801000	-11.416000	23.271216	0.001060	20.847644
436.130235	-3.003200	3.801100	-11.412000	23.276649	0.001059	20.836020
437.122374	-3.002300	3.802400	-11.415000	23.300458	0.001062	20.843759
438.122138	-2.991000	3.799800	-11.364000	23.314803	0.001061	20.834429
439.124178	-2.984700	3.799500	-11.338000	23.319214	0.001062	20.827470
440.126537	-2.992800	3.799100	-11.369000	23.299476	0.001063	20.823810
441.123165	-3.009800	3.798600	-11.432000	23.324367	0.001062	20.856815
442.126433	-2.984000	3.798700	-11.335000	23.338458	0.001064	20.860506
443.128116	-3.004700	3.798700	-11.414000	23.331159	0.001063	20.843234
444.124951	-3.001200	3.799800	-11.402000	23.335671	0.001064	20.816463
445.129247	-2.994700	3.799200	-11.377000	23.317581	0.001062	20.849067
446.123231	-3.010000	3.797900	-11.430000	23.336017	0.001065	20.829137
447.122538	-3.008900	3.796300	-11.421000	23.344685	0.001064	20.829764
448.128569	-2.996500	3.796200	-11.374000	23.330695	0.001065	20.834709
449.127125	-2.993700	3.796800	-11.364000	23.324754	0.001065	20.823540
450.126945	-2.986800	3.797200	-11.340000	23.310082	0.001064	20.831120
451.129065	-3.006600	3.794700	-11.408000	23.283756	0.001066	20.816116
452.128344	-3.005200	3.796000	-11.406000	23.298768	0.001066	20.823575
453.126681	-2.992100	3.795000	-11.354000	23.264856	0.001068	20.825624
454.131050	-2.985500	3.795000	-11.329000	23.274853	0.001068	20.826633
455.128023	-3.021100	3.794100	-11.462000	23.284763	0.001068	20.814280
456.126515	-2.993200	3.795700	-11.360000	23.276694	0.001068	20.811410
457.135132	-2.975900	3.795000	-11.293000	23.305977	0.001065	20.826531
458.131241	-2.976400	3.794800	-11.293000	23.301947	0.001068	20.824390
459.128662	-2.995000	3.793600	-11.361000	23.313556	0.001069	20.831283
460.132136	-3.003800	3.792600	-11.392000	23.325434	0.001069	20.815213
461.133091	-3.004100	3.793000	-11.394000	23.347070	0.001069	20.811766
462.129958	-2.981800	3.794300	-11.313000	23.370892	0.001069	20.810512
463.134204	-2.997000	3.792400	-11.363000	23.374045	0.001070	20.818414
464.132182	-2.994600	3.793500	-11.358000	23.401331	0.001070	20.818735
465.129865	-3.011500	3.792000	-11.418000	23.421902	0.001069	20.823232
466.132220	-2.996000	3.792700	-11.362000	23.436912	0.001071	20.815044
467.133228	-3.017800	3.790800	-11.439000	23.428601	0.001070	20.832791
468.130412	-3.013900	3.791800	-11.426000	23.450783	0.001072	20.823732
469.131038	-3.024300	3.790500	-11.463000	23.439119	0.001070	20.816308
470.133643	-3.006100	3.790500	-11.393000	23.443646	0.001070	20.815630
471.133011	-2.998000	3.790600	-11.364000	23.454577	0.001070	20.801931
472.133841	-2.992900	3.790400	-11.343000	23.436627	0.001071	20.835620
473.133593	-2.992000	3.790500	-11.340000	23.403741	0.001073	20.814513
474.134375	-3.002400	3.790100	-11.379000	23.412216	0.001073	20.802618
475.136328	-2.980200	3.791100	-11.297000	23.435462	0.001074	20.792254
476.135833	-2.977100	3.790600	-11.284000	23.431128	0.001073	20.804505
477.134976	-3.004400	3.788700	-11.382000	23.432659	0.001072	20.823109
478.137609	-3.000900	3.790400	-11.374000	23.464928	0.001072	20.818943
479.137459	-3.004900	3.788300	-11.382000	23.463636	0.001074	20.813381
480.137765	-2.996100	3.788100	-11.346000	23.460721	0.001073	20.811408
481.138858	-2.987300	3.788000	-11.314000	23.470934	0.001074	20.814533
482.138156	-2.984700	3.787300	-11.302000	23.473966	0.001073	20.809511
483.139834	-2.990000	3.787400	-11.323000	23.497694	0.001075	20.809588
484.139893	-3.008800	3.785900	-11.391000	23.488192	0.001074	20.804331
485.141346	-2.984500	3.786700	-11.300000	23.506977	0.001074	20.796607
486.141879	-3.013500	3.785300	-11.407000	23.508329	0.001074	20.805550
487.141479	-2.993300	3.786800	-11.335000	23.495196	0.001075	20.829369
488.141171	-3.012000	3.785100	-11.400000	23.503843	0.001074	20.804846
489.141063	-2.981900	3.785200	-11.286000	23.476494	0.001075	20.790234
490.140261	-2.987000	3.784400	-11.302000	23.488564	0.001074	20.807074
491.141039	-2.993800	3.784700	-11.330000	23.494570	0.001078	20.831586
492.140659	-3.016300	3.783600	-11.412000	23.496269	0.001077	20.805315
493.144208	-2.986200	3.785100	-11.301000	23.514091	0.001076	20.812274
494.142777	-3.024800	3.783100	-11.442000	23.513771	0.001077	20.790616
495.142460	-3.029000	3.782800	-11.456000	23.521593	0.001076	20.797983
496.143884	-3.002200	3.782400	-11.353000	23.500425	0.001076	20.804264
497.144000	-3.004700	3.782000	-11.363000	23.490069	0.001074	20.795781
498.143494	-2.984800	3.783500	-11.292000	23.469856	0.001076	20.790692
499.148317	-2.991300	3.784100	-11.317000	23.494774	0.001076	20.793384
500.152318	-3.026900	3.780900	-11.444000	23.479072	0.001077	20.812732
501.143308	-3.003900	3.782900	-11.363000	23.488278	0.001079	20.806788
502.148124	-3.017400	3.781000	-11.408000	23.483685	0.001077	20.788433
503.148298	-3.010000	3.780600	-11.378000	23.511670	0.001076	20.793251
504.145123	-3.003600	3.780500	-11.353000	23.527971	0.001079	20.802954
505.144580	-3.010100	3.779900	-11.376000	23.504539	0.001077	20.786103
506.147452	-2.987000	3.780800	-11.292000	23.541892	0.001077	20.796519
507.144054	-2.999600	3.779000	-11.334000	23.560710	0.001078	20.777451
508.150671	-3.009000	3.779800	-11.372000	23.533403	0.001078	20.803657
509.148388	-3.010600	3.780700	-11.381000	23.546892	0.001080	20.791100
510.149454	-2.987800	3.779000	-11.289000	23.569748	0.001079	20.780821
511.146744	-2.985900	3.780600	-11.287000	23.586018	0.001079	20.789544
512.151748	-2.990900	3.778600	-11.300000	23.592833	0.001079	20.800169
513.149107	-3.002100	3.778500	-11.343000	23.577341	0.001078	20.787485
514.148844	-2.993500	3.778500	-11.310000	23.560517	0.001080	20.787689
515.154093	-2.977900	3.778800	-11.252000	23.545971	0.001080	20.780220
516.146818	-2.995000	3.778100	-11.314000	23.550752	0.001078	20.793547
517.147949	-3.012100	3.777800	-11.378000	23.538810	0.001081	20.787265
518.149735	-2.998300	3.777500	-11.325000	23.533118	0.001081	20.798155
519.150698	-2.981400	3.777100	-11.260000	23.527305	0.001081	20.798492
520.151152	-3.013400	3.775900	-11.377000	23.525677	0.001081	20.800653
521.154397	-2.982500	3.778600	-11.269000	23.557984	0.001080	20.787994
522.150968	-2.998500	3.776100	-11.322000	23.561000	0.001082	20.797656
523.150169	-2.976900	3.777500	-11.244000	23.598687	0.001080	20.787071
524.153432	-2.993300	3.776800	-11.304000	23.642022	0.001080	20.815342
525.149670	-3.008500	3.775200	-11.357000	23.629938	0.001080	20.816504
526.154778	-2.972700	3.775100	-11.221000	23.637420	0.001082	20.791762
527.157104	-3.001900	3.774400	-11.329000	23.634465	0.001082	20.785481
528.154244	-3.006700	3.773300	-11.343000	23.562638	0.001082	20.793134
529.155257	-3.008100	3.773000	-11.348000	23.610816	0.001081	20.809188
530.157488	-2.995000	3.774900	-11.305000	23.597242	0.001082	20.768554
531.155963	-3.014800	3.771900	-11.371000	23.609677	0.001082	20.790976
532.155437	-2.979800	3.773200	-11.241000	23.610959	0.001083	20.797003
533.163918	-2.976100	3.771900	-11.224000	23.619152	0.001081	20.796682
534.155887	-3.011900	3.771900	-11.360000	23.632227	0.001082	20.807419
535.157940	-3.019300	3.770900	-11.384000	23.629303	0.001083	20.815393
536.163240	-2.986000	3.771700	-11.262000	23.612978	0.001083	20.801872
537.161448	-2.986900	3.770600	-11.261000	23.647403	0.001082	20.786597
538.155869	-3.034000	3.768700	-11.433000	23.651990	0.001083	20.790248
539.162989	-2.999500	3.770200	-11.308000	23.682630	0.001083	20.793465
540.160778	-2.980500	3.771000	-11.238000	23.685478	0.001084	20.805328
541.157318	-2.992500	3.771000	-11.284000	23.690350	0.001083	20.794566
542.160973	-2.969400	3.771200	-11.195000	23.695130	0.001084	20.787030
543.159765	-2.987200	3.770200	-11.261000	23.678846	0.001083	20.798680
544.157990	-2.997900	3.770200	-11.302000	23.669733	0.001082	20.808510
545.166546	-2.989200	3.769100	-11.265000	23.648740	0.001083	20.803111
546.161578	-2.996700	3.769300	-11.295000	23.620377	0.001082	20.784160
547.160821	-2.990700	3.769500	-11.272000	23.655646	0.001084	20.803397
548.162803	-3.018100	3.768600	-11.373000	23.660681	0.001083	20.780469
549.164857	-3.016200	3.767100	-11.362000	23.660081	0.001085	20.777022
550.158926	-3.016300	3.767600	-11.363000	23.665115	0.001083	20.817631
551.163321	-2.995000	3.766400	-11.278000	23.644600	0.001084	20.792797
552.161688	-3.013500	3.765400	-11.346000	23.664642	0.001084	20.810044
553.163449	-2.998900	3.766400	-11.295000	23.673949	0.001085	20.789503
554.184484	-3.013500	3.766300	-11.349000	23.638004	0.001085	20.793770
555.163714	-3.002200	3.765200	-11.304000	23.654186	0.001084	20.819476
556.166007	-2.970400	3.767000	-11.188000	23.627716	0.001086	20.787250
557.170341	-3.009000	3.766200	-11.332000	23.651222	0.001084	20.788529
558.166232	-2.986000	3.764900	-11.241000	23.661230	0.001084	20.810891
559.162270	-3.005500	3.765800	-11.316000	23.699742	0.001086	20.803034
560.169521	-2.996000	3.765000	-11.278000	23.704726	0.001084	20.794754
561.165167	-3.016700	3.763300	-11.352000	23.729867	0.001085	20.811426
562.163342	-2.999800	3.764000	-11.289000	23.741049	0.001083	20.793240
563.161685	-3.007500	3.765100	-11.323000	23.754002	0.001085	20.800536
564.162414	-3.001800	3.763800	-11.298000	23.759264	0.001085	20.787320
565.162317	-3.005600	3.761800	-11.305000	23.783678	0.001085	20.795677
566.165964	-3.005000	3.761100	-11.301000	23.768519	0.001085	20.804186
567.164869	-2.991900	3.762400	-11.256000	23.751540	0.001086	20.804231
568.164184	-3.003200	3.761100	-11.295000	23.731845	0.001085	20.803926
569.166442	-2.982300	3.762900	-11.221000	23.739031	0.001085	20.823932
570.166142	-3.009900	3.760500	-11.318000	23.735146	0.001085	20.798700
571.167674	-3.030200	3.758900	-11.389000	23.731093	0.001085	20.802223
572.167220	-3.018900	3.760900	-11.353000	23.733762	0.001087	20.832874
573.167664	-3.014000	3.760300	-11.333000	23.745611	0.001087	20.823417
574.169888	-2.998200	3.761300	-11.275000	23.761049	0.001086	20.809498
575.165142	-3.001700	3.759600	-11.283000	23.755999	0.001086	20.797797
576.166485	-2.986100	3.761300	-11.231000	23.754006	0.001084	20.821403
577.167465	-2.992700	3.758800	-11.248000	23.749429	0.001085	20.818711
578.169722	-3.000600	3.760300	-11.282000	23.730512	0.001086	20.811124
579.174277	-2.993000	3.759900	-11.252000	23.713639	0.001087	20.830243
580.173663	-2.987700	3.759500	-11.231000	23.740209	0.001087	20.816579
581.173274	-2.992500	3.759100	-11.248000	23.737860	0.001086	20.821810
582.170909	-2.993400	3.759500	-11.253000	23.728275	0.001084	20.821209
583.170831	-2.996300	3.758000	-11.260000	23.714865	0.001086	20.811083
584.171540	-3.007600	3.757400	-11.299000	23.717728	0.001088	20.799255
585.171484	-2.996700	3.757100	-11.258000	23.735083	0.001083	20.805276
586.172400	-3.001600	3.755700	-11.271000	23.735801	0.001084	20.822116
587.173844	-3.022600	3.755000	-11.348000	23.753873	0.001087	20.826485
588.173127	-2.994000	3.758200	-11.250000	23.755907	0.001087	20.840852
589.172807	-2.997700	3.754300	-11.253000	23.771386	0.001086	20.811328
590.172798	-2.985500	3.754200	-11.208000	23.768000	0.001084	20.820260
591.172875	-2.992900	3.754600	-11.236000	23.785507	0.001085	20.816477
592.173428	-3.000400	3.754600	-11.264000	23.780356	0.001085	20.828856
593.171525	-2.992100	3.755000	-11.234000	23.773059	0.001086	20.831023
594.173636	-2.987600	3.754000	-11.215000	23.793420	0.001084	20.796435
595.172581	-2.994800	3.754000	-11.241000	23.806518	0.001086	20.810991
596.175550	-3.006400	3.754700	-11.287000	23.821793	0.001084	20.832945
597.173319	-3.002900	3.753600	-11.270000	23.816246	0.001086	20.805098
598.175142	-3.007700	3.752800	-11.287000	23.791436	0.001083	20.835223
599.174696	-3.008100	3.753200	-11.289000	23.782476	0.001083	20.830982
600.175473	-3.009900	3.751800	-11.291000	23.763230	0.001085	20.825435
601.174274	-3.001100	3.751800	-11.259000	23.753105	0.001085	20.821922
602.174131	-3.009700	3.751200	-11.289000	23.740209	0.001085	20.822743
603.175128	-2.988900	3.752300	-11.215000	23.794340	0.001084	20.832919
604.174564	-2.992300	3.751500	-11.224000	23.794543	0.001085	20.821744
605.174663	-3.005400	3.750200	-11.269000	23.794248	0.001084	20.821448
606.176981	-3.010200	3.751500	-11.292000	23.824091	0.001084	20.851369
607.175676	-2.985700	3.752100	-11.201000	23.846774	0.001085	20.838552
608.176109	-3.000400	3.750800	-11.253000	23.863696	0.001084	20.863579
609.177135	-3.008100	3.751300	-11.283000	23.911597	0.001085	20.829111
610.177941	-2.996000	3.751100	-11.237000	23.901169	0.001086	20.853740
611.175624	-2.993700	3.749700	-11.224000	23.922330	0.001086	20.862157
612.180933	-3.001500	3.748600	-11.251000	23.880145	0.001087	20.816538
613.178991	-2.990900	3.749000	-11.212000	23.879453	0.001085	20.833388
614.178169	-2.972300	3.749900	-11.145000	23.867276	0.001085	20.851996
615.178804	-3.006300	3.748000	-11.266000	23.855505	0.001086	20.837349
616.178450	-3.014600	3.746600	-11.293000	23.860030	0.001085	20.824818
617.179366	-2.983300	3.748700	-11.181000	23.850532	0.001085	20.846587
618.181043	-3.008200	3.747300	-11.272000	23.852744	0.001086	20.843115
619.183085	-2.980900	3.747500	-11.170000	23.874531	0.001083	20.838883
620.179726	-3.001200	3.746000	-11.242000	23.907215	0.001086	20.852216
621.181503	-3.003900	3.746000	-11.252000	23.913321	0.001084	20.833209
622.190030	-2.995000	3.745600	-11.217000	23.916453	0.001084	20.852471
623.180949	-2.983200	3.746600	-11.176000	23.950075	0.001084	20.852996
624.184167	-3.006000	3.746000	-11.260000	23.966853	0.001084	20.839001
625.179002	-3.012000	3.744700	-11.278000	23.950945	0.001086	20.840118
626.178917	-3.004700	3.744900	-11.251000	23.981678	0.001085	20.854816
627.183210	-3.004400	3.745300	-11.251000	23.975573	0.001085	20.851064
628.180065	-2.982200	3.745300	-11.168000	23.987260	0.001085	20.848560
629.179745	-3.002300	3.743400	-11.238000	23.978048	0.001086	20.842167
630.181786	-3.003000	3.743100	-11.239000	23.950065	0.001084	20.843977
631.176639	-2.996900	3.743600	-11.218000	23.956441	0.001083	20.861749
632.188037	-3.005200	3.742700	-11.246000	23.958703	0.001084	20.848846
633.182838	-2.972500	3.742500	-11.124000	23.977388	0.001085	20.845772
634.179490	-2.996400	3.743100	-11.215000	23.959852	0.001083	20.855213
635.180269	-2.999600	3.741000	-11.220000	23.958434	0.001084	20.852369
636.181866	-2.990900	3.741500	-11.188000	23.973498	0.001085	20.830966
637.179693	-2.962000	3.742300	-11.084000	23.973177	0.001085	20.878058
638.180185	-3.001300	3.741900	-11.228000	23.985283	0.001084	20.843258
639.182637	-3.003600	3.740700	-11.235000	24.004551	0.001083	20.846934
640.179896	-2.994300	3.740300	-11.198000	23.976081	0.001083	20.855840
641.180510	-2.996900	3.740500	-11.208000	23.967824	0.001083	20.855147
642.181485	-3.034400	3.737400	-11.339000	23.966151	0.001083	20.856789
643.179994	-3.008000	3.739100	-11.247000	24.001064	0.001083	20.875677
644.181435	-3.004700	3.739000	-11.234000	23.999426	0.001084	20.852226
645.185301	-3.012200	3.739100	-11.261000	24.001384	0.001081	20.868887
646.184678	-2.995500	3.738900	-11.198000	24.008679	0.001082	20.875254
647.191041	-3.014200	3.738600	-11.268000	24.022610	0.001084	20.879266
648.183271	-2.986800	3.738400	-11.165000	24.028832	0.001082	20.862749
649.184645	-2.994000	3.737300	-11.188000	24.051806	0.001085	20.858762
650.181446	-3.009800	3.737200	-11.247000	24.036844	0.001083	20.875050
651.187103	-2.992600	3.737800	-11.184000	24.033906	0.001083	20.862621
652.182430	-3.000900	3.737700	-11.216000	24.041531	0.001081	20.872639
653.181837	-2.997100	3.737300	-11.200000	24.022635	0.001081	20.854637
654.188046	-2.997100	3.737100	-11.199000	24.044399	0.001081	20.872670
655.185309	-2.999800	3.736300	-11.207000	24.027404	0.001084	20.861790
656.184390	-3.006500	3.736300	-11.232000	24.013794	0.001082	20.881805
657.187558	-3.020100	3.733200	-11.274000	24.028594	0.001082	20.874363
658.185087	-3.022600	3.735400	-11.289000	24.025040	0.001081	20.870799
659.183656	-2.998900	3.734900	-11.199000	24.040861	0.001081	20.878130
660.186524	-2.976200	3.734400	-11.113000	24.042762	0.001084	20.875295
661.185025	-2.995000	3.734400	-11.183000	24.035736	0.001079	20.875362
662.185905	-3.015500	3.733400	-11.258000	24.032198	0.001080	20.887460
663.188620	-2.999900	3.733000	-11.197000	24.050520	0.001083	20.883549
664.189682	-3.001400	3.732500	-11.202000	24.040388	0.001080	20.856320
665.186402	-2.998900	3.733900	-11.197000	24.058085	0.001081	20.876911
666.187440	-3.001000	3.734000	-11.205000	24.049178	0.001081	20.890263
667.186976	-3.005200	3.731700	-11.214000	24.055670	0.001082	20.881128
668.185908	-2.994600	3.732900	-11.177000	24.064938	0.001079	20.883784
669.192743	-2.985400	3.731700	-11.140000	24.075872	0.001080	20.897120
670.186471	-2.989800	3.731000	-11.153000	24.069808	0.001081	20.890091
671.186763	-2.994200	3.731100	-11.171000	24.040363	0.001082	20.877156
672.186840	-2.999400	3.731300	-11.191000	24.054359	0.001080	20.882658
673.188766	-2.999100	3.731400	-11.190000	24.057907	0.001082	20.903758
674.188029	-2.982000	3.731600	-11.126000	24.077088	0.001080	20.888382
675.189821	-2.993600	3.730900	-11.168000	24.058268	0.001079	20.910758
676.191370	-3.012400	3.729000	-11.232000	24.046921	0.001079	20.880888
677.190979	-2.996100	3.731000	-11.177000	24.046601	0.001080	20.895265
678.192210	-3.002200	3.730300	-11.198000	24.086518	0.001079	20.890253
679.189570	-3.002600	3.730500	-11.201000	24.073651	0.001079	20.892996
680.189377	-3.000300	3.730300	-11.190000	24.078109	0.001079	20.903630
681.201314	-2.988100	3.728700	-11.140000	24.075644	0.001078	20.887409
682.193473	-3.016600	3.728600	-11.246000	24.064129	0.001080	20.887714
683.191262	-3.003600	3.729100	-11.200000	24.030612	0.001078	20.900566
684.192988	-2.998300	3.727600	-11.176000	24.006219	0.001079	20.888433
685.193209	-3.009100	3.726600	-11.213000	24.013845	0.001079	20.898925
686.193877	-3.013000	3.726400	-11.227000	24.002025	0.001079	20.893709
687.193672	-2.995100	3.727300	-11.163000	23.993606	0.001076	20.890008
688.190854	-2.985000	3.728700	-11.129000	24.011827	0.001079	20.906383
689.193033	-2.999400	3.726900	-11.177000	24.026890	0.001077	20.910583
690.195038	-3.018600	3.726400	-11.246000	24.035156	0.001079	20.904649
691.193124	-3.021500	3.725000	-11.254000	24.003275	0.001078	20.887377
692.195884	-3.001300	3.725400	-11.180000	24.041379	0.001076	20.896666
693.195053	-3.007100	3.724800	-11.199000	24.026148	0.001078	20.924062
694.195029	-3.011600	3.724200	-11.215000	24.008461	0.001077	20.899215
695.195630	-2.993200	3.726000	-11.152000	24.022991	0.001076	20.908095
696.194485	-3.012100	3.723900	-11.215000	24.034398	0.001077	20.911949
697.193081	-2.999000	3.724800	-11.170000	24.061078	0.001077	20.919264
698.195841	-3.010900	3.723700	-11.212000	24.029055	0.001076	20.929348
699.193355	-3.011700	3.723200	-11.211000	24.038648	0.001077	20.921900
700.193463	-3.002300	3.722700	-11.175000	24.075103	0.001074	20.917210
701.192787	-3.007400	3.721300	-11.191000	24.079044	0.001075	20.929695
702.198453	-2.993300	3.722000	-11.141000	24.087706	0.001077	20.911832
703.195188	-2.991900	3.722700	-11.137000	24.101721	0.001076	20.929679
704.196351	-3.017300	3.721700	-11.228000	24.122050	0.001077	20.915930
705.196606	-3.005900	3.721800	-11.186000	24.116082	0.001076	20.914686
706.197023	-2.997300	3.720900	-11.151000	24.082668	0.001075	20.921951
707.196766	-3.013400	3.719100	-11.207000	24.091752	0.001074	20.928690
708.201393	-2.995100	3.721900	-11.146000	24.080751	0.001076	20.912443
709.196860	-2.989600	3.720800	-11.122000	24.096251	0.001075	20.902385
710.199318	-3.015200	3.718400	-11.210000	24.130595	0.001076	20.932559
711.201128	-3.022700	3.718900	-11.241000	24.137661	0.001076	20.911199
712.200043	-3.001600	3.720000	-11.165000	24.161862	0.001073	20.918403
713.199656	-3.003500	3.720000	-11.172000	24.178367	0.001075	20.918836
714.200130	-3.012700	3.719000	-11.203000	24.200941	0.001073	20.942897
715.200264	-3.012700	3.719000	-11.202000	24.222534	0.001073	20.944167
716.201985	-3.006200	3.717600	-11.175000	24.198771	0.001072	20.929816
717.198646	-3.015300	3.717400	-11.207000	24.175734	0.001075	20.936581
718.203481	-2.997800	3.718100	-11.145000	24.153642	0.001071	20.929123
719.201298	-3.037300	3.718300	-11.293000	24.198334	0.001073	20.931748
720.201348	-3.010900	3.718200	-11.195000	24.173869	0.001073	20.933762
721.203525	-3.007000	3.717800	-11.178000	24.173625	0.001073	20.931147
722.204135	-2.998800	3.717900	-11.148000	24.185230	0.001074	20.936148
723.202654	-3.013600	3.717000	-11.201000	24.194145	0.001072	20.951253
724.202620	-3.012400	3.717100	-11.197000	24.209491	0.001071	20.944361
725.209004	-3.022400	3.715600	-11.230000	24.226316	0.001070	20.956019
726.202893	-3.016900	3.715300	-11.208000	24.239104	0.001070	20.954622
727.207586	-3.000100	3.716800	-11.149000	24.226021	0.001071	20.948612
728.203744	-2.994300	3.715600	-11.125000	24.218162	0.001072	20.943575
729.203393	-3.011700	3.714700	-11.187000	24.211839	0.001070	20.943397
730.204373	-3.012900	3.715100	-11.192000	24.215392	0.001071	20.951227
731.203100	-2.999200	3.715500	-11.143000	24.206639	0.001072	20.954775
732.203263	-3.013100	3.715000	-11.193000	24.221741	0.001072	20.954750
733.202052	-2.994000	3.715000	-11.122000	24.192483	0.001071	20.968075
734.206512	-2.985400	3.714000	-11.087000	24.198207	0.001070	20.924983
735.206481	-3.007000	3.712600	-11.162000	24.222020	0.001069	20.952185
736.242333	-3.008500	3.712400	-11.168000	24.226595	0.001069	20.946817
737.206213	-3.020000	3.711800	-11.209000	24.238784	0.001069	20.971368
738.203937	-3.021100	3.710600	-11.209000	24.256731	0.001071	20.965663
739.207975	-3.023300	3.711500	-11.219000	24.270480	0.001070	20.942474
740.206667	-3.016200	3.711900	-11.194000	24.259964	0.001069	20.948520
741.204606	-3.006000	3.711500	-11.156000	24.253422	0.001068	20.981782
742.205792	-3.016300	3.712000	-11.196000	24.257458	0.001069	20.964970
743.210146	-3.017900	3.710500	-11.197000	24.278399	0.001069	20.961320
744.206368	-2.978800	3.711700	-11.054000	24.284442	0.001069	20.961692
745.208642	-2.993100	3.711500	-11.108000	24.249936	0.001066	20.964537
746.209931	-3.022500	3.708500	-11.208000	24.234285	0.001066	20.949315
747.207533	-2.991800	3.710200	-11.099000	24.234875	0.001067	20.949907
748.210303	-3.005800	3.709800	-11.149000	24.261921	0.001068	20.959964
749.213968	-3.013200	3.710200	-11.177000	24.275848	0.001067	20.959710
750.207563	-3.023200	3.708100	-11.209000	24.286028	0.001066	20.948112
751.209256	-3.012200	3.708500	-11.170000	24.313926	0.001066	20.957130
752.215726	-3.021300	3.708800	-11.204000	24.322450	0.001068	20.962360
753.213689	-2.993200	3.708100	-11.098000	24.333947	0.001066	20.963935
754.215879	-2.987300	3.709500	-11.081000	24.351933	0.001067	20.961116
755.213115	-3.008900	3.707300	-11.154000	24.358693	0.001066	20.946089
756.209330	-2.973300	3.709400	-11.028000	24.357519	0.001066	20.938748
757.212093	-2.972200	3.710000	-11.026000	24.343476	0.001065	20.957375
758.212428	-2.973400	3.708400	-11.025000	24.355933	0.001064	20.939054
759.208785	-3.016300	3.706600	-11.178000	24.360929	0.001064	20.949280
760.211190	-2.994100	3.707300	-11.098000	24.358322	0.001063	20.941924
761.219132	-2.998600	3.708000	-11.119000	24.363013	0.001064	20.971282
762.210549	-2.999700	3.706500	-11.118000	24.383312	0.001063	20.947078
763.213922	-2.974300	3.706400	-11.022000	24.360085	0.001063	20.951752
764.220015	-3.012300	3.706600	-11.164000	24.361824	0.001064	20.936428
765.212991	-3.002000	3.704400	-11.120000	24.380704	0.001064	20.945885
766.214828	-3.014400	3.704100	-11.164000	24.365224	0.001062	20.944580
767.213407	-3.006500	3.706200	-11.142000	24.375251	0.001064	20.924296
768.211722	-3.002600	3.705700	-11.127000	24.378240	0.001063	20.924448
769.219274	-2.989600	3.705100	-11.076000	24.378113	0.001061	20.935699
770.221441	-3.004600	3.704300	-11.129000	24.358134	0.001062	20.942209
771.210111	-2.987000	3.704200	-11.063000	24.308717	0.001062	20.934363
772.216885	-2.995500	3.704500	-11.096000	24.328382	0.001062	20.919004
773.213636	-2.989100	3.705300	-11.075000	24.300133	0.001062	20.953251
774.213689	-2.983600	3.704300	-11.052000	24.271508	0.001060	20.947297
775.216039	-2.985400	3.703700	-11.055000	24.250379	0.001061	20.930373
776.213126	-3.004300	3.701500	-11.119000	24.248777	0.001061	20.915017
777.213008	-2.988400	3.703000	-11.065000	24.257952	0.001060	20.927538
778.217103	-3.006400	3.701200	-11.126000	24.246160	0.001060	20.910970
779.214145	-2.993900	3.702800	-11.084000	24.213629	0.001058	20.926701
780.214796	-3.009700	3.701600	-11.140000	24.220328	0.001059	20.935791
781.217863	-3.010200	3.701100	-11.140000	24.218092	0.001057	20.919325
782.215729	-2.962600	3.701600	-10.965000	24.205110	0.001060	20.923373
783.218591	-2.998800	3.701100	-11.098000	24.214859	0.001058	20.914187
784.223132	-3.001900	3.700100	-11.106000	24.233768	0.001058	20.933151
785.215314	-2.991700	3.701600	-11.073000	24.271568	0.001057	20.926498
786.219308	-2.983400	3.700400	-11.038000	24.267711	0.001057	20.929266
787.220608	-3.006100	3.699200	-11.119000	24.301449	0.001057	20.917118
788.219584	-3.012900	3.699400	-11.144000	24.319426	0.001056	20.936571
789.220881	-2.990500	3.698700	-11.060000	24.339060	0.001057	20.925448
790.222645	-2.989500	3.699800	-11.060000	24.330181	0.001055	20.917964
791.224434	-2.989500	3.698100	-11.055000	24.355400	0.001057	20.918606
792.220656	-3.006700	3.698000	-11.118000	24.333937	0.001057	20.919835
793.224845	-2.996400	3.697600	-11.078000	24.334216	0.001057	20.926752
794.223189	-2.986200	3.697800	-11.042000	24.319233	0.001057	20.925947
795.222444	-2.998000	3.696300	-11.080000	24.284905	0.001056	20.915695
796.222620	-3.015500	3.695800	-11.144000	24.359191	0.001054	20.906290
797.225892	-3.001200	3.697600	-11.096000	24.327075	0.001055	20.918168
798.228308	-2.991400	3.698400	-11.061000	24.312860	0.001055	20.911495
799.227444	-3.005800	3.695300	-11.106000	24.327142	0.001054	20.898796
800.225238	-3.006700	3.696100	-11.112000	24.333820	0.001053	20.904546
801.228785	-2.989700	3.696700	-11.051000	24.340427	0.001054	20.906907
802.228464	-2.996400	3.696400	-11.075000	24.359115	0.001053	20.904317
803.227351	-2.978500	3.695200	-11.005000	24.378839	0.001052	20.897078
804.227962	-3.020700	3.695500	-11.161000	24.393095	0.001053	20.902843
805.232304	-2.994000	3.694200	-11.059000	24.436180	0.001054	20.914772
806.227195	-3.004100	3.695000	-11.099000	24.448779	0.001052	20.920773
807.228288	-3.012800	3.693200	-11.125000	24.453413	0.001052	20.906458
808.227960	-3.009100	3.692700	-11.111000	24.468639	0.001053	20.900871
809.229998	-3.007600	3.693100	-11.106000	24.467322	0.001052	20.896705
810.227142	-3.013400	3.692700	-11.126000	24.493854	0.001051	20.916210
811.227713	-3.006100	3.693000	-11.100000	24.499358	0.001050	20.909879
812.232184	-3.013600	3.692800	-11.128000	24.474284	0.001051	20.894207
813.226895	-3.006900	3.691500	-11.098000	24.471312	0.001051	20.913035
814.227213	-3.003200	3.692700	-11.088000	24.467592	0.001050	20.898398
815.230573	-3.000000	3.690800	-11.071000	24.479676	0.001049	20.898668
816.228118	-2.995500	3.692000	-11.059000	24.475362	0.001050	20.898133
817.227261	-3.010700	3.691200	-11.113000	24.509846	0.001049	20.914712
818.229031	-2.995800	3.691700	-11.058000	24.501838	0.001049	20.907626
819.230052	-3.025000	3.689800	-11.160000	24.498082	0.001048	20.906229
820.228953	-2.998300	3.690800	-11.065000	24.510675	0.001049	20.904164
821.229652	-3.030600	3.689800	-11.181000	24.505771	0.001047	20.895926
822.233080	-3.011800	3.689700	-11.111000	24.503814	0.001048	20.883532
823.231789	-2.996900	3.690300	-11.058000	24.480504	0.001048	20.908033
824.231658	-2.981900	3.691400	-11.006000	24.451203	0.001047	20.907085
825.233622	-3.002600	3.688600	-11.075000	24.462622	0.001047	20.881559
826.233044	-2.989200	3.689700	-11.029000	24.413957	0.001047	20.873041
827.233359	-3.013100	3.688100	-11.112000	24.413352	0.001047	20.909888
828.231973	-2.999200	3.688100	-11.060000	24.421859	0.001045	20.898036
829.231469	-3.003000	3.687900	-11.074000	24.431276	0.001046	20.886147
830.232327	-2.984400	3.689700	-11.010000	24.426443	0.001046	20.899789
831.231186	-3.012600	3.686700	-11.106000	24.414002	0.001046	20.898688
832.231214	-2.998600	3.688900	-11.060000	24.415791	0.001046	20.868717
833.231540	-2.976600	3.687300	-10.975000	24.441770	0.001045	20.899993
834.233283	-2.996100	3.686000	-11.042000	24.431515	0.001046	20.905351
835.229409	-2.993500	3.686100	-11.033000	24.429995	0.001045	20.895293
836.232138	-2.990600	3.686700	-11.024000	24.398456	0.001043	20.885938
837.231438	-3.004700	3.687200	-11.077000	24.408213	0.001042	20.885770
838.232182	-2.988300	3.686400	-11.014000	24.427185	0.001045	20.884888
839.232957	-2.990300	3.685200	-11.019000	24.434183	0.001042	20.882899
840.233505	-2.987600	3.685300	-11.009000	24.444799	0.001044	20.879326
841.234169	-3.014900	3.684400	-11.107000	24.464710	0.001043	20.897877
842.235256	-3.003600	3.685100	-11.067000	24.481342	0.001041	20.889435
843.233745	-2.997800	3.685200	-11.047000	24.459333	0.001041	20.897225
844.234098	-3.027100	3.682700	-11.147000	24.454927	0.001042	20.900391
845.235716	-2.999200	3.684900	-11.051000	24.454632	0.001043	20.863114
846.235845	-2.997900	3.682800	-11.040000	24.470254	0.001042	20.891586
847.236332	-2.987300	3.684500	-11.005000	24.467983	0.001042	20.870343
848.241309	-2.989000	3.684300	-11.012000	24.468877	0.001042	20.866499
849.237252	-2.998400	3.683700	-11.043000	24.478314	0.001039	20.883552
850.237566	-3.005200	3.683000	-11.066000	24.477790	0.001039	20.883975
851.239794	-3.036400	3.681800	-11.178000	24.493564	0.001039	20.904540
852.238669	-3.003600	3.683100	-11.062000	24.511462	0.001039	20.878877
853.238138	-3.015900	3.682300	-11.104000	24.512458	0.001040	20.844317
854.239825	-3.010200	3.681700	-11.082000	24.503250	0.001039	20.893397
855.241612	-3.000100	3.682100	-11.046000	24.504002	0.001037	20.879453
856.239038	-3.018300	3.681800	-11.111000	24.520385	0.001039	20.888777
857.240885	-2.989700	3.682200	-11.007000	24.501700	0.001039	20.876669
858.240713	-2.979500	3.681800	-10.970000	24.500551	0.001037	20.898275
859.238924	-2.998800	3.680700	-11.035000	24.510206	0.001040	20.878566
860.246564	-2.996700	3.681300	-11.030000	24.476093	0.001038	20.897444
861.239933	-2.982700	3.681800	-10.980000	24.532713	0.001037	20.873172
862.238708	-2.990100	3.679400	-11.001000	24.555996	0.001038	20.886575
863.239815	-2.985500	3.679900	-10.985000	24.538907	0.001035	20.875120
864.242985	-2.997500	3.679400	-11.028000	24.587454	0.001034	20.882578
865.238837	-3.001300	3.678900	-11.040000	24.608602	0.001035	20.873927
866.239544	-2.986800	3.678900	-10.987000	24.594898	0.001035	20.879142
867.241161	-2.983300	3.678300	-10.973000	24.608038	0.001036	20.879050
868.239804	-2.997200	3.678700	-11.025000	24.622011	0.001034	20.876001
869.240086	-3.009200	3.677600	-11.064000	24.599431	0.001033	20.874207
870.240293	-3.006200	3.677800	-11.056000	24.609547	0.001033	20.873452
871.241762	-2.992800	3.677800	-11.006000	24.619588	0.001034	20.868829
872.242564	-3.003900	3.677000	-11.043000	24.618627	0.001034	20.896312
873.244487	-3.009800	3.676200	-11.064000	24.636254	0.001033	20.879387
874.242550	-3.031400	3.676200	-11.143000	24.646161	0.001034	20.886483
875.247153	-3.001900	3.677000	-11.037000	24.651883	0.001032	20.872784
876.241964	-3.007900	3.675400	-11.054000	24.660734	0.001032	20.879769
877.240954	-3.004200	3.675200	-11.040000	24.668640	0.001033	20.869685
878.242625	-2.993600	3.674300	-10.999000	24.655114	0.001031	20.858010
879.241801	-3.011200	3.675300	-11.066000	24.622789	0.001032	20.876781
880.242865	-2.995600	3.675600	-11.010000	24.597195	0.001031	20.868645
881.242198	-3.015400	3.675100	-11.081000	24.622408	0.001031	20.853167
882.242237	-3.020900	3.674400	-11.099000	24.638011	0.001032	20.875935
883.244443	-2.971000	3.675100	-10.918000	24.653747	0.001031	20.868018
884.242395	-3.007900	3.673400	-11.048000	24.637656	0.001030	20.862303
885.244493	-2.978900	3.674100	-10.943000	24.594436	0.001028	20.865876
886.243202	-3.028200	3.672200	-11.119000	24.588587	0.001030	20.854319
887.242676	-2.998200	3.672800	-11.011000	24.585980	0.001029	20.859764
888.244545	-3.004800	3.672300	-11.034000	24.588689	0.001028	20.865800
889.243926	-2.991800	3.672100	-10.985000	24.598394	0.001029	20.860365
890.245669	-2.990800	3.672500	-10.982000	24.605736	0.001028	20.853034
891.243591	-2.990600	3.671600	-10.980000	24.606082	0.001024	20.869027
892.246858	-2.993900	3.673300	-10.996000	24.609288	0.001029	20.869399
893.246996	-2.976100	3.673100	-10.931000	24.630156	0.001028	20.859519
894.246259	-2.995100	3.670300	-10.992000	24.646232	0.001027	20.870908
895.246447	-2.986600	3.671800	-10.966000	24.646105	0.001026	20.871729
896.245166	-3.004200	3.671700	-11.030000	24.653742	0.001025	20.865641
897.244901	-3.023400	3.670600	-11.096000	24.663243	0.001026	20.862848
898.246336	-3.007800	3.669200	-11.034000	24.663792	0.001025	20.880467
899.248641	-3.015600	3.668500	-11.061000	24.672373	0.001025	20.855414
900.246723	-3.009200	3.669700	-11.042000	24.687662	0.001027	20.847049
901.246762	-2.997600	3.669900	-10.999000	24.695755	0.001024	20.868445
902.247600	-3.002000	3.668800	-11.013000	24.692321	0.001024	20.866895
903.245588	-2.992400	3.670000	-10.982000	24.716114	0.001025	20.852366
904.261925	-3.004800	3.669200	-11.024000	24.725818	0.001024	20.839345
905.252974	-2.989800	3.669100	-10.969000	24.728846	0.001024	20.858978
906.248761	-3.014100	3.666100	-11.048000	24.736339	0.001024	20.839472
907.250321	-2.997100	3.668000	-10.993000	24.737478	0.001022	20.846778
908.251001	-2.999100	3.667500	-10.997000	24.717236	0.001024	20.840217
909.249526	-2.985000	3.668100	-10.947000	24.701070	0.001022	20.849598
910.252764	-3.002500	3.666700	-11.008000	24.658121	0.001020	20.868139
911.254002	-3.021700	3.665700	-11.076000	24.605375	0.001020	20.857413
912.251004	-2.997700	3.666300	-10.990000	24.611289	0.001022	20.844382
913.250960	-3.007800	3.666400	-11.027000	24.625669	0.001020	20.871137
914.254589	-3.007300	3.667000	-11.026000	24.623728	0.001019	20.854018
915.253062	-3.002800	3.665900	-11.006000	24.621904	0.001020	20.842705
916.256677	-2.995900	3.664400	-10.978000	24.620090	0.001019	20.841833
917.251386	-3.000600	3.664500	-10.994000	24.609399	0.001022	20.843908
918.249024	-2.998200	3.664500	-10.986000	24.617229	0.001019	20.857454
919.251913	-2.991700	3.666000	-10.965000	24.589283	0.001020	20.855017
920.254356	-3.002500	3.663800	-10.999000	24.625187	0.001019	20.848843
921.256381	-3.008800	3.664400	-11.025000	24.631726	0.001018	20.836439
922.253686	-3.004100	3.664400	-11.007000	24.626858	0.001018	20.832503
923.255682	-3.013400	3.663200	-11.037000	24.634409	0.001017	20.841502
924.254912	-2.987900	3.663000	-10.943000	24.651486	0.001019	20.836827
925.257117	-3.000900	3.661700	-10.987000	24.618510	0.001016	20.844989
926.254918	-3.010600	3.661900	-11.023000	24.621472	0.001014	20.821884
927.253966	-2.974300	3.663800	-10.897000	24.607017	0.001017	20.853845
928.255062	-3.009500	3.662500	-11.021000	24.615228	0.001019	20.832687
929.256172	-3.002200	3.663400	-10.997000	24.650617	0.001017	20.834059
930.256454	-3.004100	3.661300	-10.998000	24.654372	0.001015	20.844938
931.256900	-3.001000	3.661400	-10.987000	24.625985	0.001015	20.835420
932.255893	-3.009100	3.661400	-11.017000	24.636467	0.001014	20.841670
933.254952	-2.986000	3.662000	-10.934000	24.614679	0.001013	20.851576
934.256273	-3.019300	3.659900	-11.049000	24.623124	0.001016	20.835395
935.257393	-3.015900	3.659000	-11.034000	24.625639	0.001015	20.833651
936.255310	-3.019000	3.660700	-11.051000	24.629267	0.001015	20.833024
937.255461	-3.018300	3.660400	-11.047000	24.634491	0.001014	20.828782
938.260349	-3.015600	3.659600	-11.035000	24.618541	0.001014	20.827003
939.257241	-3.010000	3.659800	-11.015000	24.629511	0.001012	20.831372
940.260814	-2.990500	3.660500	-10.945000	24.633789	0.001011	20.807691
941.261196	-2.992200	3.658000	-10.945000	24.646101	0.001011	20.819096
942.259423	-2.986100	3.660200	-10.929000	24.661069	0.001012	20.834115
943.260228	-2.986400	3.658100	-10.923000	24.639181	0.001012	20.818790
944.260583	-3.005300	3.657100	-10.990000	24.658631	0.001011	20.834513
945.259658	-2.999100	3.658600	-10.970000	24.664387	0.001011	20.835073
946.260305	-2.991200	3.658400	-10.941000	24.690965	0.001010	20.823811
947.260932	-3.037800	3.657200	-11.108000	24.720311	0.001010	20.840457
948.260249	-3.016100	3.656400	-11.027000	24.706776	0.001008	20.829246
949.261867	-3.007100	3.658600	-11.001000	24.724310	0.001009	20.811754
950.261961	-2.995300	3.658300	-10.957000	24.743555	0.001009	20.816368
951.261906	-3.003100	3.657500	-10.983000	24.707848	0.001006	20.817046
952.259293	-3.010000	3.657500	-11.008000	24.682501	0.001008	20.814844
953.264921	-3.013300	3.656000	-11.015000	24.633881	0.001006	20.821059
954.260237	-3.010100	3.656700	-11.006000	24.645613	0.001006	20.833304
955.265613	-2.994900	3.657200	-10.952000	24.679330	0.001007	20.808343
956.263451	-2.992500	3.655500	-10.938000	24.676444	0.001006	20.808292
957.265279	-2.996600	3.653400	-10.947000	24.701319	0.001006	20.834676
958.262449	-3.005800	3.653500	-10.980000	24.714575	0.001006	20.821425
959.266566	-2.989500	3.654800	-10.925000	24.727703	0.001005	20.806151
960.268897	-2.992600	3.653900	-10.933000	24.725966	0.001005	20.824795
961.263463	-2.991800	3.653700	-10.930000	24.702458	0.001007	20.818749
962.263643	-2.992800	3.654500	-10.935000	24.683313	0.001005	20.817081
963.266630	-3.012400	3.653700	-11.006000	24.653503	0.001005	20.817515
964.266040	-2.992900	3.654200	-10.936000	24.642854	0.001004	20.811096
965.266018	-3.000700	3.654100	-10.964000	24.642930	0.001003	20.802164
966.268600	-2.997200	3.653000	-10.948000	24.623261	0.001005	20.810877
967.267990	-3.012700	3.653200	-11.004000	24.644449	0.001003	20.821705
968.269098	-3.006200	3.653400	-10.983000	24.653859	0.001004	20.825458
969.268997	-2.991400	3.653800	-10.929000	24.677998	0.001003	20.789463
970.266209	-3.013100	3.651400	-11.001000	24.672480	0.001000	20.817117
971.263885	-3.017400	3.651800	-11.018000	24.690040	0.001004	20.805814
972.271966	-3.020600	3.649200	-11.022000	24.693611	0.001004	20.807501
973.267421	-2.985400	3.651900	-10.902000	24.698875	0.001000	20.802826
974.267780	-2.998500	3.649300	-10.942000	24.729293	0.001001	20.801582
975.272291	-2.992000	3.650400	-10.919000	24.734668	0.001001	20.810769
976.268926	-3.005800	3.650800	-10.972000	24.753720	0.001001	20.808077
977.266700	-2.992900	3.650600	-10.924000	24.760639	0.001000	20.821659
978.273872	-3.018600	3.648100	-11.011000	24.780626	0.000999	20.816112
979.270693	-2.996200	3.649700	-10.933000	24.716733	0.000999	20.798935
980.272909	-2.992600	3.647900	-10.915000	24.725558	0.001000	20.795463
981.273804	-2.982900	3.649400	-10.884000	24.699941	0.000998	20.808163
982.273282	-2.980100	3.648100	-10.870000	24.688230	0.000999	20.794515
983.271627	-2.971100	3.649800	-10.843000	24.656851	0.000998	20.808546
984.275712	-2.997700	3.647200	-10.931000	24.702314	0.000998	20.821449
985.273611	-3.020600	3.646600	-11.014000	24.704905	0.000997	20.808403
986.274815	-3.007700	3.645800	-10.964000	24.698534	0.000997	20.800587
987.276035	-3.019000	3.647000	-11.009000	24.696771	0.000997	20.806878
988.271637	-3.010300	3.644900	-10.971000	24.693692	0.000997	20.808056
989.272238	-3.023800	3.645700	-11.022000	24.693102	0.000995	20.793714
990.279957	-3.015200	3.645400	-10.991000	24.674699	0.000995	20.793265
991.276352	-2.996100	3.646300	-10.924000	24.671417	0.000995	20.797084
992.274810	-2.987100	3.646400	-10.891000	24.699463	0.000995	20.803416
993.276469	-3.038800	3.643700	-11.070000	24.726533	0.000994	20.791700
994.273175	-2.995000	3.643700	-10.912000	24.755868	0.000993	20.794112
995.272858	-3.002700	3.644500	-10.943000	24.767655	0.000996	20.799776
996.274087	-3.018400	3.645200	-11.001000	24.798797	0.000994	20.792623
997.274881	-2.990900	3.645000	-10.900000	24.805884	0.000994	20.791200
998.274529	-3.019000	3.643300	-10.998000	24.808338	0.000995	20.809310
999.275613	-2.992100	3.645100	-10.906000	24.824142	0.000993	20.790558
1000.273357	-3.002200	3.643700	-10.938000	24.822826	0.000990	20.801565
1001.285721	-3.007800	3.642700	-10.956000	24.820987	0.000991	20.789288
1002.283729	-3.003700	3.642100	-10.939000	24.819890	0.000991	20.793877
1003.276732	-2.992500	3.642600	-10.899000	24.794875	0.000991	20.778729
1004.272789	-2.999300	3.642300	-10.923000	24.798259	0.000990	20.791134
1005.277619	-2.992100	3.643500	-10.901000	24.763946	0.000990	20.783251
1006.273347	-3.008900	3.642500	-10.959000	24.750564	0.000989	20.778831
1007.275097	-3.021400	3.641400	-11.001000	24.765912	0.000989	20.767681
1008.276759	-3.000700	3.641000	-10.925000	24.787326	0.000989	20.784429
1009.275008	-2.998600	3.640500	-10.915000	24.804985	0.000988	20.796461
1010.275397	-2.997500	3.640400	-10.912000	24.814906	0.000988	20.790771
1011.278247	-2.990200	3.641000	-10.887000	24.802815	0.000988	20.781482
1012.276077	-2.990500	3.640300	-10.885000	24.792345	0.000989	20.789941
1013.274913	-2.992400	3.640900	-10.893000	24.797384	0.000987	20.786463
1014.281034	-2.988100	3.640900	-10.879000	24.751265	0.000987	20.778586
1015.274986	-2.980600	3.641000	-10.852000	24.763265	0.000986	20.791103
1016.275668	-2.992200	3.638500	-10.886000	24.749629	0.000985	20.780264
1017.278840	-2.987000	3.640200	-10.872000	24.768630	0.000984	20.796013
1018.276356	-2.996000	3.639200	-10.902000	24.771886	0.000985	20.791220
1019.276613	-3.009700	3.637900	-10.948000	24.763686	0.000985	20.779198
1020.283616	-2.999700	3.638300	-10.913000	24.740407	0.000984	20.795666
1021.277405	-3.002300	3.638500	-10.923000	24.748043	0.000985	20.781518
1022.278889	-3.009900	3.638000	-10.949000	24.762284	0.000983	20.778265
1023.281511	-2.987700	3.638100	-10.868000	24.798649	0.000983	20.798164
1024.283208	-3.001300	3.638400	-10.919000	24.812889	0.000982	20.786377
1025.279449	-2.994100	3.636700	-10.887000	24.808673	0.000982	20.789731
1026.281259	-2.994200	3.638100	-10.892000	24.819478	0.000982	20.790619
1027.278570	-2.990000	3.636600	-10.872000	24.846164	0.000983	20.782313
1028.278040	-2.991900	3.637100	-10.881000	24.796068	0.000982	20.790358
1029.283782	-3.002700	3.635600	-10.916000	24.807880	0.000983	20.780401
1030.277517	-3.002200	3.635200	-10.912000	24.821388	0.000980	20.794906
1031.278938	-3.005400	3.636800	-10.929000	24.833484	0.000980	20.780019
1032.286066	-3.000800	3.635800	-10.909000	24.848029	0.000981	20.778020
1033.279255	-3.016500	3.633000	-10.958000	24.842217	0.000981	20.772187
1034.280781	-3.000000	3.635500	-10.905000	24.849202	0.000980	20.776353
1035.283678	-3.002200	3.633200	-10.907000	24.831899	0.000979	20.776057
1036.282443	-2.981500	3.633500	-10.833000	24.825666	0.000978	20.783078
1037.283722	-2.997100	3.633700	-10.889000	24.831259	0.000978	20.789165
1038.284110	-2.991200	3.634300	-10.870000	24.836405	0.000980	20.802865
1039.284844	-2.983500	3.635600	-10.846000	24.861435	0.000978	20.781043
1040.282953	-2.984500	3.633500	-10.843000	24.881018	0.000977	20.780309
1041.285125	-2.999700	3.633200	-10.897000	24.882003	0.000975	20.794575
1042.283883	-3.015000	3.631300	-10.948000	24.874444	0.000976	20.781772
1043.284788	-2.988700	3.633600	-10.858000	24.846891	0.000977	20.790154
1044.287369	-2.976800	3.630900	-10.806000	24.852265	0.000976	20.770892
1045.282937	-3.003000	3.631100	-10.904000	24.809861	0.000974	20.814158
1046.284185	-3.004200	3.630800	-10.907000	24.833418	0.000974	20.782797
1047.291218	-3.003100	3.629700	-10.900000	24.827225	0.000974	20.792229
1048.285281	-3.006600	3.630200	-10.913000	24.843070	0.000973	20.783949
1049.284110	-3.003700	3.629000	-10.899000	24.854510	0.000975	20.800173
1050.301265	-2.995800	3.631400	-10.877000	24.872143	0.000974	20.778988
1051.291544	-3.000300	3.628900	-10.887000	24.888079	0.000975	20.809207
1052.291750	-3.000500	3.628700	-10.886000	24.896836	0.000972	20.805669
1053.288148	-2.983200	3.630300	-10.828000	24.896978	0.000973	20.804863
1054.284295	-2.988000	3.629100	-10.843000	24.876075	0.000970	20.790047
1055.283144	-2.987700	3.628400	-10.840000	24.901063	0.000972	20.800427
1056.288358	-2.991200	3.629800	-10.857000	24.924455	0.000970	20.780284
1057.285167	-3.009000	3.628100	-10.916000	24.933237	0.000971	20.789099
1058.283526	-2.994200	3.628800	-10.864000	24.942350	0.000971	20.808676
1059.289571	-3.020400	3.627500	-10.955000	24.924719	0.000972	20.805679
1060.284205	-2.995400	3.627600	-10.865000	24.947572	0.000970	20.806331
1061.285630	-2.982900	3.627900	-10.819000	24.956598	0.000969	20.807330
1062.290024	-3.016000	3.625300	-10.933000	24.987421	0.000970	20.790852
1063.287284	-2.981400	3.627900	-10.815000	24.992348	0.000968	20.817609
1064.287661	-3.000400	3.626200	-10.879000	24.966097	0.000968	20.788889
1065.291076	-2.999300	3.625600	-10.872000	24.936722	0.000969	20.803502
1066.289894	-2.996900	3.624900	-10.862000	24.930936	0.000967	20.819979
1067.290644	-3.014400	3.624400	-10.925000	24.928178	0.000966	20.788288
1068.292253	-2.996600	3.625500	-10.863000	24.873250	0.000966	20.789583
1069.295067	-3.013400	3.624400	-10.920000	24.875866	0.000966	20.790786
1070.293113	-3.011100	3.623400	-10.910000	24.815124	0.000964	20.793835
1071.293726	-3.001100	3.625300	-10.880000	24.814753	0.000965	20.785876
1072.293419	-2.982400	3.623900	-10.806000	24.803978	0.000965	20.811572
1073.292442	-3.004600	3.623100	-10.885000	24.845630	0.000963	20.796476
1074.299825	-2.998500	3.623200	-10.863000	24.827753	0.000963	20.809828
1075.295316	-3.011900	3.622600	-10.910000	24.836882	0.000965	20.799076
1076.293040	-3.006800	3.622300	-10.891000	24.886539	0.000962	20.804343
1077.297164	-2.992300	3.622500	-10.839000	24.875993	0.000964	20.782379
1078.296299	-2.993600	3.623000	-10.844000	24.873859	0.000963	20.798729
1079.295791	-2.996000	3.623000	-10.853000	24.906187	0.000960	20.815054
1080.301980	-3.003100	3.622600	-10.877000	24.914767	0.000962	20.809915
1081.296610	-2.974700	3.622000	-10.774000	24.922351	0.000961	20.798087
1082.296523	-2.997400	3.621600	-10.855000	24.952474	0.000959	20.798923
1083.298793	-3.027000	3.619600	-10.955000	24.943696	0.000961	20.816665
1084.301115	-2.988700	3.621300	-10.822000	24.927725	0.000963	20.820550
1085.295888	-2.986700	3.620800	-10.812000	24.932104	0.000959	20.805031
1086.301791	-2.978600	3.620600	-10.784000	24.947770	0.000959	20.807952
1087.302369	-3.007600	3.619800	-10.885000	24.974442	0.000960	20.802481
1088.297498	-3.001000	3.620400	-10.864000	24.983748	0.000958	20.813718
1089.301332	-2.975000	3.619400	-10.766000	24.973162	0.000959	20.831542
1090.299481	-2.990400	3.619300	-10.821000	24.991895	0.000958	20.801508
1091.299335	-2.994600	3.618800	-10.834000	25.001901	0.000957	20.795904
1092.301506	-3.025200	3.618100	-10.943000	25.006666	0.000956	20.811118
1093.302347	-3.016000	3.619000	-10.913000	25.037918	0.000956	20.824471
1094.298924	-2.990900	3.616300	-10.814000	25.034317	0.000955	20.822752
1095.302503	-2.983900	3.618200	-10.795000	25.036933	0.000955	20.829645
1096.304233	-3.015200	3.616200	-10.902000	25.045171	0.000953	20.798561
1097.301383	-3.004500	3.618200	-10.868000	25.037751	0.000955	20.812923
1098.304314	-3.000200	3.617500	-10.852000	25.029106	0.000955	20.811832
1099.302441	-3.014300	3.616500	-10.900000	25.037481	0.000955	20.824506
1100.299637	-2.997700	3.616400	-10.840000	25.004720	0.000953	20.819596
1101.302368	-3.023600	3.614200	-10.926000	25.013264	0.000953	20.816792
1102.304000	-3.022800	3.615500	-10.926000	25.023092	0.000951	20.816700
1103.301633	-2.995200	3.615200	-10.828000	25.025606	0.000952	20.831552
1104.304770	-3.001600	3.615200	-10.851000	25.019455	0.000950	20.823481
1105.303377	-2.995400	3.614500	-10.826000	25.029359	0.000951	20.824414
1106.303375	-3.019900	3.613600	-10.911000	25.018124	0.000951	20.815507
1107.310675	-3.008300	3.612200	-10.865000	25.022055	0.000950	20.830359
1108.307380	-3.025900	3.613400	-10.933000	25.012684	0.000951	20.829013
1109.303442	-2.984900	3.614200	-10.788000	25.000006	0.000949	20.832882
1110.304025	-3.000800	3.613100	-10.841000	24.963008	0.000949	20.822298
1111.306328	-3.006000	3.612100	-10.857000	24.951249	0.000949	20.805754
1112.307125	-3.013000	3.612100	-10.881000	24.926069	0.000949	20.827896
1113.304586	-3.024500	3.611600	-10.923000	24.950238	0.000947	20.823705
1114.305316	-3.019300	3.611600	-10.902000	24.928736	0.000948	20.836736
1115.305568	-3.001300	3.610200	-10.834000	24.910825	0.000946	20.833932
1116.306705	-2.985800	3.613100	-10.787000	24.902331	0.000947	20.831098
1117.307257	-2.991200	3.612200	-10.803000	24.909570	0.000946	20.823190
1118.306273	-3.001800	3.610300	-10.836000	24.906440	0.000946	20.826213
1119.307617	-2.996300	3.612100	-10.822000	24.933764	0.000944	20.828508
1120.308391	-2.985200	3.609600	-10.774000	24.950964	0.000944	20.823012
1121.310326	-2.992900	3.610100	-10.803000	24.938016	0.000942	20.827559
1122.309611	-3.012800	3.608800	-10.871000	24.952366	0.000945	20.840065
1123.311380	-3.010600	3.610600	-10.868000	24.930214	0.000945	20.833004
1124.309957	-3.004600	3.609100	-10.843000	24.920725	0.000945	20.843868
1125.314363	-3.001800	3.608900	-10.832000	24.956907	0.000943	20.832769
1126.310470	-3.007800	3.608800	-10.854000	24.985560	0.000940	20.849201
1127.309861	-3.007600	3.609000	-10.852000	24.998939	0.000943	20.833234
1128.310653	-3.004100	3.607700	-10.837000	25.022339	0.000941	20.846764
1129.310450	-2.984100	3.609000	-10.768000	25.041462	0.000942	20.837511
1130.308885	-2.993800	3.606700	-10.796000	25.073699	0.000941	20.854697
1131.315330	-2.995500	3.607600	-10.806000	25.091100	0.000939	20.821431
1132.313782	-2.991900	3.607300	-10.791000	25.107784	0.000941	20.827748
1133.310013	-3.005500	3.606100	-10.837000	25.112878	0.000940	20.860361
1134.317223	-3.010500	3.604800	-10.850000	25.105473	0.000938	20.848661
1135.312430	-3.002400	3.605100	-10.822000	25.094162	0.000939	20.826402
1136.309732	-3.006500	3.603600	-10.833000	25.071018	0.000939	20.845841
1137.312411	-3.013900	3.604400	-10.862000	25.036434	0.000938	20.864231
1138.311370	-2.998900	3.604600	-10.808000	25.015650	0.000935	20.831515
1139.315777	-2.991000	3.604200	-10.779000	25.011002	0.000936	20.837281
1140.314488	-2.994900	3.604500	-10.793000	24.997624	0.000935	20.828594
1141.312905	-3.007800	3.604600	-10.841000	25.033549	0.000935	20.849007
1142.309862	-2.978200	3.604200	-10.733000	25.074441	0.000936	20.853071
1143.314211	-2.998400	3.603000	-10.803000	25.078819	0.000936	20.848457
1144.315102	-2.981600	3.602900	-10.741000	25.074873	0.000936	20.855400
1145.313343	-2.983300	3.603300	-10.749000	25.115890	0.000935	20.850109
1146.313153	-3.004200	3.603100	-10.823000	25.088494	0.000935	20.856746
1147.313448	-2.990300	3.601800	-10.769000	25.075833	0.000934	20.867269
1148.310574	-3.012600	3.600800	-10.847000	25.050427	0.000935	20.875431
1149.311495	-2.988700	3.601900	-10.764000	25.053607	0.000933	20.849227
1150.311459	-2.997200	3.601800	-10.795000	25.027998	0.000931	20.851021
1151.313426	-2.992200	3.602200	-10.777000	25.068173	0.000933	20.840616
1152.312029	-3.016500	3.600100	-10.858000	25.073034	0.000933	20.851658
1153.312473	-2.962100	3.601500	-10.666000	25.048411	0.000930	20.864873
1154.314068	-2.991800	3.600800	-10.772000	25.060870	0.000930	20.863629
1155.311865	-2.983900	3.599900	-10.741000	25.066066	0.000929	20.842767
1156.315240	-2.986300	3.599500	-10.748000	25.072602	0.000930	20.860234
1157.312905	-3.001700	3.597700	-10.797000	25.078169	0.000930	20.863925
1158.313091	-3.006600	3.598800	-10.818000	25.057731	0.000928	20.862375
1159.316193	-2.979800	3.600000	-10.726000	25.082115	0.000930	20.851292
1160.312799	-2.981600	3.598000	-10.726000	25.087159	0.000929	20.855406
1161.315203	-2.981000	3.598400	-10.725000	25.103523	0.000927	20.850970
1162.314147	-2.984000	3.598700	-10.737000	25.106230	0.000927	20.862222
1163.315161	-2.999300	3.598000	-10.791000	25.111080	0.000927	20.870884
1164.314438	-2.999100	3.595900	-10.783000	25.103716	0.000927	20.875819
1165.316196	-2.981500	3.597400	-10.724000	25.099861	0.000926	20.887121
1166.317483	-2.971900	3.597400	-10.689000	25.119572	0.000925	20.859495
1167.316064	-3.002600	3.597200	-10.800000	25.119928	0.000925	20.871705
1168.316214	-3.009300	3.595000	-10.818000	25.116124	0.000925	20.865990
1169.318040	-2.979900	3.596300	-10.716000	25.113036	0.000924	20.868579
1170.315226	-2.991000	3.594600	-10.750000	25.133346	0.000924	20.866683
1171.315014	-2.986900	3.595400	-10.738000	25.120390	0.000923	20.863160
1172.315507	-2.946400	3.596900	-10.596000	25.098907	0.000922	20.856767
1173.316993	-3.015300	3.595000	-10.838000	25.067387	0.000922	20.871118
1174.317254	-2.991000	3.594100	-10.749000	25.024950	0.000919	20.869773
1175.319153	-3.013400	3.593500	-10.828000	24.991082	0.000923	20.865174
1176.315892	-3.010500	3.593300	-10.817000	24.997147	0.000921	20.874106
1177.322914	-2.998100	3.593900	-10.774000	25.034565	0.000920	20.874682
1178.318537	-3.001000	3.592100	-10.779000	25.061439	0.000919	20.873683
1179.318825	-2.999500	3.593200	-10.776000	25.078926	0.000919	20.858047
1180.320736	-2.998200	3.591600	-10.767000	25.139384	0.000918	20.887442
1181.317881	-2.988600	3.592100	-10.734000	25.155941	0.000919	20.876563
1182.317615	-3.002400	3.591200	-10.781000	25.150720	0.000916	20.864685
1183.320513	-2.969900	3.593200	-10.670000	25.129989	0.000919	20.874692
1184.317859	-3.005400	3.591600	-10.793000	25.128724	0.000915	20.890017
1185.319766	-3.005500	3.592500	-10.795000	25.139191	0.000916	20.874921
1186.325047	-3.009800	3.590500	-10.806000	25.104163	0.000916	20.896654
1187.322660	-2.998000	3.590800	-10.763000	25.129466	0.000913	20.884124
1188.321307	-2.988900	3.591700	-10.734000	25.131238	0.000915	20.889221
1189.324182	-2.986900	3.590900	-10.725000	25.176453	0.000915	20.897628
1190.322516	-2.994800	3.589300	-10.747000	25.158221	0.000913	20.882645
1191.323626	-3.015500	3.587600	-10.818000	25.189611	0.000915	20.880968
1192.326466	-3.000400	3.587500	-10.763000	25.182207	0.000913	20.900085
1193.322005	-2.990100	3.589600	-10.732000	25.180394	0.000912	20.884042
1194.323621	-3.012900	3.587600	-10.807000	25.164741	0.000912	20.897725
1195.327751	-2.999800	3.586800	-10.759000	25.195888	0.000910	20.875416
1196.323606	-2.972900	3.588500	-10.667000	25.202718	0.000912	20.902185
1197.323766	-3.029300	3.586400	-10.863000	25.197853	0.000910	20.889242
1198.323946	-3.001700	3.588200	-10.770000	25.193308	0.000911	20.916918
1199.324051	-3.012200	3.586900	-10.804000	25.197102	0.000910	20.905555
1200.324867	-3.009800	3.586900	-10.795000	25.221198	0.000910	20.901298
1201.329412	-3.005300	3.584900	-10.772000	25.227246	0.000908	20.898836
1202.328668	-3.000200	3.586100	-10.757000	25.238378	0.000910	20.885831
1203.326090	-2.997300	3.585400	-10.744000	25.262540	0.000909	20.901553
1204.328255	-3.005100	3.582700	-10.765000	25.274077	0.000907	20.915032
1205.329181	-2.981500	3.586000	-10.690000	25.303865	0.000907	20.914593
1206.324799	-2.992300	3.583600	-10.722000	25.305078	0.000907	20.902063
1207.340826	-3.006100	3.584300	-10.774000	25.272071	0.000905	20.900217
1208.332975	-3.001100	3.584200	-10.755000	25.285548	0.000904	20.902843
1209.327665	-3.005100	3.583200	-10.766000	25.282994	0.000906	20.891270
1210.331629	-3.005200	3.582500	-10.765000	25.279064	0.000905	20.915297
1211.333532	-3.021400	3.581800	-10.822000	25.313487	0.000903	20.898178
1212.328130	-3.017200	3.581600	-10.805000	25.265444	0.000905	20.905417
1213.328605	-3.009900	3.580800	-10.777000	25.291596	0.000903	20.898958
1214.328900	-3.022000	3.581100	-10.821000	25.277875	0.000904	20.911733
1215.327476	-2.984600	3.582600	-10.691000	25.296547	0.000902	20.897765
1216.327369	-3.015400	3.580800	-10.796000	25.257070	0.000902	20.909337
1217.331084	-3.014700	3.581200	-10.795000	25.253759	0.000902	20.926874
1218.332235	-3.010600	3.580400	-10.779000	25.230481	0.000903	20.913936
1219.328897	-3.005900	3.579300	-10.758000	25.243984	0.000901	20.940291
1220.331561	-3.001400	3.579700	-10.741000	25.238662	0.000899	20.910296
1221.328480	-3.004800	3.578400	-10.751000	25.265850	0.000900	20.921944
1222.328213	-3.022200	3.577800	-10.811000	25.273813	0.000899	20.923774
1223.332535	-3.003200	3.578600	-10.746000	25.261483	0.000897	20.919931
1224.330108	-3.001300	3.579400	-10.742000	25.216744	0.000899	20.933807
1225.329756	-3.016200	3.578200	-10.791000	25.224798	0.000897	20.929565
1226.332753	-2.984200	3.579500	-10.682000	25.213159	0.000898	20.936845
1227.333114	-2.988800	3.579200	-10.697000	25.229739	0.000896	20.929311
1228.331361	-3.019000	3.577400	-10.799000	25.218379	0.000896	20.930707
1229.332509	-2.998200	3.576900	-10.724000	25.208385	0.000894	20.932053
1230.340995	-3.001600	3.576000	-10.733000	25.221223	0.000895	20.909857
1231.333268	-2.969300	3.577500	-10.621000	25.217470	0.000896	20.928847
1232.333306	-2.998800	3.576600	-10.724000	25.188483	0.000894	20.920609
1233.336926	-3.011400	3.576000	-10.768000	25.182470	0.000893	20.918365
1234.333828	-2.994800	3.575000	-10.706000	25.191073	0.000892	20.948336
1235.334058	-2.976100	3.576600	-10.643000	25.200442	0.000893	20.920287
1236.334821	-3.007000	3.574300	-10.747000	25.213575	0.000893	20.931574
1237.332904	-2.985300	3.576000	-10.674000	25.184090	0.000891	20.945593
1238.332712	-3.000200	3.575700	-10.727000	25.192667	0.000892	20.946618
1239.335152	-2.992200	3.574600	-10.694000	25.144518	0.000891	20.934317
1240.333183	-2.995700	3.573500	-10.704000	25.121958	0.000889	20.929688
1241.335449	-3.009400	3.573300	-10.753000	25.132989	0.000891	20.943605
1242.333332	-2.995900	3.573500	-10.706000	25.171475	0.000891	20.938619
1243.334810	-3.005800	3.572200	-10.737000	25.167940	0.000889	20.940760
1244.334386	-2.987800	3.572500	-10.673000	25.227855	0.000889	20.918885
1245.336408	-2.991200	3.572500	-10.684000	25.225814	0.000887	20.947178
1246.335422	-2.997800	3.572700	-10.709000	25.217297	0.000887	20.946215
1247.335191	-2.991600	3.572100	-10.685000	25.221675	0.000886	20.937334
1248.337316	-2.979000	3.572600	-10.641000	25.273101	0.000887	20.944395
1249.336709	-2.976600	3.571100	-10.627000	25.288584	0.000886	20.937655
1250.334832	-3.013800	3.571300	-10.763000	25.305306	0.000888	20.958235
1251.338132	-2.997500	3.570500	-10.702000	25.302127	0.000885	20.953622
1252.335837	-2.990800	3.570800	-10.678000	25.310435	0.000885	20.954376
1253.335793	-2.983700	3.570600	-10.653000	25.318016	0.000885	20.952979
1254.337517	-2.993600	3.569600	-10.685000	25.291951	0.000883	20.961421
1255.336537	-3.013300	3.570100	-10.757000	25.291250	0.000883	20.957873
1256.344462	-3.005500	3.570000	-10.729000	25.272040	0.000882	20.957078
1257.339120	-3.039200	3.567100	-10.840000	25.256455	0.000884	20.961345
1258.340069	-2.999100	3.570000	-10.706000	25.236427	0.000882	20.958780
1259.340657	-2.980900	3.569400	-10.639000	25.201006	0.000882	20.949299
1260.340467	-3.013800	3.567000	-10.748000	25.182957	0.000881	20.944456
1261.340916	-3.002600	3.568000	-10.711000	25.161139	0.000881	20.978024
1262.339996	-3.005000	3.566400	-10.716000	25.172155	0.000880	20.977229
1263.341194	-2.987000	3.567600	-10.655000	25.178767	0.000881	20.964428
1264.342166	-3.015000	3.566200	-10.752000	25.217099	0.000879	20.964505
1265.342159	-3.008200	3.565800	-10.725000	25.242424	0.000879	20.951526
1266.342439	-3.005500	3.565500	-10.715000	25.247645	0.000876	20.965774
1267.344540	-2.995600	3.566100	-10.681000	25.252520	0.000876	20.954549
1268.342318	-2.990300	3.566200	-10.663000	25.252139	0.000877	20.981664
1269.343025	-2.996900	3.565200	-10.684000	25.226509	0.000876	20.967314
1270.344728	-3.016800	3.565700	-10.756000	25.256120	0.000875	20.963852
1271.343851	-2.994300	3.564300	-10.671000	25.244044	0.000878	20.955523
1272.343581	-2.998500	3.566400	-10.692000	25.220735	0.000875	20.944450
1273.344191	-3.004900	3.563600	-10.708000	25.212899	0.000874	20.970245
1274.342999	-3.010000	3.562800	-10.723000	25.233106	0.000873	20.975832
1275.343422	-3.011000	3.563200	-10.727000	25.213102	0.000874	20.959071
1276.344462	-2.977700	3.564300	-10.612000	25.185272	0.000875	20.953417
1277.344635	-2.993100	3.564100	-10.667000	25.191631	0.000871	20.980659
1278.347241	-3.002900	3.562900	-10.698000	25.171499	0.000871	20.962823
1279.346850	-2.995500	3.562500	-10.670000	25.183038	0.000871	20.959361
1280.346250	-3.012400	3.560700	-10.725000	25.206526	0.000870	20.951995
1281.347113	-3.010500	3.561700	-10.721000	25.203179	0.000870	20.963332
1282.347168	-2.999200	3.562600	-10.684000	25.207480	0.000869	20.941575
1283.346573	-3.018800	3.559100	-10.743000	25.238768	0.000870	20.939796
1284.346293	-2.991900	3.560600	-10.651000	25.258014	0.000868	20.950109
1285.345545	-2.987100	3.559100	-10.631000	25.279443	0.000868	20.944598
1286.348114	-3.013900	3.559700	-10.727000	25.319584	0.000867	20.941753
1287.346991	-3.002700	3.559400	-10.687000	25.318944	0.000868	20.914087
1288.352985	-3.020900	3.558900	-10.750000	25.347487	0.000866	20.931838
1289.349644	-2.996400	3.559400	-10.664000	25.388412	0.000866	20.924569
1290.346918	-2.996100	3.559700	-10.664000	25.385284	0.000864	20.952719
1291.347722	-2.985300	3.558300	-10.622000	25.402629	0.000866	20.943583
1292.347460	-2.987600	3.557900	-10.628000	25.417242	0.000865	20.932654
1293.349534	-3.008300	3.557000	-10.700000	25.427884	0.000865	20.940968
1294.349844	-3.028400	3.557600	-10.773000	25.437302	0.000861	20.931935
1295.348524	-3.006600	3.556600	-10.693000	25.422614	0.000865	20.930462
1296.349554	-3.003600	3.555800	-10.680000	25.396313	0.000865	20.923967
1297.349305	-2.985900	3.556100	-10.617000	25.373413	0.000862	20.930844
1298.350602	-2.998500	3.556200	-10.663000	25.347568	0.000862	20.938083
1299.349639	-2.984500	3.556300	-10.613000	25.310251	0.000863	20.928591
1300.353618	-2.995800	3.554600	-10.648000	25.277295	0.000861	20.935804
1301.350392	-2.968200	3.558200	-10.560000	25.199522	0.000860	20.939276
1302.350570	-2.988600	3.554600	-10.622000	25.195424	0.000861	20.927102
1303.353009	-3.003700	3.554400	-10.674000	25.190315	0.000859	20.935722
1304.349862	-2.993200	3.553800	-10.637000	25.210598	0.000860	20.936645
1305.350357	-2.996600	3.554600	-10.651000	25.249939	0.000861	20.935366
1306.354389	-3.001100	3.554000	-10.665000	25.301426	0.000858	20.911671
1307.350209	-2.996700	3.552700	-10.645000	25.325155	0.000858	20.932174
1308.350296	-2.994400	3.553600	-10.640000	25.322448	0.000856	20.931828
1309.350676	-3.002700	3.553100	-10.668000	25.319919	0.000855	20.925970
1310.349869	-2.979600	3.552900	-10.585000	25.355667	0.000856	20.920138
1311.350571	-3.020100	3.551100	-10.724000	25.388671	0.000855	20.929569
1312.350298	-2.984300	3.552100	-10.599000	25.387701	0.000855	20.933337
1313.352081	-3.005900	3.552400	-10.678000	25.387584	0.000853	20.903351
1314.352585	-3.019600	3.550000	-10.717000	25.348339	0.000854	20.915153
1315.350773	-2.990800	3.551600	-10.621000	25.305417	0.000854	20.912833
1316.353682	-3.016200	3.550800	-10.710000	25.290955	0.000853	20.914434
1317.353035	-3.010900	3.550400	-10.688000	25.263462	0.000853	20.897264
1318.356903	-3.000500	3.550600	-10.651000	25.272857	0.000851	20.911436
1319.354854	-2.988600	3.550300	-10.609000	25.247913	0.000852	20.895403
1320.352265	-2.987700	3.550400	-10.607000	25.286715	0.000850	20.906384
1321.352534	-2.980500	3.549500	-10.578000	25.298790	0.000850	20.900491
1322.352511	-2.969700	3.549000	-10.537000	25.283409	0.000849	20.905910
1323.352956	-2.989600	3.548700	-10.607000	25.269089	0.000849	20.920928
1324.352227	-3.001700	3.547900	-10.649000	25.237178	0.000846	20.915917
1325.351985	-2.970500	3.550600	-10.546000	25.204768	0.000849	20.914673
1326.355214	-2.992600	3.547500	-10.615000	25.198146	0.000848	20.906603
1327.352986	-2.985600	3.548300	-10.593000	25.199227	0.000847	20.905318
1328.356301	-3.002100	3.547400	-10.648000	25.226249	0.000846	20.897835
1329.354311	-3.008800	3.545900	-10.668000	25.267911	0.000847	20.889403
1330.355513	-3.015500	3.546700	-10.694000	25.277752	0.000845	20.923936
1331.353109	-2.992900	3.545500	-10.611000	25.319823	0.000846	20.914495
1332.359520	-2.961800	3.547100	-10.504000	25.324149	0.000846	20.907460
1333.357577	-3.015700	3.545500	-10.691000	25.326089	0.000845	20.919363
1334.354212	-3.015700	3.545400	-10.691000	25.286151	0.000844	20.910085
1335.359677	-2.982800	3.544300	-10.571000	25.275507	0.000844	20.898926
1336.357300	-2.988000	3.545000	-10.592000	25.291473	0.000843	20.894093
1337.356155	-2.991300	3.543900	-10.599000	25.293133	0.000844	20.911405
1338.360448	-3.014800	3.544200	-10.685000	25.309418	0.000842	20.913057
1339.359212	-2.998600	3.544000	-10.626000	25.276833	0.000842	20.896937
1340.356767	-3.027200	3.543400	-10.725000	25.302182	0.000842	20.927127
1341.365093	-3.014700	3.543200	-10.680000	25.311271	0.000840	20.895005
1342.356297	-2.991300	3.542400	-10.596000	25.338788	0.000839	20.892288
1343.357680	-3.004200	3.542500	-10.640000	25.373565	0.000839	20.884060
1344.358187	-3.011700	3.539900	-10.660000	25.389798	0.000840	20.914581
1345.360250	-2.991900	3.543300	-10.600000	25.412799	0.000838	20.867981
1346.359298	-2.980700	3.540700	-10.553000	25.388498	0.000839	20.893364
1347.359777	-2.970800	3.541300	-10.520000	25.399425	0.000838	20.897697
1348.360969	-2.985000	3.541500	-10.569000	25.425934	0.000836	20.908668
1349.361234	-3.015400	3.541500	-10.677000	25.448010	0.000837	20.902861
1350.360390	-3.028800	3.537900	-10.714000	25.458078	0.000837	20.905859
1351.358957	-2.998800	3.540700	-10.617000	25.454458	0.000835	20.879941
1352.364885	-2.997000	3.539700	-10.608000	25.466044	0.000835	20.895841
1353.364345	-3.002100	3.538400	-10.622000	25.447198	0.000834	20.907261
1354.361440	-3.011300	3.539000	-10.657000	25.418521	0.000836	20.897432
1355.365696	-3.027200	3.537100	-10.706000	25.408564	0.000833	20.888857
1356.365028	-2.964800	3.539000	-10.491000	25.392743	0.000831	20.874868
1357.361960	-2.995400	3.538500	-10.597000	25.347182	0.000833	20.878906
1358.365229	-2.974100	3.538600	-10.523000	25.354291	0.000832	20.868027
1359.362892	-3.014200	3.537200	-10.660000	25.386300	0.000830	20.882148
1360.364233	-2.985100	3.538400	-10.560000	25.392926	0.000829	20.886431
1361.364131	-3.001600	3.537200	-10.616000	25.383289	0.000830	20.863479
1362.367489	-3.000900	3.537200	-10.613000	25.383330	0.000828	20.884381
1363.367438	-3.010200	3.534800	-10.639000	25.400588	0.000829	20.878952
1364.366590	-2.984600	3.537700	-10.558000	25.423035	0.000828	20.874466
1365.369230	-3.009800	3.536500	-10.644000	25.428438	0.000828	20.872778
1366.368494	-3.016900	3.534000	-10.660000	25.418760	0.000827	20.891983
1367.369443	-3.010600	3.534100	-10.639000	25.439156	0.000828	20.881644
1368.371066	-2.990500	3.534600	-10.569000	25.439856	0.000825	20.889933
1369.368858	-3.003600	3.535100	-10.617000	25.474199	0.000826	20.885065
1370.368578	-3.008100	3.534800	-10.632000	25.444264	0.000826	20.892936
1371.371454	-2.997600	3.534100	-10.592000	25.416465	0.000825	20.874032
1372.372043	-2.996100	3.533300	-10.585000	25.403360	0.000825	20.878417
1373.368731	-3.009900	3.531800	-10.629000	25.375282	0.000826	20.873930
1374.371250	-3.012800	3.531000	-10.637000	25.352793	0.000824	20.871738
1375.369215	-3.001900	3.532500	-10.604000	25.329821	0.000822	20.876174
1376.369666	-2.998100	3.531700	-10.587000	25.331238	0.000824	20.880441
1377.368902	-3.005200	3.531300	-10.611000	25.319854	0.000821	20.881338
1378.372126	-2.975700	3.532700	-10.511000	25.325317	0.000821	20.869281
1379.372689	-2.996200	3.530600	-10.578000	25.303223	0.000820	20.876021
1380.370998	-3.008100	3.529400	-10.616000	25.307205	0.000819	20.877647
1381.370543	-2.987000	3.530200	-10.543000	25.270191	0.000818	20.871305
1382.371289	-2.992500	3.529500	-10.561000	25.288111	0.000820	20.877443
1383.372562	-2.990700	3.530400	-10.557000	25.307245	0.000819	20.879584
1384.370157	-2.986600	3.530800	-10.544000	25.307230	0.000819	20.879095
1385.371710	-2.993200	3.528000	-10.559000	25.272004	0.000817	20.887823
1386.372653	-3.007200	3.529500	-10.613000	25.258984	0.000817	20.870958
1387.373041	-3.038500	3.527900	-10.718000	25.239585	0.000817	20.877560
1388.372503	-3.017600	3.527200	-10.643000	25.217515	0.000816	20.868205
1389.373275	-3.018700	3.525100	-10.640000	25.205540	0.000816	20.860451
1390.374514	-2.982400	3.527700	-10.520000	25.243054	0.000818	20.858284
1391.374299	-3.002400	3.528100	-10.591000	25.280109	0.000815	20.873676
1392.373367	-3.013900	3.526500	-10.627000	25.273573	0.000814	20.863321
1393.372865	-3.017300	3.525400	-10.636000	25.295363	0.000814	20.855328
1394.374370	-2.990000	3.527800	-10.547000	25.316614	0.000815	20.867181
1395.378793	-2.991300	3.526800	-10.548000	25.353306	0.000814	20.889322
1396.374725	-2.998200	3.524500	-10.566000	25.347258	0.000814	20.864285
1397.374748	-2.992200	3.526300	-10.550000	25.369234	0.000813	20.865014
1398.393598	-2.996000	3.523000	-10.553000	25.421431	0.000812	20.853890
1399.386108	-2.989000	3.524300	-10.533000	25.425721	0.000812	20.880007
1400.380143	-2.986900	3.525200	-10.529000	25.432611	0.000810	20.863694
1401.377234	-3.013200	3.523600	-10.615000	25.408925	0.000811	20.872625
1402.378979	-2.991900	3.524200	-10.543000	25.403386	0.000809	20.877020
1403.375747	-2.989500	3.524500	-10.535000	25.392449	0.000811	20.861297
1404.382000	-2.986400	3.523700	-10.522000	25.427671	0.000810	20.880069
1405.390728	-2.998200	3.523600	-10.564000	25.403985	0.000810	20.853915
1406.377357	-2.986500	3.522300	-10.518000	25.379506	0.000809	20.862052
1407.380340	-3.001700	3.522200	-10.570000	25.333929	0.000808	20.867022
1408.380820	-3.014400	3.521000	-10.612000	25.330288	0.000806	20.841083
1409.387362	-2.998500	3.521400	-10.558000	25.337875	0.000807	20.879518
1410.377709	-3.014700	3.521400	-10.614000	25.326363	0.000805	20.866064
1411.379669	-2.985600	3.519600	-10.507000	25.353113	0.000806	20.871585
1412.381667	-2.989900	3.520100	-10.524000	25.384533	0.000805	20.863306
1413.380452	-2.998000	3.519600	-10.550000	25.412957	0.000805	20.872880
1414.384492	-2.981500	3.520200	-10.495000	25.400705	0.000804	20.842562
1415.378700	-2.986600	3.519100	-10.509000	25.390022	0.000804	20.857438
1416.382149	-3.024100	3.516800	-10.633000	25.362633	0.000803	20.847007
1417.381269	-3.006100	3.518500	-10.575000	25.392637	0.000803	20.842047
1418.380937	-2.996100	3.517600	-10.538000	25.397653	0.000803	20.842342
1419.380949	-3.017500	3.517600	-10.612000	25.397755	0.000802	20.859513
1420.379858	-2.994100	3.518600	-10.534000	25.418186	0.000801	20.851580
1421.385453	-3.019400	3.515300	-10.613000	25.443228	0.000801	20.852070
1422.384566	-3.019500	3.515100	-10.613000	25.477595	0.000800	20.866666
1423.380625	-3.017400	3.515300	-10.607000	25.471736	0.000800	20.861257
1424.382002	-3.003100	3.516800	-10.560000	25.487267	0.000798	20.868317
1425.380607	-3.007800	3.516200	-10.574000	25.508362	0.000797	20.851096
1426.381899	-2.988700	3.514000	-10.501000	25.516795	0.000798	20.866202
1427.384080	-2.980900	3.516600	-10.481000	25.492857	0.000796	20.857336
1428.385707	-2.994200	3.514500	-10.522000	25.462547	0.000797	20.852503
1429.382880	-2.998400	3.513800	-10.534000	25.449544	0.000797	20.842291
1430.386314	-2.989300	3.515700	-10.509000	25.438084	0.000796	20.858758
1431.385473	-3.014000	3.513900	-10.590000	25.427453	0.000795	20.858988
1432.384359	-3.019900	3.513200	-10.608000	25.431179	0.000795	20.837601
1433.388093	-3.030000	3.511500	-10.639000	25.441400	0.000794	20.831269
1434.387182	-3.005500	3.512800	-10.557000	25.435708	0.000794	20.844519
1435.386662	-3.024800	3.511000	-10.619000	25.419781	0.000794	20.856026
1436.383956	-3.015200	3.511300	-10.586000	25.427117	0.000794	20.846798
1437.388402	-2.986000	3.512400	-10.487000	25.417892	0.000793	20.853181
1438.395417	-3.009300	3.511700	-10.566000	25.422152	0.000793	20.828062
1439.385643	-3.021300	3.510600	-10.605000	25.396054	0.000790	20.854012
1440.395778	-3.008800	3.510100	-10.560000	25.393870	0.000792	20.848975
1441.388176	-2.992700	3.510400	-10.504000	25.402583	0.000791	20.842551
1442.385790	-2.982500	3.511200	-10.471000	25.400979	0.000791	20.845681
1443.396542	-2.980800	3.508800	-10.458000	25.434774	0.000792	20.846426
1444.386986	-3.016200	3.508100	-10.580000	25.448965	0.000790	20.844555
1445.394189	-2.972700	3.511500	-10.438000	25.484084	0.000790	20.839518
1446.398029	-2.990500	3.507300	-10.486000	25.500366	0.000789	20.844963
1447.387039	-3.017200	3.507400	-10.582000	25.486993	0.000788	20.833430
1448.385265	-2.999200	3.508200	-10.521000	25.440806	0.000788	20.820715
1449.387218	-3.008800	3.508500	-10.555000	25.460190	0.000788	20.834017
1450.389221	-3.009300	3.506700	-10.552000	25.412835	0.000788	20.837672
1451.389303	-2.997600	3.506300	-10.509000	25.423106	0.000787	20.825227
1452.394486	-3.014000	3.505200	-10.564000	25.422365	0.000786	20.822586
1453.391766	-3.013400	3.506400	-10.565000	25.421065	0.000787	20.828867
1454.387613	-3.013500	3.504800	-10.560000	25.401959	0.000785	20.791665
1455.387356	-3.005500	3.505300	-10.534000	25.395769	0.000785	20.844244
1456.385786	-3.005800	3.505400	-10.536000	25.376561	0.000785	20.827328
1457.389695	-3.035700	3.504800	-10.638000	25.358541	0.000784	20.809234
1458.386981	-3.005000	3.504700	-10.529000	25.390433	0.000784	20.828454
1459.391521	-3.002000	3.504100	-10.518000	25.403233	0.000782	20.838462
1460.389882	-3.007500	3.503800	-10.537000	25.377724	0.000783	20.846512
1461.387548	-3.004400	3.503300	-10.524000	25.375180	0.000782	20.832105
1462.390975	-2.997700	3.503800	-10.503000	25.400425	0.000782	20.821419
1463.398382	-3.005500	3.503700	-10.529000	25.402989	0.000780	20.834424
1464.388645	-3.027500	3.501200	-10.599000	25.429981	0.000781	20.813164
1465.393905	-2.982500	3.502400	-10.444000	25.448000	0.000778	20.833155
1466.390380	-2.980300	3.502400	-10.437000	25.437825	0.000778	20.816300
1467.393985	-2.988200	3.501000	-10.460000	25.428996	0.000779	20.824503
1468.390388	-2.965900	3.503200	-10.388000	25.416703	0.000777	20.835867
1469.391397	-3.003200	3.500000	-10.511000	25.451097	0.000777	20.827256
1470.400782	-2.998400	3.501100	-10.496000	25.491907	0.000777	20.834098
1471.402890	-2.991200	3.501000	-10.471000	25.504975	0.000777	20.819247
1472.393161	-2.976700	3.502100	-10.422000	25.523399	0.000777	20.827317
1473.399240	-2.997400	3.499600	-10.488000	25.555261	0.000776	20.815219
1474.395211	-2.992500	3.500000	-10.473000	25.564140	0.000775	20.808963
1475.402486	-2.996100	3.498600	-10.481000	25.591042	0.000775	20.808005
1476.397722	-3.007300	3.498400	-10.518000	25.607576	0.000772	20.839782
1477.404702	-2.987400	3.498700	-10.451000	25.579964	0.000773	20.830544
1478.397793	-3.005800	3.499300	-10.517000	25.588767	0.000773	20.821842
1479.402477	-3.005300	3.497100	-10.509000	25.591778	0.000773	20.827710
1480.396162	-2.990600	3.499200	-10.464000	25.567009	0.000775	20.792404
1481.398153	-3.006300	3.496200	-10.510000	25.566755	0.000773	20.834822
1482.399662	-3.004100	3.497900	-10.506000	25.557221	0.000773	20.821454
1483.407125	-3.013300	3.496100	-10.534000	25.545062	0.000772	20.824890
1484.405384	-2.989500	3.497700	-10.455000	25.539229	0.000770	20.828989
1485.405480	-2.998500	3.496100	-10.482000	25.541234	0.000769	20.813460
1486.402924	-2.990000	3.496200	-10.452000	25.559033	0.000771	20.816162
1487.397680	-3.012900	3.495200	-10.529000	25.524973	0.000768	20.819889
1488.399970	-2.997600	3.494900	-10.475000	25.497014	0.000771	20.815520
1489.401525	-3.015700	3.495100	-10.538000	25.502670	0.000769	20.821199
1490.401938	-2.996000	3.493300	-10.465000	25.488896	0.000771	20.829652
1491.411340	-3.008000	3.494100	-10.509000	25.489191	0.000768	20.807663
1492.403081	-2.991300	3.493300	-10.448000	25.481611	0.000768	20.798155
1493.402800	-2.995000	3.493900	-10.463000	25.489419	0.000766	20.815953
1494.415437	-3.007400	3.492000	-10.501000	25.476071	0.000766	20.776471
1495.402972	-3.002300	3.492700	-10.484000	25.462911	0.000766	20.797395
1496.401484	-3.006500	3.492200	-10.498000	25.476630	0.000768	20.812119
1497.402373	-2.989400	3.492500	-10.439000	25.467963	0.000767	20.803890
1498.402929	-2.999200	3.491200	-10.469000	25.489389	0.000767	20.830621
1499.404025	-3.016700	3.492200	-10.534000	25.488333	0.000764	20.820552
1500.401842	-2.998800	3.491800	-10.470000	25.539782	0.000766	20.820062
1501.403238	-3.031500	3.490400	-10.579000	25.517693	0.000763	20.814000
1502.406124	-3.006900	3.490500	-10.494000	25.482037	0.000764	20.801428
1503.414010	-3.013500	3.489100	-10.513000	25.487348	0.000764	20.805812
1504.409909	-2.997800	3.490600	-10.463000	25.494176	0.000761	20.830213
1505.401663	-2.984800	3.489600	-10.415000	25.510788	0.000762	20.801377
1506.406693	-2.994300	3.487500	-10.442000	25.507473	0.000761	20.807056
1507.402855	-3.009100	3.488000	-10.495000	25.497375	0.000759	20.799760
1508.413579	-2.996400	3.486800	-10.447000	25.502736	0.000761	20.798980
1509.406336	-2.999700	3.486400	-10.457000	25.515510	0.000761	20.806592
1510.406727	-2.987500	3.486900	-10.416000	25.531690	0.000759	20.810513
1511.412383	-2.992400	3.486100	-10.431000	25.533680	0.000758	20.797813
1512.408383	-2.995100	3.487000	-10.443000	25.523074	0.000759	20.790007
1513.409593	-2.988200	3.485700	-10.414000	25.553357	0.000760	20.794341
1514.410717	-2.996100	3.485100	-10.440000	25.546438	0.000758	20.813470
1515.414385	-2.982500	3.485600	-10.395000	25.566141	0.000755	20.805282
1516.411977	-2.991400	3.486000	-10.427000	25.584757	0.000756	20.817814
1517.410154	-3.007800	3.485100	-10.480000	25.566689	0.000756	20.813893
1518.413055	-2.980400	3.484500	-10.385000	25.511575	0.000754	20.810227
1519.419111	-3.014300	3.483600	-10.499000	25.501939	0.000756	20.802921
1520.415057	-3.015900	3.482500	-10.501000	25.515169	0.000755	20.810518
1521.411666	-2.995200	3.482800	-10.431000	25.488769	0.000755	20.789696
1522.412974	-3.009300	3.482400	-10.478000	25.473903	0.000755	20.797053
1523.417067	-3.013700	3.483000	-10.496000	25.436088	0.000753	20.786581
1524.413139	-3.008700	3.482200	-10.475000	25.408996	0.000752	20.796360
1525.409786	-2.989700	3.481700	-10.408000	25.450279	0.000755	20.792296
1526.415050	-2.976200	3.482900	-10.365000	25.461343	0.000753	20.795345
1527.415924	-2.988800	3.481000	-10.403000	25.453646	0.000752	20.812272
1528.424257	-2.999500	3.480000	-10.437000	25.457591	0.000749	20.786836
1529.419967	-2.998000	3.479800	-10.432000	25.505036	0.000750	20.809825
1530.415371	-2.993300	3.479700	-10.415000	25.518129	0.000750	20.794050
1531.412684	-3.006300	3.479400	-10.459000	25.546494	0.000751	20.782706
1532.416318	-3.006200	3.480100	-10.460000	25.520988	0.000751	20.804033
1533.418892	-3.018000	3.477800	-10.495000	25.483240	0.000749	20.794101
1534.424367	-2.994400	3.479100	-10.416000	25.477930	0.000749	20.782604
1535.411689	-2.998600	3.476400	-10.423000	25.494379	0.000747	20.821408
1536.414833	-2.979800	3.477300	-10.360000	25.514555	0.000747	20.798996
1537.417048	-2.990400	3.477000	-10.396000	25.544818	0.000748	20.794774
1538.411666	-2.990200	3.477900	-10.399000	25.551281	0.000748	20.812170
1539.419090	-3.008000	3.476600	-10.456000	25.577040	0.000746	20.812909
1540.416846	-2.996500	3.476300	-10.415000	25.604844	0.000746	20.811436
1541.423785	-2.993900	3.476800	-10.408000	25.624394	0.000746	20.814474
1542.415442	-2.984900	3.476200	-10.374000	25.598311	0.000746	20.804874
1543.417850	-3.001300	3.473900	-10.424000	25.611175	0.000746	20.824906
1544.429732	-3.030600	3.473900	-10.527000	25.611825	0.000743	20.794264
1545.420656	-3.019100	3.472400	-10.481000	25.621434	0.000743	20.808183
1546.418529	-2.993400	3.473800	-10.397000	25.617734	0.000743	20.801621
1547.421692	-2.998100	3.473800	-10.414000	25.624445	0.000743	20.801249
1548.429475	-2.987800	3.474000	-10.380000	25.618191	0.000741	20.789278
1549.431369	-3.004300	3.474500	-10.437000	25.632739	0.000742	20.824278
1550.421930	-3.014600	3.471400	-10.463000	25.639476	0.000741	20.806862
1551.416317	-2.978800	3.474900	-10.350000	25.626551	0.000740	20.816641
1552.422660	-2.986500	3.471000	-10.365000	25.593326	0.000741	20.799867
1553.425806	-2.994500	3.471900	-10.395000	25.548296	0.000740	20.800637
1554.430316	-3.015100	3.470100	-10.462000	25.548037	0.000740	20.796584
1555.415807	-3.017800	3.469700	-10.470000	25.524648	0.000739	20.799174
1556.417916	-3.005400	3.470500	-10.429000	25.575192	0.000738	20.808683
1557.418966	-2.996200	3.469600	-10.395000	25.585056	0.000739	20.795355
1558.416357	-2.996100	3.470700	-10.398000	25.624627	0.000737	20.821821
1559.420754	-3.030700	3.468300	-10.510000	25.634105	0.000736	20.802417
1560.416007	-2.982400	3.468000	-10.342000	25.642324	0.000737	20.807352
1561.423105	-2.986000	3.468600	-10.356000	25.665928	0.000737	20.809249
1562.425396	-3.004600	3.468800	-10.422000	25.647314	0.000735	20.816631
1563.417523	-2.996800	3.468000	-10.392000	25.622587	0.000736	20.816453
1564.419564	-3.000600	3.468200	-10.406000	25.636785	0.000736	20.810324
1565.418868	-2.993600	3.467500	-10.379000	25.639633	0.000737	20.817926
1566.430420	-2.984600	3.466500	-10.345000	25.660558	0.000736	20.818079
1567.423215	-3.014900	3.467500	-10.453000	25.645121	0.000733	20.820118
1568.421957	-3.027900	3.466700	-10.495000	25.650146	0.000734	20.813312
1569.425340	-3.006600	3.464900	-10.416000	25.658238	0.000733	20.819542
1570.425620	-3.013700	3.464700	-10.440000	25.652750	0.000732	20.809763
1571.425081	-2.998500	3.464400	-10.387000	25.632704	0.000732	20.824243
1572.431446	-2.992800	3.464000	-10.366000	25.622038	0.000731	20.806419
1573.430286	-2.980900	3.464900	-10.327000	25.594554	0.000732	20.796360
1574.422722	-2.982000	3.466000	-10.334000	25.570222	0.000731	20.818864
1575.427389	-2.996200	3.463000	-10.374000	25.568689	0.000730	20.795513
1576.424569	-2.997300	3.463500	-10.380000	25.572634	0.000732	20.810855
1577.422033	-3.003400	3.462400	-10.398000	25.568730	0.000730	20.815469
1578.430113	-3.002000	3.463400	-10.396000	25.587665	0.000728	20.807933
1579.427567	-2.992400	3.461800	-10.358000	25.590727	0.000730	20.829973
1580.429785	-2.992500	3.462700	-10.361000	25.618033	0.000728	20.806664
1581.439757	-3.006600	3.462900	-10.411000	25.604306	0.000728	20.826068
1582.428053	-3.009900	3.459700	-10.412000	25.603819	0.000728	20.807561
1583.431669	-3.020300	3.458800	-10.446000	25.596331	0.000726	20.807153
1584.430707	-2.979400	3.461200	-10.311000	25.581401	0.000726	20.822030
1585.432640	-3.008700	3.460200	-10.409000	25.574984	0.000727	20.840715
1586.425441	-3.014600	3.458600	-10.424000	25.568359	0.000726	20.810829
1587.426809	-3.002900	3.459800	-10.388000	25.588229	0.000725	20.818456
1588.437397	-3.007100	3.459600	-10.402000	25.594367	0.000724	20.826517
1589.431257	-3.017500	3.456900	-10.430000	25.587808	0.000723	20.818981
1590.428756	-2.991600	3.457500	-10.342000	25.599905	0.000726	20.823070
1591.437975	-2.995200	3.456300	-10.351000	25.614312	0.000724	20.834220
1592.428454	-3.012200	3.455700	-10.409000	25.598184	0.000723	20.828928
1593.426684	-2.995800	3.456900	-10.355000	25.591549	0.000723	20.831747
1594.427987	-3.009800	3.456600	-10.403000	25.612820	0.000720	20.829402
1595.427614	-3.023100	3.455900	-10.446000	25.619647	0.000722	20.832940
1596.430135	-2.986400	3.456900	-10.323000	25.625069	0.000723	20.817997
1597.432545	-2.986100	3.455600	-10.318000	25.618475	0.000719	20.818013
1598.433583	-2.995200	3.456500	-10.352000	25.610845	0.000720	20.844014
1599.433992	-2.991400	3.455000	-10.334000	25.601438	0.000721	20.829351
1600.434282	-3.009300	3.454600	-10.395000	25.575933	0.000720	20.823177
1601.433188	-2.986900	3.454900	-10.317000	25.608779	0.000719	20.826292
1602.433384	-3.010500	3.454800	-10.398000	25.610946	0.000716	20.822780
1603.443390	-3.015700	3.452500	-10.410000	25.596773	0.000718	20.823244
1604.439134	-2.977100	3.453200	-10.280000	25.556886	0.000720	20.841506
1605.437925	-2.994600	3.453400	-10.341000	25.506249	0.000717	20.818155
1606.435472	-3.000700	3.452000	-10.357000	25.507909	0.000716	20.835943
1607.437358	-3.008900	3.452500	-10.387000	25.475447	0.000718	20.825155
1608.447361	-3.013100	3.450400	-10.395000	25.468644	0.000715	20.836815
1609.435149	-2.994100	3.451200	-10.332000	25.451148	0.000716	20.836316
1610.442836	-2.968000	3.451900	-10.243000	25.456661	0.000715	20.840430
1611.435966	-2.966600	3.450900	-10.236000	25.480321	0.000715	20.839058
1612.436611	-3.010400	3.449400	-10.383000	25.452666	0.000715	20.826935
1613.438205	-3.011900	3.449100	-10.387000	25.459327	0.000714	20.838839
1614.439906	-3.007900	3.448400	-10.371000	25.461434	0.000714	20.850438
1615.442772	-3.025500	3.447000	-10.427000	25.482555	0.000713	20.859319
1616.445839	-2.971100	3.449400	-10.248000	25.504325	0.000713	20.847990
1617.439648	-3.012800	3.447900	-10.387000	25.528303	0.000713	20.852630
1618.435627	-3.039000	3.447700	-10.475000	25.541229	0.000712	20.820567
1619.440940	-3.003600	3.448500	-10.356000	25.499781	0.000711	20.823040
1620.444104	-3.029100	3.445600	-10.436000	25.499045	0.000711	20.831783
1621.450741	-2.985200	3.448200	-10.292000	25.463363	0.000710	20.846211
1622.446874	-3.030900	3.445200	-10.440000	25.424223	0.000712	20.846262
1623.441374	-3.009800	3.445100	-10.368000	25.427513	0.000709	20.833445
1624.439069	-3.020600	3.443700	-10.401000	25.450934	0.000708	20.865498
1625.439385	-2.997000	3.445600	-10.326000	25.486997	0.000708	20.848133
1626.438566	-2.999100	3.447000	-10.337000	25.515682	0.000708	20.854654
1627.441632	-2.997600	3.443600	-10.321000	25.526506	0.000708	20.859834
1628.441055	-2.997600	3.444000	-10.322000	25.528380	0.000708	20.858870
1629.439291	-2.993700	3.443600	-10.308000	25.548941	0.000708	20.885681
1630.440657	-2.988500	3.444200	-10.291000	25.518581	0.000710	20.844763
1631.440216	-2.993500	3.444000	-10.308000	25.489013	0.000705	20.853950
1632.443907	-3.022500	3.442100	-10.402000	25.480824	0.000705	20.863270
1633.444218	-2.986900	3.443300	-10.283000	25.487175	0.000707	20.862536
1634.452958	-3.011500	3.442000	-10.364000	25.494501	0.000706	20.838125
1635.451143	-2.985300	3.443300	-10.277000	25.477006	0.000704	20.849953
1636.444150	-2.986800	3.441600	-10.278000	25.483514	0.000703	20.856015
1637.444835	-3.002800	3.441100	-10.332000	25.505767	0.000703	20.881205
1638.456611	-2.986800	3.440700	-10.275000	25.519130	0.000705	20.866176
1639.446615	-3.007700	3.439800	-10.345000	25.530141	0.000702	20.846889
1640.450983	-2.994400	3.441100	-10.303000	25.535645	0.000703	20.874700
1641.447100	-2.981300	3.440800	-10.257000	25.515378	0.000701	20.861460
1642.453074	-2.967400	3.439600	-10.206000	25.502614	0.000701	20.863341
1643.443733	-3.007600	3.438700	-10.342000	25.536919	0.000701	20.861281
1644.444835	-3.037900	3.437500	-10.441000	25.564750	0.000699	20.864575
1645.452695	-3.007800	3.437000	-10.337000	25.606256	0.000701	20.874491
1646.445586	-2.993700	3.439600	-10.297000	25.624364	0.000699	20.877504
1647.444609	-3.015300	3.437500	-10.364000	25.642151	0.000699	20.854593
1648.445694	-3.007000	3.437300	-10.334000	25.665959	0.000698	20.851952
1649.447934	-3.016900	3.436600	-10.366000	25.633486	0.000698	20.881924
1650.446140	-2.996800	3.436500	-10.297000	25.622044	0.000698	20.893190
1651.446793	-2.987700	3.437500	-10.269000	25.643232	0.000697	20.856153
1652.448636	-3.002000	3.435300	-10.311000	25.670984	0.000698	20.876438
1653.448555	-3.002400	3.435200	-10.313000	25.677659	0.000698	20.850427
1654.448836	-2.992800	3.436500	-10.283000	25.691949	0.000695	20.865727
1655.459201	-3.004800	3.434700	-10.320000	25.676634	0.000696	20.875000
1656.446462	-2.997100	3.434800	-10.293000	25.685096	0.000697	20.878758
1657.448082	-3.005600	3.432800	-10.316000	25.667284	0.000696	20.876989
1658.451446	-3.002800	3.432800	-10.307000	25.653913	0.000696	20.866879
1659.447458	-3.003400	3.434600	-10.314000	25.640628	0.000693	20.867287
1660.454401	-2.972200	3.433800	-10.205000	25.627511	0.000695	20.882087
1661.456917	-2.994300	3.433900	-10.281000	25.653248	0.000695	20.880435
1662.453541	-3.004000	3.432600	-10.310000	25.661400	0.000690	20.885304
1663.456507	-3.007200	3.432600	-10.321000	25.678294	0.000693	20.876193
1664.453783	-2.988300	3.433000	-10.258000	25.673979	0.000691	20.881817
1665.451453	-3.012400	3.430700	-10.334000	25.682055	0.000691	20.916478
1666.451389	-2.994300	3.430700	-10.271000	25.690055	0.000692	20.904125
1667.454490	-2.985400	3.430900	-10.241000	25.709755	0.000693	20.903050
1668.453858	-3.007300	3.430300	-10.315000	25.711258	0.000690	20.880379
1669.455096	-2.992100	3.429400	-10.260000	25.688512	0.000691	20.902101
1670.455463	-2.993000	3.430000	-10.265000	25.705761	0.000690	20.894296
1671.451407	-2.978700	3.429500	-10.214000	25.717293	0.000689	20.898293
1672.457820	-2.966200	3.429600	-10.172000	25.693446	0.000690	20.882877
1673.454216	-2.974200	3.428600	-10.196000	25.643978	0.000690	20.900047
1674.452671	-2.999800	3.427700	-10.282000	25.626206	0.000689	20.898793
1675.452822	-3.012100	3.428200	-10.325000	25.599626	0.000687	20.892013
1676.451212	-2.998000	3.427300	-10.273000	25.600951	0.000689	20.895714
1677.454756	-3.007700	3.427400	-10.307000	25.625054	0.000689	20.911385
1678.454383	-3.013000	3.427400	-10.326000	25.627760	0.000686	20.879018
1679.451917	-3.003800	3.426300	-10.290000	25.616084	0.000688	20.881042
1680.454255	-2.996400	3.425900	-10.264000	25.646770	0.000684	20.889576
1681.456141	-3.016300	3.424800	-10.329000	25.680197	0.000687	20.891380
1682.460141	-2.990000	3.426300	-10.244000	25.711075	0.000685	20.894893
1683.455621	-3.010500	3.424400	-10.308000	25.724303	0.000683	20.913867
1684.459414	-2.998900	3.424700	-10.270000	25.738262	0.000683	20.908448
1685.458754	-3.002300	3.424700	-10.281000	25.755103	0.000683	20.911140
1686.454815	-2.997700	3.424900	-10.266000	25.758012	0.000682	20.897467
1687.457862	-3.016200	3.423700	-10.324000	25.749972	0.000686	20.913572
1688.456918	-2.993600	3.426400	-10.254000	25.766778	0.000683	20.894893
1689.459373	-3.004800	3.422500	-10.283000	25.771904	0.000684	20.907154
1690.459340	-2.974800	3.423400	-10.181000	25.786573	0.000682	20.928524
1691.457095	-3.011200	3.420800	-10.299000	25.775873	0.000681	20.911614
1692.456149	-3.002700	3.423000	-10.276000	25.784370	0.000679	20.895494
1693.458907	-2.983200	3.422300	-10.209000	25.739231	0.000681	20.910370
1694.465328	-2.985800	3.422600	-10.219000	25.758179	0.000680	20.922763
1695.457683	-3.029900	3.419400	-10.360000	25.781792	0.000678	20.910921
1696.456937	-2.987400	3.422300	-10.221000	25.817260	0.000679	20.915728
1697.464517	-2.993400	3.422000	-10.242000	25.831568	0.000679	20.928677
1698.458710	-3.010400	3.419300	-10.292000	25.796293	0.000677	20.923115
1699.456423	-3.008000	3.420100	-10.286000	25.803119	0.000677	20.938980
1700.461132	-2.994900	3.419400	-10.240000	25.766519	0.000678	20.921183
1701.458893	-3.026800	3.417300	-10.343000	25.718100	0.000676	20.920439
1702.457886	-3.029300	3.418300	-10.352000	25.715984	0.000675	20.919735
1703.458466	-2.984600	3.418300	-10.202000	25.720857	0.000675	20.921310
1704.457767	-2.974200	3.419100	-10.169000	25.727592	0.000676	20.926653
1705.458144	-2.976000	3.418500	-10.172000	25.697329	0.000674	20.928973
1706.458731	-2.992200	3.418800	-10.229000	25.704893	0.000675	20.916182
1707.457973	-3.006700	3.416700	-10.272000	25.737399	0.000671	20.919434
1708.458519	-2.982400	3.417100	-10.190000	25.741739	0.000673	20.936120
1709.458756	-2.983300	3.416300	-10.189000	25.753449	0.000673	20.926072
1710.459379	-3.008300	3.416100	-10.276000	25.766742	0.000672	20.936578
1711.458709	-2.988800	3.417900	-10.214000	25.743612	0.000672	20.930889
1712.458657	-3.003600	3.415600	-10.259000	25.769239	0.000673	20.922493
1713.460227	-3.019800	3.415100	-10.312000	25.785725	0.000671	20.948059
1714.469565	-2.992800	3.415600	-10.221000	25.778604	0.000671	20.941381
1715.458819	-3.026500	3.415000	-10.334000	25.789882	0.000672	20.918099
1716.466099	-2.998700	3.415300	-10.240000	25.782852	0.000670	20.946596
1717.461457	-2.995100	3.414000	-10.225000	25.784142	0.000670	20.932719
1718.460151	-3.001700	3.413900	-10.246000	25.775528	0.000669	20.936395
1719.462164	-3.009700	3.411900	-10.267000	25.747002	0.000670	20.935717
1720.467960	-3.009200	3.413300	-10.270000	25.740993	0.000669	20.914984
1721.462864	-3.004300	3.411800	-10.249000	25.705101	0.000667	20.942466
1722.460948	-3.008500	3.411000	-10.261000	25.699730	0.000667	20.951770
1723.465934	-3.023000	3.410900	-10.310000	25.718334	0.000667	20.928259
1724.469042	-2.988600	3.412600	-10.198000	25.739409	0.000667	20.944684
1725.461592	-2.986500	3.412500	-10.190000	25.750891	0.000667	20.953845
1726.460821	-3.002200	3.410300	-10.238000	25.756834	0.000664	20.964555
1727.461973	-2.999600	3.410300	-10.227000	25.769173	0.000666	20.946132
1728.465805	-2.991000	3.410200	-10.198000	25.755840	0.000664	20.954074
1729.463438	-3.001800	3.410600	-10.238000	25.756809	0.000665	20.940351
1730.464532	-3.007400	3.409300	-10.251000	25.744317	0.000665	20.968577
1731.466506	-2.970200	3.409400	-10.126000	25.725526	0.000664	20.941646
1732.466846	-2.980200	3.408800	-10.158000	25.711593	0.000666	20.965580
1733.467413	-2.975200	3.408700	-10.141000	25.713430	0.000661	20.958417
1734.468292	-2.967100	3.410300	-10.117000	25.722679	0.000665	20.951586
1735.471499	-3.001600	3.407100	-10.226000	25.768955	0.000661	20.971039
1736.470462	-2.987400	3.408900	-10.182000	25.769285	0.000661	20.965682
1737.467075	-3.024400	3.406700	-10.302000	25.794598	0.000661	20.962185
1738.471700	-3.021900	3.408200	-10.298000	25.811053	0.000660	20.967807
1739.468491	-2.993100	3.407000	-10.197000	25.833202	0.000659	20.961609
1740.465882	-3.009500	3.406500	-10.251000	25.863268	0.000661	20.978059
1741.468910	-2.994800	3.404900	-10.196000	25.852361	0.000660	20.972793
1742.466913	-3.002400	3.405200	-10.223000	25.827396	0.000660	20.958147
1743.467608	-2.977200	3.406200	-10.140000	25.813869	0.000660	20.958310
1744.468941	-3.001400	3.404600	-10.217000	25.819422	0.000659	20.950139
1745.471196	-3.010300	3.403600	-10.244000	25.853316	0.000660	20.972803
1746.474917	-3.017600	3.403800	-10.271000	25.880078	0.000656	20.967445
1747.479985	-3.012200	3.402400	-10.248000	25.846312	0.000655	20.970983
1748.471471	-3.016900	3.402700	-10.264000	25.844743	0.000655	20.976993
1749.469890	-3.001200	3.402200	-10.210000	25.860025	0.000656	20.975275
1750.469790	-2.992500	3.403200	-10.183000	25.845535	0.000655	20.968307
1751.471774	-3.003300	3.400500	-10.211000	25.832532	0.000653	20.972788
1752.476111	-3.002100	3.401800	-10.211000	25.806967	0.000653	20.973660
1753.470292	-2.972700	3.403100	-10.114000	25.763235	0.000655	20.973354
1754.473641	-3.002900	3.400400	-10.210000	25.773554	0.000654	20.953850
1755.480064	-3.010900	3.399900	-10.236000	25.725760	0.000651	20.973644
1756.471319	-3.022200	3.400100	-10.275000	25.742272	0.000653	20.961308
1757.476118	-3.013900	3.400700	-10.249000	25.754545	0.000651	20.950878
1758.470702	-3.007700	3.400000	-10.226000	25.761931	0.000649	20.992429
1759.470885	-3.019600	3.399300	-10.264000	25.777290	0.000650	20.966609
1760.488594	-2.976600	3.401100	-10.122000	25.786527	0.000649	20.966406
1761.475720	-3.016400	3.397900	-10.249000	25.761494	0.000650	20.966864
1762.475721	-2.990300	3.398600	-10.162000	25.769534	0.000651	20.970672
1763.472345	-3.011500	3.398100	-10.232000	25.729191	0.000650	20.973772
1764.476041	-2.978100	3.398500	-10.120000	25.748967	0.000649	20.966135
1765.472727	-2.998800	3.398200	-10.190000	25.770554	0.000647	20.959371
1766.476997	-2.992800	3.397100	-10.166000	25.796603	0.000649	20.942390
1767.475416	-2.997800	3.396200	-10.179000	25.801683	0.000648	20.965508
1768.475656	-3.009900	3.396000	-10.220000	25.834836	0.000648	20.950924
1769.475442	-2.996500	3.396800	-10.178000	25.828152	0.000646	20.941840
1770.472148	-3.001400	3.396700	-10.193000	25.812362	0.000645	20.929773
1771.471856	-2.966800	3.396300	-10.075000	25.810652	0.000645	20.970249
1772.473001	-2.992700	3.395300	-10.160000	25.805992	0.000645	20.951821
1773.471883	-3.009700	3.395200	-10.218000	25.798607	0.000642	20.963841
1774.476146	-2.981200	3.397200	-10.127000	25.788811	0.000644	20.936461
1775.475897	-3.021700	3.393500	-10.253000	25.842429	0.000643	20.937690
1776.482906	-2.994300	3.394900	-10.164000	25.860340	0.000642	20.952835
1777.480669	-2.995800	3.393800	-10.166000	25.892806	0.000642	20.952259
1778.475577	-2.997500	3.395700	-10.178000	25.923013	0.000645	20.956052
1779.477352	-2.998200	3.392300	-10.169000	25.915756	0.000642	20.952081
1780.481052	-3.032000	3.391200	-10.281000	25.941141	0.000642	20.927800
1781.478853	-2.996800	3.393400	-10.169000	25.952305	0.000645	20.933800
1782.483029	-2.999800	3.392500	-10.175000	25.944368	0.000641	20.924405
1783.481753	-2.990500	3.392300	-10.144000	25.957710	0.000640	20.920740
1784.479348	-3.007700	3.391300	-10.200000	25.939319	0.000640	20.947778
1785.483737	-3.012700	3.391700	-10.217000	25.875703	0.000639	20.926072
1786.488490	-3.000000	3.391000	-10.172000	25.848900	0.000639	20.925700
1787.487594	-3.001200	3.390100	-10.172000	25.835658	0.000637	20.931838
1788.479288	-3.006700	3.391300	-10.196000	25.850611	0.000638	20.927418
1789.481186	-3.012400	3.388400	-10.205000	25.851108	0.000638	20.925547
1790.480289	-2.992000	3.390900	-10.145000	25.820798	0.000637	20.933030
1791.479010	-2.959600	3.392300	-10.039000	25.764270	0.000635	20.921295
1792.479886	-3.002700	3.389200	-10.175000	25.730638	0.000637	20.920704
1793.480032	-3.007900	3.388300	-10.189000	25.727065	0.000638	20.921382
1794.480394	-2.981800	3.388400	-10.102000	25.724811	0.000636	20.929549
1795.485486	-3.003300	3.389200	-10.178000	25.705558	0.000635	20.918746
1796.481673	-3.011700	3.387400	-10.201000	25.705700	0.000635	20.913200
1797.480149	-2.981700	3.387400	-10.099000	25.729760	0.000633	20.920296
1798.479593	-2.989300	3.386700	-10.122000	25.747099	0.000634	20.898360
1799.481667	-3.001300	3.386500	-10.163000	25.787938	0.000633	20.912828
1800.485279	-2.984900	3.387600	-10.109000	25.781254	0.000632	20.908958
1801.484505	-3.003700	3.386700	-10.171000	25.765509	0.000633	20.919694
1802.485532	-3.000400	3.387300	-10.162000	25.741972	0.000631	20.923079
1803.487703	-2.995100	3.385500	-10.139000	25.741983	0.000632	20.913133
1804.483370	-2.974800	3.386700	-10.074000	25.787045	0.000631	20.924731
1805.488052	-2.989200	3.386000	-10.121000	25.781051	0.000631	20.928193
1806.483692	-2.982700	3.386200	-10.099000	25.817473	0.000629	20.919735
1807.492390	-3.003800	3.383800	-10.162000	25.829984	0.000629	20.900536
1808.485401	-2.986100	3.384800	-10.106000	25.773650	0.000630	20.919812
1809.496635	-3.001600	3.383300	-10.154000	25.756286	0.000628	20.905690
1810.488773	-3.010600	3.382200	-10.181000	25.733714	0.000628	20.906251
1811.498285	-3.008700	3.384700	-10.181000	25.718902	0.000628	20.931674
1812.487646	-2.991900	3.383400	-10.121000	25.674096	0.000628	20.911329
1813.489657	-3.017400	3.381500	-10.202000	25.681918	0.000626	20.900220
1814.485433	-3.049200	3.380600	-10.307000	25.693872	0.000627	20.892787
1815.486799	-2.999600	3.381900	-10.144000	25.694725	0.000627	20.904074
1816.492652	-3.000300	3.381500	-10.145000	25.739216	0.000626	20.906088
1817.489866	-2.990300	3.380700	-10.108000	25.767463	0.000623	20.897004
1818.488566	-2.986800	3.381500	-10.099000	25.782198	0.000623	20.895209
1819.485559	-2.989200	3.380800	-10.105000	25.770448	0.000626	20.887200
1820.484881	-3.029500	3.378700	-10.235000	25.780513	0.000622	20.890672
1821.490987	-2.991900	3.379800	-10.111000	25.766326	0.000624	20.899654
1822.486671	-2.982900	3.379500	-10.080000	25.777604	0.000623	20.898655
1823.493443	-3.018600	3.379000	-10.199000	25.808885	0.000621	20.895464
1824.493067	-3.009800	3.378500	-10.168000	25.836404	0.000622	20.896081
1825.494383	-2.993000	3.380600	-10.116000	25.817432	0.000622	20.890774
1826.486941	-3.008400	3.377900	-10.161000	25.796039	0.000621	20.913852
1827.491752	-3.015300	3.378100	-10.185000	25.799699	0.000619	20.901408
1828.489493	-3.011600	3.377400	-10.169000	25.808784	0.000620	20.900577
1829.486579	-3.004900	3.376400	-10.145000	25.845870	0.000618	20.898951
1830.490294	-3.003800	3.375900	-10.140000	25.873769	0.000618	20.904217
1831.493537	-3.000800	3.376500	-10.131000	25.900530	0.000617	20.910238
1832.490037	-2.994200	3.375500	-10.106000	25.907473	0.000618	20.896825
1833.487961	-3.011300	3.375200	-10.162000	25.908975	0.000617	20.891222
1834.487700	-2.980900	3.376300	-10.063000	25.930483	0.000618	20.892441
1835.488539	-2.994900	3.374900	-10.107000	25.921221	0.000618	20.903998
1836.488091	-2.992400	3.374200	-10.096000	25.927408	0.000615	20.895515
1837.487628	-2.990300	3.374000	-10.089000	25.954274	0.000616	20.905436
1838.492378	-3.007500	3.374000	-10.145000	25.947027	0.000615	20.889148
1839.490125	-3.014900	3.373600	-10.171000	25.949925	0.000614	20.869775
1840.489290	-3.009400	3.373600	-10.151000	25.963191	0.000615	20.892109
1841.492072	-3.016800	3.373400	-10.175000	25.953533	0.000613	20.895209
1842.489025	-2.990300	3.374400	-10.090000	25.964312	0.000614	20.871901
1843.489823	-3.005100	3.372400	-10.134000	25.979709	0.000614	20.880731
1844.494452	-3.024900	3.371300	-10.196000	26.000272	0.000614	20.890009
1845.495046	-3.005500	3.370900	-10.130000	25.996689	0.000611	20.875979
1846.490286	-3.001700	3.373100	-10.124000	25.992543	0.000611	20.880348
1847.501839	-2.986000	3.372100	-10.068000	25.977197	0.000612	20.865880
1848.492548	-2.999800	3.372100	-10.115000	25.982698	0.000610	20.886578
1849.493979	-3.007400	3.371500	-10.139000	25.953934	0.000610	20.876647
1850.492421	-3.010200	3.371500	-10.149000	25.954685	0.000610	20.883565
1851.491838	-3.002600	3.371000	-10.122000	25.957375	0.000607	20.905232
1852.494144	-3.008000	3.369100	-10.134000	25.957877	0.000609	20.872074
1853.489857	-3.017400	3.369400	-10.165000	25.957137	0.000609	20.881286
1854.496724	-2.990300	3.369800	-10.075000	25.962369	0.000607	20.890809
1855.492981	-2.980000	3.371200	-10.044000	25.944992	0.000608	20.876198
1856.492991	-2.987200	3.369600	-10.064000	25.919100	0.000606	20.879109
1857.497732	-3.007800	3.367000	-10.126000	25.894034	0.000608	20.872895
1858.493949	-3.001400	3.367700	-10.107000	25.886112	0.000607	20.890065
1859.493169	-2.980400	3.369800	-10.042000	25.878002	0.000606	20.880022
1860.492701	-2.977800	3.367100	-10.026000	25.922891	0.000606	20.857789
1861.492181	-3.003600	3.367300	-10.113000	25.954564	0.000604	20.888184
1862.492471	-2.982800	3.368100	-10.045000	25.967677	0.000604	20.883815
1863.492476	-3.018500	3.366700	-10.161000	25.983698	0.000603	20.860557
1864.499030	-3.012000	3.366100	-10.138000	25.971067	0.000602	20.889591
1865.493163	-3.019400	3.366300	-10.163000	25.969118	0.000603	20.873884
1866.493876	-2.963200	3.366800	-9.975900	25.949717	0.000602	20.859609
1867.496345	-2.986800	3.367600	-10.057000	25.930991	0.000603	20.876356
1868.499444	-3.010100	3.364900	-10.127000	25.940572	0.000601	20.867491
1869.492910	-3.029100	3.364800	-10.191000	25.966388	0.000600	20.883468
1870.494585	-3.004300	3.365400	-10.110000	25.964003	0.000602	20.875857
1871.496480	-3.002000	3.364500	-10.098000	25.919587	0.000600	20.867746
1872.495366	-3.012800	3.363400	-10.132000	25.874317	0.000598	20.893389
1873.494817	-3.013400	3.363300	-10.134000	25.897303	0.000598	20.883290
1874.498527	-3.018700	3.364100	-10.153000	25.895861	0.000600	20.874256
1875.498640	-2.998500	3.363500	-10.084000	25.920034	0.000598	20.869617
1876.501339	-3.010400	3.363600	-10.124000	25.895760	0.000598	20.876999
1877.497480	-2.996800	3.362000	-10.074000	25.907904	0.000597	20.887302
1878.505148	-2.972200	3.363700	-9.995700	25.932168	0.000596	20.868531
1879.497995	-3.002900	3.362600	-10.096000	25.956903	0.000596	20.856871
1880.503298	-2.999900	3.362000	-10.085000	25.966697	0.000595	20.885202
1881.498083	-2.985300	3.362300	-10.036000	25.975411	0.000595	20.857922
1882.506486	-3.006700	3.360600	-10.103000	25.993700	0.000595	20.873451
1883.504251	-3.016300	3.359900	-10.134000	26.001789	0.000595	20.858819
1884.504212	-2.988100	3.362000	-10.045000	25.978674	0.000593	20.876372
1885.503810	-2.983800	3.360200	-10.026000	25.985474	0.000593	20.862342
1886.508001	-2.972400	3.359300	-9.984300	25.986585	0.000594	20.873415
1887.515941	-2.971900	3.358400	-9.979600	25.981074	0.000593	20.856025
1888.513156	-2.981300	3.359300	-10.014000	25.954772	0.000593	20.858049
1889.515276	-3.018000	3.358400	-10.134000	25.915624	0.000592	20.880833
1890.531240	-2.977900	3.360700	-10.007000	25.886680	0.000592	20.851758
1891.520629	-2.995900	3.357700	-10.059000	25.922957	0.000591	20.871131
1892.526532	-3.000700	3.357600	-10.074000	25.945358	0.000591	20.866135
1893.522519	-3.007100	3.358300	-10.098000	25.972067	0.000591	20.865467
1894.537276	-2.998600	3.357200	-10.066000	25.979760	0.000591	20.831946
1895.519728	-2.997800	3.356100	-10.059000	25.977948	0.000590	20.869479
1896.528504	-2.989800	3.357300	-10.037000	25.988356	0.000590	20.849591
1897.530706	-2.984100	3.356000	-10.013000	26.029948	0.000590	20.864825
1898.524284	-2.991400	3.356600	-10.040000	26.053382	0.000589	20.864187
1899.525372	-3.000400	3.354700	-10.065000	26.063840	0.000586	20.879436
1900.521011	-3.025800	3.352800	-10.143000	26.042771	0.000587	20.862535
1901.524991	-2.982300	3.356300	-10.008000	26.075780	0.000588	20.858717
1902.523629	-3.014000	3.355100	-10.111000	26.051098	0.000588	20.844350
1903.521517	-3.009300	3.354400	-10.094000	26.038265	0.000585	20.859431
1904.517698	-3.006000	3.355100	-10.084000	26.032181	0.000585	20.841465
1905.531783	-2.998200	3.353900	-10.054000	26.012791	0.000584	20.852803
1906.540868	-2.990700	3.352000	-10.024000	25.987869	0.000582	20.862377
1907.522804	-2.976600	3.353700	-9.981100	25.990995	0.000583	20.854613
1908.525176	-2.975600	3.353000	-9.975800	25.994629	0.000583	20.843091
1909.539382	-3.012000	3.351600	-10.094000	26.032460	0.000582	20.872089
1910.532074	-3.013000	3.352400	-10.099000	26.041847	0.000580	20.842642
1911.521469	-3.017000	3.351700	-10.111000	26.040214	0.000580	20.867552
1912.542786	-2.998900	3.351900	-10.051000	26.055229	0.000580	20.845655
1913.534212	-3.014900	3.350700	-10.101000	26.066874	0.000582	20.859726
1914.525016	-3.000100	3.349700	-10.048000	26.047906	0.000579	20.839247
1915.528441	-3.012700	3.350000	-10.092000	26.012268	0.000580	20.847537
1916.526305	-3.024700	3.348600	-10.127000	25.992076	0.000579	20.858070
1917.522907	-3.004900	3.348900	-10.062000	25.971772	0.000578	20.853792
1918.526088	-2.992800	3.350100	-10.024000	25.921434	0.000576	20.841154
1919.523021	-3.028000	3.348300	-10.137000	25.942663	0.000577	20.844462
1920.521698	-2.995800	3.350000	-10.035000	25.930224	0.000578	20.851880
1921.537893	-3.006800	3.347900	-10.065000	25.937613	0.000575	20.855036
1922.538306	-2.983800	3.348100	-9.989000	25.972092	0.000575	20.857432
1923.523122	-3.013800	3.346300	-10.084000	26.017180	0.000575	20.854368
1924.530155	-3.005800	3.346500	-10.058000	26.002449	0.000574	20.867068
1925.526645	-2.986400	3.347400	-9.996000	26.029080	0.000575	20.834557
1926.533885	-2.981900	3.348600	-9.984100	25.992944	0.000575	20.848036
1927.530644	-2.996000	3.347800	-10.029000	25.967855	0.000573	20.841322
1928.528800	-2.990100	3.346900	-10.007000	25.950610	0.000573	20.828739
1929.531729	-2.995400	3.345600	-10.020000	25.974797	0.000573	20.829331
1930.530671	-3.000100	3.347600	-10.043000	25.977040	0.000572	20.832058
1931.533358	-2.967800	3.346400	-9.929000	25.953315	0.000570	20.839043
1932.526717	-3.001400	3.345500	-10.040000	25.947535	0.000573	20.824227
1933.529924	-3.018800	3.344000	-10.094000	25.954589	0.000571	20.819935
1934.532232	-2.964200	3.345400	-9.914900	25.925124	0.000571	20.843438
1935.530243	-2.994300	3.344300	-10.013000	25.890004	0.000570	20.819537
1936.538521	-2.997300	3.343000	-10.019000	25.897379	0.000569	20.835479
1937.538225	-3.005500	3.341500	-10.042000	25.862223	0.000571	20.826715
1938.528067	-3.017600	3.343000	-10.087000	25.908285	0.000569	20.823203
1939.538003	-2.983500	3.343400	-9.973900	25.933848	0.000566	20.829917
1940.538694	-3.002300	3.342200	-10.033000	25.971173	0.000567	20.827113
1941.533090	-2.989100	3.343000	-9.991200	25.963800	0.000568	20.835352
1942.528591	-3.000200	3.340800	-10.022000	25.942358	0.000565	20.846053
1943.535004	-3.010300	3.341100	-10.056000	25.937547	0.000565	20.840272
1944.532290	-3.002700	3.340900	-10.030000	25.904433	0.000567	20.811273
1945.537352	-2.997700	3.341900	-10.017000	25.890872	0.000566	20.839374
1946.544709	-3.004000	3.340400	-10.034000	25.913528	0.000564	20.833211
1947.549745	-3.003100	3.340300	-10.030000	25.941552	0.000566	20.814898
1948.535433	-3.001900	3.340800	-10.027000	25.994781	0.000563	20.811477
1949.534380	-2.989400	3.340100	-9.984400	26.022103	0.000563	20.830865
1950.547484	-2.993400	3.340100	-9.996700	26.031298	0.000563	20.799801
1951.537404	-2.985900	3.339200	-9.969100	26.053326	0.000562	20.828571
1952.544609	-3.005300	3.340400	-10.038000	26.043273	0.000561	20.813256
1953.539100	-3.017500	3.338400	-10.073000	26.039650	0.000562	20.825262
1954.534066	-3.006000	3.338800	-10.035000	26.082813	0.000561	20.804145
1955.545758	-2.998100	3.336800	-10.004000	26.095808	0.000563	20.830952
1956.551495	-2.976100	3.338200	-9.933400	26.095412	0.000559	20.829132
1957.547420	-3.009800	3.337100	-10.042000	26.064814	0.000559	20.812613
1958.554441	-3.008000	3.335700	-10.032000	26.057888	0.000560	20.811344
1959.534154	-2.995100	3.336000	-9.990000	26.028299	0.000559	20.809590
1960.551678	-2.988900	3.336900	-9.972900	25.979100	0.000556	20.825120
1961.542021	-2.990800	3.336500	-9.977100	25.953143	0.000556	20.828913
1962.536636	-2.987500	3.335900	-9.965000	25.912081	0.000560	20.821801
1963.542356	-2.970100	3.338100	-9.913500	25.914223	0.000557	20.819211
1964.542361	-3.043000	3.333900	-10.144000	25.945835	0.000556	20.827261
1965.542287	-2.966100	3.336100	-9.894000	25.926317	0.000555	20.828989
1966.537302	-2.985300	3.334000	-9.952000	25.970362	0.000557	20.825349
1967.548197	-3.004000	3.334000	-10.014000	25.972620	0.000556	20.812445
1968.546684	-3.015300	3.332600	-10.048000	25.968895	0.000554	20.806332
1969.545210	-3.022700	3.332000	-10.071000	25.958304	0.000554	20.828882
1970.539929	-2.998400	3.334600	-9.997700	25.920739	0.000555	20.815326
1971.542982	-3.012000	3.332600	-10.036000	25.870734	0.000552	20.790695
1972.547366	-3.001900	3.332700	-10.003000	25.868374	0.000552	20.804920
1973.546817	-3.005600	3.331100	-10.011000	25.866714	0.000551	20.810365
1974.550054	-2.981700	3.334800	-9.942200	25.882686	0.000551	20.789426
1975.542177	-2.986600	3.332500	-9.952100	25.895861	0.000550	20.799817
1976.538737	-3.001100	3.332200	-9.998900	25.913939	0.000552	20.816555
1977.544381	-2.996500	3.330600	-9.979400	25.932599	0.000550	20.815861
1978.543223	-2.998100	3.329500	-9.980900	25.906052	0.000550	20.821908
1979.541453	-3.011700	3.330800	-10.030000	25.909229	0.000547	20.811349
1980.540964	-3.007500	3.330400	-10.016000	25.918628	0.000548	20.796610
1981.541526	-2.995300	3.329700	-9.972400	25.926525	0.000547	20.799327
1982.543248	-3.018600	3.327800	-10.044000	25.925621	0.000547	20.798894
1983.549359	-2.985600	3.328900	-9.938300	25.953772	0.000548	20.798251
1984.538810	-2.988000	3.330700	-9.951000	26.003479	0.000549	20.788447
1985.541679	-3.001300	3.328400	-9.988800	26.028390	0.000545	20.802096
1986.562411	-3.005100	3.328500	-10.001000	26.046247	0.000545	20.788743
1987.546609	-3.006300	3.328200	-10.004000	26.031257	0.000545	20.813037
1988.547788	-2.997300	3.328200	-9.973700	26.027330	0.000545	20.807194
1989.553385	-3.006700	3.326900	-10.002000	26.015440	0.000543	20.796197
1990.556266	-3.003300	3.327100	-9.991100	25.970006	0.000543	20.789905
1991.541349	-2.998600	3.328400	-9.978600	25.963627	0.000542	20.809101
1992.550787	-3.027100	3.325100	-10.065000	25.930093	0.000543	20.794851
1993.542774	-2.969900	3.327100	-9.880100	25.961993	0.000540	20.782803
1994.560113	-3.007000	3.324600	-9.995200	25.950362	0.000542	20.798144
1995.545423	-3.016500	3.325000	-10.028000	25.966408	0.000541	20.809998
1996.542021	-2.996700	3.325700	-9.965300	25.975944	0.000540	20.808199
1997.560954	-2.991600	3.324700	-9.943400	25.960410	0.000538	20.787851
1998.546445	-3.025500	3.323300	-10.053000	25.975371	0.000540	20.809045
1999.548207	-3.008100	3.324500	-9.999600	25.975908	0.000538	20.802947
2000.544006	-2.988500	3.323500	-9.931500	26.005920	0.000538	20.788529
2001.552538	-3.035700	3.321500	-10.082000	26.002642	0.000537	20.772907
2002.562212	-3.010100	3.322600	-10.000000	26.021316	0.000539	20.783609
2003.544461	-2.985300	3.322800	-9.918500	26.034196	0.000538	20.792755
2004.563340	-2.986300	3.323800	-9.924900	26.042766	0.000536	20.822703
2005.551380	-2.982700	3.323000	-9.910100	26.064322	0.000535	20.796472
2006.558463	-2.977800	3.323200	-9.894900	26.069437	0.000535	20.796396
2007.547313	-3.004100	3.322200	-9.979700	26.082341	0.000534	20.798930
2008.546216	-3.020100	3.320700	-10.026000	26.123178	0.000534	20.776899
2009.547608	-2.983100	3.321500	-9.908200	26.149172	0.000534	20.801596
2010.558677	-3.008700	3.319800	-9.987200	26.143509	0.000533	20.796855
2011.555749	-2.976700	3.321300	-9.885700	26.159299	0.000535	20.793281
2012.550063	-2.993300	3.319600	-9.935500	26.177839	0.000532	20.794367
2013.566315	-2.990100	3.320500	-9.927500	26.158569	0.000532	20.793021
2014.563542	-2.997700	3.319300	-9.949900	26.170721	0.000531	20.788636
2015.547714	-2.991600	3.318600	-9.926700	26.206607	0.000530	20.800041
2016.551158	-3.003700	3.319200	-9.969000	26.208454	0.000530	20.791940
2017.556776	-3.018200	3.318400	-10.014000	26.204882	0.000530	20.803524
2018.553307	-3.002800	3.319000	-9.965400	26.191787	0.000531	20.804115
2019.551373	-3.002100	3.316800	-9.956600	26.238307	0.000528	20.811982
2020.551152	-3.024300	3.317600	-10.033000	26.252386	0.000528	20.811431
2021.549818	-3.018200	3.315400	-10.006000	26.263111	0.000529	20.792812
2022.550650	-3.003500	3.316300	-9.960100	26.233066	0.000528	20.814776
2023.556271	-2.981300	3.316600	-9.886400	26.208018	0.000528	20.788657
2024.575205	-3.000000	3.316700	-9.949300	26.165525	0.000527	20.793373
2025.566986	-3.003100	3.316100	-9.958000	26.154378	0.000527	20.799715
2026.549085	-3.023700	3.314700	-10.022000	26.138309	0.000528	20.806802
2027.559846	-3.004500	3.314600	-9.958300	26.149969	0.000526	20.798604
2028.564429	-2.995300	3.313700	-9.924200	26.150070	0.000526	20.802025
2029.565846	-2.979200	3.315700	-9.877400	26.166149	0.000526	20.796845
2030.561536	-3.012800	3.312600	-9.979400	26.147198	0.000525	20.798191
2031.564617	-3.006500	3.313700	-9.961300	26.130236	0.000523	20.789681
2032.563264	-3.006500	3.313400	-9.961000	26.144174	0.000522	20.801790
2033.574065	-3.018000	3.313200	-9.997600	26.155779	0.000521	20.803967
2034.560785	-3.007800	3.312400	-9.961700	26.152668	0.000521	20.800842
2035.552476	-2.986700	3.312000	-9.890600	26.200555	0.000520	20.793485
2036.559714	-2.992000	3.312800	-9.911000	26.172284	0.000520	20.795896
2037.572809	-2.974300	3.311800	-9.848700	26.168012	0.000521	20.787336
2038.567523	-3.015600	3.309600	-9.979300	26.150908	0.000518	20.802866
2039.565655	-2.996300	3.311700	-9.921600	26.120935	0.000521	20.787448
2040.554442	-2.989900	3.310800	-9.898100	26.094063	0.000517	20.795535
2041.560271	-3.004800	3.310600	-9.944800	26.074649	0.000517	20.819176
2042.564036	-2.991500	3.310400	-9.902600	26.089664	0.000518	20.810554
2043.557335	-2.991000	3.311100	-9.902600	26.092865	0.000516	20.809030
2044.564874	-3.020900	3.308400	-9.992900	26.149299	0.000518	20.776120
2045.567050	-3.000600	3.309100	-9.928500	26.169245	0.000515	20.827930
2046.560644	-3.031300	3.308300	-10.026000	26.191153	0.000515	20.821496
2047.565417	-2.990300	3.309000	-9.894100	26.152820	0.000514	20.809055
2048.564665	-2.994200	3.307300	-9.902200	26.208764	0.000513	20.815485
2049.567065	-3.016900	3.308100	-9.979600	26.169422	0.000514	20.793021
2050.570028	-3.023100	3.307300	-9.997700	26.157575	0.000514	20.804350
2051.571179	-3.001400	3.307400	-9.924600	26.131992	0.000512	20.812782
2052.578302	-3.006100	3.306300	-9.937900	26.069955	0.000512	20.801184
2053.562262	-3.025200	3.306700	-10.002000	26.052890	0.000510	20.793047
2054.563878	-2.990600	3.307600	-9.890900	26.034637	0.000510	20.821174
2055.569771	-3.006800	3.304800	-9.935900	26.043310	0.000509	20.822775
2056.565794	-2.989900	3.306200	-9.883600	26.072543	0.000509	20.805681
2057.566188	-2.997000	3.304400	-9.902400	26.137091	0.000508	20.804630
2058.580009	-2.997100	3.303800	-9.900500	26.184918	0.000508	20.835618
2059.569984	-2.999200	3.302700	-9.904300	26.223325	0.000511	20.816841
2060.577183	-3.004100	3.304800	-9.926800	26.242838	0.000508	20.824595
2061.571756	-3.006800	3.304500	-9.934700	26.247709	0.000509	20.806257
2062.574567	-3.010100	3.302100	-9.938100	26.275445	0.000506	20.832233
2063.569298	-2.996800	3.304000	-9.900300	26.300512	0.000507	20.812380
2064.565814	-2.994200	3.302900	-9.889100	26.336714	0.000504	20.810356
2065.578826	-3.015700	3.301300	-9.955000	26.367639	0.000505	20.817254
2066.568614	-3.000600	3.302400	-9.907700	26.343547	0.000505	20.825758
2067.572181	-2.995800	3.301500	-9.890000	26.301725	0.000505	20.804115
2068.571786	-2.983900	3.301700	-9.851000	26.312358	0.000503	20.798206
2069.567513	-3.010800	3.302800	-9.942500	26.316746	0.000503	20.810677
2070.567090	-2.993000	3.300600	-9.877900	26.289026	0.000501	20.812691
2071.565466	-3.004400	3.300300	-9.914500	26.246055	0.000503	20.799853
2072.576109	-2.983200	3.300800	-9.846200	26.246547	0.000500	20.805089
2073.574298	-2.992700	3.301000	-9.877900	26.230403	0.000501	20.827272
2074.573355	-2.992300	3.300300	-9.874100	26.251215	0.000499	20.825901
2075.562456	-2.995300	3.299300	-9.881400	26.245644	0.000498	20.831208
2076.570488	-2.994600	3.298500	-9.877000	26.221286	0.000499	20.806731
2077.578505	-3.004000	3.298800	-9.908500	26.198140	0.000499	20.833731
2078.567296	-3.012400	3.298000	-9.933600	26.210499	0.000498	20.828134
2079.566905	-3.008500	3.296200	-9.915400	26.246537	0.000496	20.828312
2080.581145	-3.006200	3.297500	-9.912200	26.295961	0.000497	20.818238
2081.570669	-3.015800	3.295800	-9.938100	26.304520	0.000495	20.830158
2082.574678	-2.978000	3.299100	-9.823400	26.350411	0.000496	20.830759
2083.585105	-2.978400	3.297700	-9.821500	26.385744	0.000495	20.830708
2084.589092	-2.989200	3.296000	-9.852000	26.405624	0.000496	20.814179
2085.568834	-2.992100	3.295300	-9.859000	26.434234	0.000493	20.844356
2086.572387	-3.030700	3.295000	-9.985700	26.471349	0.000495	20.831876
2087.576230	-3.007300	3.295700	-9.908500	26.507302	0.000492	20.834822
2088.581321	-3.021900	3.294000	-9.953300	26.521453	0.000493	20.831503
2089.576240	-2.994100	3.294500	-9.861700	26.543304	0.000493	20.832605
2090.584955	-3.003900	3.294500	-9.895300	26.573736	0.000490	20.830005
2091.572305	-2.996100	3.292700	-9.864300	26.602711	0.000494	20.847277
2092.573407	-2.992900	3.292800	-9.854000	26.605962	0.000490	20.832528
2093.575849	-3.009500	3.293100	-9.909900	26.590169	0.000488	20.831825
2094.600792	-2.998600	3.294600	-9.877800	26.607149	0.000490	20.825661
2095.593569	-2.995100	3.292300	-9.859700	26.578620	0.000488	20.824009
2096.573197	-3.002300	3.292800	-9.884800	26.552013	0.000489	20.821445
2097.585064	-2.999500	3.292000	-9.871900	26.550623	0.000489	20.846599
2098.586484	-2.990100	3.292900	-9.845000	26.534281	0.000487	20.845345
2099.581318	-3.009000	3.290800	-9.899400	26.557673	0.000485	20.841358
2100.579385	-2.995400	3.290800	-9.855700	26.585832	0.000484	20.836000
2101.576046	-3.007800	3.290000	-9.894400	26.584727	0.000486	20.861440
2102.580524	-2.993300	3.290400	-9.848500	26.593547	0.000485	20.848496
2103.579281	-3.008000	3.289900	-9.894800	26.575800	0.000485	20.849623
2104.578308	-2.998000	3.290100	-9.863000	26.573442	0.000484	20.851519
2105.580792	-2.989900	3.290300	-9.836900	26.518420	0.000484	20.840308
2106.575867	-3.013500	3.288900	-9.909500	26.555751	0.000484	20.831840
2107.582289	-3.027400	3.287600	-9.951800	26.536969	0.000482	20.847573
2108.576095	-2.973200	3.289700	-9.779700	26.549527	0.000484	20.838860
2109.583278	-2.980900	3.288300	-9.801300	26.585132	0.000482	20.847624
2110.581574	-2.990000	3.287700	-9.827500	26.557074	0.000481	20.837912
2111.585920	-2.978900	3.288200	-9.793900	26.579092	0.000481	20.840604
2112.585964	-2.999900	3.286700	-9.858000	26.542822	0.000480	20.852982
2113.581512	-3.015800	3.286500	-9.910800	26.556232	0.000480	20.867410
2114.594225	-3.002700	3.285700	-9.864900	26.573355	0.000479	20.853803
2115.577736	-2.976000	3.286600	-9.779100	26.601058	0.000479	20.867899
2116.582717	-2.977000	3.285000	-9.778700	26.607139	0.000477	20.844616
2117.583221	-3.011400	3.283800	-9.887900	26.618905	0.000476	20.834634
2118.580913	-3.007300	3.284300	-9.875900	26.629140	0.000477	20.838758
2119.580828	-2.982000	3.285700	-9.796900	26.641697	0.000476	20.842373
2120.580793	-3.033000	3.283400	-9.957300	26.653489	0.000474	20.871769
2121.580966	-3.003400	3.283300	-9.859300	26.614493	0.000474	20.852483
2122.585676	-3.000400	3.283600	-9.851300	26.576059	0.000474	20.857943
2123.587564	-3.010400	3.282400	-9.880900	26.546560	0.000473	20.868119
2124.585522	-2.990200	3.283000	-9.815800	26.493931	0.000471	20.860737
2125.579338	-2.995600	3.284000	-9.836000	26.458435	0.000473	20.862516
2126.590405	-3.008600	3.281900	-9.873200	26.446159	0.000472	20.871988
2127.589274	-2.999100	3.281900	-9.841200	26.465627	0.000470	20.868797
2128.588245	-2.993700	3.280500	-9.820000	26.476655	0.000470	20.849536
2129.590003	-3.009600	3.280900	-9.872900	26.471582	0.000469	20.862455
2130.579777	-2.989900	3.280500	-9.807400	26.491649	0.000469	20.855598
2131.577756	-3.028300	3.278600	-9.926600	26.488321	0.000469	20.863632
2132.588000	-2.980200	3.281200	-9.776100	26.515351	0.000469	20.864249
2133.580804	-3.016800	3.281400	-9.898200	26.520794	0.000468	20.862133
2134.592280	-3.001700	3.279500	-9.843000	26.520540	0.000468	20.855715
2135.587865	-3.017800	3.279200	-9.895300	26.518704	0.000465	20.867619
2136.595073	-3.012900	3.278100	-9.875100	26.535341	0.000465	20.863953
2137.581004	-2.981200	3.277000	-9.766700	26.558976	0.000464	20.873487
2138.597850	-3.008500	3.278300	-9.861300	26.596914	0.000465	20.880803
2139.597649	-3.024100	3.275800	-9.905500	26.640632	0.000464	20.860267
2140.581517	-2.994400	3.277400	-9.812700	26.637021	0.000462	20.879396
2141.590483	-2.965000	3.277600	-9.717400	26.625448	0.000464	20.890994
2142.587360	-3.003300	3.276400	-9.839200	26.663307	0.000460	20.869311
2143.597013	-3.018000	3.275400	-9.884200	26.673440	0.000462	20.881394
2144.582833	-2.991300	3.276200	-9.799400	26.727728	0.000460	20.864851
2145.594396	-3.007300	3.276400	-9.852000	26.750523	0.000460	20.874017
2146.589513	-2.981200	3.276900	-9.767800	26.762552	0.000460	20.869515
2147.607274	-2.990300	3.274000	-9.788500	26.760716	0.000460	20.885212
2148.599520	-3.014400	3.272800	-9.864400	26.732815	0.000459	20.882291
2149.603721	-2.999000	3.275500	-9.821800	26.662541	0.000459	20.859533
2150.590293	-2.991000	3.275000	-9.794000	26.628800	0.000457	20.895786
2151.594710	-3.021500	3.272400	-9.886400	26.588977	0.000456	20.890841
2152.597456	-2.994100	3.273800	-9.800600	26.525501	0.000456	20.865442
2153.589827	-3.021400	3.272500	-9.885800	26.491958	0.000456	20.891468
2154.590314	-2.972200	3.273100	-9.726300	26.445971	0.000454	20.902143
2155.586097	-2.988400	3.271400	-9.775500	26.444414	0.000455	20.880665
2156.588806	-2.989900	3.272700	-9.783300	26.472911	0.000455	20.903616
2157.595890	-3.001500	3.269900	-9.813800	26.499708	0.000454	20.881715
2158.589735	-3.017800	3.270800	-9.869200	26.504491	0.000453	20.880833
2159.599088	-2.981400	3.271800	-9.752600	26.547062	0.000452	20.893277
2160.595468	-2.998900	3.270600	-9.807300	26.534564	0.000451	20.875975
2161.592127	-3.025800	3.269100	-9.889000	26.509452	0.000449	20.872069
2162.587182	-2.981700	3.270900	-9.751500	26.523553	0.000451	20.885294
2163.600414	-2.983200	3.269000	-9.751200	26.533636	0.000449	20.904437
2164.602870	-3.022800	3.267400	-9.875200	26.587627	0.000448	20.881424
2165.604415	-2.995000	3.268000	-9.787500	26.582221	0.000448	20.912023
2166.603841	-3.009300	3.266700	-9.829400	26.556455	0.000446	20.906038
2167.600436	-2.999200	3.267200	-9.797400	26.556176	0.000446	20.894853
2168.609888	-3.008800	3.266600	-9.827700	26.538723	0.000448	20.905283
2169.610620	-2.985100	3.266700	-9.749900	26.562344	0.000446	20.910534
2170.602597	-2.997300	3.267900	-9.794100	26.573756	0.000445	20.898299
2171.616446	-3.012400	3.267300	-9.840900	26.621471	0.000445	20.911176
2172.605261	-3.002600	3.265700	-9.804400	26.634156	0.000444	20.875567
2173.595276	-3.005100	3.265600	-9.812500	26.673161	0.000442	20.904345
2174.608804	-3.002500	3.264900	-9.801400	26.678349	0.000444	20.903871
2175.599681	-3.010100	3.263800	-9.823500	26.660568	0.000440	20.893583
2176.595347	-2.991700	3.264000	-9.762500	26.714807	0.000441	20.903065
2177.606402	-3.000500	3.262900	-9.789200	26.730152	0.000441	20.900002
2178.612325	-3.021200	3.262900	-9.857500	26.758414	0.000440	20.887639
2179.601561	-2.980600	3.265200	-9.730800	26.716627	0.000439	20.910585
2180.628860	-2.997900	3.262600	-9.779400	26.754499	0.000439	20.921158
2181.593529	-2.991800	3.262600	-9.760300	26.751872	0.000437	20.899553
2182.599846	-2.993900	3.262400	-9.766500	26.751350	0.000440	20.902821
2183.615831	-2.996700	3.261400	-9.772800	26.777937	0.000438	20.910585
2184.604841	-3.011400	3.261500	-9.820800	26.805137	0.000437	20.917070
2185.608183	-2.979700	3.262100	-9.718900	26.836287	0.000437	20.897182
2186.612759	-3.011000	3.259500	-9.813200	26.840044	0.000434	20.910442
2187.610905	-2.973000	3.260800	-9.692500	26.856357	0.000436	20.906930
2188.603258	-2.980100	3.261400	-9.717800	26.875756	0.000434	20.918849
2189.615141	-2.979800	3.261400	-9.717400	26.898502	0.000434	20.890514
2190.602264	-3.008400	3.258300	-9.801000	26.905231	0.000434	20.914822
2191.605028	-3.004900	3.260400	-9.796600	26.905778	0.000433	20.902097
2192.604670	-2.970200	3.258900	-9.678400	26.906199	0.000431	20.924329
2193.613290	-3.003800	3.257900	-9.785200	26.839619	0.000429	20.905747
2194.605039	-2.992400	3.259600	-9.752700	26.791517	0.000430	20.933245
2195.594326	-2.988600	3.258300	-9.735100	26.760189	0.000430	20.906966
2196.600263	-3.014300	3.258100	-9.818800	26.716060	0.000430	20.917126
2197.601523	-2.976100	3.257100	-9.693100	26.691814	0.000429	20.927837
2198.610262	-2.990900	3.258000	-9.743400	26.655381	0.000428	20.920608
2199.609167	-3.007000	3.255700	-9.788700	26.645653	0.000427	20.925527
2200.599575	-2.985500	3.255300	-9.717500	26.654513	0.000425	20.941071
2201.603739	-3.009700	3.255200	-9.796000	26.642403	0.000427	20.928423
2202.597644	-3.002400	3.254700	-9.771300	26.650101	0.000425	20.928102
2203.613852	-2.996500	3.254200	-9.750500	26.656654	0.000424	20.927577
2204.613490	-2.995000	3.254600	-9.745500	26.667882	0.000425	20.941234
2205.592325	-2.994300	3.253700	-9.741800	26.663637	0.000423	20.935071
2206.601157	-2.982200	3.252400	-9.697200	26.648519	0.000424	20.951638
2207.603576	-3.001300	3.251700	-9.757800	26.652571	0.000423	20.943385
2208.608050	-2.999400	3.253400	-9.756300	26.711988	0.000420	20.942901
2209.606223	-3.010300	3.251600	-9.786900	26.735437	0.000421	20.938976
2210.593161	-2.979100	3.253300	-9.691500	26.773435	0.000420	20.942090
2211.606293	-3.008600	3.251200	-9.781100	26.815726	0.000420	20.958531
2212.607596	-2.987900	3.250100	-9.710100	26.858152	0.000418	20.955197
2213.600864	-2.981300	3.251100	-9.691700	26.862067	0.000418	20.943961
2214.606177	-3.010300	3.249300	-9.780000	26.882775	0.000419	20.956247
2215.606266	-3.003500	3.248600	-9.756200	26.857554	0.000418	20.950803
2216.603011	-3.004500	3.248600	-9.759500	26.836333	0.000415	20.954595
2217.613552	-3.006700	3.250400	-9.771400	26.820553	0.000416	20.950109
2218.612506	-2.972400	3.249200	-9.657100	26.834204	0.000415	20.939654
2219.612683	-3.025500	3.247800	-9.825300	26.873597	0.000413	20.964561
2220.609054	-3.006400	3.247800	-9.762800	26.914748	0.000413	20.951888
2221.612518	-2.980100	3.248500	-9.679500	26.946174	0.000414	20.951246
2222.607129	-2.985100	3.248700	-9.697100	26.947193	0.000411	20.960330
2223.620544	-2.986800	3.246500	-9.695600	26.913831	0.000411	20.963766
2224.613091	-2.962300	3.247500	-9.618400	26.900780	0.000412	20.955386
2225.608020	-3.012500	3.244200	-9.771600	26.867031	0.000413	20.963649
2226.614308	-3.007600	3.245000	-9.758700	26.863654	0.000410	20.964521
2227.615583	-3.010700	3.243600	-9.762900	26.890223	0.000410	20.986018
2228.610575	-3.009400	3.245100	-9.764000	26.892977	0.000411	20.966978
2229.626177	-2.978200	3.244700	-9.662000	26.925589	0.000407	20.950461
2230.612088	-3.001900	3.244400	-9.738600	26.954377	0.000408	20.953806
2231.611744	-3.005600	3.242800	-9.744100	26.952005	0.000408	20.976546
2232.616074	-3.005500	3.243100	-9.745900	26.985700	0.000405	20.975817
2233.615204	-2.989000	3.243500	-9.693800	26.955001	0.000405	20.979085
2234.622102	-2.978000	3.243100	-9.657200	26.918729	0.000405	20.968691
2235.621163	-2.994600	3.241400	-9.705700	26.895319	0.000404	20.972178
2236.608252	-3.003200	3.240800	-9.732100	26.941170	0.000404	20.965179
2237.613950	-2.999900	3.240400	-9.720000	26.979667	0.000401	20.952684
2238.618100	-2.973600	3.239500	-9.632300	26.977984	0.000402	20.976593
2239.616788	-2.995200	3.241000	-9.706200	26.991876	0.000402	20.973019
2240.619267	-2.991000	3.240700	-9.691800	27.018559	0.000402	20.959077
2241.614597	-3.003600	3.239600	-9.729200	27.014558	0.000400	20.972122
2242.620430	-2.984800	3.239200	-9.667800	27.034103	0.000401	20.951950
2243.618643	-3.028100	3.238200	-9.804900	27.054528	0.000400	20.952103
2244.621457	-3.026400	3.236000	-9.792300	27.089802	0.000398	20.942061
2245.619968	-2.997300	3.236700	-9.701100	27.116863	0.000396	20.941775
2246.610509	-2.997800	3.238200	-9.707200	27.143887	0.000396	20.961366
2247.633598	-2.972800	3.238500	-9.626600	27.151785	0.000397	20.944656
2248.616535	-2.963100	3.237200	-9.590600	27.118034	0.000395	20.953857
2249.621943	-2.992200	3.236600	-9.683900	27.175727	0.000396	20.954036
2250.613354	-3.008100	3.236000	-9.732900	27.177688	0.000394	20.972127
2251.619378	-3.014700	3.236100	-9.754800	27.183280	0.000393	20.934608
2252.612218	-2.963500	3.236300	-9.589400	27.226026	0.000393	20.935878
2253.611699	-3.011800	3.232600	-9.734800	27.182641	0.000391	20.955300
2254.616568	-2.963300	3.234800	-9.585000	27.172549	0.000393	20.937091
2255.628522	-3.003600	3.234500	-9.713900	27.163298	0.000393	20.951018
2256.617325	-3.042900	3.231400	-9.831700	27.153884	0.000391	20.954352
2257.616589	-3.003500	3.233200	-9.709600	27.162877	0.000390	20.935898
2258.616662	-2.982200	3.230600	-9.633300	27.175580	0.000389	20.953888
2259.608612	-3.005800	3.231100	-9.711100	27.203673	0.000389	20.962702
2260.607897	-3.006400	3.232200	-9.715400	27.234035	0.000387	20.929235
2261.626884	-2.990800	3.231700	-9.664100	27.245855	0.000387	20.935909
2262.616040	-3.025200	3.230000	-9.768800	27.250610	0.000388	20.946379
2263.617187	-2.991100	3.231900	-9.664900	27.241831	0.000386	20.929016
2264.626555	-3.005300	3.229900	-9.705600	27.239955	0.000386	20.920967
2265.620802	-3.005700	3.228500	-9.702600	27.239342	0.000384	20.919876
2266.613944	-2.991800	3.230000	-9.662100	27.194462	0.000384	20.924520
2267.617659	-2.996800	3.229200	-9.676800	27.168124	0.000384	20.926952
2268.625951	-2.984000	3.229300	-9.635100	27.141815	0.000385	20.930362
2269.613275	-3.006900	3.228100	-9.705600	27.134855	0.000383	20.917200
2270.614100	-2.980900	3.226600	-9.616600	27.128701	0.000381	20.916226
2271.625862	-3.024600	3.225000	-9.753300	27.094310	0.000383	20.915303
2272.623330	-2.987500	3.226000	-9.635500	27.062250	0.000380	20.937112
2273.622952	-3.004700	3.225300	-9.690500	27.004922	0.000381	20.907911
2274.613884	-3.003100	3.224500	-9.682400	27.024456	0.000381	20.930398
2275.622444	-2.991900	3.224700	-9.646900	27.031351	0.000379	20.923108
2276.615985	-2.992200	3.224900	-9.648800	27.055599	0.000379	20.917149
2277.633209	-2.991100	3.224400	-9.643500	27.101139	0.000378	20.913636
2278.616036	-2.999200	3.223300	-9.666000	27.126916	0.000379	20.909690
2279.623501	-3.022700	3.222300	-9.738400	27.137557	0.000378	20.924658
2280.610808	-2.997000	3.223600	-9.660400	27.143173	0.000376	20.917980
2281.618881	-3.006200	3.222200	-9.686100	27.146996	0.000374	20.915186
2282.622805	-2.995100	3.222200	-9.649900	27.155902	0.000374	20.904231
2283.617787	-3.007800	3.221400	-9.686500	27.201275	0.000375	20.906718
2284.613958	-2.993000	3.220700	-9.638600	27.154807	0.000373	20.914982
2285.624224	-3.009700	3.219200	-9.687500	27.109194	0.000373	20.904669
2286.616945	-3.012800	3.218100	-9.693400	27.055396	0.000373	20.920737
2287.626147	-3.016300	3.220300	-9.712900	27.007127	0.000374	20.913447
2288.621983	-2.989800	3.219500	-9.624300	27.022864	0.000371	20.914100
2289.613309	-2.994300	3.219700	-9.639600	27.033034	0.000369	20.896354
2290.620328	-3.027400	3.217500	-9.739500	27.060841	0.000370	20.913886
2291.613330	-2.994900	3.219200	-9.640600	27.048745	0.000372	20.909308
2292.619690	-2.970500	3.217900	-9.558700	26.995760	0.000370	20.915293
2293.620217	-2.999300	3.217300	-9.648700	26.958141	0.000368	20.900223
2294.625065	-2.991100	3.217300	-9.623100	26.897541	0.000368	20.908987
2295.621724	-2.989100	3.215900	-9.611600	26.855127	0.000368	20.887677
2296.620418	-3.009800	3.214200	-9.671700	26.892902	0.000368	20.890573
2297.631438	-3.031800	3.215200	-9.746300	26.927517	0.000365	20.906886
2298.615439	-3.003400	3.214200	-9.652600	26.924318	0.000366	20.906988
2299.618303	-2.986200	3.216800	-9.603500	26.898652	0.000365	20.889716
2300.633654	-2.987800	3.214300	-9.603300	26.933926	0.000363	20.893892
2301.622086	-3.022600	3.211400	-9.706300	26.956762	0.000364	20.902156
2302.631541	-2.973600	3.214000	-9.556100	26.969366	0.000365	20.893494
2303.636873	-2.975400	3.214900	-9.564200	26.987233	0.000364	20.893917
2304.627762	-2.996100	3.211700	-9.621800	27.028587	0.000362	20.892831
2305.625405	-3.016300	3.212400	-9.688300	27.064405	0.000362	20.908462
2306.634426	-3.001800	3.213700	-9.645800	27.085874	0.000362	20.884063
2307.627434	-3.013100	3.211100	-9.673500	27.107308	0.000361	20.893290
2308.624012	-3.012300	3.210400	-9.668100	27.117284	0.000361	20.894789
2309.621731	-2.990500	3.209400	-9.597300	27.109498	0.000359	20.908294
2310.627697	-3.034900	3.208500	-9.735300	27.101204	0.000359	20.887152
2311.616169	-2.980200	3.209400	-9.562800	27.055421	0.000358	20.891368
2312.617281	-3.003000	3.209800	-9.637300	27.065307	0.000357	20.905102
2313.623434	-3.017000	3.207200	-9.676100	27.084653	0.000357	20.889472
2314.622107	-3.041700	3.207500	-9.754000	27.082843	0.000357	20.903772
2315.625119	-2.992600	3.208000	-9.598900	27.139711	0.000356	20.886051
2316.624652	-2.990600	3.205400	-9.584700	27.182697	0.000355	20.870018
2317.620328	-2.987000	3.207900	-9.581700	27.188765	0.000357	20.896507
2318.625702	-2.998300	3.206700	-9.613400	27.212817	0.000353	20.896043
2319.623938	-3.026400	3.204400	-9.697100	27.233508	0.000355	20.875131
2320.626916	-3.012800	3.203200	-9.649400	27.227801	0.000352	20.878399
2321.642812	-2.998100	3.204700	-9.606800	27.187143	0.000352	20.903410
2322.624456	-3.009500	3.204600	-9.643400	27.199886	0.000352	20.895839
2323.624484	-3.003700	3.203400	-9.620800	27.159420	0.000353	20.905872
2324.631679	-2.985200	3.202900	-9.559600	27.126876	0.000351	20.887841
2325.633956	-2.985700	3.202600	-9.561600	27.150640	0.000350	20.891827
2326.636202	-3.003400	3.201900	-9.615200	27.148040	0.000350	20.866928
2327.630216	-3.014700	3.201700	-9.651000	27.152014	0.000347	20.898424
2328.627162	-2.999100	3.202500	-9.604100	27.120889	0.000349	20.883716
2329.636376	-2.988700	3.201800	-9.566900	27.160703	0.000349	20.874448
2330.622857	-2.996900	3.201200	-9.593100	27.171241	0.000347	20.888840
2331.630239	-3.004600	3.199000	-9.611200	27.169011	0.000348	20.883752
2332.632255	-2.985000	3.199200	-9.548700	27.118567	0.000347	20.869528
2333.642567	-3.006200	3.198100	-9.613300	27.122567	0.000344	20.866439
2334.621440	-3.003700	3.199100	-9.608600	27.127626	0.000345	20.881958
2335.632758	-3.012800	3.197400	-9.631900	27.110015	0.000345	20.890324
2336.635500	-2.988000	3.198800	-9.557300	27.155132	0.000344	20.897293
2337.636146	-2.997600	3.198000	-9.585700	27.186672	0.000344	20.880178
2338.626064	-2.993000	3.196100	-9.565800	27.199740	0.000343	20.886210
2339.629212	-3.021100	3.196400	-9.655700	27.227172	0.000343	20.886301
2340.635052	-3.020500	3.194700	-9.648600	27.235632	0.000342	20.877267
2341.642101	-3.010700	3.195300	-9.619200	27.293242	0.000340	20.874525
2342.640331	-3.017100	3.193700	-9.635100	27.323906	0.000341	20.857482
2343.626805	-2.992000	3.195000	-9.558700	27.365345	0.000338	20.883992
2344.633845	-3.010200	3.193600	-9.612700	27.363358	0.000339	20.853072
2345.640016	-2.996700	3.194100	-9.570900	27.359181	0.000339	20.858828
2346.636931	-3.005000	3.191800	-9.590900	27.345741	0.000338	20.880393
2347.633522	-2.983600	3.191100	-9.519900	27.356901	0.000339	20.886403
2348.634265	-3.011400	3.190200	-9.606100	27.354874	0.000338	20.869192
2349.637012	-3.018800	3.190600	-9.631100	27.380544	0.000334	20.872256
2350.645345	-2.986100	3.191000	-9.528300	27.369333	0.000337	20.860979
2351.633976	-2.993600	3.189400	-9.546500	27.342999	0.000338	20.878583
2352.628201	-3.006100	3.190500	-9.590400	27.298873	0.000337	20.877818
2353.640180	-3.013100	3.190600	-9.612400	27.284170	0.000336	20.875356
2354.631617	-2.995100	3.188100	-9.547100	27.259683	0.000336	20.872062
2355.635773	-2.996000	3.189600	-9.555700	27.278133	0.000335	20.860750
2356.647771	-2.991200	3.189800	-9.539800	27.296466	0.000333	20.872552
2357.637108	-3.009700	3.186100	-9.588400	27.336542	0.000334	20.862131
2358.642450	-3.000600	3.186100	-9.559500	27.382262	0.000332	20.868295
2359.639342	-3.009900	3.185400	-9.586200	27.383422	0.000332	20.872307
2360.652938	-2.987500	3.185500	-9.515500	27.342963	0.000330	20.851996
2361.641219	-2.978700	3.187000	-9.491500	27.276765	0.000331	20.872175
2362.642110	-3.004200	3.184900	-9.567300	27.247808	0.000330	20.847316
2363.644129	-2.989400	3.183300	-9.515400	27.212888	0.000328	20.868616
2364.639938	-3.019000	3.184000	-9.611500	27.187381	0.000330	20.876625
2365.645617	-3.023700	3.182600	-9.622000	27.158777	0.000330	20.869666
2366.636865	-2.987900	3.183400	-9.510500	27.197165	0.000327	20.861336
2367.641382	-2.990400	3.184200	-9.520500	27.203460	0.000330	20.869564
2368.636858	-2.988200	3.182700	-9.508900	27.232839	0.000326	20.851700
2369.638809	-2.990100	3.180900	-9.509000	27.219574	0.000328	20.861591
2370.644355	-2.986100	3.182600	-9.502800	27.222352	0.000325	20.869600
2371.639318	-2.986700	3.182300	-9.503300	27.241248	0.000325	20.857788
2372.655083	-2.985200	3.180200	-9.492800	27.285711	0.000325	20.882595
2373.643869	-2.993000	3.182100	-9.522400	27.312285	0.000325	20.859067
2374.635736	-2.987100	3.179200	-9.495900	27.329203	0.000327	20.868973
2375.646189	-2.994400	3.178500	-9.517400	27.339177	0.000325	20.863834
2376.659372	-2.967700	3.179100	-9.433200	27.362248	0.000324	20.851955
2377.639961	-3.006500	3.178300	-9.553800	27.336349	0.000324	20.860041
2378.647789	-2.994100	3.176400	-9.509300	27.285635	0.000321	20.842692
2379.650028	-2.978200	3.176100	-9.457600	27.255502	0.000322	20.850314
2380.645337	-2.998400	3.175900	-9.521100	27.230584	0.000321	20.857018
2381.640655	-3.013000	3.174900	-9.565300	27.231740	0.000321	20.844905
2382.658012	-2.996600	3.173800	-9.509500	27.230645	0.000320	20.841907
2383.642520	-2.983700	3.174800	-9.471500	27.258543	0.000323	20.841520
2384.644012	-3.000800	3.173800	-9.522600	27.267576	0.000321	20.855346
2385.652375	-2.992000	3.172300	-9.490600	27.292255	0.000320	20.857411
2386.657476	-3.000500	3.173000	-9.520300	27.278164	0.000320	20.863151
2387.648360	-3.041300	3.171900	-9.644800	27.258017	0.000318	20.837671
2388.647065	-3.005600	3.170700	-9.527900	27.216113	0.000319	20.854791
2389.662639	-3.014600	3.171100	-9.559000	27.189562	0.000319	20.859853
2390.654833	-2.981600	3.169700	-9.449600	27.192147	0.000317	20.854867
2391.644967	-2.986300	3.173000	-9.474200	27.225450	0.000317	20.858966
2392.666757	-2.977600	3.169900	-9.438200	27.244484	0.000315	20.854404
2393.650888	-3.004100	3.167800	-9.514100	27.264206	0.000316	20.842000
2394.652983	-3.003600	3.168100	-9.515100	27.266943	0.000314	20.847124
2395.654580	-2.997900	3.168000	-9.496700	27.277161	0.000313	20.846022
2396.648759	-3.004400	3.168400	-9.518100	27.267708	0.000313	20.851686
2397.651767	-3.007700	3.167500	-9.526200	27.267911	0.000314	20.854735
2398.661209	-2.972700	3.165900	-9.409800	27.281683	0.000312	20.842510
2399.651273	-3.002300	3.165500	-9.502500	27.303401	0.000312	20.855821
2400.661145	-3.040800	3.163500	-9.618200	27.332028	0.000311	20.853323
2401.665369	-2.991000	3.164500	-9.464000	27.312448	0.000312	20.836948
2402.657317	-2.994800	3.164400	-9.475800	27.368220	0.000313	20.847532
2403.652781	-2.983900	3.164000	-9.439300	27.412079	0.000311	20.850876
2404.652398	-3.006600	3.162100	-9.505800	27.429274	0.000310	20.847313
2405.653894	-3.013100	3.161800	-9.526300	27.425184	0.000310	20.844147
2406.653222	-3.005100	3.161100	-9.498300	27.454177	0.000309	20.842969
2407.674834	-3.012800	3.160100	-9.519700	27.469183	0.000308	20.847160
2408.660066	-2.995800	3.161300	-9.469200	27.493482	0.000309	20.839839
2409.654380	-3.016000	3.160000	-9.527800	27.540497	0.000309	20.850157
2410.655262	-3.001900	3.158100	-9.479300	27.509637	0.000308	20.826695
2411.661536	-2.995800	3.158600	-9.460700	27.504286	0.000305	20.846441
2412.653389	-2.982700	3.160000	-9.422900	27.449079	0.000307	20.839737
2413.659173	-3.005900	3.156500	-9.487100	27.443794	0.000305	20.851962
2414.656564	-2.977500	3.156000	-9.396100	27.439019	0.000307	20.839099
2415.660956	-3.008400	3.154200	-9.488400	27.489078	0.000307	20.835882
2416.654689	-2.996300	3.154500	-9.451100	27.489509	0.000306	20.832997
2417.658633	-3.022300	3.152800	-9.528200	27.474022	0.000304	20.832115
2418.663085	-3.008400	3.155300	-9.491300	27.423517	0.000305	20.835357
2419.658584	-3.009300	3.152600	-9.486000	27.449170	0.000305	20.834139
2420.668221	-3.011500	3.151400	-9.489300	27.453833	0.000304	20.836933
2421.667243	-3.020900	3.150700	-9.516400	27.478822	0.000303	20.845477
2422.661336	-3.002000	3.150600	-9.457000	27.491100	0.000303	20.808994
2423.667204	-2.983200	3.150600	-9.396700	27.470951	0.000303	20.829974
2424.657534	-2.990400	3.150500	-9.420500	27.485308	0.000303	20.830193
2425.662951	-3.000400	3.148700	-9.446400	27.516042	0.000303	20.826502
2426.661362	-2.981700	3.148100	-9.385600	27.523340	0.000302	20.847593
2427.673314	-3.026900	3.146400	-9.523200	27.504808	0.000302	20.818992
2428.664379	-2.998600	3.146900	-9.435700	27.449601	0.000301	20.840262
2429.662781	-2.995200	3.145300	-9.419400	27.402343	0.000299	20.837764
2430.668865	-3.011200	3.145800	-9.471200	27.377743	0.000300	20.811120
2431.669037	-2.988700	3.143400	-9.393500	27.387616	0.000300	20.814414
2432.671554	-3.020900	3.142500	-9.492500	27.436050	0.000301	20.834215
2433.665061	-3.004400	3.143600	-9.443400	27.447665	0.000300	20.816978
2434.662363	-2.983100	3.142700	-9.373200	27.464328	0.000300	20.837534
2435.665356	-2.995200	3.142200	-9.410800	27.469690	0.000299	20.821592
2436.682635	-3.003000	3.142200	-9.434500	27.484376	0.000298	20.824513
2437.667838	-3.018200	3.140400	-9.476400	27.500425	0.000298	20.827384
2438.670292	-3.001900	3.139600	-9.424300	27.541167	0.000298	20.836607
2439.676346	-3.021000	3.138600	-9.480100	27.568986	0.000297	20.835674
2440.671365	-2.988000	3.140300	-9.381800	27.556632	0.000297	20.829882
2441.664731	-3.022600	3.137700	-9.482500	27.569037	0.000296	20.822923
2442.673112	-2.999400	3.137200	-9.407500	27.560336	0.000296	20.818911
2443.679530	-3.003600	3.135900	-9.417800	27.549665	0.000295	20.822872
2444.666756	-3.007500	3.135400	-9.427800	27.531590	0.000297	20.804686
2445.663010	-3.000400	3.134700	-9.405000	27.476182	0.000295	20.831442
2446.667305	-3.008000	3.133800	-9.424200	27.501058	0.000296	20.825177
2447.664029	-2.996400	3.133900	-9.389200	27.496690	0.000295	20.812247
2448.665169	-2.989600	3.133600	-9.367200	27.505771	0.000295	20.805737
2449.685383	-2.981000	3.132600	-9.337300	27.465585	0.000295	20.823152
2450.671144	-2.973700	3.132500	-9.314100	27.420659	0.000293	20.810197
2451.675737	-2.998100	3.131300	-9.386700	27.428033	0.000294	20.810978
2452.668239	-2.983400	3.131600	-9.340100	27.459342	0.000293	20.811182
2453.679413	-3.020700	3.129200	-9.452000	27.485354	0.000293	20.829291
2454.670213	-2.991700	3.128700	-9.359300	27.514725	0.000292	20.819487
2455.666236	-3.006200	3.127000	-9.399700	27.513707	0.000292	20.814669
2456.666169	-2.984800	3.127000	-9.332900	27.512202	0.000290	20.801775
2457.679792	-2.995800	3.126600	-9.366000	27.566017	0.000289	20.812772
2458.668783	-2.991500	3.126300	-9.351400	27.584406	0.000290	20.821791
2459.675034	-2.992400	3.125100	-9.350300	27.618745	0.000290	20.821730
2460.675873	-3.002800	3.124400	-9.380600	27.666566	0.000290	20.807735
2461.671046	-2.990300	3.123000	-9.338000	27.681340	0.000290	20.816438
2462.667170	-2.999500	3.122000	-9.363300	27.669190	0.000290	20.816066
2463.675563	-2.994400	3.123100	-9.350100	27.664772	0.000289	20.813042
2464.670266	-2.992400	3.121100	-9.339100	27.707053	0.000290	20.802009
2465.678066	-2.997300	3.121000	-9.353400	27.691311	0.000288	20.822204
2466.684194	-2.981600	3.121100	-9.305400	27.728383	0.000288	20.787438
2467.678005	-2.999700	3.118400	-9.352500	27.681963	0.000289	20.798099
2468.673136	-2.984100	3.118200	-9.304000	27.671738	0.000289	20.809147
2469.670528	-3.002200	3.117900	-9.358900	27.644930	0.000287	20.812043
2470.694584	-2.986100	3.116100	-9.304000	27.659244	0.000289	20.804161
2471.678744	-2.976500	3.116100	-9.273800	27.684664	0.000286	20.814093
2472.667207	-3.005500	3.113800	-9.357100	27.725262	0.000289	20.800893
2473.674483	-2.993000	3.113400	-9.317400	27.750143	0.000286	20.808862
2474.689246	-3.002700	3.113500	-9.347000	27.746222	0.000285	20.798752
2475.677814	-2.984000	3.111400	-9.281600	27.751252	0.000286	20.806185
2476.673205	-2.984600	3.110100	-9.280500	27.722855	0.000283	20.817437
2477.681478	-3.030100	3.109100	-9.419800	27.683058	0.000285	20.811528
2478.680813	-3.016200	3.109100	-9.376500	27.708603	0.000285	20.816846
2479.677697	-2.994300	3.107900	-9.305400	27.696722	0.000285	20.824330
2480.684877	-3.003400	3.107300	-9.331800	27.675823	0.000287	20.816102
2481.677712	-2.978000	3.106000	-9.248500	27.686204	0.000283	20.819910
2482.675122	-3.005400	3.105800	-9.333500	27.724011	0.000285	20.817652
2483.681352	-2.977700	3.106200	-9.247700	27.728738	0.000282	20.794908
2484.685349	-2.987200	3.105900	-9.276100	27.694569	0.000285	20.803198
2485.676164	-2.977700	3.103800	-9.240900	27.625823	0.000284	20.811783
2486.689153	-3.008600	3.102500	-9.333200	27.601360	0.000285	20.829841
2487.686328	-2.988600	3.101400	-9.269200	27.549979	0.000283	20.810386
2488.682864	-3.004900	3.099500	-9.312000	27.550683	0.000281	20.822948
2489.679222	-2.959700	3.100600	-9.175500	27.583413	0.000283	20.804197
2490.682024	-2.986500	3.098200	-9.250900	27.622540	0.000283	20.805160
2491.676973	-2.999300	3.098800	-9.293400	27.626031	0.000282	20.802509
2492.685766	-3.003300	3.096900	-9.300100	27.642534	0.000280	20.801571
2493.685621	-2.997800	3.095800	-9.279700	27.667204	0.000279	20.805532
2494.682964	-3.003100	3.096800	-9.299200	27.677646	0.000282	20.808454
2495.684226	-3.008700	3.093400	-9.306200	27.650088	0.000281	20.804905
2496.697298	-2.976900	3.094000	-9.208600	27.644469	0.000280	20.797829
2497.702713	-3.001700	3.093700	-9.285500	27.627521	0.000280	20.813965
2498.694086	-3.003100	3.092200	-9.284900	27.627049	0.000283	20.820603
2499.684309	-3.008400	3.090200	-9.295500	27.606391	0.000280	20.805507
2500.682151	-3.017000	3.089600	-9.318900	27.638739	0.000279	20.808658
2501.683393	-3.007700	3.087900	-9.285700	27.676896	0.000281	20.798216
2502.699292	-3.020600	3.087800	-9.326300	27.705781	0.000279	20.792195
2503.683004	-3.012700	3.086100	-9.295700	27.722207	0.000280	20.788810
2504.690812	-3.014400	3.086100	-9.301700	27.742341	0.000281	20.808122
2505.700155	-2.991900	3.084500	-9.226900	27.779091	0.000279	20.799113
2506.683213	-2.994100	3.084300	-9.233900	27.732370	0.000279	20.805201
2507.686281	-2.989600	3.084900	-9.220900	27.721431	0.000277	20.788978
2508.681060	-3.008000	3.082700	-9.271000	27.715752	0.000279	20.812660
2509.685904	-2.996900	3.081600	-9.233600	27.735567	0.000280	20.816478
2510.689595	-2.994200	3.081300	-9.225500	27.773757	0.000279	20.819823
2511.682590	-3.013000	3.079300	-9.276800	27.763826	0.000279	20.794183
2512.688488	-3.016300	3.077900	-9.282600	27.799138	0.000278	20.792261
2513.687232	-2.989900	3.079200	-9.205700	27.818414	0.000277	20.811660
2514.681901	-2.981000	3.077100	-9.171500	27.855355	0.000277	20.797630
2515.690502	-2.999800	3.076200	-9.227300	27.866317	0.000277	20.809611
2516.687895	-2.984300	3.075000	-9.175700	27.868176	0.000278	20.800577
2517.698619	-2.988500	3.073800	-9.184600	27.877320	0.000276	20.814046
2518.701580	-2.983800	3.073700	-9.170500	27.895106	0.000277	20.815352
2519.688772	-3.010900	3.071900	-9.248500	27.926937	0.000277	20.809458
2520.691224	-3.007400	3.070700	-9.233800	27.927039	0.000278	20.807189
2521.697610	-2.998600	3.071000	-9.208100	27.906260	0.000277	20.814250
2522.691586	-2.988400	3.069500	-9.171900	27.873971	0.000276	20.803090
2523.690210	-3.006500	3.067100	-9.219900	27.884067	0.000276	20.805665
2524.697852	-3.020600	3.066700	-9.262500	27.845208	0.000277	20.805909
2525.696255	-3.002600	3.065000	-9.201700	27.845299	0.000276	20.793673
2526.692763	-2.993800	3.065500	-9.175600	27.809173	0.000277	20.816585
2527.693381	-3.041700	3.061900	-9.312300	27.788240	0.000277	20.808795
2528.700531	-2.979800	3.062700	-9.125000	27.734376	0.000275	20.789676
2529.721682	-3.009000	3.060900	-9.209200	27.697826	0.000276	20.806475
2530.694883	-3.004500	3.060500	-9.193300	27.698348	0.000276	20.829759
2531.695277	-3.018300	3.060300	-9.235900	27.705314	0.000276	20.815433
2532.704988	-3.013100	3.056800	-9.209200	27.730135	0.000277	20.808642
2533.700996	-2.967700	3.057000	-9.071500	27.730312	0.000275	20.813562
2534.693120	-3.006200	3.057400	-9.190700	27.773852	0.000276	20.826083
2535.700969	-3.006800	3.054300	-9.182300	27.792136	0.000274	20.815560
2536.699798	-3.001500	3.054900	-9.167700	27.765625	0.000274	20.826812
2537.697531	-2.969900	3.054500	-9.070600	27.770974	0.000275	20.829825
2538.694697	-3.017700	3.052800	-9.211100	27.760062	0.000275	20.805093
2539.693742	-2.999600	3.051800	-9.153200	27.748333	0.000275	20.827903
2540.700181	-2.995300	3.049300	-9.132900	27.786751	0.000277	20.818675
2541.701118	-3.003100	3.048400	-9.153300	27.762301	0.000274	20.835321
2542.694175	-2.986000	3.048100	-9.100400	27.734695	0.000273	20.811334
2543.701072	-2.992900	3.045700	-9.114000	27.731143	0.000274	20.821510
2544.705642	-3.005100	3.043900	-9.145700	27.673643	0.000273	20.821021
2545.693850	-3.013400	3.043200	-9.169400	27.668054	0.000274	20.833888
2546.696230	-2.993600	3.043700	-9.109000	27.686046	0.000274	20.815484
2547.698568	-2.998700	3.041400	-9.119400	27.736924	0.000273	20.830172
2548.693262	-2.976700	3.042400	-9.055500	27.767763	0.000274	20.832283
2549.698398	-2.991300	3.041300	-9.096000	27.785758	0.000275	20.816254
2550.697321	-3.006400	3.039600	-9.137600	27.818890	0.000274	20.829683
2551.705234	-2.971300	3.039300	-9.029700	27.846140	0.000275	20.822494
2552.702987	-3.030600	3.036300	-9.200600	27.849691	0.000274	20.819904
2553.710912	-3.004800	3.035700	-9.119700	27.902379	0.000274	20.829310
2554.707895	-2.993200	3.033300	-9.077400	27.928533	0.000273	20.840460
2555.696301	-2.995600	3.032200	-9.082500	27.974369	0.000273	20.824482
2556.708045	-3.003000	3.032200	-9.105000	27.988562	0.000272	20.844457
2557.704971	-3.003700	3.031500	-9.104200	27.988167	0.000272	20.816560
2558.702221	-3.007700	3.028800	-9.108300	28.006143	0.000272	20.855041
2559.709569	-2.998400	3.027300	-9.076000	28.000440	0.000273	20.831284
2560.699600	-2.977700	3.029000	-9.018000	28.011477	0.000272	20.832436
2561.701533	-2.998700	3.026300	-9.073500	27.997993	0.000272	20.836407
2562.698555	-2.995600	3.025600	-9.061700	27.956732	0.000273	20.843713
2563.711799	-2.998400	3.023400	-9.064200	27.926633	0.000273	20.831911
2564.701768	-2.968300	3.023100	-8.972300	27.942128	0.000272	20.842291
2565.700243	-3.018200	3.021400	-9.118400	27.941885	0.000273	20.827348
2566.714289	-3.000800	3.019500	-9.059200	27.945143	0.000272	20.825411
2567.703144	-3.009200	3.019000	-9.083600	27.957102	0.000272	20.863999
2568.706138	-2.985200	3.018600	-9.010100	27.987108	0.000272	20.844891
2569.700482	-3.014600	3.016900	-9.093100	28.024666	0.000273	20.851875
2570.708215	-3.005800	3.014400	-9.059700	28.050675	0.000275	20.844391
2571.709024	-3.007500	3.013600	-9.062000	27.986521	0.000271	20.846196
2572.707230	-3.001800	3.012500	-9.042100	27.928655	0.000273	20.846747
2573.702666	-2.989100	3.011800	-9.001400	27.903292	0.000273	20.868159
2574.711491	-3.000400	3.009600	-9.029000	27.897755	0.000273	20.847415
2575.714190	-2.995400	3.009000	-9.012400	27.931547	0.000271	20.848235
2576.715823	-3.003000	3.008900	-9.035500	27.973473	0.000271	20.841123
2577.717170	-3.013000	3.006400	-9.056900	28.012976	0.000271	20.848643
2578.717687	-2.987000	3.005600	-8.976700	28.053116	0.000271	20.845901
2579.703836	-2.998300	3.004500	-9.007300	28.052812	0.000273	20.838483
2580.706361	-3.034300	3.002400	-9.108600	27.981567	0.000272	20.841684
2581.711869	-3.020200	3.000100	-9.059800	27.946338	0.000272	20.842261
2582.721319	-2.997200	3.001700	-8.995300	27.956833	0.000270	20.867996
2583.715322	-3.003800	3.000300	-9.012200	27.959467	0.000272	20.861164
2584.714290	-2.990500	2.997500	-8.962400	27.990391	0.000274	20.842979
2585.722173	-3.006400	2.995300	-9.004200	27.998146	0.000272	20.835138
2586.710706	-2.993800	2.995700	-8.967700	28.051019	0.000272	20.853272
2587.707434	-3.014400	2.995100	-9.027500	28.047352	0.000272	20.865702
2588.724673	-3.017600	2.992500	-9.029200	28.009502	0.000271	20.839930
2589.732867	-2.982100	2.992400	-8.922700	28.031554	0.000272	20.836050
2590.712833	-3.001500	2.990100	-8.973100	28.006903	0.000272	20.852962
2591.712508	-2.977700	2.990600	-8.903700	27.993004	0.000270	20.844187
2592.715833	-2.989400	2.988900	-8.933200	27.969715	0.000272	20.852039
2593.717809	-2.997700	2.985000	-8.945700	27.944444	0.000273	20.858371
2594.716998	-2.991700	2.985400	-8.930700	27.925104	0.000269	20.872095
2595.717675	-3.000800	2.983900	-8.953200	27.956514	0.000268	20.851080
2596.723614	-2.997200	2.983000	-8.939700	27.953597	0.000272	20.866161
2597.718600	-2.993200	2.981800	-8.924600	27.989489	0.000270	20.873838
2598.718169	-3.015200	2.979000	-8.981900	28.029351	0.000271	20.873660
2599.720292	-2.983600	2.978800	-8.887100	28.013908	0.000272	20.858116
2600.727896	-2.979400	2.978300	-8.872700	28.004219	0.000272	20.875388
2601.714468	-3.014200	2.974300	-8.964300	27.973741	0.000271	20.868893
2602.725968	-2.987800	2.975200	-8.888600	27.935645	0.000271	20.861843
2603.723883	-3.021800	2.971400	-8.977000	27.976679	0.000272	20.882755
2604.719033	-3.002100	2.970800	-8.918100	28.017676	0.000270	20.874236
2605.724666	-2.993700	2.970400	-8.891300	28.056849	0.000272	20.856770
2606.759711	-3.008600	2.966400	-8.923500	28.112758	0.000269	20.887919
2607.733144	-2.974600	2.966000	-8.821200	28.145667	0.000270	20.876005
2608.717600	-3.001000	2.965500	-8.898300	28.158181	0.000269	20.869163
2609.719200	-3.013200	2.964000	-8.930000	28.167510	0.000271	20.834460
2610.720475	-3.024800	2.961600	-8.957600	28.139773	0.000270	20.873390
2611.716764	-2.989800	2.962400	-8.855600	28.115103	0.000268	20.866099
2612.725127	-3.008400	2.960600	-8.906000	28.096962	0.000270	20.883397
2613.717901	-2.984800	2.959500	-8.831300	28.076313	0.000270	20.878732
2614.721874	-2.973200	2.958000	-8.794200	28.089223	0.000268	20.870392
2615.726113	-3.010800	2.957100	-8.902000	28.071425	0.000269	20.885666
2616.722789	-2.990300	2.955900	-8.838200	28.037688	0.000269	20.877310
2617.721020	-2.977800	2.952400	-8.790200	27.987590	0.000269	20.870504
2618.721058	-2.996700	2.951300	-8.842200	27.990087	0.000269	20.887241
2619.725688	-2.981200	2.951600	-8.797400	27.975357	0.000270	20.867200
2620.728952	-2.966200	2.947200	-8.741400	27.976694	0.000271	20.880874
2621.723832	-2.996900	2.948300	-8.834400	28.015524	0.000270	20.897197
2622.719472	-2.987300	2.944800	-8.796300	27.982332	0.000271	20.890815
2623.726957	-3.001100	2.943400	-8.832600	28.024828	0.000273	20.890917
2624.736580	-3.004900	2.942600	-8.841000	28.036529	0.000271	20.891789
2625.720297	-2.998400	2.941900	-8.818900	28.113776	0.000270	20.878987
2626.725277	-3.015500	2.940100	-8.863700	28.113827	0.000271	20.883306
2627.726441	-2.987300	2.936700	-8.771300	28.102153	0.000270	20.889571
2628.732908	-2.987700	2.936600	-8.773600	28.069678	0.000270	20.903346
2629.730038	-2.971900	2.935800	-8.724100	28.035698	0.000271	20.914658
2630.722762	-3.035900	2.930900	-8.896500	28.011345	0.000271	20.885406
2631.723783	-2.978300	2.931500	-8.730300	27.995087	0.000271	20.879946
2632.726260	-2.960500	2.930200	-8.673900	28.043731	0.000269	20.878177
2633.722855	-3.014700	2.927200	-8.824200	28.092211	0.000270	20.897106
2634.729384	-3.001700	2.925000	-8.778400	28.114678	0.000269	20.888903
2635.730745	-3.016700	2.924000	-8.820000	28.148489	0.000270	20.898284
2636.723687	-3.058600	2.920800	-8.932400	28.183276	0.000272	20.890632
2637.735851	-3.035000	2.921300	-8.864800	28.200894	0.000271	20.883714
2638.733556	-3.015800	2.918500	-8.800400	28.195395	0.000269	20.925114
2639.729897	-2.979500	2.921100	-8.700100	28.240723	0.000271	20.907689
2640.723754	-3.005000	2.916500	-8.762600	28.252649	0.000270	20.906894
2641.742328	-2.983600	2.914500	-8.694200	28.220381	0.000273	20.899064
2642.735929	-2.999200	2.916100	-8.744600	28.162527	0.000271	20.920001
2643.727293	-2.976500	2.914200	-8.672900	28.087511	0.000271	20.908021
2644.735581	-2.990400	2.911300	-8.704300	28.035891	0.000269	20.912956
2645.731110	-2.992900	2.908600	-8.704300	27.997594	0.000271	20.891952
2646.725664	-3.000500	2.907400	-8.722800	27.965713	0.000269	20.912966
2647.731782	-3.016700	2.905700	-8.765100	27.961210	0.000269	20.914597
2648.736042	-3.015000	2.903100	-8.751900	27.924360	0.000270	20.910697
2649.763205	-2.968900	2.903700	-8.618900	27.937464	0.000272	20.886905
2650.730995	-3.010300	2.901100	-8.730600	27.973585	0.000269	20.907139
2651.730004	-3.018000	2.898600	-8.747000	28.012455	0.000271	20.897901
2652.731035	-2.980800	2.897800	-8.635200	28.034680	0.000271	20.925486
2653.737173	-2.999800	2.896600	-8.688300	28.011077	0.000270	20.915005
2654.732470	-2.996100	2.892600	-8.665700	28.027371	0.000269	20.922397
2655.733800	-3.007900	2.890400	-8.692800	28.090175	0.000270	20.928718
2656.731717	-2.982600	2.889900	-8.618500	28.110707	0.000270	20.915250
2657.725500	-2.990600	2.888800	-8.638600	28.101925	0.000270	20.907832
2658.728877	-2.999100	2.885400	-8.652200	28.116056	0.000269	20.917314
2659.728452	-2.974200	2.884200	-8.577100	28.171238	0.000268	20.929717
2660.725157	-2.991200	2.881000	-8.616900	28.212633	0.000269	20.928244
2661.730658	-3.002700	2.880200	-8.647700	28.240039	0.000269	20.924069
2662.734317	-2.979600	2.879800	-8.579400	28.241629	0.000269	20.926143
2663.737231	-2.989600	2.876800	-8.599300	28.250233	0.000269	20.919634
2664.732701	-2.983200	2.874800	-8.575400	28.239821	0.000271	20.926694
2665.729898	-3.008300	2.873600	-8.642800	28.283619	0.000269	20.907256
2666.728205	-3.024000	2.869700	-8.677100	28.325430	0.000270	20.912843
2667.732279	-3.011900	2.869100	-8.640000	28.314482	0.000268	20.937379
2668.727856	-3.013100	2.866800	-8.636100	28.334620	0.000270	20.931104
2669.736635	-2.985400	2.865000	-8.552500	28.339851	0.000269	20.940637
2670.731517	-3.000100	2.863800	-8.590500	28.394728	0.000271	20.938995
2671.732137	-2.994100	2.862300	-8.568800	28.371629	0.000270	20.924747
2672.733982	-2.999400	2.860000	-8.577200	28.355963	0.000267	20.945479
2673.733798	-3.002200	2.857300	-8.576400	28.350043	0.000270	20.929564
2674.741652	-2.997600	2.855000	-8.557600	28.343147	0.000270	20.938740
2675.742262	-3.019500	2.854300	-8.618100	28.374479	0.000269	20.933780
2676.732796	-3.021400	2.850300	-8.611000	28.405254	0.000270	20.950067
2677.740514	-2.988600	2.850400	-8.518400	28.433198	0.000270	20.926052
2678.754914	-2.975700	2.848300	-8.474900	28.413588	0.000268	20.927642
2679.747741	-2.969300	2.845500	-8.447700	28.392105	0.000269	20.930665
2680.736988	-2.984300	2.844700	-8.488700	28.397629	0.000269	20.955665
2681.735582	-3.017100	2.840900	-8.570400	28.364120	0.000268	20.939469
2682.745118	-3.012600	2.840000	-8.554700	28.343592	0.000268	20.939663
2683.737390	-3.008400	2.837300	-8.534500	28.318417	0.000270	20.923324
2684.734447	-2.979400	2.837400	-8.452600	28.333192	0.000270	20.944837
2685.735626	-3.016300	2.831500	-8.540100	28.296207	0.000270	20.948375
2686.736184	-3.020700	2.830100	-8.547700	28.335942	0.000270	20.936701
2687.746994	-3.016800	2.829000	-8.533700	28.350195	0.000270	20.930665
2688.745936	-3.005700	2.827200	-8.497200	28.379978	0.000269	20.944531
2689.747973	-3.018500	2.823100	-8.520200	28.372368	0.000270	20.969107
2690.736979	-3.001700	2.822300	-8.469800	28.429522	0.000268	20.953641
2691.743566	-3.008600	2.821700	-8.488300	28.439116	0.000270	20.952871
2692.738128	-3.019900	2.817600	-8.507400	28.493709	0.000267	20.962802
2693.746634	-3.028900	2.814900	-8.524700	28.517048	0.000268	20.974924
2694.745437	-2.992800	2.813800	-8.420300	28.482485	0.000271	20.933959
2695.747306	-3.013700	2.809600	-8.466100	28.529098	0.000269	20.964775
2696.741088	-2.991600	2.808100	-8.399700	28.511844	0.000270	20.951668
2697.739339	-2.990500	2.807300	-8.394600	28.480627	0.000270	20.959585
2698.739567	-2.999600	2.804500	-8.411400	28.452720	0.000267	20.951872
2699.749837	-2.981100	2.802700	-8.353800	28.483655	0.000270	20.968797
2700.740106	-2.991000	2.798100	-8.367900	28.492155	0.000268	20.961237
2701.742939	-2.988900	2.797100	-8.359600	28.516400	0.000269	20.977590
2702.745668	-3.017700	2.792300	-8.425000	28.555286	0.000269	20.965070
2703.740743	-2.994900	2.792300	-8.361600	28.612556	0.000268	20.953998
2704.746886	-2.950500	2.790900	-8.233500	28.669317	0.000271	20.972283
2705.745350	-2.998300	2.786300	-8.352600	28.637254	0.000268	20.960854
2706.741577	-3.013400	2.783100	-8.385300	28.615103	0.000268	20.978844
2707.745060	-2.998100	2.779900	-8.333000	28.654126	0.000269	20.964571
2708.748044	-3.049600	2.774200	-8.458900	28.674420	0.000269	20.977896
2709.761560	-3.020700	2.773300	-8.375200	28.713542	0.000270	20.949502
2710.746743	-3.018500	2.771200	-8.363800	28.739726	0.000269	20.977768
2711.745301	-3.021100	2.767900	-8.361400	28.769610	0.000269	20.987005
2712.749946	-3.020800	2.765600	-8.353600	28.794036	0.000269	20.957561
2713.751691	-2.990200	2.765000	-8.265800	28.846855	0.000269	20.945337
2714.751135	-3.007200	2.760100	-8.298700	28.834986	0.000268	20.956139
2715.750068	-3.009700	2.758900	-8.301100	28.888952	0.000267	20.971620
2716.744843	-2.987000	2.757100	-8.234900	28.869766	0.000269	20.974577
2717.748407	-3.003400	2.752800	-8.266800	28.817687	0.000270	20.966686
2718.753161	-3.014100	2.748000	-8.281800	28.825689	0.000269	20.979960
2719.757912	-3.000900	2.746000	-8.239400	28.807013	0.000270	20.959728
2720.746609	-2.988000	2.742600	-8.193600	28.771315	0.000270	20.951271
2721.752181	-3.038700	2.738800	-8.319600	28.799851	0.000270	20.938292
2722.749648	-2.990300	2.736600	-8.182000	28.802736	0.000269	20.972013
2723.754585	-3.004300	2.732100	-8.206900	28.755843	0.000269	20.966977
2724.760112	-2.988800	2.730300	-8.159000	28.742637	0.000267	20.958418
2725.756137	-3.012700	2.727900	-8.217000	28.700858	0.000268	20.983187
2726.756341	-2.973000	2.723300	-8.095200	28.703171	0.000267	20.961813
2727.756488	-3.007000	2.718800	-8.174100	28.700347	0.000271	20.965606
2728.759778	-3.004700	2.718000	-8.165500	28.760828	0.000268	20.957776
2729.750420	-3.009300	2.714300	-8.167200	28.755165	0.000268	20.942590
2730.754567	-2.999700	2.710100	-8.127600	28.761324	0.000267	20.948319
2731.752849	-3.002000	2.706400	-8.123500	28.753322	0.000268	20.936941
2732.755025	-2.980200	2.703600	-8.056200	28.782238	0.000269	20.948049
2733.753720	-2.996400	2.698400	-8.084400	28.823174	0.000268	20.971739
2734.757730	-2.988800	2.695500	-8.053800	28.844395	0.000266	20.943334
2735.737309	-2.978300	2.693100	-8.020600	28.844927	0.000269	20.950507
2736.741913	-2.981200	2.689400	-8.016100	28.813912	0.000269	20.939654
2737.739490	-3.051600	2.682300	-8.184400	28.734083	0.000268	20.934632
2738.763756	-2.988700	2.681600	-8.013200	28.717278	0.000267	20.938093
2739.742391	-3.042900	2.674900	-8.138000	28.706118	0.000267	20.950084
2740.739948	-3.012300	2.673200	-8.051900	28.722452	0.000268	20.944726
2741.758276	-3.020800	2.669500	-8.063400	28.724082	0.000268	20.941152
2742.763026	-2.996600	2.664400	-7.982800	28.659245	0.000269	20.951710
2743.753904	-2.999200	2.661000	-7.980300	28.658344	0.000268	20.941795
2744.753999	-3.002700	2.656600	-7.975400	28.692618	0.000267	20.941229
2745.755928	-2.972000	2.653500	-7.885500	28.701334	0.000268	20.950481
2746.758108	-2.992300	2.648700	-7.925000	28.736549	0.000268	20.936167
2747.758776	-2.981100	2.644800	-7.883100	28.739464	0.000267	20.924880
2748.740140	-2.982900	2.641000	-7.877100	28.746231	0.000269	20.933118
2749.778922	-2.988500	2.636000	-7.876500	28.735506	0.000267	20.925635
2750.760215	-3.009100	2.630800	-7.915200	28.730723	0.000270	20.918447
2751.761676	-2.991400	2.625400	-7.852500	28.767388	0.000269	20.936411
2752.765132	-2.997200	2.621300	-7.854800	28.829774	0.000268	20.927184
2753.758222	-2.982000	2.618300	-7.806000	28.872454	0.000267	20.920394
2754.764546	-2.995600	2.613300	-7.826800	28.907754	0.000269	20.932721
2755.762782	-2.977900	2.608100	-7.765600	28.931721	0.000270	20.936952
2756.746119	-3.027800	2.601100	-7.874100	28.920896	0.000268	20.932211
2757.742545	-2.991500	2.597400	-7.770000	28.911888	0.000268	20.945419
2758.743253	-2.997600	2.592000	-7.769000	28.859366	0.000268	20.907211
2759.760297	-2.996500	2.586600	-7.750000	28.871361	0.000267	20.901751
2760.767300	-2.980700	2.581100	-7.692400	28.855500	0.000268	20.924650
2761.768743	-2.998600	2.575800	-7.723400	28.820223	0.000269	20.937477
2762.760710	-2.983700	2.572200	-7.673300	28.853718	0.000269	20.895358
2763.760722	-3.022800	2.564800	-7.751800	28.908988	0.000268	20.920216
2764.759861	-2.988100	2.559100	-7.645800	28.892212	0.000266	20.918013
2765.760861	-3.018500	2.553300	-7.706600	28.873233	0.000268	20.927342
2766.771064	-3.011700	2.549600	-7.677300	28.830503	0.000267	20.917014
2767.773554	-3.025300	2.541000	-7.686300	28.806993	0.000268	20.907083
2768.766499	-2.990900	2.536100	-7.583100	28.813178	0.000269	20.919002
2769.776165	-2.980300	2.531700	-7.544100	28.856162	0.000270	20.916784
2770.767154	-3.009100	2.524400	-7.595300	28.897227	0.000269	20.917375
2771.769010	-3.003400	2.517700	-7.561000	28.940972	0.000268	20.899334
2772.772344	-2.969600	2.513700	-7.464300	28.992169	0.000269	20.911559
2773.763692	-2.990900	2.506900	-7.497100	29.016539	0.000268	20.901500
2774.771374	-2.962700	2.501700	-7.410500	29.050817	0.000268	20.927500
2775.767164	-2.993000	2.494600	-7.465700	29.011337	0.000268	20.917595
