LabVIEW Measurement	
Writer_Version	2
Reader_Version	2
Separator	Tab
Decimal_Separator	.
Multi_Headings	No
X_Columns	One
Time_Pref	Absolute
Operator	admin
Description	Clolumns are: time, Current, Voltage, Power, Battery Temp, and Chamber Temp
Date	2024/08/16
Time	13:06:06.104549407958984375
***End_of_Header***	
	
Channels	6						
Samples	1	1	1	1	1	1	
Date	2024/08/21	2024/08/21	2024/08/21	2024/08/21	2024/08/21	2024/08/21	
Time	07:10:52.3150992393493652344	07:10:52.3284206390380859375	07:10:52.33440399169921875	07:10:52.2948446273803710938	07:10:52.2948446273803710938	07:10:52.2948446273803710938	
X_Dimension	Time	Time	Time	Time	Time	Time	
X0	0.0000000000000000E+0	0.0000000000000000E+0	0.0000000000000000E+0	0.0000000000000000E+0	0.0000000000000000E+0	0.0000000000000000E+0	
Delta_X	1.000000	1.000000	1.000000	1.000000	1.000000	1.000000	
***End_of_Header***							
X_Value	Untitled	Untitled 1	Untitled 2	Untitled 3	Untitled 4	Untitled 5	Comment
0.000000	3.400000E+38	4.104900	0.227040	20.973971	0.000991	20.852126
0.997085	-2.978200	3.954500	-11.776000	20.971852	0.000991	20.850006
2.002523	-3.021500	3.947200	-11.925000	20.989266	0.000990	20.837078
2.998208	-2.991900	3.942000	-11.792000	20.974145	0.000988	20.834757
3.998518	-3.012500	3.938800	-11.864000	20.982855	0.000989	20.844890
5.004030	-3.003800	3.936500	-11.824000	20.976044	0.000986	20.819587
5.996317	-2.988800	3.933400	-11.755000	20.977566	0.000987	20.858566
6.999051	-3.001800	3.930400	-11.797000	21.002614	0.000985	20.866548
8.001441	-3.013800	3.926800	-11.832000	20.997598	0.000985	20.861531
9.000188	-2.999600	3.927400	-11.780000	20.990865	0.000984	20.862858
9.996645	-2.993800	3.924300	-11.747000	20.990865	0.000985	20.865228
11.003315	-3.003700	3.923200	-11.783000	20.976416	0.000984	20.854571
11.998493	-3.005800	3.921200	-11.785000	21.000517	0.000982	20.859235
12.998651	-3.006800	3.920000	-11.786000	21.015113	0.000982	20.865774
14.001335	-2.997100	3.918800	-11.745000	21.028635	0.000981	20.873133
14.997218	-3.016700	3.916500	-11.813000	20.989861	0.000978	20.861379
16.000058	-2.986500	3.917300	-11.698000	21.011166	0.000978	20.879842
17.000813	-3.005100	3.915300	-11.764000	21.030352	0.000979	20.874850
18.000010	-3.010900	3.913900	-11.783000	21.041726	0.000978	20.881011
18.999931	-3.005800	3.912800	-11.760000	21.019123	0.000979	20.865042
20.002729	-2.982800	3.913100	-11.671000	21.029425	0.000978	20.868708
21.000754	-3.013300	3.910900	-11.784000	21.038206	0.000976	20.853784
22.000167	-3.014500	3.909800	-11.785000	21.045738	0.000974	20.867481
23.000555	-3.007200	3.909400	-11.755000	21.050878	0.000975	20.858872
24.002188	-3.008500	3.907900	-11.756000	21.052923	0.000974	20.886520
25.000022	-3.020400	3.906700	-11.799000	21.065019	0.000975	20.862585
25.999107	-3.016500	3.908200	-11.789000	21.063799	0.000973	20.863260
27.002671	-3.010700	3.906200	-11.760000	21.064468	0.000975	20.863456
27.998631	-3.012200	3.904600	-11.761000	21.072979	0.000971	20.867701
29.006229	-2.994400	3.906000	-11.695000	21.082206	0.000972	20.877404
30.005897	-3.015600	3.904600	-11.774000	21.088095	0.000972	20.879501
31.004304	-3.002400	3.903700	-11.719000	21.091510	0.000971	20.882916
32.008993	-3.008000	3.904000	-11.740000	21.089068	0.000970	20.876681
33.007937	-2.988700	3.903100	-11.663000	21.105728	0.000970	20.867741
34.005342	-3.013900	3.902900	-11.761000	21.097694	0.000968	20.891472
35.006503	-2.986200	3.902000	-11.650000	21.106800	0.000970	20.878296
36.006156	-2.977300	3.902000	-11.616000	21.118625	0.000969	20.880168
37.004961	-2.988000	3.901000	-11.654000	21.122167	0.000969	20.875175
38.007696	-2.974000	3.899600	-11.595000	21.121144	0.000966	20.879368
39.009426	-3.017500	3.901100	-11.771000	21.124459	0.000968	20.885055
40.004148	-2.986000	3.899400	-11.643000	21.148234	0.000966	20.874698
41.011546	-2.977400	3.900200	-11.611000	21.133788	0.000967	20.884903
42.008618	-2.988300	3.899100	-11.651000	21.162052	0.000965	20.888045
43.007486	-3.000700	3.897000	-11.692000	21.160658	0.000965	20.888547
44.014031	-3.007900	3.896300	-11.717000	21.166792	0.000965	20.892786
45.011809	-3.008100	3.896900	-11.722000	21.167539	0.000966	20.887369
46.005019	-2.993200	3.896000	-11.660000	21.172728	0.000965	20.904887
47.014413	-3.015200	3.897600	-11.751000	21.180535	0.000964	20.886145
48.008764	-2.989400	3.896200	-11.647000	21.180408	0.000966	20.885070
49.010227	-2.994800	3.895700	-11.665000	21.195551	0.000967	20.889312
50.013211	-3.008500	3.894800	-11.716000	21.188491	0.000964	20.893629
51.006970	-2.997300	3.895300	-11.674000	21.202710	0.000965	20.885095
52.009984	-2.995200	3.893300	-11.659000	21.208869	0.000965	20.879402
53.013213	-3.012000	3.894000	-11.728000	21.215533	0.000965	20.879904
54.009560	-3.009400	3.892400	-11.713000	21.252401	0.000963	20.908249
55.010874	-3.019300	3.894500	-11.758000	21.233643	0.000963	20.894701
56.013573	-3.000700	3.892700	-11.680000	21.228755	0.000964	20.898819
57.009413	-2.997300	3.893400	-11.668000	21.233466	0.000963	20.886939
58.013585	-2.992000	3.893600	-11.649000	21.257989	0.000962	20.892504
59.012619	-3.024100	3.893300	-11.773000	21.248534	0.000963	20.896322
60.016108	-3.003900	3.892400	-11.692000	21.256468	0.000962	20.903784
61.012190	-2.995100	3.893100	-11.659000	21.264971	0.000960	20.890955
62.011840	-2.999200	3.891800	-11.671000	21.274726	0.000962	20.913988
63.011353	-3.006500	3.891200	-11.698000	21.274801	0.000962	20.903158
64.009449	-3.010600	3.890000	-11.710000	21.269163	0.000962	20.892303
65.016166	-3.007500	3.891600	-11.703000	21.268515	0.000962	20.885966
66.011981	-3.006200	3.889800	-11.692000	21.294809	0.000959	20.891407
67.014149	-2.996400	3.890500	-11.656000	21.290293	0.000961	20.892104
68.017873	-3.003700	3.888700	-11.679000	21.308851	0.000961	20.877955
69.013621	-2.998300	3.889800	-11.661000	21.296603	0.000961	20.886564
70.014738	-3.009600	3.889400	-11.704000	21.299595	0.000959	20.893824
71.015977	-3.014200	3.889300	-11.721000	21.289044	0.000960	20.877106
72.017118	-3.008100	3.888600	-11.696000	21.311121	0.000958	20.883071
73.012099	-2.984400	3.889500	-11.607000	21.319250	0.000959	20.887884
74.017984	-2.985800	3.888700	-11.609000	21.338433	0.000959	20.879102
75.015586	-2.994100	3.888700	-11.642000	21.334190	0.000960	20.898088
76.017066	-2.983800	3.888100	-11.600000	21.339657	0.000958	20.876059
77.016459	-2.993800	3.887800	-11.638000	21.340927	0.000958	20.876855
78.018299	-2.997900	3.887800	-11.654000	21.357889	0.000958	20.875334
79.017762	-3.003200	3.886800	-11.671000	21.352698	0.000959	20.888157
80.022422	-2.993200	3.887100	-11.634000	21.355241	0.000959	20.883589
81.020017	-2.988100	3.887700	-11.614000	21.362226	0.000959	20.870190
82.019399	-2.966500	3.888600	-11.535000	21.383602	0.000958	20.878774
83.019669	-3.001300	3.886200	-11.662000	21.377713	0.000957	20.892796
84.019475	-2.999200	3.886300	-11.654000	21.380857	0.000957	20.858011
85.020421	-2.989600	3.884800	-11.613000	21.382003	0.000959	20.879071
86.019560	-3.008100	3.885400	-11.687000	21.408614	0.000959	20.867763
87.023469	-2.996600	3.884700	-11.640000	21.401359	0.000957	20.870462
88.018518	-3.018800	3.883500	-11.723000	21.403503	0.000959	20.875926
89.018917	-3.001100	3.883800	-11.655000	21.419238	0.000960	20.874125
90.024503	-2.967100	3.885300	-11.527000	21.413579	0.000958	20.871783
91.022784	-2.988200	3.883900	-11.604000	21.415174	0.000957	20.871008
92.025626	-3.009800	3.883500	-11.687000	21.447197	0.000957	20.861798
93.019092	-2.997800	3.885300	-11.646000	21.444478	0.000958	20.860974
94.022017	-3.016200	3.883600	-11.713000	21.434724	0.000959	20.887249
95.025663	-3.011700	3.882100	-11.690000	21.445153	0.000957	20.875873
96.027083	-3.000800	3.883800	-11.653000	21.455154	0.000960	20.847475
97.024281	-3.003000	3.883800	-11.660000	21.470294	0.000958	20.863097
98.029274	-3.006000	3.881900	-11.667000	21.472161	0.000958	20.860698
99.031515	-3.003800	3.881800	-11.659000	21.479592	0.000959	20.880934
100.024939	-3.012500	3.881000	-11.690000	21.489419	0.000959	20.886973
101.027341	-3.017200	3.880900	-11.708000	21.484826	0.000958	20.838758
102.028333	-3.017400	3.881400	-11.709000	21.487050	0.000957	20.859948
103.025160	-3.005700	3.880800	-11.664000	21.502217	0.000957	20.869434
104.024933	-3.007100	3.882900	-11.675000	21.501690	0.000959	20.866536
105.030567	-2.999100	3.881600	-11.640000	21.486879	0.000956	20.855036
106.026875	-2.992900	3.881000	-11.613000	21.491838	0.000957	20.864265
107.029499	-3.013000	3.881000	-11.692000	21.493957	0.000956	20.849790
108.029187	-3.014400	3.878900	-11.691000	21.504335	0.000958	20.853537
109.027733	-2.997100	3.881600	-11.632000	21.494158	0.000957	20.843354
110.028701	-2.992600	3.881700	-11.616000	21.525535	0.000958	20.859576
111.026388	-2.991100	3.880500	-11.606000	21.518826	0.000957	20.861398
112.026936	-3.028200	3.878900	-11.745000	21.526479	0.000960	20.853410
113.032727	-2.996400	3.880100	-11.625000	21.540274	0.000957	20.857255
114.032286	-2.984600	3.879300	-11.577000	21.560872	0.000960	20.851789
115.029475	-2.990700	3.879400	-11.601000	21.537356	0.000958	20.833948
116.034019	-2.995300	3.878800	-11.616000	21.552417	0.000958	20.854708
117.032014	-2.980600	3.878300	-11.558000	21.559178	0.000960	20.845352
118.029821	-3.024200	3.877100	-11.724000	21.575936	0.000961	20.842207
119.028957	-3.001900	3.877800	-11.640000	21.589949	0.000959	20.862393
120.030926	-3.007400	3.878100	-11.662000	21.584384	0.000960	20.857773
121.030744	-2.996800	3.877400	-11.619000	21.591318	0.000958	20.838160
122.032490	-2.997100	3.878700	-11.623000	21.588104	0.000959	20.864813
123.032709	-3.018300	3.876500	-11.699000	21.595481	0.000961	20.832842
124.029527	-3.025100	3.876200	-11.725000	21.583889	0.000959	20.855381
125.034090	-2.979800	3.876400	-11.548000	21.614136	0.000960	20.844398
126.035344	-2.980600	3.877500	-11.556000	21.590770	0.000959	20.847568
127.034068	-3.000300	3.878000	-11.634000	21.588026	0.000959	20.860469
128.036948	-2.981000	3.877400	-11.558000	21.609073	0.000960	20.843124
129.033640	-2.999900	3.877800	-11.632000	21.621240	0.000960	20.850559
130.033850	-3.012100	3.876600	-11.674000	21.599996	0.000959	20.844472
131.037696	-3.012300	3.876300	-11.675000	21.618274	0.000959	20.825306
132.038339	-3.000400	3.875400	-11.627000	21.626028	0.000963	20.840177
133.032777	-2.987200	3.876600	-11.579000	21.622910	0.000962	20.842746
134.037523	-2.999400	3.874500	-11.618000	21.644005	0.000962	20.842994
135.038177	-2.972300	3.876300	-11.521000	21.653478	0.000961	20.843466
136.033988	-2.990300	3.875300	-11.587000	21.670287	0.000961	20.847485
137.038764	-2.997200	3.873500	-11.608000	21.669188	0.000962	20.820307
138.037093	-3.035800	3.874200	-11.761000	21.656844	0.000959	20.849205
139.036368	-3.019900	3.874500	-11.699000	21.675521	0.000961	20.849877
140.039098	-2.997800	3.875000	-11.616000	21.667965	0.000963	20.836626
141.039261	-2.976000	3.874800	-11.529000	21.661555	0.000960	20.837324
142.033395	-3.000000	3.874700	-11.622000	21.685792	0.000962	20.841191
143.040264	-3.009800	3.872300	-11.654000	21.713473	0.000961	20.839970
144.035151	-3.002600	3.873300	-11.628000	21.709485	0.000961	20.830763
145.033701	-2.978000	3.874700	-11.538000	21.682429	0.000962	20.845412
146.039835	-3.009300	3.872000	-11.651000	21.714445	0.000961	20.814865
147.042357	-3.004100	3.873000	-11.635000	21.724642	0.000962	20.842613
148.038245	-2.997500	3.874500	-11.611000	21.752898	0.000960	20.834383
149.042610	-2.991600	3.873900	-11.588000	21.733245	0.000963	20.839369
150.041038	-2.995300	3.872000	-11.596000	21.763020	0.000962	20.837401
151.036481	-2.983400	3.871700	-11.549000	21.751898	0.000963	20.847132
152.041310	-3.018600	3.872400	-11.687000	21.774635	0.000962	20.841913
153.040571	-3.000800	3.871900	-11.617000	21.753065	0.000963	20.836447
154.034613	-3.009800	3.870700	-11.648000	21.760051	0.000964	20.820679
155.040149	-2.996200	3.871200	-11.598000	21.779847	0.000963	20.813465
156.042482	-2.994100	3.872000	-11.592000	21.775508	0.000962	20.834253
157.037869	-2.992300	3.872500	-11.587000	21.760599	0.000965	20.826917
158.042918	-2.996100	3.871800	-11.599000	21.775385	0.000964	20.824646
159.041555	-2.978200	3.872000	-11.531000	21.792539	0.000965	20.828538
160.037539	-3.025500	3.870900	-11.711000	21.801815	0.000965	20.830710
161.040611	-2.987600	3.870800	-11.565000	21.790074	0.000966	20.830339
162.040778	-3.007500	3.869800	-11.638000	21.790696	0.000966	20.835229
163.035305	-3.018600	3.868200	-11.676000	21.809999	0.000966	20.801443
164.040483	-3.004900	3.870900	-11.631000	21.816978	0.000964	20.834507
165.040478	-2.992000	3.870400	-11.578000	21.822511	0.000965	20.822501
166.039726	-3.016100	3.868600	-11.667000	21.827124	0.000967	20.829964
167.040327	-2.997400	3.869100	-11.595000	21.827923	0.000966	20.829341
168.041489	-3.004300	3.868700	-11.622000	21.840615	0.000966	20.812646
169.039373	-2.981800	3.869600	-11.537000	21.852034	0.000968	20.793730
170.038706	-3.006200	3.868800	-11.629000	21.821817	0.000965	20.819436
171.042010	-2.987100	3.870300	-11.560000	21.848343	0.000967	20.835554
172.037283	-3.011100	3.868100	-11.646000	21.850439	0.000968	20.806359
173.041772	-3.010200	3.868100	-11.642000	21.861784	0.000969	20.808230
174.044704	-2.997500	3.868300	-11.593000	21.860362	0.000970	20.812972
175.042477	-2.999700	3.866700	-11.598000	21.887116	0.000970	20.820310
176.047890	-2.976600	3.867300	-11.510000	21.890457	0.000970	20.812749
177.048171	-3.001000	3.866700	-11.603000	21.894596	0.000969	20.805987
178.042101	-3.006700	3.868200	-11.629000	21.907560	0.000970	20.827971
179.043845	-2.984200	3.867500	-11.540000	21.912399	0.000970	20.801995
180.045146	-3.016000	3.868100	-11.665000	21.915389	0.000971	20.810678
181.043087	-3.020200	3.866700	-11.678000	21.926210	0.000972	20.824354
182.047741	-2.975400	3.866800	-11.503000	21.912476	0.000971	20.792589
183.050154	-3.012600	3.867000	-11.648000	21.894897	0.000973	20.825727
184.044150	-3.001600	3.865600	-11.602000	21.909334	0.000974	20.808410
185.050427	-2.999800	3.866100	-11.595000	21.914145	0.000975	20.800898
186.050253	-3.000000	3.867200	-11.601000	21.913745	0.000973	20.804291
187.045312	-2.983500	3.866300	-11.534000	21.924343	0.000974	20.808261
188.046339	-3.004700	3.864400	-11.611000	21.907912	0.000973	20.834014
189.048461	-2.983500	3.866400	-11.534000	21.914170	0.000975	20.823208
190.043238	-3.019600	3.863600	-11.666000	21.927857	0.000973	20.795657
191.049225	-3.027500	3.865600	-11.702000	21.909782	0.000977	20.788471
192.048710	-3.024700	3.864400	-11.688000	21.945934	0.000976	20.792890
193.043089	-2.994300	3.866200	-11.575000	21.938430	0.000976	20.801025
194.049211	-3.014500	3.865300	-11.650000	21.949894	0.000977	20.813923
195.046771	-2.980300	3.864900	-11.517000	21.966396	0.000974	20.791086
196.046566	-3.013000	3.862700	-11.637000	21.979011	0.000977	20.796129
197.048029	-2.998200	3.864700	-11.586000	21.976866	0.000979	20.802990
198.047752	-3.010800	3.864700	-11.635000	22.004310	0.000977	20.803910
199.047322	-3.016400	3.863000	-11.651000	22.008251	0.000976	20.810226
200.047994	-2.986200	3.865200	-11.540000	22.011418	0.000979	20.783999
201.047874	-3.027400	3.862900	-11.692000	21.995060	0.000978	20.799392
202.047160	-3.020000	3.862600	-11.664000	22.023179	0.000978	20.797669
203.049028	-2.988600	3.864200	-11.547000	21.998574	0.000977	20.797220
204.047966	-3.000500	3.863700	-11.590000	22.006552	0.000977	20.807577
205.047811	-3.006500	3.863300	-11.614000	22.037014	0.000979	20.808200
206.047618	-3.008700	3.861800	-11.617000	22.026842	0.000979	20.790904
207.044712	-3.010000	3.861300	-11.622000	22.030080	0.000979	20.800784
208.048501	-3.002700	3.861900	-11.596000	22.040974	0.000980	20.797939
209.046328	-3.020700	3.861300	-11.663000	22.058675	0.000981	20.798115
210.043116	-2.986100	3.862500	-11.532000	22.048174	0.000979	20.802302
211.045598	-2.991800	3.860700	-11.550000	22.057898	0.000981	20.794019
212.048445	-3.014500	3.860700	-11.636000	22.053087	0.000981	20.792996
213.049877	-2.987700	3.861900	-11.537000	22.062086	0.000979	20.786358
214.049072	-2.994600	3.861200	-11.562000	22.074676	0.000982	20.789004
215.046357	-3.013500	3.859500	-11.630000	22.059192	0.000981	20.784408
216.049381	-2.985600	3.861100	-11.527000	22.066349	0.000981	20.776400
217.050021	-2.985000	3.860700	-11.523000	22.082477	0.000981	20.794917
218.050086	-2.989900	3.861000	-11.542000	22.072280	0.000983	20.771433
219.050591	-3.009900	3.859400	-11.616000	22.068342	0.000983	20.788353
220.050889	-3.008500	3.859700	-11.610000	22.085148	0.000983	20.782893
221.051028	-3.003600	3.859900	-11.592000	22.078366	0.000982	20.801233
222.048934	-2.969800	3.860200	-11.463000	22.103118	0.000983	20.793296
223.051499	-3.014800	3.858200	-11.631000	22.084523	0.000986	20.777525
224.051075	-3.007800	3.858600	-11.605000	22.106511	0.000984	20.764924
225.050341	-3.013900	3.857400	-11.624000	22.096515	0.000986	20.771513
226.050434	-3.007200	3.858700	-11.603000	22.121047	0.000984	20.779952
227.050871	-2.997200	3.858600	-11.565000	22.119075	0.000988	20.796470
228.051311	-3.001600	3.857300	-11.577000	22.112296	0.000986	20.780674
229.050904	-2.991400	3.859300	-11.544000	22.116038	0.000987	20.778256
230.052430	-2.994000	3.857900	-11.549000	22.132862	0.000986	20.782772
231.049606	-2.990000	3.858500	-11.534000	22.133862	0.000987	20.777134
232.052330	-2.992500	3.858300	-11.545000	22.132045	0.000987	20.773893
233.052536	-2.994800	3.856800	-11.549000	22.138973	0.000988	20.776087
234.054101	-3.005100	3.858000	-11.593000	22.132444	0.000990	20.779982
235.053915	-2.996000	3.857300	-11.554000	22.153360	0.000989	20.796655
236.054121	-2.988700	3.858200	-11.530000	22.140300	0.000990	20.775045
237.054948	-3.020600	3.855600	-11.645000	22.154310	0.000990	20.772950
238.056262	-3.005700	3.855800	-11.587000	22.164382	0.000991	20.757904
239.055637	-3.007600	3.857300	-11.600000	22.188863	0.000991	20.777199
240.053446	-3.009600	3.856000	-11.604000	22.171988	0.000989	20.780218
241.057057	-3.002600	3.855800	-11.576000	22.205188	0.000991	20.774577
242.057693	-3.012300	3.855900	-11.614000	22.189216	0.000995	20.759060
243.057629	-3.023100	3.853800	-11.649000	22.195122	0.000992	20.755016
244.056552	-3.016200	3.854200	-11.624000	22.212421	0.000996	20.750051
245.059406	-3.000600	3.855300	-11.566000	22.198217	0.000993	20.769495
246.057467	-2.992000	3.856400	-11.537000	22.200359	0.000996	20.757888
247.057637	-3.018600	3.853000	-11.629000	22.184013	0.000994	20.756221
248.058867	-2.988200	3.856200	-11.522000	22.190844	0.000992	20.738878
249.054728	-2.993500	3.854800	-11.538000	22.193487	0.000994	20.750534
250.057722	-2.988400	3.854500	-11.518000	22.209490	0.000998	20.755651
251.059669	-2.987900	3.853500	-11.513000	22.204482	0.000995	20.743524
252.058370	-2.991800	3.854400	-11.531000	22.230952	0.000998	20.743000
253.057762	-2.996600	3.852500	-11.543000	22.224551	0.000999	20.765515
254.058810	-3.005500	3.853200	-11.580000	22.238708	0.000998	20.757405
255.057159	-2.982400	3.853600	-11.492000	22.255933	0.000998	20.753314
256.057148	-3.011800	3.852700	-11.603000	22.245589	0.001000	20.750069
257.059050	-3.000200	3.852300	-11.556000	22.263856	0.000998	20.749393
258.055034	-2.998000	3.851900	-11.547000	22.275422	0.001000	20.760027
259.058167	-2.985600	3.852600	-11.501000	22.274475	0.001000	20.747698
260.063609	-2.996500	3.851600	-11.541000	22.271464	0.001001	20.759382
261.061101	-3.000700	3.851800	-11.556000	22.277970	0.001000	20.753094
262.061419	-2.992000	3.851400	-11.523000	22.277694	0.001002	20.758508
263.064339	-3.031300	3.850400	-11.671000	22.292522	0.001002	20.734474
264.063064	-3.017800	3.850800	-11.619000	22.288291	0.001005	20.729763
265.062043	-3.014300	3.850000	-11.604000	22.284776	0.001003	20.735252
266.065310	-2.992000	3.850700	-11.521000	22.279988	0.001004	20.735199
267.061481	-3.011900	3.849400	-11.593000	22.274983	0.001005	20.753896
268.063777	-3.000200	3.850800	-11.553000	22.283305	0.001007	20.747056
269.067925	-2.990100	3.851400	-11.515000	22.273859	0.001006	20.745185
270.064090	-2.996100	3.849100	-11.531000	22.308848	0.001007	20.748451
271.060386	-2.985500	3.849000	-11.489000	22.307106	0.001007	20.746232
272.066959	-2.991300	3.849600	-11.514000	22.326746	0.001008	20.720378
273.063415	-2.972800	3.851300	-11.448000	22.337885	0.001009	20.746232
274.066033	-2.980600	3.850300	-11.475000	22.348776	0.001008	20.731533
275.065268	-3.001300	3.849200	-11.552000	22.356723	0.001010	20.743759
276.063145	-2.996700	3.849200	-11.533000	22.356600	0.001010	20.748851
277.066096	-2.993600	3.849200	-11.522000	22.358967	0.001009	20.766395
278.066840	-2.971900	3.849100	-11.438000	22.366942	0.001012	20.751622
279.066748	-3.007300	3.848200	-11.571000	22.347402	0.001011	20.727311
280.067386	-3.010000	3.847700	-11.579000	22.336486	0.001012	20.729658
281.067334	-2.988300	3.847800	-11.498000	22.344610	0.001012	20.755812
282.069332	-2.992800	3.848200	-11.516000	22.338130	0.001012	20.744580
283.067179	-3.019600	3.846500	-11.613000	22.328114	0.001013	20.735500
284.067703	-3.002500	3.847200	-11.550000	22.337780	0.001014	20.732850
285.068841	-3.000800	3.846800	-11.542000	22.339928	0.001014	20.729785
286.068576	-2.983700	3.847300	-11.478000	22.325592	0.001016	20.742457
287.070506	-2.996900	3.846400	-11.527000	22.347402	0.001015	20.754340
288.070274	-2.958800	3.848800	-11.386000	22.368459	0.001016	20.752666
289.069089	-2.992900	3.845100	-11.507000	22.364996	0.001017	20.735921
290.069055	-2.982100	3.845800	-11.465000	22.357472	0.001016	20.730758
291.071365	-2.988400	3.845900	-11.492000	22.377907	0.001018	20.732255
292.066323	-2.981400	3.845400	-11.464000	22.391165	0.001018	20.734151
293.070469	-2.979700	3.844800	-11.455000	22.391512	0.001019	20.735921
294.073243	-2.998300	3.845200	-11.528000	22.420518	0.001020	20.736519
295.070227	-3.018500	3.845100	-11.604000	22.392286	0.001019	20.752344
296.071299	-2.995700	3.843700	-11.512000	22.433077	0.001021	20.727758
297.074289	-3.004200	3.843800	-11.546000	22.461386	0.001019	20.755161
298.072096	-3.012000	3.843800	-11.577000	22.441952	0.001020	20.740440
299.071455	-3.000500	3.843900	-11.533000	22.435896	0.001020	20.747177
300.076318	-3.005500	3.843300	-11.550000	22.435422	0.001021	20.746229
301.070264	-3.011900	3.843900	-11.576000	22.452043	0.001023	20.730631
302.073575	-2.988600	3.844100	-11.487000	22.446761	0.001022	20.739566
303.074917	-2.994700	3.843200	-11.508000	22.435073	0.001024	20.749672
304.073516	-3.023100	3.841700	-11.612000	22.426374	0.001024	20.728632
305.072862	-2.986100	3.843900	-11.477000	22.429264	0.001026	20.736742
306.077550	-2.965500	3.842900	-11.395000	22.457524	0.001024	20.731378
307.074067	-3.020600	3.843000	-11.606000	22.451845	0.001024	20.725691
308.074327	-2.997000	3.842900	-11.517000	22.471332	0.001025	20.748525
309.075428	-3.010300	3.840700	-11.560000	22.496400	0.001024	20.733327
310.071529	-3.014400	3.841400	-11.578000	22.503400	0.001025	20.755985
311.070897	-3.002600	3.840900	-11.532000	22.518525	0.001027	20.752641
312.078209	-2.989800	3.842300	-11.486000	22.503774	0.001027	20.746403
313.075270	-3.003800	3.841300	-11.536000	22.527870	0.001028	20.745405
314.072038	-3.004300	3.842000	-11.541000	22.500061	0.001029	20.729881
315.074761	-2.979400	3.839700	-11.438000	22.516755	0.001030	20.729531
316.071606	-3.018900	3.838900	-11.588000	22.505392	0.001029	20.746601
317.075276	-3.012500	3.839200	-11.563000	22.501453	0.001029	20.741233
318.077618	-3.016400	3.838100	-11.576000	22.502054	0.001031	20.742783
319.073616	-3.023000	3.837800	-11.600000	22.505219	0.001030	20.752117
320.075541	-3.012400	3.839600	-11.565000	22.518024	0.001030	20.734121
321.074349	-3.004200	3.840800	-11.538000	22.507085	0.001032	20.756357
322.075294	-3.021800	3.837700	-11.596000	22.526171	0.001030	20.742281
323.072706	-3.002300	3.838100	-11.523000	22.517897	0.001033	20.756754
324.078855	-3.018600	3.838600	-11.585000	22.531630	0.001033	20.745377
325.077425	-2.988600	3.840400	-11.475000	22.542590	0.001034	20.732171
326.075423	-2.990100	3.838500	-11.476000	22.565067	0.001033	20.723388
327.077295	-3.004500	3.838100	-11.529000	22.582757	0.001031	20.755331
328.074741	-2.984000	3.837500	-11.450000	22.597083	0.001033	20.754033
329.076179	-2.995800	3.837400	-11.496000	22.611659	0.001034	20.768159
330.080028	-2.984000	3.838100	-11.452000	22.636322	0.001035	20.747816
331.075872	-2.987100	3.838700	-11.465000	22.649280	0.001033	20.726655
332.072393	-2.991200	3.839100	-11.482000	22.635505	0.001036	20.733721
333.081240	-2.996500	3.835400	-11.492000	22.645570	0.001036	20.724361
334.076744	-2.989300	3.836100	-11.465000	22.634033	0.001036	20.758325
335.076074	-2.995900	3.834900	-11.488000	22.652003	0.001036	20.749297
336.075762	-3.009900	3.835500	-11.543000	22.641536	0.001038	20.744977
337.074149	-2.981700	3.837000	-11.440000	22.653596	0.001037	20.761325
338.076758	-2.984900	3.836200	-11.450000	22.664586	0.001040	20.738667
339.078018	-3.002400	3.835500	-11.513000	22.662194	0.001040	20.731530
340.078764	-2.998200	3.835200	-11.496000	22.686516	0.001040	20.745935
341.079240	-3.001300	3.835900	-11.512000	22.676847	0.001040	20.752372
342.081133	-3.009800	3.834800	-11.541000	22.690625	0.001040	20.729186
343.080694	-3.004700	3.834500	-11.521000	22.673036	0.001040	20.737173
344.080989	-3.019700	3.833700	-11.575000	22.683252	0.001041	20.754519
345.077876	-3.022000	3.833000	-11.582000	22.692147	0.001041	20.732608
346.080976	-2.998700	3.832700	-11.492000	22.712703	0.001040	20.748931
347.084763	-2.986600	3.834300	-11.451000	22.731785	0.001043	20.759512
348.083592	-2.992300	3.833100	-11.469000	22.732485	0.001042	20.733659
349.083697	-2.986400	3.833400	-11.447000	22.729446	0.001045	20.769971
350.081107	-2.995100	3.832800	-11.478000	22.746787	0.001043	20.755573
351.086301	-2.993700	3.832900	-11.473000	22.747387	0.001045	20.742423
352.085303	-2.983000	3.833800	-11.435000	22.733184	0.001044	20.742894
353.082358	-2.970100	3.833500	-11.385000	22.722470	0.001045	20.759190
354.086297	-2.980200	3.832900	-11.422000	22.729050	0.001046	20.739702
355.082617	-3.004000	3.832900	-11.512000	22.743028	0.001047	20.762239
356.085312	-3.017000	3.831600	-11.558000	22.737670	0.001047	20.757820
357.085316	-3.000000	3.830900	-11.492000	22.741503	0.001047	20.766401
358.088345	-2.998000	3.831500	-11.486000	22.735897	0.001046	20.764105
359.086101	-3.000400	3.831400	-11.496000	22.736621	0.001048	20.728319
360.085693	-2.987600	3.832600	-11.449000	22.727355	0.001048	20.751755
361.089285	-2.982000	3.830500	-11.421000	22.747183	0.001048	20.763556
362.084922	-3.018500	3.828800	-11.556000	22.753213	0.001048	20.757742
363.088411	-2.999900	3.829300	-11.485000	22.776880	0.001049	20.743991
364.087698	-3.014000	3.828300	-11.538000	22.767537	0.001049	20.760711
365.089219	-2.994300	3.828100	-11.462000	22.750571	0.001050	20.756992
366.087872	-2.981400	3.830100	-11.419000	22.737441	0.001051	20.760435
367.088441	-2.994800	3.829700	-11.467000	22.757572	0.001050	20.764954
368.089334	-2.990900	3.829300	-11.451000	22.743749	0.001054	20.746365
369.089140	-3.004500	3.828700	-11.502000	22.750500	0.001052	20.754076
370.089749	-3.009500	3.827800	-11.518000	22.768084	0.001052	20.753673
371.085936	-2.999500	3.827900	-11.480000	22.749027	0.001052	20.769197
372.090021	-3.003800	3.826100	-11.491000	22.754336	0.001054	20.765980
373.088424	-2.992100	3.829200	-11.457000	22.772446	0.001054	20.754724
374.085801	-2.995100	3.829400	-11.468000	22.790331	0.001057	20.760786
375.088590	-3.014300	3.825900	-11.532000	22.786046	0.001055	20.755071
376.090051	-3.006600	3.828800	-11.511000	22.813499	0.001054	20.760287
377.087898	-2.991800	3.826400	-11.448000	22.822319	0.001055	20.748733
378.086877	-3.015700	3.825700	-11.537000	22.814022	0.001056	20.764604
379.087766	-3.000900	3.825900	-11.480000	22.801988	0.001059	20.777679
380.086659	-3.016700	3.825600	-11.540000	22.797654	0.001056	20.749629
381.088349	-3.016900	3.823100	-11.533000	22.813771	0.001058	20.763404
382.088520	-3.001900	3.826100	-11.484000	22.810582	0.001058	20.763528
383.089148	-2.990300	3.824900	-11.436000	22.809162	0.001060	20.755468
384.088606	-3.012300	3.822200	-11.510000	22.810455	0.001059	20.766246
385.091945	-3.007500	3.823500	-11.498000	22.802610	0.001059	20.761232
386.090791	-2.999200	3.824500	-11.470000	22.800939	0.001059	20.763826
387.089251	-3.015700	3.822700	-11.527000	22.809357	0.001058	20.757560
388.095638	-3.001000	3.824500	-11.474000	22.845826	0.001060	20.778922
389.094333	-2.998200	3.823900	-11.464000	22.853152	0.001061	20.766820
390.094622	-3.001200	3.823200	-11.474000	22.856514	0.001062	20.772559
391.095690	-3.003500	3.821800	-11.477000	22.870388	0.001062	20.776976
392.095006	-3.000300	3.821900	-11.465000	22.868746	0.001062	20.762053
393.091054	-2.997500	3.822800	-11.458000	22.886307	0.001061	20.767793
394.093274	-3.004400	3.822100	-11.482000	22.898813	0.001064	20.801185
395.095713	-3.011900	3.822800	-11.513000	22.910543	0.001063	20.791600
396.092992	-3.010200	3.821300	-11.502000	22.905291	0.001064	20.790605
397.097583	-3.006500	3.821000	-11.486000	22.924794	0.001064	20.778850
398.093954	-2.997400	3.823400	-11.459000	22.928806	0.001064	20.786189
399.096397	-3.017400	3.819700	-11.525000	22.955457	0.001065	20.788709
400.096114	-2.996000	3.820200	-11.443000	22.939168	0.001064	20.791355
401.095995	-3.022700	3.819900	-11.545000	22.933768	0.001065	20.795901
402.096062	-3.014500	3.819500	-11.512000	22.940789	0.001065	20.805781
403.097376	-3.008900	3.820000	-11.493000	22.951501	0.001066	20.802763
404.096139	-2.981100	3.821600	-11.392000	22.956509	0.001067	20.783598
405.095974	-2.975700	3.820300	-11.367000	22.961789	0.001068	20.783198
406.095859	-2.992600	3.820100	-11.431000	22.946747	0.001069	20.771921
407.093355	-3.005000	3.818900	-11.474000	22.955092	0.001068	20.780756
408.095358	-2.998400	3.819700	-11.451000	22.969908	0.001069	20.765729
409.096449	-3.010900	3.817300	-11.493000	22.978405	0.001068	20.778984
410.096906	-3.002500	3.817800	-11.462000	22.998210	0.001070	20.788870
411.094158	-2.991900	3.818800	-11.425000	23.007174	0.001069	20.785523
412.097090	-3.016300	3.816900	-11.512000	23.034272	0.001070	20.776638
413.098450	-3.004300	3.817200	-11.467000	23.034720	0.001070	20.784674
414.096613	-3.001700	3.818300	-11.461000	23.052978	0.001072	20.786846
415.098269	-2.985900	3.817800	-11.397000	23.036267	0.001070	20.790016
416.096618	-3.021700	3.816600	-11.530000	23.033551	0.001070	20.792037
417.097854	-3.014700	3.816400	-11.504000	23.037411	0.001070	20.793534
418.101010	-2.983400	3.816800	-11.386000	23.026852	0.001073	20.799075
419.095901	-2.986800	3.816600	-11.398000	23.031432	0.001071	20.777586
420.096517	-3.020500	3.815000	-11.523000	23.006775	0.001073	20.786071
421.099215	-3.004400	3.816300	-11.465000	23.045706	0.001073	20.805639
422.099079	-3.015700	3.814000	-11.501000	23.033749	0.001074	20.796977
423.098546	-2.983200	3.816000	-11.382000	23.050114	0.001072	20.811951
424.102319	-2.994300	3.814400	-11.420000	23.087052	0.001073	20.793487
425.100183	-2.977000	3.815000	-11.357000	23.050188	0.001075	20.795430
426.099026	-3.010900	3.812800	-11.479000	23.075893	0.001076	20.798427
427.101468	-3.015900	3.813300	-11.498000	23.089517	0.001075	20.792638
428.101485	-2.974600	3.814000	-11.344000	23.062074	0.001075	20.803547
429.101014	-2.990500	3.813400	-11.403000	23.085286	0.001074	20.784131
430.105249	-2.983900	3.814200	-11.379000	23.091438	0.001077	20.810210
431.102653	-2.995400	3.813500	-11.421000	23.109895	0.001077	20.795514
432.102429	-2.995400	3.812300	-11.418000	23.104245	0.001077	20.820198
433.103592	-3.019500	3.811000	-11.506000	23.107907	0.001077	20.784512
434.105196	-3.003600	3.813200	-11.451000	23.108606	0.001078	20.807024
435.101649	-3.009400	3.810600	-11.466000	23.131046	0.001076	20.799165
436.103961	-2.991200	3.812000	-11.401000	23.120513	0.001077	20.807576
437.103753	-3.008500	3.811700	-11.467000	23.132868	0.001077	20.780127
438.102848	-3.013100	3.810000	-11.479000	23.123627	0.001078	20.802636
439.109139	-3.000000	3.810500	-11.430000	23.149355	0.001079	20.799967
440.102912	-2.998700	3.810400	-11.425000	23.142984	0.001079	20.802118
441.104330	-3.007100	3.810400	-11.457000	23.132574	0.001080	20.809705
442.110907	-3.005900	3.810300	-11.453000	23.135067	0.001079	20.800349
443.108839	-3.015700	3.810200	-11.490000	23.133573	0.001081	20.816869
444.106098	-3.011600	3.808400	-11.469000	23.143838	0.001081	20.813879
445.104864	-3.005300	3.810300	-11.451000	23.137312	0.001081	20.806392
446.104543	-3.007200	3.809000	-11.454000	23.150589	0.001081	20.808316
447.105732	-3.019800	3.807800	-11.498000	23.137968	0.001080	20.809894
448.105870	-3.032200	3.808000	-11.545000	23.174551	0.001081	20.817155
449.106766	-3.000100	3.808400	-11.425000	23.168053	0.001081	20.821549
450.105793	-3.016000	3.806600	-11.479000	23.162725	0.001083	20.806727
451.106933	-2.998500	3.806700	-11.413000	23.175977	0.001084	20.807678
452.107274	-2.996300	3.807500	-11.408000	23.184221	0.001086	20.823052
453.107173	-3.005100	3.807500	-11.441000	23.189104	0.001086	20.829368
454.105358	-3.046500	3.804100	-11.588000	23.204818	0.001085	20.808131
455.107101	-3.022200	3.805700	-11.501000	23.211371	0.001086	20.800473
456.106617	-3.007900	3.805600	-11.446000	23.207387	0.001086	20.810706
457.109023	-3.001700	3.805200	-11.420000	23.195333	0.001086	20.807161
458.107139	-3.004000	3.806400	-11.433000	23.197278	0.001087	20.807688
459.106563	-3.017200	3.804400	-11.477000	23.213390	0.001086	20.785901
460.109554	-3.007100	3.804000	-11.436000	23.229928	0.001087	20.822389
461.110745	-3.007500	3.805900	-11.445000	23.207963	0.001087	20.828826
462.110713	-3.001200	3.804600	-11.417000	23.232121	0.001088	20.828854
463.109059	-3.011300	3.804100	-11.453000	23.235210	0.001088	20.812036
464.110032	-3.018400	3.803000	-11.478000	23.230433	0.001088	20.821946
465.109180	-3.023100	3.803600	-11.498000	23.257179	0.001087	20.804654
466.111097	-2.993500	3.803700	-11.386000	23.266620	0.001087	20.816486
467.111005	-3.006500	3.804100	-11.436000	23.266719	0.001087	20.810895
468.111423	-3.019100	3.801300	-11.476000	23.255240	0.001088	20.814565
469.111194	-3.009100	3.802300	-11.439000	23.269758	0.001086	20.815364
470.113184	-2.971300	3.803500	-11.300000	23.259848	0.001088	20.830562
471.112750	-2.985000	3.802400	-11.348000	23.273673	0.001086	20.815020
472.111463	-2.989600	3.802000	-11.364000	23.266079	0.001088	20.836332
473.115296	-2.985900	3.802700	-11.353000	23.284308	0.001090	20.842273
474.112085	-2.996800	3.801100	-11.391000	23.286401	0.001088	20.837733
475.114768	-2.977000	3.801700	-11.317000	23.280650	0.001090	20.810632
476.111764	-3.000800	3.800200	-11.403000	23.256997	0.001090	20.818222
477.114125	-2.979800	3.800800	-11.325000	23.249476	0.001088	20.814004
478.114161	-2.967800	3.799700	-11.274000	23.258543	0.001088	20.838737
479.114123	-2.996300	3.799500	-11.383000	23.248156	0.001090	20.828328
480.113358	-2.987200	3.799800	-11.350000	23.243325	0.001090	20.829651
481.115786	-2.977400	3.798600	-11.308000	23.255160	0.001090	20.829183
482.116932	-2.982300	3.799300	-11.330000	23.286238	0.001090	20.827138
483.113406	-2.993300	3.799000	-11.371000	23.302518	0.001092	20.833023
484.116888	-3.005600	3.798000	-11.414000	23.311461	0.001091	20.810217
485.116318	-3.001800	3.798400	-11.402000	23.318508	0.001092	20.838142
486.115062	-2.993000	3.797700	-11.365000	23.305286	0.001092	20.819201
487.116070	-2.983700	3.798900	-11.334000	23.299559	0.001090	20.822471
488.116267	-2.979200	3.798500	-11.314000	23.295975	0.001091	20.847802
489.114738	-3.012600	3.797100	-11.439000	23.279862	0.001092	20.832601
490.117694	-2.979200	3.796100	-11.308000	23.242887	0.001094	20.832056
491.116811	-2.997500	3.796200	-11.378000	23.258871	0.001093	20.832902
492.115422	-3.001900	3.796400	-11.395000	23.272719	0.001094	20.829710
493.117706	-2.977600	3.798100	-11.308000	23.270950	0.001095	20.855911
494.119040	-3.003500	3.795000	-11.397000	23.277150	0.001094	20.847427
495.118083	-2.973500	3.796200	-11.288000	23.245976	0.001096	20.839419
496.118186	-2.972100	3.795000	-11.278000	23.238879	0.001094	20.854117
497.120394	-3.000500	3.795200	-11.386000	23.217365	0.001095	20.838722
498.118457	-2.985100	3.794700	-11.327000	23.205808	0.001094	20.850374
499.121256	-2.977600	3.795300	-11.300000	23.247572	0.001098	20.839122
500.121601	-3.004200	3.793200	-11.395000	23.232332	0.001095	20.828592
501.121532	-2.979300	3.796200	-11.308000	23.239980	0.001095	20.840997
502.123724	-3.021500	3.793100	-11.460000	23.246304	0.001095	20.852549
503.125422	-3.023200	3.792000	-11.463000	23.264707	0.001096	20.839224
504.125869	-3.006600	3.794100	-11.406000	23.265702	0.001095	20.842118
505.124512	-3.003100	3.792600	-11.388000	23.286696	0.001094	20.852252
506.127311	-3.008300	3.791200	-11.404000	23.281520	0.001095	20.856547
507.125289	-2.994900	3.793100	-11.359000	23.305401	0.001096	20.840179
508.124397	-3.024300	3.791000	-11.464000	23.301366	0.001097	20.846566
509.125859	-3.021200	3.791400	-11.454000	23.296087	0.001098	20.859293
510.124379	-2.989500	3.791600	-11.335000	23.310531	0.001097	20.842475
511.126319	-2.994200	3.791700	-11.352000	23.327764	0.001099	20.828453
512.125543	-3.000800	3.789900	-11.370000	23.341935	0.001096	20.855457
513.124401	-2.997200	3.790500	-11.360000	23.307498	0.001099	20.855082
514.125326	-3.001700	3.790900	-11.378000	23.362257	0.001097	20.838841
515.123621	-3.012500	3.789100	-11.412000	23.343083	0.001098	20.857555
516.124792	-3.021700	3.789200	-11.449000	23.361536	0.001100	20.846179
517.124494	-3.015000	3.789000	-11.422000	23.354867	0.001097	20.850874
518.125339	-3.010100	3.789600	-11.406000	23.343562	0.001099	20.846182
519.125054	-2.961500	3.789800	-11.222000	23.339728	0.001100	20.865572
520.125948	-3.005600	3.788800	-11.386000	23.336123	0.001099	20.857218
521.128078	-2.990700	3.788400	-11.329000	23.355393	0.001098	20.880797
522.128911	-2.990100	3.789200	-11.328000	23.379000	0.001099	20.857518
523.129720	-2.993800	3.787800	-11.339000	23.393666	0.001098	20.863682
524.128864	-3.013400	3.785800	-11.407000	23.388190	0.001099	20.874314
525.126487	-2.985800	3.788600	-11.310000	23.369493	0.001099	20.854153
526.126047	-2.997200	3.786000	-11.347000	23.377711	0.001098	20.842951
527.130255	-2.993600	3.786700	-11.335000	23.362474	0.001099	20.844274
528.127831	-3.005000	3.785500	-11.374000	23.386403	0.001100	20.868256
529.129570	-2.996300	3.785800	-11.342000	23.379183	0.001098	20.846797
530.134249	-3.005300	3.785300	-11.375000	23.366763	0.001099	20.854262
531.130813	-3.006200	3.785500	-11.379000	23.405184	0.001100	20.873329
532.131067	-2.997100	3.784300	-11.342000	23.399356	0.001100	20.847575
533.135675	-3.007200	3.784900	-11.379000	23.387829	0.001099	20.850720
534.130233	-3.002000	3.785600	-11.364000	23.357506	0.001101	20.847355
535.131146	-2.996200	3.784900	-11.340000	23.406956	0.001100	20.829589
536.137679	-3.003800	3.783000	-11.362000	23.430860	0.001099	20.857814
537.129360	-3.008600	3.784000	-11.384000	23.432582	0.001100	20.857644
538.132994	-2.999500	3.782100	-11.344000	23.419587	0.001101	20.847938
539.133483	-2.985200	3.783200	-11.294000	23.449661	0.001102	20.845840
540.135098	-2.983800	3.782900	-11.287000	23.462811	0.001100	20.859494
541.134627	-3.002000	3.782400	-11.354000	23.484351	0.001099	20.844576
542.136553	-2.976300	3.782800	-11.257000	23.479621	0.001102	20.864016
543.134713	-3.002400	3.781400	-11.353000	23.493487	0.001100	20.819121
544.134502	-2.994800	3.781000	-11.321000	23.534442	0.001099	20.859225
545.134974	-2.998000	3.781700	-11.335000	23.524639	0.001102	20.849399
546.135530	-3.004500	3.779500	-11.353000	23.519662	0.001103	20.840142
547.135863	-3.006800	3.780400	-11.366000	23.514388	0.001101	20.826795
548.133213	-3.005000	3.779200	-11.355000	23.542246	0.001102	20.836703
549.135902	-2.993900	3.781700	-11.321000	23.563386	0.001102	20.862635
550.132878	-2.993000	3.779000	-11.309000	23.559507	0.001101	20.836936
551.136204	-3.010800	3.779200	-11.377000	23.554254	0.001102	20.839731
552.134774	-3.005400	3.778000	-11.352000	23.564089	0.001103	20.833942
553.136155	-3.000100	3.779000	-11.335000	23.558366	0.001101	20.835793
554.135496	-3.000300	3.779500	-11.338000	23.541193	0.001102	20.831854
555.137399	-3.010300	3.777900	-11.371000	23.513684	0.001104	20.839840
556.136591	-3.011100	3.776600	-11.371000	23.519562	0.001102	20.827240
557.134830	-3.008400	3.778100	-11.365000	23.489292	0.001104	20.831985
558.136435	-3.014900	3.776600	-11.385000	23.489415	0.001102	20.811721
559.136265	-2.998400	3.776100	-11.320000	23.440943	0.001103	20.819084
560.140722	-3.032200	3.774600	-11.444000	23.450456	0.001102	20.821033
561.136161	-3.000400	3.777100	-11.332000	23.435968	0.001103	20.797503
562.137512	-3.001400	3.775400	-11.331000	23.432459	0.001103	20.831443
563.140032	-2.996200	3.775100	-11.310000	23.454622	0.001107	20.809562
564.138987	-3.002600	3.776500	-11.338000	23.474613	0.001104	20.815849
565.137718	-3.019800	3.773500	-11.394000	23.485641	0.001104	20.818369
566.137338	-2.987900	3.775200	-11.279000	23.518654	0.001104	20.825382
567.140835	-2.988300	3.775100	-11.280000	23.528015	0.001105	20.807265
568.137309	-2.999900	3.774700	-11.323000	23.534987	0.001104	20.809986
569.143311	-3.022600	3.773400	-11.404000	23.555153	0.001104	20.839684
570.140439	-3.002500	3.774000	-11.331000	23.545096	0.001104	20.791671
571.140539	-3.008300	3.773200	-11.348000	23.529141	0.001104	20.821670
572.140619	-2.999000	3.773600	-11.316000	23.528294	0.001103	20.820821
573.136956	-3.000500	3.773900	-11.321000	23.523818	0.001104	20.792152
574.138701	-3.001100	3.773000	-11.322000	23.519956	0.001104	20.802031
575.143641	-2.997200	3.772400	-11.306000	23.545396	0.001105	20.803826
576.136383	-3.020300	3.770600	-11.387000	23.538728	0.001105	20.816581
577.137337	-3.001500	3.772100	-11.321000	23.531735	0.001104	20.807201
578.138739	-3.001300	3.771300	-11.318000	23.541298	0.001105	20.798769
579.140596	-2.998900	3.769900	-11.305000	23.554217	0.001104	20.809349
580.139071	-2.983400	3.771500	-11.251000	23.548640	0.001105	20.789533
581.141583	-2.973300	3.771600	-11.213000	23.534700	0.001103	20.795474
582.140061	-2.994400	3.770800	-11.290000	23.532533	0.001104	20.807526
583.137825	-3.007100	3.769500	-11.335000	23.557009	0.001104	20.805984
584.144094	-2.984500	3.770000	-11.250000	23.525914	0.001105	20.801840
585.138517	-2.994100	3.769800	-11.284000	23.519296	0.001105	20.790464
586.138463	-3.001200	3.769100	-11.310000	23.503958	0.001104	20.821556
587.143581	-2.996600	3.767700	-11.289000	23.518003	0.001105	20.805290
588.142586	-2.999700	3.767900	-11.301000	23.534831	0.001105	20.797502
589.142127	-3.017600	3.767600	-11.369000	23.547927	0.001105	20.781706
590.147496	-3.003100	3.767600	-11.312000	23.543324	0.001105	20.793687
591.140022	-2.998100	3.768200	-11.296000	23.551439	0.001103	20.792339
592.139426	-2.993500	3.768900	-11.281000	23.604216	0.001106	20.799253
593.144783	-3.009200	3.766600	-11.333000	23.573052	0.001104	20.789823
594.142822	-3.008300	3.765000	-11.325000	23.599264	0.001105	20.796659
595.142628	-3.003200	3.765000	-11.307000	23.592646	0.001104	20.788128
596.148096	-2.975600	3.766500	-11.206000	23.634169	0.001105	20.801779
597.141214	-2.986800	3.766400	-11.248000	23.618811	0.001104	20.788754
598.144601	-2.994600	3.766400	-11.278000	23.642887	0.001104	20.772113
599.150917	-2.995400	3.765800	-11.279000	23.628899	0.001105	20.793177
600.149062	-2.998000	3.764000	-11.284000	23.611699	0.001106	20.799642
601.145917	-3.021900	3.764600	-11.375000	23.642145	0.001104	20.788913
602.143103	-3.002700	3.763700	-11.300000	23.622976	0.001104	20.781550
603.144539	-3.013800	3.764100	-11.344000	23.592359	0.001102	20.786893
604.147513	-3.005600	3.763300	-11.309000	23.561837	0.001105	20.780478
605.146877	-2.999100	3.763100	-11.284000	23.587259	0.001104	20.764710
606.147894	-2.999100	3.763900	-11.287000	23.584174	0.001104	20.783903
607.147362	-3.013000	3.761000	-11.330000	23.611759	0.001104	20.778839
608.145292	-3.009400	3.762200	-11.320000	23.620297	0.001104	20.788821
609.150084	-2.972700	3.762300	-11.184000	23.636155	0.001104	20.776744
610.148737	-3.006500	3.760900	-11.306000	23.650895	0.001103	20.755959
611.148335	-3.022300	3.761200	-11.365000	23.666255	0.001104	20.782264
612.148619	-2.987200	3.761900	-11.237000	23.647210	0.001104	20.765541
613.149579	-2.996700	3.761400	-11.270000	23.653013	0.001103	20.759978
614.149880	-2.988000	3.761100	-11.237000	23.670812	0.001104	20.774030
615.149808	-2.989900	3.760700	-11.244000	23.676565	0.001102	20.796393
616.150651	-2.992900	3.760900	-11.255000	23.659461	0.001102	20.778297
617.147407	-3.001900	3.759500	-11.284000	23.614384	0.001103	20.781471
618.150933	-2.986500	3.758500	-11.224000	23.584710	0.001103	20.783018
619.148605	-2.995600	3.758900	-11.259000	23.582620	0.001103	20.782820
620.150344	-3.014600	3.758100	-11.329000	23.573909	0.001102	20.779776
621.150704	-3.023400	3.757200	-11.359000	23.592804	0.001105	20.769320
622.151253	-2.976600	3.758400	-11.185000	23.583965	0.001102	20.777055
623.151940	-2.971100	3.757700	-11.163000	23.593058	0.001104	20.778110
624.152547	-3.010100	3.757500	-11.309000	23.596542	0.001102	20.755049
625.152450	-3.011100	3.755900	-11.307000	23.592931	0.001103	20.763757
626.149501	-2.991800	3.757500	-11.241000	23.584544	0.001106	20.748711
627.153628	-2.988400	3.757800	-11.228000	23.616506	0.001104	20.763683
628.150547	-2.993700	3.755800	-11.243000	23.608469	0.001102	20.761790
629.153214	-2.988900	3.757100	-11.229000	23.656436	0.001102	20.772420
630.154596	-2.982900	3.757100	-11.206000	23.652254	0.001103	20.768701
631.154784	-3.000900	3.756000	-11.270000	23.661141	0.001102	20.777137
632.154174	-3.020800	3.755300	-11.343000	23.676875	0.001104	20.758297
633.155699	-3.018000	3.754300	-11.328000	23.683595	0.001101	20.769302
634.154791	-2.997200	3.755100	-11.254000	23.706695	0.001102	20.785824
635.154347	-2.986700	3.755000	-11.214000	23.690517	0.001102	20.773870
636.156309	-2.989600	3.755000	-11.225000	23.661790	0.001104	20.761192
637.152502	-2.996600	3.753600	-11.247000	23.654724	0.001104	20.762643
638.157338	-2.981700	3.754500	-11.194000	23.657636	0.001102	20.752285
639.158671	-3.003300	3.753900	-11.273000	23.641036	0.001105	20.758878
640.163745	-2.981000	3.753900	-11.190000	23.656644	0.001103	20.780689
641.157855	-3.004900	3.751800	-11.273000	23.681389	0.001101	20.764245
642.163982	-3.016300	3.752100	-11.316000	23.682057	0.001102	20.767285
643.163301	-3.008500	3.751100	-11.284000	23.656595	0.001102	20.764044
644.156988	-2.986700	3.752600	-11.208000	23.638375	0.001102	20.754313
645.164314	-3.003900	3.750700	-11.266000	23.632876	0.001102	20.768715
646.160230	-2.990900	3.751100	-11.218000	23.640690	0.001102	20.788877
647.161306	-3.015900	3.750100	-11.309000	23.653559	0.001102	20.761475
648.162626	-3.004400	3.751000	-11.268000	23.670490	0.001102	20.774182
649.165587	-3.023400	3.749400	-11.336000	23.691971	0.001101	20.756362
650.161952	-3.003100	3.750000	-11.261000	23.682988	0.001101	20.756365
651.165404	-3.021500	3.749900	-11.328000	23.702697	0.001100	20.751942
652.167994	-2.993500	3.749800	-11.224000	23.733264	0.001102	20.749872
653.163527	-3.006700	3.749200	-11.271000	23.753550	0.001101	20.751245
654.169366	-2.997300	3.747700	-11.232000	23.781057	0.001102	20.762703
655.167093	-2.999800	3.747100	-11.238000	23.783594	0.001100	20.749599
656.166367	-2.988100	3.749100	-11.201000	23.793398	0.001100	20.765120
657.170045	-2.991500	3.748300	-11.211000	23.788150	0.001102	20.770763
658.168029	-2.960000	3.747500	-11.092000	23.757464	0.001100	20.739995
659.167346	-3.002600	3.746600	-11.249000	23.757464	0.001101	20.751850
660.169459	-2.993000	3.746100	-11.210000	23.778721	0.001099	20.741867
661.170881	-3.018400	3.744700	-11.303000	23.760976	0.001100	20.756319
662.167560	-3.014700	3.746800	-11.294000	23.751373	0.001099	20.759019
663.171862	-3.004800	3.745600	-11.254000	23.763919	0.001101	20.731294
664.171150	-3.011100	3.744900	-11.275000	23.764914	0.001101	20.755052
665.171822	-2.971600	3.748100	-11.136000	23.744110	0.001101	20.755056
666.173739	-3.003400	3.744700	-11.246000	23.695948	0.001098	20.742331
667.172490	-2.974700	3.744700	-11.138000	23.703815	0.001099	20.739787
668.173498	-3.009500	3.744700	-11.268000	23.699262	0.001099	20.737593
669.175117	-2.960700	3.745700	-11.089000	23.746682	0.001099	20.723969
670.174538	-3.000700	3.742600	-11.229000	23.740686	0.001097	20.739769
671.172123	-2.989000	3.743400	-11.187000	23.767222	0.001101	20.750728
672.175003	-2.978200	3.744800	-11.152000	23.803791	0.001099	20.760841
673.174578	-2.990800	3.744200	-11.197000	23.807373	0.001101	20.756372
674.175285	-3.002100	3.742600	-11.234000	23.810736	0.001099	20.734139
675.178954	-2.982300	3.744400	-11.166000	23.817735	0.001099	20.748269
676.177734	-3.022500	3.742400	-11.310000	23.817540	0.001099	20.738591
677.177625	-3.014100	3.742100	-11.278000	23.804003	0.001099	20.727387
678.179902	-2.986800	3.743300	-11.179000	23.758604	0.001099	20.724068
679.179481	-3.030100	3.739600	-11.331000	23.754080	0.001098	20.725222
680.174690	-3.008200	3.741300	-11.254000	23.782257	0.001098	20.727869
681.179340	-3.027900	3.739400	-11.322000	23.751669	0.001097	20.725650
682.178975	-3.007600	3.738200	-11.242000	23.748659	0.001097	20.741599
683.178962	-3.005000	3.741100	-11.241000	23.756106	0.001098	20.728201
684.179488	-3.011500	3.740600	-11.263000	23.770071	0.001098	20.707114
685.178837	-3.013700	3.738000	-11.264000	23.777567	0.001098	20.720321
686.181345	-2.994900	3.738700	-11.197000	23.811217	0.001097	20.712012
687.180955	-3.004300	3.739000	-11.231000	23.819334	0.001097	20.733750
688.182402	-3.007900	3.738700	-11.245000	23.825464	0.001097	20.749380
689.183065	-3.003600	3.738100	-11.227000	23.827323	0.001096	20.725165
690.183698	-2.995400	3.738700	-11.197000	23.827955	0.001095	20.727696
691.180240	-3.012200	3.737100	-11.254000	23.842191	0.001096	20.736755
692.182167	-3.006700	3.736900	-11.235000	23.858071	0.001095	20.714822
693.182661	-3.012000	3.737900	-11.258000	23.851433	0.001095	20.716623
694.185106	-3.005800	3.737900	-11.233000	23.857630	0.001097	20.721889
695.182325	-3.010600	3.736500	-11.248000	23.845163	0.001095	20.720293
696.185687	-2.996400	3.736600	-11.195000	23.855915	0.001097	20.719221
697.185869	-2.998100	3.735600	-11.199000	23.848201	0.001095	20.704372
698.185076	-3.009000	3.736400	-11.241000	23.876030	0.001096	20.706198
699.185852	-2.989300	3.735000	-11.165000	23.875384	0.001093	20.706499
700.185248	-3.002700	3.736100	-11.217000	23.895421	0.001094	20.722799
701.185838	-2.997200	3.735900	-11.196000	23.894352	0.001096	20.708923
702.183122	-3.011700	3.734000	-11.245000	23.875063	0.001095	20.705703
703.186606	-2.992300	3.734300	-11.173000	23.884323	0.001094	20.715463
704.185468	-2.988400	3.735300	-11.161000	23.863566	0.001094	20.719780
705.186473	-3.001300	3.733200	-11.202000	23.875938	0.001094	20.708952
706.185475	-2.996800	3.733200	-11.186000	23.892488	0.001093	20.699942
707.188256	-3.005100	3.734000	-11.219000	23.921809	0.001095	20.697575
708.187627	-2.995100	3.732700	-11.179000	23.904889	0.001094	20.711429
709.187602	-2.986100	3.734000	-11.148000	23.923379	0.001092	20.694882
710.187616	-3.006200	3.731500	-11.216000	23.870568	0.001092	20.722059
711.184400	-3.020100	3.730800	-11.266000	23.886455	0.001094	20.721868
712.187954	-3.013900	3.733500	-11.250000	23.891130	0.001092	20.686251
713.186511	-2.994700	3.732800	-11.178000	23.888967	0.001093	20.710162
714.187139	-2.994300	3.731000	-11.171000	23.903975	0.001092	20.719048
715.183862	-2.998600	3.731600	-11.189000	23.917416	0.001093	20.714982
716.188173	-3.007800	3.732100	-11.224000	23.925080	0.001093	20.711762
717.184804	-2.991500	3.731100	-11.161000	23.949149	0.001091	20.710293
718.188161	-2.997300	3.730700	-11.181000	23.947311	0.001091	20.701337
719.184574	-2.997600	3.730100	-11.180000	23.921202	0.001091	20.702657
720.188350	-3.006000	3.728900	-11.209000	23.927028	0.001090	20.708974
721.189741	-3.009500	3.729400	-11.223000	23.932106	0.001089	20.719756
722.187850	-2.992700	3.730200	-11.162000	23.920412	0.001091	20.710400
723.190079	-3.019100	3.728400	-11.255000	23.890499	0.001090	20.697947
724.186910	-3.006200	3.728800	-11.208000	23.876589	0.001089	20.715294
725.186766	-3.001400	3.729000	-11.191000	23.879200	0.001092	20.709851
726.190942	-2.981900	3.728600	-11.117000	23.876317	0.001089	20.717867
727.191106	-2.985100	3.727600	-11.124000	23.922833	0.001090	20.702396
728.187403	-2.969900	3.728500	-11.072000	23.920444	0.001089	20.727028
729.193788	-3.019700	3.726100	-11.251000	23.935628	0.001089	20.706218
730.188543	-3.018900	3.726300	-11.248000	23.925850	0.001089	20.723441
731.190886	-3.008200	3.726200	-11.208000	23.931097	0.001088	20.714477
732.195985	-3.001700	3.725200	-11.181000	23.910600	0.001088	20.721898
733.193957	-2.993200	3.725900	-11.151000	23.948127	0.001090	20.712113
734.194032	-2.983200	3.725700	-11.113000	23.962164	0.001087	20.701058
735.194214	-2.992200	3.725600	-11.147000	23.938049	0.001088	20.716232
736.194036	-2.995900	3.725500	-11.160000	23.942432	0.001087	20.713041
737.194044	-3.001200	3.724400	-11.177000	23.950968	0.001087	20.708323
738.193669	-2.998800	3.725500	-11.171000	23.956197	0.001086	20.706455
739.193208	-3.000600	3.724100	-11.174000	23.942083	0.001087	20.688032
740.191717	-2.995900	3.724600	-11.157000	23.938131	0.001086	20.712521
741.198931	-3.002200	3.724800	-11.181000	23.927132	0.001086	20.735158
742.191173	-3.011300	3.723700	-11.212000	23.943360	0.001087	20.720610
743.192946	-3.002100	3.724300	-11.179000	23.926112	0.001086	20.703787
744.192003	-2.988900	3.723800	-11.129000	23.921836	0.001085	20.705189
745.195686	-3.001800	3.724100	-11.178000	23.958964	0.001083	20.728197
746.193607	-3.034700	3.722800	-11.296000	23.948166	0.001085	20.696979
747.193306	-3.007700	3.722400	-11.195000	23.970044	0.001085	20.711332
748.200930	-3.024100	3.721400	-11.253000	23.992513	0.001085	20.714425
749.193121	-3.008200	3.721300	-11.194000	23.970763	0.001086	20.708260
750.192869	-2.996100	3.722000	-11.151000	23.973279	0.001084	20.730225
751.200485	-2.993000	3.722000	-11.139000	23.973427	0.001085	20.718993
752.195124	-2.998700	3.720600	-11.157000	23.996102	0.001083	20.719446
753.191373	-3.002100	3.721100	-11.170000	24.005237	0.001083	20.724815
754.198274	-3.007000	3.719700	-11.184000	24.007075	0.001083	20.712433
755.195725	-2.994000	3.720300	-11.138000	23.987845	0.001082	20.727763
756.195099	-3.009500	3.719600	-11.194000	23.981300	0.001081	20.718827
757.203763	-2.985800	3.719200	-11.103000	23.987097	0.001082	20.716580
758.191441	-2.996100	3.718700	-11.140000	23.968262	0.001083	20.696742
759.195251	-2.991800	3.719800	-11.128000	23.944049	0.001082	20.708498
760.199945	-3.006900	3.719200	-11.182000	23.926254	0.001081	20.728113
761.198307	-3.008600	3.717900	-11.184000	23.890921	0.001080	20.714019
762.194339	-3.018500	3.717800	-11.221000	23.923125	0.001081	20.711223
763.205789	-3.000200	3.718900	-11.157000	23.946692	0.001083	20.702139
764.195635	-3.005800	3.718100	-11.174000	23.975810	0.001081	20.713796
765.194599	-2.984500	3.717200	-11.093000	23.965486	0.001081	20.730945
766.202422	-2.998000	3.717100	-11.143000	23.976015	0.001080	20.721588
767.196567	-2.998600	3.716700	-11.144000	23.988308	0.001081	20.699302
768.197511	-2.986800	3.716400	-11.099000	23.965638	0.001081	20.725881
769.204104	-3.017000	3.715100	-11.207000	23.961185	0.001080	20.715251
770.204649	-2.989000	3.716900	-11.110000	23.952378	0.001080	20.706418
771.197582	-3.011400	3.714300	-11.184000	23.986693	0.001079	20.708113
772.204525	-3.001700	3.715700	-11.152000	23.979106	0.001078	20.709515
773.200674	-3.025000	3.713900	-11.233000	23.988115	0.001080	20.702901
774.204335	-2.999700	3.714200	-11.141000	24.017560	0.001079	20.706351
775.205145	-2.988000	3.715200	-11.100000	24.023678	0.001078	20.720074
776.202588	-2.982200	3.714800	-11.077000	24.021984	0.001079	20.726911
777.200943	-3.002000	3.713100	-11.145000	24.042540	0.001078	20.735673
778.206315	-2.996700	3.715500	-11.134000	24.061427	0.001076	20.698187
779.205347	-3.011600	3.714100	-11.183000	24.055927	0.001078	20.718277
780.201918	-2.992400	3.714400	-11.115000	24.076309	0.001077	20.708846
781.209071	-2.984600	3.713800	-11.082000	24.112716	0.001074	20.697944
782.202044	-3.027900	3.711700	-11.238000	24.095372	0.001077	20.709473
783.210554	-2.990800	3.712500	-11.103000	24.104305	0.001075	20.715588
784.206406	-2.993900	3.711800	-11.112000	24.109580	0.001076	20.729887
785.207813	-3.001600	3.712400	-11.142000	24.100749	0.001077	20.721979
786.211170	-3.007500	3.711600	-11.162000	24.086714	0.001076	20.725446
787.209550	-3.019700	3.710800	-11.203000	24.086245	0.001077	20.731140
788.210195	-2.992700	3.712200	-11.109000	24.082784	0.001074	20.729091
789.206066	-2.992700	3.710300	-11.102000	24.062561	0.001076	20.731095
790.210563	-3.004900	3.709500	-11.145000	24.078533	0.001075	20.724353
791.206055	-3.001200	3.709100	-11.131000	24.049146	0.001074	20.727124
792.205111	-3.020700	3.708900	-11.202000	24.074705	0.001075	20.741378
793.203208	-2.993300	3.711100	-11.108000	24.059950	0.001074	20.727054
794.209105	-3.017800	3.709800	-11.194000	24.063263	0.001076	20.717100
795.211478	-3.016600	3.708600	-11.186000	24.077344	0.001076	20.719368
796.208154	-3.000000	3.707400	-11.121000	24.055875	0.001075	20.733873
797.212123	-2.984400	3.710400	-11.072000	24.059559	0.001075	20.728558
798.208496	-2.993300	3.709600	-11.103000	24.027585	0.001074	20.715458
799.208507	-2.990600	3.709300	-11.092000	24.005861	0.001072	20.718802
800.214352	-2.977500	3.709200	-11.043000	24.029156	0.001073	20.728887
801.209270	-3.014700	3.706800	-11.174000	24.023133	0.001073	20.725692
802.206873	-3.001500	3.707800	-11.128000	24.023655	0.001072	20.732854
803.209302	-3.009000	3.705900	-11.149000	24.025373	0.001072	20.749751
804.209437	-2.992300	3.708100	-11.095000	24.018158	0.001071	20.737299
805.211494	-3.007700	3.707500	-11.150000	24.015720	0.001070	20.746234
806.211033	-3.003100	3.706200	-11.129000	24.024506	0.001071	20.747458
807.211188	-3.003000	3.705100	-11.125000	24.044589	0.001071	20.746737
808.212682	-2.990900	3.706800	-11.086000	24.046057	0.001071	20.725448
809.212987	-2.983900	3.707800	-11.063000	24.065564	0.001069	20.740746
810.211667	-2.995400	3.705000	-11.096000	24.076340	0.001068	20.733534
811.209905	-2.981800	3.705100	-11.048000	24.074502	0.001070	20.729320
812.212720	-3.015800	3.705100	-11.173000	24.111476	0.001068	20.731316
813.217018	-3.004900	3.704100	-11.129000	24.070571	0.001070	20.741500
814.214050	-2.995800	3.703300	-11.093000	24.092862	0.001068	20.726871
815.219007	-3.013000	3.702700	-11.155000	24.065692	0.001067	20.756521
816.220336	-2.999300	3.704400	-11.109000	24.080471	0.001067	20.735307
817.215594	-3.018700	3.703600	-11.179000	24.078584	0.001068	20.752381
818.219939	-3.015100	3.702000	-11.160000	24.083008	0.001067	20.754447
819.214697	-3.010900	3.704000	-11.151000	24.079303	0.001067	20.740300
820.212595	-3.013600	3.702100	-11.156000	24.108989	0.001066	20.764858
821.219920	-2.994100	3.701700	-11.083000	24.106025	0.001068	20.737228
822.219747	-2.973700	3.704100	-11.014000	24.113121	0.001065	20.746716
823.217366	-3.007000	3.702400	-11.132000	24.127624	0.001068	20.740399
824.220755	-3.003300	3.701700	-11.116000	24.128200	0.001066	20.745244
825.222115	-2.995600	3.703200	-11.092000	24.142308	0.001065	20.732841
826.216685	-3.009200	3.701400	-11.138000	24.129367	0.001065	20.753527
827.217653	-3.004700	3.702500	-11.124000	24.148281	0.001063	20.738358
828.221673	-3.000200	3.701100	-11.103000	24.156289	0.001064	20.749709
829.214774	-2.991200	3.701500	-11.071000	24.116730	0.001066	20.724730
830.222377	-2.982200	3.699900	-11.033000	24.093388	0.001065	20.768651
831.224042	-2.990200	3.701600	-11.067000	24.101503	0.001064	20.756401
832.218683	-3.019700	3.698400	-11.167000	24.108418	0.001061	20.745792
833.223762	-3.002500	3.700400	-11.110000	24.117429	0.001061	20.751985
834.225405	-3.004000	3.699300	-11.111000	24.130962	0.001061	20.748963
835.219659	-3.022400	3.698600	-11.177000	24.128775	0.001064	20.774271
836.226083	-3.001600	3.699200	-11.103000	24.136561	0.001060	20.752208
837.224823	-3.003200	3.699200	-11.108000	24.123546	0.001060	20.741525
838.219229	-2.985300	3.698300	-11.039000	24.122452	0.001062	20.762714
839.227165	-2.989500	3.697800	-11.052000	24.133259	0.001062	20.771182
840.228908	-3.006900	3.696500	-11.114000	24.101782	0.001061	20.766639
841.231123	-3.001000	3.698300	-11.097000	24.106534	0.001059	20.741058
842.228958	-2.988000	3.698500	-11.050000	24.131570	0.001061	20.753840
843.225150	-2.993500	3.697200	-11.066000	24.153641	0.001059	20.756062
844.225860	-2.983200	3.696800	-11.027000	24.161180	0.001059	20.763624
845.224994	-2.993600	3.696800	-11.066000	24.153493	0.001059	20.755439
846.224174	-2.984900	3.697100	-11.035000	24.187205	0.001059	20.777874
847.225275	-3.003700	3.695300	-11.098000	24.196314	0.001060	20.749077
848.226766	-2.998400	3.695800	-11.081000	24.194349	0.001060	20.767970
849.229693	-3.014200	3.695200	-11.137000	24.175715	0.001058	20.755917
850.223786	-2.995800	3.695000	-11.068000	24.174301	0.001057	20.771569
851.229429	-3.004200	3.695300	-11.101000	24.195348	0.001060	20.761385
852.228766	-3.011200	3.695100	-11.125000	24.168406	0.001057	20.752853
853.234459	-2.982600	3.695600	-11.022000	24.172981	0.001058	20.768823
854.228487	-3.017500	3.692900	-11.142000	24.173454	0.001056	20.765029
855.230730	-2.990100	3.694000	-11.045000	24.198936	0.001058	20.785847
856.227762	-2.998600	3.692900	-11.072000	24.212098	0.001057	20.781031
857.233235	-2.982200	3.693500	-11.014000	24.186719	0.001057	20.785447
858.225894	-3.000300	3.692300	-11.078000	24.188885	0.001055	20.776714
859.232746	-3.012400	3.691900	-11.120000	24.154129	0.001056	20.773622
860.230629	-3.003500	3.692300	-11.088000	24.162638	0.001056	20.763190
861.226318	-2.994400	3.692100	-11.054000	24.174531	0.001054	20.771325
862.233835	-2.989200	3.692400	-11.036000	24.182793	0.001055	20.795734
863.232149	-2.998200	3.692700	-11.070000	24.207700	0.001056	20.755756
864.227998	-3.008200	3.691500	-11.103000	24.202422	0.001051	20.777015
865.229708	-3.021900	3.690100	-11.150000	24.230690	0.001053	20.782610
866.235149	-3.004000	3.691600	-11.088000	24.251464	0.001053	20.766463
867.229561	-3.000900	3.691200	-11.076000	24.255197	0.001052	20.786329
868.230275	-2.992500	3.689100	-11.039000	24.286945	0.001053	20.773130
869.229543	-2.997600	3.689900	-11.059000	24.287496	0.001051	20.769415
870.229780	-3.014200	3.690000	-11.122000	24.276973	0.001052	20.790629
871.234249	-3.010100	3.690700	-11.108000	24.286127	0.001051	20.788431
872.228809	-2.980500	3.691800	-11.003000	24.250876	0.001049	20.775831
873.234111	-2.989400	3.690700	-11.032000	24.220026	0.001051	20.773810
874.233729	-3.016500	3.688500	-11.125000	24.235429	0.001049	20.795424
875.229457	-2.980000	3.689300	-10.994000	24.252351	0.001050	20.775888
876.229822	-3.008700	3.688500	-11.096000	24.229090	0.001049	20.787643
877.236735	-2.985900	3.690800	-11.019000	24.240040	0.001051	20.770177
878.229790	-2.976700	3.690100	-10.983000	24.204611	0.001048	20.775892
879.230795	-3.003700	3.687200	-11.074000	24.222578	0.001048	20.782534
880.229770	-2.986400	3.688800	-11.016000	24.209219	0.001049	20.758702
881.230118	-2.984000	3.688300	-11.005000	24.197627	0.001051	20.801603
882.234881	-3.020000	3.685600	-11.130000	24.195143	0.001049	20.774930
883.230993	-2.997800	3.686900	-11.052000	24.195764	0.001047	20.790252
884.231445	-3.009100	3.686600	-11.092000	24.201120	0.001049	20.776658
885.233740	-2.984000	3.686900	-11.001000	24.241001	0.001048	20.790107
886.235728	-3.009400	3.686500	-11.092000	24.257098	0.001047	20.798193
887.232543	-3.005400	3.685000	-11.073000	24.217422	0.001048	20.795380
888.236059	-2.993400	3.685200	-11.029000	24.244092	0.001047	20.796053
889.233803	-2.999000	3.685300	-11.052000	24.250911	0.001047	20.797203
890.229258	-2.991600	3.684700	-11.022000	24.207771	0.001047	20.789967
891.237550	-3.006000	3.685500	-11.077000	24.209962	0.001048	20.811130
892.234313	-3.021900	3.683900	-11.131000	24.205662	0.001049	20.796860
893.234054	-3.007800	3.684800	-11.081000	24.204145	0.001045	20.789175
894.239512	-2.988800	3.684500	-11.011000	24.229174	0.001047	20.782512
895.235047	-3.010000	3.683200	-11.086000	24.242484	0.001046	20.803923
896.234363	-2.990900	3.683500	-11.017000	24.261618	0.001045	20.793718
897.240675	-3.002400	3.681800	-11.054000	24.247663	0.001046	20.791100
898.235713	-2.986500	3.684400	-11.002000	24.244601	0.001046	20.817426
899.234028	-3.005200	3.684000	-11.070000	24.273735	0.001045	20.787381
900.237013	-2.990500	3.683100	-11.013000	24.270804	0.001044	20.787286
901.240757	-2.988400	3.682600	-11.004000	24.270533	0.001045	20.784643
902.236175	-3.007600	3.682200	-11.073000	24.305216	0.001046	20.793355
903.236485	-3.003300	3.681700	-11.056000	24.296859	0.001045	20.801568
904.240394	-3.007900	3.681400	-11.072000	24.297230	0.001044	20.809525
905.236574	-2.988600	3.682000	-11.002000	24.253972	0.001044	20.806911
906.242279	-3.019600	3.680000	-11.112000	24.245064	0.001045	20.813623
907.242016	-2.999900	3.680000	-11.039000	24.236284	0.001042	20.791066
908.243863	-2.997400	3.680700	-11.031000	24.205706	0.001043	20.803068
909.242758	-3.018200	3.680900	-11.109000	24.192844	0.001044	20.802021
910.237607	-2.971900	3.680500	-10.936000	24.178193	0.001044	20.804870
911.237118	-2.992200	3.679800	-11.009000	24.182423	0.001043	20.830449
912.242606	-2.993400	3.678900	-11.011000	24.194438	0.001042	20.787974
913.238153	-2.993700	3.680100	-11.016000	24.227533	0.001042	20.823539
914.236185	-3.013000	3.678000	-11.081000	24.234997	0.001043	20.779818
915.243357	-3.016900	3.677500	-11.093000	24.216089	0.001041	20.810638
916.238157	-3.015100	3.678300	-11.088000	24.245044	0.001040	20.820241
917.244190	-3.003700	3.678300	-11.047000	24.252586	0.001039	20.828280
918.244855	-3.007100	3.677200	-11.057000	24.313986	0.001040	20.806420
919.237398	-3.004900	3.677800	-11.051000	24.305651	0.001039	20.811809
920.243727	-2.985900	3.677000	-10.977000	24.315758	0.001040	20.827163
921.237791	-2.999100	3.677800	-11.029000	24.343292	0.001038	20.822067
922.237222	-2.983500	3.677000	-10.969000	24.342745	0.001038	20.834320
923.238116	-3.007300	3.676000	-11.054000	24.319165	0.001037	20.804977
924.237582	-3.000700	3.678200	-11.036000	24.330016	0.001038	20.836724
925.235724	-2.999400	3.677300	-11.029000	24.337303	0.001039	20.826016
926.242649	-3.007600	3.676800	-11.057000	24.350390	0.001038	20.828713
927.237947	-3.037100	3.673800	-11.156000	24.361010	0.001036	20.834625
928.244384	-3.000700	3.675600	-11.028000	24.396660	0.001037	20.813965
929.242693	-2.999200	3.675500	-11.023000	24.394650	0.001037	20.811474
930.237915	-3.036100	3.673700	-11.153000	24.391564	0.001036	20.832085
931.243593	-2.977800	3.676100	-10.945000	24.406914	0.001036	20.843691
932.238854	-2.981800	3.675000	-10.957000	24.398629	0.001035	20.838224
933.238401	-3.022300	3.673800	-11.101000	24.411418	0.001035	20.851055
934.238994	-2.986500	3.676700	-10.980000	24.443458	0.001034	20.829145
935.243674	-2.995800	3.674300	-11.006000	24.407313	0.001033	20.818488
936.238628	-3.011300	3.673500	-11.060000	24.430303	0.001032	20.829698
937.242155	-2.986500	3.675300	-10.976000	24.422614	0.001031	20.830518
938.237923	-2.993500	3.672200	-10.992000	24.435177	0.001035	20.820363
939.234525	-2.992800	3.674000	-10.994000	24.416177	0.001033	20.821217
940.239252	-3.002500	3.672500	-11.026000	24.440051	0.001031	20.820512
941.236936	-3.005200	3.671200	-11.032000	24.456075	0.001032	20.835165
942.237353	-3.004900	3.672700	-11.035000	24.441276	0.001032	20.825059
943.243391	-2.974700	3.673000	-10.925000	24.441276	0.001031	20.831697
944.244448	-2.991600	3.672200	-10.984000	24.438514	0.001032	20.827978
945.239871	-3.014000	3.670600	-11.060000	24.449187	0.001030	20.841056
946.243982	-3.004600	3.671200	-11.029000	24.457793	0.001031	20.842578
947.245162	-3.001000	3.671300	-11.017000	24.464833	0.001031	20.844899
948.238048	-3.035700	3.669400	-11.139000	24.468564	0.001031	20.836789
949.246103	-3.005400	3.670400	-11.028000	24.473290	0.001031	20.840582
950.240931	-2.992500	3.670900	-10.984000	24.452939	0.001029	20.845295
951.240435	-3.003500	3.670000	-11.021000	24.417944	0.001028	20.839110
952.246160	-2.978700	3.670300	-10.931000	24.412819	0.001029	20.819745
953.240701	-3.010100	3.668900	-11.043000	24.440236	0.001026	20.841559
954.242624	-2.997000	3.669100	-10.995000	24.437199	0.001029	20.860797
955.248218	-3.000000	3.668800	-11.006000	24.476631	0.001027	20.841563
956.248159	-3.005500	3.667800	-11.023000	24.428967	0.001026	20.860125
957.248921	-3.014200	3.667100	-11.052000	24.441777	0.001025	20.842157
958.250278	-2.996100	3.669300	-10.992000	24.395315	0.001025	20.833952
959.245942	-2.990600	3.667300	-10.967000	24.427952	0.001026	20.859580
960.245697	-2.986300	3.667800	-10.952000	24.404271	0.001027	20.826815
961.249391	-2.993900	3.668200	-10.981000	24.385139	0.001026	20.851244
962.251706	-3.008700	3.667200	-11.033000	24.443277	0.001026	20.856937
963.245776	-3.000100	3.666700	-11.000000	24.433820	0.001025	20.853140
964.247898	-3.004000	3.665500	-11.010000	24.439475	0.001025	20.863554
965.251165	-3.011700	3.666600	-11.041000	24.441407	0.001025	20.839889
966.245324	-3.000200	3.666000	-10.998000	24.428576	0.001026	20.877275
967.249068	-3.027500	3.664900	-11.094000	24.473475	0.001026	20.850724
968.248827	-2.985600	3.665200	-10.942000	24.471564	0.001024	20.867298
969.247683	-2.991500	3.666400	-10.967000	24.490838	0.001024	20.855816
970.247976	-2.986400	3.664700	-10.943000	24.494770	0.001022	20.853598
971.253184	-2.983700	3.666300	-10.938000	24.510715	0.001025	20.862956
972.247688	-3.001100	3.664400	-10.996000	24.472160	0.001021	20.860784
973.249584	-2.986900	3.665400	-10.946000	24.478180	0.001023	20.874410
974.257362	-2.990400	3.663900	-10.955000	24.476018	0.001022	20.871767
975.248867	-3.018500	3.664000	-11.059000	24.475073	0.001024	20.865603
976.252538	-3.012000	3.662100	-11.029000	24.489974	0.001024	20.862536
977.247861	-2.993300	3.664100	-10.965000	24.468457	0.001022	20.838104
978.248513	-3.002300	3.661900	-10.993000	24.469579	0.001021	20.830221
979.248966	-2.984300	3.662800	-10.928000	24.440552	0.001020	20.869850
980.257518	-2.981200	3.661400	-10.915000	24.432069	0.001021	20.865607
981.249875	-2.992300	3.662000	-10.956000	24.459452	0.001021	20.843769
982.250056	-2.999800	3.661600	-10.983000	24.479076	0.001020	20.866300
983.252302	-2.985600	3.661600	-10.932000	24.500544	0.001020	20.848011
984.258104	-2.988000	3.662000	-10.941000	24.502484	0.001020	20.872715
985.253276	-3.006500	3.660900	-11.005000	24.504321	0.001020	20.847533
986.251917	-3.001300	3.661900	-10.989000	24.520964	0.001019	20.859015
987.254490	-3.013300	3.660100	-11.028000	24.526960	0.001017	20.853177
988.259102	-3.012400	3.659500	-11.023000	24.563940	0.001019	20.832435
989.254720	-3.001400	3.659100	-10.982000	24.570232	0.001016	20.836850
990.257174	-2.996300	3.658300	-10.959000	24.543024	0.001018	20.854595
991.258340	-2.999700	3.659500	-10.977000	24.539490	0.001016	20.844886
992.257998	-3.010200	3.659000	-11.012000	24.497951	0.001017	20.834505
993.258126	-2.997200	3.659600	-10.967000	24.464643	0.001017	20.855140
994.262240	-3.003400	3.657300	-10.983000	24.453773	0.001015	20.853243
995.254507	-3.000800	3.658100	-10.976000	24.411163	0.001015	20.857436
996.255338	-2.988300	3.659200	-10.933000	24.425313	0.001013	20.837494
997.258823	-3.023700	3.657600	-11.059000	24.434100	0.001016	20.836826
998.257516	-2.998200	3.657900	-10.967000	24.448899	0.001014	20.834129
999.257552	-2.999500	3.658300	-10.972000	24.455512	0.001014	20.839341
1000.259689	-3.014800	3.655400	-11.020000	24.432230	0.001015	20.819777
1001.258213	-2.989200	3.657400	-10.932000	24.441456	0.001013	20.835672
1002.256823	-2.999100	3.657100	-10.967000	24.430191	0.001014	20.843336
1003.256405	-2.988700	3.656000	-10.926000	24.481353	0.001014	20.829706
1004.256554	-2.995200	3.656900	-10.952000	24.447452	0.001010	20.827463
1005.257667	-2.987700	3.655400	-10.920000	24.497475	0.001010	20.839716
1006.261161	-2.971700	3.656500	-10.865000	24.505008	0.001011	20.834472
1007.260480	-3.004300	3.654900	-10.979000	24.515976	0.001010	20.840735
1008.261709	-2.994200	3.656200	-10.946000	24.549607	0.001011	20.830856
1009.265078	-3.012900	3.654100	-11.008000	24.565325	0.001010	20.815333
1010.261385	-2.990500	3.653800	-10.925000	24.594571	0.001008	20.840409
1011.261138	-3.014900	3.652900	-11.011000	24.598376	0.001008	20.821942
1012.266623	-3.003900	3.654600	-10.976000	24.595565	0.001008	20.842355
1013.258795	-2.992000	3.655500	-10.936000	24.587035	0.001008	20.828106
1014.261055	-3.032200	3.650700	-11.067000	24.607153	0.001009	20.841654
1015.262949	-2.998000	3.652300	-10.949000	24.612404	0.001005	20.838389
1016.259409	-3.016300	3.651200	-11.013000	24.601737	0.001007	20.819625
1017.262378	-3.017700	3.651000	-11.016000	24.648091	0.001007	20.834843
1018.262473	-2.996200	3.652000	-10.941000	24.636903	0.001006	20.848271
1019.260625	-3.019400	3.651800	-11.026000	24.647795	0.001005	20.834546
1020.267406	-3.010000	3.650700	-10.987000	24.633595	0.001006	20.852538
1021.262074	-2.990200	3.651100	-10.917000	24.618675	0.001005	20.831878
1022.261897	-3.002600	3.652400	-10.965000	24.604819	0.001004	20.835045
1023.269525	-2.972800	3.652100	-10.856000	24.607432	0.001003	20.826762
1024.263993	-2.981500	3.650700	-10.884000	24.599892	0.001003	20.829153
1025.269675	-2.988400	3.651000	-10.909000	24.592487	0.001002	20.818879
1026.263704	-2.993300	3.650800	-10.928000	24.623125	0.001002	20.828757
1027.264690	-2.995800	3.651500	-10.938000	24.627805	0.001005	20.821126
1028.269012	-3.015200	3.649200	-11.002000	24.644915	0.001002	20.815535
1029.265914	-2.998600	3.650200	-10.945000	24.629970	0.001004	20.832781
1030.265601	-3.005200	3.649400	-10.966000	24.614253	0.001004	20.826968
1031.265649	-2.999800	3.648500	-10.943000	24.611393	0.001002	20.813193
1032.265610	-3.014100	3.647700	-10.993000	24.597217	0.001001	20.819357
1033.264407	-2.991300	3.649100	-10.915000	24.603660	0.001000	20.840520
1034.265872	-3.018000	3.647900	-11.008000	24.627862	0.001001	20.819287
1035.264466	-3.018400	3.646800	-11.007000	24.604383	0.001001	20.818013
1036.266245	-3.030600	3.647300	-11.050000	24.601153	0.000998	20.820936
1037.272718	-3.017900	3.646400	-11.003000	24.595754	0.000998	20.823579
1038.269133	-3.006000	3.648100	-10.966000	24.615104	0.000998	20.828769
1039.268376	-2.989000	3.647200	-10.900000	24.590609	0.000998	20.819839
1040.270176	-3.019900	3.646000	-11.010000	24.604560	0.000999	20.807759
1041.267509	-2.987500	3.647000	-10.893000	24.575166	0.000998	20.817621
1042.267089	-2.989900	3.647600	-10.906000	24.592253	0.000997	20.820540
1043.273566	-2.992200	3.646900	-10.911000	24.570268	0.000997	20.830723
1044.265748	-3.007800	3.645900	-10.964000	24.525727	0.000996	20.823017
1045.269393	-3.008200	3.644900	-10.962000	24.519953	0.000995	20.805845
1046.269706	-2.982100	3.645000	-10.870000	24.511196	0.000994	20.818396
1047.270418	-3.003600	3.644900	-10.946000	24.514833	0.000997	20.828682
1048.271754	-3.000700	3.644900	-10.936000	24.499159	0.000994	20.809638
1049.280625	-2.999300	3.644100	-10.928000	24.492522	0.000995	20.806773
1050.272714	-2.995500	3.645100	-10.918000	24.492078	0.000994	20.820552
1051.272242	-3.021400	3.641900	-11.002000	24.505056	0.000994	20.808917
1052.279294	-2.988700	3.642700	-10.886000	24.532191	0.000993	20.811011
1053.271910	-2.995800	3.644000	-10.915000	24.526697	0.000993	20.794119
1054.274856	-3.004700	3.642100	-10.940000	24.501333	0.000992	20.801862
1055.277649	-3.017200	3.640800	-10.983000	24.558063	0.000991	20.797141
1056.275021	-2.973300	3.644600	-10.836000	24.541379	0.000990	20.837773
1057.275451	-2.998000	3.643700	-10.922000	24.561351	0.000992	20.825095
1058.280169	-3.014700	3.642400	-10.980000	24.566048	0.000989	20.799937
1059.281574	-3.004200	3.639900	-10.933000	24.566701	0.000990	20.812446
1060.274955	-3.015300	3.640700	-10.977000	24.562049	0.000988	20.814417
1061.280890	-3.018800	3.639200	-10.985000	24.589462	0.000989	20.824378
1062.281815	-2.998700	3.642000	-10.920000	24.609704	0.000987	20.798221
1063.272139	-3.003200	3.639900	-10.931000	24.620576	0.000990	20.790165
1064.281374	-3.005900	3.639100	-10.937000	24.623958	0.000990	20.794980
1065.275072	-2.989700	3.639000	-10.877000	24.634009	0.000989	20.804591
1066.276424	-3.006100	3.639200	-10.940000	24.597672	0.000989	20.794684
1067.283337	-2.969800	3.640600	-10.810000	24.593423	0.000987	20.798481
1068.277771	-3.006100	3.638900	-10.938000	24.593698	0.000986	20.801128
1069.278395	-2.991000	3.638400	-10.880000	24.613944	0.000987	20.815278
1070.284845	-3.013400	3.639200	-10.964000	24.604197	0.000986	20.785109
1071.276629	-2.991600	3.638500	-10.884000	24.595892	0.000988	20.778673
1072.277602	-3.009600	3.638100	-10.947000	24.600992	0.000986	20.811765
1073.283727	-3.022500	3.635800	-10.988000	24.615489	0.000986	20.817776
1074.279050	-2.991900	3.638600	-10.886000	24.611388	0.000986	20.807972
1075.278600	-2.986000	3.637600	-10.861000	24.612957	0.000986	20.790581
1076.283226	-2.997500	3.637900	-10.904000	24.598785	0.000985	20.782998
1077.285326	-3.025300	3.635800	-10.998000	24.656460	0.000984	20.793929
1078.278689	-3.011900	3.636000	-10.950000	24.622688	0.000982	20.795128
1079.283346	-2.980700	3.635300	-10.835000	24.605898	0.000982	20.783497
1080.284924	-3.005200	3.635900	-10.925000	24.613035	0.000981	20.782124
1081.280852	-2.994400	3.634800	-10.883000	24.613660	0.000982	20.780854
1082.286484	-2.963200	3.636000	-10.771000	24.640200	0.000981	20.777613
1083.280570	-2.994800	3.633900	-10.882000	24.617374	0.000982	20.781262
1084.280834	-3.003600	3.635200	-10.918000	24.638314	0.000981	20.799429
1085.288578	-3.013300	3.634000	-10.949000	24.631621	0.000982	20.800773
1086.286575	-3.016600	3.633100	-10.958000	24.632792	0.000980	20.780137
1087.282383	-3.026500	3.633300	-10.996000	24.609612	0.000978	20.776319
1088.290948	-3.005400	3.632100	-10.915000	24.605807	0.000978	20.781510
1089.283796	-3.000500	3.633000	-10.900000	24.615061	0.000979	20.788424
1090.283530	-3.061700	3.630800	-11.115000	24.601382	0.000978	20.779914
1091.288987	-3.008900	3.632400	-10.928000	24.633466	0.000979	20.804521
1092.284982	-3.003600	3.631300	-10.906000	24.654980	0.000980	20.805246
1093.294550	-2.983900	3.633700	-10.841000	24.654606	0.000978	20.780689
1094.291702	-2.994600	3.632000	-10.876000	24.658834	0.000978	20.779242
1095.292336	-2.980900	3.632900	-10.829000	24.667492	0.000978	20.781291
1096.286134	-2.991800	3.630800	-10.861000	24.698423	0.000978	20.771078
1097.291849	-3.000300	3.631200	-10.894000	24.679477	0.000974	20.791422
1098.287670	-2.991800	3.631000	-10.862000	24.693460	0.000974	20.790754
1099.284191	-2.993400	3.631100	-10.868000	24.714094	0.000975	20.786804
1100.288323	-2.994100	3.631200	-10.871000	24.709020	0.000975	20.775548
1101.289549	-2.978000	3.630300	-10.810000	24.735878	0.000973	20.783534
1102.291784	-2.984700	3.631200	-10.837000	24.768254	0.000974	20.791842
1103.289877	-3.002400	3.630500	-10.899000	24.773254	0.000973	20.788799
1104.294256	-2.989600	3.630000	-10.851000	24.767683	0.000971	20.768983
1105.295137	-2.988400	3.630100	-10.847000	24.753956	0.000974	20.782235
1106.295485	-2.986800	3.629600	-10.840000	24.748335	0.000972	20.749567
1107.293886	-2.967800	3.629800	-10.771000	24.703896	0.000969	20.776096
1108.291171	-2.994400	3.627300	-10.861000	24.703345	0.000970	20.760844
1109.294327	-2.996700	3.627400	-10.869000	24.715335	0.000971	20.774772
1110.295569	-2.972500	3.628500	-10.785000	24.701702	0.000971	20.797602
1111.286893	-3.007800	3.627400	-10.909000	24.742193	0.000972	20.781811
1112.294717	-2.997600	3.626900	-10.871000	24.752013	0.000969	20.786449
1113.294449	-3.005500	3.626600	-10.899000	24.715035	0.000969	20.757401
1114.290216	-3.004200	3.626900	-10.895000	24.701653	0.000969	20.769103
1115.297471	-3.004000	3.625600	-10.890000	24.717418	0.000969	20.747939
1116.296180	-3.006100	3.625300	-10.897000	24.733142	0.000968	20.762770
1117.288902	-2.997200	3.626200	-10.867000	24.749276	0.000969	20.760469
1118.296101	-2.987700	3.626300	-10.833000	24.752608	0.000968	20.764287
1119.296533	-3.024400	3.623600	-10.958000	24.761955	0.000966	20.754701
1120.291982	-3.008300	3.624400	-10.902000	24.764716	0.000966	20.773119
1121.296235	-3.006900	3.624200	-10.896000	24.749548	0.000966	20.764061
1122.300254	-2.979900	3.623300	-10.796000	24.728684	0.000965	20.772995
1123.297106	-2.987000	3.623900	-10.824000	24.744872	0.000965	20.753678
1124.292006	-2.991700	3.624500	-10.841000	24.755690	0.000964	20.773070
1125.299514	-3.008900	3.620800	-10.893000	24.751688	0.000964	20.743448
1126.294187	-2.998000	3.622800	-10.860000	24.768299	0.000963	20.751109
1127.293279	-2.993200	3.621700	-10.837000	24.769589	0.000966	20.766155
1128.300022	-2.989200	3.622100	-10.826000	24.734748	0.000963	20.760589
1129.292191	-3.010200	3.621000	-10.899000	24.716124	0.000961	20.770348
1130.300077	-2.980400	3.623900	-10.799000	24.743479	0.000963	20.760341
1131.295512	-2.993200	3.621000	-10.837000	24.732090	0.000962	20.770724
1132.290466	-2.993500	3.621600	-10.839000	24.708264	0.000961	20.750607
1133.301442	-2.966700	3.621100	-10.742000	24.681133	0.000960	20.758944
1134.300605	-2.969800	3.621700	-10.754000	24.697897	0.000960	20.767705
1135.294835	-2.995600	3.619600	-10.841000	24.726543	0.000959	20.755200
1136.300484	-2.988100	3.621100	-10.819000	24.738631	0.000960	20.765908
1137.300037	-2.987900	3.620100	-10.815000	24.711353	0.000957	20.771725
1138.294765	-2.997800	3.619800	-10.850000	24.678126	0.000957	20.753080
1139.296139	-2.986600	3.620700	-10.811000	24.628490	0.000957	20.771552
1140.296007	-3.022000	3.617700	-10.930000	24.625531	0.000956	20.773325
1141.297240	-3.006600	3.618400	-10.877000	24.630129	0.000955	20.750437
1142.298243	-2.988100	3.618100	-10.810000	24.641125	0.000956	20.748668
1143.298091	-2.991100	3.618300	-10.821000	24.645554	0.000955	20.774925
1144.298185	-3.006100	3.618700	-10.877000	24.678430	0.000953	20.748170
1145.297775	-2.986800	3.618600	-10.807000	24.698205	0.000956	20.736245
1146.294906	-2.987600	3.617200	-10.806000	24.701911	0.000952	20.749922
1147.299078	-3.015100	3.617000	-10.905000	24.674604	0.000954	20.750021
1148.298193	-3.001300	3.615500	-10.851000	24.720561	0.000955	20.739238
1149.296687	-3.009800	3.615900	-10.882000	24.722504	0.000953	20.759681
1150.298850	-3.002500	3.616100	-10.856000	24.724497	0.000952	20.759785
1151.298182	-2.993400	3.615500	-10.821000	24.744264	0.000951	20.747378
1152.301880	-3.001800	3.615800	-10.852000	24.741733	0.000952	20.757166
1153.298651	-2.981800	3.615700	-10.779000	24.727583	0.000952	20.737750
1154.299844	-3.015100	3.614100	-10.895000	24.751458	0.000951	20.744166
1155.297314	-2.998400	3.614200	-10.836000	24.722015	0.000952	20.750656
1156.303728	-3.010400	3.612800	-10.875000	24.733207	0.000951	20.738179
1157.298942	-3.000500	3.614400	-10.843000	24.723630	0.000950	20.750854
1158.300009	-2.988700	3.615500	-10.805000	24.730598	0.000950	20.747415
1159.298852	-3.007400	3.612900	-10.864000	24.728108	0.000949	20.742071
1160.306873	-2.996500	3.613400	-10.827000	24.723642	0.000948	20.750866
1161.300744	-2.991800	3.612800	-10.807000	24.729304	0.000949	20.727623
1162.297877	-3.023700	3.611100	-10.917000	24.749029	0.000949	20.767808
1163.305134	-3.022300	3.610100	-10.909000	24.758159	0.000949	20.746149
1164.299830	-3.043700	3.609900	-10.986000	24.739161	0.000945	20.731825
1165.300738	-2.990000	3.611300	-10.796000	24.754428	0.000948	20.738137
1166.300622	-2.999200	3.611100	-10.829000	24.753980	0.000945	20.731524
1167.303885	-3.006700	3.610400	-10.854000	24.735804	0.000946	20.747897
1168.307055	-3.001200	3.610300	-10.834000	24.737443	0.000944	20.734843
1169.301536	-3.012600	3.609100	-10.871000	24.733618	0.000944	20.734323
1170.301483	-2.999300	3.610500	-10.828000	24.757189	0.000945	20.718622
1171.299058	-3.001100	3.610100	-10.833000	24.744707	0.000945	20.736917
1172.302864	-3.009600	3.609200	-10.861000	24.738417	0.000944	20.733449
1173.308322	-2.981300	3.609300	-10.758000	24.750476	0.000944	20.729429
1174.305583	-3.014800	3.607600	-10.874000	24.769128	0.000943	20.720172
1175.302590	-3.004800	3.608500	-10.842000	24.801252	0.000942	20.711633
1176.311203	-2.963300	3.609500	-10.695000	24.798122	0.000941	20.731251
1177.310111	-3.005200	3.608300	-10.843000	24.783278	0.000943	20.716828
1178.306437	-2.987200	3.609400	-10.781000	24.811076	0.000941	20.725285
1179.310910	-3.009300	3.608100	-10.857000	24.834029	0.000941	20.740261
1180.311512	-3.011600	3.606100	-10.859000	24.824830	0.000937	20.718700
1181.305730	-3.014200	3.607100	-10.871000	24.835368	0.000938	20.710309
1182.312974	-3.005800	3.606300	-10.839000	24.836391	0.000938	20.727458
1183.313306	-3.014900	3.606400	-10.871000	24.856382	0.000939	20.728081
1184.304469	-3.016500	3.605700	-10.876000	24.839497	0.000936	20.726308
1185.308086	-2.992300	3.607000	-10.792000	24.865999	0.000937	20.727301
1186.310660	-3.005600	3.605700	-10.836000	24.858666	0.000935	20.721838
1187.307422	-3.001700	3.604500	-10.819000	24.888454	0.000936	20.730398
1188.312382	-2.987000	3.605200	-10.767000	24.881162	0.000934	20.734934
1189.315092	-3.008100	3.605100	-10.844000	24.864380	0.000936	20.714296
1190.308489	-3.022700	3.603600	-10.892000	24.880989	0.000935	20.697774
1191.313357	-3.002900	3.603600	-10.821000	24.879868	0.000933	20.745489
1192.313760	-3.009200	3.604500	-10.845000	24.893917	0.000934	20.725450
1193.309779	-3.003400	3.602900	-10.819000	24.881458	0.000932	20.734756
1194.311404	-2.994000	3.604100	-10.789000	24.865391	0.000932	20.738546
1195.313401	-3.000100	3.603900	-10.809000	24.839760	0.000931	20.732262
1196.309954	-2.962400	3.603200	-10.673000	24.827275	0.000932	20.711196
1197.313615	-2.990100	3.602000	-10.769000	24.797855	0.000931	20.710119
1198.313297	-2.988300	3.601900	-10.762000	24.840676	0.000933	20.706153
1199.309306	-3.007800	3.601400	-10.832000	24.837172	0.000930	20.726345
1200.314588	-2.992300	3.602000	-10.777000	24.850297	0.000932	20.730509
1201.315575	-2.987400	3.601000	-10.757000	24.811906	0.000930	20.721850
1202.308959	-3.011300	3.599200	-10.837000	24.812181	0.000930	20.736352
1203.314025	-2.985900	3.601200	-10.751000	24.804449	0.000929	20.713892
1204.311177	-3.002500	3.599300	-10.805000	24.797210	0.000928	20.739346
1205.308816	-3.006100	3.599900	-10.821000	24.797929	0.000928	20.732480
1206.316960	-2.963900	3.600600	-10.671000	24.823319	0.000928	20.704854
1207.313398	-3.006900	3.598700	-10.820000	24.827299	0.000926	20.722127
1208.311098	-3.005900	3.598500	-10.816000	24.857335	0.000928	20.724296
1209.313449	-2.996500	3.598400	-10.782000	24.856460	0.000925	20.721521
1210.316662	-2.983800	3.597900	-10.734000	24.880932	0.000927	20.719529
1211.310885	-2.988200	3.597500	-10.749000	24.845199	0.000926	20.727289
1212.317917	-2.998200	3.597300	-10.785000	24.826125	0.000925	20.718102
1213.315145	-2.990700	3.598100	-10.759000	24.872847	0.000924	20.722321
1214.315053	-2.988800	3.597200	-10.750000	24.881499	0.000925	20.711563
1215.320461	-3.007300	3.595700	-10.811000	24.876154	0.000924	20.750297
1216.316442	-2.986700	3.595800	-10.737000	24.900597	0.000924	20.731680
1217.315971	-3.005600	3.594900	-10.803000	24.882070	0.000923	20.742958
1218.322075	-2.997200	3.594500	-10.771000	24.864290	0.000923	20.729380
1219.321569	-2.994600	3.595100	-10.764000	24.823236	0.000923	20.718523
1220.322062	-2.994100	3.594300	-10.761000	24.781462	0.000921	20.724964
1221.319159	-2.994400	3.594900	-10.763000	24.780513	0.000920	20.726856
1222.317617	-2.998500	3.594600	-10.778000	24.765168	0.000920	20.727578
1223.323651	-3.005200	3.593500	-10.798000	24.791430	0.000921	20.716948
1224.322425	-2.999200	3.593300	-10.776000	24.798463	0.000918	20.744871
1225.326248	-3.008600	3.592600	-10.808000	24.772354	0.000919	20.703968
1226.317847	-2.998100	3.592900	-10.771000	24.782001	0.000918	20.713175
1227.322399	-2.997000	3.593100	-10.767000	24.795325	0.000915	20.738876
1228.317870	-2.997500	3.591200	-10.763000	24.784536	0.000917	20.719513
1229.327394	-2.994500	3.592400	-10.756000	24.767099	0.000917	20.711023
1230.322136	-3.007900	3.591500	-10.801000	24.778414	0.000919	20.713843
1231.324014	-2.988500	3.592800	-10.736000	24.743672	0.000916	20.713118
1232.325315	-2.964900	3.591200	-10.647000	24.738623	0.000915	20.721801
1233.326144	-3.010200	3.591300	-10.809000	24.736113	0.000916	20.735878
1234.321522	-2.998800	3.590300	-10.766000	24.731314	0.000914	20.727743
1235.327306	-3.008600	3.591500	-10.805000	24.757695	0.000913	20.730510
1236.326884	-3.021400	3.589200	-10.844000	24.811680	0.000914	20.734427
1237.322499	-2.983000	3.589400	-10.706000	24.839432	0.000914	20.741416
1238.326008	-2.996700	3.589600	-10.756000	24.870387	0.000912	20.728861
1239.325626	-2.979400	3.590000	-10.696000	24.875189	0.000911	20.728939
1240.321608	-2.986500	3.588900	-10.717000	24.873497	0.000912	20.710169
1241.324929	-2.986600	3.589500	-10.720000	24.929041	0.000911	20.725141
1242.327837	-2.997300	3.587000	-10.750000	24.916163	0.000911	20.710318
1243.322222	-2.991400	3.588500	-10.733000	24.929472	0.000908	20.731264
1244.321771	-2.989300	3.587400	-10.723000	24.905770	0.000908	20.745881
1245.323307	-2.990900	3.588500	-10.731000	24.929542	0.000909	20.720428
1246.324981	-2.984800	3.587200	-10.706000	24.945575	0.000908	20.736522
1247.327293	-2.983900	3.585600	-10.697000	24.954235	0.000908	20.731462
1248.329214	-3.006300	3.586400	-10.781000	24.963707	0.000909	20.721055
1249.324406	-2.994100	3.585200	-10.732000	24.968797	0.000906	20.728535
1250.323709	-3.001400	3.585100	-10.759000	24.983248	0.000905	20.733083
1251.327989	-2.998700	3.586800	-10.755000	24.954087	0.000907	20.711398
1252.324427	-3.019100	3.583600	-10.819000	24.971766	0.000906	20.733887
1253.332966	-2.994400	3.584200	-10.732000	24.983001	0.000904	20.719558
1254.330210	-2.997800	3.585700	-10.748000	25.008929	0.000904	20.722824
1255.325418	-3.022400	3.582800	-10.827000	24.986632	0.000904	20.738851
1256.327690	-2.998800	3.584000	-10.747000	24.994067	0.000901	20.739202
1257.330125	-2.996900	3.583200	-10.737000	24.990662	0.000903	20.705910
1258.324848	-2.986100	3.582800	-10.698000	24.996754	0.000900	20.748537
1259.328257	-3.007100	3.581900	-10.769000	24.966870	0.000900	20.737981
1260.332124	-2.994400	3.582800	-10.728000	24.960708	0.000901	20.730374
1261.325144	-2.988600	3.581300	-10.702000	24.937910	0.000899	20.722663
1262.334083	-3.007500	3.582600	-10.774000	24.921174	0.000900	20.724358
1263.331182	-2.984500	3.581200	-10.687000	24.928737	0.000898	20.734319
1264.336704	-2.994600	3.580300	-10.720000	24.890200	0.000898	20.725512
1265.330107	-2.986800	3.581200	-10.694000	24.888031	0.000897	20.768382
1266.335723	-2.993700	3.581600	-10.721000	24.919091	0.000896	20.739337
1267.327913	-2.987000	3.580000	-10.692000	24.915062	0.000898	20.735767
1268.329873	-3.008900	3.580600	-10.773000	24.917251	0.000897	20.732748
1269.336053	-2.991800	3.581200	-10.713000	24.898457	0.000896	20.734748
1270.332075	-2.979400	3.579700	-10.665000	24.877543	0.000898	20.732724
1271.330029	-2.992400	3.578600	-10.707000	24.900199	0.000894	20.740290
1272.337508	-2.989500	3.577400	-10.693000	24.925808	0.000893	20.753666
1273.332204	-2.997100	3.579000	-10.724000	24.943385	0.000892	20.762774
1274.337588	-2.964300	3.580800	-10.613000	24.949880	0.000891	20.747481
1275.334265	-3.009000	3.578400	-10.765000	24.947666	0.000894	20.745258
1276.329464	-3.008300	3.578600	-10.765000	24.957118	0.000892	20.724399
1277.331518	-3.002400	3.577500	-10.740000	24.954357	0.000892	20.741543
1278.334000	-2.998000	3.577000	-10.723000	24.948693	0.000891	20.721158
1279.332985	-3.015200	3.576200	-10.782000	24.913812	0.000891	20.746842
1280.337790	-2.994100	3.576800	-10.708000	24.890417	0.000893	20.741852
1281.333869	-2.962700	3.577200	-10.597000	24.896929	0.000892	20.749810
1282.333025	-3.016400	3.575800	-10.785000	24.869236	0.000889	20.741457
1283.329581	-2.979400	3.577200	-10.657000	24.844640	0.000889	20.735263
1284.336586	-2.999900	3.574700	-10.722000	24.880373	0.000890	20.742203
1285.336741	-3.009600	3.574700	-10.757000	24.907704	0.000888	20.743081
1286.338664	-3.009800	3.572900	-10.752000	24.911056	0.000888	20.748817
1287.332218	-3.005400	3.574700	-10.743000	24.920582	0.000887	20.731350
1288.333004	-2.997100	3.573800	-10.710000	24.899919	0.000888	20.757554
1289.334179	-2.996400	3.573500	-10.705000	24.901558	0.000884	20.747345
1290.339869	-2.980000	3.574400	-10.651000	24.913693	0.000887	20.740558
1291.335128	-3.015300	3.572800	-10.773000	24.918590	0.000886	20.725083
1292.337714	-3.012000	3.570600	-10.754000	24.949744	0.000886	20.736439
1293.341600	-3.012400	3.572800	-10.762000	24.940000	0.000885	20.752264
1294.336152	-2.984700	3.572200	-10.662000	24.976843	0.000885	20.747518
1295.342170	-3.023000	3.570500	-10.792000	24.947436	0.000883	20.742182
1296.343230	-2.983100	3.570600	-10.650000	24.918697	0.000883	20.759331
1297.338359	-2.976300	3.573000	-10.632000	24.940822	0.000881	20.745976
1298.344051	-2.976100	3.571100	-10.627000	24.918668	0.000882	20.744128
1299.343575	-2.980100	3.570600	-10.639000	24.911656	0.000882	20.745625
1300.345348	-2.995100	3.570400	-10.691000	24.906759	0.000882	20.755410
1301.339005	-3.012200	3.569300	-10.751000	24.909495	0.000880	20.752466
1302.342199	-3.027000	3.568700	-10.801000	24.893408	0.000880	20.756708
1303.344586	-2.990300	3.570200	-10.674000	24.921753	0.000880	20.757657
1304.342150	-3.002900	3.568700	-10.716000	24.922673	0.000878	20.752416
1305.338815	-2.995600	3.567600	-10.685000	24.891095	0.000878	20.740162
1306.340027	-2.988600	3.566500	-10.656000	24.913677	0.000878	20.754766
1307.340547	-3.013000	3.566200	-10.743000	24.922776	0.000878	20.737820
1308.341686	-3.033700	3.565800	-10.816000	24.919144	0.000877	20.764996
1309.345623	-3.009000	3.567500	-10.733000	24.951568	0.000878	20.752020
1310.340663	-3.005300	3.565800	-10.715000	24.961907	0.000877	20.756708
1311.343348	-3.025400	3.565100	-10.785000	24.984561	0.000875	20.743885
1312.344749	-3.027700	3.566000	-10.796000	24.982101	0.000874	20.754692
1313.344014	-2.984700	3.567300	-10.647000	24.956567	0.000873	20.757987
1314.347194	-2.998400	3.566400	-10.691000	24.951823	0.000873	20.750379
1315.343533	-3.030700	3.563600	-10.798000	24.955622	0.000871	20.764151
1316.347050	-2.979400	3.564900	-10.620000	24.969252	0.000871	20.772141
1317.344545	-2.991200	3.565100	-10.663000	24.973179	0.000872	20.742891
1318.348257	-2.960300	3.566000	-10.555000	24.961271	0.000872	20.755121
1319.341956	-2.999100	3.564700	-10.689000	24.955327	0.000871	20.758164
1320.346560	-3.009500	3.563500	-10.723000	24.938825	0.000871	20.771473
1321.348031	-3.008800	3.563900	-10.721000	24.953918	0.000871	20.759120
1322.346357	-3.021500	3.563800	-10.767000	24.938230	0.000869	20.746219
1323.347934	-2.998700	3.563100	-10.684000	24.927861	0.000870	20.784177
1324.349497	-2.990700	3.562500	-10.654000	24.931743	0.000870	20.751088
1325.347802	-2.974500	3.562800	-10.597000	24.941516	0.000870	20.754259
1326.345803	-2.996100	3.562000	-10.672000	24.939848	0.000869	20.766810
1327.342631	-2.999200	3.562700	-10.685000	24.967301	0.000868	20.755958
1328.346338	-3.007400	3.561400	-10.709000	24.974908	0.000868	20.756956
1329.350525	-3.005100	3.561500	-10.702000	25.002335	0.000866	20.763149
1330.347514	-3.000800	3.561100	-10.685000	24.998355	0.000867	20.757731
1331.345178	-2.994300	3.560300	-10.660000	25.006882	0.000866	20.761075
1332.352789	-2.993300	3.561300	-10.659000	25.025683	0.000865	20.756712
1333.348711	-3.005400	3.560700	-10.700000	25.018223	0.000864	20.752070
1334.350523	-3.004600	3.559900	-10.695000	25.026755	0.000864	20.759211
1335.351443	-3.017100	3.558500	-10.735000	25.030135	0.000864	20.760234
1336.351295	-2.977400	3.560400	-10.600000	24.989487	0.000865	20.769218
1337.349473	-2.981700	3.559700	-10.612000	24.992021	0.000863	20.764650
1338.351619	-2.980800	3.558600	-10.607000	24.985091	0.000864	20.788040
1339.350919	-2.994900	3.559100	-10.658000	25.003810	0.000861	20.756568
1340.350543	-3.001800	3.558400	-10.681000	25.039887	0.000862	20.752952
1341.351735	-2.988100	3.558200	-10.631000	25.041106	0.000860	20.791636
1342.352070	-2.997300	3.557200	-10.661000	25.068556	0.000860	20.773197
1343.351198	-3.012900	3.556700	-10.715000	25.100179	0.000860	20.754206
1344.347954	-2.997500	3.556500	-10.660000	25.074623	0.000860	20.783554
1345.355338	-3.026300	3.555300	-10.758000	25.078755	0.000858	20.763994
1346.353712	-3.002500	3.554600	-10.672000	25.071271	0.000858	20.780190
1347.353625	-2.965200	3.556000	-10.542000	25.030575	0.000858	20.784383
1348.354671	-2.972100	3.557100	-10.571000	24.996815	0.000857	20.770410
1349.353933	-2.986800	3.554100	-10.614000	24.986747	0.000857	20.775951
1350.355357	-2.991600	3.554300	-10.631000	24.977229	0.000856	20.787261
1351.353090	-3.018900	3.554200	-10.728000	25.005621	0.000856	20.790155
1352.352173	-2.988100	3.554400	-10.620000	25.035533	0.000855	20.779402
1353.351014	-3.000200	3.554000	-10.661000	25.062855	0.000854	20.776009
1354.356075	-3.023100	3.552700	-10.740000	25.043538	0.000855	20.783171
1355.358012	-2.978200	3.554100	-10.583000	25.061467	0.000854	20.774141
1356.354315	-2.992000	3.552200	-10.626000	25.075141	0.000853	20.782651
1357.358898	-3.011300	3.552000	-10.695000	25.077757	0.000854	20.799503
1358.358823	-3.007200	3.552200	-10.680000	25.039595	0.000852	20.788222
1359.361634	-2.983200	3.552700	-10.596000	25.009861	0.000852	20.779712
1360.352623	-2.983500	3.552100	-10.597000	24.963616	0.000851	20.769330
1361.354005	-2.992000	3.552900	-10.630000	24.953380	0.000850	20.773280
1362.357639	-3.013700	3.550900	-10.700000	24.962060	0.000850	20.786259
1363.357161	-2.994500	3.551100	-10.631000	24.980507	0.000850	20.765895
1364.354302	-3.013900	3.550000	-10.699000	24.995377	0.000847	20.782243
1365.356989	-2.995000	3.550400	-10.633000	24.979912	0.000847	20.773832
1366.358514	-2.999500	3.549800	-10.647000	25.037496	0.000847	20.776158
1367.353513	-2.993600	3.549900	-10.626000	25.042471	0.000846	20.792056
1368.358857	-2.977900	3.548300	-10.564000	25.037123	0.000848	20.783369
1369.356637	-2.995100	3.548700	-10.627000	25.055471	0.000847	20.801313
1370.361017	-2.989000	3.549100	-10.607000	25.038244	0.000845	20.773589
1371.357038	-3.003400	3.547900	-10.655000	25.022237	0.000846	20.792135
1372.361410	-3.023100	3.548200	-10.725000	24.993792	0.000844	20.782074
1373.358266	-3.000100	3.547300	-10.641000	24.979103	0.000846	20.789616
1374.362618	-3.030300	3.546700	-10.745000	24.996630	0.000843	20.804838
1375.363410	-2.992000	3.547000	-10.612000	25.019777	0.000844	20.781130
1376.371161	-2.988600	3.547100	-10.600000	25.040265	0.000843	20.799800
1377.365776	-2.980100	3.546800	-10.568000	25.070869	0.000842	20.797804
1378.364179	-3.018500	3.546000	-10.702000	25.066967	0.000842	20.780137
1379.367012	-2.997300	3.546400	-10.627000	25.088371	0.000841	20.801622
1380.362087	-2.995500	3.545700	-10.619000	25.076041	0.000842	20.783555
1381.367940	-3.013200	3.544300	-10.678000	25.102221	0.000841	20.811732
1382.365174	-2.998800	3.545100	-10.629000	25.098093	0.000841	20.789570
1383.364002	-3.027400	3.544000	-10.729000	25.116144	0.000839	20.787777
1384.365147	-3.028000	3.542600	-10.726000	25.134092	0.000841	20.788725
1385.366349	-3.010900	3.543800	-10.669000	25.162682	0.000838	20.798460
1386.365814	-2.996200	3.544600	-10.619000	25.169388	0.000838	20.795236
1387.367122	-3.033300	3.541600	-10.741000	25.160994	0.000838	20.816680
1388.366435	-2.988400	3.542300	-10.584000	25.201111	0.000839	20.808590
1389.360500	-3.007800	3.541800	-10.652000	25.218162	0.000837	20.811010
1390.368279	-3.024200	3.540200	-10.704000	25.198901	0.000838	20.792622
1391.368150	-3.016300	3.541300	-10.681000	25.194700	0.000835	20.814008
1392.363482	-2.998000	3.540400	-10.613000	25.176851	0.000836	20.803201
1393.366896	-3.034400	3.539800	-10.740000	25.127008	0.000836	20.795838
1394.364428	-3.021400	3.541800	-10.700000	25.124301	0.000833	20.800707
1395.363779	-2.992100	3.541000	-10.594000	25.091957	0.000837	20.816127
1396.369473	-2.995000	3.540000	-10.601000	25.101748	0.000834	20.811258
1397.370012	-2.990100	3.540400	-10.585000	25.101650	0.000833	20.800728
1398.364977	-2.986000	3.540900	-10.572000	25.120793	0.000835	20.820419
1399.368975	-2.966900	3.541100	-10.506000	25.130339	0.000835	20.820044
1400.367569	-2.981700	3.540100	-10.554000	25.157137	0.000832	20.805222
1401.365259	-3.018300	3.538300	-10.678000	25.166333	0.000833	20.799754
1402.364715	-2.991400	3.537600	-10.580000	25.185677	0.000831	20.823441
1403.365197	-2.998300	3.538600	-10.609000	25.167031	0.000831	20.797611
1404.370071	-2.972300	3.538600	-10.517000	25.162058	0.000832	20.826282
1405.371317	-3.005400	3.537500	-10.630000	25.143666	0.000833	20.826311
1406.366901	-3.007400	3.537300	-10.638000	25.157063	0.000831	20.818424
1407.363725	-2.958200	3.539100	-10.469000	25.177726	0.000830	20.823046
1408.371553	-3.016400	3.536900	-10.668000	25.165816	0.000830	20.823417
1409.362482	-2.983600	3.535700	-10.548000	25.208671	0.000830	20.848896
1410.365037	-3.028800	3.535300	-10.706000	25.209768	0.000829	20.813963
1411.366070	-3.013500	3.534600	-10.650000	25.218314	0.000829	20.817327
1412.366737	-2.999600	3.536700	-10.608000	25.191270	0.000829	20.806772
1413.369990	-3.016500	3.534200	-10.660000	25.213049	0.000829	20.832429
1414.371909	-2.998600	3.535300	-10.599000	25.173869	0.000826	20.804950
1415.365699	-3.008600	3.534600	-10.633000	25.165918	0.000826	20.822097
1416.373100	-3.007200	3.534900	-10.629000	25.125353	0.000826	20.838272
1417.373246	-2.992400	3.534300	-10.575000	25.136836	0.000825	20.848377
1418.367691	-2.995600	3.534200	-10.586000	25.135945	0.000826	20.811922
1419.367644	-3.000300	3.533700	-10.600000	25.123295	0.000824	20.827198
1420.367666	-3.011700	3.533500	-10.641000	25.134277	0.000825	20.833481
1421.366546	-2.995300	3.533000	-10.581000	25.128515	0.000822	20.836231
1422.371114	-2.978100	3.532200	-10.519000	25.128934	0.000823	20.824324
1423.373844	-3.005500	3.533300	-10.618000	25.125057	0.000821	20.837501
1424.369642	-3.007500	3.530600	-10.618000	25.092618	0.000820	20.815843
1425.366998	-3.004100	3.530400	-10.604000	25.108057	0.000822	20.848410
1426.370480	-3.008100	3.531200	-10.621000	25.097223	0.000822	20.841801
1427.371069	-3.003600	3.530400	-10.603000	25.112460	0.000820	20.825804
1428.371665	-2.983400	3.530400	-10.530000	25.139034	0.000820	20.822135
1429.377007	-3.007100	3.529600	-10.613000	25.143190	0.000820	20.829152
1430.372914	-3.013500	3.528700	-10.633000	25.169069	0.000817	20.838062
1431.370225	-2.984700	3.529900	-10.534000	25.205033	0.000818	20.831494
1432.377897	-2.999700	3.529000	-10.584000	25.214458	0.000817	20.835266
1433.379102	-3.022900	3.528300	-10.664000	25.246101	0.000816	20.837637
1434.373746	-3.007800	3.528500	-10.612000	25.282790	0.000815	20.836540
1435.373235	-2.987200	3.527600	-10.536000	25.273349	0.000816	20.835596
1436.379046	-2.987200	3.528000	-10.536000	25.238725	0.000813	20.857258
1437.373259	-3.011800	3.526800	-10.620000	25.219465	0.000815	20.836974
1438.371606	-3.003400	3.527200	-10.593000	25.208208	0.000814	20.838949
1439.378721	-3.005300	3.526100	-10.596000	25.237116	0.000812	20.859909
1440.379082	-3.006500	3.526300	-10.601000	25.214422	0.000814	20.853247
1441.374960	-3.010000	3.525800	-10.611000	25.218549	0.000811	20.850278
1442.371323	-3.004600	3.525800	-10.593000	25.188027	0.000812	20.834809
1443.377001	-3.004800	3.526900	-10.597000	25.181460	0.000813	20.852397
1444.374887	-3.003800	3.525000	-10.587000	25.188249	0.000811	20.835032
1445.380201	-3.000100	3.524800	-10.573000	25.234685	0.000809	20.835184
1446.381870	-2.987400	3.524900	-10.529000	25.242196	0.000808	20.856001
1447.376732	-2.974600	3.525500	-10.485000	25.212488	0.000810	20.844667
1448.380651	-2.978800	3.524000	-10.496000	25.212915	0.000809	20.841303
1449.382537	-2.995700	3.523600	-10.555000	25.213018	0.000809	20.839036
1450.377378	-2.990800	3.524900	-10.541000	25.214361	0.000809	20.831849
1451.377323	-2.995900	3.522000	-10.551000	25.214636	0.000808	20.842082
1452.381756	-2.994200	3.522400	-10.545000	25.218911	0.000809	20.848745
1453.373792	-2.991900	3.521300	-10.534000	25.218139	0.000809	20.821418
1454.380043	-2.991600	3.522800	-10.538000	25.189929	0.000806	20.859477
1455.380133	-2.994500	3.521200	-10.543000	25.173074	0.000806	20.850617
1456.376756	-2.992200	3.522000	-10.538000	25.201293	0.000806	20.867092
1457.381889	-2.998100	3.522300	-10.560000	25.195424	0.000806	20.845080
1458.377770	-3.009300	3.519000	-10.588000	25.248122	0.000808	20.854365
1459.376206	-2.991700	3.521000	-10.532000	25.236891	0.000806	20.849727
1460.382267	-3.016900	3.518500	-10.614000	25.253091	0.000803	20.862672
1461.377667	-3.005000	3.520000	-10.576000	25.279542	0.000803	20.858883
1462.375016	-2.996000	3.518900	-10.541000	25.270668	0.000805	20.866568
1463.380764	-3.008700	3.518400	-10.585000	25.264878	0.000804	20.837997
1464.382357	-3.009500	3.520400	-10.592000	25.259087	0.000803	20.859209
1465.378074	-2.999500	3.519400	-10.555000	25.293759	0.000803	20.865097
1466.383298	-3.009100	3.519200	-10.589000	25.293262	0.000804	20.849900
1467.382512	-2.984800	3.519000	-10.503000	25.285957	0.000800	20.860108
1468.378314	-3.007900	3.517200	-10.579000	25.286926	0.000802	20.861555
1469.386149	-3.009400	3.515700	-10.579000	25.261350	0.000799	20.850576
1470.389489	-3.001600	3.515600	-10.551000	25.248122	0.000798	20.827813
1471.378649	-3.012900	3.514500	-10.588000	25.254710	0.000800	20.858133
1472.386722	-3.007800	3.516100	-10.574000	25.256176	0.000798	20.844433
1473.389061	-3.008000	3.515100	-10.571000	25.255580	0.000798	20.848576
1474.379714	-2.993600	3.515000	-10.521000	25.234550	0.000798	20.848799
1475.386834	-3.000300	3.516200	-10.548000	25.235445	0.000797	20.844482
1476.388522	-2.990900	3.515000	-10.512000	25.246554	0.000797	20.849945
1477.379774	-2.971800	3.515000	-10.446000	25.231913	0.000796	20.844255
1478.388424	-2.984700	3.515900	-10.492000	25.195798	0.000793	20.837869
1479.387002	-3.002100	3.514400	-10.550000	25.155898	0.000794	20.840487
1480.382407	-2.989600	3.513300	-10.503000	25.150157	0.000794	20.844206
1481.390128	-3.023300	3.512200	-10.618000	25.140567	0.000793	20.824622
1482.386229	-2.984800	3.514500	-10.490000	25.096764	0.000792	20.833280
1483.384675	-3.002800	3.512300	-10.546000	25.106186	0.000794	20.845583
1484.389060	-2.979500	3.513200	-10.467000	25.086524	0.000791	20.817786
1485.387797	-2.993400	3.512500	-10.513000	25.115834	0.000789	20.860483
1486.386915	-3.018800	3.510800	-10.597000	25.098436	0.000791	20.831165
1487.391501	-3.027300	3.510200	-10.625000	25.104826	0.000790	20.825727
1488.391881	-3.000400	3.511500	-10.534000	25.141918	0.000788	20.841625
1489.385792	-3.011200	3.509200	-10.565000	25.154149	0.000789	20.848214
1490.387785	-2.999800	3.510400	-10.529000	25.179305	0.000788	20.831743
1491.392306	-3.014200	3.509200	-10.577000	25.157209	0.000789	20.833742
1492.387096	-3.018300	3.508200	-10.588000	25.123054	0.000788	20.839284
1493.388885	-3.007900	3.509600	-10.556000	25.100506	0.000787	20.804321
1494.392851	-3.009300	3.508300	-10.557000	25.082040	0.000786	20.830828
1495.385792	-3.010900	3.507600	-10.560000	25.073164	0.000786	20.831401
1496.391578	-3.018500	3.508100	-10.589000	25.063170	0.000786	20.825163
1497.391965	-3.005500	3.507700	-10.541000	25.053177	0.000784	20.830304
1498.387815	-2.999500	3.506900	-10.517000	25.052085	0.000786	20.829682
1499.391645	-3.020400	3.506000	-10.588000	25.055317	0.000786	20.828659
1500.392993	-3.019800	3.505700	-10.585000	25.064144	0.000784	20.821399
1501.387601	-3.017400	3.505300	-10.576000	25.115654	0.000783	20.823794
1502.386830	-2.984900	3.506800	-10.466000	25.150979	0.000784	20.823695
1503.390658	-3.023300	3.505800	-10.599000	25.145689	0.000784	20.818859
1504.391222	-2.987100	3.504700	-10.467000	25.151230	0.000785	20.833430
1505.392233	-3.002500	3.503700	-10.518000	25.134255	0.000782	20.821605
1506.393028	-3.017100	3.503200	-10.569000	25.108598	0.000783	20.826668
1507.388743	-3.018100	3.504700	-10.576000	25.092838	0.000783	20.827443
1508.393683	-3.014700	3.503400	-10.560000	25.137582	0.000785	20.816410
1509.394071	-2.986700	3.503400	-10.462000	25.147554	0.000783	20.824524
1510.392043	-3.004000	3.502800	-10.521000	25.167563	0.000782	20.811421
1511.391193	-2.981400	3.502600	-10.441000	25.184521	0.000780	20.801419
1512.396458	-3.021100	3.502100	-10.579000	25.183055	0.000779	20.803740
1513.389917	-2.992000	3.502900	-10.480000	25.195360	0.000780	20.815144
1514.393359	-3.003400	3.501000	-10.514000	25.223672	0.000778	20.813223
1515.392228	-2.983600	3.502400	-10.449000	25.244473	0.000778	20.808976
1516.390148	-2.972600	3.502500	-10.409000	25.253795	0.000779	20.798895
1517.395350	-2.986200	3.501600	-10.456000	25.251778	0.000778	20.819630
1518.395761	-2.995100	3.499900	-10.481000	25.229187	0.000776	20.789837
1519.392139	-2.997000	3.500400	-10.490000	25.231298	0.000777	20.810922
1520.393050	-2.993100	3.501000	-10.477000	25.176188	0.000776	20.794001
1521.393852	-2.987100	3.500200	-10.455000	25.180985	0.000777	20.803558
1522.391084	-2.974100	3.500000	-10.407000	25.179223	0.000776	20.810799
1523.394958	-3.001400	3.498200	-10.498000	25.198982	0.000776	20.804556
1524.401508	-2.995300	3.498400	-10.478000	25.197733	0.000775	20.797613
1525.393384	-2.984900	3.499300	-10.444000	25.183987	0.000777	20.817952
1526.398365	-3.000800	3.498600	-10.498000	25.161887	0.000773	20.808568
1527.397839	-3.020200	3.497800	-10.563000	25.121071	0.000774	20.779446
1528.394561	-3.001400	3.496900	-10.495000	25.129938	0.000774	20.803521
1529.401333	-3.006800	3.496400	-10.513000	25.166438	0.000773	20.786109
1530.399779	-3.001100	3.495700	-10.491000	25.152790	0.000773	20.805125
1531.394917	-2.979200	3.498000	-10.420000	25.146995	0.000773	20.772754
1532.405749	-3.007200	3.495000	-10.509000	25.118036	0.000771	20.798211
1533.405705	-3.003000	3.496500	-10.499000	25.076593	0.000773	20.805921
1534.399886	-2.981900	3.495200	-10.422000	25.014267	0.000772	20.799781
1535.404848	-2.994000	3.494900	-10.462000	25.025973	0.000771	20.806316
1536.405168	-3.000600	3.494600	-10.484000	25.014513	0.000769	20.809512
1537.401755	-3.001800	3.494100	-10.488000	25.060775	0.000771	20.802370
1538.401843	-2.989700	3.493400	-10.443000	25.114873	0.000768	20.774647
1539.404437	-3.000200	3.492100	-10.474000	25.118676	0.000768	20.795534
1540.397714	-2.983600	3.494200	-10.424000	25.146346	0.000766	20.790595
1541.407614	-2.994900	3.492600	-10.459000	25.153755	0.000769	20.805620
1542.404990	-2.998800	3.491600	-10.470000	25.172943	0.000769	20.812554
1543.400457	-3.012500	3.492400	-10.519000	25.192730	0.000765	20.803970
1544.404521	-3.000700	3.492200	-10.478000	25.198004	0.000765	20.788876
1545.405474	-3.015100	3.491500	-10.526000	25.143861	0.000766	20.806118
1546.408309	-2.971800	3.492600	-10.378000	25.126755	0.000765	20.796532
1547.401787	-2.996600	3.490100	-10.457000	25.147837	0.000764	20.773125
1548.408522	-2.993700	3.489700	-10.447000	25.164269	0.000763	20.784880
1549.403572	-2.988800	3.492500	-10.438000	25.150971	0.000764	20.764891
1550.401177	-3.014600	3.490100	-10.520000	25.104285	0.000763	20.798157
1551.407063	-2.992400	3.488700	-10.438000	25.086213	0.000764	20.777170
1552.402977	-3.005300	3.488500	-10.483000	25.091010	0.000764	20.781986
1553.405224	-3.016800	3.488700	-10.524000	25.060706	0.000763	20.795662
1554.408974	-2.984200	3.487900	-10.407000	25.049620	0.000763	20.775051
1555.403770	-2.996500	3.487800	-10.450000	25.097101	0.000763	20.780988
1556.403590	-3.004600	3.488600	-10.481000	25.138493	0.000762	20.768013
1557.409775	-2.987100	3.487400	-10.416000	25.197281	0.000760	20.803797
1558.406167	-2.995700	3.487600	-10.446000	25.169140	0.000759	20.785029
1559.410654	-2.991900	3.487100	-10.433000	25.181075	0.000760	20.769984
1560.411466	-2.967500	3.487600	-10.348000	25.160717	0.000758	20.788901
1561.405345	-2.982500	3.487100	-10.399000	25.172545	0.000757	20.774222
1562.409106	-2.985900	3.486000	-10.407000	25.177342	0.000758	20.773348
1563.410996	-2.992300	3.486300	-10.431000	25.192554	0.000759	20.784353
1564.404705	-2.995000	3.486600	-10.440000	25.207790	0.000757	20.793011
1565.406686	-3.016000	3.482600	-10.503000	25.244254	0.000756	20.798326
1566.412800	-3.004700	3.484800	-10.470000	25.261231	0.000756	20.785499
1567.412324	-3.023300	3.484900	-10.535000	25.234287	0.000757	20.770775
1568.408408	-3.008700	3.484100	-10.480000	25.200804	0.000755	20.781256
1569.411812	-2.958800	3.484500	-10.309000	25.135376	0.000755	20.767254
1570.408179	-3.009900	3.483000	-10.483000	25.130677	0.000757	20.774391
1571.413556	-3.014100	3.483900	-10.500000	25.113870	0.000753	20.783598
1572.414312	-2.988700	3.482500	-10.408000	25.130028	0.000754	20.774688
1573.408020	-3.006000	3.481400	-10.464000	25.098628	0.000752	20.768771
1574.409988	-3.005700	3.481500	-10.463000	25.087518	0.000753	20.777533
1575.414772	-2.997600	3.481300	-10.434000	25.063798	0.000753	20.792128
1576.409549	-3.010100	3.481900	-10.480000	25.084783	0.000754	20.771467
1577.414565	-2.999900	3.480000	-10.438000	25.106978	0.000753	20.768144
1578.413203	-3.001200	3.480800	-10.446000	25.117916	0.000750	20.768218
1579.409836	-2.992100	3.479600	-10.410000	25.119805	0.000751	20.774382
1580.414307	-3.012400	3.478300	-10.477000	25.105360	0.000749	20.785486
1581.416721	-3.012300	3.478100	-10.476000	25.072567	0.000748	20.767740
1582.410475	-2.995300	3.480100	-10.423000	25.070008	0.000750	20.759955
1583.407104	-2.989300	3.478000	-10.396000	25.066550	0.000751	20.762648
1584.416331	-3.007200	3.477200	-10.456000	25.082429	0.000748	20.765311
1585.417233	-2.998500	3.477700	-10.426000	25.116811	0.000748	20.760470
1586.411643	-2.998500	3.476900	-10.425000	25.129711	0.000747	20.784327
1587.417646	-2.986600	3.477400	-10.383000	25.189822	0.000747	20.752212
1588.416028	-3.018100	3.476200	-10.490000	25.176790	0.000745	20.764734
1589.410067	-3.013000	3.476300	-10.472000	25.196126	0.000744	20.770869
1590.413243	-3.010900	3.475400	-10.463000	25.202344	0.000746	20.778534
1591.411206	-2.999200	3.475700	-10.424000	25.205296	0.000747	20.761583
1592.409697	-3.000200	3.476100	-10.429000	25.231375	0.000745	20.785395
1593.412403	-2.995300	3.476500	-10.412000	25.244397	0.000743	20.765752
1594.419172	-2.984700	3.473700	-10.367000	25.258836	0.000743	20.760334
1595.417527	-2.990900	3.474100	-10.390000	25.286124	0.000743	20.770188
1596.414410	-2.984200	3.474000	-10.366000	25.313490	0.000743	20.759732
1597.419671	-2.997800	3.473700	-10.412000	25.324996	0.000741	20.762276
1598.412467	-2.990300	3.473500	-10.386000	25.328823	0.000742	20.770860
1599.412911	-3.008300	3.474600	-10.452000	25.332749	0.000741	20.777173
1600.416492	-3.021200	3.471900	-10.487000	25.327452	0.000741	20.760948
1601.413034	-2.996300	3.473200	-10.406000	25.301335	0.000740	20.781193
1602.416067	-3.005900	3.471800	-10.435000	25.277591	0.000740	20.753085
1603.416621	-2.986400	3.470800	-10.364000	25.260466	0.000741	20.765764
1604.421416	-2.998800	3.471900	-10.410000	25.272741	0.000737	20.759596
1605.416666	-2.988200	3.471500	-10.372000	25.233666	0.000741	20.746442
1606.416968	-2.973100	3.471800	-10.322000	25.248852	0.000739	20.752681
1607.415287	-2.983500	3.469900	-10.352000	25.224019	0.000738	20.770423
1608.422306	-3.011100	3.469000	-10.444000	25.186162	0.000738	20.761340
1609.420213	-3.014000	3.468900	-10.453000	25.185915	0.000736	20.759196
1610.418958	-3.008700	3.467000	-10.431000	25.203435	0.000736	20.759715
1611.423439	-3.006100	3.468100	-10.423000	25.211464	0.000735	20.740274
1612.425693	-3.003400	3.469200	-10.418000	25.264113	0.000735	20.740975
1613.421808	-2.994700	3.468300	-10.385000	25.246166	0.000735	20.748088
1614.426221	-3.017300	3.467400	-10.461000	25.245021	0.000736	20.748360
1615.428130	-3.014300	3.466900	-10.449000	25.219817	0.000734	20.763360
1616.424416	-3.007200	3.464800	-10.418000	25.216585	0.000735	20.761537
1617.425365	-3.011100	3.465100	-10.433000	25.223000	0.000734	20.773668
1618.426179	-2.987400	3.467000	-10.356000	25.238212	0.000734	20.751955
1619.421654	-2.985100	3.466200	-10.346000	25.239928	0.000731	20.728073
1620.426622	-3.010500	3.465500	-10.432000	25.226881	0.000733	20.764762
1621.426636	-3.012800	3.464300	-10.436000	25.268314	0.000729	20.748038
1622.424264	-3.004500	3.465300	-10.410000	25.273459	0.000730	20.734238
1623.428736	-3.021300	3.464300	-10.466000	25.310521	0.000730	20.745370
1624.428585	-2.982600	3.465600	-10.335000	25.298090	0.000729	20.751856
1625.426786	-2.992800	3.463000	-10.363000	25.300156	0.000729	20.746344
1626.425746	-2.997900	3.464400	-10.384000	25.348324	0.000730	20.749663
1627.429373	-3.010600	3.463500	-10.427000	25.327345	0.000729	20.753254
1628.432723	-3.015600	3.462000	-10.439000	25.342284	0.000730	20.736959
1629.431539	-2.994000	3.461600	-10.363000	25.300895	0.000727	20.748508
1630.429782	-3.020400	3.460300	-10.451000	25.318298	0.000728	20.735161
1631.432402	-3.023100	3.460400	-10.460000	25.329180	0.000727	20.758416
1632.432794	-2.975000	3.463400	-10.303000	25.313921	0.000728	20.750681
1633.430903	-3.004300	3.458900	-10.390000	25.361124	0.000727	20.733590
1634.431511	-3.007100	3.460000	-10.404000	25.352443	0.000727	20.738625
1635.432114	-2.994200	3.459900	-10.358000	25.345413	0.000725	20.728246
1636.442070	-3.014200	3.458700	-10.424000	25.384829	0.000727	20.757868
1637.433349	-2.995700	3.458800	-10.361000	25.372403	0.000726	20.744917
1638.432050	-3.011000	3.459200	-10.415000	25.398248	0.000724	20.741944
1639.434272	-2.985900	3.460600	-10.330000	25.418499	0.000726	20.722923
1640.433455	-2.999400	3.458200	-10.370000	25.402198	0.000722	20.766774
1641.437612	-2.987200	3.457800	-10.328000	25.400161	0.000724	20.743391
1642.432396	-2.977000	3.457600	-10.292000	25.392725	0.000723	20.732604
1643.440502	-2.996200	3.458100	-10.360000	25.423791	0.000722	20.756214
1644.437571	-3.001200	3.457500	-10.375000	25.405823	0.000723	20.730584
1645.440254	-3.014200	3.456500	-10.417000	25.413645	0.000722	20.745551
1646.436727	-3.001800	3.457400	-10.378000	25.433851	0.000720	20.739762
1647.438148	-2.994800	3.456600	-10.351000	25.434225	0.000722	20.715006
1648.433587	-3.020200	3.453800	-10.429000	25.431289	0.000720	20.723438
1649.439183	-3.008700	3.455200	-10.394000	25.424157	0.000720	20.714853
1650.438042	-3.015400	3.454300	-10.414000	25.400896	0.000720	20.723739
1651.432847	-3.015300	3.453500	-10.413000	25.399352	0.000719	20.720766
1652.439008	-2.998100	3.454600	-10.356000	25.407182	0.000718	20.738113
1653.439048	-3.004400	3.453000	-10.372000	25.412126	0.000718	20.726955
1654.440165	-2.996500	3.453100	-10.346000	25.402431	0.000718	20.739032
1655.437718	-3.003600	3.453600	-10.372000	25.420400	0.000718	20.721513
1656.437046	-2.987200	3.453100	-10.315000	25.419948	0.000716	20.739552
1657.441069	-2.981000	3.453300	-10.293000	25.459509	0.000715	20.719059
1658.436922	-2.991000	3.451100	-10.322000	25.427651	0.000715	20.732588
1659.438812	-2.996100	3.452100	-10.340000	25.407769	0.000713	20.723529
1660.437397	-2.967100	3.453500	-10.246000	25.422707	0.000715	20.736633
1661.442430	-3.018000	3.449700	-10.408000	25.424965	0.000713	20.716614
1662.441176	-2.957900	3.450500	-10.205000	25.423003	0.000715	20.720333
1663.443033	-2.986200	3.450300	-10.301000	25.433686	0.000713	20.715888
1664.441484	-2.994300	3.450200	-10.330000	25.431625	0.000712	20.735156
1665.438621	-3.020600	3.449400	-10.418000	25.444645	0.000712	20.724048
1666.442050	-2.995200	3.450100	-10.333000	25.466591	0.000712	20.730914
1667.442008	-3.031100	3.448100	-10.451000	25.458880	0.000711	20.727912
1668.446486	-3.012000	3.447700	-10.384000	25.448074	0.000713	20.728440
1669.440455	-3.009500	3.448200	-10.377000	25.461196	0.000711	20.718383
1670.444661	-3.004600	3.447700	-10.358000	25.431646	0.000711	20.741815
1671.438025	-3.027500	3.446600	-10.434000	25.430500	0.000712	20.715533
1672.442061	-2.994600	3.447500	-10.323000	25.377494	0.000709	20.712569
1673.443752	-3.015300	3.446600	-10.392000	25.360392	0.000710	20.713414
1674.443223	-3.010900	3.446900	-10.378000	25.354947	0.000708	20.724543
1675.441268	-2.988200	3.446400	-10.298000	25.358002	0.000710	20.739939
1676.441658	-3.001300	3.446500	-10.344000	25.288439	0.000707	20.728415
1677.446502	-3.008000	3.443900	-10.358000	25.254934	0.000707	20.729388
1678.441130	-3.026600	3.443400	-10.421000	25.246379	0.000708	20.724118
1679.442565	-3.005800	3.443800	-10.350000	25.231813	0.000706	20.707122
1680.449802	-3.006100	3.445400	-10.356000	25.251348	0.000708	20.721521
1681.448003	-2.985000	3.445300	-10.283000	25.268798	0.000705	20.706796
1682.447947	-3.020900	3.442900	-10.400000	25.291688	0.000704	20.720770
1683.452119	-3.016000	3.442400	-10.382000	25.305309	0.000706	20.702677
1684.447054	-2.983800	3.444000	-10.275000	25.312442	0.000704	20.717900
1685.443893	-3.006500	3.443900	-10.352000	25.271105	0.000706	20.712907
1686.451881	-2.979300	3.443200	-10.258000	25.274461	0.000703	20.719121
1687.449444	-3.028400	3.440800	-10.419000	25.293203	0.000703	20.725137
1688.448498	-2.998100	3.441700	-10.317000	25.315797	0.000703	20.705147
1689.452393	-3.006900	3.440900	-10.346000	25.324367	0.000701	20.708536
1690.450538	-3.002300	3.441500	-10.332000	25.345966	0.000700	20.711732
1691.450520	-3.008100	3.439400	-10.345000	25.349198	0.000701	20.717822
1692.455102	-3.013700	3.440600	-10.367000	25.346262	0.000700	20.708709
1693.451181	-2.977500	3.440700	-10.243000	25.338411	0.000702	20.716948
1694.446874	-2.989500	3.440500	-10.283000	25.318647	0.000701	20.718914
1695.451298	-3.005200	3.440900	-10.339000	25.290661	0.000700	20.715946
1696.453670	-3.009500	3.438200	-10.347000	25.266153	0.000698	20.704140
1697.453424	-3.026000	3.438200	-10.402000	25.301843	0.000699	20.727648
1698.451273	-2.984300	3.439000	-10.261000	25.298508	0.000697	20.725248
1699.453509	-3.022600	3.437000	-10.388000	25.337733	0.000697	20.704887
1700.452648	-2.991300	3.437200	-10.280000	25.346282	0.000696	20.716317
1701.456099	-2.989400	3.437400	-10.275000	25.370637	0.000698	20.718960
1702.458124	-2.990700	3.437000	-10.278000	25.373318	0.000698	20.726394
1703.451821	-3.003700	3.434900	-10.316000	25.414573	0.000695	20.710919
1704.458205	-3.006700	3.436400	-10.331000	25.427991	0.000696	20.717282
1705.457576	-3.017700	3.435500	-10.365000	25.429338	0.000696	20.716737
1706.454605	-2.990500	3.436100	-10.273000	25.359546	0.000695	20.719677
1707.457362	-3.020400	3.433600	-10.369000	25.368070	0.000693	20.733453
1708.459093	-3.008600	3.434200	-10.331000	25.325373	0.000694	20.707649
1709.457217	-3.020500	3.434100	-10.372000	25.280185	0.000695	20.709220
1710.455259	-3.037900	3.434400	-10.431000	25.237706	0.000694	20.722996
1711.460037	-3.006000	3.433200	-10.319000	25.239246	0.000692	20.734501
1712.454348	-3.010700	3.432500	-10.333000	25.249163	0.000694	20.717430
1713.456487	-3.024500	3.431800	-10.378000	25.277520	0.000693	20.713657
1714.459018	-3.023500	3.433900	-10.380000	25.274239	0.000691	20.723165
1715.458453	-2.994800	3.433300	-10.281000	25.306372	0.000690	20.729350
1716.458534	-3.007200	3.432400	-10.321000	25.302175	0.000691	20.728930
1717.460574	-2.984500	3.431500	-10.240000	25.318380	0.000690	20.709637
1718.457314	-3.024500	3.430200	-10.374000	25.342808	0.000689	20.722312
1719.459471	-2.982300	3.431100	-10.231000	25.350635	0.000687	20.714997
1720.463327	-3.001300	3.430500	-10.295000	25.374045	0.000689	20.708156
1721.457232	-3.021500	3.429500	-10.361000	25.371762	0.000689	20.735737
1722.463919	-2.991200	3.430300	-10.260000	25.371959	0.000687	20.704165
1723.466993	-3.002600	3.430200	-10.299000	25.359082	0.000687	20.710202
1724.461739	-2.998000	3.429400	-10.281000	25.383961	0.000688	20.718114
1725.463610	-2.994900	3.429300	-10.269000	25.421959	0.000687	20.718337
1726.465052	-2.983600	3.430800	-10.236000	25.406426	0.000686	20.722180
1727.461318	-3.017500	3.429200	-10.346000	25.387213	0.000686	20.726122
1728.465796	-3.002600	3.427000	-10.289000	25.416589	0.000684	20.687811
1729.463278	-2.988700	3.426800	-10.241000	25.409235	0.000684	20.725000
1730.460155	-3.012000	3.426500	-10.320000	25.385571	0.000685	20.717360
1731.461367	-2.978300	3.428100	-10.209000	25.361242	0.000683	20.737502
1732.460889	-3.011200	3.426000	-10.315000	25.352491	0.000682	20.722551
1733.462170	-3.008200	3.424900	-10.301000	25.356367	0.000684	20.737824
1734.462329	-2.986900	3.426300	-10.232000	25.319160	0.000681	20.724646
1735.464292	-3.005300	3.426300	-10.296000	25.295030	0.000683	20.732661
1736.464307	-3.003500	3.425100	-10.286000	25.300968	0.000682	20.713492
1737.465404	-2.979300	3.426300	-10.207000	25.302779	0.000682	20.728588
1738.464398	-3.000800	3.423700	-10.273000	25.343022	0.000678	20.713517
1739.462765	-3.007800	3.424500	-10.299000	25.332855	0.000680	20.739345
1740.468649	-3.021600	3.423700	-10.344000	25.344985	0.000679	20.709323
1741.464623	-3.005400	3.423700	-10.289000	25.382241	0.000679	20.727767
1742.465013	-3.022200	3.422800	-10.343000	25.407338	0.000680	20.724044
1743.470554	-3.010200	3.423700	-10.305000	25.380947	0.000679	20.730262
1744.465384	-2.993900	3.424000	-10.250000	25.388158	0.000679	20.735605
1745.466554	-3.000500	3.422700	-10.268000	25.423745	0.000678	20.736727
1746.465235	-3.010000	3.421300	-10.297000	25.404779	0.000679	20.727165
1747.467370	-2.992900	3.422300	-10.242000	25.403141	0.000676	20.736900
1748.464066	-2.984600	3.422600	-10.214000	25.374287	0.000675	20.730686
1749.469925	-2.981500	3.422200	-10.202000	25.347966	0.000677	20.731758
1750.471179	-3.015700	3.420300	-10.314000	25.295301	0.000676	20.714915
1751.465559	-3.004900	3.419600	-10.274000	25.317345	0.000677	20.722823
1752.466112	-2.997300	3.419900	-10.248000	25.325644	0.000675	20.723095
1753.467398	-3.017300	3.419500	-10.317000	25.307900	0.000676	20.739894
1754.466874	-2.986700	3.419800	-10.213000	25.323981	0.000675	20.735651
1755.463962	-2.988900	3.420100	-10.222000	25.321172	0.000672	20.741366
1756.476233	-2.996500	3.418000	-10.241000	25.319279	0.000673	20.737568
1757.468543	-3.006800	3.417600	-10.274000	25.349305	0.000674	20.735948
1758.473743	-2.995600	3.418500	-10.240000	25.347814	0.000671	20.727338
1759.474551	-3.006900	3.416800	-10.273000	25.323209	0.000671	20.744359
1760.474110	-2.983500	3.417500	-10.195000	25.326859	0.000673	20.723367
1761.472763	-3.000800	3.416300	-10.251000	25.335035	0.000671	20.728732
1762.473657	-2.954900	3.417900	-10.098000	25.366276	0.000670	20.740661
1763.469896	-2.961900	3.417900	-10.122000	25.357205	0.000670	20.754787
1764.468871	-3.018800	3.414500	-10.307000	25.307152	0.000669	20.733927
1765.471628	-2.976700	3.416600	-10.167000	25.283236	0.000669	20.734571
1766.470546	-2.969500	3.416600	-10.145000	25.269594	0.000669	20.751694
1767.469586	-3.013800	3.414100	-10.288000	25.292238	0.000668	20.758782
1768.469557	-3.012300	3.413600	-10.282000	25.329266	0.000668	20.735742
1769.471678	-3.028900	3.413900	-10.338000	25.335680	0.000668	20.743130
1770.470163	-3.002300	3.414200	-10.249000	25.358421	0.000668	20.737515
1771.472222	-3.019000	3.412400	-10.301000	25.333072	0.000668	20.745728
1772.472777	-3.022700	3.411800	-10.312000	25.298402	0.000667	20.740314
1773.471691	-3.008400	3.412100	-10.265000	25.281947	0.000665	20.743708
1774.473680	-3.019700	3.410900	-10.299000	25.280230	0.000666	20.751468
1775.473146	-2.976100	3.412700	-10.155000	25.320720	0.000665	20.745654
1776.472367	-3.011800	3.412500	-10.277000	25.319402	0.000665	20.740537
1777.470402	-2.989300	3.410500	-10.194000	25.307941	0.000665	20.747522
1778.472084	-2.969500	3.412200	-10.131000	25.329442	0.000663	20.736393
1779.470127	-3.007100	3.410000	-10.253000	25.331056	0.000662	20.761722
1780.476885	-2.993800	3.411300	-10.213000	25.360860	0.000662	20.746602
1781.475575	-2.998600	3.411600	-10.229000	25.384093	0.000665	20.754758
1782.471460	-2.993000	3.411400	-10.209000	25.393808	0.000661	20.735115
1783.474885	-3.026800	3.409100	-10.317000	25.407255	0.000659	20.751938
1784.475146	-2.993000	3.409500	-10.204000	25.420871	0.000660	20.769404
1785.472653	-3.007500	3.409400	-10.253000	25.421471	0.000660	20.751513
1786.477085	-2.991800	3.409500	-10.200000	25.399474	0.000658	20.748392
1787.473688	-3.002400	3.408600	-10.233000	25.394822	0.000659	20.768377
1788.471252	-2.977700	3.408500	-10.149000	25.365151	0.000658	20.741428
1789.472329	-2.985700	3.408100	-10.175000	25.364251	0.000658	20.776561
1790.475252	-3.018800	3.407900	-10.287000	25.371557	0.000656	20.757817
1791.471787	-2.986400	3.407200	-10.175000	25.372624	0.000657	20.759364
1792.474205	-2.982800	3.407300	-10.162000	25.392482	0.000655	20.772665
1793.471357	-3.005000	3.405100	-10.231000	25.417258	0.000657	20.750602
1794.474244	-2.992500	3.406400	-10.193000	25.454191	0.000655	20.751653
1795.479476	-2.994500	3.405400	-10.196000	25.468180	0.000654	20.762382
1796.479828	-2.988700	3.405400	-10.177000	25.462933	0.000655	20.760906
1797.472450	-2.967900	3.405200	-10.105000	25.459459	0.000654	20.754572
1798.476151	-2.993500	3.403700	-10.189000	25.443549	0.000655	20.758036
1799.475480	-2.996300	3.403800	-10.197000	25.416860	0.000653	20.758263
1800.472839	-2.986200	3.404700	-10.167000	25.422575	0.000654	20.762106
1801.481308	-2.995700	3.404500	-10.197000	25.417554	0.000651	20.749950
1802.480393	-2.994600	3.403900	-10.192000	25.433214	0.000652	20.772315
1803.475462	-2.985000	3.402800	-10.157000	25.463779	0.000653	20.770764
1804.480342	-2.990700	3.402700	-10.176000	25.486570	0.000651	20.764254
1805.481044	-3.004600	3.402000	-10.221000	25.464994	0.000652	20.761079
1806.472860	-2.981700	3.401600	-10.141000	25.465864	0.000649	20.789929
1807.474086	-2.989300	3.402500	-10.170000	25.454163	0.000650	20.766798
1808.481056	-2.993700	3.401800	-10.183000	25.438728	0.000648	20.771214
1809.476314	-3.014400	3.401000	-10.251000	25.411189	0.000648	20.777699
1810.483511	-3.015500	3.400700	-10.254000	25.391509	0.000649	20.763627
1811.477424	-3.024100	3.400300	-10.282000	25.393443	0.000649	20.770785
1812.482603	-3.010300	3.400600	-10.236000	25.405100	0.000649	20.772533
1813.479811	-3.013600	3.399000	-10.242000	25.431621	0.000647	20.772137
1814.479930	-3.007100	3.399600	-10.222000	25.415016	0.000647	20.753092
1815.478868	-3.020100	3.397400	-10.260000	25.449042	0.000646	20.782994
1816.479882	-2.985700	3.399600	-10.149000	25.417775	0.000645	20.782890
1817.481850	-3.012500	3.399400	-10.239000	25.393919	0.000646	20.768418
1818.482473	-2.989300	3.399800	-10.162000	25.370678	0.000644	20.765944
1819.482326	-2.985000	3.398100	-10.141000	25.322190	0.000643	20.777477
1820.485518	-2.978100	3.398100	-10.119000	25.317517	0.000645	20.771362
1821.478997	-2.978800	3.398000	-10.121000	25.287712	0.000643	20.767989
1822.485325	-2.997500	3.398400	-10.185000	25.244613	0.000642	20.758857
1823.481807	-2.967600	3.398900	-10.086000	25.283963	0.000643	20.778924
1824.482792	-2.983200	3.396800	-10.132000	25.290324	0.000643	20.785311
1825.490792	-2.971600	3.396600	-10.093000	25.302327	0.000643	20.784086
1826.486793	-2.974600	3.397800	-10.106000	25.342595	0.000642	20.760506
1827.486793	-2.997000	3.397800	-10.182000	25.340484	0.000641	20.788733
1828.487705	-2.997900	3.396500	-10.182000	25.332929	0.000640	20.773560
1829.489611	-2.990500	3.394900	-10.151000	25.308573	0.000639	20.752898
1830.484818	-2.996900	3.394500	-10.172000	25.341059	0.000639	20.768447
1831.488087	-3.016500	3.393000	-10.234000	25.307974	0.000639	20.785962
1832.491904	-3.004900	3.394300	-10.198000	25.292714	0.000637	20.789607
1833.491282	-3.015200	3.393300	-10.230000	25.297239	0.000638	20.786564
1834.492683	-3.011800	3.392300	-10.216000	25.262691	0.000636	20.758040
1835.492083	-2.999600	3.393600	-10.178000	25.269972	0.000636	20.771515
1836.484299	-2.994300	3.392200	-10.156000	25.290973	0.000636	20.784066
1837.494180	-3.001200	3.392600	-10.181000	25.287671	0.000638	20.761310
1838.495312	-2.992600	3.392600	-10.151000	25.342895	0.000636	20.784041
1839.488164	-2.981300	3.391400	-10.110000	25.369861	0.000635	20.784564
1840.492502	-2.995000	3.391700	-10.157000	25.375675	0.000635	20.801308
1841.494307	-2.999800	3.392900	-10.177000	25.408434	0.000635	20.792003
1842.490242	-2.986300	3.390500	-10.124000	25.460642	0.000637	20.775675
1843.495677	-2.977700	3.391600	-10.098000	25.469243	0.000632	20.789529
1844.495102	-3.004300	3.388000	-10.178000	25.482563	0.000634	20.788679
1845.486416	-2.991000	3.389900	-10.139000	25.500230	0.000635	20.780342
1846.493549	-3.013400	3.390500	-10.216000	25.509024	0.000634	20.800080
1847.492346	-2.969800	3.390100	-10.066000	25.527315	0.000634	20.798059
1848.494237	-3.015800	3.389000	-10.220000	25.525423	0.000631	20.794262
1849.494090	-3.026900	3.387900	-10.253000	25.495480	0.000634	20.777943
1850.496278	-3.002400	3.388800	-10.173000	25.507854	0.000634	20.785154
1851.494383	-3.015300	3.387600	-10.214000	25.489337	0.000631	20.799276
1852.494660	-2.999000	3.386700	-10.156000	25.498333	0.000634	20.799300
1853.495484	-3.015800	3.386300	-10.211000	25.492343	0.000630	20.779060
1854.487825	-2.990900	3.387200	-10.130000	25.521563	0.000629	20.783274
1855.492866	-3.008300	3.385100	-10.181000	25.492039	0.000629	20.815265
1856.492333	-2.985200	3.385600	-10.105000	25.537739	0.000629	20.799993
1857.496665	-3.013400	3.385900	-10.202000	25.542781	0.000628	20.786564
1858.495875	-3.000200	3.386300	-10.158000	25.526901	0.000629	20.803333
1859.496460	-2.990800	3.385100	-10.123000	25.534529	0.000628	20.799614
1860.496677	-3.005800	3.386200	-10.177000	25.530772	0.000625	20.798212
1861.499054	-3.015900	3.385500	-10.209000	25.549556	0.000627	20.800954
1862.495456	-2.994700	3.385700	-10.138000	25.587921	0.000628	20.799655
1863.495813	-2.989400	3.383700	-10.114000	25.586353	0.000625	20.821788
1864.496054	-2.996700	3.385000	-10.143000	25.626158	0.000627	20.806764
1865.497844	-3.016800	3.382100	-10.202000	25.598723	0.000626	20.801969
1866.493439	-3.012200	3.382100	-10.187000	25.632115	0.000624	20.813220
1867.497962	-2.978200	3.383500	-10.075000	25.651915	0.000624	20.810821
1868.501420	-2.992700	3.381900	-10.121000	25.642645	0.000624	20.827115
1869.500229	-3.008900	3.381200	-10.173000	25.687838	0.000625	20.814659
1870.501599	-3.015300	3.380800	-10.193000	25.692260	0.000625	20.819100
1871.500144	-3.019900	3.380800	-10.208000	25.672330	0.000623	20.823738
1872.494955	-3.003300	3.380900	-10.153000	25.670790	0.000622	20.808916
1873.498747	-3.000900	3.380400	-10.143000	25.685269	0.000622	20.826777
1874.501401	-3.006600	3.380400	-10.163000	25.688397	0.000622	20.794358
1875.494763	-2.978900	3.381500	-10.072000	25.701939	0.000620	20.818865
1876.496346	-2.983800	3.380500	-10.087000	25.745837	0.000621	20.822654
1877.500579	-3.003300	3.379500	-10.147000	25.732472	0.000620	20.813497
1878.495461	-3.000800	3.378500	-10.137000	25.661632	0.000620	20.812994
1879.499543	-2.976100	3.380200	-10.058000	25.609972	0.000619	20.827491
1880.501556	-2.993800	3.378100	-10.112000	25.573368	0.000616	20.809222
1881.501617	-3.001800	3.378000	-10.140000	25.530076	0.000617	20.840185
1882.502233	-3.023300	3.376800	-10.207000	25.506866	0.000618	20.827309
1883.502793	-3.037900	3.378600	-10.263000	25.475625	0.000618	20.831498
1884.498403	-3.046600	3.375800	-10.283000	25.485590	0.000615	20.830126
1885.499599	-2.979000	3.378100	-10.062000	25.504103	0.000616	20.815052
1886.498320	-2.980600	3.377700	-10.066000	25.500470	0.000615	20.827524
1887.503007	-3.023500	3.376800	-10.208000	25.516281	0.000615	20.822065
1888.497818	-3.021100	3.375500	-10.197000	25.535208	0.000614	20.824951
1889.497299	-2.997700	3.376500	-10.121000	25.580188	0.000612	20.820812
1890.499808	-2.999100	3.376000	-10.124000	25.599988	0.000614	20.834533
1891.497766	-2.994300	3.375100	-10.104000	25.595567	0.000612	20.812550
1892.498184	-3.010900	3.373900	-10.158000	25.572027	0.000611	20.822099
1893.498569	-2.995000	3.375000	-10.107000	25.588658	0.000610	20.828844
1894.495602	-3.015300	3.373300	-10.170000	25.614792	0.000611	20.833280
1895.499177	-2.994000	3.374600	-10.102000	25.621279	0.000609	20.824148
1896.503714	-3.025800	3.374100	-10.208000	25.622621	0.000610	20.829763
1897.499959	-2.997700	3.372800	-10.109000	25.639042	0.000608	20.848626
1898.500205	-3.008400	3.372800	-10.146000	25.627236	0.000608	20.834872
1899.500068	-3.008400	3.372900	-10.146000	25.640254	0.000607	20.833722
1900.501255	-2.997800	3.373600	-10.113000	25.628623	0.000608	20.832946
1901.505575	-2.989200	3.372900	-10.081000	25.669150	0.000609	20.853734
1902.505678	-2.973400	3.372000	-10.025000	25.656999	0.000607	20.838686
1903.501919	-2.989600	3.372000	-10.080000	25.652869	0.000606	20.842598
1904.503093	-2.985700	3.373000	-10.070000	25.636695	0.000607	20.840104
1905.499760	-2.996700	3.371000	-10.101000	25.625906	0.000605	20.832114
1906.502309	-2.983800	3.372300	-10.061000	25.568185	0.000605	20.830094
1907.506738	-2.994200	3.371300	-10.093000	25.525614	0.000606	20.828593
1908.499897	-3.003200	3.370200	-10.120000	25.505065	0.000606	20.848733
1909.501807	-3.005800	3.371500	-10.133000	25.480209	0.000604	20.851273
1910.510299	-3.002900	3.370700	-10.121000	25.491713	0.000605	20.858559
1911.510444	-2.985900	3.370800	-10.064000	25.509360	0.000606	20.842615
1912.505991	-3.019500	3.369300	-10.173000	25.569043	0.000604	20.870783
1913.504820	-3.021500	3.368000	-10.175000	25.543347	0.000605	20.845926
1914.510083	-2.993900	3.367000	-10.080000	25.555327	0.000603	20.841836
1915.501431	-2.999700	3.369200	-10.105000	25.580399	0.000604	20.864170
1916.505345	-2.990900	3.368500	-10.074000	25.587427	0.000602	20.847048
1917.508749	-2.981800	3.367700	-10.040000	25.585042	0.000599	20.853661
1918.505352	-2.993500	3.368400	-10.082000	25.540337	0.000602	20.868981
1919.507146	-3.003000	3.366900	-10.110000	25.552564	0.000599	20.855656
1920.508394	-3.025000	3.365800	-10.181000	25.551817	0.000599	20.853010
1921.507768	-3.020100	3.365700	-10.164000	25.521324	0.000599	20.884026
1922.512059	-3.021900	3.366000	-10.171000	25.527282	0.000599	20.868199
1923.506016	-2.982800	3.367100	-10.042000	25.462050	0.000597	20.849159
1924.516441	-3.014400	3.365900	-10.144000	25.444973	0.000597	20.850978
1925.512934	-3.003200	3.365000	-10.105000	25.454392	0.000597	20.861384
1926.513981	-3.005400	3.364600	-10.111000	25.480908	0.000596	20.864303
1927.515521	-3.003600	3.364700	-10.106000	25.507994	0.000595	20.855467
1928.510597	-3.004900	3.365100	-10.111000	25.522754	0.000594	20.864125
1929.510942	-3.031900	3.363800	-10.198000	25.536368	0.000595	20.861677
1930.510289	-3.005900	3.363500	-10.109000	25.539102	0.000594	20.869164
1931.517663	-3.006200	3.362200	-10.106000	25.539944	0.000595	20.873802
1932.511192	-3.009500	3.363300	-10.120000	25.546378	0.000594	20.859401
1933.512192	-2.999100	3.362800	-10.085000	25.505724	0.000593	20.859352
1934.517607	-3.001300	3.362700	-10.091000	25.516234	0.000594	20.858053
1935.512889	-2.999500	3.362000	-10.083000	25.546674	0.000592	20.874396
1936.513305	-2.997500	3.361900	-10.076000	25.534447	0.000593	20.858325
1937.519284	-2.981300	3.362300	-10.024000	25.547864	0.000590	20.870850
1938.519109	-3.008900	3.360400	-10.110000	25.579222	0.000591	20.868678
1939.515217	-3.004800	3.359800	-10.094000	25.588792	0.000591	20.885400
1940.520262	-3.005400	3.359800	-10.096000	25.597459	0.000590	20.860441
1941.516156	-3.015000	3.359100	-10.126000	25.588414	0.000590	20.865582
1942.516328	-3.019100	3.359600	-10.141000	25.554942	0.000588	20.886493
1943.521266	-2.990400	3.359200	-10.044000	25.557053	0.000589	20.871069
1944.516973	-2.989700	3.359800	-10.042000	25.528174	0.000587	20.882370
1945.517155	-3.013500	3.358500	-10.120000	25.508446	0.000589	20.864456
1946.522941	-3.024500	3.358200	-10.155000	25.514979	0.000587	20.873387
1947.523277	-2.987200	3.358800	-10.031000	25.519573	0.000587	20.880371
1948.514975	-2.986600	3.359600	-10.032000	25.513037	0.000588	20.872859
1949.524064	-2.994700	3.358200	-10.056000	25.548797	0.000588	20.869891
1950.515980	-3.015300	3.357700	-10.123000	25.581497	0.000589	20.875230
1951.518503	-2.972100	3.359000	-9.982700	25.582438	0.000585	20.876174
1952.524679	-2.949500	3.358400	-9.905200	25.635913	0.000585	20.867293
1953.520162	-3.007400	3.357100	-10.095000	25.627362	0.000585	20.868188
1954.517231	-2.995800	3.355900	-10.052000	25.646472	0.000585	20.889276
1955.521075	-2.988900	3.357500	-10.034000	25.665898	0.000585	20.868011
1956.520712	-3.017400	3.355000	-10.122000	25.687117	0.000583	20.871779
1957.516956	-3.010400	3.356500	-10.103000	25.685923	0.000583	20.877217
1958.527171	-2.977400	3.356500	-9.992800	25.705721	0.000585	20.894257
1959.523425	-2.983300	3.356600	-10.013000	25.691087	0.000583	20.886671
1960.528806	-3.015200	3.354200	-10.112000	25.666017	0.000582	20.882355
1961.527962	-2.988700	3.355000	-10.026000	25.627897	0.000582	20.894327
1962.523092	-3.012000	3.353600	-10.100000	25.609907	0.000580	20.865356
1963.524065	-3.014600	3.353100	-10.106000	25.568952	0.000581	20.887760
1964.526624	-2.985100	3.353800	-10.010000	25.557399	0.000579	20.872365
1965.523783	-2.977000	3.353200	-9.981800	25.511971	0.000581	20.881271
1966.521142	-2.984200	3.353100	-10.004000	25.543925	0.000578	20.882541
1967.530790	-2.988300	3.352500	-10.018000	25.551057	0.000578	20.867419
1968.526187	-3.000800	3.351300	-10.056000	25.577615	0.000578	20.861849
1969.525451	-3.008000	3.351700	-10.080000	25.597970	0.000578	20.874229
1970.531356	-2.999100	3.352300	-10.053000	25.609173	0.000577	20.866516
1971.531765	-3.012100	3.349800	-10.089000	25.652681	0.000576	20.843358
1972.521367	-3.016200	3.351400	-10.108000	25.694795	0.000577	20.863844
1973.530409	-2.990300	3.351200	-10.020000	25.706420	0.000575	20.871253
1974.529907	-3.005700	3.350300	-10.069000	25.705998	0.000576	20.858976
1975.526104	-3.005700	3.350000	-10.069000	25.704648	0.000574	20.863783
1976.525430	-2.988100	3.351200	-10.013000	25.719930	0.000575	20.850211
1977.529026	-3.007000	3.348700	-10.068000	25.721248	0.000576	20.863387
1978.532451	-3.014400	3.349100	-10.094000	25.701417	0.000574	20.855323
1979.531373	-3.018100	3.348000	-10.102000	25.689538	0.000574	20.863305
1980.530963	-2.999200	3.348900	-10.043000	25.697087	0.000573	20.846707
1981.530849	-3.024700	3.348100	-10.126000	25.728568	0.000573	20.845136
1982.529435	-2.980800	3.349800	-9.984900	25.731298	0.000573	20.868740
1983.525505	-3.021100	3.345700	-10.106000	25.784713	0.000573	20.837521
1984.529114	-3.002300	3.347100	-10.047000	25.785928	0.000571	20.850121
1985.532927	-3.001800	3.347800	-10.049000	25.815391	0.000570	20.824242
1986.537050	-2.990500	3.348300	-10.012000	25.807260	0.000573	20.854006
1987.531464	-3.005600	3.345200	-10.053000	25.814961	0.000569	20.844197
1988.534416	-3.018200	3.346400	-10.098000	25.844246	0.000570	20.858442
1989.529623	-3.006500	3.345900	-10.058000	25.810216	0.000569	20.858871
1990.529673	-2.991100	3.345300	-10.005000	25.786783	0.000569	20.841023
1991.530697	-2.988000	3.345700	-9.995200	25.811103	0.000568	20.853124
1992.529535	-2.981600	3.346200	-9.975800	25.786972	0.000568	20.838843
1993.536298	-3.006800	3.345400	-10.057000	25.844136	0.000569	20.855487
1994.539313	-3.004000	3.346000	-10.050000	25.855732	0.000567	20.836316
1995.532271	-3.019800	3.343600	-10.096000	25.817305	0.000566	20.844656
1996.537387	-2.994300	3.344700	-10.014000	25.783037	0.000565	20.860019
1997.538986	-2.998200	3.343600	-10.024000	25.725447	0.000565	20.853855
1998.534158	-2.967500	3.342900	-9.919400	25.743459	0.000565	20.840180
1999.534306	-3.000300	3.343200	-10.029000	25.774762	0.000564	20.842225
2000.531212	-3.029500	3.340900	-10.120000	25.759357	0.000564	20.832915
2001.540782	-2.999600	3.343000	-10.027000	25.763426	0.000563	20.847433
2002.535843	-2.995700	3.342400	-10.012000	25.784167	0.000562	20.815163
2003.536023	-3.015300	3.341600	-10.075000	25.807719	0.000563	20.821751
2004.535461	-3.016500	3.342700	-10.082000	25.793435	0.000562	20.853394
2005.536376	-2.994500	3.341000	-10.004000	25.791917	0.000561	20.831007
2006.542459	-3.002400	3.341200	-10.031000	25.805154	0.000562	20.829606
2007.537310	-2.999200	3.340500	-10.017000	25.791765	0.000560	20.826588
2008.537432	-3.033000	3.338900	-10.126000	25.804009	0.000559	20.855481
2009.535643	-2.997300	3.340100	-10.011000	25.834420	0.000560	20.831977
2010.534669	-3.012500	3.339400	-10.059000	25.856579	0.000560	20.836693
2011.538479	-3.005400	3.338300	-10.032000	25.863184	0.000558	20.833370
2012.538011	-2.998800	3.338600	-10.011000	25.874089	0.000556	20.822515
2013.542650	-3.009400	3.338100	-10.045000	25.915620	0.000556	20.857123
2014.542719	-3.016600	3.337600	-10.067000	25.906279	0.000556	20.837783
2015.537902	-3.008300	3.338500	-10.041000	25.935894	0.000557	20.860895
2016.541793	-3.004800	3.338200	-10.030000	25.960609	0.000555	20.842577
2017.541399	-3.022200	3.336500	-10.083000	25.958368	0.000554	20.816619
2018.536087	-3.006500	3.337100	-10.032000	25.941952	0.000554	20.827153
2019.543867	-2.988900	3.337400	-9.974700	25.912341	0.000554	20.812579
2020.540014	-2.986900	3.336900	-9.966300	25.914327	0.000552	20.818368
2021.539889	-2.979800	3.336000	-9.939400	25.888241	0.000553	20.832938
2022.543152	-2.974900	3.337100	-9.926800	25.896170	0.000552	20.818145
2023.544129	-2.988000	3.336700	-9.968800	25.941427	0.000551	20.834212
2024.540961	-3.015300	3.333900	-10.051000	25.938574	0.000554	20.834191
2025.544378	-2.993300	3.334500	-9.980300	25.952163	0.000551	20.820816
2026.544406	-3.005400	3.334900	-10.021000	25.968829	0.000549	20.823336
2027.537698	-2.991600	3.334400	-9.974000	25.969030	0.000551	20.819270
2028.546497	-3.023900	3.334300	-10.082000	25.981420	0.000552	20.834088
2029.546991	-3.031500	3.332800	-10.103000	25.943467	0.000549	20.817770
2030.543134	-3.005400	3.333500	-10.018000	25.913855	0.000550	20.836859
2031.546941	-3.027800	3.332400	-10.089000	25.879495	0.000548	20.825575
2032.545962	-3.006600	3.332600	-10.018000	25.869143	0.000547	20.822762
2033.543436	-3.010100	3.332000	-10.029000	25.831502	0.000546	20.814348
2034.547922	-2.986400	3.333400	-9.953100	25.832693	0.000547	20.800845
2035.545769	-2.986600	3.333800	-9.955800	25.829762	0.000547	20.824453
2036.542700	-3.000700	3.330500	-9.992500	25.849111	0.000545	20.827769
2037.544821	-3.002100	3.331700	-10.001000	25.858953	0.000547	20.804939
2038.545662	-3.012800	3.331200	-10.035000	25.894328	0.000546	20.801595
2039.542590	-2.975400	3.332400	-9.914000	25.886300	0.000542	20.821506
2040.545961	-2.989700	3.331400	-9.959000	25.865307	0.000543	20.818908
2041.545768	-3.010300	3.330600	-10.024000	25.810176	0.000543	20.808098
2042.546763	-2.991100	3.329300	-9.957700	25.805784	0.000543	20.813169
2043.546406	-3.011400	3.328700	-10.024000	25.832513	0.000543	20.798293
2044.544341	-3.008500	3.329300	-10.015000	25.817158	0.000541	20.818431
2045.545114	-3.008100	3.327900	-10.010000	25.774327	0.000539	20.815235
2046.544598	-3.025600	3.328900	-10.071000	25.785828	0.000541	20.823469
2047.553409	-2.993600	3.328800	-9.964500	25.796484	0.000542	20.808095
2048.549314	-3.003600	3.328400	-9.996100	25.794493	0.000541	20.813207
2049.554310	-3.014700	3.328200	-10.032000	25.822466	0.000539	20.815702
2050.553973	-3.001700	3.329300	-9.992600	25.837891	0.000539	20.817446
2051.549479	-2.987100	3.327500	-9.939000	25.824203	0.000538	20.824558
2052.550369	-3.001900	3.327600	-9.987900	25.798738	0.000540	20.789022
2053.552659	-3.012500	3.326500	-10.019000	25.819532	0.000539	20.792840
2054.545750	-2.982600	3.326300	-9.919800	25.796198	0.000536	20.804488
2055.550933	-3.008600	3.325000	-10.003000	25.787402	0.000536	20.819360
2056.553486	-3.006300	3.324200	-9.992600	25.829363	0.000536	20.806983
2057.550074	-2.996400	3.324200	-9.958600	25.864837	0.000535	20.816540
2058.555392	-2.996400	3.325100	-9.962700	25.928182	0.000534	20.791509
2059.549534	-2.993200	3.326200	-9.954700	25.948301	0.000534	20.795125
2060.551344	-2.993500	3.325700	-9.953800	25.971353	0.000534	20.815914
2061.552507	-2.996700	3.324400	-9.961000	25.961142	0.000533	20.801388
2062.550259	-2.996700	3.323600	-9.959700	25.979749	0.000532	20.806332
2063.551684	-2.994400	3.323900	-9.951600	25.981436	0.000531	20.802811
2064.551480	-3.003900	3.322600	-9.978900	25.969863	0.000531	20.792606
2065.556489	-2.985300	3.322800	-9.918500	25.971796	0.000532	20.788384
2066.551751	-2.990500	3.324600	-9.940500	25.953341	0.000529	20.800189
2067.558114	-2.986400	3.321700	-9.919400	26.034420	0.000528	20.798197
2068.557098	-2.978200	3.323600	-9.896200	26.040830	0.000528	20.799421
2069.551201	-3.003900	3.320800	-9.974500	26.039837	0.000529	20.792734
2070.550373	-2.976500	3.322700	-9.889200	26.035065	0.000530	20.813069
2071.558207	-3.022200	3.320500	-10.034000	26.041770	0.000527	20.799418
2072.558865	-3.011900	3.320000	-9.998000	26.048036	0.000530	20.796230
2073.555451	-3.009300	3.321100	-9.992600	26.032959	0.000526	20.795306
2074.556018	-3.001700	3.320300	-9.965500	26.055960	0.000527	20.797079
2075.562845	-2.994500	3.320300	-9.941700	26.031297	0.000527	20.796007
2076.564251	-2.998600	3.319400	-9.952300	26.019523	0.000526	20.809782
2077.558065	-3.012100	3.318600	-9.992900	25.976453	0.000527	20.804917
2078.563133	-3.012200	3.319600	-9.997800	25.927069	0.000524	20.782331
2079.558070	-2.996500	3.319300	-9.945200	25.922924	0.000524	20.805667
2080.558271	-3.014900	3.318400	-10.003000	25.933406	0.000522	20.778739
2081.558862	-3.021400	3.317000	-10.020000	25.953257	0.000523	20.805320
2082.558548	-2.971300	3.318600	-9.859600	25.963636	0.000524	20.794885
2083.558979	-3.008100	3.316700	-9.975300	26.024365	0.000521	20.789043
2084.563554	-2.975300	3.318300	-9.871700	26.030574	0.000523	20.796704
2085.565132	-3.010800	3.315900	-9.981100	26.041728	0.000523	20.783254
2086.556529	-3.012900	3.314300	-9.984600	26.044736	0.000522	20.796233
2087.557411	-2.984800	3.317800	-9.901100	26.082263	0.000519	20.770402
2088.565168	-2.979300	3.316400	-9.878800	26.056900	0.000520	20.780480
2089.567907	-2.998200	3.314000	-9.935300	26.027095	0.000520	20.776138
2090.562265	-3.005700	3.315000	-9.963000	25.976027	0.000518	20.784574
2091.563731	-2.982700	3.314600	-9.884700	25.921599	0.000518	20.771619
2092.562828	-3.009500	3.313500	-9.971100	25.878324	0.000518	20.779829
2093.563717	-2.994100	3.312400	-9.915800	25.906964	0.000518	20.784892
2094.565197	-3.017700	3.313600	-9.998200	25.936822	0.000516	20.798292
2095.564849	-3.020400	3.312800	-10.005000	25.939330	0.000514	20.774733
2096.564173	-2.960800	3.314300	-9.811300	25.957983	0.000513	20.766446
2097.561417	-3.014800	3.311800	-9.983300	25.976688	0.000515	20.779075
2098.568302	-3.002700	3.311400	-9.942600	25.989600	0.000514	20.788727
2099.569504	-3.019100	3.310300	-9.992600	25.977153	0.000515	20.784757
2100.564080	-3.013600	3.310900	-9.976600	25.989202	0.000513	20.783586
2101.565518	-2.972200	3.311700	-9.842300	25.995083	0.000513	20.785228
2102.564553	-2.988700	3.309700	-9.890800	25.981196	0.000511	20.770327
2103.565238	-2.989400	3.311300	-9.897100	25.992498	0.000511	20.799700
2104.563118	-2.980200	3.310800	-9.864800	25.993364	0.000511	20.775440
2105.565104	-2.985600	3.311100	-9.884700	25.984869	0.000512	20.767379
2106.565724	-2.997900	3.309600	-9.919800	25.967601	0.000510	20.784643
2107.568063	-3.003500	3.309100	-9.937400	26.002623	0.000511	20.780475
2108.564410	-2.984800	3.309800	-9.878400	25.994703	0.000508	20.764456
2109.570872	-3.012900	3.308200	-9.965900	26.031834	0.000508	20.773787
2110.573571	-3.013700	3.307800	-9.968000	26.075074	0.000508	20.794947
2111.573902	-2.987600	3.306900	-9.877700	26.100307	0.000507	20.743960
2112.572987	-3.002800	3.308300	-9.932400	26.113319	0.000507	20.780270
2113.568714	-2.996900	3.306800	-9.909200	26.115626	0.000506	20.764569
2114.569565	-3.006500	3.306200	-9.939200	26.118859	0.000507	20.777301
2115.566751	-2.979700	3.307300	-9.853600	26.128416	0.000503	20.760825
2116.573174	-3.004500	3.307200	-9.935800	26.174709	0.000505	20.776048
2117.566431	-3.008000	3.305900	-9.943900	26.133828	0.000503	20.746823
2118.569012	-2.983100	3.306400	-9.862500	26.160475	0.000503	20.777392
2119.573142	-2.998000	3.304700	-9.906600	26.175674	0.000505	20.768957
2120.571099	-2.996300	3.305000	-9.901600	26.140357	0.000502	20.755754
2121.568798	-2.988700	3.305100	-9.877000	26.126074	0.000503	20.774119
2122.567086	-2.983300	3.303800	-9.853700	26.086484	0.000502	20.765160
2123.568965	-3.005700	3.303600	-9.928600	26.082040	0.000502	20.776816
2124.570086	-3.000900	3.302900	-9.910700	26.039543	0.000500	20.753557
2125.575479	-2.979300	3.303100	-9.839700	26.042645	0.000500	20.768054
2126.575787	-2.988700	3.302700	-9.869800	26.082656	0.000499	20.778383
2127.572745	-2.987200	3.304100	-9.868300	26.105057	0.000499	20.750156
2128.568685	-3.006900	3.302100	-9.927500	26.107543	0.000498	20.752180
2129.569992	-2.973700	3.302800	-9.820700	26.147904	0.000498	20.767605
2130.571328	-3.015100	3.300700	-9.950500	26.164810	0.000498	20.757566
2131.569644	-3.025600	3.299700	-9.983200	26.200449	0.000496	20.752127
2132.572304	-3.022400	3.301100	-9.975900	26.195505	0.000497	20.774660
2133.571612	-2.999000	3.300700	-9.897300	26.208763	0.000496	20.764749
2134.578433	-2.977200	3.302300	-9.830100	26.198379	0.000498	20.755736
2135.572757	-3.004900	3.300700	-9.917400	26.179976	0.000495	20.752417
2136.572946	-3.013600	3.298300	-9.938700	26.179652	0.000494	20.777696
2137.571475	-2.979900	3.300100	-9.832600	26.140311	0.000494	20.758078
2138.578665	-3.021800	3.297600	-9.963300	26.173514	0.000491	20.761097
2139.580673	-2.995100	3.297900	-9.875500	26.166781	0.000489	20.751012
2140.576713	-3.014600	3.298600	-9.942700	26.135314	0.000490	20.753057
2141.581735	-3.005900	3.296700	-9.908100	26.163175	0.000490	20.747862
2142.576484	-2.976100	3.298700	-9.816500	26.151005	0.000490	20.755548
2143.582803	-2.998200	3.298200	-9.887100	26.136423	0.000488	20.759387
2144.582976	-3.003800	3.297000	-9.902500	26.099246	0.000489	20.766603
2145.581915	-3.006200	3.295900	-9.906300	26.131876	0.000490	20.721152
2146.582427	-3.008500	3.294800	-9.910700	26.153780	0.000486	20.756440
2147.578079	-3.023800	3.294800	-9.962200	26.180771	0.000488	20.759854
2148.583571	-2.983200	3.295300	-9.829100	26.193910	0.000486	20.761677
2149.583213	-3.000400	3.295100	-9.885800	26.210146	0.000486	20.761397
2150.582729	-2.988600	3.294900	-9.845500	26.208533	0.000486	20.752664
2151.579180	-2.994400	3.295400	-9.866100	26.202994	0.000485	20.732872
2152.585405	-3.005000	3.295300	-9.900700	26.232319	0.000483	20.753807
2153.576146	-2.997200	3.293000	-9.867900	26.235351	0.000482	20.745473
2154.584229	-2.993600	3.294500	-9.861500	26.205572	0.000482	20.735937
2155.579059	-2.991100	3.293200	-9.848700	26.205847	0.000483	20.759921
2156.579357	-3.013400	3.292600	-9.920900	26.222777	0.000482	20.732837
2157.579076	-2.954000	3.293900	-9.729000	26.242418	0.000483	20.733134
2158.577046	-2.992900	3.292900	-9.853900	26.239386	0.000480	20.750951
2159.585373	-3.016800	3.291600	-9.928900	26.234992	0.000481	20.743690
2160.575845	-2.995900	3.292000	-9.861000	26.211223	0.000479	20.733081
2161.583717	-2.990300	3.291000	-9.839700	26.222696	0.000480	20.733230
2162.584782	-2.999400	3.290800	-9.869400	26.230414	0.000481	20.732925
2163.578521	-2.992900	3.290600	-9.847600	26.252689	0.000479	20.728282
2164.585128	-3.008800	3.290400	-9.898700	26.269203	0.000476	20.740611
2165.579782	-2.979400	3.289700	-9.800000	26.304835	0.000477	20.738488
2166.580845	-3.002200	3.289000	-9.872800	26.313180	0.000475	20.729804
2167.586500	-2.999900	3.290400	-9.869200	26.315560	0.000473	20.725558
2168.582367	-2.985100	3.290500	-9.821200	26.289808	0.000474	20.755629
2169.578634	-2.958100	3.290100	-9.731300	26.272203	0.000473	20.735565
2170.586065	-2.980000	3.289900	-9.803000	26.248981	0.000474	20.750636
2171.586665	-2.998900	3.288100	-9.858600	26.254196	0.000471	20.736910
2172.578511	-3.003100	3.287700	-9.872100	26.262488	0.000472	20.731018
2173.587422	-3.030000	3.286100	-9.955700	26.240291	0.000469	20.742851
2174.585530	-3.005200	3.286600	-9.874700	26.231868	0.000471	20.735809
2175.591783	-3.000900	3.286700	-9.862100	26.268798	0.000470	20.751584
2176.587664	-2.981600	3.286400	-9.797000	26.311286	0.000469	20.736910
2177.589881	-2.995600	3.285500	-9.840500	26.304828	0.000469	20.745593
2178.587784	-2.994900	3.285200	-9.836200	26.365436	0.000467	20.710723
2179.589786	-2.996000	3.285400	-9.842200	26.350515	0.000467	20.724178
2180.588977	-3.014100	3.284700	-9.899300	26.301645	0.000465	20.720108
2181.586801	-2.990800	3.285600	-9.825800	26.292206	0.000465	20.715363
2182.585294	-3.024900	3.282800	-9.927800	26.291963	0.000465	20.747363
2183.590285	-2.988000	3.284200	-9.812400	26.247858	0.000464	20.735282
2184.583864	-3.000400	3.283200	-9.849800	26.206434	0.000465	20.739649
2185.589561	-3.005800	3.283100	-9.867200	26.168161	0.000462	20.750501
2186.588922	-3.011200	3.280700	-9.878200	26.163992	0.000462	20.736828
2187.581579	-3.001600	3.282400	-9.851000	26.175760	0.000462	20.743438
2188.587451	-3.015900	3.280700	-9.892600	26.154329	0.000461	20.739447
2189.589408	-3.006200	3.281500	-9.863700	26.185694	0.000462	20.742515
2190.587720	-3.020100	3.280900	-9.907300	26.185222	0.000460	20.737299
2191.590127	-3.012500	3.281600	-9.884000	26.157206	0.000459	20.733329
2192.591840	-3.018600	3.279800	-9.899200	26.105299	0.000459	20.748976
2193.586217	-2.999400	3.280500	-9.838100	26.129587	0.000458	20.746828
2194.591114	-3.011600	3.280100	-9.876700	26.096555	0.000457	20.735448
2195.591411	-3.003000	3.279600	-9.847300	26.100777	0.000459	20.729733
2196.585073	-3.000600	3.277600	-9.832900	26.086173	0.000454	20.732129
2197.590228	-3.014800	3.277800	-9.881000	26.106739	0.000458	20.749475
2198.592679	-2.996400	3.278100	-9.822500	26.126780	0.000454	20.741637
2199.585101	-3.011400	3.277000	-9.867600	26.143321	0.000456	20.726962
2200.589094	-3.001700	3.277100	-9.836100	26.143842	0.000455	20.730805
2201.593769	-3.002300	3.277500	-9.838400	26.120896	0.000454	20.735250
2202.588318	-2.999400	3.276300	-9.825800	26.069283	0.000453	20.724167
2203.592623	-3.012200	3.276000	-9.865900	26.108003	0.000452	20.724192
2204.592582	-3.005200	3.275400	-9.841400	26.140838	0.000453	20.715458
2205.585121	-3.002700	3.275000	-9.833400	26.149307	0.000451	20.730607
2206.590726	-3.016500	3.275600	-9.879300	26.154424	0.000451	20.729110
2207.594389	-3.006600	3.275000	-9.845200	26.178813	0.000450	20.731807
2208.587121	-3.016700	3.274600	-9.877800	26.215917	0.000450	20.732582
2209.596864	-2.976300	3.275200	-9.747500	26.248002	0.000451	20.706028
2210.588744	-2.965600	3.275700	-9.713400	26.291135	0.000448	20.728512
2211.590111	-2.985700	3.274100	-9.774000	26.337770	0.000448	20.732706
2212.595241	-2.997500	3.273000	-9.810200	26.309462	0.000446	20.728438
2213.593666	-2.990200	3.274200	-9.789300	26.314902	0.000446	20.747182
2214.590266	-3.015800	3.272600	-9.867000	26.317683	0.000446	20.740968
2215.597279	-2.965900	3.274400	-9.709900	26.344625	0.000444	20.731060
2216.590258	-3.013900	3.273000	-9.863500	26.386092	0.000444	20.731485
2217.587942	-3.019600	3.271200	-9.876500	26.403375	0.000444	20.753598
2218.596777	-2.958300	3.272700	-9.679900	26.438584	0.000444	20.728767
2219.590903	-2.987200	3.271100	-9.769400	26.407100	0.000442	20.741694
2220.594478	-3.002900	3.271100	-9.822100	26.377030	0.000442	20.730437
2221.595078	-2.991900	3.269500	-9.781100	26.377981	0.000442	20.729022
2222.596280	-2.991900	3.269900	-9.782400	26.369263	0.000440	20.745866
2223.595909	-2.981200	3.269400	-9.745900	26.411997	0.000440	20.724330
2224.596249	-2.990800	3.268100	-9.773300	26.363950	0.000439	20.732939
2225.597166	-2.967600	3.269600	-9.701200	26.311409	0.000439	20.735611
2226.592803	-2.999500	3.269200	-9.805100	26.303188	0.000437	20.744893
2227.595973	-2.998000	3.268700	-9.799000	26.306564	0.000438	20.724577
2228.599721	-2.972300	3.268100	-9.712600	26.276939	0.000436	20.743169
2229.597427	-2.978200	3.267600	-9.730700	26.292389	0.000437	20.728350
2230.599385	-2.993200	3.266400	-9.775600	26.331820	0.000436	20.751857
2231.596543	-2.988200	3.267700	-9.763500	26.347167	0.000436	20.723657
2232.598719	-2.984400	3.267000	-9.748500	26.358687	0.000435	20.741874
2233.594941	-2.989600	3.265900	-9.763300	26.362014	0.000434	20.754228
2234.604373	-2.999600	3.267400	-9.800100	26.361468	0.000435	20.743722
2235.599473	-3.023300	3.265600	-9.872200	26.334675	0.000433	20.729121
2236.600030	-3.005100	3.265900	-9.813400	26.359060	0.000433	20.738930
2237.604452	-3.010000	3.264100	-9.824000	26.378579	0.000432	20.732469
2238.601045	-2.988200	3.264700	-9.754900	26.384857	0.000430	20.731665
2239.601521	-2.990300	3.263000	-9.757100	26.364496	0.000431	20.742497
2240.601711	-2.996700	3.263200	-9.778000	26.364373	0.000432	20.748063
2241.602583	-3.026300	3.263200	-9.873800	26.366109	0.000429	20.746015
2242.598814	-3.010700	3.262300	-9.820700	26.384212	0.000431	20.750933
2243.601758	-2.997800	3.261300	-9.776500	26.391289	0.000427	20.731018
2244.603526	-2.995800	3.261600	-9.768200	26.362683	0.000427	20.737830
2245.604817	-3.001500	3.262000	-9.789500	26.339146	0.000427	20.764436
2246.604813	-3.022200	3.260200	-9.852100	26.319803	0.000425	20.731718
2247.603581	-2.993300	3.261600	-9.762300	26.330675	0.000425	20.740275
2248.604776	-2.996100	3.260400	-9.766800	26.356328	0.000424	20.749935
2249.604821	-3.014800	3.260000	-9.827600	26.364250	0.000425	20.741775
2250.603827	-3.013300	3.259800	-9.820700	26.356205	0.000425	20.746492
2251.602467	-3.031900	3.258500	-9.878400	26.378452	0.000423	20.737083
2252.604813	-2.995800	3.258300	-9.759400	26.411677	0.000423	20.736336
2253.606355	-2.985200	3.259400	-9.729200	26.401495	0.000423	20.757872
2254.606049	-3.002200	3.257000	-9.776700	26.361468	0.000422	20.738506
2255.606274	-2.984100	3.258500	-9.723100	26.388015	0.000423	20.741004
2256.607710	-3.008700	3.257300	-9.798300	26.382255	0.000421	20.731895
2257.607958	-3.005200	3.256600	-9.786000	26.399735	0.000419	20.757051
2258.606834	-3.015000	3.255300	-9.813800	26.424439	0.000419	20.754380
2259.607150	-3.001100	3.257100	-9.774100	26.456820	0.000419	20.738088
2260.602731	-3.005900	3.256000	-9.785800	26.450804	0.000420	20.752904
2261.603072	-3.038700	3.253600	-9.885200	26.460119	0.000418	20.749465
2262.608295	-3.007600	3.255200	-9.788700	26.477946	0.000417	20.777341
2263.607825	-2.995500	3.254400	-9.747000	26.525861	0.000416	20.750112
2264.609665	-3.019800	3.253100	-9.822800	26.532891	0.000416	20.742954
2265.603973	-3.009400	3.253700	-9.789600	26.514741	0.000416	20.746046
2266.612860	-3.030600	3.251900	-9.853800	26.479263	0.000416	20.759224
2267.607957	-3.027200	3.250500	-9.839400	26.458855	0.000414	20.751988
2268.608501	-2.997000	3.252200	-9.745000	26.409346	0.000415	20.741107
2269.605863	-3.019100	3.250800	-9.813600	26.420890	0.000414	20.757925
2270.605877	-2.981300	3.251700	-9.692100	26.412423	0.000415	20.728077
2271.611794	-2.995600	3.251200	-9.738400	26.429332	0.000411	20.750763
2272.606599	-3.004200	3.249600	-9.760400	26.487603	0.000415	20.759072
2273.612411	-2.996200	3.249900	-9.736700	26.503296	0.000412	20.757777
2274.611187	-3.001500	3.250400	-9.754900	26.543417	0.000411	20.744525
2275.611780	-2.994000	3.250100	-9.729400	26.545574	0.000413	20.754755
2276.610220	-2.997000	3.248500	-9.734800	26.544578	0.000410	20.756124
2277.611594	-2.992500	3.248700	-9.721200	26.527819	0.000408	20.773891
2278.607613	-3.014500	3.247100	-9.786800	26.514016	0.000409	20.748162
2279.611022	-3.019600	3.245200	-9.798200	26.476401	0.000408	20.775788
2280.610823	-2.992600	3.248500	-9.720400	26.452367	0.000408	20.768700
2281.609818	-3.013600	3.246300	-9.782300	26.414155	0.000406	20.754475
2282.615486	-2.986200	3.246100	-9.692200	26.400573	0.000407	20.749359
2283.616665	-2.992900	3.247100	-9.717400	26.415916	0.000405	20.758141
2284.614974	-2.997900	3.246400	-9.731300	26.457877	0.000404	20.757642
2285.615648	-3.005900	3.246000	-9.757100	26.492609	0.000403	20.770268
2286.614909	-3.012300	3.245000	-9.774000	26.522250	0.000402	20.765448
2287.610710	-3.012000	3.244300	-9.770700	26.563316	0.000403	20.763106
2288.614894	-3.003100	3.244200	-9.742100	26.621054	0.000401	20.774206
2289.615475	-2.976400	3.245000	-9.657500	26.618052	0.000401	20.766446
2290.613770	-2.970300	3.245600	-9.639300	26.638552	0.000401	20.787055
2291.615886	-2.980300	3.243400	-9.663900	26.582057	0.000399	20.758711
2292.614245	-2.978600	3.242500	-9.657000	26.517578	0.000400	20.764072
2293.617867	-3.025600	3.241500	-9.806100	26.473261	0.000398	20.786382
2294.616717	-2.981400	3.242500	-9.665800	26.446717	0.000398	20.762073
2295.617797	-2.996500	3.242200	-9.713600	26.457915	0.000398	20.779967
2296.615254	-3.022200	3.240000	-9.790700	26.471046	0.000396	20.759500
2297.624341	-3.014800	3.239700	-9.765600	26.516431	0.000397	20.773350
2298.614967	-2.993800	3.241500	-9.703300	26.530585	0.000397	20.776199
2299.617237	-3.015500	3.240500	-9.771100	26.555635	0.000392	20.783360
2300.616875	-3.033500	3.237500	-9.819800	26.573880	0.000395	20.764716
2301.615412	-3.013000	3.238800	-9.758200	26.559405	0.000394	20.779564
2302.618851	-3.021900	3.238200	-9.783400	26.520824	0.000394	20.782034
2303.621842	-3.015600	3.237800	-9.763100	26.499125	0.000392	20.751687
2304.618984	-3.013100	3.236200	-9.749600	26.460943	0.000393	20.775424
2305.619890	-2.999400	3.236400	-9.705300	26.479633	0.000392	20.785675
2306.619190	-3.009000	3.236200	-9.735300	26.502152	0.000390	20.750463
2307.620129	-3.030800	3.236000	-9.807100	26.560792	0.000389	20.777165
2308.619593	-3.004600	3.235500	-9.719200	26.572961	0.000389	20.779440
2309.619248	-3.001700	3.235700	-9.711600	26.619407	0.000388	20.780611
2310.617537	-3.010600	3.234200	-9.735800	26.639935	0.000391	20.793187
2311.618469	-3.016400	3.234600	-9.755500	26.650438	0.000388	20.779564
2312.621985	-3.003800	3.234700	-9.714700	26.647358	0.000387	20.784528
2313.623554	-2.977200	3.233800	-9.626500	26.598302	0.000387	20.782628
2314.620505	-3.004700	3.232000	-9.709700	26.561883	0.000387	20.789167
2315.623484	-2.984000	3.233700	-9.647100	26.580705	0.000385	20.777741
2316.619721	-3.003300	3.232600	-9.708000	26.605158	0.000385	20.807065
2317.622063	-3.004600	3.231900	-9.709600	26.624919	0.000384	20.806067
2318.621709	-2.985600	3.232300	-9.649200	26.650213	0.000382	20.790717
2319.622352	-3.006600	3.233100	-9.719500	26.668611	0.000383	20.799729
2320.622869	-3.006500	3.229800	-9.709600	26.695716	0.000382	20.795685
2321.624876	-2.997300	3.229800	-9.680000	26.696610	0.000381	20.789946
2322.621551	-3.008600	3.230600	-9.718400	26.718157	0.000382	20.788849
2323.620966	-3.027500	3.229200	-9.775700	26.689039	0.000381	20.777119
2324.621294	-3.016100	3.228300	-9.736100	26.704628	0.000381	20.791842
2325.622258	-3.006500	3.228600	-9.705400	26.686111	0.000380	20.782709
2326.620223	-3.021600	3.227800	-9.752500	26.690606	0.000378	20.804772
2327.620686	-3.028700	3.226800	-9.771100	26.666179	0.000378	20.794439
2328.621530	-2.991800	3.227100	-9.653800	26.668540	0.000378	20.796340
2329.620518	-2.995600	3.226600	-9.664800	26.643543	0.000378	20.788279
2330.626361	-3.017500	3.226600	-9.734600	26.587935	0.000376	20.803976
2331.625353	-2.988200	3.225600	-9.638100	26.559711	0.000376	20.798364
2332.624956	-3.005600	3.223800	-9.688600	26.560553	0.000376	20.800158
2333.627854	-2.997500	3.224700	-9.665100	26.585031	0.000376	20.802005
2334.623055	-2.996600	3.227200	-9.668200	26.592032	0.000374	20.809517
2335.622073	-3.003000	3.223500	-9.678100	26.586295	0.000373	20.772929
2336.628611	-2.985100	3.224100	-9.623700	26.591286	0.000374	20.786007
2337.621550	-3.013200	3.223200	-9.711500	26.588484	0.000373	20.791251
2338.622250	-3.009800	3.222400	-9.697600	26.622614	0.000372	20.800430
2339.623263	-3.001600	3.224600	-9.678100	26.654387	0.000373	20.799655
2340.627829	-3.021700	3.220900	-9.731700	26.687403	0.000372	20.803448
2341.621379	-3.017600	3.221100	-9.718600	26.700538	0.000372	20.802903
2342.622728	-2.997600	3.222000	-9.657600	26.713195	0.000371	20.792868
2343.627405	-2.998100	3.221200	-9.655800	26.715130	0.000370	20.792918
2344.627362	-2.992300	3.220900	-9.636300	26.701626	0.000371	20.799729
2345.624155	-2.991100	3.221200	-9.633700	26.698099	0.000370	20.824159
2346.624221	-3.007900	3.219600	-9.682900	26.678512	0.000371	20.798303
2347.629182	-3.006300	3.220600	-9.681800	26.702217	0.000368	20.820238
2348.625394	-2.988900	3.218100	-9.617900	26.685513	0.000369	20.802971
2349.625539	-2.987000	3.217600	-9.610400	26.727980	0.000367	20.813423
2350.625865	-3.008600	3.217600	-9.679800	26.764668	0.000367	20.812850
2351.631566	-3.030400	3.216200	-9.745600	26.757639	0.000368	20.806732
2352.631125	-3.020900	3.215300	-9.712000	26.741555	0.000365	20.809527
2353.631103	-2.983800	3.216700	-9.597900	26.700623	0.000367	20.809152
2354.630465	-2.996900	3.214800	-9.633700	26.645144	0.000366	20.805062
2355.630854	-2.986600	3.215800	-9.603600	26.628059	0.000365	20.809223
2356.631012	-3.005000	3.213800	-9.657200	26.582954	0.000363	20.818409
2357.626460	-3.019400	3.211600	-9.695800	26.575830	0.000364	20.806506
2358.626813	-2.980200	3.214800	-9.579800	26.606862	0.000365	20.811622
2359.631297	-3.010600	3.214900	-9.677400	26.626197	0.000362	20.813515
2360.624527	-2.976700	3.213400	-9.564600	26.691535	0.000363	20.815189
2361.623568	-2.973600	3.215300	-9.560100	26.738845	0.000361	20.813441
2362.626649	-2.986400	3.212500	-9.592600	26.742942	0.000362	20.809025
2363.627378	-2.999300	3.212200	-9.633200	26.775110	0.000359	20.814340
2364.627282	-3.005200	3.211800	-9.650800	26.783775	0.000359	20.813094
2365.627182	-3.001300	3.210300	-9.633800	26.838380	0.000360	20.831013
2366.628986	-3.014100	3.208800	-9.670200	26.811672	0.000356	20.830712
2367.629380	-3.028100	3.210700	-9.721000	26.790426	0.000357	20.822627
2368.634224	-2.990400	3.210100	-9.598200	26.791788	0.000356	20.844858
2369.625419	-2.986500	3.209700	-9.583600	26.839122	0.000358	20.840768
2370.633194	-3.015800	3.209400	-9.676600	26.838380	0.000356	20.836228
2371.627484	-2.978300	3.209100	-9.556600	26.827185	0.000357	20.818809
2372.632841	-3.016200	3.205600	-9.666900	26.843321	0.000358	20.843092
2373.625503	-2.983700	3.207100	-9.568100	26.830514	0.000355	20.840647
2374.628541	-3.013300	3.206900	-9.662400	26.808969	0.000355	20.826098
2375.625271	-2.974600	3.206100	-9.535700	26.787252	0.000354	20.818013
2376.632050	-3.008900	3.206000	-9.645400	26.792439	0.000356	20.839823
2377.632346	-2.989900	3.206400	-9.585600	26.767297	0.000354	20.837778
2378.627767	-3.019900	3.202900	-9.671900	26.730314	0.000354	20.839476
2379.630733	-3.010800	3.203100	-9.642700	26.739496	0.000351	20.819785
2380.627407	-3.002600	3.203100	-9.616200	26.721902	0.000350	20.834339
2381.630157	-3.001500	3.202000	-9.610500	26.743069	0.000353	20.815316
2382.628476	-2.979700	3.203400	-9.544000	26.739672	0.000351	20.839402
2383.628385	-3.006400	3.200600	-9.621400	26.789761	0.000349	20.839501
2384.629959	-2.998700	3.201100	-9.597300	26.823395	0.000349	20.855299
2385.633671	-3.018900	3.200600	-9.661000	26.813513	0.000351	20.842993
2386.638049	-2.992300	3.201000	-9.577700	26.821160	0.000347	20.828872
2387.633065	-3.003900	3.200100	-9.612000	26.772037	0.000349	20.850130
2388.638947	-2.967800	3.201300	-9.499700	26.749305	0.000350	20.855724
2389.638709	-2.993900	3.199100	-9.577300	26.709316	0.000349	20.837806
2390.635228	-2.982400	3.199900	-9.542800	26.676453	0.000349	20.853131
2391.635591	-3.005700	3.198300	-9.612400	26.725573	0.000346	20.841822
2392.640368	-2.985400	3.199900	-9.552000	26.776781	0.000348	20.834986
2393.636753	-3.014800	3.196800	-9.637100	26.750101	0.000347	20.851308
2394.640596	-3.001900	3.196000	-9.593000	26.780730	0.000348	20.838482
2395.642180	-3.008700	3.196800	-9.617300	26.797880	0.000345	20.869474
2396.644331	-3.015900	3.195600	-9.636100	26.801878	0.000345	20.843623
2397.641778	-3.001600	3.194800	-9.587800	26.792992	0.000344	20.830896
2398.643316	-2.965500	3.196400	-9.478300	26.766163	0.000344	20.843750
2399.643410	-2.968700	3.194500	-9.482800	26.740573	0.000342	20.852635
2400.639890	-3.015400	3.192900	-9.627300	26.771326	0.000340	20.849415
2401.644502	-3.007700	3.191700	-9.598500	26.796595	0.000342	20.858226
2402.638228	-2.978700	3.193400	-9.511600	26.841818	0.000341	20.840633
2403.640759	-3.001100	3.192900	-9.581400	26.886767	0.000343	20.846001
2404.640272	-2.991000	3.192800	-9.549000	26.921764	0.000340	20.851793
2405.637500	-3.003100	3.191700	-9.583800	26.938193	0.000341	20.875899
2406.641220	-2.985200	3.193200	-9.531200	26.974775	0.000339	20.841564
2407.640169	-2.981600	3.193400	-9.520900	26.953486	0.000337	20.834381
2408.637285	-3.006600	3.191200	-9.593600	26.951203	0.000338	20.851050
2409.641202	-3.001100	3.191600	-9.577400	26.933038	0.000339	20.857914
2410.644270	-3.006600	3.188400	-9.585200	26.902934	0.000336	20.855144
2411.637970	-3.005400	3.187800	-9.579700	26.893728	0.000338	20.861060
2412.640605	-2.969700	3.188600	-9.468300	26.870277	0.000337	20.867825
2413.642723	-3.005300	3.186400	-9.575600	26.882738	0.000336	20.856648
2414.639318	-2.979200	3.188800	-9.499700	26.895572	0.000335	20.854380
2415.642477	-2.981100	3.188100	-9.502300	26.866484	0.000334	20.862588
2416.642880	-3.008100	3.184800	-9.578900	26.885374	0.000334	20.853134
2417.639577	-2.987000	3.185500	-9.514600	26.904486	0.000334	20.845799
2418.641658	-2.985900	3.184900	-9.509000	26.941216	0.000335	20.857603
2419.644917	-3.008100	3.183700	-9.576200	26.984571	0.000334	20.852837
2420.639741	-2.994300	3.183400	-9.531500	27.003776	0.000331	20.876890
2421.644670	-2.997700	3.184000	-9.543700	27.017108	0.000333	20.875124
2422.646021	-3.008600	3.182000	-9.572300	27.025665	0.000334	20.857178
2423.642604	-2.993800	3.182500	-9.526300	27.066712	0.000334	20.857681
2424.646788	-3.019000	3.180700	-9.601500	27.099616	0.000332	20.869909
2425.646050	-3.009000	3.179700	-9.566300	27.054482	0.000334	20.878097
2426.645088	-3.006500	3.179500	-9.558300	26.991524	0.000331	20.868837
2427.651186	-2.990900	3.178700	-9.506400	26.985373	0.000332	20.856014
2428.651144	-2.988900	3.179100	-9.500700	27.014557	0.000330	20.856913
2429.643942	-3.012000	3.179100	-9.573500	27.047811	0.000331	20.874707
2430.648876	-2.990800	3.178700	-9.505600	27.043723	0.000331	20.882449
2431.653417	-2.993100	3.177500	-9.510200	27.043670	0.000332	20.854896
2432.645450	-3.014100	3.176600	-9.573000	27.049426	0.000331	20.878702
2433.651461	-2.998400	3.176700	-9.524100	27.091042	0.000328	20.868398
2434.647636	-2.967000	3.176700	-9.424100	27.068260	0.000328	20.854971
2435.647151	-2.997800	3.175100	-9.517600	27.088836	0.000329	20.868551
2436.653121	-2.982400	3.175100	-9.468600	27.090279	0.000327	20.871898
2437.651830	-3.005300	3.173300	-9.536200	27.092316	0.000328	20.880584
2438.648469	-2.978000	3.174800	-9.453100	27.103680	0.000328	20.857876
2439.653041	-3.004600	3.174200	-9.535800	27.125515	0.000326	20.857076
2440.654435	-2.992200	3.172700	-9.492100	27.127256	0.000326	20.878741
2441.644699	-2.979800	3.172600	-9.453100	27.134746	0.000328	20.861619
2442.652818	-3.010400	3.173000	-9.550700	27.086813	0.000325	20.877895
2443.650472	-3.026700	3.169900	-9.593500	27.058972	0.000326	20.875026
2444.646118	-2.999600	3.170600	-9.509100	27.038702	0.000325	20.859383
2445.649687	-3.025100	3.169500	-9.587300	27.066868	0.000327	20.897189
2446.651914	-2.999100	3.169300	-9.504200	27.083070	0.000323	20.881716
2447.646275	-2.995600	3.168700	-9.490400	27.076793	0.000325	20.885361
2448.650567	-3.017100	3.169700	-9.561600	27.070245	0.000324	20.874983
2449.651873	-3.005000	3.167500	-9.516600	27.064137	0.000324	20.867893
2450.646553	-3.017400	3.166600	-9.554000	27.062579	0.000324	20.870118
2451.651336	-2.988600	3.165700	-9.460000	27.081167	0.000321	20.853726
2452.653187	-2.985800	3.166100	-9.452600	27.066871	0.000321	20.873961
2453.650051	-3.020600	3.164900	-9.557600	27.045088	0.000321	20.872443
2454.655883	-3.014100	3.163200	-9.533400	27.005061	0.000320	20.862062
2455.653558	-2.998800	3.165300	-9.491400	26.999674	0.000321	20.845266
2456.649048	-3.016100	3.162000	-9.535700	26.968808	0.000322	20.864011
2457.657234	-2.984300	3.163200	-9.439400	26.930738	0.000322	20.846592
2458.657075	-2.989500	3.160900	-9.448500	26.908428	0.000321	20.858771
2459.648816	-2.971400	3.162900	-9.397700	26.889246	0.000319	20.871251
2460.657312	-2.998700	3.160800	-9.477700	26.885047	0.000320	20.850435
2461.656345	-2.992700	3.160200	-9.456200	26.875919	0.000320	20.835567
2462.649596	-3.012700	3.160000	-9.519300	26.819901	0.000316	20.834244
2463.651818	-2.982700	3.161200	-9.428000	26.764081	0.000317	20.854458
2464.652982	-2.978900	3.162200	-9.418800	26.782547	0.000317	20.860696
2465.648837	-3.007700	3.157100	-9.495100	26.765598	0.000316	20.834647
2466.652348	-3.004500	3.157200	-9.484900	26.818659	0.000316	20.849115
2467.656910	-2.993700	3.156400	-9.448800	26.843036	0.000316	20.852289
2468.650746	-3.001100	3.156100	-9.470900	26.850930	0.000316	20.858329
2469.659466	-2.975000	3.155500	-9.386400	26.835027	0.000314	20.830012
2470.657868	-3.015000	3.155100	-9.510400	26.815147	0.000315	20.854119
2471.655694	-3.015900	3.154200	-9.511400	26.852401	0.000313	20.848903
2472.662119	-3.002000	3.154700	-9.468200	26.892561	0.000314	20.825274
2473.661680	-3.016700	3.151700	-9.507000	26.927529	0.000313	20.837676
2474.658464	-3.014100	3.152000	-9.498500	26.952773	0.000313	20.853578
2475.663587	-3.042900	3.151400	-9.587600	26.961781	0.000313	20.839403
2476.663266	-3.010600	3.150600	-9.484400	26.986378	0.000313	20.836162
2477.658041	-3.018100	3.149200	-9.503000	27.076456	0.000310	20.844721
2478.665086	-3.021700	3.147800	-9.510100	27.107924	0.000312	20.842705
2479.663023	-2.996100	3.148500	-9.432100	27.110081	0.000311	20.827805
2480.659914	-3.017000	3.146700	-9.492400	27.130927	0.000310	20.826485
2481.658710	-2.966300	3.148800	-9.339400	27.138871	0.000310	20.836845
2482.663777	-3.007200	3.146200	-9.460200	27.172392	0.000308	20.843533
2483.661590	-2.999000	3.146500	-9.435200	27.191696	0.000311	20.823120
2484.666185	-3.010300	3.144300	-9.464300	27.197796	0.000310	20.845376
2485.664517	-2.995600	3.144100	-9.415700	27.163956	0.000310	20.817031
2486.663591	-3.009100	3.143400	-9.457900	27.178524	0.000309	20.824097
2487.664638	-3.018700	3.142500	-9.485600	27.157430	0.000310	20.833226
2488.662251	-3.006600	3.143300	-9.449700	27.171449	0.000309	20.837843
2489.657558	-2.998500	3.142000	-9.419400	27.214819	0.000307	20.836421
2490.664809	-2.980800	3.139800	-9.357400	27.236008	0.000309	20.842086
2491.660891	-3.003700	3.140900	-9.433400	27.253872	0.000309	20.823545
2492.661572	-2.992100	3.139100	-9.391800	27.261590	0.000309	20.824670
2493.667346	-3.004400	3.138200	-9.428000	27.309715	0.000308	20.834199
2494.661805	-2.995900	3.138200	-9.401000	27.353727	0.000309	20.832953
2495.663376	-2.998100	3.137100	-9.404600	27.339566	0.000308	20.840518
2496.667539	-3.000300	3.136400	-9.409500	27.309223	0.000308	20.818057
2497.660265	-2.993700	3.136100	-9.387500	27.285852	0.000307	20.823945
2498.664200	-3.026800	3.134600	-9.486300	27.216877	0.000307	20.829008
2499.667297	-3.000700	3.134800	-9.405500	27.163410	0.000306	20.834974
2500.668993	-2.988700	3.133300	-9.362300	27.116537	0.000308	20.841410
2501.665021	-2.985300	3.131800	-9.348200	27.137707	0.000306	20.820502
2502.671748	-2.986100	3.133300	-9.355300	27.152768	0.000306	20.818106
2503.665169	-2.993900	3.129600	-9.368200	27.148722	0.000306	20.807399
2504.664216	-2.985200	3.129800	-9.341800	27.159709	0.000305	20.808492
2505.665625	-3.000200	3.129700	-9.388800	27.180976	0.000307	20.809020
2506.663673	-2.988300	3.129400	-9.350100	27.153806	0.000305	20.806348
2507.667803	-2.995100	3.127500	-9.365500	27.129090	0.000305	20.819897
2508.670897	-3.012900	3.127100	-9.420400	27.095540	0.000306	20.821241
2509.672847	-2.993900	3.125400	-9.356900	27.078916	0.000305	20.830126
2510.667661	-3.011200	3.124200	-9.406100	27.076136	0.000306	20.826382
2511.675453	-2.980700	3.125800	-9.315700	27.108691	0.000305	20.808390
2512.668567	-3.007900	3.122200	-9.390100	27.153626	0.000305	20.809012
2513.668939	-3.003600	3.122800	-9.379300	27.185979	0.000305	20.810732
2514.676325	-2.999800	3.121900	-9.363900	27.223491	0.000303	20.796780
2515.674539	-3.003300	3.120500	-9.370400	27.265469	0.000302	20.822409
2516.670688	-3.013600	3.119200	-9.398800	27.279832	0.000305	20.820261
2517.668866	-3.016800	3.118500	-9.405800	27.322600	0.000305	20.812073
2518.677186	-3.005400	3.118200	-9.371400	27.315234	0.000304	20.826948
2519.668367	-3.019700	3.116800	-9.410800	27.315829	0.000304	20.801468
2520.677672	-2.950200	3.118400	-9.199000	27.288887	0.000302	20.824153
2521.670172	-2.982800	3.116600	-9.295200	27.288612	0.000301	20.808230
2522.673559	-2.973200	3.115300	-9.261500	27.287026	0.000303	20.789091
2523.672502	-3.026200	3.113200	-9.420100	27.309349	0.000302	20.822451
2524.670686	-2.983300	3.113000	-9.286600	27.307537	0.000301	20.795024
2525.671532	-2.995200	3.114500	-9.327300	27.329146	0.000303	20.801588
2526.673765	-2.966700	3.111700	-9.230100	27.335126	0.000301	20.810923
2527.674470	-2.995900	3.110900	-9.319100	27.362017	0.000301	20.819956
2528.679593	-2.996500	3.110200	-9.318500	27.365763	0.000302	20.820406
2529.675042	-2.997100	3.109500	-9.318400	27.327904	0.000301	20.797494
2530.674573	-2.984300	3.109800	-9.279600	27.313415	0.000301	20.792877
2531.674970	-2.990600	3.109100	-9.296400	27.242413	0.000301	20.805856
2532.678705	-3.001100	3.106800	-9.322800	27.200655	0.000299	20.804631
2533.680186	-2.989000	3.106900	-9.285400	27.227800	0.000300	20.809649
2534.677659	-2.991500	3.104200	-9.285800	27.243032	0.000301	20.788935
2535.676869	-3.007900	3.104900	-9.337900	27.291863	0.000298	20.815767
2536.678474	-2.996900	3.103000	-9.298700	27.298909	0.000300	20.802940
2537.675218	-3.002300	3.101900	-9.312100	27.299253	0.000300	20.777682
2538.682413	-2.986600	3.101600	-9.262100	27.284096	0.000300	20.805583
2539.682533	-3.012700	3.099500	-9.337100	27.295929	0.000297	20.798995
2540.678938	-2.998600	3.100300	-9.295200	27.316771	0.000298	20.795304
2541.682616	-3.031400	3.098300	-9.391400	27.360312	0.000299	20.793110
2542.684230	-2.995000	3.098200	-9.278600	27.388317	0.000298	20.801843
2543.680769	-2.998700	3.097200	-9.286700	27.445888	0.000296	20.798595
2544.684228	-2.996700	3.095400	-9.274500	27.433838	0.000297	20.807809
2545.684419	-2.967000	3.096200	-9.185500	27.455497	0.000295	20.817271
2546.682900	-2.979100	3.095500	-9.220400	27.442026	0.000297	20.817469
2547.685968	-3.008700	3.092700	-9.302900	27.446887	0.000295	20.810979
2548.683299	-3.010700	3.091400	-9.305900	27.483500	0.000296	20.807986
2549.690257	-2.997600	3.091200	-9.265400	27.502130	0.000298	20.794961
2550.687596	-3.004100	3.089800	-9.280700	27.485143	0.000297	20.774077
2551.687344	-3.014200	3.088100	-9.307500	27.533311	0.000294	20.772279
2552.689697	-2.999200	3.088600	-9.262100	27.510272	0.000295	20.801256
2553.681891	-3.009100	3.087800	-9.290300	27.477697	0.000295	20.786975
2554.687252	-2.997600	3.086800	-9.252400	27.459894	0.000296	20.802728
2555.681971	-3.018500	3.086900	-9.316600	27.449698	0.000296	20.778720
2556.687054	-3.008100	3.083300	-9.273900	27.454734	0.000295	20.826460
2557.687192	-3.012900	3.081800	-9.283500	27.469668	0.000293	20.780793
2558.685198	-3.011500	3.082400	-9.281400	27.467311	0.000294	20.786483
2559.685253	-3.032400	3.081300	-9.342900	27.449599	0.000293	20.778621
2560.688277	-3.014700	3.080200	-9.285000	27.446800	0.000294	20.792874
2561.685012	-3.007100	3.079000	-9.258000	27.444197	0.000292	20.786462
2562.687021	-3.001100	3.078100	-9.237000	27.453623	0.000294	20.780298
2563.688420	-2.994000	3.078100	-9.215200	27.456528	0.000294	20.781324
2564.683377	-3.003200	3.077600	-9.242100	27.488179	0.000293	20.808425
2565.688157	-2.990400	3.076000	-9.197800	27.517328	0.000293	20.784647
2566.689750	-2.983900	3.075700	-9.176500	27.546891	0.000295	20.785468
2567.684102	-3.022000	3.073600	-9.287800	27.564478	0.000293	20.797948
2568.684571	-2.995100	3.072500	-9.200800	27.545357	0.000293	20.783925
2569.687217	-3.012600	3.071900	-9.253500	27.502771	0.000291	20.774743
2570.686766	-2.997800	3.070500	-9.204200	27.460105	0.000293	20.781130
2571.689102	-2.978900	3.070000	-9.144200	27.427241	0.000291	20.756601
2572.685839	-3.016600	3.067600	-9.252300	27.392588	0.000293	20.764414
2573.692042	-3.001600	3.067100	-9.205300	27.448326	0.000295	20.766434
2574.690083	-3.020100	3.067100	-9.261900	27.468895	0.000292	20.795189
2575.684252	-2.974900	3.066800	-9.122100	27.483649	0.000296	20.796756
2576.690720	-3.001600	3.064600	-9.197600	27.487943	0.000291	20.784007
2577.686782	-2.990500	3.064700	-9.163400	27.509844	0.000291	20.787075
2578.690409	-3.011900	3.062400	-9.222500	27.527629	0.000290	20.777468
2579.688861	-2.987000	3.062200	-9.146100	27.549483	0.000294	20.775274
2580.689277	-3.010000	3.061200	-9.213100	27.575926	0.000294	20.768689
2581.690599	-3.047300	3.059700	-9.321900	27.566497	0.000294	20.774849
2582.687956	-3.015300	3.058000	-9.219200	27.539439	0.000293	20.781764
2583.690286	-3.005400	3.057800	-9.188900	27.484497	0.000294	20.796186
2584.687571	-3.025600	3.056600	-9.246800	27.491045	0.000291	20.766739
2585.683806	-3.038800	3.054300	-9.280100	27.547004	0.000293	20.776573
2586.687029	-2.998900	3.054500	-9.158500	27.543852	0.000291	20.794739
2587.689066	-3.004900	3.054000	-9.175900	27.579597	0.000289	20.776651
2588.686648	-2.990000	3.050900	-9.121100	27.596857	0.000291	20.780267
2589.691170	-3.013500	3.050700	-9.192500	27.632622	0.000291	20.770260
2590.694726	-2.987600	3.050000	-9.110900	27.670368	0.000292	20.770784
2591.687296	-3.034200	3.047800	-9.245600	27.698636	0.000290	20.761771
2592.693419	-3.008200	3.046900	-9.164200	27.722994	0.000292	20.765893
2593.686337	-2.994000	3.046800	-9.121900	27.752846	0.000292	20.754209
2594.691178	-3.011200	3.045900	-9.171300	27.726562	0.000292	20.756682
2595.688319	-2.993100	3.044100	-9.109000	27.697279	0.000291	20.765621
2596.689954	-3.023600	3.041600	-9.194100	27.614145	0.000293	20.763523
2597.694603	-3.026800	3.042800	-9.209400	27.520441	0.000291	20.769287
2598.695691	-3.010700	3.040200	-9.151700	27.463465	0.000290	20.756534
2599.690401	-3.011900	3.039800	-9.155000	27.424543	0.000291	20.783759
2600.694155	-3.018200	3.037500	-9.166400	27.419285	0.000292	20.756183
2601.695303	-3.000500	3.037400	-9.112900	27.497447	0.000290	20.776972
2602.694362	-2.999400	3.035200	-9.102700	27.529465	0.000290	20.773151
2603.694730	-2.983400	3.036300	-9.057600	27.519990	0.000291	20.769308
2604.687510	-3.004900	3.033000	-9.112300	27.543898	0.000293	20.747843
2605.693347	-3.021900	3.032300	-9.161700	27.551065	0.000291	20.775444
2606.687392	-3.006100	3.031000	-9.111200	27.545238	0.000292	20.766735
2607.690272	-2.997700	3.030800	-9.085000	27.575841	0.000290	20.762913
2608.691592	-3.008000	3.029500	-9.112200	27.574477	0.000292	20.770076
2609.691038	-2.970000	3.028900	-8.994300	27.624747	0.000290	20.768027
2610.690721	-2.993900	3.026800	-9.061400	27.647018	0.000290	20.750606
2611.695729	-3.013600	3.025700	-9.117200	27.682035	0.000291	20.774937
2612.695030	-2.996100	3.024700	-9.060500	27.635533	0.000290	20.748532
2613.690065	-2.986200	3.023000	-9.025200	27.601161	0.000291	20.743819
2614.695277	-2.986900	3.023200	-9.028600	27.580845	0.000292	20.772690
2615.691609	-3.019100	3.020300	-9.116400	27.510308	0.000290	20.759566
2616.692710	-3.015700	3.018200	-9.100700	27.500161	0.000290	20.748883
2617.697328	-3.017000	3.018200	-9.105300	27.509362	0.000292	20.747708
2618.698122	-3.006200	3.016100	-9.066300	27.535380	0.000292	20.762506
2619.696309	-2.999800	3.016500	-9.048400	27.549222	0.000291	20.751777
2620.694901	-2.981900	3.016100	-8.992900	27.583300	0.000292	20.760461
2621.701099	-2.992000	3.014500	-9.017700	27.615565	0.000289	20.758313
2622.699173	-2.995600	3.012500	-9.023800	27.640442	0.000291	20.761533
2623.701457	-3.012700	3.010700	-9.069500	27.651030	0.000289	20.754643
2624.697852	-2.995900	3.010700	-9.018500	27.688554	0.000289	20.759686
2625.695480	-3.015500	3.009300	-9.073900	27.661150	0.000289	20.740645
2626.699235	-3.004600	3.009600	-9.041500	27.619360	0.000289	20.742690
2627.701077	-3.019500	3.006800	-9.076900	27.587566	0.000288	20.757167
2628.695858	-3.017600	3.004800	-9.066100	27.577641	0.000289	20.734378
2629.701707	-3.010100	3.004500	-9.043300	27.573375	0.000289	20.737198
2630.706565	-2.994300	3.003400	-8.991900	27.576133	0.000290	20.742343
2631.701011	-2.999500	3.000700	-8.999500	27.593913	0.000287	20.752174
2632.707069	-2.998500	3.001300	-8.998200	27.624441	0.000288	20.753968
2633.708273	-2.980000	2.998600	-8.934200	27.681781	0.000288	20.749077
2634.702201	-2.982100	2.999400	-8.943600	27.628014	0.000289	20.757563
2635.702597	-2.973700	2.996900	-8.910700	27.629625	0.000289	20.747329
2636.704922	-3.013400	2.994600	-9.022700	27.627465	0.000288	20.743260
2637.700966	-3.025700	2.992900	-9.054800	27.634361	0.000288	20.743561
2638.701175	-2.995000	2.993100	-8.964000	27.643733	0.000290	20.743507
2639.704375	-2.993700	2.990500	-8.952300	27.665183	0.000289	20.730952
2640.701709	-3.000400	2.991100	-8.973700	27.630416	0.000290	20.742909
2641.702417	-2.994200	2.988800	-8.948100	27.599213	0.000288	20.740910
2642.701762	-3.002700	2.988200	-8.972000	27.550801	0.000288	20.724915
2643.702873	-3.003200	2.986200	-8.967100	27.498121	0.000289	20.731182
2644.706039	-3.017900	2.983100	-9.001600	27.521456	0.000288	20.745652
2645.701778	-3.015200	2.984800	-8.997600	27.517792	0.000286	20.733904
2646.703302	-3.035100	2.981100	-9.046900	27.524611	0.000288	20.730807
2647.703063	-3.012800	2.978500	-8.972000	27.551445	0.000288	20.732676
2648.704071	-2.978600	2.980300	-8.875500	27.559902	0.000290	20.741186
2649.705058	-2.995800	2.977800	-8.920100	27.607698	0.000288	20.722895
2650.704502	-2.995300	2.976500	-8.914500	27.573889	0.000288	20.735344
2651.704517	-3.021400	2.975100	-8.988200	27.547326	0.000288	20.755560
2652.707248	-2.979300	2.974800	-8.860700	27.500027	0.000287	20.738316
2653.706531	-3.011400	2.972000	-8.949300	27.433874	0.000288	20.736720
2654.707346	-3.014600	2.970900	-8.954800	27.449202	0.000288	20.737442
2655.708726	-2.974700	2.971100	-8.837400	27.510297	0.000289	20.740588
2656.708535	-3.000100	2.968800	-8.905100	27.542368	0.000289	20.753890
2657.706306	-2.983100	2.967900	-8.852400	27.588947	0.000289	20.724416
2658.708099	-2.970200	2.966800	-8.811100	27.594631	0.000289	20.742464
2659.708535	-3.023300	2.963400	-8.957900	27.610677	0.000288	20.726840
2660.708847	-2.984900	2.962100	-8.839400	27.632181	0.000287	20.738996
2661.706512	-2.987100	2.962100	-8.846900	27.641307	0.000289	20.735376
2662.711362	-3.010400	2.959600	-8.908400	27.601847	0.000288	20.741664
2663.705372	-3.000900	2.958000	-8.874400	27.582603	0.000289	20.726568
2664.707983	-3.002300	2.956200	-8.874500	27.622286	0.000287	20.718606
2665.709912	-3.016200	2.956000	-8.914600	27.635627	0.000288	20.728238
2666.711498	-2.991400	2.955000	-8.838900	27.653980	0.000288	20.743387
2667.708412	-3.037300	2.952100	-8.965300	27.672755	0.000287	20.714388
2668.706232	-3.005400	2.950800	-8.867400	27.700756	0.000285	20.737825
2669.709753	-3.005100	2.951300	-8.868400	27.714297	0.000285	20.708776
2670.709503	-3.012600	2.948500	-8.881500	27.723569	0.000286	20.740868
2671.712266	-3.018800	2.945100	-8.889200	27.750704	0.000285	20.745415
2672.708539	-3.001100	2.944300	-8.835000	27.732821	0.000286	20.715089
2673.710474	-3.007700	2.942600	-8.848500	27.688013	0.000286	20.716465
2674.707096	-2.980700	2.943800	-8.773600	27.669558	0.000287	20.743890
2675.707790	-3.017300	2.940600	-8.871700	27.642109	0.000286	20.739028
2676.709390	-3.011400	2.938900	-8.848900	27.625120	0.000286	20.728097
2677.708368	-3.006100	2.938100	-8.831400	27.654635	0.000287	20.724604
2678.708872	-3.005000	2.936100	-8.822300	27.680277	0.000288	20.737131
2679.708703	-3.008800	2.934200	-8.827800	27.731418	0.000287	20.712729
2680.708339	-3.025200	2.933400	-8.873400	27.767870	0.000286	20.732344
2681.709966	-3.001800	2.932000	-8.800400	27.812654	0.000284	20.743274
2682.707933	-3.044000	2.930000	-8.916800	27.806132	0.000286	20.729598
2683.712007	-3.012600	2.928600	-8.821600	27.794927	0.000284	20.735390
2684.709160	-2.977600	2.927400	-8.715000	27.772364	0.000287	20.740185
2685.709448	-3.014100	2.924900	-8.814100	27.786696	0.000284	20.728529
2686.716982	-2.983600	2.924500	-8.724900	27.800908	0.000285	20.732400
2687.713579	-2.999200	2.921900	-8.762300	27.777895	0.000284	20.721094
2688.713754	-2.995200	2.922500	-8.752100	27.784221	0.000284	20.729357
2689.713959	-2.987900	2.919300	-8.721800	27.826550	0.000284	20.752518
2690.716038	-2.995200	2.917000	-8.735200	27.842863	0.000286	20.732899
2691.717651	-2.991800	2.917100	-8.726200	27.834313	0.000287	20.729035
2692.717187	-2.988400	2.914300	-8.708300	27.815939	0.000284	20.744209
2693.716594	-2.985100	2.913100	-8.693300	27.839176	0.000285	20.739145
2694.716802	-3.003000	2.910500	-8.739200	27.860327	0.000284	20.742415
2695.717710	-3.031800	2.909400	-8.818500	27.910686	0.000288	20.719605
2696.717897	-3.005900	2.907700	-8.739000	27.849888	0.000285	20.745186
2697.717463	-2.981200	2.906800	-8.664200	27.808728	0.000286	20.744538
2698.719174	-2.984000	2.903800	-8.664200	27.836177	0.000287	20.754146
2699.717718	-2.967600	2.903600	-8.614800	27.851875	0.000285	20.725847
2700.718850	-3.004800	2.900500	-8.714600	27.885148	0.000285	20.736576
2701.719293	-3.002500	2.899800	-8.705600	27.951945	0.000288	20.737426
2702.720140	-3.008200	2.898100	-8.717000	27.958495	0.000287	20.738328
2703.720753	-2.984000	2.896300	-8.640800	27.969678	0.000287	20.743420
2704.722696	-2.988500	2.895200	-8.651200	27.991343	0.000285	20.756693
2705.723474	-2.999000	2.892700	-8.674300	27.959883	0.000288	20.747787
2706.722099	-3.009100	2.891000	-8.698500	27.936502	0.000286	20.748434
2707.719131	-3.020500	2.888200	-8.721700	27.924032	0.000288	20.731615
2708.723498	-2.996100	2.886400	-8.646300	27.909256	0.000286	20.749461
2709.722743	-3.000800	2.884900	-8.656300	27.904639	0.000286	20.746711
2710.722620	-2.972400	2.884000	-8.572100	27.883862	0.000287	20.736230
2711.720392	-3.020100	2.879400	-8.695100	27.884115	0.000286	20.722734
2712.723346	-2.993700	2.878400	-8.616200	27.902042	0.000288	20.744571
2713.727872	-2.999500	2.876100	-8.625900	27.923761	0.000286	20.727550
2714.723265	-2.984000	2.874800	-8.576500	27.970444	0.000287	20.758891
2715.721941	-2.999800	2.873100	-8.617000	27.938636	0.000287	20.748212
2716.721482	-3.001200	2.871200	-8.615700	27.921877	0.000286	20.754578
2717.721493	-3.030700	2.868900	-8.693500	27.922696	0.000288	20.750661
2718.725805	-2.982700	2.868300	-8.554800	27.924032	0.000286	20.737780
2719.721834	-2.982800	2.867800	-8.552600	27.912258	0.000287	20.743474
2720.724771	-2.999900	2.864300	-8.592200	27.937447	0.000287	20.747016
2721.722126	-2.979600	2.865500	-8.536800	27.947439	0.000286	20.734786
2722.722871	-3.010600	2.859900	-8.609000	27.953788	0.000285	20.750661
2723.727926	-2.999200	2.858400	-8.572200	28.009897	0.000285	20.748817
2724.724124	-3.044500	2.855000	-8.691000	28.045570	0.000285	20.743948
2725.726479	-3.016400	2.854500	-8.609400	28.095994	0.000286	20.767207
2726.724003	-3.005000	2.851500	-8.567900	28.119397	0.000287	20.751885
2727.726026	-3.007100	2.850400	-8.571100	28.143246	0.000285	20.765463
2728.727881	-2.956800	2.848600	-8.420700	28.138958	0.000287	20.757352
2729.727025	-2.999200	2.846100	-8.535400	28.135215	0.000285	20.759274
2730.727397	-2.981300	2.845500	-8.482000	28.094262	0.000284	20.767833
2731.727713	-2.997000	2.841600	-8.516400	28.089752	0.000285	20.760448
2732.726621	-3.000900	2.839000	-8.518900	28.083706	0.000286	20.746301
2733.728734	-2.990200	2.838500	-8.486700	28.103264	0.000287	20.753187
2734.730209	-3.056600	2.833800	-8.660900	28.119229	0.000286	20.778743
2735.726994	-2.996800	2.833500	-8.490200	28.113159	0.000284	20.767890
2736.729185	-2.995300	2.832200	-8.482700	28.098782	0.000286	20.758159
2737.728003	-2.976100	2.830600	-8.423000	28.127313	0.000285	20.770286
2738.727015	-2.981100	2.828000	-8.429800	28.146951	0.000287	20.749752
2739.732617	-3.002700	2.824900	-8.481900	28.148389	0.000285	20.744086
2740.730952	-3.007700	2.821800	-8.486000	28.139292	0.000284	20.733032
2741.731060	-3.011900	2.819200	-8.490400	28.091893	0.000286	20.765449
2742.730741	-2.965400	2.819000	-8.356700	28.117872	0.000287	20.766472
2743.729485	-3.007300	2.815200	-8.465200	28.123901	0.000285	20.777282
2744.731315	-2.975400	2.812500	-8.367300	28.143753	0.000285	20.780198
2745.736525	-2.974800	2.811500	-8.362900	28.112691	0.000286	20.757937
2746.731164	-2.995200	2.807900	-8.409100	28.037208	0.000284	20.776309
2747.734737	-3.027000	2.806000	-8.491200	28.006942	0.000283	20.779034
2748.732274	-2.999700	2.803700	-8.409100	27.950263	0.000287	20.767027
2749.733934	-2.990700	2.801400	-8.376900	27.889463	0.000285	20.766525
2750.736826	-2.995700	2.798000	-8.380100	27.858321	0.000285	20.795873
2751.733440	-3.016500	2.794700	-8.429200	27.916144	0.000284	20.783421
2752.734372	-3.004000	2.794000	-8.391400	27.955743	0.000284	20.776812
2753.735733	-3.006300	2.791100	-8.390600	28.003370	0.000284	20.784922
2754.733965	-3.049500	2.785200	-8.492300	28.070459	0.000286	20.769002
2755.736344	-3.015900	2.783700	-8.394200	28.067436	0.000285	20.769278
2756.734715	-2.985100	2.782700	-8.304100	28.060616	0.000284	20.761939
2757.734311	-3.022900	2.780400	-8.403500	28.072248	0.000283	20.758001
2758.738079	-2.984000	2.777700	-8.286900	28.038358	0.000283	20.781734
2759.737682	-2.978200	2.774700	-8.262300	28.000597	0.000284	20.782604
2760.737283	-2.998900	2.772400	-8.312700	28.000703	0.000283	20.777021
2761.739054	-3.011600	2.770000	-8.341500	28.071236	0.000284	20.775475
2762.736819	-2.973700	2.767700	-8.230000	28.125251	0.000284	20.771055
2763.740461	-2.993100	2.763200	-8.268500	28.136633	0.000285	20.772555
2764.737181	-2.997000	2.760500	-8.272300	28.151188	0.000282	20.771087
2765.740611	-3.014600	2.756800	-8.308600	28.186188	0.000284	20.773132
2766.740889	-3.000100	2.754000	-8.260900	28.190951	0.000285	20.781246
2767.736757	-2.994600	2.752400	-8.241700	28.142587	0.000285	20.781869
2768.739389	-3.009900	2.747500	-8.269000	28.123354	0.000284	20.766300
2769.737629	-2.987400	2.744800	-8.198200	28.127298	0.000283	20.788288
2770.741023	-3.001000	2.740900	-8.224200	28.119663	0.000286	20.774913
2771.738008	-3.001000	2.737700	-8.214900	28.172885	0.000284	20.785818
2772.742808	-3.007400	2.734800	-8.224200	28.203077	0.000284	20.791084
2773.741186	-2.978700	2.732600	-8.137600	28.267749	0.000284	20.753303
2774.743865	-3.018000	2.727900	-8.232200	28.284330	0.000286	20.786119
2775.743546	-3.027400	2.723900	-8.245300	28.337122	0.000285	20.771944
2776.741271	-2.996900	2.721400	-8.154600	28.385723	0.000288	20.782000
2777.746474	-3.015700	2.718200	-8.195800	28.382230	0.000285	20.789863
2778.741904	-3.003400	2.713600	-8.148300	28.441985	0.000286	20.794559
2779.743231	-2.983800	2.711800	-8.090400	28.467854	0.000284	20.786944
2780.743853	-2.989300	2.708300	-8.095100	28.474470	0.000285	20.778908
2781.743389	-3.021900	2.702600	-8.165500	28.521406	0.000286	20.782553
2782.745177	-3.009400	2.700500	-8.124700	28.497197	0.000285	20.766707
2783.743712	-2.986800	2.698700	-8.059200	28.417570	0.000285	20.766654
2784.744907	-3.006400	2.693300	-8.096500	28.354398	0.000287	20.792184
2785.745166	-3.010800	2.689300	-8.096200	28.312237	0.000286	20.785295
2786.744753	-2.996800	2.686100	-8.047300	28.272458	0.000285	20.779856
2787.745142	-3.006400	2.680700	-8.058500	28.200898	0.000285	20.768027
2788.746065	-3.027300	2.677100	-8.102300	28.202532	0.000287	20.789587
2789.745860	-3.008100	2.673800	-8.042300	28.237731	0.000285	20.782825
2790.748926	-2.991600	2.670900	-7.988600	28.282692	0.000285	20.798695
2791.747674	-3.031200	2.665200	-8.077500	28.318138	0.000287	20.786969
2792.745954	-2.928800	2.664800	-7.803400	28.337442	0.000286	20.801664
2793.751872	-3.003700	2.657600	-7.981800	28.372116	0.000286	20.792956
2794.750584	-2.994700	2.653900	-7.946700	28.419004	0.000287	20.799392
2795.753273	-3.030700	2.648000	-8.024300	28.453651	0.000285	20.793504
2796.750301	-3.026100	2.644500	-8.001600	28.435337	0.000287	20.808252
2797.750431	-3.006700	2.639700	-7.935200	28.469185	0.000286	20.796819
2798.748650	-2.990200	2.636900	-7.883800	28.499172	0.000287	20.789084
2799.756000	-2.973300	2.632300	-7.825100	28.504748	0.000286	20.804183
2800.751348	-2.980100	2.627900	-7.830000	28.525935	0.000286	20.798493
2801.751203	-2.977100	2.621800	-7.803800	28.566896	0.000286	20.798967
2802.749137	-3.035500	2.617800	-7.945000	28.583472	0.000286	20.787212
2803.752030	-2.999400	2.611800	-7.832900	28.571105	0.000284	20.804628
2804.754352	-3.001700	2.607500	-7.826500	28.543201	0.000285	20.813984
2805.752018	-2.987000	2.601900	-7.771400	28.563150	0.000287	20.792824
2806.754737	-3.000800	2.597500	-7.793600	28.526030	0.000286	20.821822
2807.748364	-2.998800	2.592800	-7.773500	28.467790	0.000286	20.799681
2808.752505	-3.002700	2.587500	-7.768500	28.409579	0.000286	20.807919
2809.750872	-2.998800	2.580700	-7.738100	28.389503	0.000287	20.804773
2810.750577	-3.001800	2.577300	-7.735800	28.364149	0.000287	20.810063
2811.754432	-3.013300	2.569700	-7.742100	28.394061	0.000288	20.819320
2812.751678	-2.989500	2.566400	-7.671400	28.401742	0.000287	20.818046
2813.754352	-3.012200	2.560100	-7.710600	28.434802	0.000286	20.811507
2814.754751	-3.008800	2.554200	-7.684700	28.447097	0.000285	20.803499
2815.753750	-3.015200	2.547900	-7.680000	28.469620	0.000287	20.821439
2816.750471	-3.020500	2.541700	-7.675800	28.445955	0.000288	20.801401
2817.752583	-2.974100	2.538400	-7.548100	28.473482	0.000286	20.810629
2818.753984	-3.018900	2.531000	-7.640100	28.516975	0.000288	20.811754
2819.749905	-3.002000	2.526200	-7.582400	28.533278	0.000286	20.829595
2820.754993	-2.966900	2.520800	-7.476800	28.503861	0.000288	20.826049
2821.754509	-3.002500	2.513800	-7.546600	28.479624	0.000286	20.828193
2822.751492	-3.009400	2.505500	-7.539700	28.474047	0.000286	20.798870
2823.751811	-3.035300	2.500200	-7.587300	28.446812	0.000286	20.831187
2824.754703	-2.998400	2.493600	-7.475900	28.455881	0.000288	20.831785
