LabVIEW Measurement	
Writer_Version	2
Reader_Version	2
Separator	Tab
Decimal_Separator	.
Multi_Headings	No
X_Columns	One
Time_Pref	Absolute
Operator	admin
Description	Clolumns are: time, Current, Voltage, Power, Battery Temp, and Chamber Temp
Date	2024/08/16
Time	13:06:06.104549407958984375
***End_of_Header***	
	
Channels	6						
Samples	1	1	1	1	1	1	
Date	2024/08/30	2024/08/30	2024/08/30	2024/08/30	2024/08/30	2024/08/30	
Time	01:45:31.2323431968688964844	01:45:31.2379536628723144531	01:45:31.2439646720886230469	01:45:31.1880750656127929687	01:45:31.1880750656127929687	01:45:31.1880750656127929687	
X_Dimension	Time	Time	Time	Time	Time	Time	
X0	0.0000000000000000E+0	0.0000000000000000E+0	0.0000000000000000E+0	0.0000000000000000E+0	0.0000000000000000E+0	0.0000000000000000E+0	
Delta_X	1.000000	1.000000	1.000000	1.000000	1.000000	1.000000	
***End_of_Header***							
X_Value	Untitled	Untitled 1	Untitled 2	Untitled 3	Untitled 4	Untitled 5	Comment
0.000000	0.015075	4.102300	0.061774	21.138409	0.000962	20.926505
0.973031	-2.994300	3.940900	-11.798000	21.127429	0.000965	20.924057
1.974112	-2.988800	3.934100	-11.757000	21.154999	0.000962	20.924609
2.973343	-2.998300	3.927700	-11.775000	21.146174	0.000961	20.934272
4.008804	-3.005100	3.923700	-11.790000	21.151715	0.000960	20.921324
5.000756	-2.981900	3.919200	-11.685000	21.134176	0.000960	20.939339
5.997314	-3.004000	3.917300	-11.766000	21.147526	0.000958	20.937047
7.012457	-2.989200	3.914500	-11.700000	21.151077	0.000958	20.934909
8.001095	-2.997600	3.913000	-11.729000	21.160791	0.000957	20.950313
9.001056	-2.982900	3.911000	-11.665000	21.153051	0.000957	20.938780
9.996403	-2.981000	3.909900	-11.655000	21.165109	0.000954	20.953684
10.994625	-2.993900	3.908700	-11.701000	21.161902	0.000955	20.949054
12.001453	-2.986000	3.906300	-11.664000	21.164342	0.000953	20.959554
12.996506	-3.017100	3.904800	-11.781000	21.164583	0.000954	20.953158
13.977523	-2.993300	3.903700	-11.684000	21.171115	0.000952	20.961588
14.979659	-2.989100	3.902300	-11.663000	21.175166	0.000952	20.950943
15.980749	-3.005500	3.901100	-11.724000	21.176666	0.000952	20.962873
17.000872	-2.999200	3.899700	-11.694000	21.217566	0.000951	20.950210
17.996544	-3.008000	3.897300	-11.722000	21.207294	0.000951	20.957477
19.007862	-2.989900	3.897600	-11.652000	21.217188	0.000949	20.923756
19.980025	-2.963700	3.897700	-11.551000	21.210734	0.000950	20.964710
20.981188	-3.004300	3.894500	-11.699000	21.219092	0.000948	20.965484
21.980192	-2.991200	3.895900	-11.652000	21.207967	0.000950	20.950565
22.983366	-2.992800	3.894300	-11.654000	21.208157	0.000948	20.954072
23.979606	-2.980200	3.893800	-11.604000	21.219377	0.000945	20.949176
24.984515	-2.996400	3.892700	-11.663000	21.223694	0.000948	20.944487
25.981254	-2.993900	3.891300	-11.650000	21.239380	0.000948	20.963020
26.982122	-3.015200	3.889100	-11.725000	21.233751	0.000946	20.945065
27.987161	-3.007200	3.889800	-11.697000	21.241972	0.000947	20.962769
28.987989	-3.003800	3.890000	-11.683000	21.261234	0.000944	20.976821
29.984718	-2.979700	3.889000	-11.587000	21.263500	0.000944	20.966287
30.984416	-2.979300	3.888600	-11.584000	21.266448	0.000943	20.964495
31.985426	-3.016100	3.886400	-11.720000	21.260208	0.000944	20.956831
32.983374	-2.979600	3.886800	-11.580000	21.273101	0.000943	20.962616
34.011197	-2.986700	3.888000	-11.611000	21.276945	0.000942	20.965987
34.987175	-2.994400	3.886500	-11.636000	21.294833	0.000943	20.954487
35.987426	-3.004600	3.884200	-11.669000	21.299194	0.000941	20.957427
36.986751	-2.997500	3.885700	-11.646000	21.320263	0.000941	20.978028
37.992168	-3.032400	3.884700	-11.778000	21.316834	0.000942	20.968435
38.987302	-2.994600	3.885200	-11.633000	21.316723	0.000941	20.988709
39.989552	-3.012800	3.884600	-11.702000	21.326124	0.000942	20.973935
40.986172	-3.020600	3.882200	-11.725000	21.327175	0.000942	20.970720
41.986408	-3.015500	3.882400	-11.706000	21.342970	0.000942	20.975616
42.990378	-2.982600	3.884300	-11.584000	21.353897	0.000940	20.990338
43.988838	-2.997000	3.882500	-11.635000	21.347443	0.000938	20.977720
44.989190	-2.974200	3.883100	-11.548000	21.359661	0.000940	20.999898
46.006050	-3.003400	3.880900	-11.655000	21.359395	0.000938	20.987779
47.023124	-3.006800	3.879700	-11.664000	21.370209	0.000937	20.972523
48.012633	-3.002400	3.878400	-11.643000	21.371743	0.000937	20.986857
48.991807	-3.001300	3.879400	-11.642000	21.375697	0.000938	20.986072
49.991045	-3.000400	3.879500	-11.638000	21.383298	0.000936	21.007897
51.007745	-3.037100	3.878000	-11.777000	21.398696	0.000940	21.009078
51.990733	-2.994100	3.879800	-11.615000	21.395275	0.000935	20.990012
52.990953	-2.999700	3.877800	-11.631000	21.376215	0.000938	20.985642
53.996089	-3.014200	3.877500	-11.686000	21.395741	0.000936	21.000908
55.008158	-3.001000	3.877400	-11.634000	21.394612	0.000936	20.988401
56.014750	-2.996500	3.877300	-11.617000	21.437996	0.000936	21.001934
57.020855	-3.012200	3.877100	-11.676000	21.425545	0.000935	20.983315
58.018402	-2.973600	3.876900	-11.526000	21.425390	0.000937	21.000227
59.009986	-2.990900	3.876800	-11.595000	21.432843	0.000936	20.991564
59.997054	-3.003100	3.874400	-11.633000	21.454186	0.000937	20.992530
60.994235	-2.998500	3.875000	-11.618000	21.458855	0.000934	21.001942
62.012946	-3.003600	3.875800	-11.640000	21.434257	0.000936	20.994875
62.994737	-2.998300	3.875200	-11.618000	21.468687	0.000936	21.007985
63.993869	-2.993900	3.875000	-11.600000	21.488857	0.000935	21.014415
64.996310	-3.018000	3.873800	-11.690000	21.474356	0.000934	21.007967
65.993981	-3.001600	3.874100	-11.628000	21.473504	0.000935	21.010907
66.994898	-3.008000	3.873600	-11.649000	21.488020	0.000935	20.988927
68.026253	-2.998900	3.873000	-11.614000	21.504461	0.000934	21.011063
69.025667	-2.997000	3.873900	-11.609000	21.506141	0.000933	21.003263
70.018883	-2.990100	3.873600	-11.581000	21.537027	0.000934	21.009985
70.995578	-3.018800	3.870600	-11.683000	21.525758	0.000934	21.010563
72.016586	-3.000300	3.871600	-11.615000	21.552542	0.000936	21.015078
73.016494	-2.997600	3.871300	-11.603000	21.540163	0.000934	21.014070
74.016251	-2.995400	3.871700	-11.595000	21.538949	0.000934	21.027077
75.019556	-2.984400	3.872500	-11.556000	21.572806	0.000933	21.004537
76.016522	-2.984300	3.873200	-11.558000	21.564347	0.000934	21.018829
77.016225	-3.007300	3.870000	-11.637000	21.571851	0.000933	21.028233
78.026478	-3.004400	3.870300	-11.626000	21.589538	0.000933	21.030284
79.011863	-2.994400	3.869300	-11.584000	21.605811	0.000935	21.028551
80.028180	-2.989000	3.871500	-11.571000	21.612489	0.000933	21.016270
81.025445	-3.010400	3.870000	-11.648000	21.603856	0.000932	21.025173
82.013212	-3.009000	3.870000	-11.644000	21.594587	0.000934	21.021588
83.018869	-2.996700	3.870500	-11.598000	21.620044	0.000934	21.022881
84.020597	-3.024500	3.868100	-11.698000	21.625567	0.000933	21.006599
84.997622	-2.993100	3.870600	-11.582000	21.619744	0.000933	21.024477
86.014113	-3.012400	3.869200	-11.654000	21.628091	0.000935	21.028562
87.019514	-3.020800	3.869100	-11.685000	21.630649	0.000933	21.030173
88.017305	-3.005400	3.868200	-11.624000	21.637308	0.000933	21.012185
89.001204	-3.002100	3.868700	-11.613000	21.651178	0.000933	21.030803
90.000350	-3.009800	3.867700	-11.640000	21.658940	0.000934	21.021977
90.997233	-2.959700	3.867100	-11.445000	21.662231	0.000933	21.027166
92.019350	-3.012600	3.865500	-11.644000	21.676652	0.000933	21.021684
92.998110	-2.995500	3.868700	-11.588000	21.688996	0.000937	20.992792
93.997886	-2.981100	3.867300	-11.527000	21.679495	0.000933	21.007936
95.000886	-3.001800	3.865400	-11.602000	21.683026	0.000934	21.001514
95.997169	-3.003100	3.866000	-11.609000	21.691658	0.000932	21.002566
96.997747	-2.995500	3.867100	-11.581000	21.699109	0.000933	20.989162
98.000032	-2.996100	3.864800	-11.579000	21.695363	0.000935	21.003429
98.999566	-2.992300	3.866700	-11.568000	21.676359	0.000932	20.998636
100.005311	-2.991000	3.865500	-11.560000	21.693364	0.000934	20.992895
101.001917	-3.001300	3.866400	-11.603000	21.698739	0.000934	20.990688
102.034223	-3.011300	3.864100	-11.635000	21.696473	0.000934	20.999325
103.025582	-3.008200	3.863600	-11.621000	21.708370	0.000934	20.977570
104.022688	-2.983900	3.865100	-11.532000	21.717131	0.000933	20.974958
105.024192	-3.009900	3.863400	-11.627000	21.718112	0.000934	21.000118
106.002917	-3.001800	3.864200	-11.598000	21.718715	0.000934	21.006410
107.017661	-3.019700	3.862000	-11.661000	21.729319	0.000935	20.977199
108.004719	-2.985700	3.864300	-11.536000	21.724400	0.000933	20.992662
109.022675	-2.982200	3.863700	-11.521000	21.733368	0.000932	20.976510
110.024934	-2.997100	3.862300	-11.574000	21.771140	0.000936	20.973062
111.021428	-3.002400	3.863500	-11.599000	21.775533	0.000935	20.977458
112.021304	-3.003200	3.863900	-11.601000	21.774637	0.000936	20.979406
113.009356	-3.005700	3.862200	-11.607000	21.782958	0.000935	20.978251
114.031209	-2.999600	3.862800	-11.585000	21.794372	0.000932	20.970236
115.009583	-3.011800	3.860500	-11.626000	21.781640	0.000935	20.983569
116.010952	-2.986200	3.863100	-11.534000	21.813795	0.000934	20.996310
117.008297	-2.986800	3.862700	-11.536000	21.801185	0.000935	20.982269
118.010054	-2.984200	3.861000	-11.520000	21.795871	0.000935	20.966047
119.028536	-2.992700	3.862600	-11.559000	21.800779	0.000936	20.980914
120.009148	-2.994400	3.862300	-11.563000	21.816586	0.000934	20.974451
121.011834	-2.993300	3.862200	-11.559000	21.797929	0.000937	20.970951
122.009573	-2.996800	3.860300	-11.568000	21.814639	0.000935	20.974399
123.008931	-2.981700	3.862100	-11.514000	21.797610	0.000937	20.988173
124.033797	-2.995900	3.861800	-11.569000	21.831667	0.000937	20.973425
125.040043	-3.013600	3.858200	-11.625000	21.839402	0.000937	20.975950
126.029602	-2.993200	3.859300	-11.551000	21.831453	0.000934	20.970365
127.035182	-2.988800	3.859500	-11.534000	21.860031	0.000937	20.960565
128.039262	-3.014400	3.859500	-11.634000	21.851031	0.000937	20.963883
129.032686	-3.007600	3.859500	-11.607000	21.861711	0.000937	20.958928
130.013653	-3.030100	3.858600	-11.690000	21.864931	0.000939	20.953617
131.016029	-2.968100	3.858800	-11.453000	21.879764	0.000938	20.976995
132.014014	-3.023600	3.856600	-11.660000	21.899323	0.000937	20.973813
133.015124	-2.988400	3.860400	-11.534000	21.871245	0.000938	20.966098
134.030540	-2.977300	3.859600	-11.490000	21.900271	0.000938	20.959117
135.037285	-3.013400	3.856300	-11.620000	21.907935	0.000939	20.966787
136.019099	-3.001300	3.858200	-11.579000	21.907161	0.000938	20.946575
137.017982	-2.977100	3.857700	-11.484000	21.903372	0.000938	20.987347
138.016385	-3.017800	3.857200	-11.639000	21.892847	0.000938	20.964487
139.015326	-3.002600	3.857800	-11.583000	21.889272	0.000939	20.948583
140.016078	-2.995900	3.858300	-11.558000	21.903879	0.000938	20.944713
141.015923	-2.989500	3.857200	-11.530000	21.931723	0.000939	20.958832
142.018058	-3.006800	3.856500	-11.595000	21.913938	0.000939	20.967580
143.033317	-3.013900	3.855900	-11.620000	21.929388	0.000939	20.958391
144.041429	-3.020500	3.854700	-11.641000	21.949834	0.000940	20.953254
145.036605	-2.987500	3.855800	-11.518000	21.947096	0.000939	20.956676
146.038090	-3.013100	3.855800	-11.617000	21.923575	0.000938	20.968217
147.035960	-2.998800	3.855900	-11.562000	21.939284	0.000941	20.951702
148.017191	-2.996600	3.854700	-11.551000	21.945734	0.000940	20.953417
149.037826	-2.994000	3.855300	-11.542000	21.960263	0.000941	20.954684
150.017449	-2.975600	3.856300	-11.474000	21.966731	0.000940	20.964003
151.020950	-2.996000	3.853700	-11.544000	21.982104	0.000941	20.943832
152.046758	-2.990700	3.855100	-11.529000	21.999551	0.000941	20.957977
153.042008	-2.973300	3.854700	-11.460000	22.024681	0.000941	20.958003
154.038270	-3.005800	3.853000	-11.581000	22.007741	0.000942	20.942943
155.047980	-3.007300	3.852700	-11.586000	22.004529	0.000940	20.939254
156.052546	-2.992800	3.852200	-11.528000	22.009472	0.000946	20.982129
157.040307	-3.005900	3.852800	-11.579000	22.010720	0.000943	20.946873
158.041438	-3.007300	3.853000	-11.586000	21.999163	0.000943	20.946210
159.041239	-2.999900	3.852800	-11.556000	22.031372	0.000944	20.966596
160.046813	-2.985000	3.854100	-11.502000	22.044452	0.000945	20.960725
161.023388	-3.001500	3.852300	-11.561000	22.071734	0.000944	20.949158
162.026270	-3.016400	3.851900	-11.618000	22.040456	0.000943	20.938710
163.048427	-2.994800	3.852700	-11.537000	22.057637	0.000944	20.945477
164.053712	-2.963600	3.851400	-11.412000	22.042384	0.000944	20.952018
165.022673	-3.005100	3.851700	-11.572000	22.046976	0.000943	20.938598
166.024865	-3.009900	3.851200	-11.591000	22.050351	0.000945	20.941503
167.041974	-2.981100	3.852500	-11.484000	22.061244	0.000947	20.950036
168.044331	-3.019800	3.849700	-11.624000	22.067479	0.000946	20.943003
169.057105	-3.026600	3.849800	-11.650000	22.095664	0.000946	20.942769
170.040911	-2.982500	3.851600	-11.486000	22.097688	0.000948	20.934839
171.030291	-3.013300	3.849600	-11.598000	22.095664	0.000946	20.935184
172.044525	-3.002000	3.851100	-11.560000	22.078536	0.000947	20.956440
173.047036	-2.994900	3.850100	-11.530000	22.091083	0.000950	20.948614
174.048945	-2.982500	3.850900	-11.484000	22.107797	0.000948	20.942114
175.049478	-2.995100	3.849900	-11.530000	22.099194	0.000948	20.926391
176.027045	-2.996100	3.850500	-11.536000	22.116847	0.000950	20.935054
177.026246	-3.017900	3.848900	-11.613000	22.116348	0.000949	20.921280
178.047585	-2.993000	3.850900	-11.525000	22.121772	0.000949	20.948992
179.049705	-2.997800	3.849200	-11.538000	22.144479	0.000950	20.935218
180.045858	-3.012200	3.849000	-11.593000	22.160659	0.000950	20.938614
181.029206	-2.997200	3.848100	-11.533000	22.171474	0.000950	20.934269
182.028692	-3.013800	3.847500	-11.594000	22.167952	0.000950	20.945440
183.028510	-3.036500	3.847600	-11.681000	22.192130	0.000954	20.939303
184.028788	-3.013400	3.847600	-11.593000	22.192767	0.000950	20.941837
185.030257	-3.003300	3.848000	-11.556000	22.192578	0.000953	20.926002
186.028502	-3.006200	3.848700	-11.569000	22.183683	0.000952	20.947440
187.047502	-2.987800	3.847400	-11.493000	22.205054	0.000953	20.933277
188.047543	-2.989500	3.846700	-11.499000	22.203470	0.000953	20.932640
189.052903	-3.005900	3.846700	-11.561000	22.231351	0.000953	20.942062
190.029428	-2.987500	3.847400	-11.493000	22.215206	0.000954	20.943440
191.031668	-3.024400	3.846400	-11.632000	22.241570	0.000956	20.939018
192.029097	-3.014000	3.846600	-11.593000	22.213045	0.000954	20.945544
193.047655	-3.004100	3.846800	-11.554000	22.209238	0.000954	20.927984
194.046634	-3.005500	3.845800	-11.558000	22.217444	0.000956	20.938570
195.056530	-3.001000	3.844700	-11.537000	22.219838	0.000957	20.920106
196.061446	-3.007500	3.846000	-11.566000	22.218495	0.000957	20.948629
197.043095	-3.000200	3.844800	-11.534000	22.245806	0.000957	20.927614
198.057065	-3.012700	3.844200	-11.580000	22.246417	0.000957	20.933914
199.052794	-3.006000	3.844700	-11.556000	22.265248	0.000958	20.922899
200.053912	-3.028400	3.842900	-11.637000	22.281874	0.000956	20.947129
201.050864	-3.020800	3.843600	-11.610000	22.283949	0.000958	20.916494
202.049397	-3.033000	3.842200	-11.653000	22.295366	0.000958	20.915124
203.058146	-3.004500	3.844800	-11.550000	22.299136	0.000959	20.957300
204.048549	-2.996500	3.843300	-11.515000	22.306627	0.000959	20.951052
205.031748	-3.008600	3.843600	-11.563000	22.313230	0.000958	20.941544
206.032453	-3.010300	3.842300	-11.566000	22.311266	0.000959	20.927725
207.065495	-2.995000	3.843700	-11.511000	22.327514	0.000960	20.929769
208.049312	-2.989200	3.842200	-11.484000	22.343802	0.000962	20.930432
209.050011	-2.998200	3.842900	-11.520000	22.332412	0.000962	20.945578
210.048726	-3.001800	3.842800	-11.533000	22.311473	0.000964	20.936466
211.049553	-3.011100	3.840400	-11.563000	22.329830	0.000964	20.925451
212.054305	-2.984200	3.843400	-11.468000	22.334203	0.000963	20.908494
213.049355	-2.991000	3.842500	-11.492000	22.343432	0.000962	20.933855
214.054626	-3.007000	3.842100	-11.551000	22.343518	0.000965	20.906442
215.048639	-2.993900	3.841100	-11.499000	22.378816	0.000964	20.938940
216.034170	-2.990100	3.841300	-11.484000	22.387546	0.000964	20.923502
217.036633	-2.973000	3.842800	-11.424000	22.378583	0.000966	20.929225
218.035965	-3.010100	3.842000	-11.563000	22.381054	0.000965	20.936914
219.034380	-3.013400	3.841100	-11.574000	22.379659	0.000968	20.932199
220.036499	-3.011900	3.841000	-11.568000	22.418985	0.000967	20.928907
221.065888	-3.015900	3.840200	-11.579000	22.432224	0.000965	20.932207
222.036768	-3.003600	3.840600	-11.535000	22.394578	0.000967	20.940974
223.038261	-2.996800	3.840200	-11.508000	22.400183	0.000967	20.926673
224.037264	-3.007600	3.839100	-11.545000	22.411039	0.000969	20.939440
225.043134	-2.997700	3.840600	-11.512000	22.412253	0.000968	20.922166
226.057167	-2.997900	3.839500	-11.509000	22.430253	0.000967	20.953464
227.040041	-3.013400	3.838200	-11.565000	22.442762	0.000970	20.902934
228.056724	-2.998200	3.838200	-11.507000	22.444768	0.000969	20.933388
229.057943	-3.004700	3.838800	-11.534000	22.452550	0.000970	20.909891
230.062467	-2.998600	3.839100	-11.511000	22.452291	0.000970	20.921484
231.065306	-3.000800	3.839700	-11.521000	22.459360	0.000969	20.924295
232.061798	-2.968700	3.839700	-11.398000	22.457588	0.000971	20.931528
233.068058	-2.995600	3.838800	-11.499000	22.470930	0.000971	20.916443
234.071106	-2.995700	3.838700	-11.499000	22.471566	0.000974	20.898116
235.061460	-3.012300	3.836600	-11.555000	22.486735	0.000974	20.923736
236.042614	-2.994200	3.837600	-11.490000	22.477869	0.000972	20.891152
237.074166	-2.985500	3.837300	-11.455000	22.481243	0.000974	20.918709
238.041764	-3.006700	3.837100	-11.536000	22.454325	0.000975	20.930632
239.059713	-3.015400	3.837100	-11.569000	22.441774	0.000975	20.921857
240.059224	-2.986400	3.836800	-11.457000	22.457295	0.000976	20.932658
241.065568	-3.007200	3.836100	-11.534000	22.457029	0.000975	20.916746
242.042327	-3.011600	3.836600	-11.553000	22.471155	0.000977	20.916668
243.047032	-2.989500	3.835800	-11.466000	22.485969	0.000976	20.921546
244.043882	-2.988200	3.836400	-11.463000	22.498590	0.000976	20.919013
245.042708	-2.985600	3.835000	-11.447000	22.524810	0.000975	20.915875
246.041564	-3.022200	3.833300	-11.584000	22.503324	0.000979	20.913323
247.043546	-2.996800	3.834500	-11.491000	22.521074	0.000979	20.904074
248.046533	-3.012500	3.832800	-11.545000	22.538747	0.000978	20.918453
249.044974	-3.010200	3.832800	-11.536000	22.555420	0.000979	20.916660
250.046317	-3.008200	3.834200	-11.533000	22.572094	0.000979	20.908230
251.067668	-2.979000	3.835300	-11.424000	22.576672	0.000980	20.922298
252.049003	-3.007200	3.834700	-11.531000	22.561464	0.000981	20.913230
253.064033	-3.001000	3.834600	-11.506000	22.577930	0.000980	20.895584
254.066252	-2.983700	3.834700	-11.439000	22.572422	0.000981	20.927049
255.047878	-3.021600	3.833400	-11.582000	22.584790	0.000983	20.919049
256.065800	-2.999600	3.834000	-11.500000	22.586736	0.000982	20.905826
257.051835	-2.982200	3.833500	-11.431000	22.590678	0.000981	20.901240
258.048285	-2.995100	3.832300	-11.476000	22.570055	0.000985	20.889595
259.067353	-2.983200	3.833500	-11.435000	22.588122	0.000983	20.923334
260.075253	-3.000600	3.832300	-11.498000	22.600320	0.000984	20.914215
261.048429	-3.014500	3.831400	-11.550000	22.593855	0.000983	20.939031
262.049010	-3.008700	3.831800	-11.528000	22.609289	0.000987	20.911818
263.048977	-3.000700	3.832300	-11.499000	22.622363	0.000985	20.919697
264.049370	-3.001400	3.831600	-11.499000	22.621830	0.000986	20.907785
265.051018	-2.991700	3.831700	-11.462000	22.593537	0.000985	20.905525
266.054919	-3.000400	3.832300	-11.498000	22.596584	0.000986	20.915689
267.051215	-3.007900	3.831000	-11.522000	22.606052	0.000988	20.892457
268.051427	-3.034300	3.829000	-11.617000	22.606441	0.000986	20.919870
269.053766	-3.011800	3.831000	-11.536000	22.604022	0.000988	20.901328
270.055105	-2.979500	3.831800	-11.416000	22.605908	0.000987	20.897054
271.076840	-3.008600	3.830400	-11.523000	22.642256	0.000989	20.901691
272.070100	-2.994800	3.831100	-11.472000	22.617458	0.000991	20.902932
273.074433	-2.984300	3.830400	-11.430000	22.645569	0.000990	20.884623
274.055000	-2.978800	3.830500	-11.410000	22.682889	0.000991	20.901139
275.088953	-3.013600	3.828000	-11.535000	22.674024	0.000993	20.899372
276.080093	-2.973700	3.829400	-11.386000	22.681254	0.000993	20.902347
277.075184	-2.982400	3.828200	-11.415000	22.695429	0.000992	20.896157
278.071671	-3.002000	3.828100	-11.491000	22.692615	0.000995	20.906614
279.055288	-3.009100	3.827600	-11.515000	22.736242	0.000997	20.873503
280.055460	-2.996300	3.828500	-11.470000	22.703081	0.000994	20.897657
281.058240	-3.002900	3.827300	-11.492000	22.717884	0.000993	20.902528
282.059083	-2.986900	3.827500	-11.432000	22.686487	0.000994	20.910432
283.060148	-2.999600	3.828100	-11.482000	22.694157	0.000995	20.919536
284.058902	-2.981600	3.828300	-11.412000	22.700724	0.000994	20.882496
285.056022	-2.992900	3.826300	-11.451000	22.709855	0.000997	20.883107
286.060040	-3.022800	3.825800	-11.563000	22.744721	0.000996	20.909021
287.061005	-3.012400	3.826600	-11.527000	22.728575	0.000997	20.887634
288.058635	-2.993800	3.826600	-11.454000	22.736811	0.000996	20.897779
289.080607	-2.995500	3.828100	-11.465000	22.734444	0.000996	20.892090
290.076494	-3.001200	3.825700	-11.480000	22.755478	0.000998	20.896090
291.088772	-2.988900	3.825500	-11.432000	22.731415	0.000998	20.878625
292.091473	-3.000200	3.824700	-11.474000	22.734255	0.000999	20.905650
293.059550	-3.008200	3.825600	-11.508000	22.754335	0.001000	20.897790
294.063994	-3.006300	3.823600	-11.493000	22.765041	0.001000	20.890022
295.060878	-3.001300	3.823900	-11.475000	22.748740	0.000999	20.871324
296.060489	-3.007800	3.824400	-11.501000	22.792313	0.001002	20.897901
297.068033	-3.004600	3.823400	-11.487000	22.784525	0.001002	20.894841
298.060381	-3.021800	3.823800	-11.553000	22.776134	0.001004	20.882170
299.062837	-3.009700	3.824200	-11.509000	22.784680	0.001002	20.886463
300.062356	-2.983700	3.825200	-11.412000	22.793415	0.001004	20.872928
301.063674	-2.999700	3.823500	-11.469000	22.815738	0.001004	20.887230
302.064411	-2.997900	3.823400	-11.462000	22.829731	0.001004	20.882281
303.072853	-3.009600	3.823200	-11.506000	22.839215	0.001004	20.911220
304.085130	-3.013400	3.820800	-11.513000	22.831280	0.001004	20.872454
305.064662	-2.995200	3.823100	-11.449000	22.845738	0.001004	20.893574
306.085278	-3.034800	3.822600	-11.600000	22.845738	0.001006	20.888833
307.084162	-3.004500	3.822100	-11.483000	22.841900	0.001005	20.889256
308.084770	-3.013900	3.821300	-11.515000	22.836298	0.001006	20.864679
309.078406	-2.980100	3.821200	-11.386000	22.851943	0.001006	20.904057
310.065791	-3.002900	3.823100	-11.479000	22.870453	0.001006	20.856697
311.080210	-3.018400	3.820300	-11.530000	22.869033	0.001007	20.894626
312.091334	-2.981700	3.820800	-11.392000	22.868948	0.001008	20.882214
313.091339	-2.998600	3.820600	-11.456000	22.857167	0.001009	20.896015
314.094665	-2.998700	3.820900	-11.457000	22.883017	0.001010	20.883981
315.081226	-3.012900	3.819300	-11.506000	22.868182	0.001010	20.877180
316.092643	-2.996700	3.819100	-11.443000	22.895848	0.001010	20.888774
317.089501	-2.989500	3.820400	-11.420000	22.907654	0.001010	20.868361
318.096212	-3.009300	3.819800	-11.494000	22.899005	0.001011	20.880558
319.085694	-3.008100	3.818600	-11.486000	22.889066	0.001012	20.879610
320.096388	-2.997700	3.819400	-11.449000	22.896251	0.001014	20.862627
321.090143	-3.003300	3.818100	-11.464000	22.888456	0.001011	20.883740
322.083365	-2.989900	3.817800	-11.415000	22.904522	0.001012	20.869964
323.087485	-3.001500	3.819300	-11.462000	22.903953	0.001013	20.853748
324.097066	-3.005500	3.817900	-11.474000	22.908600	0.001015	20.880688
325.102195	-2.995500	3.817400	-11.434000	22.904581	0.001014	20.876662
326.089347	-3.004800	3.817400	-11.469000	22.879989	0.001013	20.876206
327.097195	-2.999300	3.817000	-11.447000	22.876166	0.001016	20.871902
328.094798	-2.999900	3.816800	-11.449000	22.846529	0.001017	20.899108
329.073315	-2.968600	3.817800	-11.331000	22.858362	0.001015	20.865446
330.074652	-3.008500	3.816300	-11.480000	22.858543	0.001016	20.864679
331.100054	-3.013200	3.815400	-11.496000	22.876295	0.001016	20.861601
332.074028	-2.987700	3.815600	-11.399000	22.877845	0.001019	20.851774
333.094483	-2.999100	3.815800	-11.443000	22.882585	0.001016	20.858419
334.105083	-2.998300	3.815100	-11.438000	22.880814	0.001018	20.894575
335.103365	-3.027900	3.815100	-11.550000	22.862466	0.001019	20.877144
336.089854	-3.006300	3.816300	-11.472000	22.846692	0.001019	20.850437
337.102986	-2.995100	3.814400	-11.423000	22.872439	0.001019	20.868169
338.089916	-3.021600	3.815100	-11.525000	22.892628	0.001019	20.867531
339.091987	-2.988200	3.814600	-11.397000	22.907669	0.001020	20.858419
340.100327	-3.008500	3.814000	-11.474000	22.901654	0.001019	20.851445
341.103306	-3.009200	3.814000	-11.476000	22.932279	0.001021	20.861264
342.098717	-2.972600	3.814100	-11.337000	22.926634	0.001020	20.854186
343.073625	-3.000800	3.813400	-11.442000	22.932571	0.001020	20.855393
344.095702	-3.020100	3.812000	-11.512000	22.951295	0.001022	20.858031
345.080803	-3.021300	3.813400	-11.520000	22.968943	0.001023	20.828298
346.094004	-3.001000	3.812000	-11.438000	22.973013	0.001024	20.848970
347.119677	-2.982100	3.814200	-11.372000	22.967437	0.001024	20.847652
348.093601	-2.988600	3.813900	-11.397000	22.988630	0.001024	20.848022
349.092754	-3.008300	3.811700	-11.465000	22.993285	0.001026	20.864539
350.100039	-3.021700	3.811100	-11.515000	23.007430	0.001026	20.864487
351.099816	-3.010800	3.811100	-11.474000	23.006192	0.001025	20.864669
352.095811	-3.000400	3.812400	-11.436000	23.009486	0.001027	20.854220
353.102086	-2.989300	3.811500	-11.393000	23.024208	0.001026	20.843366
354.104513	-3.017400	3.810400	-11.496000	23.039695	0.001026	20.839918
355.102178	-2.995200	3.810100	-11.411000	23.032649	0.001026	20.855142
356.097006	-3.017000	3.809500	-11.493000	23.013479	0.001026	20.850160
357.083312	-3.006700	3.809700	-11.453000	22.995023	0.001028	20.855375
358.106563	-2.996900	3.810000	-11.417000	22.991126	0.001027	20.831557
359.100733	-2.996900	3.809900	-11.417000	22.990376	0.001029	20.853564
360.103774	-3.005900	3.809200	-11.449000	22.982959	0.001028	20.833806
361.112797	-3.008700	3.808400	-11.457000	23.003515	0.001030	20.846341
362.118393	-2.970200	3.810400	-11.317000	23.023683	0.001030	20.845685
363.082564	-3.024000	3.808900	-11.517000	23.017686	0.001030	20.839203
364.086897	-2.979300	3.809500	-11.348000	23.053781	0.001030	20.825582
365.100924	-3.004500	3.806900	-11.436000	23.068106	0.001031	20.827608
366.111620	-3.008900	3.808000	-11.456000	23.065859	0.001031	20.835314
367.109004	-2.996300	3.807500	-11.408000	23.087146	0.001031	20.837677
368.100925	-2.976500	3.807800	-11.331000	23.099053	0.001033	20.831116
369.115899	-2.998500	3.808400	-11.418000	23.097685	0.001031	20.828798
370.101982	-2.984900	3.808700	-11.368000	23.084306	0.001034	20.849530
371.084357	-3.020100	3.806400	-11.494000	23.087885	0.001030	20.827512
372.085923	-2.975900	3.808400	-11.331000	23.089038	0.001032	20.841470
373.088259	-2.992100	3.806100	-11.386000	23.087120	0.001035	20.828168
374.085680	-2.999500	3.807500	-11.420000	23.075031	0.001035	20.827909
375.085747	-3.000200	3.806800	-11.420000	23.102125	0.001035	20.863591
376.087035	-3.006500	3.806100	-11.443000	23.095319	0.001034	20.826901
377.087181	-2.995800	3.804900	-11.397000	23.091275	0.001036	20.841340
378.088190	-3.012600	3.804700	-11.460000	23.086913	0.001035	20.827012
379.086596	-2.976500	3.805200	-11.325000	23.090673	0.001037	20.840262
380.086052	-3.001800	3.803700	-11.417000	23.082861	0.001037	20.840021
381.100568	-2.996300	3.803900	-11.397000	23.100584	0.001037	20.835495
382.123614	-2.993700	3.803300	-11.385000	23.124055	0.001038	20.846211
383.128922	-2.999200	3.802100	-11.403000	23.134635	0.001038	20.843537
384.122103	-3.001700	3.803000	-11.415000	23.137337	0.001037	20.838184
385.110765	-3.016700	3.802900	-11.471000	23.151370	0.001039	20.840866
386.105602	-2.998500	3.801200	-11.397000	23.182839	0.001036	20.822141
387.116115	-2.985300	3.803700	-11.354000	23.191012	0.001041	20.827487
388.108418	-2.997600	3.801500	-11.395000	23.198712	0.001040	20.856064
389.107974	-2.991200	3.800900	-11.368000	23.196217	0.001040	20.871581
390.108352	-2.999800	3.801900	-11.404000	23.185919	0.001039	20.840400
391.115990	-3.007100	3.801300	-11.429000	23.181919	0.001041	20.833547
392.113730	-3.034400	3.800500	-11.530000	23.174296	0.001041	20.827805
393.118039	-2.990000	3.801400	-11.365000	23.161632	0.001042	20.829339
394.113558	-3.002800	3.800900	-11.412000	23.130798	0.001042	20.815037
395.107824	-2.974400	3.801100	-11.305000	23.160179	0.001043	20.818400
396.112121	-2.988700	3.800200	-11.356000	23.180525	0.001042	20.850167
397.116138	-3.008900	3.800700	-11.433000	23.179638	0.001043	20.841218
398.112865	-2.991400	3.799400	-11.364000	23.164127	0.001044	20.824253
399.091256	-2.988700	3.799700	-11.354000	23.205215	0.001044	20.820382
400.108880	-3.001200	3.799500	-11.402000	23.183879	0.001045	20.849260
401.114151	-3.004300	3.799700	-11.414000	23.171225	0.001043	20.834684
402.093499	-2.994700	3.799800	-11.377000	23.171680	0.001044	20.837985
403.112566	-3.002600	3.798700	-11.404000	23.190598	0.001045	20.824227
404.114051	-3.008000	3.798500	-11.425000	23.205902	0.001044	20.853313
405.116487	-3.015200	3.796600	-11.447000	23.210737	0.001047	20.849623
406.109892	-2.984600	3.797100	-11.331000	23.212604	0.001046	20.852442
407.111333	-2.989900	3.798300	-11.355000	23.221361	0.001045	20.833243
408.098001	-3.013800	3.796100	-11.438000	23.224518	0.001045	20.830717
409.095621	-3.004600	3.795700	-11.404000	23.227124	0.001048	20.848975
410.095710	-3.002300	3.796900	-11.397000	23.232251	0.001049	20.835622
411.096723	-3.008500	3.795000	-11.416000	23.249775	0.001047	20.856502
412.095636	-3.015700	3.796600	-11.449000	23.243022	0.001049	20.836459
413.097678	-2.973400	3.796400	-11.287000	23.218522	0.001050	20.851261
414.098941	-3.013600	3.794500	-11.434000	23.243606	0.001048	20.843208
415.100747	-3.018900	3.794800	-11.455000	23.199397	0.001049	20.828303
416.101014	-3.018300	3.794100	-11.451000	23.217731	0.001048	20.838140
417.102291	-2.999600	3.794500	-11.380000	23.240312	0.001051	20.846071
418.099396	-3.032800	3.793600	-11.503000	23.242316	0.001048	20.854717
419.102189	-2.999000	3.794600	-11.379000	23.286764	0.001050	20.844734
420.106162	-2.988900	3.795600	-11.343000	23.261216	0.001050	20.849001
421.105366	-2.975600	3.795400	-11.293000	23.264820	0.001049	20.830329
422.101398	-2.987600	3.794300	-11.335000	23.257224	0.001050	20.843579
423.119095	-2.986300	3.793000	-11.326000	23.271539	0.001052	20.846071
424.128823	-2.982300	3.794600	-11.316000	23.286343	0.001052	20.836252
425.130007	-3.005700	3.792200	-11.397000	23.325533	0.001053	20.854665
426.126930	-3.010700	3.792200	-11.415000	23.341851	0.001052	20.853002
427.129102	-2.985800	3.792500	-11.323000	23.331683	0.001052	20.847553
428.119044	-2.993700	3.793100	-11.354000	23.369264	0.001052	20.827847
429.105743	-2.994800	3.791800	-11.355000	23.348766	0.001053	20.846182
430.106394	-2.982600	3.790900	-11.305000	23.332992	0.001053	20.846968
431.107037	-3.026000	3.789600	-11.466000	23.355571	0.001055	20.856795
432.106438	-3.025000	3.790300	-11.464000	23.336251	0.001054	20.845019
433.123085	-3.009200	3.788500	-11.399000	23.346109	0.001055	20.867700
434.128441	-3.008800	3.790200	-11.402000	23.337249	0.001055	20.869252
435.126602	-2.985700	3.788800	-11.311000	23.366082	0.001055	20.867329
436.132954	-2.990700	3.789400	-11.332000	23.352026	0.001055	20.865096
437.106644	-3.004600	3.787100	-11.378000	23.350814	0.001057	20.845864
438.112016	-2.978500	3.788900	-11.284000	23.340794	0.001057	20.865692
439.124473	-2.981200	3.789900	-11.297000	23.355803	0.001056	20.875993
440.111794	-3.013600	3.789000	-11.417000	23.345292	0.001057	20.847916
441.114787	-3.011700	3.788300	-11.408000	23.327418	0.001058	20.860821
442.114017	-3.001400	3.787300	-11.366000	23.315624	0.001057	20.856587
443.135069	-2.996700	3.787600	-11.349000	23.332097	0.001057	20.860295
444.108990	-3.002000	3.787100	-11.368000	23.345077	0.001055	20.863347
445.132154	-3.003000	3.787100	-11.370000	23.368783	0.001059	20.884734
446.109874	-2.989500	3.786800	-11.319000	23.376120	0.001059	20.853683
447.112993	-2.985400	3.786300	-11.302000	23.367837	0.001059	20.865769
448.110138	-2.999900	3.784800	-11.353000	23.396436	0.001059	20.864088
449.115074	-2.984300	3.785500	-11.296000	23.429122	0.001058	20.867451
450.110569	-2.995000	3.784500	-11.334000	23.433775	0.001059	20.870692
451.113168	-2.975800	3.787500	-11.270000	23.472040	0.001060	20.875382
452.112454	-3.017900	3.784400	-11.420000	23.459999	0.001060	20.881804
453.109190	-2.980100	3.785100	-11.278000	23.467121	0.001061	20.863339
454.110637	-2.982000	3.785100	-11.286000	23.486618	0.001061	20.887623
455.109421	-2.997600	3.784200	-11.343000	23.492982	0.001060	20.889735
456.110876	-3.017900	3.783700	-11.418000	23.526903	0.001060	20.854986
457.127542	-2.998000	3.783700	-11.343000	23.524383	0.001062	20.884227
458.126814	-3.020300	3.781900	-11.420000	23.528270	0.001061	20.862047
459.130722	-2.999800	3.782200	-11.344000	23.529560	0.001061	20.894157
460.133372	-3.007500	3.782700	-11.375000	23.550372	0.001060	20.872822
461.128481	-3.013200	3.782400	-11.395000	23.525561	0.001060	20.889675
462.130847	-3.003800	3.782500	-11.360000	23.531925	0.001063	20.878985
463.135204	-2.988300	3.780700	-11.298000	23.541866	0.001063	20.864295
464.113067	-3.009400	3.780100	-11.375000	23.553632	0.001060	20.870874
465.112555	-2.997600	3.782200	-11.336000	23.552445	0.001061	20.869210
466.131617	-2.988400	3.780800	-11.296000	23.565423	0.001062	20.877478
467.144432	-2.999400	3.779400	-11.335000	23.591678	0.001062	20.869184
468.113299	-3.009500	3.779100	-11.372000	23.565715	0.001064	20.894839
469.112630	-3.002300	3.779000	-11.344000	23.534626	0.001064	20.876003
470.114516	-2.985300	3.780100	-11.283000	23.527901	0.001064	20.895813
471.114134	-2.996300	3.779200	-11.322000	23.514992	0.001066	20.867228
472.114914	-2.979300	3.780700	-11.262000	23.517727	0.001065	20.876133
473.113712	-2.985900	3.778000	-11.278000	23.542771	0.001064	20.892701
474.115418	-2.990300	3.780000	-11.301000	23.555774	0.001064	20.891986
475.114597	-2.997400	3.777400	-11.321000	23.553092	0.001062	20.887400
476.116903	-2.993500	3.778500	-11.309000	23.552988	0.001064	20.886349
477.115242	-2.999000	3.776300	-11.324000	23.534430	0.001065	20.885763
478.117786	-2.993400	3.777900	-11.308000	23.536374	0.001067	20.896245
479.116070	-2.990100	3.777400	-11.293000	23.558553	0.001064	20.895720
480.114166	-2.994900	3.776100	-11.308000	23.559329	0.001067	20.893178
481.120674	-2.990400	3.777200	-11.294000	23.586848	0.001065	20.908435
482.115844	-3.028100	3.775300	-11.431000	23.562459	0.001068	20.888256
483.118629	-3.006700	3.775900	-11.352000	23.578008	0.001064	20.900049
484.115435	-2.986500	3.775300	-11.274000	23.598269	0.001069	20.903290
485.121759	-3.011800	3.773700	-11.365000	23.630723	0.001067	20.904531
486.116713	-3.012000	3.775000	-11.369000	23.625565	0.001069	20.892722
487.135104	-2.999600	3.773800	-11.319000	23.627413	0.001067	20.908324
488.116166	-2.999200	3.776000	-11.323000	23.625436	0.001066	20.908238
489.138358	-2.992500	3.776100	-11.299000	23.611342	0.001066	20.896481
490.122262	-2.990000	3.773500	-11.282000	23.591673	0.001068	20.896678
491.153332	-3.020100	3.771500	-11.389000	23.592164	0.001067	20.934151
492.141577	-3.010500	3.773500	-11.359000	23.571319	0.001068	20.900456
493.138728	-3.009400	3.772800	-11.353000	23.549569	0.001067	20.904730
494.120708	-2.985100	3.772300	-11.260000	23.559073	0.001068	20.910938
495.121662	-2.987000	3.771900	-11.265000	23.558755	0.001067	20.929583
496.120480	-2.977800	3.773500	-11.235000	23.574819	0.001069	20.931462
497.120289	-3.003400	3.771000	-11.324000	23.600042	0.001067	20.918342
498.121247	-2.996500	3.770500	-11.298000	23.611996	0.001068	20.910412
499.124225	-2.992800	3.771900	-11.287000	23.628809	0.001068	20.926317
500.120286	-2.998200	3.771400	-11.306000	23.651563	0.001069	20.933480
501.150193	-2.984200	3.771700	-11.255000	23.663164	0.001068	20.923775
502.122427	-3.000800	3.770300	-11.313000	23.677859	0.001071	20.906267
503.123671	-3.007500	3.769100	-11.334000	23.708678	0.001068	20.930524
504.122462	-2.996000	3.771400	-11.297000	23.726117	0.001070	20.927146
505.122846	-2.988900	3.769300	-11.264000	23.720649	0.001069	20.923560
506.125398	-3.001300	3.769900	-11.313000	23.724484	0.001069	20.913182
507.140010	-2.976000	3.770200	-11.219000	23.722670	0.001071	20.932224
508.142824	-3.016800	3.768400	-11.367000	23.708560	0.001068	20.920449
509.140146	-2.990300	3.769200	-11.270000	23.688197	0.001071	20.938439
510.148910	-2.989400	3.767700	-11.262000	23.716411	0.001070	20.942068
511.142372	-2.982000	3.768600	-11.237000	23.710581	0.001073	20.927690
512.128645	-3.024100	3.767700	-11.392000	23.722060	0.001070	20.951050
513.159839	-2.983500	3.768900	-11.244000	23.701466	0.001069	20.952213
514.158727	-3.011900	3.766800	-11.344000	23.717752	0.001071	20.950998
515.143267	-3.009500	3.765900	-11.333000	23.707614	0.001071	20.930405
516.149230	-2.994000	3.766800	-11.277000	23.732018	0.001070	20.939224
517.150215	-3.018100	3.765900	-11.364000	23.753454	0.001072	20.928949
518.154313	-3.006700	3.766400	-11.323000	23.754658	0.001072	20.943431
519.154082	-3.020600	3.764800	-11.371000	23.769130	0.001071	20.950354
520.126658	-2.992700	3.764400	-11.265000	23.771159	0.001071	20.946224
521.127036	-2.992000	3.766300	-11.268000	23.737677	0.001071	20.925460
522.129943	-2.996400	3.764500	-11.280000	23.755390	0.001071	20.947483
523.130221	-2.996400	3.764000	-11.277000	23.763791	0.001071	20.936468
524.128249	-2.992200	3.764100	-11.262000	23.757599	0.001071	20.949224
525.157401	-2.987900	3.763300	-11.243000	23.777084	0.001072	20.942683
526.147384	-3.015700	3.762500	-11.346000	23.775082	0.001073	20.956320
527.154171	-3.011900	3.762200	-11.330000	23.787008	0.001072	20.961164
528.150847	-2.997900	3.762000	-11.276000	23.767644	0.001073	20.947916
529.128715	-2.997900	3.762400	-11.278000	23.752640	0.001073	20.959898
530.147666	-3.013200	3.761400	-11.333000	23.753457	0.001072	20.964035
531.152959	-2.991900	3.762100	-11.255000	23.745358	0.001074	20.928418
532.154382	-3.023300	3.760700	-11.369000	23.752770	0.001073	20.951020
533.149567	-2.988500	3.763000	-11.243000	23.764567	0.001073	20.933452
534.149823	-3.002300	3.761700	-11.293000	23.750431	0.001073	20.966690
535.157492	-3.003500	3.760900	-11.295000	23.773201	0.001073	20.952064
536.153432	-3.001000	3.759700	-11.282000	23.796742	0.001073	20.963812
537.150279	-3.002700	3.761200	-11.292000	23.768583	0.001072	20.952175
538.132597	-3.011500	3.758200	-11.317000	23.756907	0.001073	20.963227
539.134528	-3.023600	3.758200	-11.363000	23.785496	0.001074	20.969131
540.131843	-2.977200	3.760000	-11.194000	23.809089	0.001074	20.946323
541.132442	-2.987600	3.760400	-11.233000	23.814317	0.001072	20.980009
542.132708	-2.986700	3.759000	-11.225000	23.868388	0.001073	20.969742
543.132695	-3.003800	3.757200	-11.285000	23.856928	0.001073	20.950193
544.150959	-3.000800	3.758000	-11.276000	23.861520	0.001073	20.974235
545.136652	-3.013900	3.757900	-11.324000	23.850437	0.001074	20.950797
546.135420	-3.006400	3.757400	-11.295000	23.864383	0.001073	20.968571
547.134369	-3.005500	3.757200	-11.290000	23.853696	0.001075	20.957382
548.133734	-2.991100	3.756400	-11.235000	23.834093	0.001074	20.983242
549.134631	-3.022900	3.756700	-11.354000	23.835855	0.001074	20.980742
550.134528	-3.000500	3.756900	-11.271000	23.846491	0.001075	20.981449
551.157542	-2.998200	3.755400	-11.259000	23.850980	0.001075	20.991164
552.134101	-2.997400	3.756300	-11.257000	23.861967	0.001076	20.977527
553.134723	-3.001100	3.756400	-11.273000	23.864616	0.001075	20.972597
554.133171	-3.019000	3.754600	-11.335000	23.901791	0.001072	20.977157
555.135710	-3.015100	3.755000	-11.321000	23.894931	0.001073	20.975968
556.152881	-2.995400	3.755000	-11.245000	23.876781	0.001075	20.984794
557.149655	-2.993500	3.755300	-11.240000	23.898396	0.001075	20.975649
558.151021	-3.000000	3.753700	-11.260000	23.882215	0.001076	20.987397
559.155884	-2.989100	3.753500	-11.219000	23.893556	0.001073	20.983123
560.162115	-2.991900	3.752500	-11.226000	23.903176	0.001077	20.992768
561.150841	-3.000000	3.753400	-11.259000	23.896789	0.001075	21.000586
562.140272	-2.978100	3.753800	-11.179000	23.930534	0.001074	20.992227
563.136837	-3.016900	3.751700	-11.318000	23.951923	0.001076	21.000397
564.139295	-3.019100	3.750300	-11.321000	23.916984	0.001073	20.986701
565.137825	-3.022500	3.749400	-11.332000	23.930663	0.001076	20.989038
566.140086	-2.976800	3.752900	-11.171000	23.933183	0.001076	20.998675
567.141724	-2.996800	3.750200	-11.237000	23.911011	0.001075	20.985926
568.135460	-3.015600	3.750300	-11.308000	23.892794	0.001074	21.008433
569.136527	-3.006100	3.749300	-11.269000	23.880353	0.001076	20.986952
570.162151	-3.001100	3.750900	-11.255000	23.872255	0.001075	20.992582
571.159037	-2.974500	3.749400	-11.151000	23.897549	0.001075	20.996134
572.136591	-2.991500	3.748500	-11.212000	23.885384	0.001074	21.006219
573.156927	-2.999100	3.749600	-11.245000	23.889828	0.001074	20.992660
574.137626	-3.005300	3.749000	-11.266000	23.894420	0.001075	21.001056
575.136863	-3.009600	3.748000	-11.278000	23.873219	0.001075	20.964155
576.141215	-2.989300	3.748900	-11.204000	23.857366	0.001076	20.991403
577.137625	-3.004000	3.747800	-11.258000	23.876735	0.001074	21.011296
578.137053	-2.982900	3.748300	-11.180000	23.900629	0.001075	21.001118
579.138730	-3.000600	3.746500	-11.241000	23.906673	0.001075	21.005755
580.138960	-3.000000	3.746700	-11.239000	23.897766	0.001075	21.005359
581.161226	-2.986600	3.746100	-11.187000	23.917859	0.001074	21.003696
582.165479	-2.986300	3.746500	-11.186000	23.961153	0.001075	21.014866
583.160618	-2.998100	3.746800	-11.232000	23.964928	0.001077	21.009644
584.164383	-2.996300	3.745200	-11.220000	24.001017	0.001076	20.999370
585.160225	-2.975800	3.746400	-11.148000	24.010292	0.001077	21.004403
586.163974	-3.021400	3.744100	-11.311000	24.030383	0.001074	21.014118
587.172782	-2.998600	3.746500	-11.233000	24.047979	0.001073	21.019910
588.166282	-2.997300	3.743200	-11.218000	24.029902	0.001076	21.018377
589.162291	-3.003800	3.744900	-11.248000	24.039022	0.001074	21.007136
590.144390	-2.995600	3.743800	-11.213000	24.039702	0.001073	21.016351
591.145550	-2.974900	3.745300	-11.141000	24.063873	0.001073	21.020677
592.148014	-2.999400	3.742700	-11.224000	24.055681	0.001076	21.012462
593.175289	-2.985000	3.744300	-11.175000	24.070433	0.001075	21.019669
594.149494	-2.995400	3.743000	-11.211000	24.080646	0.001075	21.018058
595.145625	-3.006400	3.743800	-11.255000	24.112140	0.001074	21.028306
596.146012	-2.987200	3.742300	-11.178000	24.110242	0.001075	21.006492
597.148499	-2.990800	3.741700	-11.189000	24.109666	0.001077	21.026299
598.150002	-3.022200	3.740200	-11.302000	24.109348	0.001076	21.040202
599.146650	-3.020100	3.739600	-11.294000	24.110164	0.001076	21.041020
600.147395	-2.989600	3.742500	-11.188000	24.107483	0.001076	21.022213
601.161343	-2.998700	3.741200	-11.217000	24.104062	0.001075	21.015939
602.171782	-3.009500	3.740900	-11.257000	24.127013	0.001077	21.028050
603.163937	-3.000000	3.740600	-11.220000	24.121599	0.001075	21.038739
604.172429	-2.979800	3.741200	-11.146000	24.116295	0.001077	21.042901
605.146131	-3.007900	3.739200	-11.245000	24.090611	0.001075	21.035161
606.161199	-3.005900	3.738500	-11.237000	24.082385	0.001072	21.044453
607.164659	-3.022500	3.737800	-11.295000	24.058317	0.001074	21.044497
608.146582	-2.998700	3.740300	-11.215000	24.067799	0.001074	21.049738
609.148696	-2.989800	3.739300	-11.178000	24.074839	0.001074	21.041627
610.147009	-3.016500	3.737300	-11.273000	24.081724	0.001074	21.033835
611.165996	-3.007600	3.738200	-11.242000	24.071839	0.001074	21.029613
612.167511	-3.001500	3.737900	-11.218000	24.065763	0.001075	21.059074
613.147039	-3.008400	3.737100	-11.240000	24.105373	0.001075	21.043327
614.149886	-2.993500	3.736500	-11.184000	24.094233	0.001073	21.029312
615.147278	-2.976200	3.736800	-11.120000	24.087958	0.001074	21.054782
616.150919	-2.992900	3.737200	-11.185000	24.080386	0.001074	21.061411
617.182914	-2.996800	3.736900	-11.197000	24.112586	0.001073	21.052930
618.172283	-2.997500	3.735700	-11.197000	24.073560	0.001072	21.042242
619.153049	-2.991300	3.736700	-11.176000	24.074318	0.001071	21.027357
620.152216	-2.991400	3.735200	-11.173000	24.062051	0.001073	21.037812
621.181230	-3.014800	3.733100	-11.254000	24.054135	0.001075	21.027031
622.171518	-2.987900	3.734500	-11.157000	24.055303	0.001072	21.025831
623.151439	-2.971600	3.734900	-11.097000	24.042161	0.001072	21.035882
624.153342	-2.975700	3.734400	-11.112000	24.046940	0.001073	21.040675
625.154263	-2.973100	3.735100	-11.103000	24.066280	0.001073	21.031623
626.154662	-3.023700	3.733600	-11.289000	24.053216	0.001072	21.028953
627.171086	-3.014500	3.732700	-11.251000	24.089912	0.001072	21.022135
628.176000	-3.016600	3.732900	-11.260000	24.065146	0.001073	21.010576
629.178026	-3.007600	3.732500	-11.225000	24.086129	0.001072	21.007439
630.181365	-3.014600	3.734000	-11.255000	24.069143	0.001074	21.017427
631.179944	-2.997900	3.732100	-11.188000	24.084478	0.001075	21.022375
632.156816	-2.997000	3.730800	-11.180000	24.092852	0.001072	21.030771
633.156940	-3.007100	3.731200	-11.219000	24.103338	0.001072	21.023272
634.175438	-2.999300	3.731100	-11.190000	24.115363	0.001072	21.004516
635.183949	-2.990200	3.730400	-11.153000	24.144150	0.001072	21.007783
636.175775	-2.984400	3.731100	-11.134000	24.122189	0.001072	21.004250
637.177870	-2.995300	3.729900	-11.170000	24.143762	0.001071	21.008816
638.177044	-2.989100	3.728700	-11.144000	24.146728	0.001071	21.009420
639.184671	-3.003200	3.729800	-11.200000	24.159089	0.001071	20.992898
640.184789	-2.984100	3.729300	-11.127000	24.181109	0.001072	20.991276
641.159538	-2.982200	3.729800	-11.123000	24.142561	0.001072	20.994813
642.186232	-2.978600	3.729300	-11.105000	24.148087	0.001071	21.006516
643.174722	-2.974900	3.729100	-11.093000	24.165235	0.001071	21.001905
644.181521	-2.986000	3.727600	-11.129000	24.142122	0.001070	20.991528
645.165747	-3.019800	3.728100	-11.256000	24.165431	0.001070	21.004946
646.182782	-3.009200	3.726500	-11.213000	24.192653	0.001069	21.001905
647.162710	-3.012400	3.727400	-11.228000	24.171794	0.001072	20.989994
648.177566	-3.005500	3.727100	-11.201000	24.200320	0.001070	21.003905
649.196642	-3.020300	3.724700	-11.248000	24.219100	0.001073	20.995242
650.185117	-3.008000	3.726500	-11.208000	24.200088	0.001072	20.983761
651.189045	-3.004400	3.725000	-11.191000	24.193573	0.001070	20.984339
652.161009	-3.022000	3.724100	-11.253000	24.194836	0.001070	21.011679
653.162778	-3.010800	3.724300	-11.213000	24.179177	0.001072	20.991235
654.163442	-2.978100	3.725600	-11.094000	24.196539	0.001070	21.009594
655.163235	-2.985400	3.726200	-11.124000	24.229285	0.001069	21.007353
656.165175	-2.994200	3.724500	-11.151000	24.241997	0.001069	20.987390
657.180067	-2.997400	3.725700	-11.166000	24.253685	0.001069	21.004802
658.161616	-3.001100	3.724100	-11.175000	24.257098	0.001071	20.976461
659.178794	-3.001900	3.722800	-11.175000	24.261060	0.001067	20.972375
660.183500	-3.016300	3.722700	-11.226000	24.256935	0.001068	20.981513
661.190379	-2.986200	3.723500	-11.118000	24.265477	0.001067	20.984390
662.165354	-3.006400	3.723800	-11.195000	24.278550	0.001069	20.965264
663.180929	-3.009100	3.723200	-11.202000	24.272165	0.001069	20.987779
664.190010	-3.000700	3.722200	-11.168000	24.276737	0.001069	20.986676
665.185090	-2.986600	3.721800	-11.115000	24.263139	0.001070	20.979202
666.164389	-3.000200	3.721900	-11.166000	24.280784	0.001067	20.987890
667.167037	-3.013000	3.721100	-11.211000	24.285958	0.001070	20.970324
668.165977	-3.011100	3.720800	-11.203000	24.284514	0.001066	20.966505
669.169884	-2.964100	3.721700	-11.030000	24.288794	0.001068	20.986442
670.165627	-3.003500	3.720600	-11.173000	24.276460	0.001068	20.978339
671.166860	-2.999900	3.720000	-11.159000	24.294123	0.001069	20.990364
672.169403	-3.014600	3.718900	-11.209000	24.292465	0.001068	20.989650
673.166734	-2.997600	3.719400	-11.148000	24.291080	0.001068	20.990631
674.194484	-3.007400	3.719700	-11.185000	24.310932	0.001067	20.973564
675.181032	-2.985000	3.719700	-11.102000	24.294407	0.001067	20.984013
676.188974	-3.005900	3.718000	-11.175000	24.291545	0.001070	20.979246
677.191664	-3.024600	3.718300	-11.244000	24.292051	0.001067	20.995398
678.197018	-2.992200	3.718600	-11.126000	24.314836	0.001067	20.972264
679.192466	-2.999800	3.717100	-11.149000	24.315678	0.001067	20.977849
680.194733	-2.969300	3.719200	-11.042000	24.318067	0.001066	20.979298
681.186198	-3.006900	3.716900	-11.176000	24.344089	0.001067	20.975057
682.169282	-2.997100	3.718500	-11.144000	24.345293	0.001068	20.988590
683.196306	-3.000900	3.717600	-11.156000	24.354805	0.001065	20.964946
684.189758	-2.993000	3.717900	-11.126000	24.358956	0.001066	20.968161
685.194561	-2.998800	3.715000	-11.140000	24.358716	0.001066	20.957964
686.188350	-3.016700	3.715300	-11.207000	24.369690	0.001068	20.989357
687.192487	-3.018300	3.714900	-11.211000	24.360031	0.001065	20.977772
688.191547	-3.012600	3.714400	-11.189000	24.354746	0.001066	20.966783
689.198219	-2.995200	3.716100	-11.130000	24.340042	0.001066	20.960094
690.190911	-2.999900	3.713800	-11.141000	24.359026	0.001064	20.981505
691.188512	-3.005000	3.713900	-11.159000	24.317328	0.001062	20.971920
692.194158	-2.996600	3.714400	-11.129000	24.292956	0.001065	20.980661
693.193262	-2.999800	3.712400	-11.136000	24.277468	0.001064	20.961334
694.191990	-2.998300	3.713200	-11.132000	24.271891	0.001061	20.960956
695.191659	-3.003100	3.713200	-11.151000	24.228170	0.001065	20.975420
696.194434	-3.021800	3.711800	-11.216000	24.254564	0.001064	20.971075
697.188251	-2.998000	3.713100	-11.131000	24.267456	0.001064	20.956982
698.198790	-2.989900	3.711900	-11.097000	24.253009	0.001064	20.958612
699.175728	-3.008600	3.711900	-11.165000	24.262127	0.001064	20.975816
700.173928	-2.999800	3.710800	-11.131000	24.286973	0.001062	20.968497
701.176249	-2.998600	3.711300	-11.128000	24.319245	0.001061	20.982849
702.173053	-3.009800	3.712000	-11.171000	24.331113	0.001063	20.964886
703.194278	-2.987400	3.711200	-11.086000	24.319692	0.001062	20.981875
704.200092	-2.989500	3.711600	-11.095000	24.341589	0.001062	20.968757
705.190143	-2.974200	3.711400	-11.038000	24.347450	0.001063	20.952353
706.190368	-3.012400	3.709500	-11.173000	24.344665	0.001063	20.950508
707.198666	-2.993400	3.710600	-11.105000	24.312712	0.001063	20.955912
708.197927	-3.006500	3.710200	-11.154000	24.287239	0.001060	20.977298
709.197431	-2.988300	3.707900	-11.079000	24.283088	0.001062	20.964601
710.178197	-2.999800	3.709300	-11.126000	24.268538	0.001060	20.963283
711.175841	-3.000600	3.709400	-11.129000	24.245934	0.001061	20.957679
712.194452	-3.017600	3.708100	-11.189000	24.224026	0.001060	20.936656
713.175939	-3.005100	3.706800	-11.139000	24.241894	0.001059	20.953627
714.176700	-3.013800	3.708100	-11.175000	24.255705	0.001062	20.970324
715.175652	-3.017600	3.707100	-11.186000	24.261378	0.001060	20.970324
716.176682	-2.999400	3.707400	-11.119000	24.290548	0.001061	20.962601
717.179383	-2.991400	3.707300	-11.089000	24.308432	0.001060	20.982435
718.195268	-3.000000	3.708000	-11.123000	24.326719	0.001059	20.958583
719.179238	-2.992600	3.707100	-11.092000	24.334566	0.001059	20.959816
720.179086	-3.012500	3.705800	-11.163000	24.306996	0.001060	20.955394
721.179870	-2.988200	3.707300	-11.077000	24.303215	0.001061	20.951601
722.176918	-3.009700	3.706400	-11.154000	24.279795	0.001059	20.970779
723.176782	-2.974400	3.707800	-11.027000	24.282701	0.001058	20.953308
724.179578	-3.007500	3.706100	-11.145000	24.304392	0.001059	20.956575
725.177893	-2.993400	3.705600	-11.091000	24.348333	0.001057	20.966038
726.181975	-2.991500	3.704800	-11.081000	24.326221	0.001057	20.972305
727.181262	-3.004200	3.705800	-11.132000	24.320471	0.001059	20.958005
728.181787	-2.979500	3.705100	-11.039000	24.330981	0.001058	20.951953
729.182646	-3.014000	3.703500	-11.161000	24.324570	0.001057	20.936041
730.181631	-3.001000	3.703900	-11.115000	24.344208	0.001057	20.950049
731.185623	-2.992300	3.704100	-11.083000	24.328137	0.001057	20.945308
732.198260	-2.994000	3.704700	-11.091000	24.352491	0.001056	20.955512
733.201131	-2.979100	3.701900	-11.027000	24.339230	0.001058	20.975398
734.197643	-3.018000	3.700700	-11.168000	24.366061	0.001057	20.948264
735.182689	-3.017700	3.702500	-11.172000	24.387674	0.001055	20.959512
736.184266	-2.989500	3.702800	-11.069000	24.398991	0.001054	20.935308
737.185994	-2.986900	3.700700	-11.053000	24.406708	0.001056	20.957746
738.182949	-3.017200	3.700200	-11.163000	24.384107	0.001054	20.957357
739.189390	-3.014800	3.701100	-11.157000	24.387921	0.001055	20.949805
740.185646	-3.008000	3.700900	-11.132000	24.381433	0.001054	20.945668
741.186288	-3.027300	3.698600	-11.195000	24.342125	0.001055	20.945590
742.189228	-3.001200	3.699200	-11.101000	24.357775	0.001056	20.945642
743.188938	-3.014200	3.700000	-11.152000	24.354913	0.001052	20.956046
744.188149	-2.984500	3.700000	-11.042000	24.328607	0.001054	20.954313
745.188229	-3.011000	3.698300	-11.133000	24.340201	0.001053	20.941290
746.188569	-3.005100	3.698600	-11.113000	24.376596	0.001053	20.957409
747.193030	-2.996000	3.697700	-11.077000	24.367150	0.001053	20.951727
748.192195	-2.997400	3.698600	-11.085000	24.369909	0.001053	20.943116
749.188919	-2.971700	3.699500	-10.992000	24.339049	0.001054	20.940134
750.189916	-3.024900	3.697600	-11.184000	24.344987	0.001052	20.949883
751.188601	-2.979100	3.696900	-11.012000	24.324773	0.001053	20.953313
752.188977	-3.005800	3.696900	-11.111000	24.312347	0.001053	20.942745
753.192358	-3.002800	3.698200	-11.104000	24.320804	0.001051	20.952175
754.215674	-2.989900	3.695800	-11.049000	24.351767	0.001053	20.939616
755.204435	-3.019800	3.695800	-11.158000	24.370097	0.001051	20.931452
756.209636	-3.010500	3.696700	-11.128000	24.423033	0.001052	20.944253
757.188064	-3.015400	3.696600	-11.145000	24.428970	0.001052	20.942149
758.189116	-3.016900	3.695900	-11.150000	24.428653	0.001051	20.939934
759.191350	-3.030200	3.695600	-11.198000	24.455411	0.001050	20.962509
760.190158	-2.998500	3.696200	-11.083000	24.466256	0.001049	20.934038
761.190117	-2.993700	3.695000	-11.061000	24.474892	0.001049	20.946020
762.188604	-3.006000	3.694600	-11.106000	24.492197	0.001050	20.924978
763.188968	-2.988600	3.695400	-11.043000	24.524566	0.001051	20.938960
764.190755	-2.977200	3.694100	-10.997000	24.544208	0.001050	20.939701
765.190031	-3.010800	3.692600	-11.117000	24.559382	0.001051	20.924582
766.210627	-3.008200	3.692600	-11.107000	24.549439	0.001049	20.926934
767.190044	-3.017900	3.693200	-11.145000	24.558994	0.001048	20.933675
768.215157	-2.978200	3.694400	-11.002000	24.556476	0.001048	20.925460
769.191409	-3.015000	3.693400	-11.134000	24.538260	0.001049	20.940372
770.191290	-2.984300	3.692100	-11.017000	24.551012	0.001047	20.937520
771.191111	-3.012500	3.692300	-11.121000	24.547841	0.001048	20.940027
772.192537	-3.017600	3.693600	-11.144000	24.541834	0.001046	20.920726
773.190713	-2.999300	3.692200	-11.072000	24.523894	0.001048	20.922167
774.190764	-3.018900	3.691700	-11.143000	24.528122	0.001047	20.939683
775.192554	-3.008100	3.690800	-11.101000	24.511116	0.001045	20.942535
776.192212	-3.021500	3.690800	-11.151000	24.496956	0.001046	20.918848
777.193721	-2.989600	3.691100	-11.034000	24.459647	0.001044	20.938312
778.194518	-3.011500	3.688600	-11.107000	24.471469	0.001045	20.925993
779.193499	-2.988700	3.690900	-11.029000	24.455393	0.001046	20.930253
780.194945	-3.010100	3.690500	-11.108000	24.465669	0.001046	20.932975
781.192786	-2.996900	3.690500	-11.059000	24.501302	0.001045	20.919415
782.192054	-2.977100	3.689300	-10.981000	24.497359	0.001046	20.908348
783.192806	-3.013900	3.688000	-11.113000	24.504980	0.001046	20.928794
784.217128	-3.004900	3.689900	-11.087000	24.522251	0.001045	20.925260
785.214333	-2.996100	3.688600	-11.050000	24.533937	0.001044	20.928923
786.210835	-2.989600	3.688700	-11.026000	24.537116	0.001045	20.927845
787.224089	-2.992900	3.687300	-11.034000	24.504791	0.001043	20.915804
788.223378	-2.992000	3.688100	-11.033000	24.460049	0.001045	20.911218
789.218799	-3.008000	3.688200	-11.094000	24.446292	0.001042	20.924441
790.214448	-3.000100	3.686700	-11.059000	24.458140	0.001042	20.916415
791.213673	-3.023400	3.685300	-11.140000	24.437973	0.001043	20.944068
792.214082	-2.987700	3.686700	-11.014000	24.435576	0.001043	20.928864
793.224969	-2.988000	3.686400	-11.014000	24.443877	0.001040	20.909692
794.218314	-2.991300	3.687300	-11.028000	24.464000	0.001043	20.946946
795.223277	-3.005500	3.686000	-11.077000	24.460297	0.001040	20.931853
796.223195	-3.007000	3.685200	-11.080000	24.515901	0.001039	20.932638
797.221385	-2.980800	3.685600	-10.984000	24.508794	0.001042	20.927405
798.223248	-2.986000	3.686200	-11.006000	24.523599	0.001040	20.930405
799.215501	-3.025400	3.683400	-11.142000	24.508639	0.001041	20.920612
800.196922	-3.004900	3.684000	-11.067000	24.509791	0.001042	20.918923
801.215458	-2.997900	3.684900	-11.045000	24.506062	0.001040	20.931775
802.215292	-2.980300	3.684700	-10.981000	24.499892	0.001038	20.927483
803.215097	-3.017200	3.681900	-11.107000	24.495716	0.001039	20.907174
804.220899	-3.025700	3.682800	-11.142000	24.501705	0.001038	20.924086
805.227156	-3.009000	3.682000	-11.077000	24.465503	0.001040	20.923801
806.223722	-3.020000	3.683300	-11.123000	24.447185	0.001039	20.914907
807.205111	-2.972900	3.683600	-10.950000	24.447167	0.001037	20.907303
808.202405	-2.983600	3.681800	-10.984000	24.448456	0.001039	20.916182
809.220051	-3.008300	3.682300	-11.076000	24.451705	0.001036	20.921338
810.229989	-3.016500	3.683100	-11.109000	24.467696	0.001039	20.919363
811.226409	-2.985700	3.682100	-10.993000	24.487287	0.001037	20.919104
812.210495	-3.009800	3.680400	-11.076000	24.483894	0.001036	20.915700
813.223351	-2.986600	3.681400	-10.994000	24.472311	0.001037	20.908348
814.234320	-2.978600	3.680600	-10.962000	24.447289	0.001037	20.922123
815.206110	-2.994000	3.680500	-11.018000	24.482063	0.001035	20.889684
816.225815	-2.999500	3.680200	-11.038000	24.500221	0.001037	20.917382
817.214747	-3.005300	3.679300	-11.057000	24.513195	0.001036	20.905744
818.236932	-3.000300	3.681100	-11.044000	24.533878	0.001037	20.901840
819.229976	-2.999300	3.679100	-11.033000	24.560874	0.001035	20.895262
820.229517	-3.010500	3.679400	-11.076000	24.552205	0.001034	20.887987
821.210330	-2.982800	3.678300	-10.970000	24.582346	0.001035	20.916330
822.209216	-3.009100	3.678300	-11.068000	24.584347	0.001036	20.896528
823.215018	-3.027200	3.677300	-11.131000	24.605475	0.001034	20.877901
824.212185	-2.993200	3.677700	-11.007000	24.604847	0.001034	20.890546
825.211424	-3.005600	3.676600	-11.049000	24.585654	0.001034	20.900684
826.227509	-2.992400	3.678700	-11.007000	24.591118	0.001033	20.905692
827.210742	-2.992800	3.677600	-11.006000	24.553940	0.001034	20.905848
828.251946	-2.988600	3.675800	-10.983000	24.540398	0.001032	20.909329
829.231845	-3.026100	3.676300	-11.123000	24.532914	0.001032	20.902296
830.242246	-2.987600	3.676400	-10.983000	24.498500	0.001033	20.894321
831.227728	-3.019400	3.677600	-11.103000	24.507195	0.001031	20.896406
832.239742	-2.984600	3.677000	-10.973000	24.487132	0.001032	20.915156
833.215375	-3.009900	3.674200	-11.058000	24.514620	0.001034	20.892950
834.214040	-3.005300	3.674300	-11.041000	24.506715	0.001030	20.884072
835.212810	-3.003600	3.674500	-11.034000	24.516640	0.001030	20.886442
836.214469	-3.020100	3.674400	-11.095000	24.543422	0.001029	20.881072
837.213167	-3.000300	3.675400	-11.026000	24.561088	0.001030	20.882675
838.214406	-2.989700	3.675800	-10.988000	24.591934	0.001030	20.884702
839.215703	-3.003100	3.675800	-11.038000	24.620811	0.001031	20.877642
840.214379	-3.002900	3.674300	-11.032000	24.637520	0.001030	20.873071
841.232995	-3.022900	3.673900	-11.105000	24.666078	0.001032	20.876123
842.243539	-2.977100	3.675300	-10.940000	24.670401	0.001030	20.888520
843.235991	-3.008800	3.673600	-11.053000	24.721768	0.001027	20.897391
844.236033	-2.989700	3.672500	-10.977000	24.705393	0.001028	20.885702
845.240265	-3.004200	3.672600	-11.032000	24.700856	0.001028	20.893476
846.236363	-2.982400	3.673600	-10.954000	24.676732	0.001028	20.894873
847.233285	-2.983000	3.673200	-10.956000	24.675049	0.001027	20.872797
848.240076	-2.970800	3.673100	-10.911000	24.669061	0.001026	20.890969
849.216074	-3.025800	3.669900	-11.104000	24.651319	0.001027	20.898769
850.217823	-3.000000	3.670900	-11.012000	24.626928	0.001028	20.883779
851.217427	-3.015800	3.669800	-11.067000	24.636301	0.001028	20.889391
852.216642	-2.985900	3.670700	-10.960000	24.624119	0.001027	20.886176
853.238074	-2.973500	3.672000	-10.917000	24.621077	0.001026	20.858943
854.238289	-2.999800	3.671400	-11.012000	24.602880	0.001023	20.871504
855.235604	-3.004200	3.670400	-11.025000	24.600491	0.001025	20.882857
856.218875	-3.035000	3.666600	-11.126000	24.611541	0.001024	20.882564
857.218170	-2.997500	3.670100	-11.000000	24.630605	0.001023	20.868978
858.217243	-2.990600	3.671200	-10.978000	24.600595	0.001024	20.893865
859.215413	-3.001700	3.669300	-11.014000	24.646645	0.001023	20.884598
860.240518	-3.011400	3.669600	-11.049000	24.672188	0.001022	20.882253
861.219054	-2.969000	3.668900	-10.892000	24.669404	0.001022	20.882305
862.215890	-2.988100	3.669700	-10.964000	24.688382	0.001022	20.866737
863.217459	-2.996500	3.668300	-10.991000	24.715511	0.001023	20.883053
864.216342	-3.010500	3.667500	-11.040000	24.732469	0.001023	20.865933
865.218885	-2.988700	3.668500	-10.962000	24.684351	0.001021	20.858425
866.220439	-3.001600	3.667600	-11.008000	24.678294	0.001021	20.870838
867.219094	-3.009300	3.667200	-11.034000	24.651430	0.001022	20.862374
868.232333	-2.984700	3.667500	-10.946000	24.652925	0.001020	20.862925
869.239494	-3.025600	3.665200	-11.089000	24.671088	0.001021	20.862184
870.246874	-3.013300	3.665700	-11.044000	24.674643	0.001020	20.866700
871.243955	-3.018600	3.665100	-11.062000	24.657366	0.001021	20.865485
872.238288	-2.988800	3.666500	-10.958000	24.623868	0.001019	20.865063
873.220208	-2.982300	3.666400	-10.932000	24.598771	0.001020	20.869278
874.220546	-3.013800	3.663800	-11.040000	24.610086	0.001018	20.879683
875.224067	-3.013500	3.664200	-11.041000	24.606616	0.001019	20.861503
876.225564	-3.005400	3.664400	-11.012000	24.639384	0.001018	20.865459
877.225313	-2.978300	3.664900	-10.914000	24.667152	0.001019	20.865822
878.223154	-2.994900	3.664300	-10.974000	24.645896	0.001018	20.852554
879.226787	-2.979200	3.665200	-10.918000	24.640432	0.001017	20.860347
880.223103	-2.970500	3.665200	-10.886000	24.662925	0.001017	20.851150
881.244287	-2.991300	3.664300	-10.960000	24.689412	0.001018	20.845012
882.248653	-3.013100	3.661600	-11.031000	24.685891	0.001017	20.839108
883.240826	-3.006600	3.663100	-11.012000	24.688320	0.001016	20.864778
884.241991	-3.004900	3.662200	-11.003000	24.714267	0.001015	20.829651
885.226030	-3.001500	3.661300	-10.989000	24.718734	0.001016	20.862581
886.222462	-3.012600	3.661400	-11.030000	24.736131	0.001015	20.863918
887.245755	-2.998000	3.662500	-10.978000	24.745950	0.001013	20.855280
888.226191	-2.994300	3.660500	-10.960000	24.714954	0.001015	20.838400
889.240857	-3.012000	3.660900	-11.026000	24.693717	0.001017	20.852650
890.243342	-3.011100	3.661400	-11.024000	24.678227	0.001016	20.845168
891.241906	-3.007900	3.660500	-11.010000	24.702111	0.001015	20.862021
892.249066	-3.012600	3.659300	-11.023000	24.696888	0.001012	20.837815
893.223665	-3.007600	3.658300	-11.001000	24.658510	0.001014	20.845771
894.252220	-2.991300	3.658900	-10.944000	24.645589	0.001012	20.838022
895.241246	-3.009000	3.658500	-11.006000	24.627865	0.001011	20.843471
896.240375	-2.994000	3.658500	-10.952000	24.612992	0.001014	20.865529
897.226296	-2.998900	3.659100	-10.971000	24.623483	0.001012	20.852350
898.226735	-3.018000	3.656500	-11.034000	24.602957	0.001010	20.837918
899.225703	-3.007100	3.658400	-11.000000	24.575867	0.001012	20.855306
900.226630	-2.993500	3.658300	-10.950000	24.600251	0.001010	20.848953
901.225142	-3.016200	3.657400	-11.031000	24.583944	0.001010	20.825005
902.226497	-3.002400	3.658300	-10.982000	24.572344	0.001012	20.834229
903.227011	-3.017100	3.656600	-11.032000	24.586436	0.001009	20.836989
904.225961	-3.014500	3.654800	-11.017000	24.571709	0.001011	20.832643
905.226988	-2.981700	3.656200	-10.901000	24.547797	0.001010	20.846108
906.243647	-3.000200	3.656400	-10.969000	24.564964	0.001008	20.858591
907.243808	-2.983700	3.656200	-10.908000	24.559526	0.001008	20.837489
908.254261	-3.011200	3.655800	-11.007000	24.574201	0.001010	20.844627
909.264759	-2.994500	3.656700	-10.949000	24.584048	0.001008	20.828428
910.250902	-2.987400	3.655500	-10.919000	24.577122	0.001007	20.856091
911.245094	-2.980100	3.655000	-10.892000	24.563126	0.001008	20.833988
912.230229	-3.004500	3.654400	-10.978000	24.568675	0.001005	20.845245
913.227714	-2.997800	3.654000	-10.953000	24.543654	0.001005	20.827728
914.229484	-2.998000	3.655700	-10.958000	24.562490	0.001007	20.832877
915.228996	-3.006200	3.653900	-10.982000	24.554077	0.001007	20.821590
916.228521	-3.033700	3.654100	-11.084000	24.598128	0.001005	20.829280
917.230547	-2.988800	3.653000	-10.916000	24.564758	0.001007	20.837522
918.226975	-2.996800	3.653900	-10.949000	24.554309	0.001007	20.832729
919.228182	-3.005900	3.652000	-10.976000	24.563709	0.001004	20.835522
920.228058	-2.992400	3.654100	-10.934000	24.559164	0.001006	20.825746
921.234249	-3.016000	3.652500	-11.015000	24.581013	0.001002	20.850513
922.233264	-3.001500	3.652200	-10.961000	24.607941	0.001002	20.840074
923.228984	-3.010200	3.651600	-10.990000	24.663383	0.001002	20.845919
924.230972	-3.016600	3.651700	-11.015000	24.658794	0.001004	20.836100
925.231944	-3.028500	3.650700	-11.055000	24.629464	0.001003	20.849342
926.229887	-3.027000	3.650700	-11.049000	24.645194	0.001001	20.854695
927.232288	-3.016100	3.650500	-11.010000	24.648081	0.001002	20.855221
928.232306	-2.993600	3.650600	-10.927000	24.675901	0.001002	20.835247
929.256090	-3.000300	3.650900	-10.953000	24.682660	0.001001	20.832073
930.254058	-2.984800	3.648900	-10.889000	24.682343	0.001001	20.844082
931.253279	-2.957200	3.651800	-10.798000	24.702772	0.001001	20.856521
932.257600	-3.010700	3.649600	-10.987000	24.691535	0.001003	20.849987
933.257380	-3.010000	3.650100	-10.985000	24.671999	0.001001	20.859780
934.239029	-2.990900	3.649500	-10.913000	24.645649	0.001001	20.819116
935.238256	-3.026300	3.648300	-11.039000	24.641628	0.001000	20.843056
936.257780	-2.991900	3.648000	-10.913000	24.640399	0.000998	20.858417
937.257505	-3.007100	3.649200	-10.973000	24.655598	0.001000	20.839530
938.269532	-2.997300	3.647800	-10.931000	24.646885	0.000998	20.855443
939.261266	-2.974800	3.649300	-10.854000	24.667067	0.000998	20.841082
940.258039	-2.983400	3.647600	-10.882000	24.690933	0.000999	20.821409
941.254197	-2.989700	3.648700	-10.907000	24.709472	0.000997	20.849494
942.262919	-2.990100	3.647600	-10.905000	24.717626	0.000998	20.842030
943.257138	-3.011000	3.646300	-10.978000	24.741687	0.000996	20.844838
944.259871	-2.999500	3.646900	-10.937000	24.738741	0.000999	20.852787
945.263656	-3.011900	3.645900	-10.980000	24.739867	0.000996	20.859132
946.256799	-2.987000	3.645800	-10.889000	24.741731	0.000997	20.841089
947.261212	-2.975300	3.645400	-10.846000	24.778825	0.000994	20.846072
948.261442	-3.023000	3.644600	-11.017000	24.768593	0.000995	20.856192
949.265821	-3.008100	3.644000	-10.961000	24.765913	0.000996	20.842123
950.260942	-3.003000	3.643100	-10.939000	24.753130	0.000994	20.851580
951.259981	-2.990600	3.644500	-10.898000	24.774133	0.000994	20.865070
952.262366	-2.999600	3.644900	-10.931000	24.792534	0.000993	20.850346
953.244346	-3.001200	3.643600	-10.934000	24.792585	0.000993	20.857510
954.266799	-2.992000	3.644000	-10.902000	24.810624	0.000992	20.841949
955.262999	-2.992400	3.643500	-10.901000	24.828655	0.000993	20.837760
956.263342	-2.999000	3.642100	-10.921000	24.861564	0.000992	20.847553
957.268467	-2.994700	3.643400	-10.910000	24.860482	0.000993	20.854528
958.270288	-2.988100	3.643900	-10.887000	24.852167	0.000992	20.836700
959.270518	-2.998000	3.642900	-10.920000	24.828570	0.000991	20.872286
960.267633	-2.998600	3.641600	-10.918000	24.836738	0.000991	20.857251
961.266978	-3.021700	3.641400	-11.003000	24.820856	0.000989	20.856010
962.246675	-3.006500	3.640200	-10.944000	24.787097	0.000990	20.843468
963.248179	-2.989700	3.641500	-10.885000	24.786598	0.000991	20.841071
964.248663	-3.012100	3.639400	-10.962000	24.800274	0.000989	20.845787
965.270975	-3.004600	3.639300	-10.934000	24.773602	0.000990	20.861692
966.248254	-3.005100	3.640000	-10.937000	24.752056	0.000988	20.850028
967.248345	-3.003000	3.639000	-10.927000	24.748062	0.000988	20.837011
968.266974	-3.028800	3.639800	-11.023000	24.782003	0.000987	20.870123
969.271817	-2.980600	3.639500	-10.846000	24.800292	0.000988	20.855288
970.268036	-3.010200	3.638000	-10.948000	24.855673	0.000989	20.859658
971.264393	-3.008000	3.638600	-10.944000	24.835598	0.000987	20.882183
972.272019	-3.002800	3.638200	-10.923000	24.862320	0.000986	20.858269
973.268984	-2.995500	3.638300	-10.898000	24.866864	0.000988	20.840071
974.276543	-3.009500	3.638400	-10.949000	24.880136	0.000989	20.858606
975.278386	-2.992700	3.635900	-10.879000	24.868299	0.000986	20.865218
976.273913	-2.983700	3.638500	-10.855000	24.897538	0.000986	20.855210
977.282893	-3.001800	3.637400	-10.919000	24.907957	0.000985	20.874201
978.270386	-2.990800	3.637300	-10.878000	24.913678	0.000986	20.850546
979.272596	-3.017600	3.637000	-10.972000	24.922672	0.000984	20.864314
980.273444	-3.003000	3.635200	-10.914000	24.944480	0.000986	20.861073
981.273120	-3.007400	3.636800	-10.936000	24.959022	0.000985	20.850064
982.274711	-2.993200	3.635400	-10.880000	24.972300	0.000983	20.863866
983.276959	-2.988200	3.635600	-10.863000	24.960989	0.000982	20.878590
984.283941	-2.989600	3.636600	-10.871000	24.955106	0.000982	20.861781
985.286738	-2.998800	3.635700	-10.903000	24.932061	0.000983	20.847660
986.279704	-3.010600	3.634600	-10.942000	24.912770	0.000982	20.863858
987.271052	-3.016000	3.634300	-10.960000	24.906208	0.000981	20.840678
988.277123	-3.008700	3.633100	-10.929000	24.850066	0.000983	20.869678
989.274765	-2.989600	3.634300	-10.864000	24.827440	0.000981	20.859299
990.279037	-2.983300	3.634900	-10.842000	24.811059	0.000980	20.875574
991.287415	-3.015800	3.634000	-10.957000	24.788200	0.000980	20.876341
992.275540	-2.999100	3.631800	-10.892000	24.813989	0.000981	20.867610
993.282503	-3.007500	3.633400	-10.926000	24.845961	0.000979	20.867455
994.275004	-3.008300	3.631100	-10.922000	24.832544	0.000981	20.877222
995.262994	-2.998200	3.633300	-10.893000	24.830809	0.000980	20.872637
996.282060	-2.994600	3.632200	-10.877000	24.860795	0.000980	20.888031
997.282398	-2.982900	3.632200	-10.833000	24.880098	0.000978	20.871370
998.286455	-3.029200	3.631900	-11.000000	24.911603	0.000978	20.886394
999.277364	-2.997000	3.632100	-10.884000	24.905823	0.000980	20.873955
1000.277478	-2.989400	3.632200	-10.857000	24.925373	0.000979	20.885990
1001.260682	-2.984200	3.632000	-10.837000	24.938232	0.000977	20.868551
1002.263510	-3.014400	3.632000	-10.947000	24.945207	0.000976	20.883612
1003.277907	-2.997700	3.629200	-10.878000	24.932821	0.000976	20.876870
1004.264903	-3.001300	3.629700	-10.893000	24.932950	0.000974	20.878896
1005.265459	-2.996800	3.629800	-10.877000	24.923554	0.000976	20.891275
1006.283053	-3.011600	3.627700	-10.924000	24.932109	0.000974	20.878526
1007.265760	-3.016300	3.630200	-10.949000	24.947432	0.000975	20.899595
1008.291938	-3.004200	3.628400	-10.899000	24.939745	0.000974	20.904206
1009.263977	-2.983000	3.629200	-10.825000	24.974539	0.000973	20.877492
1010.262974	-2.990100	3.628100	-10.847000	24.974694	0.000975	20.895664
1011.282122	-3.027700	3.627200	-10.980000	24.977769	0.000973	20.876466
1012.290351	-3.023300	3.626500	-10.963000	24.988574	0.000971	20.879252
1013.292671	-2.992400	3.628400	-10.856000	24.998838	0.000974	20.891923
1014.280462	-3.000800	3.627800	-10.885000	24.974240	0.000972	20.883830
1015.289872	-2.984400	3.628600	-10.827000	24.972720	0.000971	20.908854
1016.268120	-2.997000	3.625900	-10.865000	24.982485	0.000972	20.889260
1017.286467	-3.006500	3.626100	-10.901000	24.984788	0.000968	20.915277
1018.268795	-2.985600	3.626100	-10.824000	24.994682	0.000973	20.874003
1019.282057	-2.983800	3.625900	-10.817000	25.005727	0.000971	20.912114
1020.295162	-3.012400	3.625200	-10.919000	25.027955	0.000971	20.869943
1021.284361	-3.003100	3.623900	-10.882000	24.994999	0.000969	20.919836
1022.266943	-3.000000	3.625200	-10.874000	25.012322	0.000971	20.904984
1023.267289	-3.018700	3.624000	-10.939000	25.035306	0.000966	20.904821
1024.268245	-3.012900	3.623500	-10.917000	25.061278	0.000969	20.920933
1025.268159	-3.016200	3.624100	-10.930000	25.038845	0.000968	20.894149
1026.265903	-3.009200	3.622300	-10.899000	24.990844	0.000967	20.896701
1027.267829	-3.002400	3.624800	-10.883000	24.985072	0.000967	20.914614
1028.265996	-3.011200	3.623100	-10.909000	24.996298	0.000968	20.910710
1029.271914	-2.986000	3.623500	-10.819000	25.014204	0.000968	20.898813
1030.267410	-2.986400	3.623800	-10.821000	24.992571	0.000966	20.893694
1031.290773	-3.001900	3.622300	-10.873000	24.999313	0.000966	20.886237
1032.283378	-3.011000	3.620700	-10.901000	25.002173	0.000967	20.909495
1033.283118	-3.011000	3.620600	-10.901000	25.023139	0.000964	20.904935
1034.284765	-2.983900	3.622200	-10.808000	25.007318	0.000965	20.911813
1035.267932	-3.003500	3.621200	-10.876000	25.007060	0.000964	20.910132
1036.299311	-3.011100	3.619300	-10.896000	24.998025	0.000962	20.920029
1037.291809	-2.988800	3.620600	-10.820000	24.993885	0.000963	20.921562
1038.301762	-2.998100	3.620300	-10.853000	25.028239	0.000964	20.916692
1039.287793	-3.005300	3.620900	-10.881000	25.029158	0.000961	20.917614
1040.283733	-3.011800	3.619800	-10.900000	25.014558	0.000961	20.900116
1041.293233	-2.994100	3.619000	-10.834000	24.986002	0.000962	20.923607
1042.285724	-2.990800	3.619400	-10.824000	24.975823	0.000961	20.913391
1043.305891	-3.000300	3.617900	-10.854000	24.978211	0.000960	20.909624
1044.291262	-2.980000	3.618700	-10.782000	24.990124	0.000960	20.924899
1045.287278	-3.001100	3.619400	-10.861000	24.997675	0.000959	20.896919
1046.290093	-3.013300	3.618000	-10.901000	25.028180	0.000962	20.922796
1047.287883	-3.014000	3.617500	-10.901000	25.030696	0.000959	20.920581
1048.268369	-3.016200	3.617700	-10.911000	25.033531	0.000960	20.931959
1049.268762	-3.008600	3.616400	-10.879000	25.056366	0.000958	20.924062
1050.272785	-2.993900	3.615600	-10.824000	25.096250	0.000958	20.938019
1051.291324	-3.019900	3.616900	-10.920000	25.106693	0.000956	20.924322
1052.294577	-2.999300	3.616300	-10.845000	25.114826	0.000957	20.920158
1053.306618	-2.983400	3.615700	-10.786000	25.143508	0.000957	20.930459
1054.271338	-2.989300	3.615700	-10.808000	25.137719	0.000958	20.934604
1055.276052	-2.999200	3.615000	-10.840000	25.123568	0.000957	20.949793
1056.291865	-2.989400	3.617200	-10.812000	25.080833	0.000956	20.921596
1057.297484	-3.023700	3.613900	-10.926000	25.071696	0.000955	20.940397
1058.301367	-2.994500	3.616500	-10.828000	25.063304	0.000958	20.930078
1059.298975	-3.008800	3.615000	-10.876000	25.072725	0.000955	20.922466
1060.308693	-2.993600	3.613800	-10.817000	25.104553	0.000956	20.937819
1061.291723	-3.037500	3.613300	-10.974000	25.119298	0.000954	20.923225
1062.277429	-3.000800	3.614400	-10.845000	25.094737	0.000953	20.943137
1063.292480	-3.000400	3.613300	-10.840000	25.107988	0.000954	20.949801
1064.312788	-3.006000	3.612900	-10.859000	25.113339	0.000954	20.931467
1065.298643	-2.991800	3.612200	-10.806000	25.111044	0.000954	20.931533
1066.280313	-2.980900	3.611800	-10.765000	25.113785	0.000951	20.939026
1067.282878	-3.021400	3.610900	-10.909000	25.094350	0.000951	20.934689
1068.284263	-3.001100	3.611000	-10.836000	25.102372	0.000951	20.941793
1069.302084	-3.022900	3.610900	-10.915000	25.128273	0.000952	20.945982
1070.302231	-3.005500	3.611200	-10.852000	25.136516	0.000953	20.949041
1071.305128	-3.006400	3.609800	-10.852000	25.125464	0.000950	20.939845
1072.285280	-3.014800	3.610700	-10.885000	25.152335	0.000950	20.938371
1073.288040	-2.991400	3.610900	-10.801000	25.149346	0.000950	20.940111
1074.285234	-3.008600	3.610300	-10.861000	25.155538	0.000949	20.935422
1075.287011	-2.997900	3.609900	-10.821000	25.143627	0.000947	20.948119
1076.286768	-2.983800	3.610000	-10.769000	25.127173	0.000948	20.942982
1077.282542	-2.987100	3.608500	-10.778000	25.125568	0.000948	20.958438
1078.287676	-3.012500	3.608000	-10.868000	25.140287	0.000947	20.941923
1079.286473	-2.993900	3.609500	-10.806000	25.155504	0.000947	20.962886
1080.285676	-2.992000	3.608400	-10.796000	25.135254	0.000946	20.964368
1081.299407	-3.006300	3.607900	-10.845000	25.098859	0.000945	20.950119
1082.286754	-3.013300	3.607500	-10.870000	25.079176	0.000943	20.979194
1083.286258	-3.005900	3.606700	-10.840000	25.037583	0.000945	20.968738
1084.289182	-2.974800	3.609100	-10.735000	25.046214	0.000945	20.982142
1085.288207	-3.000800	3.605300	-10.817000	25.068201	0.000944	20.953482
1086.287565	-2.984800	3.608000	-10.768000	25.070777	0.000942	20.967920
1087.290293	-2.999900	3.606400	-10.818000	25.086940	0.000943	20.966601
1088.286599	-3.015600	3.606000	-10.873000	25.123224	0.000943	20.971731
1089.288124	-2.991600	3.605800	-10.785000	25.126667	0.000943	20.971394
1090.293248	-3.006200	3.604900	-10.836000	25.175600	0.000942	20.974997
1091.288961	-3.019600	3.605600	-10.886000	25.197222	0.000942	20.968257
1092.289411	-3.024100	3.605400	-10.902000	25.194388	0.000941	20.979161
1093.290047	-3.004600	3.603500	-10.824000	25.226006	0.000943	20.988616
1094.291071	-3.022500	3.602800	-10.888000	25.190739	0.000940	20.957482
1095.287404	-3.010300	3.603400	-10.846000	25.168249	0.000939	20.980894
1096.288547	-2.994000	3.603200	-10.785000	25.158906	0.000940	20.968671
1097.289246	-2.985300	3.604300	-10.759000	25.151187	0.000940	20.969456
1098.290072	-3.010100	3.603800	-10.847000	25.127021	0.000939	20.962742
1099.288818	-3.013900	3.601900	-10.855000	25.103139	0.000938	20.970060
1100.289098	-3.004700	3.600800	-10.817000	25.092379	0.000938	20.975379
1101.288800	-2.988900	3.603400	-10.769000	25.070411	0.000939	20.989834
1102.286734	-3.012200	3.602000	-10.848000	25.093574	0.000939	20.979897
1103.290412	-3.001800	3.602000	-10.810000	25.092190	0.000935	20.976612
1104.289706	-2.985600	3.602900	-10.754000	25.073452	0.000937	20.974397
1105.289737	-3.001200	3.601200	-10.807000	25.090389	0.000934	20.971012
1106.288713	-2.998600	3.600000	-10.794000	25.098504	0.000935	20.978682
1107.294660	-2.984900	3.599600	-10.743000	25.065595	0.000934	20.985001
1108.287582	-2.982800	3.599900	-10.737000	25.064410	0.000936	20.998982
1109.289020	-2.996700	3.600500	-10.788000	25.075215	0.000935	20.991338
1110.288733	-3.005400	3.600000	-10.819000	25.114814	0.000935	20.994104
1111.289764	-3.002500	3.598900	-10.804000	25.099297	0.000933	20.994649
1112.292147	-2.991800	3.598100	-10.764000	25.128058	0.000934	20.977056
1113.293102	-2.981100	3.599300	-10.727000	25.111216	0.000933	21.008034
1114.292057	-2.988200	3.598000	-10.750000	25.082208	0.000933	20.989823
1115.292148	-2.993600	3.597400	-10.768000	25.103902	0.000934	20.989315
1116.294407	-2.990900	3.597400	-10.759000	25.074462	0.000931	20.982997
1117.291185	-2.986000	3.597800	-10.742000	25.074352	0.000933	20.994737
1118.294075	-2.988800	3.597500	-10.752000	25.081385	0.000931	21.003693
1119.294777	-3.027100	3.595600	-10.883000	25.065362	0.000930	20.988085
1120.295567	-3.014800	3.595900	-10.840000	25.128079	0.000930	20.991774
1121.296197	-3.000900	3.595300	-10.788000	25.116854	0.000929	20.998997
1122.299172	-3.015400	3.597100	-10.846000	25.129677	0.000929	21.014237
1123.293156	-3.017200	3.595300	-10.847000	25.156463	0.000929	21.011256
1124.298028	-2.994000	3.596200	-10.765000	25.140766	0.000928	21.001189
1125.298245	-3.020100	3.594200	-10.853000	25.152548	0.000927	21.022022
1126.296418	-2.986000	3.595600	-10.736000	25.143592	0.000928	21.029625
1127.298616	-3.000800	3.594900	-10.787000	25.178569	0.000924	21.002156
1128.298662	-3.006600	3.594400	-10.805000	25.197091	0.000927	21.012215
1129.298153	-3.017600	3.592400	-10.838000	25.185542	0.000924	21.024800
1130.300058	-3.009600	3.592200	-10.809000	25.228960	0.000926	21.001063
1131.304625	-3.009900	3.591900	-10.810000	25.211692	0.000925	21.041566
1132.298639	-3.004400	3.590300	-10.785000	25.206386	0.000926	21.002581
1133.302552	-3.019700	3.591800	-10.845000	25.223672	0.000924	21.026570
1134.304414	-3.012300	3.592400	-10.821000	25.220470	0.000923	21.033310
1135.302764	-3.028800	3.591100	-10.877000	25.226189	0.000924	21.016296
1136.303975	-3.024000	3.590000	-10.855000	25.196479	0.000921	21.035303
1137.304878	-2.999600	3.591400	-10.772000	25.161030	0.000922	21.021055
1138.301762	-2.981700	3.592000	-10.710000	25.145145	0.000922	21.019333
1139.305850	-3.009900	3.589500	-10.803000	25.131345	0.000922	21.015437
1140.306882	-2.978100	3.593000	-10.699000	25.162045	0.000923	21.023970
1141.306386	-3.005300	3.590500	-10.790000	25.169569	0.000919	21.029151
1142.307468	-3.000700	3.591100	-10.775000	25.204751	0.000920	21.039814
1143.307630	-3.007600	3.588100	-10.791000	25.238626	0.000918	21.038736
1144.307170	-3.026900	3.589300	-10.863000	25.244544	0.000918	21.047995
1145.311206	-3.018300	3.589700	-10.834000	25.236464	0.000918	21.025188
1146.306926	-2.986200	3.589300	-10.717000	25.236379	0.000918	21.022733
1147.307500	-2.998600	3.588400	-10.760000	25.228118	0.000918	21.037669
1148.309934	-3.002000	3.587400	-10.769000	25.245644	0.000919	21.008329
1149.308018	-3.015200	3.588200	-10.817000	25.263660	0.000917	21.006977
1150.309235	-2.999700	3.586300	-10.757000	25.289771	0.000917	21.035084
1151.311800	-3.015600	3.585900	-10.811000	25.305562	0.000916	21.030077
1152.310474	-3.010600	3.585600	-10.793000	25.287402	0.000917	21.017062
1153.310462	-3.010300	3.585900	-10.794000	25.301751	0.000916	21.003496
1154.311277	-2.999800	3.584700	-10.753000	25.289498	0.000914	21.026277
1155.310513	-3.010000	3.584900	-10.790000	25.276533	0.000915	21.028432
1156.311641	-2.999500	3.586000	-10.755000	25.222325	0.000913	21.020003
1157.312345	-3.008100	3.585800	-10.786000	25.198290	0.000913	21.007729
1158.312084	-3.005500	3.583500	-10.769000	25.215979	0.000913	21.004626
1159.311819	-3.014500	3.583900	-10.801000	25.235678	0.000912	20.991215
1160.313286	-3.009500	3.583600	-10.784000	25.253960	0.000911	20.999611
1161.312730	-2.992100	3.583100	-10.720000	25.235911	0.000910	20.999981
1162.314153	-3.012500	3.581700	-10.789000	25.238958	0.000910	20.998774
1163.313747	-2.987000	3.584100	-10.703000	25.203272	0.000908	20.983811
1164.312231	-2.970800	3.582500	-10.641000	25.208149	0.000912	21.000085
1165.312743	-2.961600	3.582600	-10.610000	25.232107	0.000909	20.974829
1166.319581	-2.985900	3.582600	-10.696000	25.228904	0.000908	20.993896
1167.313357	-2.993100	3.583600	-10.725000	25.255060	0.000909	21.003085
1168.313158	-3.024500	3.580500	-10.827000	25.270095	0.000908	20.982622
1169.313501	-2.997700	3.581000	-10.733000	25.292446	0.000906	20.969503
1170.313879	-3.004000	3.580500	-10.755000	25.284347	0.000907	20.975122
1171.313659	-2.998100	3.578900	-10.729000	25.295966	0.000907	20.989155
1172.314513	-3.016600	3.580100	-10.798000	25.325684	0.000906	20.988648
1173.314694	-3.005600	3.579500	-10.757000	25.339198	0.000906	20.988466
1174.316398	-3.002700	3.580000	-10.749000	25.300920	0.000904	20.969477
1175.313457	-3.004200	3.579000	-10.751000	25.337309	0.000903	20.965236
1176.315609	-2.988800	3.578600	-10.695000	25.328163	0.000902	20.963166
1177.313352	-3.009800	3.578000	-10.768000	25.330627	0.000905	20.967537
1178.318741	-2.994600	3.578800	-10.716000	25.297227	0.000902	20.971459
1179.315386	-2.990800	3.579700	-10.705000	25.316737	0.000902	20.973503
1180.318022	-3.007700	3.576500	-10.756000	25.315243	0.000903	20.975796
1181.315605	-3.008300	3.576900	-10.759000	25.294755	0.000899	20.965185
1182.316455	-2.974700	3.579200	-10.646000	25.283344	0.000901	20.971270
1183.318399	-2.995200	3.576500	-10.710000	25.267785	0.000899	20.967977
1184.316487	-2.982200	3.577700	-10.667000	25.277437	0.000898	20.975770
1185.317282	-2.983100	3.576500	-10.667000	25.270851	0.000900	20.972951
1186.318070	-2.991500	3.576100	-10.697000	25.291269	0.000899	20.957892
1187.320541	-2.979600	3.576200	-10.655000	25.299530	0.000898	20.942954
1188.319984	-2.998700	3.576200	-10.723000	25.348041	0.000898	20.941402
1189.320558	-2.987300	3.575400	-10.679000	25.310838	0.000898	20.979433
1190.319986	-3.014700	3.574700	-10.775000	25.293390	0.000896	20.972822
1191.321959	-3.006000	3.575000	-10.746000	25.290952	0.000896	20.972270
1192.321624	-3.008000	3.576000	-10.754000	25.266291	0.000896	20.969322
1193.320007	-3.019100	3.575500	-10.794000	25.256547	0.000893	20.944369
1194.325729	-2.999800	3.572000	-10.714000	25.245614	0.000893	20.960418
1195.325845	-3.006200	3.572500	-10.739000	25.287827	0.000894	20.962022
1196.322373	-2.985100	3.572100	-10.662000	25.293014	0.000895	20.962014
1197.324053	-3.001000	3.571600	-10.717000	25.284908	0.000893	20.951981
1198.325691	-2.998600	3.573100	-10.713000	25.276511	0.000894	20.964885
1199.322170	-2.990400	3.572600	-10.682000	25.263339	0.000893	20.985796
1200.326030	-2.979900	3.572100	-10.643000	25.306702	0.000891	20.979548
1201.325031	-2.998700	3.571900	-10.710000	25.306967	0.000890	20.952792
1202.323828	-3.003700	3.571400	-10.727000	25.324551	0.000892	20.969970
1203.326701	-2.990300	3.570200	-10.674000	25.329473	0.000891	20.974911
1204.322884	-2.982800	3.570700	-10.650000	25.341622	0.000888	20.941121
1205.322329	-2.996100	3.570000	-10.695000	25.371663	0.000891	20.957533
1206.326385	-2.998700	3.570700	-10.706000	25.396631	0.000890	20.954629
1207.328925	-3.003900	3.569700	-10.722000	25.370066	0.000889	20.957825
1208.325577	-2.997800	3.570000	-10.700000	25.362160	0.000887	20.948940
1209.327524	-3.015000	3.569600	-10.762000	25.344403	0.000887	20.965722
1210.334316	-3.001900	3.568100	-10.711000	25.357910	0.000888	20.956051
1211.323295	-2.982200	3.570400	-10.647000	25.373707	0.000886	20.952947
1212.325208	-3.004100	3.569500	-10.722000	25.376016	0.000885	20.947206
1213.323520	-3.004700	3.568800	-10.721000	25.363680	0.000885	20.940510
1214.325611	-2.986800	3.567400	-10.654000	25.353265	0.000885	20.942854
1215.331160	-2.991800	3.567200	-10.672000	25.351040	0.000884	20.937302
1216.330300	-2.990800	3.568500	-10.672000	25.344868	0.000885	20.956233
1217.325849	-3.005800	3.566200	-10.718000	25.380912	0.000885	20.940269
1218.331429	-2.997300	3.566500	-10.689000	25.310834	0.000881	20.959992
1219.328805	-2.989300	3.564400	-10.654000	25.298854	0.000883	20.952232
1220.333286	-2.993300	3.565700	-10.672000	25.286698	0.000882	20.958992
1221.329327	-3.017300	3.565300	-10.756000	25.297825	0.000881	20.947406
1222.331977	-3.007100	3.564800	-10.719000	25.285384	0.000881	20.945347
1223.326769	-3.007700	3.564100	-10.719000	25.322588	0.000881	20.943821
1224.331217	-3.005400	3.564200	-10.711000	25.354091	0.000881	20.940839
1225.333073	-3.008100	3.563600	-10.719000	25.400342	0.000878	20.935598
1226.333118	-3.002800	3.562800	-10.697000	25.391946	0.000878	20.951347
1227.335962	-3.002000	3.562100	-10.692000	25.425823	0.000877	20.932261
1228.333504	-2.990300	3.563500	-10.655000	25.445647	0.000879	20.938417
1229.330680	-3.016000	3.562000	-10.743000	25.440169	0.000876	20.930072
1230.334470	-2.993600	3.563700	-10.668000	25.471462	0.000877	20.952484
1231.334966	-3.017400	3.563400	-10.750000	25.469238	0.000876	20.920383
1232.332749	-2.997500	3.561200	-10.674000	25.473701	0.000877	20.940510
1233.335964	-3.000000	3.560400	-10.680000	25.464387	0.000876	20.942062
1234.339540	-2.997200	3.560700	-10.671000	25.474225	0.000875	20.947199
1235.332370	-2.990100	3.561800	-10.649000	25.478552	0.000874	20.941588
1236.338844	-3.012500	3.560600	-10.726000	25.471030	0.000875	20.940673
1237.338407	-3.009600	3.560300	-10.713000	25.485137	0.000874	20.939665
1238.336581	-3.025400	3.558600	-10.764000	25.518247	0.000873	20.938776
1239.347849	-2.976500	3.559900	-10.596000	25.530471	0.000873	20.943940
1240.340568	-2.984900	3.559300	-10.623000	25.542928	0.000871	20.935587
1241.336282	-2.961500	3.560300	-10.542000	25.525517	0.000871	20.938491
1242.343799	-3.006400	3.559900	-10.702000	25.499213	0.000871	20.938628
1243.342969	-2.992900	3.557900	-10.647000	25.489006	0.000869	20.933595
1244.336493	-3.009700	3.557600	-10.707000	25.494447	0.000871	20.938110
1245.340658	-2.997600	3.558400	-10.665000	25.492972	0.000870	20.935206
1246.341837	-3.033400	3.556500	-10.787000	25.505170	0.000870	20.919009
1247.339979	-3.000800	3.557700	-10.675000	25.493141	0.000870	20.927791
1248.342653	-3.001900	3.556500	-10.676000	25.457042	0.000868	20.913827
1249.343424	-2.971500	3.556400	-10.567000	25.437295	0.000867	20.917231
1250.341711	-2.991800	3.556300	-10.639000	25.396782	0.000866	20.917327
1251.343021	-2.991000	3.556100	-10.635000	25.355287	0.000867	20.928765
1252.343585	-2.999800	3.556600	-10.668000	25.367804	0.000867	20.915731
1253.344270	-2.994700	3.555700	-10.647000	25.371574	0.000866	20.912879
1254.342570	-3.000000	3.554500	-10.663000	25.362267	0.000865	20.933402
1255.342989	-2.995800	3.555400	-10.650000	25.365889	0.000866	20.919972
1256.345086	-3.000000	3.555400	-10.664000	25.416545	0.000864	20.918679
1257.343158	-2.990900	3.556800	-10.636000	25.426701	0.000862	20.929350
1258.345968	-3.022100	3.552100	-10.733000	25.465659	0.000862	20.931961
1259.340548	-3.015600	3.552800	-10.713000	25.441663	0.000863	20.898385
1260.345154	-3.015500	3.552400	-10.711000	25.412018	0.000863	20.946847
1261.344813	-2.985300	3.552800	-10.605000	25.396900	0.000861	20.908912
1262.340857	-3.005400	3.552600	-10.676000	25.375607	0.000861	20.929254
1263.350404	-3.000800	3.552500	-10.659000	25.384029	0.000859	20.916375
1264.344438	-2.986500	3.552400	-10.608000	25.394923	0.000860	20.927313
1265.339782	-2.979900	3.553700	-10.588000	25.384741	0.000862	20.900970
1266.343905	-3.018800	3.551500	-10.720000	25.386398	0.000860	20.936295
1267.350038	-2.996100	3.551000	-10.639000	25.415202	0.000859	20.946251
1268.339509	-2.981300	3.552100	-10.587000	25.411166	0.000860	20.924183
1269.344444	-3.018000	3.549700	-10.712000	25.391703	0.000856	20.912227
1270.345472	-2.990400	3.550500	-10.616000	25.395823	0.000857	20.904985
1271.341138	-2.981900	3.552000	-10.590000	25.396793	0.000855	20.917812
1272.350980	-3.010500	3.549400	-10.684000	25.386619	0.000856	20.904278
1273.341909	-3.005200	3.549100	-10.665000	25.352911	0.000856	20.913105
1274.347211	-3.011300	3.548100	-10.683000	25.312590	0.000857	20.929517
1275.348172	-2.983700	3.548400	-10.586000	25.328012	0.000854	20.918449
1276.344234	-3.017600	3.546800	-10.702000	25.296276	0.000852	20.918827
1277.347831	-2.988300	3.548500	-10.602000	25.297168	0.000855	20.914034
1278.348826	-3.017100	3.547400	-10.701000	25.262358	0.000854	20.926498
1279.346585	-2.986600	3.548000	-10.595000	25.254750	0.000853	20.911275
1280.347400	-2.994700	3.546700	-10.620000	25.280278	0.000852	20.914145
1281.350085	-2.991500	3.546400	-10.608000	25.318633	0.000852	20.904293
1282.346084	-2.991300	3.548000	-10.611000	25.341282	0.000853	20.900481
1283.349802	-2.991000	3.545800	-10.604000	25.395296	0.000851	20.900189
1284.352172	-3.013600	3.546300	-10.687000	25.417729	0.000851	20.921764
1285.346216	-2.998200	3.544900	-10.628000	25.437749	0.000849	20.927643
1286.350379	-3.001500	3.544800	-10.639000	25.435938	0.000851	20.910653
1287.350068	-3.018500	3.543100	-10.693000	25.400918	0.000849	20.921953
1288.344820	-2.996500	3.543400	-10.617000	25.408953	0.000847	20.914375
1289.350433	-3.006700	3.544100	-10.655000	25.392924	0.000846	20.891170
1290.349389	-3.016600	3.543400	-10.688000	25.385239	0.000847	20.907634
1291.351315	-3.000100	3.543000	-10.628000	25.385704	0.000846	20.895300
1292.349715	-2.990000	3.544000	-10.596000	25.361887	0.000845	20.910264
1293.351198	-2.994500	3.544400	-10.613000	25.363956	0.000845	20.910445
1294.350955	-3.014600	3.542100	-10.677000	25.351524	0.000846	20.913608
1295.357457	-3.007100	3.542400	-10.652000	25.329510	0.000844	20.887240
1296.350022	-2.995200	3.543200	-10.611000	25.324153	0.000847	20.888025
1297.348860	-3.004900	3.541600	-10.641000	25.308997	0.000843	20.901256
1298.352512	-2.996300	3.540900	-10.608000	25.343547	0.000843	20.898015
1299.354453	-3.012200	3.541400	-10.666000	25.361518	0.000841	20.910367
1300.350647	-2.988600	3.541400	-10.583000	25.373847	0.000842	20.906152
1301.355740	-2.986800	3.540100	-10.573000	25.362960	0.000841	20.902808
1302.356001	-2.981200	3.540200	-10.553000	25.367897	0.000842	20.891644
1303.353678	-2.997300	3.538100	-10.603000	25.347643	0.000842	20.893118
1304.356945	-3.004400	3.538700	-10.631000	25.356143	0.000840	20.898807
1305.355330	-2.980500	3.538200	-10.544000	25.363226	0.000839	20.892644
1306.353757	-3.010400	3.537700	-10.648000	25.312671	0.000839	20.891196
1307.359097	-3.011100	3.539300	-10.656000	25.306687	0.000839	20.909367
1308.354805	-3.002900	3.537500	-10.621000	25.260406	0.000838	20.888506
1309.359240	-2.982300	3.537800	-10.550000	25.245449	0.000836	20.902411
1310.358255	-2.987200	3.539700	-10.572000	25.239412	0.000839	20.892084
1311.359010	-2.999300	3.536500	-10.607000	25.216854	0.000837	20.904048
1312.359347	-3.008600	3.536300	-10.638000	25.196940	0.000836	20.876946
1313.358998	-3.007700	3.535700	-10.634000	25.233324	0.000835	20.909204
1314.359466	-3.000900	3.537900	-10.616000	25.254894	0.000835	20.910471
1315.364852	-3.015700	3.534000	-10.655000	25.267723	0.000833	20.886369
1316.364134	-3.024900	3.534500	-10.690000	25.289343	0.000832	20.892903
1317.359729	-3.025200	3.533700	-10.690000	25.321268	0.000834	20.887499
1318.364353	-3.005000	3.535200	-10.623000	25.327329	0.000834	20.892636
1319.364851	-2.982900	3.534700	-10.542000	25.308440	0.000833	20.862767
1320.362694	-2.986400	3.533600	-10.552000	25.326573	0.000833	20.889507
1321.363615	-3.006500	3.534500	-10.626000	25.337932	0.000832	20.879102
1322.361821	-2.991500	3.533400	-10.569000	25.376544	0.000831	20.890844
1323.362823	-3.006800	3.533500	-10.623000	25.357087	0.000831	20.879843
1324.366135	-3.001700	3.533200	-10.605000	25.367210	0.000829	20.891903
1325.366858	-3.027900	3.533300	-10.697000	25.379669	0.000831	20.887817
1326.361646	-3.008400	3.533000	-10.627000	25.399734	0.000827	20.890895
1327.366616	-3.017000	3.530500	-10.651000	25.392160	0.000828	20.872860
1328.368639	-3.012400	3.530800	-10.635000	25.406326	0.000829	20.884239
1329.361717	-2.990700	3.531300	-10.560000	25.441903	0.000829	20.885351
1330.369647	-3.022700	3.530100	-10.670000	25.423798	0.000828	20.884713
1331.367226	-3.012900	3.529700	-10.634000	25.407193	0.000827	20.878472
1332.367934	-2.991600	3.531000	-10.562000	25.396598	0.000826	20.896755
1333.369482	-2.965800	3.531300	-10.472000	25.427110	0.000825	20.893729
1334.369469	-2.996300	3.531100	-10.578000	25.451871	0.000826	20.893462
1335.363778	-2.979300	3.527600	-10.507000	25.449030	0.000825	20.887291
1336.367613	-2.972600	3.530700	-10.495000	25.425841	0.000824	20.866378
1337.368232	-3.002900	3.528300	-10.593000	25.432013	0.000823	20.896755
1338.370241	-3.032000	3.527400	-10.693000	25.439310	0.000823	20.869471
1339.369963	-3.021300	3.527500	-10.657000	25.506532	0.000822	20.874861
1340.371870	-3.004700	3.529000	-10.603000	25.489541	0.000822	20.857800
1341.372167	-2.984900	3.529100	-10.532000	25.492736	0.000823	20.873809
1342.371788	-3.011600	3.526800	-10.620000	25.489301	0.000823	20.870834
1343.371546	-3.013100	3.525900	-10.623000	25.468991	0.000821	20.894533
1344.371729	-3.008900	3.527300	-10.612000	25.463144	0.000821	20.871594
1345.375280	-2.998500	3.526400	-10.572000	25.508420	0.000821	20.885291
1346.373254	-2.983600	3.526600	-10.521000	25.521873	0.000820	20.869879
1347.375445	-3.001800	3.524500	-10.577000	25.536723	0.000820	20.862508
1348.370615	-2.994100	3.526700	-10.559000	25.562005	0.000816	20.863241
1349.375998	-3.001500	3.526700	-10.583000	25.581414	0.000818	20.859026
1350.374788	-2.996200	3.525300	-10.562000	25.520585	0.000817	20.874750
1351.376195	-2.997600	3.524300	-10.563000	25.535215	0.000816	20.859096
1352.372631	-3.012200	3.522200	-10.608000	25.525727	0.000817	20.864741
1353.371955	-2.989000	3.524700	-10.534000	25.520036	0.000816	20.876094
1354.374297	-3.007300	3.522400	-10.592000	25.520379	0.000817	20.871697
1355.374122	-3.008400	3.523700	-10.599000	25.528656	0.000816	20.875742
1356.377867	-3.002700	3.522300	-10.576000	25.530965	0.000814	20.870001
1357.374255	-3.005700	3.522900	-10.588000	25.545336	0.000813	20.859778
1358.379400	-2.994700	3.521100	-10.543000	25.554727	0.000814	20.866838
1359.373903	-2.995300	3.521500	-10.546000	25.551551	0.000811	20.856062
1360.377520	-2.998900	3.522500	-10.562000	25.566866	0.000815	20.862433
1361.377508	-2.983300	3.521100	-10.502000	25.575416	0.000811	20.869123
1362.373003	-3.021500	3.521500	-10.639000	25.558154	0.000811	20.879761
1363.373894	-3.011000	3.518400	-10.593000	25.580790	0.000812	20.859348
1364.374612	-3.000100	3.519700	-10.559000	25.548265	0.000810	20.873149
1365.375638	-2.987100	3.519800	-10.513000	25.551776	0.000811	20.879520
1366.373728	-2.998300	3.518400	-10.547000	25.573838	0.000809	20.860426
1367.374423	-2.992200	3.517900	-10.525000	25.566678	0.000808	20.856555
1368.375231	-2.978400	3.519500	-10.481000	25.605230	0.000807	20.861133
1369.378345	-3.023800	3.517900	-10.636000	25.611814	0.000807	20.865849
1370.381039	-3.001800	3.518800	-10.561000	25.573314	0.000807	20.847098
1371.377946	-2.980400	3.519600	-10.488000	25.571650	0.000806	20.860600
1372.383669	-2.981100	3.518400	-10.487000	25.566774	0.000806	20.848117
1373.378377	-3.008300	3.517300	-10.580000	25.576578	0.000806	20.854169
1374.382934	-2.989200	3.516000	-10.509000	25.577899	0.000806	20.864978
1375.380666	-2.979500	3.516600	-10.476000	25.526694	0.000805	20.866660
1376.384274	-2.990600	3.516700	-10.516000	25.520556	0.000805	20.857177
1377.380902	-3.004100	3.516100	-10.561000	25.487188	0.000805	20.835523
1378.382212	-2.998000	3.515300	-10.538000	25.419640	0.000805	20.847350
1379.378670	-3.006200	3.514600	-10.564000	25.419348	0.000804	20.836152
1380.379417	-2.985100	3.514100	-10.489000	25.393676	0.000802	20.851625
1381.384090	-3.010500	3.514400	-10.577000	25.400752	0.000804	20.845454
1382.381038	-3.000500	3.513100	-10.539000	25.399542	0.000802	20.832859
1383.380639	-2.996300	3.513500	-10.526000	25.400512	0.000802	20.858488
1384.385107	-3.009200	3.513000	-10.571000	25.415726	0.000799	20.853377
1385.384485	-2.992700	3.512400	-10.510000	25.396417	0.000800	20.824506
1386.392785	-3.034500	3.511700	-10.655000	25.374651	0.000800	20.838212
1387.385623	-3.014700	3.510500	-10.582000	25.411476	0.000798	20.832515
1388.386854	-3.009600	3.512400	-10.571000	25.415261	0.000798	20.846746
1389.383044	-2.999100	3.510300	-10.527000	25.423443	0.000798	20.826040
1390.384866	-2.991800	3.511700	-10.505000	25.382129	0.000799	20.845246
1391.383625	-2.979800	3.511000	-10.460000	25.392407	0.000798	20.852721
1392.383564	-2.991300	3.510200	-10.500000	25.377614	0.000796	20.845928
1393.388056	-3.038500	3.508500	-10.659000	25.405706	0.000795	20.846635
1394.389779	-3.017600	3.510900	-10.593000	25.370925	0.000794	20.858651
1395.384531	-2.987600	3.510400	-10.487000	25.388449	0.000795	20.823617
1396.389073	-3.026900	3.509000	-10.620000	25.382963	0.000796	20.863626
1397.389318	-2.994500	3.508900	-10.505000	25.388604	0.000793	20.835152
1398.394700	-3.011900	3.508500	-10.566000	25.389050	0.000793	20.842238
1399.388962	-2.986900	3.508000	-10.476000	25.384121	0.000796	20.855307
1400.392405	-2.997200	3.508400	-10.515000	25.393145	0.000793	20.829755
1401.390053	-3.015700	3.506500	-10.574000	25.385531	0.000792	20.828748
1402.389206	-2.994100	3.506400	-10.497000	25.375776	0.000791	20.851195
1403.388150	-3.014800	3.504600	-10.564000	25.354630	0.000791	20.837075
1404.394164	-2.994400	3.507400	-10.502000	25.376120	0.000790	20.815031
1405.391281	-2.984900	3.506500	-10.466000	25.388002	0.000791	20.830755
1406.391573	-2.999500	3.504800	-10.511000	25.388397	0.000790	20.826884
1407.390329	-3.009500	3.505300	-10.547000	25.432304	0.000791	20.813601
1408.389379	-2.980600	3.505600	-10.448000	25.442228	0.000789	20.857703
1409.395034	-3.012200	3.505500	-10.558000	25.458754	0.000788	20.831626
1410.389371	-3.037800	3.503900	-10.643000	25.449543	0.000787	20.876901
1411.393795	-3.020600	3.501900	-10.576000	25.455165	0.000787	20.849358
1412.389107	-3.015400	3.503600	-10.564000	25.483488	0.000787	20.821376
1413.390878	-3.009700	3.502300	-10.540000	25.456839	0.000786	20.824962
1414.393682	-2.972900	3.502800	-10.412000	25.459381	0.000786	20.831781
1415.392766	-2.981000	3.502800	-10.441000	25.444031	0.000785	20.833437
1416.392136	-3.000300	3.502800	-10.508000	25.438236	0.000786	20.834730
1417.394509	-2.990300	3.502600	-10.473000	25.436923	0.000784	20.836256
1418.395456	-3.012000	3.500900	-10.544000	25.423443	0.000784	20.813238
1419.393286	-3.003600	3.501000	-10.514000	25.408480	0.000781	20.845153
1420.396754	-2.996900	3.501600	-10.493000	25.400195	0.000783	20.846791
1421.391137	-2.993400	3.501200	-10.480000	25.395938	0.000784	20.838249
1422.391833	-2.990800	3.500500	-10.468000	25.424432	0.000782	20.833670
1423.395725	-3.012000	3.498300	-10.536000	25.425712	0.000781	20.842068
1424.396849	-2.997500	3.499600	-10.488000	25.412679	0.000781	20.845576
1425.393095	-3.007800	3.499200	-10.523000	25.454309	0.000783	20.828585
1426.393430	-2.991700	3.499300	-10.468000	25.459056	0.000780	20.832404
1427.397613	-2.981200	3.499600	-10.432000	25.445337	0.000780	20.846602
1428.395860	-3.017300	3.498900	-10.557000	25.442478	0.000780	20.833300
1429.396539	-2.990500	3.498100	-10.460000	25.427317	0.000780	20.848895
1430.403494	-3.022400	3.496600	-10.565000	25.454711	0.000778	20.821402
1431.396493	-3.005600	3.495800	-10.507000	25.440427	0.000779	20.835508
1432.399217	-3.004800	3.496100	-10.504000	25.484923	0.000776	20.837041
1433.400169	-3.017500	3.496800	-10.551000	25.511260	0.000778	20.850687
1434.396576	-3.015600	3.496400	-10.543000	25.521142	0.000778	20.850654
1435.403115	-2.991600	3.496300	-10.458000	25.559788	0.000776	20.832567
1436.403701	-3.007300	3.494500	-10.508000	25.559283	0.000776	20.839645
1437.397660	-2.995700	3.494400	-10.467000	25.536911	0.000777	20.852740
1438.403756	-2.983200	3.494300	-10.422000	25.503027	0.000775	20.840997
1439.404816	-2.972200	3.495900	-10.389000	25.479282	0.000774	20.847024
1440.398654	-2.991200	3.493000	-10.447000	25.449406	0.000774	20.832196
1441.400731	-3.014100	3.491200	-10.521000	25.449439	0.000775	20.843135
1442.399461	-2.993800	3.493300	-10.457000	25.487704	0.000775	20.829403
1443.402177	-2.988200	3.492900	-10.436000	25.492407	0.000773	20.856885
1444.402244	-3.026800	3.493900	-10.574000	25.477136	0.000772	20.822584
1445.399719	-3.002500	3.492200	-10.485000	25.453364	0.000773	20.840912
1446.403089	-3.016600	3.490700	-10.529000	25.446865	0.000770	20.857144
1447.404542	-2.991900	3.491600	-10.445000	25.452188	0.000772	20.835937
1448.400785	-2.992800	3.490500	-10.445000	25.465966	0.000771	20.845505
1449.403460	-2.998600	3.491700	-10.467000	25.430286	0.000769	20.837178
1450.405476	-2.986600	3.489800	-10.421000	25.448436	0.000770	20.850187
1451.400735	-3.004100	3.489900	-10.483000	25.439310	0.000769	20.841023
1452.403171	-2.981400	3.489000	-10.401000	25.433488	0.000768	20.840394
1453.403499	-2.995300	3.489900	-10.452000	25.453287	0.000768	20.848895
1454.402891	-3.002800	3.487700	-10.471000	25.487025	0.000769	20.840101
1455.401886	-2.980000	3.488000	-10.393000	25.480972	0.000767	20.841134
1456.414396	-3.026000	3.487600	-10.553000	25.472251	0.000767	20.836171
1457.406258	-3.020600	3.486800	-10.531000	25.478965	0.000765	20.853817
1458.407990	-2.953400	3.489300	-10.304000	25.448100	0.000765	20.856488
1459.407035	-2.975900	3.487500	-10.377000	25.442984	0.000766	20.860833
1460.404688	-2.980900	3.487100	-10.393000	25.482174	0.000764	20.847083
1461.405645	-2.984500	3.487600	-10.407000	25.458798	0.000763	20.859644
1462.410313	-3.002300	3.486800	-10.468000	25.416637	0.000763	20.855714
1463.405998	-2.985700	3.485900	-10.407000	25.398778	0.000765	20.851058
1464.406037	-3.006300	3.485400	-10.477000	25.382166	0.000762	20.846231
1465.409811	-3.010500	3.484700	-10.490000	25.380473	0.000763	20.848798
1466.408201	-2.995400	3.485000	-10.439000	25.368900	0.000761	20.867997
1467.419230	-3.003500	3.484000	-10.463000	25.389858	0.000762	20.872920
1468.415475	-2.988900	3.484200	-10.412000	25.422019	0.000761	20.858748
1469.408339	-2.983100	3.485400	-10.397000	25.438358	0.000759	20.877998
1470.414905	-2.995500	3.483800	-10.435000	25.457278	0.000759	20.852903
1471.410893	-3.008400	3.484300	-10.481000	25.476320	0.000759	20.859696
1472.410647	-2.987000	3.483600	-10.405000	25.480227	0.000759	20.855558
1473.414768	-3.023100	3.480100	-10.518000	25.461624	0.000761	20.854895
1474.414593	-3.006400	3.481600	-10.465000	25.439251	0.000758	20.873205
1475.411235	-2.986000	3.480800	-10.392000	25.413616	0.000757	20.890136
1476.410588	-3.019800	3.480600	-10.509000	25.374223	0.000758	20.857696
1477.416974	-3.002400	3.480800	-10.449000	25.351841	0.000756	20.874575
1478.420889	-3.000400	3.480600	-10.442000	25.332162	0.000755	20.864300
1479.417555	-2.985700	3.479700	-10.388000	25.345126	0.000757	20.868308
1480.416961	-2.990700	3.479100	-10.404000	25.368996	0.000756	20.862878
1481.422761	-2.984200	3.478000	-10.378000	25.388460	0.000754	20.863930
1482.419384	-2.975400	3.478800	-10.349000	25.436838	0.000754	20.877894
1483.419882	-2.985900	3.477400	-10.382000	25.469024	0.000755	20.888877
1484.418578	-2.975700	3.479200	-10.351000	25.502935	0.000755	20.897800
1485.415669	-2.985300	3.476600	-10.378000	25.505063	0.000752	20.875757
1486.420501	-3.007800	3.478300	-10.461000	25.518782	0.000753	20.865826
1487.415419	-3.000400	3.475300	-10.425000	25.554786	0.000752	20.891551
1488.420693	-3.019000	3.475100	-10.490000	25.559489	0.000752	20.884895
1489.422350	-3.017400	3.474900	-10.484000	25.558718	0.000751	20.871319
1490.416896	-2.985800	3.476000	-10.378000	25.561241	0.000749	20.884284
1491.420425	-3.014300	3.474600	-10.473000	25.507468	0.000752	20.882439
1492.425693	-3.006700	3.474800	-10.447000	25.495852	0.000751	20.881680
1493.420566	-3.006900	3.474900	-10.447000	25.481267	0.000751	20.899274
1494.419804	-2.979400	3.475700	-10.355000	25.508903	0.000749	20.898577
1495.425676	-3.002200	3.475400	-10.431000	25.532441	0.000750	20.878120
1496.427339	-3.011500	3.473600	-10.459000	25.521349	0.000750	20.889266
1497.420938	-2.994600	3.472200	-10.397000	25.534750	0.000748	20.877120
1498.421213	-2.993900	3.472700	-10.396000	25.561422	0.000746	20.891103
1499.425125	-3.009400	3.472500	-10.449000	25.598539	0.000748	20.885706
1500.428239	-3.010600	3.471800	-10.450000	25.593877	0.000748	20.866326
1501.421635	-3.002900	3.470600	-10.421000	25.578529	0.000747	20.876516
1502.422467	-2.987600	3.472500	-10.374000	25.536329	0.000746	20.871119
1503.422705	-2.970400	3.472400	-10.313000	25.515469	0.000746	20.876724
1504.426882	-3.021000	3.470100	-10.482000	25.544097	0.000745	20.884610
1505.425811	-3.008100	3.469400	-10.436000	25.572495	0.000745	20.879465
1506.429502	-2.981900	3.470400	-10.347000	25.578898	0.000744	20.884947
1507.424118	-2.984400	3.469200	-10.351000	25.581672	0.000745	20.891525
1508.423730	-2.999000	3.469400	-10.404000	25.613466	0.000743	20.890266
1509.425970	-3.001900	3.469100	-10.413000	25.625158	0.000744	20.900585
1510.424750	-2.994300	3.469300	-10.386000	25.625767	0.000743	20.889817
1511.429761	-3.022700	3.467000	-10.478000	25.632771	0.000742	20.901118
1512.428593	-3.020600	3.466700	-10.470000	25.643131	0.000742	20.900144
1513.430772	-3.012700	3.467600	-10.446000	25.667912	0.000743	20.889473
1514.431127	-3.015500	3.465900	-10.450000	25.683834	0.000741	20.893610
1515.426882	-2.988900	3.468300	-10.364000	25.706486	0.000740	20.912093
1516.430089	-2.984900	3.466000	-10.345000	25.740844	0.000742	20.902033
1517.427139	-2.997000	3.465700	-10.385000	25.754002	0.000741	20.909086
1518.431926	-2.976200	3.465500	-10.311000	25.731841	0.000739	20.905319
1519.429604	-3.003200	3.465700	-10.407000	25.686652	0.000737	20.901181
1520.430412	-2.997400	3.463600	-10.380000	25.662524	0.000738	20.904448
1521.428033	-3.006400	3.465300	-10.416000	25.642877	0.000740	20.883295
1522.428319	-3.010100	3.462500	-10.421000	25.657253	0.000738	20.887777
1523.432579	-3.010900	3.463800	-10.428000	25.673400	0.000737	20.905889
1524.431221	-2.989400	3.464100	-10.354000	25.677358	0.000736	20.903700
1525.430011	-2.969400	3.464600	-10.287000	25.700147	0.000735	20.933698
1526.433407	-2.977900	3.463600	-10.314000	25.715065	0.000736	20.899374
1527.433972	-2.985700	3.464100	-10.341000	25.750650	0.000734	20.912830
1528.430494	-2.969400	3.463100	-10.283000	25.756340	0.000736	20.901478
1529.431087	-2.986300	3.460500	-10.333000	25.768923	0.000734	20.902263
1530.432785	-3.024800	3.460000	-10.464000	25.785736	0.000734	20.898289
1531.429680	-2.992000	3.461600	-10.356000	25.749835	0.000734	20.912486
1532.434277	-3.013100	3.460400	-10.425000	25.740508	0.000733	20.916868
1533.431243	-2.985300	3.460500	-10.329000	25.716562	0.000732	20.927902
1534.439434	-3.004800	3.460000	-10.395000	25.687895	0.000732	20.916653
1535.431324	-3.007700	3.459100	-10.403000	25.650773	0.000733	20.922516
1536.435205	-2.980700	3.459400	-10.310000	25.624369	0.000731	20.925868
1537.434914	-3.011500	3.456500	-10.408000	25.641486	0.000731	20.922198
1538.434487	-2.994800	3.458500	-10.357000	25.609881	0.000730	20.922698
1539.436570	-2.993800	3.458600	-10.353000	25.647591	0.000730	20.913631
1540.434402	-2.999800	3.457600	-10.372000	25.707914	0.000728	20.926802
1541.435483	-3.029000	3.455500	-10.465000	25.716352	0.000730	20.931010
1542.432313	-2.990500	3.458100	-10.341000	25.681179	0.000728	20.946414
1543.435868	-3.021100	3.456800	-10.442000	25.648288	0.000729	20.928554
1544.436737	-2.998900	3.457300	-10.367000	25.614632	0.000725	20.928417
1545.438079	-2.977300	3.456100	-10.288000	25.584177	0.000727	20.924857
1546.434822	-3.006700	3.454700	-10.385000	25.542998	0.000728	20.939451
1547.437003	-3.012700	3.455500	-10.410000	25.519811	0.000725	20.937977
1548.439291	-3.007700	3.454100	-10.388000	25.503964	0.000726	20.911634
1549.435802	-3.000800	3.454900	-10.366000	25.484399	0.000728	20.925176
1550.437742	-3.001600	3.453700	-10.366000	25.504204	0.000726	20.949803
1551.439084	-3.006100	3.452800	-10.379000	25.529959	0.000724	20.934417
1552.436401	-3.007400	3.452100	-10.382000	25.550287	0.000723	20.926858
1553.439349	-2.987600	3.452900	-10.315000	25.583387	0.000724	20.939236
1554.439364	-3.000800	3.452700	-10.360000	25.617819	0.000722	20.938255
1555.442980	-2.993400	3.453300	-10.336000	25.620522	0.000723	20.947133
1556.443079	-3.011700	3.451500	-10.394000	25.640480	0.000724	20.940625
1557.437848	-2.992600	3.450700	-10.326000	25.644600	0.000721	20.949977
1558.441692	-2.986600	3.450700	-10.305000	25.645433	0.000725	20.939910
1559.446565	-3.002800	3.450700	-10.360000	25.624480	0.000723	20.954426
1560.442946	-2.996800	3.450400	-10.339000	25.633889	0.000722	20.937799
1561.439303	-2.985600	3.449600	-10.298000	25.657527	0.000721	20.943521
1562.440364	-3.000800	3.449300	-10.350000	25.695526	0.000722	20.957978
1563.444163	-2.995200	3.448500	-10.328000	25.740339	0.000719	20.934714
1564.445679	-2.986900	3.448500	-10.298000	25.718126	0.000718	20.968822
1565.441452	-3.012400	3.447700	-10.385000	25.697116	0.000718	20.951989
1566.440698	-2.995800	3.448300	-10.330000	25.712093	0.000719	20.950911
1567.440477	-2.994100	3.447300	-10.321000	25.713955	0.000718	20.949463
1568.442774	-3.003100	3.448200	-10.354000	25.694858	0.000715	20.947351
1569.442737	-3.005100	3.447200	-10.359000	25.725226	0.000715	20.944662
1570.440058	-2.986300	3.445400	-10.288000	25.739258	0.000715	20.951644
1571.443811	-2.981800	3.446500	-10.276000	25.734272	0.000716	20.964652
1572.441976	-2.986700	3.448000	-10.296000	25.750580	0.000717	20.971548
1573.447791	-2.992700	3.445800	-10.311000	25.781367	0.000716	20.965489
1574.443146	-2.983600	3.445700	-10.280000	25.764561	0.000713	20.972315
1575.449934	-3.012200	3.443600	-10.371000	25.753018	0.000714	20.947448
1576.444212	-3.010300	3.443300	-10.364000	25.717820	0.000714	20.960456
1577.442678	-2.991300	3.443900	-10.301000	25.738953	0.000715	20.971249
1578.444923	-3.014500	3.443400	-10.378000	25.724850	0.000714	20.964671
1579.443029	-3.006000	3.443100	-10.349000	25.731709	0.000712	20.971560
1580.447553	-2.982300	3.443200	-10.267000	25.744403	0.000715	20.963448
1581.442468	-2.987900	3.442900	-10.285000	25.697617	0.000711	20.960552
1582.443193	-2.988300	3.442300	-10.285000	25.674349	0.000711	20.989808
1583.443866	-2.976000	3.441600	-10.241000	25.650848	0.000712	20.975215
1584.447893	-2.984700	3.441500	-10.271000	25.627217	0.000709	20.988938
1585.443643	-2.986400	3.442800	-10.279000	25.611424	0.000710	20.977345
1586.445876	-2.996700	3.441900	-10.313000	25.604335	0.000709	20.973545
1587.444415	-2.987100	3.440200	-10.275000	25.597836	0.000707	20.980293
1588.457114	-3.011400	3.440800	-10.361000	25.594110	0.000708	20.973234
1589.448752	-2.987400	3.440800	-10.277000	25.635804	0.000708	20.987131
1590.446305	-3.006400	3.439400	-10.339000	25.637976	0.000707	20.981253
1591.448853	-3.001100	3.437400	-10.315000	25.634432	0.000708	20.958256
1592.448661	-2.998100	3.438200	-10.307000	25.632304	0.000708	20.984564
1593.445593	-3.010700	3.438200	-10.349000	25.665848	0.000706	20.980323
1594.447660	-3.014800	3.437300	-10.361000	25.675556	0.000705	20.990071
1595.450638	-3.013300	3.436400	-10.354000	25.701830	0.000706	20.979005
1596.446002	-3.010200	3.437500	-10.346000	25.695376	0.000706	20.967782
1597.449995	-3.000200	3.436300	-10.309000	25.668202	0.000705	20.976523
1598.451186	-3.004300	3.436700	-10.323000	25.643129	0.000703	20.990694
1599.452495	-3.001500	3.435500	-10.310000	25.601130	0.000704	20.974120
1600.448365	-2.996900	3.436400	-10.297000	25.591868	0.000704	20.995635
1601.447235	-3.003100	3.435200	-10.315000	25.581482	0.000703	20.998953
1602.446924	-2.990500	3.435000	-10.271000	25.570571	0.000704	21.001746
1603.450836	-2.973500	3.434300	-10.211000	25.596649	0.000702	20.994746
1604.448040	-2.993400	3.433800	-10.278000	25.595645	0.000701	20.992790
1605.450718	-3.012000	3.433900	-10.342000	25.631013	0.000702	20.993224
1606.449649	-2.973500	3.434100	-10.210000	25.657904	0.000701	21.012168
1607.447670	-2.979700	3.432600	-10.227000	25.619580	0.000699	20.998335
1608.450748	-3.005900	3.431400	-10.313000	25.618790	0.000699	21.010342
1609.450291	-2.989400	3.431900	-10.257000	25.610584	0.000698	20.990250
1610.451834	-2.988900	3.432800	-10.259000	25.569399	0.000700	20.993457
1611.451222	-3.017600	3.430000	-10.348000	25.580077	0.000699	21.000387
1612.447615	-2.977100	3.432100	-10.216000	25.563965	0.000698	21.012653
1613.447743	-2.981800	3.431000	-10.229000	25.579605	0.000698	21.007972
1614.447589	-2.993600	3.430700	-10.269000	25.588516	0.000698	21.015024
1615.447186	-3.017600	3.429200	-10.346000	25.601451	0.000697	20.991509
1616.452633	-2.993900	3.429800	-10.267000	25.625263	0.000697	21.017790
1617.451415	-2.981000	3.429800	-10.223000	25.620232	0.000697	21.014161
1618.453073	-2.991100	3.428400	-10.254000	25.631530	0.000694	21.016498
1619.448750	-2.987300	3.428000	-10.240000	25.622328	0.000696	21.011998
1620.451927	-2.994700	3.428300	-10.265000	25.646508	0.000695	21.021583
1621.451663	-3.015600	3.426900	-10.333000	25.676714	0.000694	21.019679
1622.451598	-2.994200	3.428500	-10.264000	25.685736	0.000694	21.006931
1623.457154	-3.002400	3.428000	-10.291000	25.683744	0.000694	21.020102
1624.456168	-3.010200	3.426600	-10.314000	25.740399	0.000694	21.019635
1625.450800	-3.011800	3.427100	-10.321000	25.736357	0.000693	21.022687
1626.454446	-3.017400	3.425700	-10.335000	25.777839	0.000693	21.011250
1627.457291	-2.999200	3.427200	-10.277000	25.762940	0.000691	21.015724
1628.451292	-2.998500	3.427200	-10.275000	25.750324	0.000690	21.024861
1629.455453	-3.031600	3.424800	-10.381000	25.716129	0.000691	21.031290
1630.455082	-3.014200	3.424300	-10.321000	25.728078	0.000692	21.024802
1631.452927	-2.996700	3.424900	-10.262000	25.749140	0.000691	21.032205
1632.457088	-3.015300	3.423900	-10.323000	25.764563	0.000692	21.023991
1633.459352	-3.000400	3.423300	-10.270000	25.755800	0.000689	21.030835
1634.454456	-3.024800	3.423100	-10.352000	25.740584	0.000690	21.034990
1635.456546	-3.007000	3.425000	-10.297000	25.766101	0.000686	21.041653
1636.456082	-3.002000	3.423600	-10.276000	25.782545	0.000686	21.039679
1637.457191	-3.006100	3.421600	-10.285000	25.775988	0.000686	21.016028
1638.458208	-2.982200	3.421600	-10.202000	25.807006	0.000686	21.043861
1639.457627	-3.020100	3.420300	-10.328000	25.787498	0.000688	21.026639
1640.455547	-3.008200	3.422000	-10.293000	25.803359	0.000684	21.034035
1641.460895	-3.000300	3.422400	-10.267000	25.815443	0.000686	21.051386
1642.460345	-2.989300	3.421800	-10.228000	25.856567	0.000686	21.047179
1643.459398	-2.990800	3.421100	-10.230000	25.856877	0.000683	21.027106
1644.461086	-2.992100	3.419900	-10.232000	25.875337	0.000683	21.050386
1645.464655	-2.985100	3.419300	-10.206000	25.823604	0.000685	21.027820
1646.457893	-3.007000	3.419500	-10.281000	25.797565	0.000682	21.032957
1647.462498	-3.029300	3.417900	-10.353000	25.757770	0.000683	21.031865
1648.463477	-2.983600	3.418200	-10.197000	25.774384	0.000681	21.015839
1649.459779	-2.984600	3.419300	-10.204000	25.796743	0.000683	21.027865
1650.463462	-3.005900	3.417600	-10.272000	25.798159	0.000682	21.013169
1651.463547	-2.999000	3.417700	-10.248000	25.822465	0.000684	20.990173
1652.460633	-2.998700	3.416500	-10.244000	25.829313	0.000678	21.007006
1653.464377	-2.997200	3.415800	-10.237000	25.852150	0.000680	20.995810
1654.464482	-2.993300	3.416100	-10.224000	25.847327	0.000681	21.016091
1655.461745	-3.000100	3.415500	-10.246000	25.821469	0.000681	21.005292
1656.464377	-2.998100	3.417000	-10.244000	25.757442	0.000679	21.018735
1657.462342	-3.005900	3.416000	-10.268000	25.729454	0.000678	21.005325
1658.464197	-3.008400	3.415900	-10.275000	25.676996	0.000680	21.010954
1659.468298	-2.980400	3.415400	-10.178000	25.692710	0.000678	21.008247
1660.463000	-2.975000	3.416400	-10.163000	25.723841	0.000676	21.000636
1661.463810	-3.007500	3.414000	-10.267000	25.738623	0.000678	21.019747
1662.467464	-3.016500	3.414100	-10.297000	25.762963	0.000676	21.000577
1663.463681	-2.993400	3.412800	-10.215000	25.780093	0.000676	21.010669
1664.468081	-2.995600	3.413100	-10.223000	25.799671	0.000674	21.000940
1665.467274	-3.021200	3.411900	-10.307000	25.798546	0.000674	20.995069
1666.466065	-2.993100	3.413800	-10.217000	25.804340	0.000675	20.977184
1667.467638	-2.996100	3.411900	-10.222000	25.787896	0.000673	20.995277
1668.467562	-3.009700	3.411700	-10.268000	25.765426	0.000672	21.006369
1669.466796	-3.004200	3.411000	-10.246000	25.793974	0.000673	20.983366
1670.475452	-3.011100	3.410000	-10.267000	25.794368	0.000673	21.013629
1671.471109	-3.003600	3.411200	-10.244000	25.801998	0.000673	20.996166
1672.466189	-3.012200	3.409800	-10.270000	25.805775	0.000671	20.994744
1673.469354	-3.017500	3.410200	-10.290000	25.756185	0.000671	20.995192
1674.470454	-2.981400	3.411200	-10.169000	25.754924	0.000673	20.980177
1675.467066	-3.006100	3.410700	-10.252000	25.751723	0.000670	20.977436
1676.470194	-2.992100	3.409400	-10.201000	25.775480	0.000671	20.995133
1677.473882	-3.000500	3.409900	-10.230000	25.779942	0.000671	20.986340
1678.467495	-3.009000	3.407800	-10.253000	25.808290	0.000670	20.986840
1679.469945	-3.015600	3.407900	-10.275000	25.827772	0.000669	20.970377
1680.469842	-2.979500	3.408400	-10.154000	25.855491	0.000667	20.974514
1681.471931	-3.033100	3.406800	-10.332000	25.834192	0.000668	20.981566
1682.469474	-3.002200	3.405900	-10.224000	25.769919	0.000668	20.975325
1683.470422	-2.995000	3.406100	-10.200000	25.729639	0.000667	20.963792
1684.470900	-2.972800	3.406200	-10.125000	25.694854	0.000666	20.978163
1685.472630	-2.996300	3.405900	-10.204000	25.672176	0.000666	20.969136
1686.470098	-2.964200	3.407000	-10.098000	25.638255	0.000665	20.971103
1687.469722	-3.004100	3.406100	-10.230000	25.655122	0.000665	20.992307
1688.470279	-2.997900	3.405300	-10.207000	25.663490	0.000664	20.969896
1689.474117	-3.003900	3.405600	-10.229000	25.683945	0.000665	20.967207
1690.470740	-3.043000	3.402500	-10.352000	25.640667	0.000666	20.964518
1691.473466	-3.026400	3.401500	-10.294000	25.623970	0.000666	20.978092
1692.475171	-2.980800	3.405700	-10.151000	25.655749	0.000665	20.975396
1693.471448	-2.998400	3.403500	-10.204000	25.691944	0.000663	20.967655
1694.474951	-2.994900	3.403100	-10.191000	25.708706	0.000662	20.958888
1695.476830	-3.011300	3.402500	-10.245000	25.750137	0.000663	20.959725
1696.476738	-2.994800	3.402900	-10.190000	25.810823	0.000662	20.972792
1697.478994	-2.988600	3.401800	-10.166000	25.820522	0.000662	20.953614
1698.480134	-3.051100	3.400200	-10.373000	25.844783	0.000660	20.971344
1699.475628	-2.996700	3.402600	-10.195000	25.856538	0.000659	20.984573
1700.478554	-3.009700	3.400400	-10.232000	25.856214	0.000660	20.982351
1701.478763	-3.012400	3.401300	-10.245000	25.851870	0.000659	20.959973
1702.482463	-2.995400	3.399900	-10.183000	25.802024	0.000660	20.981021
1703.478981	-2.995000	3.399200	-10.179000	25.751431	0.000660	20.966240
1704.477933	-3.007100	3.398500	-10.218000	25.754795	0.000658	20.963929
1705.490868	-2.957700	3.399800	-10.055000	25.790747	0.000657	20.967325
1706.478786	-2.990500	3.400800	-10.168000	25.799793	0.000657	20.955077
1707.480355	-2.991000	3.399000	-10.165000	25.797020	0.000657	20.960825
1708.489934	-3.007300	3.398000	-10.218000	25.818092	0.000657	20.985307
1709.482558	-2.983500	3.397100	-10.134000	25.805107	0.000655	20.968948
1710.489507	-3.017800	3.395800	-10.247000	25.807689	0.000656	20.985288
1711.479142	-2.972600	3.398700	-10.102000	25.806350	0.000655	20.954077
1712.483222	-2.998400	3.395400	-10.179000	25.849879	0.000654	20.973618
1713.483391	-3.011400	3.397000	-10.229000	25.842010	0.000655	20.935846
1714.488091	-3.029300	3.395000	-10.284000	25.889320	0.000652	20.967721
1715.480832	-3.034600	3.395900	-10.304000	25.903893	0.000652	20.944906
1716.484492	-3.000900	3.396400	-10.191000	25.925792	0.000652	20.950310
1717.495406	-3.013200	3.394000	-10.226000	25.904759	0.000651	20.972799
1718.482119	-3.005500	3.395800	-10.205000	25.866871	0.000653	20.956551
1719.486887	-3.003000	3.394600	-10.193000	25.830869	0.000649	20.966851
1720.481235	-3.012700	3.393000	-10.222000	25.776217	0.000650	20.962688
1721.484647	-2.994200	3.394900	-10.164000	25.787203	0.000652	20.958551
1722.487998	-2.960500	3.393700	-10.045000	25.783770	0.000649	20.952258
1723.483948	-2.988300	3.393700	-10.141000	25.785393	0.000648	20.944406
1724.488735	-2.979800	3.392600	-10.108000	25.813242	0.000649	20.948673
1725.489389	-2.984500	3.392700	-10.124000	25.814581	0.000648	20.953336
1726.486157	-2.973700	3.390900	-10.082000	25.811878	0.000649	20.951095
1727.487206	-3.025200	3.390400	-10.255000	25.785787	0.000648	20.944802
1728.489609	-2.989300	3.391600	-10.137000	25.768967	0.000648	20.953036
1729.488980	-2.990700	3.390900	-10.140000	25.772615	0.000648	20.956699
1730.488573	-3.003900	3.390700	-10.184000	25.797607	0.000646	20.944347
1731.485572	-2.982200	3.391600	-10.112000	25.813869	0.000647	20.957362
1732.485611	-2.982300	3.391100	-10.112000	25.805030	0.000647	20.936632
1733.484366	-3.006400	3.389400	-10.189000	25.790759	0.000646	20.953588
1734.485368	-2.999000	3.390200	-10.167000	25.774296	0.000643	20.960758
1735.488837	-3.018200	3.387900	-10.225000	25.784526	0.000644	20.943061
1736.489401	-3.001300	3.388100	-10.167000	25.772615	0.000644	20.933943
1737.485504	-3.009600	3.387100	-10.192000	25.775137	0.000644	20.950699
1738.490650	-3.010000	3.387700	-10.197000	25.743561	0.000643	20.949802
1739.491050	-3.016000	3.387100	-10.215000	25.749724	0.000641	20.966421
1740.487823	-2.992900	3.387500	-10.137000	25.791736	0.000640	20.943191
1741.490762	-2.988600	3.387500	-10.123000	25.831799	0.000642	20.976792
1742.491263	-3.001200	3.386700	-10.163000	25.852077	0.000642	20.946906
1743.490679	-2.997000	3.386600	-10.149000	25.880216	0.000641	20.966162
1744.495199	-2.982500	3.386900	-10.100000	25.889235	0.000640	20.954362
1745.488378	-3.011400	3.386600	-10.198000	25.849115	0.000640	20.951517
1746.488493	-3.010600	3.384600	-10.190000	25.866030	0.000640	20.958551
1747.491809	-3.012100	3.383800	-10.192000	25.862623	0.000639	20.939483
1748.499125	-3.021500	3.383500	-10.222000	25.881134	0.000638	20.930105
1749.492084	-3.009500	3.383000	-10.181000	25.884652	0.000640	20.961610
1750.498769	-2.985000	3.385400	-10.104000	25.878276	0.000639	20.948095
1751.499803	-2.986300	3.384300	-10.106000	25.847570	0.000638	20.949965
1752.493164	-3.003900	3.381300	-10.156000	25.845339	0.000636	20.958155
1753.503299	-3.018300	3.383600	-10.211000	25.828852	0.000637	20.949654
1754.498579	-3.007400	3.382400	-10.171000	25.869050	0.000637	20.948784
1755.495902	-2.991200	3.382400	-10.116000	25.896769	0.000636	20.963351
1756.502383	-2.984600	3.382200	-10.093000	25.891842	0.000636	20.965040
1757.500122	-2.986700	3.382500	-10.102000	25.884128	0.000636	20.943543
1758.503323	-3.015100	3.380800	-10.190000	25.882402	0.000634	20.927586
1759.501694	-2.986700	3.380700	-10.096000	25.875743	0.000632	20.944602
1760.502006	-2.992300	3.380900	-10.116000	25.889069	0.000632	20.938076
1761.504724	-2.976100	3.381800	-10.063000	25.908859	0.000632	20.932827
1762.503701	-3.020200	3.378300	-10.202000	25.885086	0.000630	20.944031
1763.503426	-3.001300	3.380100	-10.144000	25.863367	0.000630	20.936439
1764.504494	-2.988000	3.379300	-10.096000	25.859300	0.000632	20.942783
1765.498465	-2.983400	3.379200	-10.080000	25.881731	0.000633	20.947772
1766.508777	-2.999100	3.380000	-10.135000	25.875931	0.000630	20.931516
1767.502600	-2.966100	3.380100	-10.025000	25.847669	0.000629	20.938212
1768.501853	-3.003200	3.379300	-10.147000	25.860174	0.000629	20.929912
1769.499045	-2.994200	3.378000	-10.113000	25.851103	0.000628	20.953987
1770.499105	-3.009500	3.379300	-10.167000	25.868231	0.000627	20.938005
1771.505621	-2.992200	3.378400	-10.108000	25.882656	0.000626	20.949650
1772.502537	-2.998100	3.376900	-10.123000	25.839782	0.000627	20.959684
1773.503892	-2.993600	3.378100	-10.112000	25.862619	0.000626	20.952754
1774.505407	-3.006600	3.376000	-10.149000	25.838288	0.000626	20.932108
1775.503025	-3.009900	3.376900	-10.163000	25.840287	0.000623	20.946916
1776.505327	-3.007800	3.376300	-10.154000	25.815141	0.000626	20.936357
1777.504114	-2.979600	3.377000	-10.060000	25.790879	0.000623	20.933797
1778.510337	-2.988000	3.375900	-10.086000	25.793951	0.000624	20.930719
1779.506825	-3.007100	3.374800	-10.147000	25.820805	0.000623	20.935408
1780.511331	-2.988800	3.374000	-10.083000	25.844011	0.000623	20.943072
1781.501290	-3.007600	3.374500	-10.148000	25.865045	0.000621	20.947131
1782.501339	-2.998600	3.374000	-10.116000	25.822803	0.000624	20.922719
1783.505955	-3.000900	3.373800	-10.123000	25.838535	0.000622	20.922874
1784.500933	-2.991200	3.373600	-10.091000	25.837513	0.000622	20.931804
1785.505187	-3.011400	3.372600	-10.155000	25.824433	0.000621	20.929571
1786.501437	-3.004700	3.372400	-10.131000	25.834390	0.000621	20.928667
1787.505812	-2.997200	3.371900	-10.105000	25.878054	0.000621	20.918004
1788.502994	-3.011300	3.371700	-10.152000	25.903567	0.000620	20.934623
1789.506035	-2.968400	3.372400	-10.010000	25.953486	0.000620	20.907014
1790.503283	-3.001800	3.372500	-10.122000	25.919021	0.000621	20.923596
1791.506334	-3.008500	3.369800	-10.137000	25.905643	0.000617	20.919641
1792.507909	-2.997200	3.369900	-10.099000	25.888619	0.000619	20.945683
1793.504703	-3.010700	3.370000	-10.145000	25.880304	0.000620	20.940175
1794.508610	-2.983200	3.369300	-10.050000	25.895518	0.000617	20.920848
1795.507910	-2.994600	3.369500	-10.090000	25.926558	0.000615	20.924056
1796.507275	-3.020900	3.368300	-10.175000	25.962866	0.000617	20.909325
1797.503460	-2.986400	3.368400	-10.057000	25.956078	0.000616	20.932375
1798.508438	-2.985600	3.369500	-10.059000	25.898044	0.000613	20.909637
1799.506236	-2.994100	3.368000	-10.083000	25.860369	0.000615	20.903558
1800.517255	-2.976000	3.369300	-10.026000	25.838863	0.000614	20.898551
1801.510735	-2.998200	3.367400	-10.095000	25.845317	0.000613	20.899343
1802.507035	-3.004800	3.368200	-10.119000	25.823338	0.000615	20.927049
1803.507174	-3.011800	3.367200	-10.140000	25.823021	0.000612	20.924834
1804.510394	-3.037200	3.365900	-10.222000	25.845342	0.000614	20.931608
1805.510748	-3.030100	3.364900	-10.195000	25.871399	0.000612	20.922697
1806.506506	-3.015300	3.365300	-10.147000	25.880916	0.000611	20.925145
1807.511664	-3.019500	3.364800	-10.159000	25.916057	0.000613	20.934842
1808.507156	-2.993700	3.365400	-10.075000	25.953516	0.000610	20.939283
1809.512555	-2.989800	3.365300	-10.061000	25.945072	0.000608	20.914208
1810.510822	-2.974300	3.365900	-10.010000	25.885629	0.000610	20.902381
1811.509135	-2.981100	3.365400	-10.032000	25.855369	0.000610	20.909441
1812.518354	-2.990400	3.364400	-10.060000	25.845431	0.000610	20.926482
1813.514176	-2.990800	3.365100	-10.064000	25.789810	0.000609	20.915182
1814.516409	-3.013300	3.363700	-10.136000	25.779529	0.000608	20.909122
1815.515081	-3.005700	3.364000	-10.111000	25.761333	0.000606	20.921190
1816.513503	-2.993500	3.363100	-10.066000	25.745523	0.000607	20.915741
1817.509743	-2.979700	3.363100	-10.020000	25.742528	0.000607	20.907518
1818.514039	-2.998600	3.361300	-10.078000	25.754381	0.000605	20.903777
1819.512065	-2.997300	3.361300	-10.075000	25.770198	0.000604	20.919663
1820.513942	-3.009400	3.360900	-10.114000	25.789519	0.000605	20.904933
1821.513570	-3.001500	3.360800	-10.086000	25.835467	0.000602	20.924534
1822.513366	-2.982700	3.362000	-10.027000	25.850417	0.000605	20.905414
1823.510181	-2.995600	3.360400	-10.064000	25.913107	0.000601	20.911967
1824.509307	-2.994600	3.360500	-10.063000	25.955902	0.000604	20.921767
1825.512925	-2.979200	3.361300	-10.013000	26.038233	0.000602	20.895906
1826.509134	-2.990000	3.359800	-10.045000	26.006135	0.000602	20.905381
1827.513634	-2.983600	3.360000	-10.023000	26.003097	0.000601	20.933146
1828.513254	-3.029200	3.358500	-10.172000	25.952734	0.000601	20.889191
1829.510254	-2.986800	3.358900	-10.032000	25.940146	0.000601	20.898355
1830.510575	-2.998000	3.359200	-10.070000	25.929058	0.000600	20.918982
1831.513661	-2.991000	3.358500	-10.044000	25.958508	0.000598	20.898310
1832.518921	-3.016100	3.357500	-10.126000	25.960311	0.000599	20.920034
1833.511652	-3.003500	3.358800	-10.087000	25.918306	0.000597	20.897751
1834.515297	-2.996500	3.356200	-10.056000	25.875020	0.000598	20.896939
1835.511725	-2.994400	3.356100	-10.048000	25.879740	0.000597	20.898362
1836.519306	-3.011300	3.356700	-10.108000	25.849557	0.000596	20.908344
1837.513164	-3.000700	3.356100	-10.070000	25.832041	0.000595	20.904973
1838.511961	-2.995100	3.356800	-10.053000	25.843241	0.000597	20.908637
1839.514996	-3.024100	3.355600	-10.147000	25.860602	0.000596	20.918963
1840.516150	-2.975600	3.356700	-9.987400	25.907509	0.000594	20.904922
1841.516995	-2.986000	3.355200	-10.017000	25.937904	0.000595	20.886146
1842.514982	-3.002800	3.354900	-10.073000	25.962892	0.000594	20.885646
1843.512805	-3.008600	3.352400	-10.085000	25.976346	0.000592	20.917652
1844.515326	-2.984300	3.354800	-10.011000	25.968873	0.000592	20.885016
1845.518214	-3.003900	3.353200	-10.072000	25.962678	0.000590	20.924782
1846.518927	-3.021100	3.352300	-10.126000	25.903663	0.000593	20.903429
1847.520113	-2.985500	3.353300	-10.011000	25.908590	0.000591	20.894628
1848.518769	-2.994200	3.352900	-10.038000	25.941480	0.000590	20.910125
1849.517417	-2.997100	3.352500	-10.047000	25.928678	0.000589	20.910540
1850.519621	-2.995200	3.352400	-10.040000	25.983555	0.000591	20.891706
1851.519929	-2.967800	3.352300	-9.947500	26.007307	0.000590	20.886172
1852.523994	-2.988100	3.352800	-10.018000	26.051015	0.000588	20.882671
1853.523199	-3.007400	3.351400	-10.079000	26.087850	0.000588	20.882223
1854.522694	-2.990000	3.351700	-10.020000	26.084683	0.000588	20.897532
1855.519001	-2.993600	3.351500	-10.032000	26.094070	0.000589	20.891316
1856.522285	-3.012500	3.351600	-10.096000	26.048243	0.000588	20.913074
1857.521577	-2.999800	3.348900	-10.045000	26.062161	0.000586	20.886757
1858.519274	-3.001700	3.349900	-10.054000	26.067462	0.000587	20.888764
1859.519617	-2.988700	3.351000	-10.014000	26.027401	0.000586	20.922952
1860.528374	-3.011500	3.349800	-10.086000	26.014717	0.000586	20.894091
1861.520066	-2.990500	3.350400	-10.018000	25.991146	0.000587	20.900754
1862.523644	-3.008900	3.347100	-10.070000	25.960923	0.000587	20.890779
1863.525157	-2.992900	3.348900	-10.022000	25.931808	0.000584	20.880023
1864.526277	-3.011600	3.348100	-10.082000	25.921303	0.000583	20.884167
1865.525965	-3.008300	3.348300	-10.071000	25.931790	0.000583	20.870522
1866.527457	-3.008600	3.346800	-10.068000	25.910370	0.000585	20.893572
1867.522725	-3.014000	3.347300	-10.087000	25.924006	0.000583	20.904425
1868.526377	-3.017100	3.346800	-10.097000	25.936491	0.000582	20.890890
1869.526218	-3.019600	3.346300	-10.103000	25.965023	0.000581	20.883045
1870.525803	-3.003700	3.345300	-10.047000	26.002126	0.000581	20.868166
1871.528630	-3.000100	3.345200	-10.035000	26.029859	0.000581	20.872796
1872.523864	-2.995800	3.347400	-10.027000	26.075798	0.000579	20.874855
1873.526053	-2.987800	3.345600	-9.995000	26.088417	0.000580	20.877103
1874.529764	-3.013000	3.343500	-10.073000	26.113900	0.000579	20.877577
1875.523604	-2.995300	3.344300	-10.016000	26.122290	0.000580	20.875577
1876.524449	-3.002700	3.342500	-10.036000	26.116996	0.000580	20.857931
1877.527468	-2.987800	3.341900	-9.984400	26.122873	0.000579	20.851508
1878.523578	-2.993800	3.343200	-10.008000	26.097306	0.000577	20.872758
1879.523933	-2.972800	3.345900	-9.945700	26.059664	0.000576	20.845370
1880.525679	-2.991700	3.343300	-10.001000	26.053451	0.000577	20.879903
1881.529407	-3.012800	3.341200	-10.066000	26.112491	0.000576	20.868102
1882.531663	-3.007500	3.341500	-10.048000	26.112782	0.000575	20.867447
1883.530275	-3.001700	3.341800	-10.030000	26.170300	0.000575	20.883041
1884.527206	-2.998400	3.341900	-10.019000	26.122692	0.000573	20.878351
1885.527641	-2.986500	3.341000	-9.977300	26.130327	0.000575	20.861368
1886.534012	-2.995500	3.341500	-10.008000	26.126209	0.000573	20.863394
1887.526265	-2.995900	3.341700	-10.010000	26.093143	0.000573	20.873318
1888.532331	-2.983700	3.340600	-9.965200	26.068191	0.000571	20.872429
1889.531196	-2.987300	3.340400	-9.977900	26.023197	0.000572	20.843818
1890.529703	-2.988000	3.339100	-9.976500	25.997874	0.000571	20.853463
1891.527413	-2.977600	3.340100	-9.944800	26.009175	0.000572	20.842058
1892.530106	-2.999400	3.339000	-10.014000	26.040322	0.000570	20.855334
1893.528313	-2.990500	3.338900	-9.983500	26.038803	0.000569	20.842429
1894.532201	-3.007900	3.336900	-10.036000	26.059671	0.000567	20.852963
1895.532860	-2.992000	3.337400	-9.983800	26.051590	0.000568	20.861913
1896.531425	-2.992200	3.338200	-9.987500	26.087617	0.000567	20.871558
1897.532485	-3.031200	3.337200	-10.115000	26.098574	0.000565	20.863602
1898.537030	-2.998500	3.337000	-10.005000	26.089195	0.000566	20.860342
1899.536664	-3.001200	3.337500	-10.015000	26.099311	0.000567	20.878092
1900.534392	-2.995800	3.337200	-9.996200	26.138898	0.000566	20.843903
1901.534302	-2.987000	3.337300	-9.967800	26.191250	0.000564	20.857153
1902.535533	-3.018900	3.334100	-10.064000	26.198567	0.000565	20.861661
1903.533631	-2.986700	3.336000	-9.963200	26.183073	0.000565	20.854152
1904.537200	-2.988000	3.335600	-9.965300	26.179066	0.000564	20.828790
1905.535501	-2.970000	3.336400	-9.907300	26.194055	0.000564	20.859972
1906.533399	-2.991600	3.335200	-9.976000	26.168995	0.000563	20.858023
1907.537530	-2.961100	3.336800	-9.879200	26.176707	0.000562	20.852497
1908.532804	-3.003100	3.332800	-10.007000	26.187482	0.000562	20.851945
1909.537158	-2.985600	3.333800	-9.953300	26.190269	0.000562	20.848107
1910.538377	-2.966100	3.334800	-9.890200	26.205096	0.000561	20.836928
1911.537430	-3.019300	3.331200	-10.057000	26.177805	0.000562	20.865928
1912.541562	-3.009500	3.331100	-10.023000	26.155078	0.000560	20.844514
1913.539197	-3.000300	3.331300	-9.993200	26.126578	0.000560	20.841955
1914.535274	-2.995200	3.330600	-9.974700	26.127606	0.000559	20.840143
1915.538925	-2.962800	3.331800	-9.870500	26.128284	0.000558	20.848411
1916.539760	-3.013700	3.329400	-10.032000	26.135105	0.000559	20.835824
1917.539500	-3.037200	3.329600	-10.112000	26.145040	0.000559	20.828264
1918.535351	-3.012500	3.329800	-10.030000	26.178981	0.000558	20.840558
1919.539275	-2.992800	3.329200	-9.962600	26.167966	0.000557	20.858412
1920.538939	-3.005100	3.330500	-10.008000	26.171284	0.000557	20.833772
1921.536763	-3.005700	3.329200	-10.005000	26.191309	0.000557	20.822600
1922.539597	-2.985700	3.328200	-9.936000	26.232857	0.000555	20.836376
1923.540026	-2.995100	3.328700	-9.968800	26.250838	0.000556	20.848281
1924.535938	-2.975800	3.328900	-9.903300	26.264068	0.000556	20.828386
1925.535722	-3.018200	3.327200	-10.041000	26.272174	0.000556	20.832264
1926.541822	-3.002500	3.327400	-9.989200	26.261580	0.000552	20.814980
1927.538827	-2.999200	3.328100	-9.980400	26.290121	0.000552	20.837499
1928.541302	-2.994200	3.326700	-9.959900	26.291537	0.000552	20.841766
1929.543451	-3.016000	3.326500	-10.032000	26.319742	0.000553	20.845455
1930.539486	-3.006500	3.325900	-9.998200	26.311817	0.000553	20.825638
1931.543322	-2.988200	3.326100	-9.937200	26.282237	0.000552	20.822937
1932.543333	-2.996800	3.324800	-9.962600	26.282462	0.000550	20.837862
1933.539824	-3.013500	3.324100	-10.017000	26.253784	0.000552	20.844129
1934.545164	-2.988800	3.326400	-9.940000	26.253364	0.000552	20.832328
1935.544295	-2.961800	3.326700	-9.851800	26.214091	0.000549	20.831742
1936.541002	-2.995500	3.323400	-9.954400	26.167694	0.000548	20.840121
1937.545833	-2.986300	3.324800	-9.927600	26.112484	0.000549	20.842018
1938.545709	-2.989500	3.323400	-9.934600	26.107558	0.000547	20.824267
1939.543909	-3.000600	3.323400	-9.971100	26.074441	0.000546	20.842199
1940.545930	-3.009500	3.322700	-9.998000	26.043947	0.000545	20.822467
1941.545882	-3.006900	3.322800	-9.991400	26.062669	0.000547	20.825630
1942.541518	-3.006700	3.323300	-9.990100	26.082404	0.000545	20.840718
1943.546630	-2.993300	3.322900	-9.945300	26.091370	0.000545	20.831235
1944.541711	-3.001000	3.322300	-9.969200	26.143271	0.000545	20.850667
1945.541679	-3.009300	3.321700	-9.995000	26.128617	0.000543	20.830728
1946.545057	-3.007600	3.320800	-9.987200	26.118055	0.000543	20.828650
1947.541662	-3.001700	3.320700	-9.967700	26.074529	0.000543	20.843711
1948.541978	-2.989700	3.321000	-9.927100	26.070290	0.000544	20.829968
1949.545127	-2.992000	3.321000	-9.935300	26.071020	0.000542	20.833073
1950.544226	-3.006200	3.319000	-9.977100	26.084491	0.000542	20.844237
1951.543964	-3.001600	3.320700	-9.966600	26.137498	0.000540	20.834436
1952.543092	-3.009700	3.320500	-9.992700	26.140458	0.000540	20.819867
1953.544596	-2.998200	3.319900	-9.952600	26.152701	0.000540	20.809410
1954.541735	-2.977500	3.318600	-9.878700	26.121163	0.000541	20.842678
1955.547719	-3.009000	3.317400	-9.980600	26.118047	0.000541	20.841444
1956.545636	-2.977700	3.319200	-9.883200	26.103839	0.000536	20.846608
1957.543957	-2.984100	3.319000	-9.902800	26.141830	0.000538	20.816029
1958.544917	-3.004100	3.317600	-9.964900	26.163794	0.000537	20.831935
1959.548268	-2.990500	3.317400	-9.919700	26.208355	0.000537	20.826927
1960.546035	-3.015300	3.315800	-9.997200	26.189249	0.000535	20.836177
1961.550494	-3.006000	3.315100	-9.964500	26.175694	0.000536	20.850056
1962.550539	-2.973600	3.316400	-9.860700	26.185441	0.000537	20.826661
1963.545323	-3.015200	3.314500	-9.992900	26.175583	0.000536	20.843307
1964.551035	-3.011400	3.315600	-9.983200	26.156889	0.000534	20.818834
1965.546786	-2.986300	3.316800	-9.903400	26.120923	0.000534	20.822523
1966.546729	-2.958400	3.314900	-9.805900	26.089332	0.000533	20.836299
1967.549140	-2.973900	3.315700	-9.859300	26.093863	0.000531	20.839429
1968.546527	-2.994300	3.314800	-9.924600	26.084974	0.000533	20.836662
1969.547538	-2.998000	3.314000	-9.934700	26.111323	0.000531	20.835162
1970.549265	-2.987300	3.313900	-9.899400	26.154788	0.000533	20.832369
1971.549291	-2.999600	3.313900	-9.939500	26.172015	0.000531	20.837351
1972.548342	-2.991800	3.314000	-9.913600	26.139559	0.000531	20.848834
1973.552439	-2.988100	3.313600	-9.899800	26.113417	0.000530	20.843904
1974.551536	-2.984400	3.313200	-9.887400	26.086364	0.000529	20.840429
1975.546393	-3.008500	3.311300	-9.960300	26.072620	0.000528	20.836577
1976.550511	-2.991800	3.312400	-9.908600	26.085815	0.000528	20.839877
1977.550887	-3.018600	3.310200	-9.990500	26.111917	0.000528	20.847612
1978.549083	-2.969400	3.311800	-9.833000	26.113624	0.000527	20.847905
1979.551929	-3.013300	3.309400	-9.970700	26.130767	0.000527	20.850431
1980.549016	-3.009500	3.311600	-9.964900	26.142874	0.000528	20.854061
1981.548582	-2.988800	3.310100	-9.891500	26.191140	0.000524	20.852301
1982.553033	-2.976100	3.310700	-9.851200	26.243095	0.000525	20.847138
1983.553118	-3.004100	3.308200	-9.936600	26.262142	0.000526	20.850631
1984.553381	-2.975100	3.309100	-9.844000	26.254275	0.000525	20.852209
1985.556255	-2.993200	3.310100	-9.906600	26.257855	0.000521	20.850117
1986.559816	-3.005800	3.308800	-9.944500	26.232700	0.000524	20.836218
1987.554430	-2.973600	3.309200	-9.838800	26.221564	0.000522	20.859640
1988.551229	-3.016100	3.308200	-9.976100	26.237632	0.000521	20.853976
1989.550033	-2.992700	3.308500	-9.900700	26.229261	0.000519	20.875434
1990.554435	-3.032500	3.306200	-10.024000	26.223684	0.000522	20.854658
1991.550139	-3.001800	3.306200	-9.922300	26.237360	0.000520	20.846116
1992.552986	-3.013300	3.306600	-9.962900	26.232907	0.000521	20.854917
1993.554959	-2.994900	3.307200	-9.903500	26.185618	0.000519	20.854813
1994.552594	-3.023500	3.306000	-9.994200	26.173925	0.000522	20.872460
1995.551312	-3.004000	3.305600	-9.928900	26.178353	0.000519	20.851780
1996.550030	-3.014100	3.304200	-9.958000	26.173103	0.000517	20.855514
1997.552686	-2.995300	3.303700	-9.893500	26.167389	0.000517	20.860203
1998.552843	-2.997600	3.304100	-9.903500	26.125075	0.000517	20.866996
1999.548816	-3.008800	3.304000	-9.939800	26.129477	0.000515	20.863833
2000.552722	-2.991700	3.303000	-9.880200	26.171876	0.000514	20.858073
2001.553151	-2.998900	3.304400	-9.909000	26.194448	0.000515	20.843771
2002.553989	-3.014900	3.303000	-9.957500	26.206082	0.000514	20.865418
2003.553458	-2.999600	3.302200	-9.904200	26.214413	0.000513	20.871893
2004.551907	-2.998200	3.303100	-9.902600	26.208131	0.000513	20.851357
2005.550336	-2.981400	3.302300	-9.844700	26.256329	0.000513	20.852850
2006.560901	-2.996400	3.302400	-9.894200	26.277672	0.000513	20.871926
2007.553525	-3.011100	3.301600	-9.940300	26.281446	0.000510	20.874771
2008.551670	-2.992000	3.300700	-9.875600	26.276094	0.000511	20.877453
2009.556559	-3.004300	3.301000	-9.915800	26.294967	0.000512	20.862281
2010.554202	-3.001200	3.299600	-9.900200	26.309961	0.000511	20.883513
2011.551738	-2.997700	3.299400	-9.888400	26.312689	0.000510	20.876297
2012.552890	-2.991500	3.299900	-9.870400	26.321731	0.000510	20.864522
2013.556411	-2.996900	3.298800	-9.885100	26.345029	0.000509	20.850480
2014.555906	-3.009800	3.298500	-9.927100	26.349036	0.000508	20.874420
2015.556382	-2.987600	3.298500	-9.854100	26.377822	0.000507	20.866367
2016.555197	-3.007500	3.298400	-9.918600	26.399943	0.000509	20.861099
2017.553237	-3.011100	3.297500	-9.928600	26.392660	0.000507	20.874642
2018.556884	-3.030800	3.296300	-9.989300	26.368121	0.000508	20.864678
2019.552431	-3.014000	3.296200	-9.933100	26.341487	0.000504	20.880583
2020.553491	-3.022400	3.297200	-9.963700	26.317613	0.000506	20.878401
2021.556505	-3.007100	3.296500	-9.911700	26.315804	0.000505	20.877531
2022.558037	-3.003800	3.296000	-9.899300	26.280812	0.000505	20.860859
2023.554002	-2.968000	3.296800	-9.783700	26.280282	0.000503	20.871705
2024.558298	-2.985100	3.295800	-9.837000	26.228465	0.000503	20.877005
2025.558076	-3.000500	3.293900	-9.881000	26.240099	0.000504	20.900548
2026.555626	-3.008400	3.295800	-9.913600	26.249484	0.000501	20.887221
2027.562022	-2.992500	3.295700	-9.861400	26.251320	0.000501	20.871523
2028.557142	-2.994000	3.294900	-9.863900	26.236111	0.000501	20.893696
2029.555929	-3.002400	3.294900	-9.891700	26.257925	0.000501	20.872471
2030.561602	-3.033600	3.293200	-9.989400	26.271052	0.000499	20.910315
2031.557801	-3.014900	3.293100	-9.927100	26.313463	0.000498	20.884187
2032.556903	-2.996600	3.293600	-9.868700	26.376315	0.000500	20.895196
2033.559870	-2.998200	3.293200	-9.872500	26.417332	0.000500	20.893273
2034.557786	-2.998900	3.291200	-9.869100	26.419581	0.000498	20.878939
2035.558549	-3.015300	3.290400	-9.920300	26.444455	0.000497	20.883550
2036.563643	-2.990100	3.293100	-9.846000	26.432447	0.000498	20.903248
2037.566071	-2.988600	3.291100	-9.833800	26.468325	0.000497	20.883362
2038.559278	-2.997800	3.290100	-9.861300	26.457346	0.000497	20.895085
2039.559999	-2.979900	3.292100	-9.809000	26.438948	0.000495	20.883706
2040.557786	-2.987000	3.290800	-9.828700	26.432971	0.000495	20.887180
2041.559293	-2.988600	3.290000	-9.831300	26.440441	0.000493	20.895163
2042.560606	-3.003800	3.288900	-9.877700	26.441023	0.000493	20.891481
2043.562961	-2.995000	3.289200	-9.849400	26.419632	0.000493	20.916446
2044.558694	-3.000100	3.288600	-9.865700	26.425998	0.000492	20.894870
2045.562466	-3.011900	3.288500	-9.903700	26.413396	0.000492	20.903067
2046.566120	-3.002700	3.288200	-9.872100	26.379215	0.000492	20.913282
2047.561438	-3.004100	3.288500	-9.878200	26.380082	0.000492	20.902300
2048.566716	-3.004500	3.286800	-9.874000	26.412420	0.000491	20.903508
2049.565882	-3.002900	3.288000	-9.872700	26.447071	0.000489	20.901352
2050.567039	-2.985200	3.287100	-9.811900	26.446600	0.000489	20.894240
2051.564185	-3.004900	3.287400	-9.877600	26.471524	0.000490	20.892740
2052.559506	-3.028300	3.285700	-9.948900	26.476481	0.000488	20.903885
2053.561103	-3.012000	3.285600	-9.894500	26.479312	0.000487	20.907204
2054.565477	-3.011800	3.287200	-9.899800	26.496894	0.000485	20.908756
2055.566742	-3.002000	3.285400	-9.862200	26.517120	0.000487	20.923394
2056.569278	-2.984700	3.284700	-9.802900	26.499647	0.000485	20.914842
2057.566424	-3.024500	3.283400	-9.929100	26.497127	0.000484	20.912782
2058.566372	-3.009700	3.283700	-9.881800	26.474885	0.000484	20.901333
2059.570232	-3.001400	3.283400	-9.854100	26.515641	0.000482	20.913849
2060.567085	-3.005600	3.283500	-9.867700	26.506782	0.000482	20.901152
2061.565006	-3.007600	3.283800	-9.874300	26.528164	0.000483	20.909367
2062.562667	-3.017400	3.282300	-9.901900	26.515608	0.000483	20.914290
2063.568482	-3.009200	3.281300	-9.873000	26.503771	0.000480	20.915193
2064.567018	-2.988400	3.282100	-9.807100	26.495299	0.000481	20.932280
2065.571065	-2.952600	3.283400	-9.693100	26.511654	0.000481	20.926909
2066.566359	-2.991300	3.281000	-9.812200	26.519157	0.000480	20.908374
2067.565353	-2.987900	3.281600	-9.803000	26.553558	0.000477	20.916875
2068.565837	-3.004600	3.281500	-9.858800	26.545812	0.000480	20.915727
2069.564749	-2.997200	3.280000	-9.829800	26.528429	0.000477	20.910108
2070.563437	-2.983600	3.279900	-9.783400	26.508470	0.000479	20.926553
2071.567385	-2.992200	3.279700	-9.812500	26.541036	0.000475	20.914719
2072.573172	-3.004800	3.279100	-9.850900	26.562450	0.000475	20.933398
2073.566013	-3.004400	3.277600	-9.845500	26.556363	0.000475	20.903100
2074.572293	-3.005800	3.277400	-9.850000	26.566360	0.000476	20.910304
2075.567702	-2.972700	3.278100	-9.744100	26.574003	0.000473	20.922253
2076.569109	-2.987900	3.278100	-9.792700	26.623905	0.000473	20.914097
2077.573262	-2.980400	3.277300	-9.766600	26.640233	0.000473	20.921501
2078.572307	-3.001800	3.278900	-9.841500	26.579542	0.000472	20.914071
2079.572443	-2.985700	3.276800	-9.782300	26.582184	0.000472	20.926209
2080.573021	-2.990300	3.276900	-9.798500	26.584284	0.000472	20.933061
2081.572962	-2.998400	3.276400	-9.822900	26.608734	0.000470	20.939620
2082.574131	-2.984300	3.276300	-9.776300	26.591043	0.000471	20.931794
2083.573442	-2.981500	3.275700	-9.765900	26.581403	0.000468	20.947232
2084.573995	-2.971400	3.275800	-9.732200	26.584259	0.000468	20.930664
2085.580981	-3.006600	3.274400	-9.843900	26.596006	0.000468	20.936783
2086.575482	-3.002200	3.274200	-9.829200	26.587586	0.000465	20.923105
2087.585661	-2.988200	3.274600	-9.783900	26.601110	0.000468	20.960877
2088.572708	-3.007800	3.274200	-9.847600	26.568914	0.000467	20.948428
2089.576426	-2.999100	3.273800	-9.817200	26.585758	0.000466	20.950661
2090.581851	-2.996700	3.272000	-9.804300	26.600329	0.000465	20.930698
2091.576119	-2.984900	3.273500	-9.769100	26.624572	0.000464	20.939420
2092.575351	-2.992000	3.272100	-9.788700	26.655882	0.000464	20.951454
2093.573839	-2.944500	3.272600	-9.634700	26.701613	0.000464	20.951909
2094.572474	-2.976700	3.270500	-9.733500	26.721292	0.000463	20.939453
2095.572440	-2.982600	3.272300	-9.757700	26.695636	0.000461	20.932627
2096.576742	-2.994700	3.270500	-9.792100	26.714844	0.000462	20.960469
2097.573951	-3.018400	3.269600	-9.866700	26.730769	0.000461	20.950876
2098.576790	-3.021500	3.270000	-9.879100	26.725065	0.000460	20.946565
2099.577967	-2.998800	3.269700	-9.804700	26.693304	0.000459	20.946876
2100.574291	-3.026500	3.268500	-9.891300	26.671214	0.000458	20.949324
2101.575737	-2.996000	3.269100	-9.792900	26.647374	0.000459	20.947643
2102.574663	-2.999000	3.268000	-9.799700	26.646379	0.000456	20.935264
2103.573993	-3.035700	3.265400	-9.911300	26.667176	0.000455	20.953798
2104.573127	-3.014700	3.267400	-9.849500	26.685809	0.000458	20.957832
2105.577540	-2.991100	3.267800	-9.773200	26.686100	0.000455	20.946272
2106.572494	-2.987000	3.267900	-9.759900	26.689524	0.000455	20.969625
2107.578074	-2.997000	3.266100	-9.788200	26.711071	0.000454	20.950039
2108.577625	-3.004700	3.267900	-9.818400	26.722143	0.000453	20.960695
2109.581006	-3.022700	3.265200	-9.868200	26.715301	0.000454	20.963299
2110.573406	-2.994000	3.265700	-9.776500	26.724560	0.000452	20.956487
2111.581530	-3.007500	3.265600	-9.820900	26.670522	0.000452	20.967592
2112.576044	-2.998300	3.267400	-9.796000	26.648096	0.000451	20.965910
2113.578254	-3.029600	3.265100	-9.889600	26.586366	0.000452	20.965021
2114.579314	-2.978800	3.264900	-9.724900	26.572886	0.000450	20.964273
2115.577724	-2.976600	3.265000	-9.717400	26.553160	0.000449	20.941602
2116.577420	-3.005100	3.264700	-9.809900	26.541154	0.000449	20.970306
2117.581048	-3.006200	3.262300	-9.806000	26.542097	0.000448	20.948972
2118.578995	-3.005000	3.262300	-9.802600	26.571943	0.000448	20.972807
2119.584433	-2.968200	3.262700	-9.683500	26.615422	0.000449	20.953454
2120.583667	-2.995900	3.263900	-9.777200	26.650189	0.000446	20.977021
2121.584925	-3.006200	3.260300	-9.800600	26.658782	0.000445	20.966221
2122.584231	-2.999900	3.260700	-9.781100	26.624145	0.000447	20.969332
2123.582708	-3.014700	3.260700	-9.829000	26.632712	0.000443	20.967040
2124.580077	-2.997600	3.260300	-9.772600	26.656766	0.000444	20.974625
2125.587477	-3.021500	3.260000	-9.849100	26.662084	0.000442	20.972858
2126.584754	-3.032100	3.258300	-9.879300	26.659486	0.000444	20.973092
2127.582019	-2.974800	3.259700	-9.695500	26.653535	0.000443	20.976592
2128.584794	-2.994500	3.259400	-9.759600	26.632027	0.000443	20.995744
2129.586699	-2.991200	3.258700	-9.746200	26.662051	0.000440	20.993685
2130.585709	-2.971100	3.257700	-9.677500	26.685924	0.000440	20.984970
2131.588512	-2.980000	3.259400	-9.711500	26.747500	0.000439	20.985710
2132.589030	-3.010300	3.257100	-9.803900	26.776081	0.000438	20.984573
2133.589003	-3.010600	3.257100	-9.804000	26.754258	0.000438	20.966429
2134.588920	-2.993300	3.256100	-9.745200	26.747913	0.000437	20.970955
2135.587103	-3.007300	3.256900	-9.793000	26.707483	0.000437	20.997159
2136.583884	-3.001400	3.256500	-9.772600	26.716289	0.000435	20.978988
2137.582803	-3.003300	3.255000	-9.775100	26.707464	0.000437	20.993822
2138.586578	-2.998700	3.256700	-9.763700	26.693308	0.000434	20.979592
2139.588037	-3.002100	3.254400	-9.769500	26.698231	0.000434	20.959888
2140.587034	-2.987800	3.255500	-9.726400	26.729469	0.000434	20.988918
2141.586415	-3.004200	3.254200	-9.774200	26.798194	0.000432	20.996848
2142.584265	-3.011100	3.254600	-9.798900	26.827399	0.000433	20.995866
2143.588188	-3.025700	3.252200	-9.839200	26.883832	0.000433	20.991918
2144.588646	-2.981600	3.254200	-9.701400	26.911020	0.000433	20.993177
2145.586507	-3.005700	3.253300	-9.777200	26.957734	0.000430	20.992262
2146.585515	-2.997400	3.251900	-9.746200	26.953748	0.000430	20.995366
2147.588550	-2.992700	3.252900	-9.732600	26.948639	0.000430	20.997814
2148.595650	-3.019500	3.249900	-9.812300	26.952153	0.000430	21.009881
2149.588058	-3.006300	3.252100	-9.775900	26.951630	0.000427	20.997977
2150.591305	-3.004100	3.251200	-9.765200	26.951785	0.000429	21.009985
2151.588295	-2.997500	3.249600	-9.739700	26.917260	0.000426	21.016518
2152.591278	-3.002900	3.250000	-9.758600	26.886628	0.000426	21.010848
2153.593103	-3.007300	3.249000	-9.769100	26.876946	0.000425	21.003485
2154.591170	-3.016700	3.247400	-9.795200	26.876494	0.000425	20.999711
2155.595002	-2.991500	3.248100	-9.714900	26.922712	0.000425	21.013466
2156.596870	-2.987100	3.249100	-9.704400	26.909948	0.000424	21.000159
2157.593238	-2.995100	3.248200	-9.727700	26.933034	0.000424	20.999666
2158.596160	-2.993600	3.248300	-9.723500	26.957915	0.000421	20.991970
2159.598195	-3.022400	3.245800	-9.808600	27.009368	0.000421	21.038013
2160.593034	-2.970800	3.248500	-9.649500	27.013107	0.000419	21.021862
2161.594355	-3.005000	3.244400	-9.748900	27.032316	0.000421	21.003725
2162.595826	-2.984600	3.247700	-9.691900	27.004027	0.000418	20.998984
2163.596793	-2.999200	3.246000	-9.734400	26.949925	0.000418	21.023758
2164.596623	-2.976300	3.246100	-9.659900	26.936232	0.000417	21.018999
2165.598438	-3.001000	3.244200	-9.735000	26.950028	0.000417	21.026232
2166.597839	-3.007300	3.243700	-9.752400	26.972590	0.000416	21.030902
2167.598287	-2.996500	3.245500	-9.723700	26.958942	0.000417	21.027136
2168.599357	-3.006100	3.243900	-9.750800	27.001094	0.000417	21.023058
2169.596134	-3.011000	3.242000	-9.760300	26.993388	0.000416	21.042332
2170.598153	-2.984700	3.243500	-9.679900	26.972480	0.000417	21.009459
2171.597792	-2.997400	3.243200	-9.720000	26.973210	0.000415	21.033421
2172.601405	-2.977200	3.244400	-9.658000	26.962656	0.000413	21.015225
2173.603122	-2.983500	3.241300	-9.669700	26.998096	0.000414	21.023362
2174.597703	-3.019400	3.240900	-9.784700	27.040446	0.000411	21.010951
2175.601053	-3.011700	3.241100	-9.760400	27.060171	0.000411	21.036473
2176.599205	-3.005100	3.238900	-9.732100	27.091759	0.000410	20.989540
2177.601279	-2.983200	3.242100	-9.670300	27.132175	0.000408	20.994151
2178.603403	-2.998100	3.238500	-9.708800	27.141132	0.000408	21.016433
2179.600063	-2.975200	3.240300	-9.637800	27.113892	0.000408	21.006581
2180.598380	-3.007600	3.237500	-9.736800	27.102216	0.000408	21.019966
2181.598367	-3.006600	3.237900	-9.734300	27.069943	0.000407	21.014536
2182.600410	-3.001200	3.237900	-9.716000	27.029712	0.000405	21.010114
2183.605767	-3.014000	3.237200	-9.756300	27.068031	0.000406	21.005029
2184.602696	-2.989200	3.237900	-9.677600	27.099781	0.000405	20.976748
2185.601511	-2.998400	3.236100	-9.702500	27.132808	0.000404	21.002848
2186.599414	-2.994300	3.235800	-9.687000	27.146189	0.000402	20.994970
2187.604344	-2.982100	3.235600	-9.647800	27.195637	0.000402	21.003451
2188.602169	-2.962800	3.236400	-9.587600	27.225336	0.000400	20.998711
2189.609914	-2.986300	3.235200	-9.660100	27.226337	0.000402	20.999244
2190.598505	-3.002500	3.233400	-9.707500	27.199511	0.000402	20.980800
2191.602278	-2.976700	3.236500	-9.633000	27.155695	0.000401	20.981774
2192.601437	-2.981700	3.233400	-9.640800	27.165783	0.000398	20.979118
2193.602782	-3.012100	3.233400	-9.738200	27.164310	0.000397	21.002289
2194.605942	-3.033400	3.231100	-9.800300	27.139453	0.000398	20.992463
2195.605019	-3.008800	3.233500	-9.727800	27.108628	0.000398	20.972844
2196.600780	-3.025900	3.231700	-9.777200	27.070620	0.000396	20.989144
2197.603998	-2.995800	3.232100	-9.681700	27.020198	0.000395	20.981585
2198.604091	-3.001100	3.231800	-9.698000	26.973022	0.000395	20.971603
2199.604238	-2.997900	3.231000	-9.685300	26.936269	0.000397	20.968311
2200.603846	-3.002000	3.232600	-9.703700	26.919397	0.000393	20.998281
2201.603508	-3.023300	3.230000	-9.764900	26.918093	0.000394	20.970422
2202.603363	-3.006200	3.230300	-9.709900	26.901530	0.000392	20.968940
2203.607583	-2.999700	3.230700	-9.689200	26.916490	0.000392	21.003892
2204.614231	-2.975100	3.229800	-9.608400	26.940590	0.000391	20.972655
2205.604721	-2.972300	3.228800	-9.596500	26.957171	0.000392	20.968940
2206.610066	-2.999900	3.228000	-9.683700	26.982419	0.000389	20.980578
2207.610852	-3.015600	3.228400	-9.734300	26.980294	0.000389	20.971804
2208.607265	-3.005500	3.225800	-9.694000	26.963791	0.000388	20.969433
2209.614152	-3.003800	3.225800	-9.689300	26.962848	0.000388	20.969907
2210.610390	-2.991700	3.227100	-9.653200	26.918414	0.000388	20.964581
2211.605344	-2.990700	3.225100	-9.644900	26.916262	0.000389	20.981382
2212.611023	-3.022400	3.223900	-9.742400	26.871175	0.000386	20.955489
2213.610538	-3.009600	3.223600	-9.700300	26.850846	0.000386	20.966341
2214.608719	-2.994600	3.225600	-9.657800	26.857628	0.000385	20.968419
2215.610368	-3.013600	3.223100	-9.711400	26.829257	0.000384	20.955541
2216.615826	-2.998200	3.225200	-9.668900	26.839502	0.000383	20.968211
2217.609889	-2.987900	3.223600	-9.629700	26.840943	0.000383	20.970608
2218.612464	-2.978000	3.223000	-9.597000	26.846937	0.000385	20.963359
2219.613979	-2.997600	3.222400	-9.657500	26.907793	0.000382	20.964808
2220.608606	-2.983500	3.223200	-9.615300	26.917489	0.000382	20.949429
2221.613533	-3.002200	3.221900	-9.672300	26.916804	0.000381	20.953955
2222.611927	-3.014100	3.221000	-9.707300	26.931971	0.000381	20.955930
2223.611522	-3.005000	3.221800	-9.681000	26.943520	0.000379	20.953793
2224.615848	-3.015900	3.220600	-9.711900	26.956884	0.000380	20.969600
2225.614223	-2.997300	3.220900	-9.652300	26.960727	0.000378	20.969197
2226.615227	-3.006700	3.219400	-9.679300	26.935393	0.000377	20.966956
2227.614933	-3.000200	3.220000	-9.659400	26.976158	0.000376	20.947259
2228.613689	-3.005300	3.218300	-9.671300	27.034623	0.000376	20.937777
2229.616278	-3.004800	3.218500	-9.670100	27.041140	0.000376	20.969456
2230.614347	-3.013700	3.216300	-9.691800	27.058978	0.000374	20.957526
2231.615468	-3.014400	3.216900	-9.695600	27.076378	0.000376	20.964593
2232.613005	-2.975300	3.218400	-9.573900	27.106022	0.000375	20.950311
2233.613867	-2.995200	3.216400	-9.632500	27.112254	0.000373	20.954682
2234.618918	-3.011600	3.214400	-9.679000	27.071837	0.000371	20.938692
2235.611487	-3.007800	3.216200	-9.672400	27.035275	0.000373	20.947441
2236.616672	-2.999100	3.214300	-9.638700	27.009763	0.000373	20.949759
2237.617415	-3.012200	3.216100	-9.687000	26.986892	0.000371	20.949045
2238.614275	-2.987400	3.214200	-9.600300	26.991032	0.000372	20.949415
2239.615799	-2.994300	3.213900	-9.622500	27.044337	0.000369	20.969827
2240.618877	-2.982900	3.214700	-9.588100	27.071811	0.000369	20.946726
2241.617095	-3.016200	3.211300	-9.685900	27.089126	0.000369	20.946596
2242.619749	-2.996600	3.212000	-9.624100	27.114946	0.000367	20.949804
2243.621533	-3.009600	3.211800	-9.665300	27.072728	0.000367	20.934374
2244.634374	-2.980500	3.212700	-9.574200	27.087473	0.000366	20.959630
2245.618224	-2.999400	3.212900	-9.634900	27.085955	0.000367	20.941037
2246.623270	-2.978600	3.212200	-9.566800	27.053229	0.000368	20.953641
2247.618450	-2.992400	3.209100	-9.602200	26.987040	0.000365	20.963416
2248.620907	-3.025200	3.208100	-9.704400	27.000197	0.000364	20.946778
2249.621709	-3.006900	3.208200	-9.644000	26.966455	0.000362	20.957889
2250.624471	-2.983700	3.208400	-9.572000	26.965402	0.000364	20.955882
2251.620683	-3.018400	3.206200	-9.676300	26.975646	0.000362	20.952434
2252.623894	-3.004700	3.208800	-9.640400	27.033976	0.000361	20.950401
2253.629903	-2.971500	3.207300	-9.528700	27.088880	0.000361	20.956778
2254.626182	-2.982000	3.207900	-9.564800	27.149071	0.000360	20.960890
2255.631347	-2.995600	3.205800	-9.602200	27.141682	0.000360	20.964838
2256.623935	-3.004900	3.205800	-9.631400	27.160282	0.000360	20.962208
2257.623312	-3.009600	3.205000	-9.645000	27.126519	0.000360	20.933470
2258.626455	-3.001200	3.205900	-9.619900	27.124291	0.000359	20.937393
2259.624728	-3.013200	3.206000	-9.659600	27.130762	0.000355	20.948641
2260.626736	-3.032900	3.204400	-9.718100	27.159313	0.000356	20.942744
2261.629816	-3.008100	3.204400	-9.638500	27.174889	0.000355	20.926170
2262.627992	-3.016300	3.203900	-9.662100	27.153126	0.000356	20.937944
2263.628017	-3.027800	3.201600	-9.692200	27.160798	0.000354	20.943763
2264.629911	-3.022000	3.204000	-9.682200	27.157207	0.000355	20.933041
2265.628495	-2.972500	3.203700	-9.522500	27.172480	0.000354	20.931333
2266.629740	-3.014700	3.201800	-9.651500	27.130659	0.000355	20.952330
2267.631607	-3.000800	3.200800	-9.603800	27.119053	0.000352	20.949193
2268.633059	-3.012500	3.200600	-9.640000	27.104328	0.000352	20.938178
2269.632175	-2.986100	3.200900	-9.556800	27.112891	0.000352	20.928300
2270.629235	-2.993000	3.200900	-9.578600	27.103727	0.000351	20.942315
2271.633687	-3.003400	3.197400	-9.602600	27.149373	0.000349	20.930378
2272.628710	-2.991300	3.200400	-9.572700	27.138718	0.000348	20.954271
2273.632643	-2.976000	3.198200	-9.516000	27.145053	0.000347	20.940256
2274.632819	-3.006800	3.197300	-9.612400	27.142721	0.000348	20.955927
2275.630341	-3.032400	3.197000	-9.694000	27.102784	0.000347	20.911498
2276.628265	-3.029500	3.195600	-9.680100	27.135889	0.000347	20.940522
2277.629035	-2.945200	3.199200	-9.420900	27.159590	0.000345	20.933067
2278.637495	-2.959000	3.198100	-9.462600	27.173636	0.000346	20.924436
2279.631538	-3.000600	3.195200	-9.586000	27.220145	0.000346	20.947030
2280.635184	-3.019000	3.195900	-9.646500	27.242643	0.000343	20.938841
2281.635976	-2.988800	3.195200	-9.549000	27.233712	0.000342	20.932703
2282.633034	-2.986100	3.195100	-9.538700	27.277028	0.000343	20.953038
2283.636556	-2.993800	3.193300	-9.558900	27.307590	0.000345	20.945374
2284.636347	-2.999700	3.193800	-9.579500	27.331305	0.000342	20.929878
2285.636821	-3.007900	3.192200	-9.601300	27.360433	0.000344	20.939263
2286.637430	-2.988200	3.192100	-9.535900	27.356287	0.000340	20.945049
2287.641204	-2.980100	3.192600	-9.513700	27.371867	0.000340	20.916629
2288.634722	-2.993900	3.192100	-9.555700	27.354221	0.000340	20.929696
2289.636922	-3.016500	3.192500	-9.628500	27.345737	0.000339	20.926377
2290.643435	-2.985700	3.193100	-9.532500	27.329678	0.000339	20.932507
2291.635072	-2.996500	3.190500	-9.558600	27.312212	0.000340	20.937697
2292.643596	-3.005100	3.190800	-9.585800	27.298910	0.000337	20.932378
2293.639282	-3.021200	3.188600	-9.632500	27.296870	0.000338	20.902354
2294.640960	-3.009500	3.188400	-9.594500	27.300789	0.000336	20.930474
2295.642775	-3.003800	3.187600	-9.574300	27.342121	0.000335	20.935067
2296.645761	-2.988600	3.188300	-9.527700	27.327218	0.000334	20.937619
2297.639906	-3.010000	3.187000	-9.592000	27.300608	0.000335	20.931241
2298.642250	-2.977500	3.187400	-9.489600	27.248885	0.000333	20.938956
2299.642066	-2.970700	3.187200	-9.467500	27.269026	0.000332	20.899476
2300.640742	-2.992500	3.186700	-9.535300	27.215280	0.000331	20.920803
2301.642838	-2.996800	3.185100	-9.544400	27.174215	0.000334	20.912218
2302.645867	-3.004600	3.184800	-9.568300	27.178536	0.000330	20.917037
2303.640749	-3.012800	3.184100	-9.592200	27.153576	0.000332	20.928915
2304.643202	-3.000900	3.182700	-9.550100	27.199742	0.000330	20.929830
2305.648743	-2.955900	3.185000	-9.413600	27.262394	0.000330	20.927415
2306.643661	-3.013700	3.182900	-9.591200	27.247173	0.000330	20.936760
2307.643084	-2.990900	3.182700	-9.518200	27.233057	0.000330	20.920667
2308.646655	-2.988300	3.181500	-9.506700	27.211134	0.000329	20.936545
2309.644342	-3.006300	3.179600	-9.558700	27.198799	0.000327	20.944053
2310.650627	-3.010400	3.180500	-9.573700	27.258822	0.000326	20.934253
2311.649593	-2.996300	3.181500	-9.531800	27.299025	0.000329	20.941975
2312.645917	-3.013700	3.180200	-9.583300	27.321411	0.000326	20.930830
2313.651321	-3.021000	3.178200	-9.600600	27.331807	0.000326	20.933227
2314.650362	-3.009800	3.178900	-9.567200	27.307760	0.000327	20.925634
2315.650385	-2.959700	3.178000	-9.404600	27.297939	0.000325	20.920971
2316.650477	-2.990700	3.177100	-9.501000	27.303596	0.000324	20.919074
2317.651963	-2.990500	3.176800	-9.499400	27.288538	0.000324	20.911040
2318.650090	-2.988600	3.177300	-9.494800	27.320171	0.000322	20.924841
2319.653840	-2.979700	3.175800	-9.460600	27.312913	0.000322	20.911852
2320.654156	-3.004200	3.175800	-9.539700	27.250407	0.000320	20.918204
2321.658724	-3.012600	3.174800	-9.563000	27.229537	0.000321	20.911911
2322.655705	-2.975600	3.176200	-9.449900	27.241573	0.000322	20.929231
2323.653173	-3.010400	3.175600	-9.558800	27.244563	0.000322	20.919912
2324.651966	-2.997500	3.173500	-9.512400	27.282255	0.000319	20.927953
2325.658247	-2.993300	3.172100	-9.494400	27.343738	0.000322	20.903981
2326.655293	-3.004500	3.172100	-9.530100	27.356458	0.000318	20.923886
2327.651569	-3.006400	3.172900	-9.537000	27.331844	0.000316	20.902922
2328.657046	-2.989600	3.171200	-9.479900	27.279659	0.000317	20.939090
2329.656106	-3.004800	3.170800	-9.527200	27.248264	0.000316	20.907040
2330.653406	-2.976200	3.169700	-9.432300	27.236078	0.000316	20.924179
2331.654170	-2.986600	3.170100	-9.466500	27.232074	0.000317	20.913041
2332.652342	-3.001300	3.169500	-9.511000	27.290158	0.000315	20.923575
2333.653468	-2.995700	3.167200	-9.487100	27.309271	0.000312	20.915774
2334.658413	-3.012200	3.167100	-9.538300	27.335383	0.000315	20.912170
2335.657403	-3.015900	3.165900	-9.547700	27.360320	0.000315	20.906910
2336.658763	-3.012200	3.164600	-9.530900	27.389484	0.000311	20.909222
2337.659532	-3.002100	3.165300	-9.500800	27.405612	0.000313	20.921178
2338.659954	-2.997200	3.164800	-9.483900	27.410093	0.000311	20.906722
2339.658324	-3.004000	3.164700	-9.505900	27.445158	0.000312	20.898376
2340.663175	-2.960300	3.165000	-9.368000	27.414677	0.000311	20.924608
2341.663418	-3.012900	3.163000	-9.529000	27.436435	0.000312	20.933219
2342.659596	-3.042700	3.162800	-9.622200	27.405354	0.000310	20.923763
2343.664720	-2.997500	3.162700	-9.479300	27.395250	0.000308	20.887049
2344.663430	-2.997600	3.162100	-9.477800	27.373562	0.000308	20.915015
2345.667910	-3.016700	3.159100	-9.529200	27.341989	0.000309	20.905540
2346.665974	-3.000300	3.160200	-9.480300	27.311719	0.000306	20.913970
2347.667169	-2.989300	3.159600	-9.444200	27.289138	0.000307	20.909274
2348.666471	-2.995400	3.160500	-9.466400	27.300303	0.000306	20.928089
2349.664329	-3.001100	3.158400	-9.476700	27.342932	0.000304	20.910281
2350.659671	-2.996500	3.157500	-9.459500	27.399098	0.000305	20.901351
2351.666148	-3.010800	3.157000	-9.504000	27.387896	0.000305	20.924219
2352.663264	-3.018800	3.157500	-9.530800	27.381007	0.000304	20.916341
2353.661638	-2.977400	3.156500	-9.397600	27.371212	0.000304	20.922134
2354.662342	-2.980300	3.156300	-9.405500	27.383990	0.000305	20.904644
2355.664738	-2.995900	3.157100	-9.456400	27.421541	0.000302	20.900221
2356.661642	-2.988400	3.155400	-9.428600	27.440839	0.000302	20.905884
2357.660721	-2.986600	3.154500	-9.420100	27.493720	0.000304	20.908826
2358.664750	-2.998700	3.155400	-9.461200	27.519485	0.000303	20.905351
2359.667917	-2.991200	3.153000	-9.429700	27.513359	0.000304	20.899188
2360.662271	-2.988800	3.152500	-9.421300	27.498594	0.000301	20.891446
2361.670485	-3.016300	3.151600	-9.504700	27.526399	0.000303	20.912307
2362.668109	-3.022100	3.151600	-9.523500	27.516573	0.000300	20.897680
2363.669567	-2.990500	3.150900	-9.421700	27.524050	0.000298	20.888609
2364.668656	-2.984500	3.150700	-9.401600	27.527968	0.000300	20.894447
2365.664251	-2.997500	3.150900	-9.443600	27.592426	0.000302	20.903351
2366.669095	-2.974600	3.150300	-9.369200	27.644648	0.000300	20.898525
2367.673596	-2.987600	3.148700	-9.406800	27.630692	0.000296	20.914826
2368.670304	-2.998100	3.148300	-9.438100	27.608132	0.000297	20.915833
2369.672247	-3.005200	3.146700	-9.455100	27.621882	0.000297	20.902169
2370.670183	-2.998300	3.145900	-9.431700	27.660327	0.000297	20.905766
2371.666705	-2.995400	3.145600	-9.421600	27.694964	0.000297	20.897947
2372.665670	-3.017800	3.143700	-9.485900	27.694835	0.000295	20.888809
2373.667947	-2.994300	3.144700	-9.415100	27.676587	0.000296	20.902214
2374.672409	-3.012600	3.144400	-9.471900	27.657849	0.000294	20.881938
2375.670142	-3.003600	3.142100	-9.435400	27.637083	0.000294	20.891861
2376.673886	-3.022900	3.141900	-9.496800	27.660018	0.000294	20.880801
2377.673956	-3.054900	3.140400	-9.592200	27.620855	0.000294	20.897343
2378.673853	-3.022900	3.140600	-9.491800	27.638555	0.000292	20.891920
2379.672403	-2.995800	3.139800	-9.404800	27.655305	0.000290	20.888387
2380.673663	-2.988000	3.139600	-9.380300	27.598785	0.000292	20.908800
2381.674967	-2.994700	3.138300	-9.396900	27.611541	0.000293	20.906462
2382.678647	-2.994700	3.138100	-9.396800	27.616150	0.000292	20.888816
2383.671379	-3.011900	3.137700	-9.449700	27.658346	0.000290	20.872956
2384.679545	-3.023600	3.135800	-9.480200	27.648786	0.000289	20.889887
2385.675224	-2.979500	3.137400	-9.346700	27.637303	0.000290	20.897773
2386.679986	-2.980300	3.135100	-9.342800	27.604815	0.000288	20.902540
2387.673317	-2.988300	3.134800	-9.366400	27.601560	0.000292	20.885516
2388.677361	-3.006300	3.133100	-9.417900	27.579412	0.000289	20.890731
2389.673245	-2.996800	3.132300	-9.385400	27.521267	0.000290	20.876800
2390.673193	-3.012400	3.132400	-9.433700	27.490144	0.000287	20.885316
2391.677797	-3.026600	3.131900	-9.476900	27.479305	0.000289	20.879626
2392.673294	-2.999700	3.131300	-9.392200	27.511138	0.000287	20.900273
2393.676752	-3.019100	3.130100	-9.449400	27.546884	0.000288	20.882186
2394.673672	-3.017300	3.129400	-9.441600	27.597856	0.000287	20.887005
2395.674732	-3.027600	3.129100	-9.472600	27.599270	0.000286	20.889849
2396.675106	-2.995300	3.129500	-9.372400	27.603621	0.000286	20.887590
2397.680846	-3.011400	3.125900	-9.412200	27.609747	0.000287	20.876685
2398.675875	-2.975100	3.127000	-9.302400	27.646367	0.000287	20.886979
2399.677921	-3.002000	3.125200	-9.379900	27.675000	0.000285	20.870748
2400.678522	-2.977000	3.125200	-9.302700	27.678409	0.000285	20.856161
2401.674659	-3.010600	3.123400	-9.402600	27.650066	0.000283	20.858935
2402.679831	-2.998500	3.124100	-9.366300	27.687866	0.000284	20.859987
2403.678169	-3.005400	3.122300	-9.383200	27.723179	0.000286	20.866125
2404.679158	-3.004600	3.123500	-9.383900	27.748229	0.000285	20.869521
2405.684637	-2.988200	3.121200	-9.325400	27.680242	0.000284	20.869384
2406.681147	-2.995400	3.121300	-9.349300	27.638827	0.000282	20.859006
2407.678201	-2.998800	3.119900	-9.355200	27.589956	0.000282	20.872418
2408.681636	-2.979900	3.119900	-9.295800	27.586031	0.000282	20.872736
2409.682854	-2.992000	3.118400	-9.329300	27.582810	0.000281	20.861435
2410.677858	-2.974000	3.119100	-9.273700	27.544896	0.000280	20.853160
2411.678446	-2.999400	3.118700	-9.353200	27.573094	0.000282	20.864462
2412.687169	-2.987100	3.117800	-9.312100	27.587102	0.000279	20.861487
2413.678347	-3.007100	3.115000	-9.366700	27.589613	0.000281	20.855953
2414.683977	-3.014100	3.115300	-9.388900	27.630404	0.000279	20.845789
2415.686277	-2.996700	3.114600	-9.332300	27.672994	0.000281	20.866358
2416.682014	-3.007300	3.112200	-9.358500	27.698361	0.000280	20.883823
2417.681817	-2.982900	3.112300	-9.282800	27.699373	0.000279	20.849756
2418.684669	-3.001600	3.111500	-9.337800	27.677628	0.000280	20.849686
2419.682489	-2.989700	3.109500	-9.295200	27.644824	0.000278	20.845600
2420.685555	-3.003900	3.110000	-9.340800	27.588671	0.000278	20.852634
2421.683587	-3.005400	3.109000	-9.341900	27.595636	0.000278	20.876237
2422.681938	-3.015000	3.107600	-9.368400	27.571338	0.000278	20.834247
2423.682913	-3.002800	3.107900	-9.331500	27.590497	0.000278	20.844989
2424.685416	-3.008300	3.106700	-9.344800	27.595868	0.000278	20.852290
2425.682317	-3.009000	3.105700	-9.343900	27.610554	0.000277	20.864221
2426.689219	-3.002200	3.104900	-9.321000	27.645870	0.000277	20.847126
2427.695299	-3.024800	3.103000	-9.383500	27.652828	0.000276	20.842274
2428.686630	-2.990500	3.103700	-9.279400	27.666254	0.000274	20.839189
2429.686055	-3.002500	3.101400	-9.309900	27.684921	0.000275	20.839955
2430.684977	-2.995700	3.101400	-9.290000	27.721758	0.000276	20.854738
2431.681967	-3.007800	3.102200	-9.329100	27.741883	0.000277	20.851757
2432.684115	-3.024200	3.099200	-9.370500	27.744283	0.000275	20.845164
2433.685492	-2.999200	3.100500	-9.297200	27.771430	0.000273	20.865370
2434.684689	-2.991400	3.098200	-9.267100	27.779473	0.000274	20.843593
2435.688478	-2.987900	3.096700	-9.251100	27.775277	0.000273	20.843163
2436.688166	-3.012600	3.095400	-9.324000	27.757134	0.000273	20.847190
2437.685483	-2.975100	3.096800	-9.211800	27.745097	0.000273	20.850724
2438.685017	-2.990400	3.095800	-9.256800	27.719285	0.000273	20.847983
2439.689646	-3.021600	3.092400	-9.342900	27.720640	0.000275	20.839389
2440.692430	-2.987300	3.092800	-9.237900	27.704910	0.000273	20.838259
2441.694188	-3.015300	3.090800	-9.318700	27.690271	0.000274	20.860036
2442.691614	-3.026500	3.089800	-9.350100	27.709596	0.000272	20.853880
2443.688194	-3.014100	3.091000	-9.315400	27.755054	0.000271	20.844149
2444.694314	-3.025200	3.088300	-9.341600	27.782569	0.000272	20.851924
2445.691302	-2.981400	3.088900	-9.207900	27.784053	0.000270	20.850098
2446.697247	-3.023100	3.088900	-9.336700	27.794153	0.000272	20.835133
2447.695155	-2.975700	3.087700	-9.186200	27.793398	0.000270	20.839115
2448.696784	-3.009700	3.085400	-9.284700	27.745178	0.000271	20.831366
2449.692050	-2.963900	3.087200	-9.148900	27.774519	0.000271	20.834815
2450.695376	-2.996500	3.084200	-9.241100	27.782761	0.000271	20.864445
2451.693195	-2.979300	3.084800	-9.189300	27.774461	0.000270	20.833808
2452.693917	-2.985900	3.081900	-9.202100	27.770117	0.000270	20.841290
2453.706121	-3.005700	3.080200	-9.257700	27.814541	0.000270	20.842375
2454.695668	-2.978200	3.079900	-9.171200	27.806893	0.000269	20.845109
2455.694805	-3.005800	3.080500	-9.258400	27.801368	0.000269	20.818213
2456.693748	-2.994500	3.078300	-9.216500	27.751580	0.000268	20.839705
2457.696939	-3.010700	3.076300	-9.261000	27.727098	0.000267	20.833560
2458.698239	-3.001700	3.075600	-9.231000	27.711446	0.000269	20.827766
2459.692446	-2.966700	3.077100	-9.127500	27.732520	0.000267	20.839490
2460.694486	-2.998500	3.072600	-9.212200	27.737386	0.000268	20.840120
2461.696691	-3.011200	3.073500	-9.254000	27.775628	0.000269	20.845413
2462.696429	-2.982400	3.071400	-9.159100	27.794526	0.000267	20.837879
2463.702564	-2.994800	3.071600	-9.198400	27.792983	0.000268	20.820680
2464.697874	-2.996000	3.070400	-9.197900	27.780178	0.000268	20.840509
2465.693810	-2.966700	3.071800	-9.111300	27.754419	0.000267	20.828811
2466.701647	-2.990400	3.068100	-9.174000	27.695135	0.000267	20.844543
2467.701151	-3.003700	3.069100	-9.216800	27.671472	0.000268	20.843491
2468.698530	-3.035700	3.066200	-9.306200	27.668122	0.000268	20.814991
2469.700430	-3.018700	3.065200	-9.252200	27.711207	0.000268	20.841276
2470.699938	-3.007400	3.065000	-9.216400	27.748223	0.000267	20.843913
2471.698541	-3.006400	3.064000	-9.211100	27.793351	0.000267	20.867990
2472.700342	-3.001700	3.062900	-9.192900	27.829203	0.000266	20.851440
2473.696181	-2.999300	3.061700	-9.182300	27.876160	0.000266	20.836112
2474.698551	-2.991300	3.060800	-9.155400	27.882182	0.000266	20.836483
2475.695986	-2.983800	3.059700	-9.128700	27.868648	0.000264	20.834716
2476.701173	-3.003600	3.059100	-9.186900	27.862685	0.000267	20.838198
2477.702112	-2.971100	3.058900	-9.086400	27.864331	0.000264	20.850759
2478.696543	-3.009900	3.055800	-9.196000	27.870617	0.000266	20.854240
2479.700660	-2.987500	3.057300	-9.132200	27.847028	0.000264	20.843776
2480.700639	-3.026900	3.053900	-9.242500	27.787304	0.000266	20.861430
2481.698791	-2.997800	3.053600	-9.152100	27.781495	0.000265	20.846102
2482.702221	-2.998800	3.053100	-9.154200	27.749372	0.000264	20.855026
2483.701609	-2.995600	3.051200	-9.139200	27.723593	0.000264	20.838094
2484.699910	-2.991000	3.051000	-9.124600	27.746578	0.000265	20.845576
2485.701325	-3.014900	3.049100	-9.189900	27.714059	0.000266	20.864060
2486.701899	-3.010300	3.047400	-9.172500	27.659176	0.000264	20.835386
2487.699595	-3.008900	3.045700	-9.162900	27.608851	0.000264	20.821258
2488.702475	-2.990900	3.044900	-9.105200	27.571333	0.000263	20.857474
2489.702332	-3.007800	3.044600	-9.156600	27.570184	0.000263	20.848732
2490.700794	-2.995400	3.044900	-9.120200	27.619483	0.000264	20.824370
2491.705236	-2.982200	3.042300	-9.071200	27.650473	0.000265	20.856026
2492.706620	-2.990100	3.041300	-9.093200	27.729686	0.000264	20.838535
2493.706659	-3.004100	3.039200	-9.129300	27.728478	0.000263	20.839691
2494.703705	-3.016300	3.038600	-9.163300	27.717266	0.000263	20.857330
2495.706120	-2.986700	3.038400	-9.074100	27.680914	0.000262	20.855363
2496.705721	-3.018000	3.037100	-9.164400	27.660465	0.000263	20.832890
2497.706303	-2.992100	3.036200	-9.083800	27.672032	0.000263	20.848796
2498.705428	-3.003400	3.033900	-9.110600	27.726012	0.000265	20.852855
2499.702610	-2.995400	3.033400	-9.085400	27.705932	0.000262	20.837865
2500.705821	-2.988200	3.032300	-9.060300	27.701136	0.000264	20.854849
2501.711080	-2.994700	3.031200	-9.076500	27.669591	0.000264	20.858668
2502.702872	-2.998200	3.030600	-9.085400	27.634368	0.000263	20.845984
2503.709031	-2.990100	3.028500	-9.052800	27.657443	0.000264	20.851185
2504.711647	-2.994000	3.028000	-9.065200	27.702781	0.000263	20.850815
2505.703161	-2.992300	3.025600	-9.052500	27.672993	0.000263	20.834116
2506.709356	-2.994400	3.026400	-9.061300	27.692441	0.000263	20.867435
2507.707849	-3.001600	3.023300	-9.074000	27.708093	0.000263	20.837195
2508.709785	-3.001500	3.021900	-9.069100	27.748324	0.000263	20.851126
2509.709862	-2.988900	3.021100	-9.028200	27.781092	0.000261	20.856601
2510.709068	-3.009700	3.020000	-9.088700	27.816376	0.000261	20.862239
2511.715522	-3.010000	3.019800	-9.089100	27.854221	0.000262	20.857179
2512.709261	-3.015600	3.015900	-9.094300	27.835034	0.000261	20.866317
2513.705451	-3.005900	3.016500	-9.065700	27.847567	0.000262	20.884619
2514.708740	-3.002500	3.015300	-9.052600	27.891311	0.000263	20.867954
2515.710145	-2.985300	3.014900	-8.999600	27.903262	0.000263	20.863862
2516.711632	-3.021200	3.012000	-9.099100	27.907740	0.000262	20.869792
2517.706623	-2.971100	3.012000	-8.947800	27.906062	0.000261	20.856724
2518.709489	-3.007800	3.011000	-9.055200	27.883114	0.000261	20.836473
2519.706040	-3.000300	3.009400	-9.027900	27.854557	0.000261	20.855620
2520.711433	-2.990700	3.007600	-8.993700	27.858190	0.000261	20.867336
2521.710954	-2.995400	3.007600	-9.007700	27.831310	0.000263	20.878215
2522.712362	-3.025500	3.005900	-9.093100	27.871723	0.000264	20.860569
2523.707617	-3.003100	3.005200	-9.024200	27.906365	0.000263	20.869355
2524.708764	-3.011700	3.002600	-9.042800	27.947563	0.000260	20.858191
2525.713536	-3.007900	3.002300	-9.029900	27.945285	0.000260	20.870122
2526.710243	-2.996200	3.001000	-8.990800	27.925080	0.000261	20.865907
2527.713482	-2.979000	3.000100	-8.935500	27.912231	0.000261	20.864355
2528.710363	-3.015600	2.998200	-9.040700	27.944917	0.000262	20.868329
2529.712121	-3.010700	2.996500	-9.020400	27.969413	0.000260	20.882079
2530.712970	-3.000600	2.996200	-8.989800	27.936018	0.000261	20.879286
2531.710385	-3.014900	2.994100	-9.026500	27.944814	0.000261	20.857321
2532.715370	-2.978300	2.993200	-8.913400	27.954880	0.000259	20.875512
2533.712946	-3.026000	2.990900	-9.050000	27.991133	0.000261	20.884027
2534.709159	-3.003300	2.989100	-8.976200	28.027217	0.000261	20.883364
2535.712820	-2.999700	2.990100	-8.968700	28.034128	0.000262	20.892691
2536.714019	-2.983300	2.988700	-8.915000	28.004478	0.000260	20.865692
2537.716087	-3.000700	2.986100	-8.959000	28.014020	0.000259	20.868660
2538.712436	-3.023000	2.984900	-9.021700	28.032501	0.000262	20.855021
2539.713471	-2.995700	2.983800	-8.937900	28.060808	0.000261	20.896314
2540.713861	-3.007400	2.983000	-8.969800	28.068654	0.000261	20.885247
2541.713314	-3.030900	2.980300	-9.031800	28.037779	0.000260	20.900159
2542.715744	-3.015000	2.979800	-8.982500	27.997063	0.000261	20.873401
2543.719587	-2.979600	2.978600	-8.874100	27.988628	0.000260	20.865386
2544.716984	-3.001700	2.976000	-8.932100	27.994281	0.000261	20.874868
2545.729718	-2.995500	2.975400	-8.911800	28.003121	0.000260	20.886610
2546.713031	-3.012700	2.973900	-8.958200	28.011548	0.000260	20.890351
2547.716564	-3.005000	2.972600	-8.931700	28.025705	0.000260	20.879472
2548.719761	-2.998900	2.971200	-8.909600	28.004766	0.000260	20.875465
2549.717753	-3.015900	2.970700	-8.957600	28.025176	0.000259	20.896007
2550.715038	-3.005600	2.967300	-8.917700	28.039061	0.000259	20.900027
2551.719590	-3.018900	2.964100	-8.946300	28.039881	0.000261	20.913653
2552.716265	-3.007800	2.965800	-8.919800	28.037048	0.000259	20.885674
2553.719419	-3.019900	2.963400	-8.948000	28.022813	0.000259	20.879880
2554.721158	-3.004100	2.962900	-8.900100	28.004417	0.000261	20.894078
2555.718126	-3.006200	2.960600	-8.899300	27.958878	0.000260	20.891389
2556.721160	-2.982300	2.960100	-8.827600	27.971752	0.000260	20.905768
2557.722142	-2.992600	2.958900	-8.854300	27.970577	0.000261	20.899845
2558.722514	-2.997000	2.957700	-8.863000	27.939693	0.000260	20.901949
2559.719382	-2.987400	2.956100	-8.829200	27.907600	0.000261	20.900468
2560.721757	-2.993400	2.955300	-8.845000	27.916138	0.000260	20.892467
2561.719118	-2.985500	2.952800	-8.814900	27.903463	0.000260	20.914795
2562.723845	-2.989000	2.951200	-8.819800	27.916201	0.000260	20.885419
2563.724659	-2.988500	2.950200	-8.815800	27.974958	0.000260	20.904728
2564.721285	-3.005000	2.947900	-8.857800	28.016359	0.000263	20.887608
2565.720402	-2.985900	2.946500	-8.797000	28.082672	0.000257	20.904572
2566.721803	-2.991000	2.945000	-8.807000	28.127831	0.000258	20.916840
2567.719681	-2.975100	2.944100	-8.756900	28.205723	0.000261	20.899006
2568.721382	-2.997400	2.941200	-8.814300	28.235000	0.000261	20.912358
2569.720663	-3.011800	2.940000	-8.853600	28.289004	0.000259	20.903669
2570.724709	-3.037800	2.937000	-8.919600	28.314117	0.000260	20.903350
2571.723671	-2.997300	2.937600	-8.803900	28.326078	0.000260	20.908280
2572.726665	-2.985400	2.935700	-8.763100	28.283584	0.000261	20.921918
2573.723893	-2.998200	2.934500	-8.796900	28.239187	0.000260	20.903299
2574.725052	-2.991200	2.933400	-8.773600	28.240780	0.000260	20.906325
2575.720942	-2.999300	2.931800	-8.792500	28.277643	0.000258	20.897921
2576.728210	-2.992400	2.929700	-8.765900	28.270740	0.000260	20.920366
2577.725106	-3.012300	2.928200	-8.819400	28.233845	0.000260	20.913566
2578.726625	-2.990000	2.927500	-8.752300	28.245741	0.000259	20.920800
2579.726916	-2.977500	2.924800	-8.707900	28.263857	0.000257	20.903954
2580.726925	-2.995700	2.923500	-8.756800	28.271366	0.000261	20.910566
2581.733237	-2.989100	2.922200	-8.733800	28.310711	0.000259	20.913670
2582.725708	-3.023200	2.918200	-8.821500	28.351493	0.000259	20.929601
2583.730829	-3.004200	2.917300	-8.763000	28.376508	0.000259	20.934875
2584.727149	-2.995000	2.917700	-8.737900	28.349686	0.000259	20.914981
2585.732279	-2.987900	2.916200	-8.712400	28.303588	0.000259	20.916930
2586.727102	-3.013800	2.912800	-8.777600	28.284803	0.000260	20.917930
2587.727459	-3.012400	2.912000	-8.771500	28.292415	0.000258	20.930808
2588.732496	-3.009700	2.909500	-8.755000	28.298092	0.000260	20.946954
2589.734330	-2.986400	2.907800	-8.682700	28.345029	0.000259	20.902232
2590.738122	-3.004800	2.908900	-8.738800	28.379559	0.000257	20.923249
2591.730898	-3.001900	2.905000	-8.719500	28.363438	0.000260	20.933568
2592.731879	-3.012600	2.903000	-8.745100	28.312639	0.000257	20.931257
2593.735136	-3.027500	2.901600	-8.782900	28.274178	0.000258	20.931412
2594.735747	-3.000500	2.899900	-8.700100	28.288331	0.000258	20.942342
2595.736125	-2.976600	2.899100	-8.628300	28.307349	0.000258	20.946317
2596.733444	-2.999600	2.897400	-8.689800	28.296304	0.000257	20.937094
2597.736879	-3.003900	2.895000	-8.694200	28.312761	0.000259	20.920949
2598.737568	-2.968200	2.895300	-8.592400	28.328533	0.000260	20.953421
2599.736915	-2.992100	2.892200	-8.652900	28.301039	0.000256	20.941387
2600.737993	-3.003000	2.889900	-8.677400	28.279634	0.000258	20.926476
2601.742187	-3.008700	2.887200	-8.685200	28.204076	0.000260	20.939069
2602.736834	-3.010700	2.886000	-8.688200	28.184263	0.000259	20.952310
2603.736862	-2.992500	2.883600	-8.628300	28.153778	0.000258	20.923046
2604.735822	-3.007400	2.881200	-8.663200	28.155688	0.000260	20.935873
2605.737618	-3.013300	2.881000	-8.680000	28.142055	0.000258	20.958181
2606.741011	-3.024100	2.877500	-8.701300	28.157778	0.000257	20.956940
2607.739991	-3.009700	2.876500	-8.656100	28.154687	0.000259	20.963785
2608.737148	-2.993900	2.876100	-8.610200	28.187759	0.000258	20.939710
2609.741630	-3.008300	2.872300	-8.639800	28.240293	0.000258	20.945659
2610.738688	-3.058600	2.870500	-8.777300	28.236784	0.000258	20.971045
2611.740687	-2.996200	2.869400	-8.596200	28.233435	0.000257	20.956771
2612.741788	-2.985200	2.867700	-8.559900	28.274401	0.000257	20.970038
2613.743640	-2.998500	2.864800	-8.588800	28.316139	0.000258	20.960856
2614.744532	-2.998700	2.864600	-8.589700	28.394566	0.000259	20.947841
2615.743342	-3.006200	2.862800	-8.605300	28.353437	0.000256	20.946730
2616.743182	-2.990600	2.859400	-8.548100	28.339685	0.000257	20.958959
2617.746706	-2.994800	2.857400	-8.556400	28.313255	0.000259	20.943730
2618.743598	-2.987200	2.856000	-8.530300	28.291192	0.000257	20.945223
2619.742409	-3.036000	2.852800	-8.659300	28.239635	0.000257	20.962063
2620.741317	-3.000500	2.852700	-8.558200	28.212945	0.000258	20.961745
2621.744099	-3.017500	2.850300	-8.600000	28.180261	0.000258	20.971038
2622.742045	-3.016500	2.848400	-8.590800	28.222887	0.000256	20.978390
2623.745665	-2.996900	2.845700	-8.527600	28.236622	0.000259	20.953815
2624.742682	-2.980900	2.843400	-8.473000	28.262531	0.000258	20.987482
2625.745176	-2.981500	2.841800	-8.472100	28.272594	0.000257	20.945937
2626.744226	-3.003300	2.840000	-8.528200	28.304591	0.000258	20.943067
2627.740913	-2.982000	2.836400	-8.457000	28.355604	0.000258	20.966453
2628.745547	-3.016500	2.835700	-8.552800	28.404628	0.000259	20.963660
2629.745113	-3.007400	2.832800	-8.517800	28.445458	0.000257	20.992917
2630.743364	-3.021400	2.831900	-8.554200	28.419928	0.000256	20.976694
2631.744970	-3.019700	2.828700	-8.540900	28.368834	0.000256	20.952749
2632.743568	-3.014600	2.824600	-8.514100	28.331872	0.000258	20.962946
2633.747045	-2.970000	2.824700	-8.388800	28.315538	0.000261	20.972576
2634.747157	-2.991200	2.820200	-8.434700	28.362996	0.000259	20.972946
2635.746585	-3.000300	2.818300	-8.454700	28.429964	0.000257	20.984902
2636.743689	-3.012900	2.817300	-8.487100	28.476895	0.000258	20.961516
2637.747005	-2.996700	2.815300	-8.435800	28.466272	0.000258	20.978317
2638.749529	-2.992700	2.813800	-8.420600	28.415257	0.000260	20.986688
2639.750966	-3.014900	2.810700	-8.473700	28.424726	0.000259	20.982473
2640.747269	-2.972800	2.808700	-8.348500	28.470057	0.000259	20.990662
2641.747772	-3.009800	2.805000	-8.441600	28.506996	0.000256	20.985662
2642.747271	-3.019800	2.802300	-8.459500	28.566525	0.000258	20.979232
2643.755471	-2.977800	2.801500	-8.341400	28.593387	0.000259	20.969777
2644.750623	-2.973800	2.798300	-8.320800	28.630708	0.000259	20.973225
2645.752792	-2.978400	2.796200	-8.327000	28.642948	0.000256	20.980810
2646.751271	-2.997000	2.793300	-8.370400	28.582533	0.000258	20.992506
2647.751689	-3.006800	2.790400	-8.388800	28.594251	0.000259	20.998143
2648.753787	-3.007400	2.789500	-8.388900	28.613760	0.000258	20.995032
2649.753353	-2.986100	2.786500	-8.319600	28.621472	0.000259	21.001851
2650.752523	-3.032300	2.781600	-8.434100	28.649358	0.000257	20.987266
2651.756857	-3.022300	2.780500	-8.402400	28.657328	0.000258	20.981544
2652.751705	-2.990000	2.778200	-8.305400	28.590691	0.000258	20.990292
2653.752010	-2.999700	2.774100	-8.320300	28.551769	0.000257	20.987129
2654.749313	-2.998900	2.772800	-8.313900	28.492471	0.000258	21.004221
2655.756673	-2.998900	2.771000	-8.309600	28.535761	0.000259	20.982862
2656.753348	-2.986100	2.767900	-8.263600	28.546983	0.000258	20.996532
2657.756848	-3.021900	2.762400	-8.346600	28.595134	0.000259	21.004247
2658.751973	-3.011700	2.761500	-8.315100	28.577998	0.000258	20.986518
2659.755496	-2.991300	2.757300	-8.247000	28.539315	0.000257	21.002085
2660.757972	-2.996400	2.754400	-8.251900	28.509369	0.000257	21.008436
2661.753657	-2.991600	2.752300	-8.233100	28.441432	0.000256	21.007351
2662.753962	-2.945500	2.750500	-8.100800	28.388094	0.000257	21.020969
2663.754571	-3.025600	2.745200	-8.304700	28.397273	0.000257	21.007455
2664.754901	-3.024600	2.741900	-8.292100	28.437039	0.000259	21.001981
2665.751153	-2.998800	2.741300	-8.218900	28.433762	0.000257	20.988252
2666.756194	-2.988100	2.736900	-8.177400	28.444753	0.000258	21.013540
2667.756557	-2.991600	2.732800	-8.174200	28.472508	0.000257	21.003085
2668.756951	-2.985800	2.729800	-8.148900	28.485221	0.000258	21.000240
2669.754665	-3.005900	2.727200	-8.196600	28.537928	0.000258	21.022495
2670.755278	-3.004200	2.723600	-8.181200	28.612153	0.000257	21.019962
2671.756862	-3.014700	2.721000	-8.201300	28.639781	0.000256	21.016495
2672.757320	-3.023400	2.716700	-8.212500	28.658767	0.000256	21.014281
2673.754226	-3.033700	2.712200	-8.227300	28.699380	0.000259	21.021995
2674.752546	-2.992800	2.710600	-8.111500	28.735131	0.000258	21.009644
2675.753228	-2.999000	2.707200	-8.117200	28.747576	0.000258	21.002266
2676.758260	-3.006100	2.701900	-8.120800	28.700476	0.000257	21.004611
2677.762838	-2.990800	2.699100	-8.071800	28.673114	0.000257	21.016877
2678.757615	-2.978700	2.696400	-8.031000	28.680176	0.000258	21.020196
2679.757327	-2.990800	2.691700	-8.049800	28.651750	0.000258	20.988726
2680.756497	-3.007600	2.688500	-8.084900	28.679208	0.000257	20.994570
2681.754480	-2.980000	2.686700	-8.005500	28.709130	0.000258	20.993415
2682.758488	-3.029000	2.681400	-8.120700	28.758234	0.000256	21.002097
2683.758209	-2.986900	2.678300	-7.998500	28.807298	0.000257	20.990830
2684.757168	-2.965700	2.674100	-7.929500	28.846545	0.000256	21.001915
2685.758336	-2.979100	2.670300	-7.954600	28.831586	0.000256	20.988745
2686.760093	-2.986400	2.667300	-7.964000	28.813145	0.000257	20.995297
2687.761854	-2.994800	2.661700	-7.970200	28.752766	0.000257	20.983315
2688.763481	-2.980500	2.659300	-7.923900	28.716932	0.000258	20.993686
2689.764603	-3.024500	2.653600	-8.025300	28.723890	0.000256	20.989790
2690.759707	-2.996800	2.649900	-7.939800	28.663079	0.000257	20.984490
2691.765084	-2.984200	2.646200	-7.894800	28.637212	0.000260	20.982146
2692.764690	-2.998100	2.639600	-7.912900	28.632601	0.000257	20.982717
2693.762390	-2.981500	2.638600	-7.866200	28.663079	0.000257	20.988283
2694.764943	-2.977200	2.633000	-7.837300	28.687603	0.000257	20.981216
2695.766635	-2.999500	2.628200	-7.882800	28.734283	0.000258	20.982242
2696.771950	-3.002100	2.622900	-7.872200	28.813260	0.000256	20.977872
2697.765886	-2.978100	2.618700	-7.797600	28.880774	0.000256	20.982820
2698.765326	-2.999200	2.614200	-7.839500	28.894294	0.000258	20.969890
2699.763409	-2.993900	2.609000	-7.809600	28.942300	0.000256	20.973683
2700.777071	-2.985700	2.604800	-7.775800	28.977307	0.000258	20.951109
2701.766216	-3.018700	2.598900	-7.844200	28.945698	0.000258	20.974735
2702.764624	-3.012800	2.594900	-7.817100	28.913062	0.000259	20.965565
2703.770280	-3.014200	2.588500	-7.801400	28.868607	0.000257	20.976254
2704.766405	-3.010700	2.582200	-7.773400	28.829496	0.000258	20.981898
2705.773292	-2.978500	2.578900	-7.680700	28.782503	0.000259	20.966805
2706.766964	-2.955900	2.572500	-7.602300	28.809520	0.000258	20.949453
2707.767050	-3.019200	2.566000	-7.746200	28.849180	0.000257	20.980865
2708.777221	-3.011100	2.561200	-7.710300	28.884249	0.000258	20.959298
2709.766625	-2.990400	2.556400	-7.643800	28.873739	0.000258	20.964831
2710.770775	-3.014700	2.549700	-7.685900	28.906976	0.000259	20.966072
2711.772047	-2.998300	2.544500	-7.628400	28.937168	0.000258	20.956187
2712.765427	-2.991500	2.539800	-7.596600	28.984811	0.000259	20.966728
2713.771262	-3.000300	2.532500	-7.597800	29.026696	0.000258	20.963409
2714.769598	-3.008900	2.527000	-7.601000	29.032813	0.000258	20.966728
2715.770341	-3.016200	2.519400	-7.597700	29.056736	0.000258	20.957642
2716.770321	-3.007400	2.514900	-7.562600	29.049439	0.000259	20.946972
2717.773048	-2.997800	2.507200	-7.514300	29.008677	0.000259	20.967065
2718.769303	-2.987800	2.502300	-7.475200	29.022950	0.000259	20.955843
2719.767261	-3.001200	2.497000	-7.492400	29.037145	0.000258	20.951179
