LabVIEW Measurement	
Writer_Version	2
Reader_Version	2
Separator	Tab
Decimal_Separator	.
Multi_Headings	No
X_Columns	One
Time_Pref	Absolute
Operator	admin
Description	Clolumns are: time, Current, Voltage, Power, Battery Temp, and Chamber Temp
Date	2024/08/16
Time	13:06:06.104549407958984375
***End_of_Header***	
	
Channels	6						
Samples	1	1	1	1	1	1	
Date	2024/09/07	2024/09/07	2024/09/07	2024/09/07	2024/09/07	2024/09/07	
Time	06:17:38.7603974342346191406	06:17:38.772319793701171875	06:17:38.7783222198486328125	06:17:38.7447957992553710938	06:17:38.7447957992553710938	06:17:38.7447957992553710938	
X_Dimension	Time	Time	Time	Time	Time	Time	
X0	0.0000000000000000E+0	0.0000000000000000E+0	0.0000000000000000E+0	0.0000000000000000E+0	0.0000000000000000E+0	0.0000000000000000E+0	
Delta_X	1.000000	1.000000	1.000000	1.000000	1.000000	1.000000	
***End_of_Header***							
X_Value	Untitled	Untitled 1	Untitled 2	Untitled 3	Untitled 4	Untitled 5	Comment
0.000000	0.031299	4.098500	0.128230	20.943263	0.000907	20.702398
1.000550	-3.003000	3.925700	-11.788000	20.938448	0.000908	20.710386
2.002767	-2.973300	3.919300	-11.652000	20.927372	0.000908	20.722068
3.004496	-3.004200	3.915600	-11.762000	20.922712	0.000904	20.718356
4.000413	-2.986400	3.910000	-11.676000	20.915920	0.000903	20.716779
5.003627	-2.989500	3.907200	-11.680000	20.939200	0.000903	20.714931
6.003530	-3.005500	3.903600	-11.731000	20.932138	0.000904	20.737741
7.001076	-2.987200	3.902000	-11.655000	20.943042	0.000903	20.705022
8.003739	-3.000600	3.900500	-11.703000	20.927723	0.000902	20.720049
9.002065	-2.967000	3.898000	-11.564000	20.924454	0.000902	20.714882
10.000950	-2.978800	3.897100	-11.608000	20.938529	0.000901	20.700983
11.004313	-3.001200	3.894400	-11.686000	20.947488	0.000899	20.706150
12.005703	-2.996500	3.892700	-11.664000	20.953855	0.000900	20.722476
13.001065	-2.986200	3.891400	-11.619000	20.956095	0.000898	20.716182
14.004378	-3.018400	3.888300	-11.735000	20.976243	0.000896	20.731117
15.004831	-2.999500	3.887000	-11.657000	20.971993	0.000899	20.712641
16.000279	-2.998700	3.887500	-11.656000	20.978638	0.000897	20.723081
17.004084	-2.996800	3.885200	-11.642000	20.947520	0.000896	20.719459
18.004854	-2.999000	3.884700	-11.649000	20.975098	0.000896	20.732343
19.002553	-2.993000	3.883900	-11.624000	20.986149	0.000895	20.731068
20.006650	-2.973100	3.885000	-11.548000	20.991912	0.000894	20.734935
21.008157	-3.001500	3.882500	-11.653000	20.994486	0.000894	20.733243
22.004029	-2.995700	3.882900	-11.631000	20.999978	0.000893	20.715501
23.006375	-3.004600	3.880200	-11.657000	21.016072	0.000894	20.726383
24.007745	-3.016400	3.880400	-11.704000	21.024507	0.000891	20.730552
25.004692	-3.001700	3.878400	-11.640000	21.012427	0.000891	20.729375
26.008169	-3.017100	3.875700	-11.692000	21.032320	0.000892	20.743109
27.005660	-2.993300	3.878300	-11.607000	21.026755	0.000891	20.720946
28.004365	-2.996900	3.876800	-11.618000	21.045913	0.000891	20.737739
29.012384	-2.995300	3.877200	-11.612000	21.058271	0.000892	20.733977
30.008275	-3.017900	3.875500	-11.695000	21.054928	0.000890	20.739169
31.005170	-3.007200	3.875400	-11.653000	21.049067	0.000889	20.732832
32.008424	-2.995800	3.874000	-11.605000	21.054699	0.000890	20.738466
33.011449	-3.001000	3.873000	-11.621000	21.068871	0.000890	20.730830
34.006573	-2.987500	3.873400	-11.571000	21.069623	0.000889	20.747704
35.008714	-3.023500	3.871300	-11.704000	21.084195	0.000890	20.745210
36.010231	-3.005400	3.871900	-11.635000	21.082415	0.000889	20.755757
37.009817	-3.002900	3.870500	-11.622000	21.090309	0.000887	20.735677
38.012518	-3.002400	3.870900	-11.620000	21.107268	0.000888	20.748374
39.013326	-3.004300	3.870700	-11.628000	21.127030	0.000888	20.770987
40.009834	-3.016200	3.870000	-11.671000	21.129081	0.000887	20.725621
41.013707	-3.012800	3.870300	-11.659000	21.121668	0.000886	20.733380
42.014915	-3.010100	3.868700	-11.644000	21.154572	0.000886	20.756811
43.010747	-2.986900	3.870800	-11.561000	21.144028	0.000888	20.745790
44.015324	-2.995600	3.868700	-11.588000	21.147167	0.000885	20.760784
45.013283	-2.982700	3.869300	-11.541000	21.165899	0.000887	20.768616
46.014287	-3.022400	3.866600	-11.686000	21.168890	0.000886	20.743159
47.015063	-3.002200	3.867900	-11.611000	21.195883	0.000886	20.752143
48.014089	-2.995300	3.867200	-11.583000	21.180315	0.000885	20.754588
49.014737	-3.011400	3.865700	-11.640000	21.181541	0.000885	20.757236
50.015710	-3.012800	3.866300	-11.647000	21.181983	0.000884	20.740608
51.019471	-2.994500	3.866000	-11.575000	21.203116	0.000886	20.760801
52.014715	-2.989300	3.866300	-11.555000	21.198450	0.000885	20.755659
53.015087	-3.006300	3.863900	-11.615000	21.202863	0.000885	20.763393
54.014569	-2.994900	3.864400	-11.572000	21.202635	0.000885	20.752259
55.015969	-2.990600	3.865000	-11.557000	21.219347	0.000884	20.743372
56.017932	-3.014300	3.863500	-11.644000	21.225108	0.000884	20.776164
57.015676	-3.010600	3.864100	-11.632000	21.249362	0.000885	20.770555
58.017268	-3.021200	3.864000	-11.674000	21.282556	0.000883	20.758718
59.015640	-3.018700	3.862400	-11.659000	21.254976	0.000883	20.768584
60.016318	-3.020000	3.861400	-11.660000	21.272284	0.000885	20.773097
61.016859	-3.033500	3.861100	-11.712000	21.264455	0.000883	20.770955
62.016311	-3.006400	3.862900	-11.612000	21.288823	0.000882	20.764039
63.016045	-3.013300	3.861500	-11.633000	21.267095	0.000884	20.772174
64.019347	-3.000800	3.861700	-11.587000	21.287753	0.000883	20.765339
65.020047	-3.000100	3.861500	-11.583000	21.303017	0.000882	20.762592
66.021080	-3.002500	3.860700	-11.591000	21.292239	0.000885	20.758922
67.019587	-3.004400	3.862000	-11.602000	21.287303	0.000883	20.770579
68.018867	-2.995700	3.861100	-11.566000	21.310397	0.000883	20.763811
69.019296	-2.998900	3.861000	-11.578000	21.319588	0.000882	20.765420
70.017078	-3.002800	3.860500	-11.592000	21.317791	0.000882	20.772631
71.019303	-2.989700	3.860400	-11.540000	21.338145	0.000885	20.776399
72.019034	-2.968000	3.862000	-11.461000	21.342737	0.000884	20.765820
73.021574	-2.989800	3.860800	-11.542000	21.342786	0.000884	20.768240
74.018347	-3.002400	3.858100	-11.582000	21.369456	0.000884	20.771216
75.020217	-2.983600	3.859600	-11.514000	21.368101	0.000883	20.774127
76.019164	-2.988900	3.858400	-11.531000	21.368435	0.000885	20.778729
77.019954	-3.023300	3.858000	-11.663000	21.420639	0.000883	20.788285
78.020186	-2.998300	3.858100	-11.566000	21.395627	0.000885	20.778908
79.020428	-3.000000	3.858000	-11.573000	21.402981	0.000882	20.768248
80.020323	-3.001000	3.858200	-11.578000	21.418146	0.000884	20.767774
81.023350	-3.004800	3.856100	-11.585000	21.418105	0.000883	20.790966
82.021194	-2.988100	3.857300	-11.526000	21.424788	0.000883	20.781532
83.022594	-2.986700	3.857600	-11.520000	21.447560	0.000883	20.771599
84.021674	-2.991700	3.857300	-11.540000	21.439977	0.000882	20.799574
85.021342	-3.000400	3.854400	-11.564000	21.441178	0.000883	20.776120
86.023369	-2.986200	3.856500	-11.515000	21.473648	0.000882	20.778262
87.022478	-2.997200	3.855500	-11.555000	21.475993	0.000883	20.769228
88.023659	-3.014500	3.856100	-11.623000	21.496671	0.000883	20.794187
89.025062	-2.992500	3.854700	-11.534000	21.490069	0.000882	20.789003
90.022572	-3.009500	3.853700	-11.597000	21.496973	0.000882	20.776471
91.022652	-3.003700	3.854400	-11.576000	21.474333	0.000884	20.782266
92.024806	-2.984600	3.854400	-11.503000	21.490192	0.000884	20.772530
93.023763	-2.992700	3.854000	-11.533000	21.509301	0.000884	20.784539
94.023466	-2.988600	3.856000	-11.523000	21.518353	0.000883	20.793597
95.024515	-2.985700	3.854100	-11.506000	21.510649	0.000884	20.792052
96.026412	-2.993200	3.852900	-11.531000	21.500158	0.000883	20.787718
97.024879	-2.983000	3.852800	-11.491000	21.507167	0.000885	20.793310
98.028720	-2.993200	3.854500	-11.536000	21.523149	0.000885	20.801714
99.027351	-3.003900	3.852200	-11.570000	21.525395	0.000883	20.788315
100.025916	-3.002600	3.852600	-11.567000	21.551278	0.000886	20.817059
101.026168	-3.012500	3.853200	-11.605000	21.580982	0.000886	20.800791
102.026627	-3.026300	3.850300	-11.651000	21.575107	0.000887	20.790170
103.027425	-2.993200	3.852500	-11.531000	21.595376	0.000887	20.794332
104.027728	-3.007100	3.851000	-11.579000	21.610416	0.000887	20.809382
105.027623	-2.997500	3.852800	-11.548000	21.629025	0.000886	20.795762
106.028543	-2.988000	3.851800	-11.508000	21.605236	0.000885	20.805146
107.028903	-3.001900	3.849700	-11.554000	21.630348	0.000887	20.786180
108.032987	-3.007700	3.849900	-11.578000	21.646588	0.000886	20.802906
109.031095	-2.986600	3.850700	-11.500000	21.639841	0.000887	20.814647
110.029658	-3.027300	3.849900	-11.652000	21.669421	0.000887	20.783556
111.029750	-3.008300	3.849700	-11.579000	21.647732	0.000888	20.816379
112.028723	-3.010200	3.850100	-11.588000	21.647813	0.000887	20.787536
113.029159	-3.001300	3.849500	-11.552000	21.651048	0.000887	20.789826
114.029329	-3.004600	3.848800	-11.563000	21.657910	0.000887	20.805702
115.029408	-3.023000	3.848400	-11.632000	21.679623	0.000889	20.790922
116.032772	-2.999200	3.847900	-11.539000	21.683993	0.000888	20.819951
117.032281	-3.001800	3.849000	-11.552000	21.701197	0.000890	20.803977
118.034075	-3.011200	3.848500	-11.587000	21.690030	0.000890	20.796120
119.032760	-3.000000	3.848800	-11.546000	21.684344	0.000888	20.798491
120.033480	-2.993300	3.848500	-11.519000	21.690854	0.000889	20.805955
121.033878	-3.005000	3.847800	-11.562000	21.702380	0.000889	20.810377
122.032721	-2.992100	3.848400	-11.514000	21.718366	0.000888	20.818315
123.033441	-3.007900	3.846700	-11.570000	21.721339	0.000889	20.807065
124.036160	-3.017400	3.846500	-11.604000	21.710614	0.000889	20.809134
125.039478	-3.004800	3.846700	-11.556000	21.722981	0.000890	20.817244
126.033074	-3.017700	3.846700	-11.607000	21.738419	0.000889	20.782908
127.033909	-2.999600	3.845300	-11.533000	21.719623	0.000890	20.800607
128.035754	-2.999200	3.846600	-11.536000	21.744357	0.000890	20.791222
129.036695	-3.021000	3.845700	-11.617000	21.773607	0.000891	20.788728
130.033825	-3.009500	3.844900	-11.570000	21.782584	0.000889	20.793919
131.033523	-3.008800	3.844900	-11.567000	21.760897	0.000891	20.791180
132.035185	-3.041400	3.845200	-11.694000	21.762645	0.000892	20.781550
133.035016	-3.005400	3.846100	-11.558000	21.807439	0.000891	20.787976
134.035266	-3.000800	3.845500	-11.539000	21.790940	0.000893	20.772884
135.034791	-3.015200	3.845100	-11.593000	21.796625	0.000893	20.776678
136.034879	-2.995200	3.846800	-11.521000	21.810991	0.000892	20.769720
137.035391	-3.010700	3.843800	-11.571000	21.826151	0.000894	20.768772
138.037354	-3.017500	3.844500	-11.599000	21.835029	0.000894	20.774813
139.038105	-3.005800	3.843700	-11.552000	21.831566	0.000893	20.765182
140.037644	-3.023200	3.842600	-11.616000	21.838141	0.000895	20.773187
141.037262	-2.990400	3.843600	-11.492000	21.828610	0.000895	20.784510
142.037300	-3.021200	3.842300	-11.607000	21.812985	0.000894	20.778827
143.037130	-2.984200	3.843400	-11.469000	21.820915	0.000897	20.785817
144.037282	-3.005900	3.842700	-11.550000	21.828569	0.000895	20.784942
145.039174	-3.006400	3.842800	-11.552000	21.852655	0.000894	20.765902
146.037859	-3.012800	3.842500	-11.575000	21.850294	0.000893	20.772548
147.037873	-2.985800	3.842900	-11.473000	21.850564	0.000896	20.769025
148.037023	-3.019700	3.840700	-11.597000	21.848097	0.000897	20.761814
149.037994	-2.995300	3.842200	-11.507000	21.875622	0.000897	20.757122
150.039732	-3.002500	3.841100	-11.530000	21.884043	0.000898	20.756068
151.038714	-2.999300	3.841100	-11.519000	21.885120	0.000897	20.741973
152.039209	-2.979300	3.842100	-11.445000	21.898939	0.000897	20.767659
153.039431	-3.007600	3.840300	-11.549000	21.913974	0.000897	20.773700
154.039963	-2.990700	3.840300	-11.484000	21.906714	0.000898	20.755527
155.041023	-3.007000	3.841200	-11.550000	21.935315	0.000899	20.773251
156.040331	-3.010700	3.840000	-11.559000	21.920034	0.000900	20.783559
157.039995	-2.981600	3.840500	-11.450000	21.920361	0.000898	20.761126
158.043139	-2.990100	3.840100	-11.481000	21.916326	0.000899	20.752820
159.041434	-3.006800	3.839300	-11.542000	21.926389	0.000900	20.752461
160.041411	-2.988600	3.839100	-11.471000	21.922656	0.000901	20.759156
161.041959	-3.002700	3.839200	-11.527000	21.925007	0.000899	20.771467
162.043617	-2.995500	3.839600	-11.500000	21.917754	0.000901	20.765156
163.045710	-3.000700	3.838300	-11.516000	21.939038	0.000901	20.752321
164.042732	-3.022400	3.837700	-11.599000	21.937126	0.000903	20.753727
165.042245	-3.007700	3.836300	-11.537000	21.943218	0.000902	20.761247
166.042627	-2.994100	3.838400	-11.492000	21.943537	0.000902	20.770101
167.041883	-2.973900	3.839300	-11.417000	21.962190	0.000903	20.735192
168.044198	-3.021800	3.838500	-11.598000	21.974611	0.000903	20.740988
169.044647	-3.007400	3.837300	-11.539000	21.996807	0.000902	20.743767
170.042618	-2.984300	3.838300	-11.454000	21.970731	0.000904	20.748958
171.043056	-2.973200	3.838000	-11.410000	21.977583	0.000903	20.744912
172.044827	-2.979800	3.839100	-11.439000	21.975239	0.000904	20.744462
173.044426	-2.977300	3.836700	-11.422000	22.020448	0.000906	20.749889
174.042715	-2.985200	3.836800	-11.453000	22.025830	0.000905	20.748165
175.043870	-2.994600	3.835800	-11.486000	22.042408	0.000907	20.730146
176.049455	-2.996500	3.835400	-11.491000	22.058911	0.000905	20.756152
177.044856	-2.994500	3.835300	-11.485000	22.048091	0.000908	20.753855
178.044282	-2.981600	3.835200	-11.434000	22.062259	0.000907	20.760926
179.045354	-2.991400	3.834800	-11.470000	22.079326	0.000907	20.737234
180.044123	-2.984400	3.836300	-11.447000	22.095420	0.000907	20.742440
181.044366	-2.966500	3.836200	-11.378000	22.092652	0.000909	20.755317
182.045169	-2.995500	3.834800	-11.485000	22.103472	0.000908	20.760933
183.045953	-2.995700	3.835300	-11.487000	22.094294	0.000910	20.745106
184.046225	-3.015800	3.834700	-11.563000	22.080313	0.000909	20.749128
185.046106	-3.001900	3.835300	-11.511000	22.102728	0.000909	20.755921
186.046955	-2.994400	3.834700	-11.481000	22.086821	0.000910	20.730987
187.045813	-2.991500	3.833400	-11.465000	22.083015	0.000910	20.722434
188.048387	-3.008700	3.833300	-11.532000	22.090291	0.000909	20.744893
189.047192	-2.987400	3.833800	-11.453000	22.115049	0.000911	20.737910
190.046975	-2.995100	3.833200	-11.478000	22.122276	0.000911	20.740404
191.047316	-3.004300	3.833000	-11.512000	22.129682	0.000912	20.737861
192.045061	-2.986500	3.832900	-11.445000	22.130539	0.000911	20.716906
193.045601	-2.988000	3.832900	-11.452000	22.145196	0.000913	20.717356
194.049053	-3.008000	3.831700	-11.524000	22.127729	0.000913	20.726422
195.046720	-2.998600	3.831300	-11.487000	22.128627	0.000915	20.733486
196.046303	-3.019700	3.831400	-11.568000	22.130571	0.000915	20.749183
197.046482	-3.000800	3.831800	-11.497000	22.159566	0.000916	20.742176
198.048121	-2.993000	3.831700	-11.467000	22.166098	0.000915	20.721688
199.048662	-3.036700	3.829400	-11.628000	22.172753	0.000914	20.715074
200.048825	-2.996800	3.830800	-11.479000	22.183825	0.000917	20.756981
201.047659	-2.997700	3.830900	-11.483000	22.186077	0.000917	20.745011
202.047479	-2.994200	3.830200	-11.468000	22.189809	0.000917	20.734523
203.048442	-3.024100	3.828700	-11.577000	22.206171	0.000918	20.724826
204.048542	-3.003200	3.830500	-11.501000	22.222950	0.000919	20.720762
205.048994	-3.019500	3.829400	-11.562000	22.231074	0.000918	20.714197
206.049202	-3.010700	3.828000	-11.524000	22.238659	0.000918	20.724637
207.049026	-2.994400	3.829200	-11.464000	22.220092	0.000917	20.730229
208.050423	-2.997600	3.828800	-11.476000	22.252694	0.000919	20.729681
209.051090	-3.013200	3.829400	-11.538000	22.262099	0.000919	20.722976
210.053410	-2.990700	3.826800	-11.444000	22.267904	0.000921	20.711244
211.053560	-3.002000	3.828900	-11.493000	22.272769	0.000922	20.723229
212.054801	-3.001700	3.827800	-11.488000	22.283489	0.000921	20.739180
213.056201	-3.022900	3.826600	-11.567000	22.285980	0.000921	20.724129
214.055007	-3.009600	3.826400	-11.515000	22.300144	0.000922	20.738787
215.055418	-2.998500	3.827900	-11.477000	22.309762	0.000921	20.725183
216.056177	-3.001800	3.827300	-11.486000	22.315182	0.000923	20.714014
217.055481	-2.997800	3.828600	-11.476000	22.312113	0.000924	20.737020
218.054615	-2.995200	3.826900	-11.461000	22.318897	0.000925	20.735753
219.061711	-2.987000	3.828700	-11.435000	22.335796	0.000922	20.711422
220.054368	-3.011400	3.825000	-11.517000	22.311026	0.000923	20.728819
221.055483	-2.982500	3.826600	-11.411000	22.328080	0.000925	20.727404
222.058709	-2.989900	3.825500	-11.437000	22.334587	0.000928	20.719221
223.060752	-3.015500	3.824500	-11.532000	22.319132	0.000926	20.720341
224.057701	-2.998800	3.824200	-11.467000	22.326267	0.000928	20.715631
225.059878	-2.986300	3.825500	-11.423000	22.327394	0.000928	20.729562
226.058720	-2.967900	3.826800	-11.355000	22.359919	0.000927	20.682470
227.058489	-3.021400	3.824200	-11.553000	22.359029	0.000927	20.714772
228.062335	-2.981900	3.826300	-11.408000	22.373911	0.000929	20.706914
229.057734	-2.972200	3.825800	-11.369000	22.374483	0.000928	20.716022
230.057901	-3.004800	3.823800	-11.488000	22.389561	0.000929	20.688920
231.059178	-2.973000	3.825100	-11.370000	22.376384	0.000930	20.715081
232.059103	-3.002900	3.822500	-11.477000	22.373821	0.000930	20.708721
233.057627	-3.007800	3.824200	-11.502000	22.377356	0.000930	20.695190
234.061097	-2.984400	3.824600	-11.413000	22.395054	0.000932	20.702008
235.059432	-2.975100	3.823700	-11.375000	22.393357	0.000932	20.700782
236.060021	-3.004200	3.823000	-11.483000	22.399895	0.000932	20.721556
237.061494	-3.004700	3.822500	-11.485000	22.397331	0.000935	20.712350
238.060459	-2.996200	3.822600	-11.453000	22.418099	0.000933	20.715129
239.060564	-2.999700	3.822500	-11.465000	22.421006	0.000934	20.712824
240.062540	-3.006200	3.823000	-11.491000	22.412287	0.000935	20.684176
241.061992	-2.995600	3.821000	-11.445000	22.415854	0.000933	20.713829
242.060741	-3.009900	3.821200	-11.499000	22.431234	0.000935	20.698409
243.066469	-2.975000	3.822100	-11.369000	22.425226	0.000935	20.696186
244.062265	-2.987100	3.820700	-11.412000	22.435919	0.000937	20.707370
245.062186	-2.999900	3.819900	-11.458000	22.431592	0.000935	20.693078
246.065547	-3.015400	3.819400	-11.516000	22.458156	0.000937	20.711146
247.062787	-2.986600	3.820900	-11.410000	22.430923	0.000938	20.695727
248.062587	-2.989000	3.820000	-11.417000	22.455585	0.000937	20.721374
249.065079	-2.999600	3.819100	-11.455000	22.458629	0.000939	20.698818
250.064147	-2.995600	3.820500	-11.444000	22.465037	0.000939	20.721358
251.064057	-3.005100	3.819800	-11.478000	22.478424	0.000938	20.699201
252.066330	-2.969400	3.820600	-11.344000	22.465314	0.000941	20.696029
253.070428	-2.977800	3.818600	-11.370000	22.482293	0.000939	20.720147
254.065605	-3.002600	3.819400	-11.466000	22.500586	0.000939	20.693420
255.069668	-3.000000	3.817900	-11.452000	22.495974	0.000942	20.697336
256.065749	-2.963800	3.819400	-11.317000	22.521891	0.000942	20.700533
257.069746	-3.016500	3.817800	-11.514000	22.520274	0.000942	20.687533
258.068621	-2.992400	3.817100	-11.421000	22.530918	0.000942	20.698194
259.067749	-2.978900	3.818900	-11.374000	22.524845	0.000943	20.685946
260.067551	-3.002400	3.817100	-11.459000	22.531326	0.000943	20.700025
261.069959	-2.995100	3.816100	-11.428000	22.551887	0.000943	20.687900
262.068125	-3.020600	3.816500	-11.527000	22.548696	0.000945	20.696558
263.068763	-3.001100	3.817000	-11.454000	22.569730	0.000944	20.684433
264.069084	-2.987000	3.817700	-11.403000	22.579223	0.000946	20.703900
265.067757	-3.007700	3.817100	-11.479000	22.584765	0.000945	20.685267
266.069818	-2.973600	3.818500	-11.353000	22.599742	0.000947	20.691259
267.070039	-3.010500	3.815000	-11.484000	22.604557	0.000948	20.674269
268.073618	-2.993100	3.815100	-11.418000	22.591832	0.000949	20.705623
269.069142	-2.998700	3.815700	-11.441000	22.614107	0.000948	20.699483
270.070298	-2.987400	3.815800	-11.398000	22.620710	0.000950	20.666739
271.074825	-2.999700	3.815300	-11.443000	22.617200	0.000950	20.678398
272.070175	-2.980000	3.815200	-11.367000	22.624227	0.000949	20.687334
273.072398	-2.994800	3.815700	-11.425000	22.642469	0.000950	20.668145
274.070364	-2.997300	3.814000	-11.430000	22.654017	0.000950	20.661693
275.069291	-3.002600	3.812500	-11.447000	22.645562	0.000951	20.674088
276.074363	-2.999400	3.813500	-11.438000	22.668317	0.000951	20.697830
277.070881	-2.976400	3.813900	-11.351000	22.664481	0.000951	20.680236
278.071455	-3.012300	3.811800	-11.481000	22.662048	0.000953	20.697241
279.074481	-2.994100	3.813000	-11.415000	22.683529	0.000954	20.688885
280.071007	-3.007300	3.811500	-11.461000	22.698701	0.000955	20.681797
281.073159	-3.024400	3.811600	-11.527000	22.687765	0.000952	20.684593
282.076314	-3.005600	3.811800	-11.457000	22.701019	0.000954	20.685541
283.073755	-3.010600	3.811200	-11.472000	22.698628	0.000956	20.692155
284.075749	-3.028800	3.811600	-11.543000	22.691657	0.000957	20.679957
285.078550	-2.996500	3.813700	-11.426000	22.683488	0.000955	20.706863
286.074241	-2.982700	3.812400	-11.370000	22.665345	0.000955	20.692008
287.074383	-2.997300	3.812100	-11.425000	22.673718	0.000958	20.677635
288.076940	-2.992100	3.809200	-11.396000	22.681488	0.000957	20.681151
289.073607	-3.002300	3.809700	-11.436000	22.666944	0.000957	20.680807
290.073808	-2.983000	3.812000	-11.369000	22.691584	0.000959	20.679883
291.077481	-3.000200	3.810600	-11.432000	22.705956	0.000958	20.683848
292.074857	-3.004600	3.810000	-11.447000	22.706364	0.000958	20.670979
293.077374	-3.008400	3.808200	-11.455000	22.714232	0.000961	20.672222
294.076273	-2.995100	3.808700	-11.406000	22.729853	0.000960	20.683603
295.074079	-2.990300	3.809100	-11.388000	22.698537	0.000960	20.678787
296.074672	-2.997200	3.808900	-11.415000	22.720761	0.000961	20.663114
297.077738	-2.993800	3.808500	-11.401000	22.714509	0.000962	20.684829
298.074726	-2.996500	3.808200	-11.410000	22.701410	0.000962	20.647048
299.075283	-2.996400	3.806100	-11.403000	22.683218	0.000961	20.678615
300.079193	-3.024500	3.807200	-11.514000	22.696301	0.000963	20.666114
301.077967	-2.995400	3.807800	-11.405000	22.687486	0.000964	20.676252
302.075691	-2.985200	3.807000	-11.362000	22.700382	0.000966	20.688696
303.076744	-2.983400	3.806900	-11.356000	22.701010	0.000963	20.668935
304.076612	-2.985900	3.805900	-11.364000	22.724050	0.000965	20.679687
305.075714	-2.995600	3.805700	-11.399000	22.699018	0.000965	20.675476
306.082627	-2.989400	3.806400	-11.378000	22.730660	0.000966	20.662124
307.075172	-3.008700	3.804100	-11.444000	22.732725	0.000967	20.668935
308.075326	-2.995500	3.805600	-11.399000	22.758376	0.000968	20.678984
309.078210	-3.002100	3.806000	-11.425000	22.767475	0.000967	20.650163
310.077795	-3.019300	3.805500	-11.488000	22.761999	0.000966	20.688304
311.075926	-3.016700	3.804500	-11.476000	22.769613	0.000968	20.690242
312.080066	-2.994100	3.804800	-11.391000	22.747114	0.000967	20.658691
313.078948	-2.998900	3.804700	-11.409000	22.739442	0.000968	20.673293
314.075692	-3.006700	3.804300	-11.438000	22.763313	0.000971	20.667807
315.082356	-3.019500	3.804000	-11.484000	22.731118	0.000970	20.683922
316.079796	-3.015000	3.803500	-11.466000	22.759249	0.000972	20.662787
317.077692	-2.993700	3.804200	-11.388000	22.757111	0.000972	20.668232
318.082808	-2.980700	3.804200	-11.337000	22.769238	0.000971	20.674217
319.080800	-3.001700	3.802000	-11.411000	22.769189	0.000972	20.636705
320.078655	-2.999000	3.802700	-11.402000	22.807879	0.000973	20.661242
321.081843	-3.005400	3.802500	-11.427000	22.814180	0.000974	20.673718
322.080294	-2.990900	3.802400	-11.371000	22.836025	0.000972	20.662411
323.079331	-2.995700	3.801100	-11.386000	22.829179	0.000974	20.685900
324.084733	-3.020300	3.800000	-11.476000	22.855259	0.000974	20.690691
325.081254	-2.980800	3.803500	-11.336000	22.851147	0.000976	20.670922
326.078784	-3.006600	3.801500	-11.428000	22.867099	0.000973	20.664618
327.081356	-2.996100	3.801100	-11.388000	22.898263	0.000975	20.644627
328.080524	-2.995700	3.800500	-11.385000	22.881992	0.000975	20.672900
329.083663	-2.978500	3.799400	-11.316000	22.899903	0.000978	20.684208
330.081171	-3.005400	3.798800	-11.416000	22.887924	0.000977	20.663195
331.083502	-3.001700	3.798400	-11.400000	22.896100	0.000977	20.666645
332.079463	-2.999200	3.798800	-11.392000	22.888692	0.000979	20.674397
333.080924	-2.998600	3.799700	-11.392000	22.874566	0.000976	20.651708
334.082620	-3.027300	3.796600	-11.492000	22.857788	0.000978	20.674731
335.079771	-3.014000	3.797000	-11.443000	22.868870	0.000979	20.663073
336.081135	-3.033000	3.796600	-11.514000	22.891914	0.000980	20.663874
337.080294	-3.012800	3.797500	-11.440000	22.872762	0.000979	20.653220
338.081840	-3.002800	3.798200	-11.404000	22.896851	0.000979	20.659810
339.081648	-3.005000	3.797700	-11.411000	22.881134	0.000978	20.684370
340.083233	-2.985300	3.796700	-11.332000	22.886095	0.000979	20.666105
341.083329	-3.009100	3.797600	-11.425000	22.907768	0.000980	20.647513
342.082283	-2.988000	3.797400	-11.345000	22.911604	0.000981	20.668427
343.083041	-3.000600	3.797700	-11.394000	22.915471	0.000983	20.687002
344.082498	-3.022200	3.796000	-11.471000	22.917837	0.000982	20.652859
345.084898	-3.008200	3.795900	-11.418000	22.944022	0.000982	20.669138
346.085009	-2.997700	3.796600	-11.381000	22.965963	0.000981	20.665990
347.084148	-3.019100	3.795400	-11.457000	22.982878	0.000983	20.649270
348.084367	-3.012400	3.795000	-11.431000	23.001407	0.000983	20.668786
349.086975	-3.002900	3.795400	-11.397000	23.010791	0.000983	20.681508
350.085440	-2.986900	3.795200	-11.335000	23.032722	0.000984	20.694948
351.085271	-3.003300	3.794600	-11.395000	22.996381	0.000983	20.669440
352.086799	-2.985700	3.794000	-11.327000	22.997997	0.000986	20.683862
353.084858	-2.976800	3.795600	-11.296000	23.015139	0.000985	20.680649
354.087056	-3.001400	3.794000	-11.387000	23.005095	0.000986	20.662523
355.091886	-3.010900	3.793800	-11.420000	23.003676	0.000986	20.682440
356.090451	-3.032900	3.792100	-11.499000	23.032641	0.000987	20.674477
357.088583	-2.999700	3.792500	-11.375000	22.995729	0.000986	20.675899
358.090246	-2.991800	3.792500	-11.346000	23.003276	0.000989	20.685359
359.093280	-2.998300	3.792800	-11.372000	22.985611	0.000988	20.671452
360.087116	-2.994800	3.793200	-11.358000	22.986092	0.000989	20.686634
361.092899	-3.031600	3.791000	-11.492000	22.976407	0.000986	20.654641
362.095605	-2.993100	3.792500	-11.348000	22.980038	0.000989	20.672032
363.090232	-3.011400	3.790700	-11.414000	22.997222	0.000990	20.683560
364.094721	-2.950200	3.792200	-11.186000	23.037324	0.000990	20.671582
365.093135	-2.988600	3.792200	-11.332000	23.043052	0.000991	20.653611
366.093793	-2.982100	3.791100	-11.305000	23.035782	0.000992	20.701808
367.093366	-2.998500	3.790700	-11.366000	23.047131	0.000992	20.672874
368.094070	-2.981800	3.790500	-11.301000	23.062331	0.000992	20.680518
369.090425	-2.978400	3.788800	-11.283000	23.073492	0.000993	20.668941
370.097627	-2.989400	3.788300	-11.323000	23.103279	0.000993	20.689781
371.091595	-2.992000	3.788800	-11.335000	23.112343	0.000991	20.698391
372.092608	-3.001400	3.788700	-11.370000	23.131099	0.000993	20.692528
373.092223	-2.992900	3.789700	-11.341000	23.137569	0.000990	20.681941
374.091898	-2.996800	3.786700	-11.347000	23.156675	0.000992	20.682595
375.095239	-3.000300	3.787500	-11.363000	23.152564	0.000992	20.679897
376.101748	-2.995000	3.788800	-11.347000	23.182275	0.000993	20.686437
377.096195	-3.006400	3.787500	-11.386000	23.188027	0.000994	20.678924
378.096442	-2.987500	3.787200	-11.313000	23.199179	0.000994	20.695317
379.096026	-2.999700	3.787600	-11.360000	23.193925	0.000993	20.691474
380.094888	-2.989200	3.787600	-11.320000	23.162378	0.000996	20.682619
381.095637	-3.014400	3.786600	-11.413000	23.134558	0.000995	20.706427
382.094888	-2.979200	3.786600	-11.280000	23.124377	0.000995	20.706656
383.095760	-3.006700	3.787000	-11.386000	23.140514	0.000995	20.699118
384.095869	-2.987400	3.787200	-11.313000	23.111649	0.000997	20.678728
385.095590	-2.985200	3.785500	-11.299000	23.129059	0.000996	20.692855
386.096669	-3.010300	3.786200	-11.397000	23.122018	0.000997	20.682006
387.097285	-3.021700	3.784900	-11.435000	23.112726	0.001001	20.695455
388.097268	-2.998400	3.783500	-11.343000	23.109406	0.000999	20.697818
389.099477	-2.989900	3.785200	-11.316000	23.139967	0.000999	20.675809
390.096744	-2.996100	3.783200	-11.335000	23.118495	0.000998	20.694123
391.097007	-2.999500	3.783900	-11.349000	23.135561	0.001000	20.693681
392.097668	-2.989100	3.783700	-11.309000	23.146592	0.000999	20.722754
393.098247	-2.977700	3.783400	-11.264000	23.174778	0.001001	20.675605
394.097899	-2.992100	3.782500	-11.317000	23.169875	0.001001	20.697720
395.101627	-3.011800	3.782500	-11.390000	23.180481	0.000999	20.695545
396.098184	-3.001300	3.782600	-11.351000	23.198240	0.001001	20.710499
397.098551	-3.001900	3.781100	-11.349000	23.196487	0.000999	20.687877
398.100172	-3.008800	3.780300	-11.373000	23.184185	0.001000	20.704000
399.100887	-2.992500	3.781700	-11.316000	23.188027	0.001002	20.700263
400.098711	-2.996200	3.782400	-11.332000	23.166734	0.001002	20.714014
401.107027	-3.035700	3.779300	-11.471000	23.174329	0.001004	20.707874
402.101059	-2.992700	3.780700	-11.313000	23.170340	0.001002	20.703403
403.103140	-3.010300	3.779900	-11.378000	23.177747	0.001002	20.736431
404.104270	-2.989300	3.780400	-11.298000	23.192187	0.001003	20.688784
405.099720	-2.985400	3.779300	-11.281000	23.210257	0.001001	20.704049
406.100591	-2.996700	3.778400	-11.321000	23.218708	0.001002	20.720579
407.103951	-2.979800	3.779700	-11.262000	23.268510	0.001004	20.704580
408.100972	-3.015400	3.779000	-11.394000	23.245554	0.001004	20.701963
409.100874	-3.024000	3.777500	-11.421000	23.291178	0.001003	20.722083
410.106424	-2.993000	3.779000	-11.309000	23.305388	0.001004	20.713090
411.104450	-3.008300	3.776700	-11.360000	23.326808	0.001004	20.709427
412.106876	-3.009000	3.776700	-11.362000	23.338782	0.001004	20.703410
413.106690	-3.005800	3.777000	-11.353000	23.357959	0.001003	20.707931
414.105793	-3.002500	3.777200	-11.340000	23.372901	0.001006	20.719115
415.105166	-2.983800	3.776400	-11.267000	23.379468	0.001005	20.699617
416.110297	-2.999800	3.777600	-11.331000	23.381931	0.001007	20.691654
417.107275	-3.021300	3.775400	-11.405000	23.379745	0.001007	20.715069
418.108434	-3.004900	3.776600	-11.347000	23.396824	0.001008	20.732662
419.113350	-2.995300	3.777000	-11.311000	23.425860	0.001006	20.726204
420.108568	-2.990900	3.775200	-11.291000	23.429841	0.001007	20.714071
421.109241	-3.022100	3.774700	-11.406000	23.418814	0.001007	20.721511
422.113948	-3.020300	3.773700	-11.396000	23.450109	0.001008	20.714946
423.108638	-3.015000	3.774600	-11.379000	23.439832	0.001008	20.732147
424.109727	-2.997400	3.773700	-11.309000	23.454863	0.001006	20.734412
425.115021	-2.986900	3.773600	-11.270000	23.464300	0.001011	20.717317
426.110934	-2.993600	3.772600	-11.292000	23.442923	0.001009	20.736194
427.110442	-2.994100	3.773300	-11.296000	23.412149	0.001009	20.717202
428.113488	-3.018100	3.771600	-11.381000	23.399450	0.001008	20.732923
429.110261	-3.006200	3.772300	-11.339000	23.385511	0.001011	20.712787
430.111166	-3.012500	3.771900	-11.362000	23.387998	0.001011	20.726187
431.116371	-2.994200	3.771900	-11.292000	23.393430	0.001010	20.733054
432.111174	-2.997300	3.771600	-11.303000	23.408944	0.001009	20.733430
433.111567	-3.014600	3.770400	-11.365000	23.417687	0.001012	20.728917
434.113840	-3.006100	3.769800	-11.331000	23.437457	0.001010	20.725499
435.111718	-2.989500	3.770200	-11.270000	23.457904	0.001010	20.734615
436.112707	-2.993800	3.770200	-11.285000	23.416430	0.001012	20.727657
437.116277	-2.983200	3.770100	-11.246000	23.430850	0.001010	20.713660
438.118660	-2.999400	3.771200	-11.310000	23.433958	0.001011	20.717724
439.116885	-2.996600	3.768900	-11.292000	23.443524	0.001012	20.722571
440.116638	-2.990400	3.769600	-11.272000	23.422441	0.001010	20.730362
441.114491	-2.982200	3.769500	-11.241000	23.415524	0.001013	20.724852
442.114901	-2.981800	3.767600	-11.233000	23.418835	0.001011	20.743819
443.117335	-3.001900	3.768300	-11.311000	23.428378	0.001012	20.722088
444.114833	-2.984900	3.768300	-11.247000	23.438091	0.001012	20.739412
445.113048	-2.993800	3.767800	-11.279000	23.449771	0.001015	20.744955
446.118594	-3.004600	3.768100	-11.321000	23.470911	0.001012	20.738643
447.116097	-2.985400	3.768300	-11.249000	23.480877	0.001011	20.734408
448.115860	-3.025200	3.765900	-11.392000	23.457901	0.001014	20.730344
449.119934	-3.005800	3.767000	-11.322000	23.457119	0.001014	20.736673
450.122356	-3.005100	3.766100	-11.315000	23.445798	0.001012	20.738602
451.117215	-3.003200	3.766200	-11.308000	23.438465	0.001014	20.754012
452.119953	-2.995600	3.765100	-11.278000	23.427357	0.001013	20.735764
453.117991	-3.005000	3.764200	-11.310000	23.442576	0.001013	20.752916
454.117014	-3.007500	3.765300	-11.323000	23.432593	0.001013	20.742909
455.121323	-2.995600	3.765300	-11.278000	23.435586	0.001014	20.730736
456.119201	-2.986600	3.765500	-11.245000	23.463292	0.001015	20.762775
457.117269	-2.997200	3.763800	-11.280000	23.451799	0.001015	20.744143
458.120759	-2.986500	3.763900	-11.240000	23.453520	0.001015	20.737333
459.120130	-2.988400	3.764300	-11.248000	23.435593	0.001016	20.732166
460.120006	-3.004300	3.764100	-11.307000	23.458307	0.001015	20.738812
461.121592	-2.991200	3.763000	-11.255000	23.459726	0.001016	20.760624
462.120874	-2.973000	3.765400	-11.193000	23.484080	0.001015	20.748999
463.121521	-3.000000	3.763200	-11.290000	23.475638	0.001016	20.732002
464.122784	-3.020600	3.761000	-11.359000	23.496313	0.001015	20.744665
465.120879	-3.004300	3.762400	-11.302000	23.500627	0.001015	20.743300
466.121689	-3.011600	3.760800	-11.326000	23.468355	0.001015	20.751729
467.122571	-3.007800	3.762300	-11.314000	23.508832	0.001017	20.737774
468.123994	-2.998600	3.761300	-11.278000	23.501972	0.001016	20.757925
469.121188	-3.007800	3.760300	-11.308000	23.533885	0.001015	20.728273
470.123715	-3.014000	3.759300	-11.329000	23.553930	0.001015	20.759274
471.123868	-3.002600	3.759800	-11.289000	23.556303	0.001015	20.733677
472.121750	-2.994700	3.759000	-11.256000	23.526748	0.001016	20.736293
473.126176	-3.009800	3.759500	-11.315000	23.522695	0.001017	20.749300
474.124406	-2.991800	3.758200	-11.242000	23.533655	0.001016	20.751752
475.124771	-3.001000	3.758100	-11.277000	23.568430	0.001016	20.731608
476.129797	-3.006000	3.757600	-11.294000	23.576356	0.001018	20.742399
477.128045	-3.009500	3.758400	-11.310000	23.593253	0.001018	20.750804
478.125086	-3.002500	3.756700	-11.279000	23.585791	0.001018	20.741426
479.128410	-3.033900	3.757000	-11.397000	23.597917	0.001017	20.757376
480.130453	-3.013000	3.756800	-11.318000	23.614692	0.001016	20.749536
481.123863	-3.005000	3.757400	-11.290000	23.659958	0.001018	20.772631
482.127335	-2.987200	3.758700	-11.227000	23.649406	0.001018	20.769165
483.127800	-3.015000	3.755000	-11.320000	23.653238	0.001020	20.756885
484.125151	-3.005200	3.757200	-11.289000	23.649161	0.001018	20.739995
485.129225	-2.986500	3.756300	-11.217000	23.636660	0.001019	20.744058
486.131444	-2.989100	3.756500	-11.227000	23.639709	0.001017	20.761340
487.127303	-2.981500	3.756700	-11.199000	23.639954	0.001020	20.761112
488.131382	-3.008600	3.753700	-11.291000	23.666391	0.001018	20.768175
489.128947	-2.997300	3.753600	-11.250000	23.681957	0.001020	20.781410
490.128651	-3.005800	3.752500	-11.277000	23.681232	0.001020	20.750811
491.132253	-3.007200	3.754900	-11.291000	23.680384	0.001019	20.754228
492.130592	-2.993300	3.754600	-11.239000	23.651941	0.001021	20.745153
493.128490	-3.005100	3.753200	-11.278000	23.641633	0.001019	20.778917
494.131032	-2.998300	3.754100	-11.255000	23.635436	0.001019	20.766065
495.129555	-2.998300	3.752600	-11.251000	23.657469	0.001019	20.769188
496.128240	-3.002200	3.753100	-11.266000	23.666333	0.001020	20.763850
497.132427	-3.010600	3.752900	-11.298000	23.679543	0.001017	20.776620
498.128894	-3.021600	3.750300	-11.331000	23.676265	0.001019	20.781394
499.128554	-3.004000	3.752000	-11.270000	23.680742	0.001021	20.761226
500.132010	-2.992000	3.752900	-11.228000	23.704193	0.001022	20.762926
501.131863	-2.998900	3.751100	-11.248000	23.699586	0.001021	20.793395
502.130298	-3.005500	3.751100	-11.273000	23.727269	0.001022	20.764250
503.132059	-3.014700	3.750100	-11.305000	23.735863	0.001021	20.790410
504.132306	-2.996500	3.750600	-11.237000	23.721332	0.001019	20.764462
505.130936	-3.010800	3.749500	-11.287000	23.732683	0.001022	20.785325
506.130734	-2.996400	3.750200	-11.236000	23.747873	0.001020	20.767838
507.133500	-2.990700	3.748800	-11.211000	23.771649	0.001021	20.767020
508.131593	-3.012800	3.749900	-11.296000	23.783023	0.001021	20.780796
509.132548	-3.016300	3.749800	-11.310000	23.802013	0.001019	20.769015
510.131262	-2.996800	3.748800	-11.233000	23.802290	0.001020	20.783044
511.132089	-3.005500	3.748600	-11.266000	23.820480	0.001021	20.781842
512.131755	-2.977600	3.748500	-11.161000	23.825494	0.001024	20.775490
513.132796	-3.008500	3.747900	-11.275000	23.839158	0.001022	20.812899
514.133381	-3.012800	3.746300	-11.285000	23.860381	0.001023	20.784393
515.133224	-2.980200	3.747600	-11.168000	23.879678	0.001022	20.774819
516.133749	-3.013000	3.746400	-11.286000	23.885385	0.001021	20.761575
517.133050	-3.002700	3.745400	-11.246000	23.877248	0.001021	20.773331
518.133979	-2.977600	3.746700	-11.155000	23.856271	0.001023	20.795919
519.133944	-3.007200	3.745700	-11.262000	23.879898	0.001020	20.791160
520.134658	-2.996100	3.744900	-11.220000	23.893839	0.001022	20.805140
521.140318	-2.986300	3.745200	-11.183000	23.859768	0.001023	20.776192
522.137907	-3.016600	3.744000	-11.292000	23.874655	0.001023	20.791119
523.137390	-2.988700	3.744600	-11.191000	23.847106	0.001022	20.804747
524.138023	-3.010100	3.744800	-11.271000	23.879636	0.001021	20.795166
525.138027	-3.011300	3.742500	-11.269000	23.850889	0.001021	20.790522
526.137861	-2.999400	3.744000	-11.229000	23.861055	0.001021	20.788862
527.139699	-3.003600	3.742500	-11.240000	23.859596	0.001025	20.791666
528.139122	-2.988100	3.743400	-11.184000	23.869697	0.001023	20.795157
529.141396	-3.013700	3.743300	-11.280000	23.885897	0.001022	20.801444
530.140676	-3.014100	3.741300	-11.275000	23.890136	0.001022	20.801901
531.144461	-2.989600	3.742500	-11.188000	23.910795	0.001023	20.798435
532.142207	-3.005400	3.742200	-11.245000	23.911969	0.001021	20.806724
533.142951	-2.993300	3.742300	-11.200000	23.932081	0.001021	20.782795
534.145007	-2.995900	3.740700	-11.205000	23.914708	0.001021	20.781022
535.141511	-3.006900	3.740900	-11.247000	23.922151	0.001021	20.802710
536.142571	-3.011900	3.739400	-11.262000	23.912645	0.001022	20.794600
537.148647	-2.976000	3.741100	-11.132000	23.886247	0.001020	20.782828
538.146704	-3.019600	3.739500	-11.290000	23.876691	0.001023	20.777514
539.145851	-2.986300	3.739300	-11.165000	23.884755	0.001023	20.778961
540.146423	-2.996800	3.738000	-11.201000	23.902633	0.001024	20.806846
541.143620	-3.020300	3.739500	-11.291000	23.894774	0.001024	20.816508
542.144610	-2.982100	3.738200	-11.147000	23.917854	0.001022	20.787970
543.147097	-2.997800	3.737500	-11.203000	23.944741	0.001024	20.807345
544.143879	-2.988800	3.738700	-11.173000	23.955013	0.001023	20.822861
545.144776	-2.990400	3.737500	-11.176000	23.958078	0.001022	20.810762
546.147834	-2.992800	3.736700	-11.181000	23.970469	0.001023	20.804696
547.144401	-3.012000	3.736100	-11.251000	23.940306	0.001024	20.785354
548.143595	-2.961200	3.738300	-11.068000	23.976175	0.001022	20.803780
549.147478	-3.000500	3.736800	-11.212000	23.949094	0.001021	20.797960
550.144326	-2.987100	3.736100	-11.159000	23.985355	0.001023	20.817727
551.144990	-3.022200	3.734100	-11.282000	23.988436	0.001023	20.787626
552.148063	-3.013000	3.733400	-11.248000	23.970967	0.001023	20.814203
553.149380	-2.994400	3.734400	-11.180000	23.941325	0.001022	20.815299
554.146086	-2.998900	3.735400	-11.201000	23.918612	0.001021	20.806748
555.150693	-2.987600	3.734600	-11.156000	23.908528	0.001023	20.822239
556.152004	-2.990800	3.734500	-11.167000	23.899674	0.001022	20.814784
557.146642	-3.011800	3.734400	-11.246000	23.917463	0.001022	20.823613
558.151360	-2.993600	3.733500	-11.176000	23.940738	0.001024	20.821348
559.147225	-3.004600	3.733200	-11.215000	23.973216	0.001025	20.829261
560.149662	-2.986800	3.734200	-11.152000	24.002286	0.001022	20.818111
561.149892	-2.990000	3.733500	-11.162000	23.991029	0.001024	20.831477
562.150392	-2.964300	3.734000	-11.067000	23.977104	0.001023	20.823678
563.147368	-2.995900	3.733200	-11.183000	23.962936	0.001023	20.848349
564.151886	-2.998400	3.731000	-11.185000	23.981629	0.001023	20.810197
565.148556	-2.994900	3.732100	-11.177000	23.991575	0.001022	20.814955
566.148068	-3.005100	3.730800	-11.210000	23.991729	0.001023	20.802309
567.151521	-2.999900	3.730600	-11.190000	23.977895	0.001022	20.814514
568.162889	-3.008900	3.729800	-11.222000	24.011865	0.001022	20.796897
569.148884	-2.992700	3.730200	-11.162000	24.019625	0.001025	20.815111
570.150999	-3.004700	3.729800	-11.205000	24.046876	0.001021	20.816361
571.150410	-3.003500	3.730300	-11.202000	24.042376	0.001022	20.811849
572.150563	-2.996200	3.729300	-11.173000	24.049265	0.001020	20.830136
573.153912	-2.999000	3.729400	-11.184000	24.068616	0.001022	20.810189
574.151443	-3.010500	3.728300	-11.222000	24.061263	0.001023	20.799496
575.150610	-2.982300	3.729600	-11.122000	24.071591	0.001022	20.811276
576.154052	-2.991200	3.727700	-11.149000	24.051139	0.001022	20.807360
577.150129	-3.015700	3.727400	-11.240000	24.061606	0.001023	20.796995
578.152233	-3.003200	3.727400	-11.193000	24.050862	0.001022	20.784797
579.155318	-3.012100	3.727500	-11.226000	24.025779	0.001021	20.808480
580.151521	-2.995000	3.727600	-11.163000	24.012117	0.001022	20.818012
581.151950	-2.987300	3.726700	-11.131000	24.008815	0.001021	20.816598
582.155843	-3.001200	3.725900	-11.181000	24.032325	0.001022	20.809355
583.153319	-3.007200	3.725300	-11.202000	24.024565	0.001019	20.827176
584.153022	-3.005200	3.725600	-11.195000	24.025209	0.001021	20.786097
585.152476	-3.004700	3.725100	-11.190000	24.050096	0.001021	20.813426
586.154277	-2.988100	3.724800	-11.129000	24.070401	0.001021	20.792539
587.156292	-2.978600	3.724500	-11.093000	24.051546	0.001018	20.805872
588.155818	-2.978900	3.725300	-11.095000	24.051701	0.001019	20.778052
589.157327	-2.993100	3.724500	-11.147000	24.072447	0.001021	20.803125
590.155227	-2.997200	3.724200	-11.161000	24.058989	0.001020	20.782990
591.158371	-2.995600	3.724400	-11.156000	24.037093	0.001022	20.810818
592.154787	-3.006700	3.724000	-11.195000	24.050136	0.001021	20.776957
593.158955	-2.986200	3.723900	-11.119000	24.040379	0.001020	20.763378
594.158457	-3.026500	3.721600	-11.262000	24.088602	0.001022	20.800836
595.158095	-2.993300	3.723500	-11.144000	24.063545	0.001019	20.796569
596.159923	-2.998900	3.723000	-11.163000	24.034729	0.001019	20.795645
597.160810	-3.012300	3.722900	-11.213000	24.042645	0.001019	20.795048
598.161162	-3.007800	3.721000	-11.190000	24.036221	0.001021	20.797141
599.160304	-2.979900	3.723400	-11.094000	24.030425	0.001019	20.782320
600.161078	-3.012800	3.720900	-11.210000	24.065167	0.001021	20.779703
601.163870	-2.998100	3.719900	-11.152000	24.090624	0.001018	20.786742
602.162667	-3.016100	3.719600	-11.218000	24.101049	0.001019	20.776809
603.162877	-3.005100	3.719000	-11.176000	24.116601	0.001018	20.770596
604.161401	-2.991900	3.719600	-11.127000	24.140166	0.001018	20.802765
605.162514	-2.994300	3.720700	-11.139000	24.168359	0.001020	20.784576
606.164401	-3.003700	3.718100	-11.167000	24.163607	0.001019	20.786448
607.164657	-3.001400	3.717400	-11.156000	24.183218	0.001017	20.784780
608.163569	-3.001000	3.718800	-11.159000	24.177700	0.001017	20.786357
609.164270	-2.992600	3.717700	-11.124000	24.212078	0.001019	20.762993
610.164392	-2.991800	3.718500	-11.125000	24.181751	0.001016	20.778567
611.162778	-3.022600	3.716200	-11.231000	24.169060	0.001016	20.774373
612.164610	-2.995700	3.716400	-11.132000	24.164023	0.001020	20.781174
613.162886	-2.985300	3.716900	-11.094000	24.149637	0.001018	20.775754
614.163752	-2.995300	3.716300	-11.130000	24.122445	0.001018	20.783095
615.165204	-2.998700	3.716400	-11.142000	24.130090	0.001017	20.786970
616.163332	-2.996900	3.717000	-11.139000	24.084705	0.001017	20.778435
617.163811	-3.002700	3.716000	-11.156000	24.039391	0.001019	20.784199
618.163974	-2.999800	3.716600	-11.148000	24.037231	0.001016	20.775394
619.164844	-3.013900	3.715200	-11.197000	24.031590	0.001017	20.773530
620.164151	-2.995100	3.714400	-11.124000	24.069633	0.001016	20.777544
621.165216	-3.021700	3.713700	-11.220000	24.079219	0.001017	20.805650
622.162642	-2.990600	3.714200	-11.107000	24.099572	0.001016	20.772483
623.162424	-2.986800	3.714700	-11.094000	24.113209	0.001017	20.785212
624.164923	-2.987800	3.714300	-11.097000	24.051822	0.001016	20.766319
625.164728	-3.003400	3.714700	-11.156000	24.100526	0.001016	20.750205
626.163329	-2.989500	3.715300	-11.105000	24.073651	0.001016	20.765927
627.165354	-3.018600	3.711700	-11.203000	24.052979	0.001015	20.754203
628.163055	-3.003700	3.712100	-11.150000	24.059427	0.001015	20.760670
629.163771	-3.028000	3.711400	-11.237000	24.047526	0.001016	20.773865
630.166422	-3.000400	3.711100	-11.134000	24.027399	0.001016	20.758421
631.165337	-3.003800	3.711700	-11.148000	24.023845	0.001014	20.776194
632.164941	-2.985000	3.713000	-11.081000	24.009962	0.001015	20.769384
633.163913	-3.014100	3.711300	-11.186000	24.001476	0.001016	20.761348
634.164295	-2.994600	3.711800	-11.113000	24.026258	0.001016	20.757277
635.164444	-3.001800	3.709900	-11.136000	24.034695	0.001015	20.760048
636.165655	-2.987000	3.711700	-11.084000	24.041713	0.001013	20.781786
637.164531	-3.005600	3.710200	-11.151000	24.044721	0.001017	20.762991
638.165899	-2.977700	3.710400	-11.048000	24.043906	0.001013	20.772605
639.167236	-3.010500	3.708900	-11.165000	24.039749	0.001014	20.780764
640.166118	-3.019000	3.707500	-11.190000	24.038338	0.001013	20.772711
641.166220	-3.000400	3.708400	-11.126000	24.021212	0.001016	20.764070
642.168723	-3.003500	3.707800	-11.135000	24.104251	0.001013	20.751096
643.173887	-3.034800	3.707000	-11.249000	24.093629	0.001014	20.760359
644.167452	-2.998200	3.707400	-11.114000	24.127318	0.001014	20.775655
645.171543	-3.010200	3.709200	-11.164000	24.122395	0.001014	20.767397
646.169094	-3.021300	3.707100	-11.198000	24.117985	0.001011	20.761078
647.172800	-3.021100	3.706500	-11.197000	24.100599	0.001012	20.764978
648.172219	-3.004300	3.706000	-11.133000	24.088453	0.001013	20.762754
649.171759	-2.995000	3.707100	-11.102000	24.104177	0.001013	20.756712
650.171094	-3.002500	3.706900	-11.129000	24.120504	0.001011	20.756017
651.172482	-2.995400	3.706300	-11.100000	24.141354	0.001013	20.740893
652.172923	-2.996600	3.705600	-11.103000	24.142291	0.001012	20.771232
653.172311	-3.007300	3.705700	-11.143000	24.182678	0.001012	20.736348
654.174170	-3.006600	3.704600	-11.137000	24.189198	0.001013	20.766122
655.175921	-3.004000	3.706000	-11.132000	24.218703	0.001010	20.751145
656.172599	-3.003200	3.704700	-11.125000	24.238035	0.001012	20.752044
657.173334	-2.991100	3.704300	-11.078000	24.250000	0.001012	20.756459
658.172630	-2.991200	3.704800	-11.080000	24.195768	0.001011	20.764176
659.174223	-3.033400	3.701900	-11.229000	24.207830	0.001013	20.750197
660.173354	-3.000400	3.703400	-11.111000	24.175555	0.001010	20.742005
661.173653	-3.015600	3.701800	-11.163000	24.152398	0.001011	20.753393
662.172259	-2.984300	3.703300	-11.050000	24.159693	0.001012	20.747433
663.177227	-3.016600	3.702000	-11.166000	24.175090	0.001012	20.765247
664.173847	-3.018000	3.702900	-11.173000	24.184226	0.001010	20.734107
665.174672	-2.993600	3.701400	-11.080000	24.216991	0.001009	20.745635
666.177000	-3.004200	3.699800	-11.114000	24.258190	0.001010	20.732431
667.173956	-2.990800	3.700700	-11.067000	24.296454	0.001010	20.747580
668.173892	-3.005900	3.701800	-11.126000	24.307676	0.001011	20.758838
669.177436	-2.982000	3.700600	-11.034000	24.283618	0.001010	20.748929
670.174313	-3.003500	3.700500	-11.113000	24.272722	0.001010	20.752698
671.174358	-3.006900	3.698600	-11.120000	24.269657	0.001009	20.742512
672.180338	-2.986100	3.700600	-11.048000	24.265778	0.001009	20.761381
673.174098	-2.983500	3.700500	-11.039000	24.288051	0.001009	20.759541
674.176635	-3.015600	3.699700	-11.155000	24.311359	0.001010	20.739299
675.179555	-3.011500	3.698600	-11.137000	24.351414	0.001011	20.751505
676.176772	-3.001100	3.698700	-11.099000	24.330788	0.001009	20.734606
677.177688	-3.003200	3.698600	-11.107000	24.326289	0.001006	20.743844
678.177510	-3.010900	3.697500	-11.131000	24.331668	0.001009	20.740705
679.176352	-3.020600	3.697200	-11.165000	24.310667	0.001007	20.746190
680.178209	-2.979400	3.697400	-11.015000	24.319207	0.001007	20.745749
681.178920	-2.998500	3.696900	-11.083000	24.310398	0.001009	20.750188
682.177700	-2.987100	3.697300	-11.044000	24.323763	0.001007	20.734671
683.178324	-2.974800	3.697000	-10.997000	24.299852	0.001007	20.763318
684.177243	-2.982800	3.697100	-11.027000	24.288564	0.001006	20.758159
685.178714	-2.961900	3.697300	-10.950000	24.296413	0.001007	20.752281
686.178806	-2.997100	3.694500	-11.072000	24.280521	0.001010	20.719743
687.179342	-3.002100	3.694700	-11.091000	24.334406	0.001007	20.746771
688.179799	-2.998500	3.695000	-11.079000	24.328766	0.001006	20.744432
689.180032	-3.003000	3.693200	-11.089000	24.367622	0.001009	20.728883
690.179028	-2.997000	3.694700	-11.072000	24.350753	0.001007	20.729978
691.179983	-3.039900	3.694000	-11.228000	24.358797	0.001006	20.719080
692.181584	-2.994300	3.694400	-11.061000	24.380115	0.001006	20.727664
693.181288	-3.010000	3.695000	-11.121000	24.372504	0.001007	20.748953
694.182386	-3.019300	3.691900	-11.146000	24.393178	0.001006	20.758314
695.181208	-3.020700	3.692400	-11.152000	24.332605	0.001007	20.731687
696.182590	-3.031300	3.693200	-11.194000	24.355243	0.001004	20.742069
697.182930	-3.010500	3.692800	-11.116000	24.319394	0.001005	20.736927
698.183239	-2.993500	3.693000	-11.053000	24.331113	0.001005	20.728768
699.183051	-2.988600	3.692800	-11.036000	24.332588	0.001003	20.739257
700.183609	-2.988000	3.692600	-11.033000	24.377955	0.001004	20.731662
701.184109	-3.001100	3.692500	-11.081000	24.356490	0.001003	20.729095
702.184367	-3.010300	3.690300	-11.108000	24.378159	0.001005	20.737082
703.185912	-2.998500	3.691400	-11.067000	24.391140	0.001004	20.748209
704.184139	-3.002400	3.690500	-11.079000	24.400919	0.001003	20.738104
705.189318	-3.010500	3.689100	-11.105000	24.416092	0.001003	20.721557
706.183392	-3.008700	3.689500	-11.099000	24.430271	0.001002	20.720134
707.184556	-3.008500	3.690200	-11.101000	24.465970	0.001003	20.743148
708.184697	-3.005700	3.688900	-11.087000	24.448288	0.001004	20.719717
709.186175	-3.022100	3.689100	-11.148000	24.430801	0.001004	20.732994
710.185052	-2.989800	3.689400	-11.029000	24.403478	0.001004	20.723601
711.184936	-2.996100	3.688900	-11.050000	24.371623	0.001004	20.725309
712.184494	-3.025500	3.687500	-11.156000	24.357615	0.001001	20.709833
713.186243	-2.996900	3.686700	-11.048000	24.366228	0.001003	20.718949
714.185726	-2.998700	3.688900	-11.061000	24.389779	0.001003	20.734041
715.185716	-3.008000	3.687000	-11.090000	24.420452	0.001002	20.726879
716.185271	-2.981600	3.688300	-10.996000	24.461244	0.001002	20.718965
717.188120	-2.998000	3.688200	-11.056000	24.471470	0.001003	20.722113
718.187187	-2.983600	3.688500	-11.003000	24.460103	0.001002	20.728253
719.186611	-2.991400	3.687100	-11.029000	24.439455	0.001003	20.734564
720.187396	-2.993600	3.685100	-11.031000	24.420126	0.001000	20.719914
721.187659	-2.983800	3.684900	-10.994000	24.439577	0.001001	20.722358
722.187602	-3.006500	3.684400	-11.075000	24.439577	0.001000	20.729945
723.188294	-2.986000	3.684700	-11.002000	24.460543	0.001000	20.697872
724.188088	-3.000900	3.684600	-11.056000	24.463566	0.001000	20.717027
725.188758	-2.965300	3.684800	-10.925000	24.469971	0.001000	20.733412
726.187952	-2.997800	3.684900	-11.046000	24.487783	0.001000	20.733264
727.189602	-2.970500	3.684400	-10.943000	24.488305	0.000999	20.716243
728.189406	-2.972900	3.683400	-10.949000	24.469849	0.000998	20.710054
729.194371	-2.988000	3.683400	-11.005000	24.485795	0.000998	20.706138
730.189212	-3.001500	3.682900	-11.053000	24.490725	0.000998	20.708713
731.189062	-3.010300	3.683400	-11.088000	24.517165	0.000997	20.696359
732.190652	-2.971300	3.682300	-10.941000	24.519276	0.000997	20.709383
733.192025	-2.983600	3.682400	-10.986000	24.504854	0.000997	20.720993
734.192990	-3.001900	3.681800	-11.052000	24.483114	0.000996	20.720993
735.192380	-3.003900	3.683000	-11.062000	24.472594	0.000997	20.707119
736.192540	-2.991900	3.683100	-11.018000	24.461122	0.000996	20.709359
737.191617	-2.999100	3.681700	-11.041000	24.453959	0.000995	20.700750
738.191986	-3.022700	3.680900	-11.124000	24.418447	0.000998	20.697365
739.192591	-3.009700	3.680200	-11.076000	24.433123	0.000996	20.700235
740.193251	-3.005000	3.678900	-11.054000	24.456004	0.000996	20.693318
741.192695	-3.006900	3.678900	-11.061000	24.446682	0.000995	20.688707
742.196095	-3.006100	3.678600	-11.057000	24.458343	0.000995	20.713684
743.192670	-2.993400	3.679700	-11.014000	24.484687	0.000996	20.705026
744.191463	-3.023200	3.678100	-11.118000	24.481378	0.000994	20.693645
745.192689	-2.980600	3.678400	-10.962000	24.506752	0.000995	20.699662
746.195016	-2.997300	3.678700	-11.025000	24.507298	0.000995	20.711591
747.195376	-3.011400	3.676300	-11.070000	24.485648	0.000992	20.705990
748.193208	-3.002700	3.677300	-11.040000	24.464234	0.000993	20.720069
749.195451	-2.999000	3.677400	-11.027000	24.438143	0.000994	20.706693
750.195020	-3.013200	3.676200	-11.076000	24.450129	0.000993	20.703546
751.195162	-2.995200	3.677300	-11.014000	24.475976	0.000993	20.710037
752.195971	-2.994900	3.677400	-11.010000	24.486496	0.000992	20.701150
753.197927	-3.011300	3.676600	-11.071000	24.497414	0.000993	20.708312
754.197614	-2.980100	3.677000	-10.957000	24.457324	0.000991	20.711239
755.195731	-2.982600	3.676500	-10.964000	24.494400	0.000991	20.714771
756.196831	-2.997500	3.674400	-11.013000	24.462637	0.000991	20.694283
757.195718	-2.989400	3.675400	-10.986000	24.468463	0.000991	20.683532
758.196302	-3.008900	3.673500	-11.052000	24.421421	0.000992	20.706988
759.198108	-2.999500	3.674600	-11.021000	24.401995	0.000991	20.699826
760.199832	-2.988700	3.674200	-10.979000	24.400047	0.000991	20.697872
761.198387	-2.966600	3.676500	-10.906000	24.395223	0.000990	20.701568
762.200979	-2.986300	3.674800	-10.972000	24.386316	0.000989	20.683622
763.206632	-3.009700	3.673700	-11.056000	24.402036	0.000989	20.681373
764.201402	-2.999000	3.673000	-11.015000	24.410494	0.000989	20.696024
765.201923	-2.994300	3.672900	-10.996000	24.445126	0.000990	20.673394
766.204087	-2.984200	3.672200	-10.957000	24.438485	0.000988	20.672895
767.201087	-2.991000	3.673000	-10.985000	24.452256	0.000988	20.690980
768.202250	-2.988300	3.672200	-10.973000	24.490317	0.000988	20.687914
769.204342	-3.004500	3.673100	-11.036000	24.500943	0.000988	20.687194
770.201494	-3.018800	3.670300	-11.079000	24.529347	0.000987	20.673018
771.204879	-3.000500	3.672200	-11.017000	24.547606	0.000988	20.696556
772.204515	-2.996100	3.671800	-10.999000	24.521158	0.000988	20.709850
773.201849	-3.005000	3.670800	-11.030000	24.556137	0.000989	20.693735
774.201591	-2.998400	3.671200	-11.007000	24.508553	0.000990	20.688192
775.203446	-3.011100	3.670200	-11.050000	24.497382	0.000987	20.684570
776.202631	-3.002100	3.669000	-11.014000	24.469547	0.000988	20.677032
777.205482	-3.025900	3.669900	-11.105000	24.450431	0.000987	20.668758
778.206216	-3.002600	3.669700	-11.017000	24.461268	0.000987	20.672993
779.204340	-3.008400	3.668100	-11.034000	24.492639	0.000985	20.682657
780.204954	-2.987400	3.669800	-10.962000	24.521321	0.000985	20.663067
781.204740	-3.017500	3.668600	-11.069000	24.557188	0.000986	20.681512
782.203342	-3.013100	3.668300	-11.052000	24.557628	0.000985	20.660615
783.204370	-3.009800	3.668000	-11.040000	24.563926	0.000984	20.674048
784.207558	-2.975700	3.668800	-10.916000	24.578649	0.000986	20.685028
785.206447	-3.003900	3.667600	-11.016000	24.599417	0.000986	20.671251
786.207479	-2.990600	3.667500	-10.966000	24.604990	0.000984	20.666411
787.207659	-2.966300	3.668400	-10.879000	24.601633	0.000983	20.670156
788.207023	-2.970400	3.667500	-10.893000	24.589404	0.000983	20.671635
789.209302	-3.020000	3.665300	-11.068000	24.584564	0.000983	20.660140
790.210801	-3.003200	3.666000	-11.009000	24.592206	0.000984	20.673025
791.209374	-3.018000	3.664800	-11.059000	24.605788	0.000982	20.688551
792.208312	-2.992200	3.666800	-10.970000	24.579675	0.000983	20.672780
793.212080	-3.010100	3.665700	-11.032000	24.590463	0.000984	20.667008
794.209971	-2.984100	3.664800	-10.935000	24.570559	0.000981	20.650354
795.208617	-2.996100	3.665300	-10.980000	24.581949	0.000981	20.656567
796.212364	-2.994300	3.664400	-10.970000	24.539793	0.000983	20.658366
797.209590	-2.992200	3.665600	-10.967000	24.542033	0.000981	20.671521
798.210735	-3.014200	3.663400	-11.040000	24.534398	0.000980	20.680458
799.213698	-3.003500	3.663700	-11.002000	24.560162	0.000979	20.666477
800.211246	-3.005700	3.664000	-11.012000	24.563690	0.000981	20.661007
801.209473	-3.015700	3.661800	-11.042000	24.577794	0.000979	20.664727
802.213743	-3.003900	3.663700	-11.003000	24.595767	0.000980	20.650043
803.211926	-2.975800	3.664400	-10.903000	24.594879	0.000980	20.671914
804.211953	-2.996900	3.662000	-10.973000	24.601715	0.000978	20.650795
805.215775	-2.992300	3.662600	-10.959000	24.614841	0.000978	20.665390
806.212802	-3.013500	3.660600	-11.030000	24.614718	0.000979	20.665267
807.212822	-3.021500	3.661500	-11.061000	24.617554	0.000977	20.661473
808.216435	-3.003600	3.661500	-10.997000	24.618409	0.000980	20.659012
809.214328	-2.992000	3.661700	-10.955000	24.616112	0.000978	20.663346
810.217244	-3.000100	3.661200	-10.984000	24.627827	0.000977	20.654712
811.217308	-3.009600	3.659700	-11.013000	24.697019	0.000977	20.671988
812.216496	-3.003700	3.659400	-10.991000	24.688384	0.000976	20.656208
813.214568	-3.015600	3.659500	-11.035000	24.692661	0.000977	20.644377
814.216250	-3.001600	3.658900	-10.981000	24.727227	0.000976	20.670058
815.217769	-2.997800	3.658500	-10.966000	24.723993	0.000977	20.647844
816.215678	-2.999600	3.660300	-10.979000	24.742151	0.000974	20.665594
817.221324	-2.970100	3.659500	-10.868000	24.686193	0.000975	20.668235
818.220115	-3.010300	3.657600	-11.009000	24.643389	0.000975	20.656576
819.218164	-2.989900	3.657800	-10.936000	24.590520	0.000974	20.643829
820.221556	-3.006100	3.656300	-10.989000	24.593551	0.000976	20.662046
821.220329	-2.976800	3.658200	-10.889000	24.537088	0.000974	20.663240
822.216930	-3.010100	3.656900	-11.006000	24.527864	0.000975	20.658726
823.222822	-2.997400	3.657000	-10.960000	24.523016	0.000974	20.650542
824.219703	-3.004600	3.656600	-10.986000	24.513467	0.000974	20.650918
825.221585	-3.008300	3.655700	-10.996000	24.569483	0.000971	20.661604
826.220239	-2.996200	3.655100	-10.950000	24.585322	0.000972	20.665643
827.222727	-2.996200	3.656100	-10.953000	24.604200	0.000972	20.674154
828.218901	-3.009400	3.654700	-10.997000	24.631828	0.000971	20.662994
829.224140	-3.020200	3.653700	-11.034000	24.654615	0.000971	20.646977
830.223132	-3.025300	3.653600	-11.052000	24.659837	0.000971	20.636569
831.219211	-3.019300	3.654600	-11.033000	24.621986	0.000971	20.648375
832.227738	-2.985000	3.655100	-10.910000	24.632976	0.000974	20.657982
833.222348	-3.004100	3.654100	-10.976000	24.630565	0.000970	20.670262
834.221947	-3.016900	3.653600	-11.021000	24.644863	0.000970	20.638139
835.222769	-3.017300	3.653200	-11.022000	24.650615	0.000970	20.646282
836.221079	-3.005000	3.653200	-10.977000	24.662175	0.000970	20.652668
837.219624	-3.000800	3.653400	-10.961000	24.668139	0.000970	20.658178
838.222843	-3.004700	3.652900	-10.975000	24.653939	0.000968	20.655309
839.219411	-3.014800	3.651500	-11.007000	24.639967	0.000967	20.688707
840.220122	-3.002700	3.652800	-10.967000	24.616242	0.000968	20.645931
841.222172	-3.012300	3.652000	-11.000000	24.632553	0.000969	20.668938
842.222951	-2.997800	3.652000	-10.946000	24.619020	0.000966	20.675274
843.220747	-2.996200	3.650800	-10.937000	24.631111	0.000966	20.655636
844.225453	-3.005400	3.651300	-10.971000	24.651568	0.000968	20.653404
845.223040	-2.987700	3.652000	-10.909000	24.652000	0.000967	20.675650
846.221274	-3.013000	3.650200	-10.997000	24.644594	0.000967	20.650198
847.221277	-2.984700	3.650800	-10.894000	24.657491	0.000966	20.673574
848.221850	-3.012000	3.649300	-10.989000	24.682714	0.000966	20.643404
849.225125	-3.006400	3.650400	-10.974000	24.675553	0.000967	20.652815
850.223479	-3.016600	3.648400	-11.003000	24.686795	0.000965	20.673108
851.222970	-3.011900	3.649700	-10.991000	24.696661	0.000964	20.644598
852.222836	-2.988500	3.649400	-10.905000	24.706168	0.000965	20.679272
853.223923	-3.033700	3.646400	-11.060000	24.756074	0.000964	20.667238
854.223323	-3.004400	3.648400	-10.961000	24.759690	0.000963	20.659961
855.224663	-3.010800	3.646400	-10.978000	24.760057	0.000963	20.657958
856.225112	-3.013300	3.647600	-10.990000	24.776227	0.000965	20.677032
857.226111	-2.996300	3.646900	-10.927000	24.790760	0.000964	20.685928
858.226892	-3.000400	3.646700	-10.941000	24.756123	0.000964	20.665864
859.226448	-2.974300	3.647700	-10.847000	24.786084	0.000963	20.657525
860.226654	-2.999900	3.646200	-10.938000	24.762485	0.000963	20.658497
861.226778	-2.983300	3.647300	-10.880000	24.779820	0.000962	20.664515
862.226733	-3.006100	3.646000	-10.959000	24.737989	0.000960	20.679910
863.228083	-2.984900	3.646200	-10.882000	24.755618	0.000961	20.663460
864.229593	-3.009500	3.645500	-10.970000	24.768627	0.000960	20.667982
865.230844	-2.985400	3.646900	-10.886000	24.788789	0.000961	20.664981
866.229761	-3.004400	3.645100	-10.950000	24.801546	0.000960	20.666878
867.230655	-3.013800	3.645000	-10.984000	24.765507	0.000962	20.657737
868.231263	-3.020000	3.643700	-11.002000	24.795298	0.000960	20.684792
869.233552	-3.021500	3.643500	-11.007000	24.848009	0.000961	20.675103
870.242597	-3.010000	3.642700	-10.964000	24.821153	0.000960	20.677548
871.231452	-2.978100	3.644700	-10.853000	24.859210	0.000958	20.685397
872.233183	-3.004300	3.642900	-10.942000	24.858835	0.000958	20.675063
873.232897	-3.004600	3.642500	-10.942000	24.855276	0.000959	20.667696
874.233117	-3.011800	3.642100	-10.967000	24.804121	0.000958	20.686060
875.233965	-2.998200	3.643200	-10.922000	24.763382	0.000957	20.688325
876.233795	-3.017300	3.641800	-10.987000	24.762340	0.000957	20.715255
877.234296	-3.007200	3.641100	-10.949000	24.739457	0.000957	20.697980
878.234726	-2.999600	3.641800	-10.923000	24.751481	0.000958	20.683967
879.234438	-3.000100	3.640400	-10.919000	24.791463	0.000958	20.692797
880.236357	-2.995200	3.641100	-10.904000	24.796888	0.000958	20.682120
881.233850	-2.996200	3.640200	-10.905000	24.803886	0.000955	20.681082
882.234710	-2.967200	3.641700	-10.803000	24.777900	0.000954	20.674443
883.236150	-2.982300	3.640100	-10.855000	24.788042	0.000956	20.687467
884.236191	-2.987900	3.639600	-10.874000	24.755311	0.000956	20.679275
885.238062	-3.005600	3.638600	-10.936000	24.745780	0.000955	20.680616
886.235638	-3.012300	3.638900	-10.960000	24.733267	0.000955	20.676594
887.235911	-2.982700	3.640000	-10.856000	24.763352	0.000954	20.684974
888.236682	-3.000400	3.639000	-10.917000	24.801174	0.000954	20.683576
889.236564	-2.994100	3.639200	-10.895000	24.805646	0.000953	20.714620
890.237223	-3.009100	3.638000	-10.947000	24.845585	0.000954	20.690215
891.236586	-3.005800	3.638300	-10.935000	24.836975	0.000952	20.696748
892.236657	-3.045300	3.635900	-11.071000	24.867260	0.000952	20.704858
893.239982	-2.975700	3.637000	-10.820000	24.848803	0.000953	20.676374
894.238113	-2.968200	3.639100	-10.800000	24.807072	0.000953	20.688548
895.237164	-2.975500	3.638100	-10.824000	24.856875	0.000953	20.693486
896.243873	-2.985600	3.637900	-10.860000	24.830100	0.000952	20.696961
897.241610	-3.007700	3.636300	-10.937000	24.838295	0.000952	20.692383
898.238262	-2.979600	3.637500	-10.837000	24.818957	0.000950	20.680560
899.239107	-2.997900	3.635900	-10.897000	24.835216	0.000951	20.691189
900.238757	-2.997300	3.636500	-10.899000	24.839590	0.000950	20.669024
901.240004	-3.016600	3.636500	-10.968000	24.822077	0.000949	20.682744
902.238833	-3.005000	3.635000	-10.922000	24.815593	0.000949	20.697100
903.237591	-3.006000	3.635400	-10.927000	24.802087	0.000949	20.688761
904.238095	-3.000000	3.636100	-10.906000	24.833286	0.000949	20.694468
905.239244	-2.996200	3.634500	-10.888000	24.837025	0.000947	20.691582
906.238423	-2.991400	3.633500	-10.868000	24.834182	0.000948	20.707696
907.238123	-3.028000	3.632600	-10.998000	24.834109	0.000948	20.699087
908.245218	-3.004800	3.632800	-10.914000	24.829979	0.000949	20.687829
909.243587	-2.987400	3.633400	-10.853000	24.829922	0.000946	20.688721
910.241682	-2.999600	3.633500	-10.899000	24.821491	0.000946	20.694959
911.242723	-2.989700	3.633600	-10.861000	24.853968	0.000947	20.691991
912.242456	-3.009100	3.632000	-10.928000	24.868736	0.000943	20.687846
913.241955	-3.010100	3.631000	-10.928000	24.908746	0.000944	20.701924
914.246284	-3.010700	3.631100	-10.930000	24.919530	0.000945	20.686195
915.242253	-3.009500	3.630000	-10.923000	24.911597	0.000944	20.701467
916.243236	-3.014800	3.630000	-10.942000	24.936537	0.000943	20.708956
917.246764	-2.977400	3.630600	-10.809000	24.929369	0.000943	20.700813
918.244110	-3.003300	3.630700	-10.903000	24.914904	0.000945	20.701941
919.244098	-2.993600	3.629800	-10.865000	24.904877	0.000943	20.701835
920.254580	-3.017500	3.630100	-10.952000	24.929394	0.000944	20.691354
921.249020	-3.013500	3.627100	-10.928000	24.924092	0.000943	20.691248
922.246334	-3.020500	3.628900	-10.959000	24.929646	0.000942	20.694452
923.244514	-3.011100	3.629100	-10.927000	24.907313	0.000942	20.708073
924.245497	-3.020200	3.627500	-10.956000	24.925566	0.000942	20.671388
925.244538	-2.996600	3.629000	-10.874000	24.909227	0.000942	20.690078
926.245582	-2.992400	3.629300	-10.859000	24.899355	0.000940	20.707198
927.249212	-2.987600	3.628800	-10.840000	24.929810	0.000942	20.714532
928.247403	-2.996000	3.628200	-10.869000	24.913699	0.000939	20.699309
929.248255	-2.981500	3.627400	-10.814000	24.903525	0.000939	20.722291
930.251004	-3.018500	3.626500	-10.946000	24.901367	0.000939	20.691199
931.251926	-3.005500	3.627400	-10.900000	24.886290	0.000939	20.704043
932.248042	-2.980000	3.626800	-10.805000	24.902361	0.000941	20.721596
933.250994	-3.002900	3.626200	-10.888000	24.902507	0.000940	20.697559
934.247896	-3.018200	3.625300	-10.940000	24.923237	0.000939	20.695132
935.251042	-3.007400	3.626400	-10.905000	24.923579	0.000938	20.705907
936.250025	-2.999800	3.626200	-10.876000	24.916973	0.000936	20.702596
937.250460	-2.985500	3.625700	-10.824000	24.906996	0.000937	20.711074
938.250548	-3.009400	3.623600	-10.905000	24.921193	0.000937	20.712522
939.250409	-3.001200	3.624700	-10.877000	24.930722	0.000936	20.729199
940.250871	-2.984500	3.625900	-10.820000	24.926519	0.000937	20.725929
941.250806	-3.024800	3.622700	-10.957000	24.913064	0.000937	20.719536
942.251303	-2.995400	3.623500	-10.853000	24.901897	0.000936	20.714018
943.250799	-3.004800	3.623500	-10.887000	24.927758	0.000935	20.721008
944.252603	-3.025900	3.623100	-10.962000	24.946084	0.000935	20.718065
945.252626	-2.994000	3.622400	-10.845000	24.963562	0.000936	20.703839
946.257638	-3.007000	3.621700	-10.889000	24.984144	0.000932	20.720705
947.250957	-3.019100	3.620500	-10.930000	24.954155	0.000934	20.722848
948.258305	-3.014000	3.622400	-10.917000	24.944691	0.000934	20.734211
949.257123	-3.024900	3.622300	-10.956000	24.933891	0.000932	20.713413
950.251512	-3.000200	3.621400	-10.863000	24.967651	0.000932	20.710789
951.253377	-3.000000	3.620900	-10.862000	24.933793	0.000932	20.723747
952.255851	-3.003800	3.619800	-10.872000	24.935088	0.000933	20.725995
953.253107	-2.996200	3.620900	-10.848000	24.935602	0.000932	20.724140
954.255167	-2.992600	3.619300	-10.830000	24.905326	0.000931	20.710821
955.254540	-3.003900	3.619900	-10.873000	24.896147	0.000929	20.715833
956.253684	-2.995100	3.618800	-10.837000	24.935634	0.000930	20.698566
957.255443	-2.981400	3.618700	-10.788000	24.964051	0.000928	20.731832
958.255477	-2.984100	3.619700	-10.801000	24.986807	0.000930	20.735707
959.254935	-3.015800	3.618200	-10.911000	25.000979	0.000929	20.716266
960.256166	-3.005400	3.618600	-10.873000	25.022081	0.000929	20.740768
961.255840	-2.996900	3.616600	-10.837000	25.075482	0.000927	20.721351
962.254552	-3.000800	3.617900	-10.855000	25.028515	0.000926	20.714034
963.256957	-2.996000	3.619600	-10.842000	25.021340	0.000927	20.727695
964.257754	-3.003400	3.617900	-10.865000	24.980609	0.000925	20.732331
965.255644	-2.998900	3.618200	-10.848000	24.957592	0.000927	20.732462
966.256740	-3.016500	3.616700	-10.909000	24.926837	0.000927	20.730990
967.259192	-3.011200	3.617000	-10.891000	24.911394	0.000924	20.742044
968.255091	-3.004000	3.615500	-10.861000	24.892554	0.000924	20.739255
969.258755	-2.977200	3.617200	-10.768000	24.911573	0.000925	20.738430
970.258506	-3.018500	3.614000	-10.907000	24.927733	0.000925	20.751331
971.256766	-2.999900	3.615400	-10.843000	24.936188	0.000926	20.731840
972.257618	-3.014400	3.613700	-10.893000	24.950506	0.000926	20.728194
973.259356	-3.023300	3.613100	-10.922000	24.960679	0.000925	20.740302
974.256534	-3.015400	3.613600	-10.896000	24.974810	0.000922	20.741209
975.259010	-2.980900	3.615600	-10.776000	24.952200	0.000921	20.746491
976.257900	-2.984900	3.614700	-10.788000	24.979151	0.000923	20.755050
977.258251	-2.991500	3.614200	-10.810000	24.989128	0.000921	20.720967
978.259524	-2.987600	3.613900	-10.796000	25.008284	0.000921	20.728816
979.259870	-2.985600	3.612900	-10.785000	25.066246	0.000922	20.730099
980.258911	-2.996500	3.612800	-10.825000	25.044143	0.000922	20.737310
981.260439	-3.029100	3.611900	-10.940000	25.050732	0.000922	20.745820
982.258642	-2.992300	3.613900	-10.813000	25.041016	0.000920	20.726109
983.259152	-3.011300	3.611500	-10.874000	25.025265	0.000919	20.726420
984.258453	-3.008800	3.610700	-10.863000	25.014946	0.000922	20.740719
985.259815	-3.004800	3.610000	-10.847000	25.010451	0.000918	20.734309
986.258336	-2.990700	3.610600	-10.797000	25.035494	0.000920	20.746172
987.260011	-3.016200	3.609100	-10.885000	25.065823	0.000918	20.756702
988.261665	-3.011000	3.609200	-10.867000	25.082330	0.000918	20.731072
989.260868	-3.000500	3.610000	-10.831000	25.082754	0.000919	20.749041
990.260209	-2.993000	3.609400	-10.802000	25.105866	0.000916	20.750431
991.261870	-3.008800	3.609500	-10.859000	25.084065	0.000915	20.732813
992.260572	-3.000500	3.609100	-10.828000	25.059902	0.000915	20.753603
993.263479	-3.020500	3.608300	-10.898000	25.025591	0.000916	20.754249
994.261935	-3.026400	3.608600	-10.920000	24.994520	0.000914	20.758149
995.260283	-2.999100	3.607900	-10.820000	24.967610	0.000917	20.737776
996.259399	-3.015600	3.607800	-10.879000	24.958814	0.000915	20.754552
997.262394	-3.010100	3.606600	-10.856000	24.962471	0.000913	20.758696
998.263259	-2.985200	3.607800	-10.769000	24.992427	0.000913	20.759841
999.262047	-2.982500	3.606800	-10.756000	25.012413	0.000915	20.738651
1000.264988	-2.999300	3.606500	-10.816000	25.015647	0.000914	20.735732
1001.263699	-3.006000	3.606800	-10.841000	25.036928	0.000911	20.770371
1002.264296	-3.003300	3.607100	-10.831000	25.013211	0.000912	20.742771
1003.264836	-3.024100	3.604100	-10.897000	25.020118	0.000912	20.745911
1004.262498	-2.996000	3.606800	-10.806000	24.979347	0.000909	20.753824
1005.265014	-3.011200	3.605000	-10.855000	25.003862	0.000910	20.743817
1006.265082	-3.009200	3.604500	-10.846000	24.994267	0.000909	20.747464
1007.263573	-3.013500	3.605500	-10.864000	25.018953	0.000909	20.762760
1008.265442	-3.003400	3.604600	-10.825000	25.011444	0.000911	20.765654
1009.265139	-3.011500	3.603600	-10.850000	25.005922	0.000911	20.756792
1010.263436	-2.994700	3.603000	-10.789000	25.013953	0.000909	20.781449
1011.267255	-3.003600	3.602100	-10.819000	25.012186	0.000908	20.760234
1012.265003	-2.996800	3.602300	-10.794000	25.016290	0.000909	20.773363
1013.265749	-3.001800	3.602300	-10.812000	25.049307	0.000906	20.767624
1014.267310	-3.011300	3.601100	-10.842000	25.018302	0.000907	20.768744
1015.265800	-2.987100	3.600600	-10.754000	25.028271	0.000908	20.759784
1016.267848	-3.009000	3.601400	-10.835000	25.065562	0.000906	20.755492
1017.267779	-3.020400	3.601600	-10.877000	25.072256	0.000903	20.769324
1018.266711	-3.021900	3.600000	-10.877000	25.085100	0.000904	20.759457
1019.268456	-3.013400	3.601300	-10.852000	25.109270	0.000905	20.759539
1020.268168	-3.012800	3.600200	-10.845000	25.121722	0.000902	20.743115
1021.268812	-3.014800	3.600700	-10.855000	25.106135	0.000903	20.765401
1022.268974	-3.009200	3.598200	-10.826000	25.131909	0.000903	20.791275
1023.271388	-2.991200	3.599600	-10.766000	25.158017	0.000902	20.787138
1024.270409	-2.997500	3.598600	-10.785000	25.164996	0.000904	20.777549
1025.269416	-3.000100	3.598500	-10.794000	25.175785	0.000901	20.761828
1026.273951	-2.990800	3.599700	-10.764000	25.203358	0.000902	20.785716
1027.271497	-3.000900	3.598100	-10.796000	25.237183	0.000900	20.773208
1028.272259	-2.986400	3.597700	-10.744000	25.237802	0.000902	20.774778
1029.274345	-2.993600	3.598000	-10.770000	25.283115	0.000901	20.760054
1030.272750	-3.007600	3.597600	-10.819000	25.266904	0.000900	20.782185
1031.272704	-2.980900	3.598900	-10.727000	25.274313	0.000902	20.779667
1032.273560	-3.017600	3.594900	-10.846000	25.242769	0.000898	20.799679
1033.272635	-2.989700	3.596900	-10.753000	25.251954	0.000898	20.777133
1034.272974	-3.008000	3.596500	-10.817000	25.254446	0.000898	20.768254
1035.273724	-3.001800	3.596400	-10.795000	25.285135	0.000898	20.772988
1036.273648	-2.987600	3.595500	-10.740000	25.260260	0.000897	20.777411
1037.273467	-3.015000	3.596000	-10.841000	25.269355	0.000898	20.791758
1038.276674	-3.002200	3.595700	-10.794000	25.258265	0.000897	20.773986
1039.274630	-2.982500	3.595300	-10.722000	25.250432	0.000897	20.769440
1040.276689	-2.994200	3.593900	-10.759000	25.271163	0.000895	20.769865
1041.278405	-3.016000	3.593400	-10.836000	25.256319	0.000898	20.769661
1042.279959	-2.999600	3.593100	-10.777000	25.268329	0.000894	20.788358
1043.277042	-3.005200	3.593100	-10.797000	25.255074	0.000894	20.771730
1044.279428	-2.994800	3.592600	-10.758000	25.245750	0.000895	20.789396
1045.277259	-3.008900	3.593600	-10.812000	25.262907	0.000893	20.799983
1046.281870	-3.010400	3.591000	-10.810000	25.254063	0.000892	20.787785
1047.281503	-3.022400	3.591700	-10.855000	25.234090	0.000893	20.800923
1048.280508	-3.003600	3.592900	-10.789000	25.232543	0.000891	20.777085
1049.281478	-3.009000	3.593600	-10.812000	25.239481	0.000893	20.788318
1050.284548	-2.989300	3.591800	-10.736000	25.255986	0.000892	20.785922
1051.282947	-3.005300	3.592500	-10.796000	25.290835	0.000892	20.777289
1052.279495	-2.987400	3.592700	-10.730000	25.289215	0.000891	20.798422
1053.283591	-2.979900	3.591400	-10.701000	25.248593	0.000889	20.804578
1054.283580	-2.997600	3.590100	-10.761000	25.249635	0.000889	20.793297
1055.281597	-3.009700	3.590100	-10.804000	25.229327	0.000888	20.812737
1056.283846	-2.999200	3.588600	-10.761000	25.224800	0.000889	20.801554
1057.280851	-3.007900	3.588200	-10.792000	25.211910	0.000889	20.799043
1058.283289	-2.982700	3.589100	-10.705000	25.256768	0.000886	20.805200
1059.288950	-3.012000	3.587400	-10.805000	25.254651	0.000887	20.783634
1060.281999	-3.011000	3.587100	-10.800000	25.293303	0.000886	20.807742
1061.283109	-2.991400	3.587400	-10.730000	25.307414	0.000887	20.810530
1062.283700	-2.995500	3.587900	-10.746000	25.313056	0.000885	20.795333
1063.282840	-2.990900	3.589400	-10.734000	25.327671	0.000885	20.797679
1064.283648	-2.992800	3.587400	-10.735000	25.305598	0.000886	20.805388
1065.283311	-2.980900	3.587800	-10.694000	25.342449	0.000883	20.806827
1066.286646	-3.008100	3.585300	-10.784000	25.338256	0.000884	20.796927
1067.284421	-2.987800	3.587000	-10.717000	25.311290	0.000884	20.804939
1068.282586	-3.004500	3.585800	-10.772000	25.290747	0.000883	20.817978
1069.284783	-2.998800	3.586400	-10.754000	25.283916	0.000883	20.805429
1070.284157	-2.980000	3.585200	-10.682000	25.227016	0.000882	20.803304
1071.285615	-3.007000	3.585200	-10.780000	25.236038	0.000882	20.811414
1072.286244	-2.994200	3.586100	-10.737000	25.248171	0.000881	20.818379
1073.287200	-3.011400	3.584400	-10.791000	25.278371	0.000882	20.823096
1074.287027	-3.002300	3.584600	-10.761000	25.303498	0.000880	20.816082
1075.287937	-3.019300	3.582900	-10.817000	25.310297	0.000879	20.827650
1076.288014	-3.005900	3.583000	-10.769000	25.282915	0.000878	20.808692
1077.287961	-3.008800	3.583100	-10.779000	25.301325	0.000880	20.804416
1078.289052	-2.997000	3.582000	-10.734000	25.288330	0.000879	20.837361
1079.288599	-3.010400	3.582600	-10.785000	25.312642	0.000880	20.798710
1080.287678	-2.997800	3.583100	-10.740000	25.336303	0.000879	20.828156
1081.288970	-2.984500	3.582000	-10.689000	25.351088	0.000878	20.817398
1082.288918	-2.981800	3.581800	-10.679000	25.342449	0.000879	20.821052
1083.289471	-3.022700	3.579300	-10.819000	25.326280	0.000876	20.813352
1084.290452	-2.991200	3.580800	-10.710000	25.287808	0.000876	20.825933
1085.288204	-3.021900	3.579900	-10.817000	25.282687	0.000875	20.828851
1086.291507	-2.995100	3.579800	-10.721000	25.281742	0.000877	20.813204
1087.289322	-2.996700	3.581600	-10.732000	25.303539	0.000874	20.836985
1088.290251	-2.998500	3.580400	-10.734000	25.317039	0.000874	20.826358
1089.291312	-2.986700	3.580500	-10.693000	25.311746	0.000873	20.822466
1090.290822	-3.009900	3.577300	-10.767000	25.342637	0.000873	20.817447
1091.291138	-3.005800	3.578900	-10.756000	25.319872	0.000872	20.839159
1092.290664	-2.996200	3.579300	-10.722000	25.328796	0.000872	20.833421
1093.291673	-3.005400	3.578700	-10.753000	25.348133	0.000872	20.832922
1094.291497	-2.989000	3.578600	-10.694000	25.344648	0.000871	20.823260
1095.292541	-2.973000	3.579400	-10.641000	25.364807	0.000869	20.825483
1096.290936	-2.992600	3.578600	-10.708000	25.382377	0.000870	20.822262
1097.291949	-2.988000	3.576800	-10.686000	25.404595	0.000871	20.823235
1098.292239	-3.022400	3.575900	-10.807000	25.402242	0.000869	20.818027
1099.293536	-3.013600	3.576900	-10.778000	25.420137	0.000869	20.814185
1100.292059	-2.997500	3.575700	-10.718000	25.429678	0.000869	20.805748
1101.292162	-3.019200	3.576200	-10.796000	25.431274	0.000868	20.832954
1102.292620	-3.022900	3.574500	-10.804000	25.418101	0.000867	20.818779
1103.293983	-3.002800	3.574900	-10.733000	25.399905	0.000866	20.807146
1104.293488	-3.002500	3.574700	-10.732000	25.391455	0.000867	20.798661
1105.295759	-2.995700	3.574400	-10.707000	25.411222	0.000864	20.815190
1106.293332	-2.994800	3.574500	-10.705000	25.412386	0.000865	20.808299
1107.293823	-2.985200	3.575200	-10.671000	25.415691	0.000867	20.802135
1108.293947	-3.006900	3.572900	-10.743000	25.443949	0.000865	20.823398
1109.294792	-3.018800	3.571400	-10.779000	25.469398	0.000864	20.826668
1110.294268	-2.998000	3.571900	-10.708000	25.433285	0.000863	20.800361
1111.296184	-2.988800	3.574000	-10.681000	25.466769	0.000863	20.802690
1112.297485	-3.026100	3.572200	-10.808000	25.479094	0.000863	20.796101
1113.296417	-2.983100	3.573800	-10.659000	25.469748	0.000860	20.796200
1114.296731	-3.005700	3.571000	-10.732000	25.453466	0.000862	20.798816
1115.297847	-3.006100	3.570700	-10.733000	25.495416	0.000860	20.813441
1116.297371	-3.014900	3.570200	-10.761000	25.482489	0.000861	20.794295
1117.297390	-3.005300	3.571900	-10.732000	25.523135	0.000861	20.782481
1118.296872	-3.017500	3.570700	-10.773000	25.532196	0.000859	20.796797
1119.300665	-3.008600	3.571300	-10.744000	25.499641	0.000860	20.814839
1120.299795	-3.002100	3.571700	-10.721000	25.498477	0.000857	20.808454
1121.299188	-3.027800	3.567600	-10.801000	25.466199	0.000858	20.794532
1122.300560	-3.006200	3.568900	-10.727000	25.448182	0.000859	20.796829
1123.301375	-2.989700	3.568800	-10.669000	25.417987	0.000858	20.783103
1124.299489	-3.010600	3.568700	-10.743000	25.396640	0.000858	20.797229
1125.300124	-3.004200	3.568700	-10.720000	25.402624	0.000855	20.792807
1126.301868	-2.993000	3.567300	-10.676000	25.384884	0.000855	20.786373
1127.300804	-2.989200	3.569600	-10.669000	25.427903	0.000856	20.781680
1128.300716	-2.999500	3.567800	-10.701000	25.421170	0.000854	20.768755
1129.303684	-2.990400	3.566800	-10.665000	25.400222	0.000854	20.786602
1130.304029	-3.003200	3.565700	-10.707000	25.410391	0.000854	20.768363
1131.302192	-3.012600	3.565900	-10.741000	25.378077	0.000854	20.780487
1132.302633	-2.981700	3.568400	-10.638000	25.406190	0.000852	20.777895
1133.304473	-3.004300	3.565300	-10.710000	25.405514	0.000851	20.786700
1134.302423	-3.005000	3.566000	-10.714000	25.420559	0.000851	20.743959
1135.304047	-3.000100	3.564500	-10.693000	25.419240	0.000851	20.776775
1136.302097	-2.994100	3.564400	-10.671000	25.389939	0.000848	20.783388
1137.304375	-3.011300	3.565100	-10.734000	25.360955	0.000849	20.782735
1138.304497	-2.984500	3.565200	-10.638000	25.345421	0.000848	20.774723
1139.304587	-2.981200	3.563700	-10.624000	25.315531	0.000848	20.768419
1140.303112	-3.003900	3.563900	-10.704000	25.299076	0.000846	20.768493
1141.303720	-3.014600	3.562500	-10.738000	25.345379	0.000846	20.771837
1142.304072	-3.018400	3.562500	-10.752000	25.373713	0.000846	20.774208
1143.305655	-3.021700	3.561700	-10.761000	25.390175	0.000845	20.770823
1144.307750	-3.003100	3.561500	-10.695000	25.395792	0.000847	20.788318
1145.306787	-2.995600	3.561900	-10.668000	25.385697	0.000844	20.775810
1146.306843	-2.985900	3.563500	-10.639000	25.388107	0.000844	20.752625
1147.307857	-3.014300	3.560400	-10.730000	25.361964	0.000844	20.772842
1148.309226	-3.002800	3.560500	-10.691000	25.352951	0.000844	20.744351
1149.307689	-3.004400	3.560600	-10.696000	25.335649	0.000844	20.745471
1150.308585	-3.010100	3.559600	-10.714000	25.326775	0.000844	20.767381
1151.309526	-2.998200	3.559600	-10.672000	25.321938	0.000843	20.776749
1152.308742	-2.982100	3.560200	-10.616000	25.333988	0.000842	20.761821
1153.309892	-3.001700	3.559100	-10.683000	25.327352	0.000840	20.742356
1154.310521	-2.965300	3.560000	-10.555000	25.318062	0.000841	20.752469
1155.309148	-3.009400	3.556800	-10.703000	25.296404	0.000840	20.753008
1156.312025	-2.993300	3.558400	-10.650000	25.326521	0.000840	20.748634
1157.309947	-2.999500	3.557500	-10.669000	25.328011	0.000838	20.761984
1158.308963	-3.012900	3.558000	-10.718000	25.341674	0.000837	20.780918
1159.311850	-3.003200	3.558100	-10.684000	25.338051	0.000840	20.749304
1160.311539	-3.001500	3.556400	-10.674000	25.307616	0.000837	20.754782
1161.308693	-2.971700	3.557800	-10.572000	25.324625	0.000838	20.741513
1162.310769	-2.991900	3.555600	-10.637000	25.299840	0.000837	20.737965
1163.311371	-3.004500	3.554300	-10.677000	25.308561	0.000836	20.758576
1164.310711	-3.000500	3.556100	-10.669000	25.274860	0.000837	20.759826
1165.311393	-2.998500	3.557600	-10.665000	25.280111	0.000835	20.751823
1166.310603	-3.014300	3.554200	-10.712000	25.249911	0.000836	20.747580
1167.312940	-3.016800	3.553900	-10.721000	25.239521	0.000834	20.753744
1168.313110	-3.007000	3.554300	-10.686000	25.232559	0.000834	20.761453
1169.312504	-2.990100	3.554400	-10.627000	25.258062	0.000833	20.747228
1170.312140	-3.017900	3.553900	-10.725000	25.319210	0.000832	20.753621
1171.312778	-2.973600	3.554300	-10.568000	25.330340	0.000830	20.744882
1172.312684	-3.007000	3.552900	-10.682000	25.315953	0.000829	20.736126
1173.314208	-3.012700	3.552800	-10.702000	25.359521	0.000831	20.734352
1174.315562	-2.982500	3.552800	-10.594000	25.366254	0.000830	20.753916
1175.313591	-3.008800	3.550500	-10.682000	25.363974	0.000830	20.724124
1176.313394	-3.005800	3.551800	-10.676000	25.367996	0.000829	20.748078
1177.314953	-2.976700	3.552500	-10.572000	25.366710	0.000829	20.742993
1178.314095	-2.990700	3.552700	-10.623000	25.373117	0.000826	20.754169
1179.315328	-2.992400	3.552200	-10.629000	25.408435	0.000829	20.762132
1180.317030	-3.003900	3.550900	-10.666000	25.445763	0.000827	20.729912
1181.315176	-3.022700	3.549500	-10.728000	25.478367	0.000826	20.728040
1182.315238	-3.019800	3.549100	-10.717000	25.452479	0.000825	20.730967
1183.316004	-2.991400	3.550600	-10.620000	25.470837	0.000827	20.736126
1184.317412	-2.981400	3.549600	-10.581000	25.474297	0.000826	20.720633
1185.321274	-3.017400	3.549200	-10.708000	25.484587	0.000825	20.733812
1186.319134	-2.995400	3.548900	-10.629000	25.479963	0.000823	20.739126
1187.318714	-3.003600	3.547700	-10.654000	25.495170	0.000825	20.744914
1188.318719	-2.999300	3.547600	-10.638000	25.496667	0.000823	20.716545
1189.321516	-3.014100	3.548400	-10.693000	25.500413	0.000821	20.744015
1190.322412	-3.006700	3.547500	-10.664000	25.529067	0.000822	20.739126
1191.320523	-3.008800	3.546300	-10.668000	25.532030	0.000822	20.748740
1192.320150	-3.020600	3.545600	-10.708000	25.524256	0.000822	20.733820
1193.319037	-2.990400	3.547800	-10.608000	25.567123	0.000822	20.722815
1194.319905	-3.012700	3.546400	-10.683000	25.553504	0.000821	20.728579
1195.321843	-3.004000	3.544800	-10.647000	25.529181	0.000821	20.711737
1196.321131	-3.012700	3.543500	-10.674000	25.509668	0.000819	20.731972
1197.325121	-2.990500	3.545500	-10.601000	25.502520	0.000822	20.740916
1198.321002	-3.002400	3.545400	-10.643000	25.492825	0.000819	20.745878
1199.321240	-3.008100	3.544000	-10.661000	25.472603	0.000817	20.741692
1200.326307	-3.026200	3.544100	-10.724000	25.471650	0.000817	20.730304
1201.321379	-3.009000	3.545000	-10.666000	25.449571	0.000816	20.720934
1202.321696	-2.988200	3.542900	-10.586000	25.440617	0.000816	20.728064
1203.321137	-2.989200	3.544500	-10.594000	25.413832	0.000816	20.725349
1204.320900	-2.981400	3.543500	-10.564000	25.401156	0.000814	20.721155
1205.322742	-2.995100	3.541200	-10.605000	25.429341	0.000817	20.719585
1206.323959	-2.985300	3.541900	-10.573000	25.470966	0.000815	20.728668
1207.324380	-3.014500	3.540700	-10.673000	25.504417	0.000814	20.704885
1208.323364	-2.993400	3.542600	-10.603000	25.488290	0.000814	20.697699
1209.324258	-2.982200	3.542200	-10.563000	25.492930	0.000814	20.727017
1210.323729	-3.014600	3.540200	-10.671000	25.534179	0.000812	20.723395
1211.326621	-2.984500	3.541200	-10.566000	25.524003	0.000811	20.696105
1212.325410	-3.007900	3.539400	-10.645000	25.547480	0.000812	20.717787
1213.325604	-2.997300	3.540600	-10.611000	25.542539	0.000812	20.715195
1214.325979	-2.984400	3.541000	-10.567000	25.547382	0.000811	20.713895
1215.325874	-2.989600	3.540800	-10.584000	25.563093	0.000809	20.732045
1216.327764	-3.006400	3.539600	-10.641000	25.558567	0.000810	20.720386
1217.327682	-2.989000	3.538700	-10.576000	25.549718	0.000809	20.737105
1218.331048	-3.008700	3.538700	-10.645000	25.568107	0.000808	20.739926
1219.327911	-2.995200	3.537900	-10.595000	25.542066	0.000808	20.707608
1220.328724	-2.960800	3.538800	-10.476000	25.514161	0.000808	20.717991
1221.329139	-2.970300	3.537900	-10.508000	25.460513	0.000805	20.721490
1222.329693	-3.020000	3.535600	-10.677000	25.436000	0.000806	20.722005
1223.330834	-3.008900	3.536600	-10.641000	25.439338	0.000806	20.703544
1224.331328	-3.004600	3.537100	-10.627000	25.465951	0.000804	20.715097
1225.330596	-3.019500	3.534700	-10.672000	25.495502	0.000805	20.734342
1226.331085	-3.018400	3.534400	-10.668000	25.522334	0.000804	20.708180
1227.335650	-2.991300	3.536400	-10.578000	25.538973	0.000802	20.717778
1228.331704	-3.008100	3.534600	-10.631000	25.525297	0.000805	20.717795
1229.331874	-2.970700	3.535200	-10.500000	25.511198	0.000805	20.707902
1230.335546	-2.979300	3.535500	-10.532000	25.521170	0.000802	20.701321
1231.333072	-2.991700	3.533900	-10.572000	25.512769	0.000800	20.715170
1232.336335	-3.008600	3.533200	-10.629000	25.467547	0.000800	20.712431
1233.337134	-3.001000	3.534100	-10.604000	25.453153	0.000800	20.714573
1234.337607	-2.997000	3.534000	-10.590000	25.467815	0.000801	20.696105
1235.335623	-2.997000	3.532700	-10.585000	25.453951	0.000798	20.717745
1236.335126	-2.995500	3.533700	-10.584000	25.485090	0.000798	20.720566
1237.337136	-3.008900	3.531800	-10.625000	25.500468	0.000798	20.700920
1238.334583	-3.002500	3.532800	-10.605000	25.528585	0.000798	20.702130
1239.336082	-3.012100	3.532600	-10.640000	25.531361	0.000797	20.704444
1240.335930	-2.985200	3.531300	-10.541000	25.549181	0.000799	20.705269
1241.336526	-2.984000	3.531200	-10.536000	25.524157	0.000799	20.720443
1242.336923	-2.977200	3.530500	-10.509000	25.551436	0.000796	20.689989
1243.337207	-2.974200	3.531900	-10.504000	25.530059	0.000796	20.712146
1244.337953	-3.012600	3.528100	-10.628000	25.497611	0.000793	20.710854
1245.337504	-3.004000	3.528100	-10.597000	25.477332	0.000793	20.715620
1246.337552	-3.008100	3.528900	-10.613000	25.504221	0.000792	20.700896
1247.336656	-2.996600	3.528900	-10.574000	25.516465	0.000793	20.707502
1248.340153	-2.991800	3.529300	-10.558000	25.545029	0.000792	20.688771
1249.336638	-3.020900	3.528100	-10.657000	25.526559	0.000792	20.692507
1250.337535	-2.998800	3.528000	-10.578000	25.552844	0.000791	20.697568
1251.338119	-2.985900	3.528900	-10.536000	25.564802	0.000791	20.702940
1252.339054	-2.978200	3.526500	-10.501000	25.586072	0.000791	20.677357
1253.339931	-2.999500	3.527800	-10.580000	25.616402	0.000792	20.695492
1254.340391	-2.982600	3.528100	-10.522000	25.620285	0.000789	20.695124
1255.337194	-2.983300	3.526500	-10.519000	25.615409	0.000791	20.697814
1256.340546	-3.007800	3.525400	-10.603000	25.593496	0.000788	20.698566
1257.338048	-2.998700	3.525200	-10.570000	25.600424	0.000788	20.696514
1258.338089	-3.003400	3.526600	-10.591000	25.608491	0.000789	20.676165
1259.342060	-3.012900	3.524000	-10.617000	25.610005	0.000789	20.673892
1260.338738	-2.990100	3.523600	-10.535000	25.590672	0.000788	20.678658
1261.343152	-3.019300	3.522600	-10.634000	25.585406	0.000786	20.662936
1262.340235	-3.018600	3.523900	-10.635000	25.598870	0.000784	20.682150
1263.341724	-2.996000	3.523100	-10.554000	25.625227	0.000785	20.691078
1264.346678	-2.998300	3.523400	-10.563000	25.643695	0.000786	20.690661
1265.341268	-2.995500	3.522600	-10.551000	25.650182	0.000783	20.686270
1266.341533	-3.019300	3.521100	-10.630000	25.616477	0.000784	20.694144
1267.346639	-3.007400	3.520800	-10.587000	25.593351	0.000782	20.698420
1268.341673	-2.998700	3.522000	-10.561000	25.586310	0.000782	20.693245
1269.341662	-2.996500	3.522800	-10.555000	25.584715	0.000782	20.694013
1270.345020	-3.011000	3.520100	-10.598000	25.588793	0.000781	20.685780
1271.341256	-3.020800	3.519400	-10.630000	25.588443	0.000780	20.684955
1272.342100	-3.011100	3.522400	-10.605000	25.553847	0.000779	20.680082
1273.340771	-2.999900	3.520800	-10.561000	25.538690	0.000781	20.701372
1274.341826	-3.022900	3.518300	-10.634000	25.534213	0.000780	20.697349
1275.344509	-2.993500	3.520400	-10.537000	25.545618	0.000780	20.679878
1276.345626	-2.998400	3.519100	-10.550000	25.558317	0.000777	20.676035
1277.344915	-3.029500	3.518300	-10.657000	25.553473	0.000778	20.681129
1278.342680	-3.012700	3.519000	-10.601000	25.561695	0.000777	20.687964
1279.344613	-2.973600	3.518000	-10.460000	25.557568	0.000778	20.679551
1280.345346	-2.996700	3.516400	-10.537000	25.581695	0.000775	20.675332
1281.362062	-3.004000	3.517900	-10.566000	25.639212	0.000776	20.688528
1282.343355	-3.004600	3.517300	-10.565000	25.627532	0.000777	20.679167
1283.344203	-3.007300	3.515800	-10.572000	25.659324	0.000773	20.683124
1284.346233	-3.001300	3.516200	-10.552000	25.694747	0.000777	20.676976
1285.347046	-3.006800	3.516600	-10.571000	25.702122	0.000773	20.673477
1286.347522	-3.038700	3.514400	-10.678000	25.687438	0.000774	20.668685
1287.345864	-3.041100	3.513100	-10.682000	25.706590	0.000773	20.671327
1288.348477	-3.027000	3.512800	-10.633000	25.669149	0.000772	20.682560
1289.347079	-3.010300	3.513100	-10.574000	25.640743	0.000771	20.680108
1290.347349	-3.013000	3.513400	-10.585000	25.625066	0.000772	20.672896
1291.351125	-2.985400	3.513700	-10.488000	25.606604	0.000771	20.675218
1292.348935	-3.002400	3.513500	-10.547000	25.602869	0.000771	20.685692
1293.348008	-3.008600	3.512300	-10.565000	25.564756	0.000772	20.661164
1294.347671	-2.999800	3.511500	-10.533000	25.569494	0.000769	20.657387
1295.347955	-2.983700	3.513600	-10.483000	25.569991	0.000768	20.662628
1296.348532	-3.000200	3.511800	-10.534000	25.564431	0.000767	20.667476
1297.352833	-2.988400	3.511900	-10.493000	25.548517	0.000767	20.689429
1298.348870	-2.992800	3.511600	-10.509000	25.551570	0.000767	20.672578
1299.348731	-2.979700	3.512900	-10.467000	25.545506	0.000768	20.672178
1300.351253	-2.984000	3.512500	-10.480000	25.576585	0.000765	20.697229
1301.348348	-2.992600	3.512400	-10.510000	25.591742	0.000767	20.672620
1302.352161	-3.008200	3.509700	-10.557000	25.614795	0.000766	20.670167
1303.349375	-3.015800	3.510200	-10.584000	25.639011	0.000765	20.685955
1304.349601	-3.020800	3.508800	-10.598000	25.608894	0.000764	20.659024
1305.349311	-3.029100	3.507900	-10.625000	25.599207	0.000763	20.665892
1306.350969	-2.962300	3.509300	-10.395000	25.612597	0.000764	20.652786
1307.349712	-2.996200	3.509000	-10.513000	25.584889	0.000763	20.669530
1308.349949	-2.994700	3.507900	-10.503000	25.528624	0.000764	20.675613
1309.349955	-3.003000	3.507500	-10.531000	25.521111	0.000763	20.661903
1310.351331	-3.018100	3.506100	-10.580000	25.512563	0.000762	20.652844
1311.351617	-3.009000	3.507300	-10.552000	25.493750	0.000761	20.664298
1312.350719	-3.011000	3.504000	-10.549000	25.513255	0.000759	20.663497
1313.349812	-3.017600	3.505000	-10.576000	25.528087	0.000760	20.693094
1314.354991	-3.016900	3.505300	-10.572000	25.515420	0.000760	20.669466
1315.351943	-2.996500	3.504500	-10.500000	25.518596	0.000759	20.676448
1316.353526	-3.017300	3.502800	-10.568000	25.515909	0.000758	20.662369
1317.356612	-2.996400	3.503400	-10.496000	25.483095	0.000757	20.650277
1318.352931	-3.012600	3.504300	-10.556000	25.476883	0.000756	20.686243
1319.355015	-3.029000	3.503200	-10.611000	25.442414	0.000758	20.666327
1320.352151	-3.012600	3.503500	-10.554000	25.506671	0.000757	20.662575
1321.354602	-3.036300	3.501200	-10.630000	25.534104	0.000756	20.671634
1322.354220	-3.000700	3.502800	-10.509000	25.539827	0.000756	20.677381
1323.355864	-2.977900	3.502700	-10.429000	25.570564	0.000756	20.660359
1324.353760	-3.000800	3.502100	-10.508000	25.583630	0.000754	20.644080
1325.353358	-2.991300	3.502200	-10.476000	25.611680	0.000754	20.663719
1326.353491	-3.032200	3.501500	-10.617000	25.592543	0.000753	20.680538
1327.354988	-2.999100	3.502200	-10.500000	25.573959	0.000753	20.664717
1328.358823	-2.992900	3.500600	-10.476000	25.594400	0.000752	20.626445
1329.356983	-2.976100	3.501500	-10.421000	25.600594	0.000753	20.668233
1330.360294	-3.001300	3.498700	-10.499000	25.584867	0.000752	20.666663
1331.357318	-3.017900	3.499400	-10.560000	25.597184	0.000750	20.664333
1332.359438	-3.019100	3.497800	-10.559000	25.549726	0.000750	20.658397
1333.360019	-3.008300	3.499700	-10.526000	25.559193	0.000749	20.660319
1334.358390	-3.006000	3.497300	-10.511000	25.579284	0.000750	20.651097
1335.358276	-2.992200	3.498400	-10.467000	25.610028	0.000749	20.657318
1336.359000	-3.034100	3.496000	-10.606000	25.633463	0.000748	20.651456
1337.358134	-3.018700	3.495600	-10.551000	25.639869	0.000749	20.665952
1338.357824	-3.004000	3.496100	-10.500000	25.661756	0.000746	20.655691
1339.363166	-3.013800	3.496200	-10.536000	25.666330	0.000748	20.651276
1340.359598	-3.027300	3.496000	-10.582000	25.682675	0.000746	20.665797
1341.369369	-3.018800	3.495600	-10.552000	25.702086	0.000747	20.653525
1342.363748	-2.998000	3.493800	-10.473000	25.741235	0.000746	20.672935
1343.362350	-2.980700	3.496200	-10.420000	25.738379	0.000746	20.667694
1344.365351	-3.011600	3.495200	-10.525000	25.736938	0.000744	20.674782
1345.363676	-3.018800	3.493100	-10.543000	25.691742	0.000742	20.674431
1346.364360	-3.020600	3.493400	-10.551000	25.667617	0.000744	20.674856
1347.364003	-3.001300	3.493000	-10.482000	25.634098	0.000743	20.672959
1348.364666	-3.019000	3.492800	-10.545000	25.620513	0.000743	20.646984
1349.365207	-3.009800	3.493400	-10.514000	25.588051	0.000743	20.669387
1350.365064	-3.015700	3.492800	-10.532000	25.546902	0.000743	20.677849
1351.365574	-2.997300	3.492300	-10.466000	25.537256	0.000742	20.659150
1352.364397	-3.018100	3.490000	-10.532000	25.543484	0.000741	20.671096
1353.364238	-3.010100	3.490600	-10.506000	25.494144	0.000740	20.660426
1354.365838	-3.011700	3.489700	-10.509000	25.493322	0.000741	20.653910
1355.366833	-2.991600	3.492000	-10.446000	25.489439	0.000739	20.683679
1356.365882	-3.012200	3.489400	-10.510000	25.486752	0.000739	20.662013
1357.368969	-3.014000	3.489200	-10.516000	25.537647	0.000739	20.676141
1358.367727	-3.003100	3.490100	-10.480000	25.564160	0.000738	20.679059
1359.367890	-2.997700	3.489700	-10.459000	25.579667	0.000736	20.682779
1360.371436	-2.967500	3.490100	-10.356000	25.613334	0.000737	20.686246
1361.368944	-2.991600	3.488600	-10.436000	25.636419	0.000738	20.683826
1362.372413	-2.984700	3.488000	-10.409000	25.653928	0.000735	20.666796
1363.369205	-2.988300	3.489600	-10.426000	25.678378	0.000736	20.674285
1364.369150	-2.995700	3.487400	-10.446000	25.691963	0.000736	20.664695
1365.370859	-3.003900	3.486300	-10.471000	25.665730	0.000734	20.655415
1366.371160	-2.991200	3.487300	-10.430000	25.625032	0.000735	20.661007
1367.371979	-2.994400	3.485700	-10.436000	25.648702	0.000735	20.680041
1368.371086	-2.984700	3.484900	-10.400000	25.666918	0.000732	20.669887
1369.370174	-3.010700	3.484000	-10.487000	25.670744	0.000732	20.676575
1370.374138	-3.022400	3.484600	-10.531000	25.671835	0.000735	20.681938
1371.373611	-2.991700	3.485000	-10.425000	25.691117	0.000731	20.681390
1372.370205	-3.007200	3.483400	-10.475000	25.658088	0.000732	20.684727
1373.371163	-3.012700	3.482600	-10.491000	25.678933	0.000729	20.687645
1374.372431	-2.983600	3.484200	-10.395000	25.661026	0.000730	20.677245
1375.372627	-3.011300	3.481500	-10.480000	25.680479	0.000728	20.669282
1376.374662	-3.046800	3.482500	-10.607000	25.652520	0.000729	20.681031
1377.373275	-2.989400	3.482600	-10.410000	25.655475	0.000727	20.682102
1378.378904	-2.984000	3.481500	-10.388000	25.631007	0.000728	20.694987
1379.374863	-3.002900	3.480100	-10.449000	25.644991	0.000727	20.673943
1380.376700	-2.989000	3.480800	-10.403000	25.662605	0.000728	20.694006
1381.383053	-2.994900	3.482000	-10.427000	25.701113	0.000728	20.690957
1382.375252	-2.983200	3.480200	-10.381000	25.735451	0.000727	20.700792
1383.375576	-3.013500	3.478800	-10.483000	25.731601	0.000726	20.684596
1384.375674	-2.997300	3.479300	-10.427000	25.724301	0.000726	20.699549
1385.375315	-3.015600	3.477800	-10.486000	25.710799	0.000726	20.700212
1386.376930	-3.003000	3.479600	-10.449000	25.722771	0.000725	20.699436
1387.377432	-2.992200	3.479100	-10.408000	25.729087	0.000725	20.708625
1388.375511	-2.997900	3.479600	-10.430000	25.698972	0.000726	20.674107
1389.375698	-3.008100	3.476700	-10.457000	25.671144	0.000723	20.675554
1390.375249	-3.002500	3.477800	-10.441000	25.668231	0.000722	20.703924
1391.378331	-2.990600	3.476600	-10.397000	25.644675	0.000723	20.696861
1392.381807	-3.013700	3.475300	-10.471000	25.627369	0.000721	20.686591
1393.378675	-2.983700	3.476400	-10.372000	25.621378	0.000721	20.684842
1394.381432	-2.981900	3.477600	-10.369000	25.597643	0.000721	20.672382
1395.380313	-3.003200	3.475200	-10.435000	25.574298	0.000722	20.674067
1396.382583	-3.002100	3.474000	-10.428000	25.552490	0.000719	20.682512
1397.381579	-2.992300	3.475900	-10.400000	25.543967	0.000718	20.692446
1398.379426	-2.996100	3.473800	-10.406000	25.544016	0.000721	20.694866
1399.380032	-2.994500	3.474600	-10.403000	25.554077	0.000718	20.662767
1400.380115	-2.987500	3.475200	-10.381000	25.530250	0.000718	20.694318
1401.383938	-2.989300	3.475000	-10.387000	25.544415	0.000717	20.668237
1402.380461	-2.992200	3.472800	-10.391000	25.544260	0.000717	20.665237
1403.381643	-2.981800	3.472000	-10.352000	25.546100	0.000716	20.698856
1404.383503	-2.998400	3.472000	-10.409000	25.564171	0.000715	20.708944
1405.381245	-2.963000	3.473200	-10.290000	25.552759	0.000716	20.688472
1406.381022	-2.991200	3.470900	-10.379000	25.519334	0.000716	20.666283
1407.381140	-2.971400	3.471000	-10.313000	25.530291	0.000716	20.703843
1408.387775	-2.982600	3.470900	-10.350000	25.549454	0.000715	20.700802
1409.380327	-2.977500	3.471300	-10.334000	25.531333	0.000715	20.712003
1410.383955	-2.981000	3.470000	-10.343000	25.558067	0.000714	20.690958
1411.383539	-3.009100	3.469300	-10.438000	25.552474	0.000711	20.699093
1412.383154	-2.991200	3.470600	-10.380000	25.543634	0.000712	20.704914
1413.385823	-2.974100	3.469600	-10.318000	25.521582	0.000712	20.690354
1414.385839	-2.984700	3.469000	-10.353000	25.532018	0.000711	20.693248
1415.382245	-2.984000	3.467900	-10.347000	25.512073	0.000711	20.694081
1416.383450	-2.990800	3.467700	-10.371000	25.559280	0.000711	20.675106
1417.384459	-2.990600	3.468400	-10.371000	25.609976	0.000711	20.695676
1418.384432	-2.981100	3.467800	-10.337000	25.631563	0.000711	20.711668
1419.387215	-3.000900	3.466900	-10.403000	25.688018	0.000708	20.689659
1420.383595	-2.980500	3.466000	-10.330000	25.717083	0.000708	20.708896
1421.388687	-2.988600	3.465400	-10.356000	25.740491	0.000707	20.693526
1422.385506	-2.961800	3.467100	-10.267000	25.773404	0.000707	20.700034
1423.385464	-3.000000	3.464400	-10.392000	25.775325	0.000708	20.719034
1424.393699	-2.980300	3.466800	-10.330000	25.764093	0.000707	20.701113
1425.386366	-2.986600	3.464600	-10.346000	25.769481	0.000707	20.714113
1426.384837	-2.994600	3.464200	-10.373000	25.788119	0.000708	20.720980
1427.386392	-2.999500	3.463400	-10.387000	25.799618	0.000707	20.712616
1428.387178	-2.960200	3.463900	-10.253000	25.783586	0.000705	20.700778
1429.385342	-2.978200	3.462700	-10.312000	25.807464	0.000703	20.693469
1430.389191	-2.992400	3.461300	-10.356000	25.812779	0.000704	20.716827
1431.386221	-2.991600	3.460800	-10.352000	25.833670	0.000704	20.696086
1432.387241	-2.993800	3.460600	-10.358000	25.847553	0.000704	20.685375
1433.385857	-3.001100	3.459400	-10.381000	25.844575	0.000702	20.710835
1434.388455	-3.012600	3.460900	-10.425000	25.846927	0.000703	20.699446
1435.390112	-3.011500	3.460200	-10.417000	25.855504	0.000702	20.716124
1436.386705	-3.004000	3.459800	-10.392000	25.840123	0.000703	20.694034
1437.389657	-3.018600	3.458900	-10.440000	25.846382	0.000700	20.728298
1438.386618	-2.979200	3.460700	-10.309000	25.823498	0.000700	20.690609
1439.387261	-2.984300	3.460600	-10.326000	25.786980	0.000698	20.708456
1440.391252	-3.016800	3.457200	-10.429000	25.732174	0.000700	20.704139
1441.390174	-2.996300	3.457900	-10.361000	25.750829	0.000702	20.699643
1442.391900	-3.014700	3.457500	-10.422000	25.764225	0.000698	20.716893
1443.388931	-2.996400	3.458300	-10.362000	25.786582	0.000699	20.710901
1444.389266	-3.011100	3.458300	-10.412000	25.771949	0.000699	20.708530
1445.392750	-3.008700	3.456000	-10.398000	25.764819	0.000698	20.723180
1446.389291	-2.985100	3.456400	-10.316000	25.787054	0.000700	20.717065
1447.388875	-2.998000	3.455600	-10.358000	25.778183	0.000695	20.686815
1448.388029	-2.986200	3.456400	-10.321000	25.765381	0.000696	20.706200
1449.390305	-3.018300	3.455700	-10.429000	25.786753	0.000695	20.724350
1450.389550	-2.982500	3.453400	-10.298000	25.771542	0.000694	20.719976
1451.393836	-2.991100	3.454700	-10.332000	25.803364	0.000696	20.717327
1452.390176	-2.978400	3.455100	-10.290000	25.766049	0.000695	20.722993
1453.389737	-2.998500	3.453600	-10.354000	25.769255	0.000693	20.719101
1454.391456	-2.984600	3.452900	-10.305000	25.750797	0.000694	20.705775
1455.391016	-2.991600	3.452100	-10.325000	25.703143	0.000694	20.742312
1456.395138	-3.006700	3.453300	-10.382000	25.684057	0.000691	20.713182
1457.392234	-2.980500	3.452000	-10.287000	25.670660	0.000691	20.719642
1458.394710	-2.986800	3.451300	-10.307000	25.689803	0.000689	20.737921
1459.395000	-3.001400	3.452600	-10.361000	25.674786	0.000692	20.719045
1460.394110	-2.982500	3.451600	-10.293000	25.664075	0.000692	20.734840
1461.395002	-2.991700	3.450600	-10.322000	25.664579	0.000688	20.708792
1462.395654	-2.984700	3.451500	-10.301000	25.677993	0.000689	20.731275
1463.393994	-2.983000	3.450000	-10.290000	25.702296	0.000690	20.726288
1464.395470	-3.011400	3.447800	-10.382000	25.771884	0.000690	20.737865
1465.393077	-3.014500	3.447700	-10.391000	25.778745	0.000687	20.729583
1466.393928	-3.009900	3.447200	-10.375000	25.792923	0.000687	20.733867
1467.397236	-2.999900	3.449600	-10.347000	25.755208	0.000686	20.723958
1468.393329	-3.012700	3.446200	-10.381000	25.772926	0.000687	20.731324
1469.395874	-2.992300	3.446700	-10.312000	25.779950	0.000686	20.728897
1470.395085	-2.990500	3.446600	-10.306000	25.776996	0.000688	20.721661
1471.394078	-2.994300	3.447200	-10.321000	25.776524	0.000685	20.733990
1472.400268	-2.993400	3.445600	-10.313000	25.789822	0.000684	20.733597
1473.395654	-3.029900	3.443800	-10.432000	25.776247	0.000685	20.723280
1474.394236	-2.976200	3.446900	-10.256000	25.806108	0.000686	20.722454
1475.398010	-2.996400	3.444500	-10.320000	25.809013	0.000683	20.737228
1476.396640	-3.008500	3.442900	-10.357000	25.832573	0.000683	20.739083
1477.398637	-3.001300	3.444900	-10.337000	25.867029	0.000684	20.756153
1478.395033	-2.993100	3.444100	-10.306000	25.852666	0.000683	20.744095
1479.396145	-2.995700	3.442700	-10.313000	25.827992	0.000681	20.724049
1480.396408	-2.991600	3.443900	-10.302000	25.790555	0.000682	20.734808
1481.396724	-3.011600	3.441100	-10.361000	25.796129	0.000681	20.747994
1482.397337	-3.025400	3.441100	-10.409000	25.797758	0.000681	20.740621
1483.397967	-3.009200	3.441600	-10.355000	25.801729	0.000680	20.756465
1484.396504	-3.000100	3.441800	-10.324000	25.809517	0.000680	20.760969
1485.398031	-2.988200	3.441500	-10.283000	25.801412	0.000678	20.727221
1486.399657	-3.006700	3.440900	-10.345000	25.790181	0.000677	20.738225
1487.401001	-3.017900	3.440000	-10.380000	25.771079	0.000680	20.740849
1488.397383	-3.007400	3.440100	-10.345000	25.759051	0.000679	20.769071
1489.399777	-3.008100	3.438800	-10.343000	25.776467	0.000676	20.743891
1490.399183	-3.025400	3.439000	-10.403000	25.766855	0.000677	20.741348
1491.400469	-3.016800	3.438100	-10.370000	25.782743	0.000677	20.742608
1492.403242	-2.999000	3.438100	-10.310000	25.782970	0.000674	20.750423
1493.399284	-3.014300	3.436600	-10.357000	25.788862	0.000676	20.769144
1494.401736	-3.016400	3.438200	-10.370000	25.841648	0.000677	20.753890
1495.400081	-2.984600	3.437300	-10.258000	25.887782	0.000673	20.754715
1496.399710	-2.988600	3.436700	-10.269000	25.904822	0.000675	20.760454
1497.400391	-2.984300	3.438500	-10.261000	25.925215	0.000676	20.748698
1498.403702	-2.991400	3.437800	-10.281000	25.939447	0.000672	20.748772
1499.399728	-2.989300	3.436100	-10.271000	25.956585	0.000673	20.765515
1500.400281	-3.005100	3.434700	-10.320000	25.975316	0.000673	20.753514
1501.400478	-2.992200	3.435400	-10.279000	25.951124	0.000671	20.716879
1502.398947	-3.003200	3.434100	-10.313000	25.908199	0.000673	20.760054
1503.402860	-3.003700	3.435000	-10.317000	25.872939	0.000670	20.774893
1504.399945	-2.997000	3.434200	-10.291000	25.811439	0.000670	20.765744
1505.404933	-2.992700	3.433300	-10.274000	25.816086	0.000669	20.750497
1506.402153	-3.002400	3.433400	-10.308000	25.795341	0.000670	20.754315
1507.402335	-2.999900	3.432300	-10.296000	25.788652	0.000670	20.763717
1508.405397	-2.995900	3.433400	-10.284000	25.828480	0.000669	20.745878
1509.403433	-3.020400	3.430700	-10.360000	25.812855	0.000668	20.787555
1510.403966	-3.006800	3.430400	-10.313000	25.855385	0.000667	20.752991
1511.407596	-2.982500	3.432300	-10.236000	25.885016	0.000669	20.775645
1512.403319	-2.987900	3.431900	-10.253000	25.862962	0.000667	20.740687
1513.405276	-2.985900	3.431700	-10.245000	25.851154	0.000667	20.773397
1514.404337	-3.004600	3.431400	-10.309000	25.864597	0.000667	20.776944
1515.401144	-3.002500	3.430200	-10.298000	25.857916	0.000664	20.773552
1516.404643	-2.984600	3.429900	-10.236000	25.911195	0.000666	20.760218
1517.403478	-2.972500	3.431000	-10.195000	25.928966	0.000664	20.777124
1518.405168	-2.994000	3.428400	-10.264000	25.955169	0.000663	20.771679
1519.407965	-2.994800	3.427500	-10.263000	25.977155	0.000664	20.754413
1520.404750	-3.010800	3.429200	-10.322000	25.927291	0.000664	20.780656
1521.411279	-3.003600	3.427400	-10.294000	25.920187	0.000663	20.765933
1522.405263	-3.015900	3.425600	-10.330000	25.880978	0.000661	20.783443
1523.405188	-3.006100	3.427100	-10.302000	25.869594	0.000663	20.753040
1524.408080	-3.005900	3.425100	-10.295000	25.883852	0.000663	20.787278
1525.406272	-2.966900	3.427900	-10.168000	25.871677	0.000660	20.782160
1526.408249	-3.002400	3.424900	-10.282000	25.904196	0.000661	20.771679
1527.405467	-3.000800	3.424200	-10.274000	25.897767	0.000662	20.786558
1528.405751	-3.016400	3.424200	-10.328000	25.899305	0.000661	20.770085
1529.406865	-3.010800	3.425200	-10.312000	25.923229	0.000661	20.771360
1530.405500	-2.999700	3.424400	-10.271000	25.876755	0.000658	20.758811
1531.406607	-2.988300	3.425800	-10.237000	25.848491	0.000659	20.784947
1532.406780	-3.009700	3.423900	-10.304000	25.852333	0.000656	20.780271
1533.407117	-2.980500	3.424500	-10.206000	25.870472	0.000657	20.776208
1534.408851	-3.015200	3.423200	-10.321000	25.890353	0.000656	20.785274
1535.409653	-2.991100	3.423000	-10.238000	25.885943	0.000657	20.787482
1536.407300	-2.993000	3.421200	-10.238000	25.878276	0.000655	20.779306
1537.410798	-3.009400	3.420700	-10.293000	25.873996	0.000655	20.789231
1538.408161	-3.000100	3.421700	-10.264000	25.841265	0.000656	20.781955
1539.410153	-2.987600	3.421100	-10.220000	25.821587	0.000655	20.801068
1540.412467	-2.984900	3.421000	-10.209000	25.813993	0.000654	20.774000
1541.409431	-2.979100	3.420500	-10.188000	25.832345	0.000654	20.773943
1542.412711	-3.002800	3.419700	-10.268000	25.832800	0.000654	20.788151
1543.410375	-2.998000	3.419600	-10.251000	25.835730	0.000655	20.794887
1544.408713	-2.983200	3.419800	-10.201000	25.812675	0.000652	20.766037
1545.412283	-2.995900	3.418200	-10.239000	25.831360	0.000653	20.774376
1546.411824	-2.998800	3.417400	-10.247000	25.817972	0.000652	20.783687
1547.408731	-3.006300	3.418000	-10.275000	25.830668	0.000650	20.774629
1548.410001	-2.995500	3.418300	-10.238000	25.848352	0.000651	20.798084
1549.411135	-2.994300	3.417800	-10.233000	25.842338	0.000652	20.789671
1550.410606	-2.997600	3.416100	-10.239000	25.873352	0.000652	20.783842
1551.414331	-3.012200	3.415800	-10.288000	25.896381	0.000650	20.795598
1552.412660	-2.976200	3.417000	-10.169000	25.902762	0.000648	20.789679
1553.418098	-2.979700	3.415400	-10.176000	25.913341	0.000650	20.792246
1554.414161	-2.989000	3.416200	-10.209000	25.910817	0.000650	20.801091
1555.415124	-3.001500	3.414200	-10.247000	25.921242	0.000650	20.768416
1556.416698	-3.010500	3.415100	-10.279000	25.905748	0.000647	20.786515
1557.413898	-2.996700	3.414000	-10.229000	25.887292	0.000645	20.771293
1558.413852	-2.982500	3.414700	-10.184000	25.874442	0.000644	20.800111
1559.415688	-2.986000	3.412800	-10.189000	25.850573	0.000645	20.812168
1560.415159	-2.976600	3.412100	-10.155000	25.871813	0.000646	20.795573
1561.414281	-2.989400	3.413200	-10.202000	25.912299	0.000644	20.803054
1562.419223	-3.007200	3.412600	-10.260000	25.939356	0.000645	20.799890
1563.414974	-3.017000	3.411000	-10.291000	25.929144	0.000644	20.793423
1564.416461	-3.007200	3.410800	-10.256000	25.932227	0.000643	20.805056
1565.416724	-3.005100	3.411900	-10.252000	25.914618	0.000643	20.799693
1566.415962	-3.001700	3.411600	-10.240000	25.880879	0.000641	20.799939
1567.417968	-2.978900	3.411300	-10.159000	25.866573	0.000641	20.809274
1568.417700	-2.996700	3.410600	-10.218000	25.836567	0.000642	20.805211
1569.419856	-3.001900	3.409700	-10.235000	25.848864	0.000640	20.795753
1570.418599	-2.977800	3.410500	-10.154000	25.866311	0.000640	20.817547
1571.419274	-3.004100	3.409500	-10.242000	25.869493	0.000639	20.818846
1572.420332	-2.987200	3.409300	-10.183000	25.914422	0.000639	20.807557
1573.419796	-2.995700	3.408200	-10.210000	25.922747	0.000638	20.807860
1574.424984	-3.008800	3.408200	-10.254000	25.912640	0.000638	20.823784
1575.420708	-2.986500	3.407500	-10.176000	25.914462	0.000639	20.816606
1576.420844	-3.014800	3.406300	-10.268000	25.956191	0.000638	20.793095
1577.420790	-3.002300	3.406200	-10.225000	25.989675	0.000637	20.809192
1578.423415	-3.018900	3.406400	-10.282000	25.995794	0.000634	20.795899
1579.421380	-2.988600	3.405800	-10.177000	25.993336	0.000636	20.820930
1580.421723	-3.008800	3.405700	-10.246000	26.008137	0.000638	20.826792
1581.420346	-3.027500	3.404200	-10.304000	26.040407	0.000636	20.810850
1582.421938	-3.002000	3.404500	-10.219000	26.046518	0.000634	20.842119
1583.425542	-2.999500	3.404900	-10.212000	26.060610	0.000634	20.813605
1584.421654	-2.979500	3.404600	-10.143000	26.061822	0.000636	20.811978
1585.426132	-3.019100	3.403000	-10.273000	26.028649	0.000633	20.809942
1586.424401	-3.006200	3.403300	-10.230000	26.055206	0.000633	20.826193
1587.424060	-3.004200	3.404300	-10.226000	26.028405	0.000632	20.837197
1588.424314	-3.030400	3.401800	-10.308000	25.998803	0.000634	20.815991
1589.427841	-3.014000	3.401400	-10.251000	25.979379	0.000632	20.830616
1590.429427	-2.975700	3.401800	-10.122000	25.941183	0.000632	20.809786
1591.426227	-2.990600	3.401500	-10.171000	25.906501	0.000630	20.829471
1592.425250	-2.986800	3.402500	-10.160000	25.880794	0.000632	20.826879
1593.426636	-2.985700	3.400900	-10.153000	25.837825	0.000629	20.805526
1594.429527	-2.972800	3.401500	-10.109000	25.817235	0.000628	20.822775
1595.425906	-3.005900	3.398500	-10.215000	25.794350	0.000628	20.829184
1596.429283	-3.026900	3.399100	-10.288000	25.832633	0.000629	20.824492
1597.433746	-2.993400	3.400200	-10.177000	25.844392	0.000627	20.840571
1598.426839	-3.016400	3.398800	-10.251000	25.845987	0.000627	20.815621
1599.430825	-3.015600	3.398900	-10.249000	25.857762	0.000627	20.815597
1600.432383	-2.999200	3.399200	-10.192000	25.871825	0.000626	20.827352
1601.428214	-3.016600	3.398300	-10.250000	25.895278	0.000626	20.815351
1602.430084	-2.970900	3.399300	-10.098000	25.927803	0.000625	20.811043
1603.430016	-2.994600	3.398200	-10.175000	25.967863	0.000627	20.807193
1604.429889	-2.987400	3.396300	-10.145000	25.962232	0.000625	20.829510
1605.432553	-3.023500	3.396000	-10.266000	25.967749	0.000624	20.809448
1606.430775	-2.997200	3.397000	-10.181000	25.927136	0.000623	20.814165
1607.431505	-3.020100	3.395400	-10.253000	25.926021	0.000621	20.811149
1608.430216	-3.012500	3.395500	-10.228000	25.942344	0.000623	20.799098
1609.428713	-3.001900	3.395100	-10.192000	25.905205	0.000621	20.793082
1610.433280	-2.978800	3.396800	-10.117000	25.909957	0.000624	20.808761
1611.430322	-2.978500	3.395400	-10.113000	25.928860	0.000622	20.801673
1612.429569	-2.996600	3.394300	-10.171000	25.930472	0.000622	20.803292
1613.429574	-3.006100	3.393900	-10.201000	25.954916	0.000621	20.790866
1614.430600	-3.019800	3.393400	-10.246000	25.971645	0.000620	20.809096
1615.430149	-3.001500	3.393200	-10.184000	25.997424	0.000618	20.794692
1616.430717	-2.994300	3.393700	-10.160000	25.975609	0.000618	20.784628
1617.431007	-2.974900	3.393900	-10.095000	25.954672	0.000618	20.804371
1618.432883	-2.983100	3.393900	-10.123000	25.949602	0.000618	20.807339
1619.433099	-3.007200	3.391400	-10.198000	25.964681	0.000618	20.786451
1620.434305	-3.007600	3.391200	-10.198000	25.963859	0.000616	20.801747
1621.437276	-2.995000	3.393200	-10.162000	26.004153	0.000616	20.777745
1622.434190	-3.013200	3.390600	-10.216000	26.004308	0.000617	20.807771
1623.433282	-3.007700	3.390800	-10.197000	26.026635	0.000616	20.790375
1624.434849	-3.010200	3.389600	-10.203000	26.010142	0.000616	20.813633
1625.436256	-3.003700	3.389000	-10.177000	26.000955	0.000614	20.783540
1626.436993	-2.979800	3.390600	-10.102000	25.981882	0.000616	20.804681
1627.436880	-3.000000	3.388300	-10.164000	25.962874	0.000612	20.812137
1628.436919	-3.016000	3.387100	-10.215000	25.960189	0.000612	20.801379
1629.438510	-2.972100	3.390000	-10.074000	25.986919	0.000612	20.798836
1630.437437	-2.994900	3.387900	-10.145000	26.020304	0.000615	20.801558
1631.440536	-3.034700	3.388000	-10.280000	26.025496	0.000611	20.802033
1632.439172	-3.015400	3.386300	-10.210000	25.993599	0.000609	20.783263
1633.446846	-2.994200	3.387800	-10.141000	25.998197	0.000612	20.778873
1634.440498	-3.000700	3.388000	-10.165000	26.005829	0.000612	20.788911
1635.439562	-3.012700	3.386300	-10.200000	26.073534	0.000611	20.768743
1636.440026	-3.007900	3.385500	-10.182000	26.097381	0.000610	20.778954
1637.445670	-2.986400	3.388000	-10.117000	26.089285	0.000611	20.773665
1638.439683	-3.023800	3.384600	-10.234000	26.090384	0.000608	20.776665
1639.444088	-2.977400	3.385900	-10.080000	26.048684	0.000608	20.762742
1640.439957	-2.991800	3.383500	-10.122000	26.009636	0.000608	20.776615
1641.444057	-3.017300	3.384000	-10.209000	25.975185	0.000608	20.769503
1642.443502	-3.005400	3.384300	-10.169000	25.998066	0.000608	20.783482
1643.444304	-2.999900	3.383200	-10.148000	26.002809	0.000607	20.779239
1644.442436	-3.015800	3.383400	-10.203000	25.989082	0.000606	20.762128
1645.443271	-3.009400	3.382900	-10.180000	25.961790	0.000605	20.778805
1646.443214	-3.021200	3.383100	-10.221000	25.955052	0.000606	20.778201
1647.442214	-3.017800	3.383200	-10.209000	25.948966	0.000603	20.763077
1648.453552	-3.009400	3.381900	-10.177000	25.949519	0.000603	20.769322
1649.447146	-3.038300	3.380800	-10.271000	25.971001	0.000604	20.766248
1650.449030	-3.004600	3.382100	-10.160000	25.984167	0.000603	20.781373
1651.443667	-2.995500	3.381400	-10.128000	26.022077	0.000603	20.772519
1652.446806	-3.006400	3.380900	-10.164000	26.072873	0.000602	20.774718
1653.446764	-3.015300	3.378700	-10.187000	26.067267	0.000603	20.755334
1654.444967	-3.007700	3.378900	-10.161000	26.104677	0.000600	20.763051
1655.445718	-3.025200	3.379800	-10.223000	26.110144	0.000600	20.760484
1656.447104	-2.991600	3.380500	-10.113000	26.076363	0.000601	20.755938
1657.447352	-3.018000	3.377800	-10.193000	26.041620	0.000600	20.759437
1658.448519	-2.983700	3.378800	-10.080000	25.995021	0.000598	20.769043
1659.449306	-2.978600	3.377500	-10.059000	25.933178	0.000599	20.750534
1660.447134	-2.998500	3.377600	-10.127000	25.931314	0.000598	20.753878
1661.449827	-2.986800	3.377300	-10.086000	25.941697	0.000598	20.773793
1662.450086	-2.980200	3.379000	-10.069000	25.958175	0.000597	20.765691
1663.449940	-3.021700	3.375800	-10.198000	25.934504	0.000597	20.765617
1664.453059	-3.011000	3.376500	-10.166000	25.906958	0.000597	20.774454
1665.451718	-2.997300	3.374200	-10.112000	25.913590	0.000597	20.768789
1666.451620	-3.002400	3.375100	-10.132000	25.949988	0.000596	20.759836
1667.450991	-3.005600	3.375300	-10.144000	25.996939	0.000595	20.759117
1668.450757	-3.019400	3.373700	-10.185000	26.034173	0.000593	20.744843
1669.453092	-3.002700	3.375200	-10.134000	26.076638	0.000593	20.750051
1670.451018	-3.007400	3.374900	-10.148000	26.097035	0.000595	20.773391
1671.452285	-2.999900	3.374700	-10.122000	26.062391	0.000592	20.758970
1672.450313	-3.003700	3.373900	-10.133000	26.031870	0.000591	20.738735
1673.454623	-3.013500	3.373200	-10.163000	26.021911	0.000592	20.763343
1674.453408	-2.979400	3.374300	-10.052000	26.017664	0.000592	20.757179
1675.453901	-2.986900	3.372800	-10.073000	26.029608	0.000591	20.757800
1676.452724	-2.974800	3.373600	-10.035000	26.015800	0.000590	20.761945
1677.452212	-2.994300	3.371900	-10.095000	25.986044	0.000591	20.746273
1678.451456	-2.997900	3.372900	-10.110000	25.976979	0.000590	20.738114
1679.451516	-3.003000	3.371100	-10.122000	25.984058	0.000590	20.739536
1680.458373	-2.983500	3.372500	-10.061000	26.035580	0.000589	20.762852
1681.451987	-2.987100	3.371200	-10.069000	26.021276	0.000588	20.753222
1682.456059	-2.999200	3.370600	-10.108000	26.020772	0.000585	20.746551
1683.452724	-3.013000	3.370100	-10.153000	26.058061	0.000585	20.750352
1684.452910	-2.995000	3.370300	-10.093000	26.081982	0.000587	20.745937
1685.452901	-2.986600	3.368400	-10.059000	26.032553	0.000586	20.750802
1686.453532	-3.010700	3.369600	-10.143000	26.035458	0.000584	20.759410
1687.454150	-2.997700	3.368400	-10.096000	26.043806	0.000584	20.745512
1688.454642	-2.982300	3.369400	-10.048000	26.064302	0.000583	20.743345
1689.454394	-3.005300	3.367800	-10.119000	26.089768	0.000584	20.740958
1690.453934	-3.013500	3.366700	-10.144000	26.106382	0.000583	20.731572
1691.455510	-3.002600	3.366900	-10.108000	26.165620	0.000582	20.716652
1692.453693	-3.004400	3.367900	-10.118000	26.174105	0.000583	20.734663
1693.454566	-3.013800	3.366300	-10.145000	26.179247	0.000582	20.745994
1694.453218	-3.004300	3.367800	-10.116000	26.211650	0.000580	20.737303
1695.453539	-2.991400	3.366400	-10.069000	26.205508	0.000580	20.731605
1696.456633	-2.993300	3.366100	-10.074000	26.178791	0.000580	20.739845
1697.454139	-3.011300	3.365300	-10.133000	26.168760	0.000579	20.746835
1698.458932	-3.002100	3.365300	-10.102000	26.148640	0.000578	20.733730
1699.454956	-2.992400	3.364400	-10.067000	26.076343	0.000579	20.731735
1700.455571	-3.024400	3.363900	-10.172000	26.055334	0.000579	20.714893
1701.456838	-2.999900	3.363500	-10.087000	26.040713	0.000577	20.762793
1702.457810	-3.001800	3.363900	-10.097000	26.032316	0.000578	20.754356
1703.454044	-3.021900	3.362500	-10.160000	26.016718	0.000575	20.753858
1704.454648	-2.993900	3.362300	-10.065000	26.007555	0.000575	20.747971
1705.455485	-2.968600	3.362200	-9.979000	25.992803	0.000575	20.717027
1706.455392	-2.995900	3.361200	-10.069000	25.970027	0.000575	20.717378
1707.457659	-2.999600	3.361800	-10.083000	25.977635	0.000574	20.708900
1708.456311	-3.003900	3.360200	-10.092000	26.026237	0.000573	20.764845
1709.459342	-3.005700	3.360100	-10.098000	26.044756	0.000574	20.747889
1710.461794	-2.980300	3.362700	-10.021000	26.096764	0.000573	20.713846
1711.457614	-3.007900	3.359900	-10.106000	26.138510	0.000572	20.737302
1712.458468	-3.014300	3.359200	-10.125000	26.173981	0.000570	20.723158
1713.456625	-2.996100	3.358500	-10.062000	26.201975	0.000571	20.750815
1714.457164	-3.003200	3.360200	-10.090000	26.227976	0.000569	20.730001
1715.456037	-2.983700	3.360200	-10.025000	26.222582	0.000570	20.724106
1716.457209	-3.002300	3.357800	-10.080000	26.230465	0.000572	20.742934
1717.455728	-3.017600	3.358100	-10.132000	26.253829	0.000568	20.737015
1718.459046	-2.999500	3.358100	-10.071000	26.257986	0.000569	20.726019
1719.458854	-2.992300	3.357600	-10.045000	26.254642	0.000568	20.705113
1720.456396	-3.015400	3.357500	-10.123000	26.263330	0.000568	20.721432
1721.456237	-2.998300	3.357900	-10.067000	26.227072	0.000567	20.741421
1722.456855	-2.997500	3.357900	-10.065000	26.209370	0.000569	20.739753
1723.458936	-3.024000	3.356200	-10.148000	26.197654	0.000566	20.733196
1724.458722	-3.013300	3.355200	-10.110000	26.150891	0.000566	20.723189
1725.458713	-2.976300	3.356000	-9.987000	26.162167	0.000565	20.715553
1726.457359	-2.992500	3.355800	-10.040000	26.168407	0.000566	20.724195
1727.458362	-3.005400	3.355600	-10.085000	26.173248	0.000563	20.720050
1728.458861	-2.992500	3.355900	-10.041000	26.167617	0.000565	20.725298
1729.458318	-2.988400	3.354800	-10.024000	26.190983	0.000566	20.724595
1730.458344	-3.000700	3.355200	-10.067000	26.223378	0.000564	20.722060
1731.458809	-3.015900	3.353200	-10.111000	26.229137	0.000564	20.710304
1732.458739	-2.996600	3.352900	-10.047000	26.256853	0.000562	20.720613
1733.457246	-2.993200	3.354700	-10.041000	26.295714	0.000562	20.706085
1734.459884	-2.984500	3.353300	-10.007000	26.308778	0.000561	20.706886
1735.456812	-3.004800	3.351800	-10.071000	26.271512	0.000562	20.739139
1736.461066	-3.010200	3.351500	-10.087000	26.292492	0.000562	20.735566
1737.457584	-2.964200	3.351900	-9.934800	26.273025	0.000560	20.736866
1738.457101	-2.996700	3.350700	-10.040000	26.288473	0.000557	20.730579
1739.460144	-2.994500	3.350300	-10.031000	26.256267	0.000558	20.722869
1740.458038	-2.985800	3.351300	-10.004000	26.235604	0.000558	20.713484
1741.458937	-3.006900	3.350400	-10.074000	26.204373	0.000559	20.724774
1742.459930	-3.001800	3.349800	-10.053000	26.171164	0.000558	20.704678
1743.461832	-2.993500	3.350600	-10.029000	26.187280	0.000554	20.702381
1744.460996	-3.021900	3.347800	-10.116000	26.186312	0.000556	20.731756
1745.464102	-3.025400	3.348800	-10.130000	26.230153	0.000554	20.716067
1746.461362	-3.004200	3.348100	-10.057000	26.234676	0.000557	20.712551
1747.462142	-2.996500	3.347200	-10.029000	26.285056	0.000555	20.709600
1748.463037	-3.033800	3.346700	-10.153000	26.301749	0.000553	20.710728
1749.461874	-2.999100	3.347200	-10.038000	26.309843	0.000555	20.707957
1750.465518	-3.018900	3.348200	-10.107000	26.339444	0.000553	20.695505
1751.462151	-3.008500	3.347600	-10.071000	26.351434	0.000554	20.711824
1752.463359	-2.997900	3.346300	-10.031000	26.366636	0.000554	20.712878
1753.462242	-3.003600	3.346700	-10.051000	26.356550	0.000551	20.711750
1754.462294	-3.032300	3.344200	-10.140000	26.303440	0.000552	20.712428
1755.465043	-2.966300	3.344900	-9.921400	26.262913	0.000550	20.702045
1756.465736	-2.996600	3.345100	-10.023000	26.236019	0.000551	20.699674
1757.464880	-3.014600	3.345000	-10.083000	26.220741	0.000551	20.684320
1758.464450	-2.994500	3.344400	-10.013000	26.171310	0.000551	20.710989
1759.466794	-2.997000	3.345500	-10.025000	26.115645	0.000549	20.710532
1760.468730	-2.989000	3.344500	-9.996200	26.065005	0.000549	20.704220
1761.467580	-2.985400	3.344000	-9.981700	26.027845	0.000547	20.716197
1762.465177	-2.968600	3.344500	-9.926400	26.001067	0.000548	20.702569
1763.466126	-2.979900	3.344000	-9.964300	26.004940	0.000549	20.703615
1764.466633	-2.999600	3.343100	-10.026000	25.999822	0.000546	20.713647
1765.467468	-2.999000	3.342900	-10.024000	26.019993	0.000546	20.709256
1766.474940	-2.971900	3.342900	-9.932600	26.047487	0.000546	20.688515
1767.467018	-3.013800	3.343200	-10.075000	26.043899	0.000543	20.687280
1768.471035	-3.010700	3.340900	-10.057000	26.085379	0.000545	20.703828
1769.469884	-2.991800	3.341300	-9.995700	26.070408	0.000543	20.690207
1770.468950	-2.996900	3.340600	-10.011000	26.065127	0.000543	20.698179
1771.469521	-2.990800	3.340700	-9.989500	26.083784	0.000541	20.706019
1772.474467	-2.973100	3.339900	-9.928100	26.080163	0.000542	20.705700
1773.475234	-2.993200	3.340400	-9.997700	26.137580	0.000540	20.698907
1774.472643	-2.986500	3.339600	-9.972200	26.175818	0.000543	20.710304
1775.471674	-2.996400	3.339700	-10.006000	26.223768	0.000540	20.699692
1776.472720	-3.004600	3.338800	-10.030000	26.271895	0.000539	20.703485
1777.476967	-3.001700	3.338000	-10.018000	26.314977	0.000539	20.697942
1778.473763	-2.984400	3.339600	-9.965200	26.349044	0.000540	20.715586
1779.479255	-2.997200	3.337900	-10.003000	26.357088	0.000539	20.699962
1780.477122	-3.004900	3.338900	-10.031000	26.316905	0.000539	20.691819
1781.474505	-2.998200	3.337200	-10.005000	26.301343	0.000539	20.692775
1782.475917	-2.977800	3.337900	-9.938100	26.221775	0.000538	20.701008
1783.476691	-3.002700	3.336100	-10.016000	26.170286	0.000537	20.694313
1784.475906	-3.008400	3.335600	-10.034000	26.145424	0.000536	20.679760
1785.475215	-3.011200	3.334700	-10.040000	26.113629	0.000535	20.676735
1786.475106	-3.002200	3.334600	-10.010000	26.110790	0.000535	20.699963
1787.476380	-3.012300	3.334400	-10.043000	26.098675	0.000535	20.686841
1788.480615	-3.003000	3.333400	-10.009000	26.114068	0.000533	20.698042
1789.476302	-3.026200	3.333200	-10.086000	26.122937	0.000535	20.697469
1790.476849	-3.012500	3.332900	-10.040000	26.111261	0.000533	20.692850
1791.475370	-3.031000	3.332500	-10.098000	26.155960	0.000533	20.692719
1792.478670	-3.014700	3.332200	-10.043000	26.127273	0.000533	20.696137
1793.479812	-3.014900	3.331700	-10.043000	26.128510	0.000531	20.712080
1794.479562	-2.987700	3.332200	-9.954900	26.127819	0.000531	20.676294
1795.482246	-3.007300	3.332700	-10.022000	26.125581	0.000532	20.679736
1796.479409	-2.996900	3.331700	-9.983800	26.138843	0.000528	20.693537
1797.479308	-3.003000	3.331800	-10.004000	26.138347	0.000529	20.688771
1798.481420	-3.012500	3.331100	-10.034000	26.185550	0.000529	20.690210
1799.483112	-3.003400	3.331200	-10.004000	26.178228	0.000529	20.676213
1800.479487	-3.025000	3.329500	-10.070000	26.178260	0.000530	20.676245
1801.478627	-2.995300	3.330300	-9.974000	26.170483	0.000528	20.679336
1802.480247	-2.994600	3.330200	-9.971300	26.160199	0.000525	20.681331
1803.480987	-3.007100	3.327600	-10.005000	26.183842	0.000528	20.680431
1804.484043	-2.979400	3.329700	-9.918700	26.151136	0.000526	20.693088
1805.481857	-2.986000	3.329000	-9.938200	26.157352	0.000526	20.676572
1806.484339	-2.991400	3.329600	-9.958100	26.193612	0.000526	20.685508
1807.481535	-2.982200	3.328600	-9.925600	26.185297	0.000524	20.679998
1808.481703	-2.991100	3.327400	-9.950900	26.210973	0.000524	20.681616
1809.484255	-3.021000	3.326600	-10.049000	26.201194	0.000524	20.691705
1810.482015	-2.992000	3.327900	-9.955800	26.200746	0.000522	20.670865
1811.483171	-2.987500	3.326200	-9.934500	26.241797	0.000522	20.680349
1812.483881	-3.016700	3.324400	-10.027000	26.255903	0.000522	20.674609
1813.483470	-2.999700	3.325400	-9.973600	26.280739	0.000524	20.678705
1814.483743	-2.990400	3.325200	-9.942000	26.320403	0.000521	20.698654
1815.485704	-2.971100	3.326500	-9.882600	26.314587	0.000520	20.684273
1816.483562	-3.015600	3.324500	-10.023000	26.328773	0.000521	20.687151
1817.484562	-3.013000	3.323100	-10.011000	26.317629	0.000521	20.662672
1818.485044	-3.007100	3.323900	-9.994500	26.246279	0.000518	20.676792
1819.485047	-2.988600	3.325000	-9.934600	26.256870	0.000519	20.696446
1820.490190	-3.016800	3.323400	-10.025000	26.261475	0.000517	20.668355
1821.485641	-3.002200	3.322700	-9.974500	26.298285	0.000518	20.682588
1822.486593	-3.016300	3.321300	-10.017000	26.328211	0.000519	20.658608
1823.485684	-2.994800	3.322400	-9.949100	26.381458	0.000516	20.673243
1824.485273	-3.002900	3.320300	-9.970100	26.404745	0.000517	20.673889
1825.490300	-2.989500	3.321800	-9.929400	26.418622	0.000517	20.658436
1826.487895	-2.990000	3.322800	-9.934600	26.361391	0.000515	20.684370
1827.486675	-2.984300	3.320500	-9.907700	26.396969	0.000516	20.668444
1828.487129	-3.002200	3.320600	-9.968800	26.393521	0.000513	20.669245
1829.486825	-3.006300	3.319800	-9.979900	26.414213	0.000512	20.681983
1830.488008	-2.996000	3.321200	-9.949300	26.444283	0.000512	20.698931
1831.489182	-3.011500	3.319600	-9.996600	26.439842	0.000512	20.672180
1832.487148	-3.008400	3.320200	-9.987900	26.391446	0.000512	20.675221
1833.488154	-3.010700	3.319300	-9.992200	26.380571	0.000512	20.673300
1834.487558	-2.995200	3.319000	-9.940400	26.368801	0.000510	20.677118
1835.486806	-3.011300	3.318100	-9.990900	26.367361	0.000510	20.674248
1836.490023	-3.007000	3.317400	-9.974200	26.367711	0.000510	20.678868
1837.485049	-3.026600	3.316800	-10.036000	26.346212	0.000510	20.670536
1838.486814	-3.016200	3.315000	-9.997400	26.348050	0.000506	20.658158
1839.486260	-2.985300	3.316200	-9.898500	26.379985	0.000508	20.664175
1840.487290	-2.994000	3.316600	-9.929100	26.420833	0.000507	20.673937
1841.488230	-2.993200	3.316800	-9.926300	26.397888	0.000507	20.691180
1842.489724	-3.001100	3.315400	-9.948600	26.403598	0.000508	20.702610
1843.490043	-3.008100	3.315600	-9.972100	26.411691	0.000504	20.673283
1844.486809	-2.997000	3.314800	-9.932600	26.368817	0.000504	20.659588
1845.487913	-3.021600	3.312900	-10.010000	26.351409	0.000504	20.680977
1846.491613	-3.004900	3.313800	-9.957400	26.316968	0.000504	20.660112
1847.490998	-2.985500	3.313800	-9.892700	26.284462	0.000502	20.663954
1848.489194	-2.997600	3.312900	-9.929600	26.271748	0.000503	20.674886
1849.491349	-2.992100	3.314400	-9.916600	26.268673	0.000501	20.671795
1850.490448	-2.968800	3.313400	-9.835400	26.247985	0.000502	20.678507
1851.490184	-2.987200	3.312000	-9.891700	26.271137	0.000500	20.687550
1852.489313	-2.998600	3.314100	-9.936400	26.302749	0.000501	20.661468
1853.493937	-3.006000	3.311500	-9.952300	26.309086	0.000502	20.684909
1854.491490	-3.008200	3.311000	-9.959500	26.346927	0.000500	20.686904
1855.492727	-3.010500	3.310500	-9.964700	26.399075	0.000500	20.693796
1856.497670	-3.019300	3.310600	-9.994500	26.420353	0.000498	20.686732
1857.491639	-3.002000	3.310900	-9.938000	26.444664	0.000498	20.686511
1858.493916	-3.029800	3.309000	-10.025000	26.437864	0.000496	20.676831
1859.492363	-3.002000	3.310500	-9.937100	26.441565	0.000498	20.690983
1860.491840	-2.999300	3.309500	-9.924700	26.471919	0.000498	20.672653
1861.492383	-2.999900	3.308300	-9.922800	26.478613	0.000496	20.666104
1862.492041	-2.994100	3.309000	-9.906100	26.432528	0.000496	20.673838
1863.493747	-2.998100	3.308500	-9.917700	26.417481	0.000495	20.703762
1864.492664	-2.991100	3.308000	-9.893300	26.448844	0.000494	20.689290
1865.492313	-2.986200	3.307100	-9.874600	26.414211	0.000496	20.684826
1866.494210	-3.006800	3.308200	-9.944800	26.408371	0.000493	20.674214
1867.493643	-3.003800	3.307100	-9.932900	26.446461	0.000492	20.667927
1868.497222	-2.990800	3.307400	-9.890500	26.467616	0.000492	20.698202
1869.494669	-2.989100	3.306500	-9.882400	26.500840	0.000491	20.697458
1870.493836	-2.976700	3.306900	-9.843000	26.490983	0.000490	20.674745
1871.496445	-3.021000	3.305100	-9.984600	26.460003	0.000490	20.690549
1872.498567	-2.999100	3.304600	-9.909200	26.419286	0.000490	20.686134
1873.496770	-3.010300	3.305900	-9.950400	26.393250	0.000490	20.683673
1874.498321	-3.021900	3.303700	-9.982400	26.398382	0.000489	20.675080
1875.497156	-2.986100	3.305200	-9.868100	26.425151	0.000488	20.688235
1876.498926	-2.996700	3.304800	-9.902700	26.421433	0.000487	20.682128
1877.498322	-2.989200	3.304100	-9.875900	26.429030	0.000487	20.682651
1878.498054	-2.992500	3.304600	-9.888500	26.462085	0.000487	20.686477
1879.500733	-3.014300	3.301900	-9.951400	26.456782	0.000487	20.694898
1880.505523	-3.012100	3.302000	-9.943600	26.433560	0.000484	20.671082
1881.499578	-2.998100	3.301500	-9.897700	26.463280	0.000485	20.692421
1882.500217	-3.005900	3.301500	-9.922900	26.481629	0.000486	20.690949
1883.500745	-3.011200	3.301600	-9.939900	26.490860	0.000484	20.674622
1884.500783	-3.031200	3.300400	-10.004000	26.486126	0.000483	20.683141
1885.503541	-2.998800	3.300200	-9.894500	26.473040	0.000483	20.672357
1886.500799	-3.021400	3.298700	-9.964200	26.477936	0.000484	20.698143
1887.503311	-3.001700	3.300400	-9.906100	26.482507	0.000482	20.689461
1888.502407	-2.998500	3.298900	-9.891500	26.495610	0.000481	20.683190
1889.500760	-2.987200	3.300600	-9.858600	26.484516	0.000480	20.685790
1890.503869	-2.989400	3.299800	-9.863000	26.461401	0.000479	20.690058
1891.505733	-2.988300	3.299100	-9.857400	26.498416	0.000479	20.687433
1892.503673	-2.989200	3.298900	-9.859600	26.499066	0.000479	20.693778
1893.503382	-3.003000	3.298000	-9.903000	26.531346	0.000478	20.690188
1894.503907	-2.987300	3.297100	-9.848200	26.504133	0.000478	20.687490
1895.504403	-2.978400	3.297300	-9.819600	26.508549	0.000476	20.697620
1896.508188	-2.997100	3.296500	-9.879400	26.509664	0.000477	20.706802
1897.507174	-2.998800	3.295600	-9.881400	26.566667	0.000475	20.674008
1898.510411	-2.971800	3.296600	-9.795900	26.586754	0.000474	20.684719
1899.507120	-2.991000	3.297400	-9.861100	26.560982	0.000475	20.720929
1900.506234	-3.004200	3.295500	-9.898900	26.560144	0.000476	20.691635
1901.517571	-3.015500	3.294600	-9.933700	26.564885	0.000475	20.712050
1902.507528	-3.013800	3.293600	-9.925200	26.586160	0.000473	20.697399
1903.507839	-3.004900	3.294500	-9.899300	26.596472	0.000473	20.701601
1904.506947	-3.003400	3.294000	-9.892500	26.623634	0.000472	20.688602
1905.508109	-2.992900	3.294800	-9.858900	26.633360	0.000471	20.699329
1906.507908	-2.997600	3.292900	-9.870200	26.647436	0.000471	20.691194
1907.512686	-2.971600	3.293900	-9.787500	26.640020	0.000470	20.705076
1908.508442	-3.026500	3.291000	-9.959100	26.646721	0.000469	20.686206
1909.510106	-2.986100	3.293500	-9.834200	26.632139	0.000472	20.701895
1910.510604	-2.995000	3.293100	-9.860400	26.644541	0.000468	20.714838
1911.510639	-2.991800	3.290900	-9.844700	26.629806	0.000469	20.717094
1912.514204	-3.000600	3.290700	-9.873900	26.575807	0.000467	20.692207
1913.510018	-2.985600	3.292500	-9.829400	26.523424	0.000470	20.710202
1914.512067	-3.015900	3.290500	-9.922600	26.498797	0.000468	20.701568
1915.513314	-3.020100	3.290100	-9.935100	26.432192	0.000466	20.708591
1916.513217	-3.002500	3.289500	-9.875200	26.404635	0.000467	20.696540
1917.516063	-3.023400	3.288100	-9.939900	26.389294	0.000466	20.722849
1918.513807	-3.026600	3.288900	-9.953300	26.367243	0.000466	20.694046
1919.515274	-3.023900	3.287900	-9.940400	26.358507	0.000464	20.721304
1920.515206	-3.012200	3.288900	-9.906000	26.308627	0.000464	20.702941
1921.513873	-2.999400	3.287800	-9.860900	26.300134	0.000464	20.711002
1922.514344	-2.983800	3.288100	-9.809200	26.288095	0.000462	20.715499
1923.517332	-3.002000	3.287400	-9.865700	26.323236	0.000460	20.725211
1924.516003	-3.000900	3.287700	-9.864900	26.420056	0.000460	20.709669
1925.515296	-2.993200	3.287400	-9.839100	26.463855	0.000460	20.683989
1926.514521	-2.999600	3.284900	-9.852000	26.499682	0.000461	20.708149
1927.515618	-3.003400	3.286000	-9.867800	26.541998	0.000459	20.699474
1928.519459	-2.999100	3.286100	-9.854100	26.555498	0.000459	20.704984
1929.516547	-3.015900	3.283800	-9.902300	26.573487	0.000458	20.699359
1930.518758	-3.016900	3.284800	-9.908900	26.632642	0.000456	20.716152
1931.516272	-3.008500	3.285000	-9.880900	26.643645	0.000457	20.713936
1932.515527	-3.004000	3.283600	-9.862300	26.596852	0.000457	20.703406
1933.517430	-2.997000	3.284600	-9.843000	26.570568	0.000458	20.704011
1934.518651	-3.000400	3.285200	-9.855900	26.560320	0.000455	20.728325
1935.516810	-2.997200	3.283100	-9.839400	26.538110	0.000455	20.710739
1936.516120	-3.000600	3.282400	-9.847100	26.521771	0.000454	20.703798
1937.517054	-3.004700	3.281900	-9.859100	26.589199	0.000453	20.701877
1938.518065	-2.998200	3.282300	-9.839800	26.597795	0.000453	20.711467
1939.522473	-2.983800	3.282800	-9.794300	26.617085	0.000452	20.716634
1940.517817	-3.026100	3.280500	-9.926400	26.628185	0.000451	20.736329
1941.521813	-3.014500	3.280700	-9.888100	26.608603	0.000452	20.728971
1942.518661	-3.014600	3.280800	-9.888000	26.564834	0.000453	20.711998
1943.516959	-2.997100	3.281400	-9.833500	26.589215	0.000452	20.700944
1944.518534	-3.022600	3.279100	-9.909800	26.614474	0.000449	20.737718
1945.520685	-3.020300	3.277800	-9.899000	26.637659	0.000448	20.714557
1946.518857	-3.009500	3.279400	-9.868500	26.678245	0.000447	20.716478
1947.520171	-2.990800	3.279800	-9.808500	26.690686	0.000448	20.724245
1948.519737	-3.005600	3.276800	-9.847500	26.711739	0.000448	20.725021
1949.526215	-3.000800	3.278700	-9.837400	26.708218	0.000447	20.720059
1950.522050	-2.993700	3.277800	-9.811900	26.732173	0.000446	20.716641
1951.520060	-2.995600	3.278100	-9.818800	26.743516	0.000446	20.744168
1952.523942	-2.982100	3.276700	-9.770100	26.744761	0.000445	20.712226
1953.519641	-2.994600	3.277100	-9.812300	26.742085	0.000443	20.721391
1954.520427	-2.979000	3.276700	-9.759900	26.715797	0.000443	20.740955
1955.524958	-3.004800	3.274200	-9.836500	26.701932	0.000443	20.705203
1956.522431	-3.002500	3.276200	-9.835700	26.687824	0.000441	20.712831
1957.520740	-2.985900	3.275100	-9.778100	26.645424	0.000441	20.739435
1958.521797	-2.992800	3.274300	-9.798300	26.590963	0.000441	20.724988
1959.521521	-3.000600	3.274900	-9.825500	26.584660	0.000438	20.735249
1960.522977	-2.994500	3.275400	-9.807700	26.581009	0.000441	20.725888
1961.527411	-2.990900	3.274000	-9.791300	26.584017	0.000438	20.733180
1962.522954	-2.991600	3.274100	-9.793700	26.597574	0.000436	20.720255
1963.523998	-2.990700	3.272000	-9.784400	26.642570	0.000439	20.742729
1964.524414	-2.994000	3.273800	-9.801000	26.687604	0.000436	20.730629
1965.524146	-2.991300	3.272300	-9.787100	26.707071	0.000436	20.741666
1966.526167	-3.027800	3.270700	-9.901500	26.735312	0.000435	20.754412
1967.524490	-3.009500	3.271500	-9.844700	26.736328	0.000435	20.752589
1968.524130	-2.979400	3.272200	-9.748800	26.744622	0.000433	20.720623
1969.525175	-2.979900	3.271000	-9.746300	26.729425	0.000434	20.749441
1970.525023	-3.018600	3.268000	-9.864100	26.774407	0.000432	20.735870
1971.526695	-3.009000	3.269100	-9.836100	26.808776	0.000432	20.727752
1972.527954	-3.014900	3.269200	-9.855000	26.846250	0.000433	20.751207
1973.526048	-3.014100	3.269600	-9.853900	26.851364	0.000430	20.745918
1974.539102	-2.972200	3.269800	-9.717700	26.855885	0.000431	20.744773
1975.530583	-2.998200	3.269400	-9.801700	26.871072	0.000431	20.743449
1976.545589	-3.008600	3.268100	-9.831700	26.907374	0.000430	20.759563
1977.530584	-2.999500	3.268700	-9.803900	26.921381	0.000428	20.722912
1978.526625	-2.986400	3.268800	-9.761100	26.897496	0.000429	20.753423
1979.529641	-2.998500	3.266900	-9.794000	26.907471	0.000426	20.757290
1980.528795	-3.006300	3.265300	-9.815700	26.881723	0.000427	20.741830
1981.528306	-3.021000	3.266600	-9.867400	26.839876	0.000425	20.752859
1982.532141	-3.004700	3.267000	-9.814900	26.820460	0.000426	20.746139
1983.528770	-3.002400	3.266100	-9.805100	26.830786	0.000425	20.779755
1984.530857	-3.002200	3.265100	-9.801700	26.868462	0.000425	20.765007
1985.528953	-2.984400	3.266200	-9.746900	26.892536	0.000426	20.757445
1986.528537	-3.004000	3.265400	-9.808200	26.889357	0.000424	20.766577
1987.528255	-2.985700	3.263700	-9.744000	26.896455	0.000423	20.752376
1988.531945	-3.002600	3.263800	-9.798000	26.907747	0.000420	20.763258
1989.528715	-2.989700	3.263200	-9.754900	26.887040	0.000423	20.748600
1990.528717	-3.021100	3.262100	-9.853700	26.880447	0.000420	20.767100
1991.532754	-3.001000	3.262400	-9.788400	26.931747	0.000419	20.732862
1992.531812	-3.000100	3.262700	-9.786800	26.953901	0.000421	20.767468
1993.533201	-2.985200	3.263300	-9.740900	26.971957	0.000418	20.767133
1994.530899	-3.023800	3.259700	-9.855900	26.994142	0.000418	20.758149
1995.536174	-3.014000	3.260400	-9.825900	27.026960	0.000418	20.759857
1996.533106	-3.027900	3.259900	-9.869200	27.009132	0.000417	20.768956
1997.533970	-3.017700	3.259900	-9.836000	27.003572	0.000415	20.764313
1998.541410	-3.014800	3.260600	-9.829500	26.985549	0.000415	20.758042
1999.535448	-3.003400	3.260900	-9.793200	27.012262	0.000416	20.761198
2000.533134	-2.992500	3.258700	-9.751000	26.973567	0.000414	20.778709
2001.535390	-2.994500	3.259000	-9.757600	26.945649	0.000415	20.754903
2002.537307	-3.006900	3.258300	-9.796800	26.905236	0.000412	20.766422
2003.537662	-3.000500	3.258200	-9.775200	26.908390	0.000413	20.760585
2004.540082	-3.013900	3.257700	-9.817500	26.911911	0.000411	20.785462
2005.538149	-2.999800	3.256700	-9.768000	26.909529	0.000412	20.772161
2006.537639	-3.004400	3.258600	-9.789200	26.901830	0.000410	20.779593
2007.537467	-2.995100	3.258500	-9.758700	26.970697	0.000410	20.779143
2008.539596	-3.007900	3.257000	-9.795900	26.975217	0.000409	20.766144
2009.541475	-2.984900	3.257200	-9.720900	27.001069	0.000410	20.779813
2010.537398	-3.015100	3.255600	-9.814600	27.030740	0.000407	20.806334
2011.540980	-2.996200	3.256200	-9.755800	27.026570	0.000408	20.775587
2012.540962	-2.984100	3.255500	-9.712700	27.001142	0.000408	20.789370
2013.540328	-3.004700	3.253800	-9.774600	26.983932	0.000406	20.785814
2014.541317	-3.003700	3.255100	-9.775300	26.932545	0.000406	20.769701
2015.545146	-3.022100	3.252600	-9.827400	26.923708	0.000406	20.773143
2016.542090	-2.989100	3.253900	-9.725700	26.871512	0.000405	20.762858
2017.542855	-2.988800	3.253200	-9.722100	26.878261	0.000402	20.795723
2018.543198	-3.001400	3.251700	-9.758400	26.902798	0.000403	20.777247
2019.542579	-3.013100	3.250900	-9.794700	26.929334	0.000403	20.777852
2020.544240	-3.008000	3.251400	-9.779300	26.979038	0.000401	20.774255
2021.542646	-3.000700	3.251200	-9.754900	26.990989	0.000400	20.777738
2022.547654	-2.997000	3.251800	-9.745000	27.001321	0.000399	20.772481
2023.544400	-3.010200	3.250400	-9.782800	27.000557	0.000399	20.772660
2024.543491	-2.995100	3.250000	-9.733400	26.997468	0.000398	20.779512
2025.544622	-2.982900	3.251200	-9.696900	26.964584	0.000397	20.804290
2026.543128	-2.997800	3.251500	-9.746500	26.956569	0.000396	20.785798
2027.544047	-2.986700	3.248900	-9.702600	26.941455	0.000397	20.797628
2028.549076	-3.029000	3.248400	-9.839000	26.886473	0.000397	20.804454
2029.543881	-3.013600	3.248200	-9.787700	26.887725	0.000394	20.795281
2030.543753	-3.023500	3.247400	-9.817400	26.898717	0.000395	20.796851
2031.546538	-3.014200	3.246900	-9.786100	26.904221	0.000392	20.805231
2032.544071	-3.006700	3.246700	-9.761100	26.930635	0.000394	20.790066
2033.545270	-3.006800	3.247200	-9.762000	26.986567	0.000392	20.798895
2034.544552	-3.012500	3.244900	-9.774600	27.018141	0.000391	20.794611
2035.546985	-2.991100	3.245800	-9.707400	27.031456	0.000391	20.822226
2036.549446	-3.029500	3.245400	-9.830400	27.018832	0.000389	20.785349
2037.544348	-3.009900	3.244600	-9.764300	27.029026	0.000389	20.799868
2038.546994	-2.993900	3.243900	-9.709400	27.080043	0.000388	20.824147
2039.545390	-3.010100	3.242800	-9.760300	27.090667	0.000387	20.806857
2040.545147	-2.998100	3.244200	-9.725500	27.115744	0.000387	20.787033
2041.548463	-3.010900	3.244000	-9.766500	27.134886	0.000388	20.811501
2042.549012	-2.995700	3.242800	-9.713500	27.155824	0.000386	20.803162
2043.548440	-2.981900	3.242300	-9.667700	27.138804	0.000385	20.823027
2044.546710	-2.996500	3.242600	-9.713800	27.114403	0.000385	20.799435
2045.547574	-3.003700	3.240900	-9.734700	27.121108	0.000385	20.821826
2046.546927	-3.008900	3.241600	-9.752600	27.128993	0.000381	20.800833
2047.548237	-3.028600	3.239600	-9.810600	27.150785	0.000384	20.806629
2048.547278	-3.002600	3.240700	-9.729900	27.153638	0.000381	20.814714
2049.550215	-3.020900	3.239800	-9.786100	27.208298	0.000382	20.834603
2050.549369	-2.996100	3.240200	-9.706600	27.221815	0.000381	20.804103
2051.549569	-3.003400	3.238600	-9.726100	27.244125	0.000381	20.805680
2052.552200	-2.986500	3.237900	-9.667700	27.243116	0.000380	20.823158
2053.548604	-3.005500	3.237800	-9.730200	27.231177	0.000376	20.820158
2054.550435	-3.011300	3.238900	-9.752200	27.212475	0.000377	20.824106
2055.548838	-2.994400	3.238600	-9.695900	27.231974	0.000377	20.801519
2056.551450	-2.988300	3.237300	-9.672500	27.209151	0.000375	20.810332
2057.549815	-2.982900	3.237100	-9.653000	27.187263	0.000376	20.817714
2058.551984	-2.998900	3.236800	-9.706300	27.189645	0.000373	20.834333
2059.549553	-3.018700	3.236300	-9.768900	27.193587	0.000374	20.826445
2060.552769	-3.005300	3.234700	-9.720900	27.243336	0.000374	20.821008
2061.550917	-2.999400	3.236300	-9.705300	27.225667	0.000373	20.810822
2062.551142	-2.993300	3.234500	-9.680500	27.201934	0.000371	20.818719
2063.555445	-3.011200	3.234000	-9.737100	27.188856	0.000371	20.826428
2064.552452	-3.011100	3.234500	-9.737800	27.207859	0.000372	20.822308
2065.554317	-3.003000	3.234200	-9.711300	27.209037	0.000370	20.836295
2066.553757	-3.001300	3.235100	-9.708100	27.185361	0.000370	20.829077
2067.554872	-3.028100	3.230800	-9.782200	27.122563	0.000368	20.822340
2068.559972	-3.015300	3.232500	-9.745100	27.103290	0.000368	20.826665
2069.556983	-3.002400	3.234100	-9.708200	27.065443	0.000366	20.814206
2070.554721	-2.981900	3.233200	-9.639500	27.041073	0.000365	20.842328
2071.553777	-2.996400	3.233100	-9.684900	26.989720	0.000366	20.852799
2072.552681	-3.012900	3.231300	-9.733800	27.014035	0.000367	20.843112
2073.553694	-3.010800	3.230600	-9.725600	27.050193	0.000364	20.811198
2074.555514	-3.012200	3.230700	-9.731000	27.090252	0.000363	20.827302
2075.553735	-3.007400	3.229600	-9.711800	27.122977	0.000363	20.827973
2076.557367	-3.018800	3.229100	-9.746300	27.147126	0.000361	20.817648
2077.555151	-3.005100	3.229800	-9.705300	27.147346	0.000363	20.826403
2078.556372	-3.031000	3.227500	-9.781400	27.161586	0.000360	20.813225
2079.556401	-3.002400	3.227700	-9.689800	27.195634	0.000359	20.814754
2080.555220	-2.963800	3.228100	-9.567000	27.201722	0.000358	20.801436
2081.560606	-2.996200	3.226700	-9.667000	27.191343	0.000359	20.809963
2082.556166	-2.997000	3.226800	-9.669300	27.237199	0.000358	20.811042
2083.556660	-2.991900	3.227600	-9.655700	27.197203	0.000357	20.837668
2084.560265	-2.985100	3.226900	-9.632100	27.184401	0.000356	20.827637
2085.557843	-3.007400	3.224400	-9.696200	27.205745	0.000355	20.815440
2086.560057	-2.981600	3.224500	-9.612200	27.235370	0.000353	20.806358
2087.559754	-2.991000	3.225400	-9.646300	27.294667	0.000354	20.827122
2088.560543	-2.996400	3.225000	-9.662000	27.306427	0.000354	20.802442
2089.560936	-3.003900	3.224900	-9.686200	27.322932	0.000352	20.815252
2090.563324	-3.010200	3.224100	-9.703300	27.376016	0.000352	20.808908
2091.561200	-3.005700	3.223800	-9.688500	27.317845	0.000350	20.803022
2092.560718	-3.010100	3.222700	-9.700300	27.256152	0.000351	20.805924
2093.560861	-2.989200	3.223400	-9.634000	27.219830	0.000349	20.794994
2094.559794	-2.996100	3.221600	-9.650700	27.175427	0.000350	20.793007
2095.563412	-3.019400	3.219700	-9.721200	27.134112	0.000348	20.810248
2096.561860	-3.020200	3.220000	-9.722400	27.081464	0.000349	20.790489
2097.564068	-2.998400	3.221100	-9.656300	27.042535	0.000346	20.784055
2098.562321	-2.980800	3.222200	-9.602200	26.995483	0.000345	20.796007
2099.563334	-3.012200	3.219400	-9.696200	27.007961	0.000346	20.813298
2100.567412	-3.011500	3.219100	-9.693800	27.037795	0.000345	20.809635
2101.567519	-2.996200	3.218200	-9.641400	27.101330	0.000344	20.801934
2102.567143	-3.010700	3.218100	-9.687000	27.171322	0.000345	20.784137
2103.565299	-2.998700	3.219100	-9.652500	27.225210	0.000343	20.798509
2104.565585	-3.000500	3.216600	-9.650400	27.304914	0.000341	20.791911
2105.565588	-2.999500	3.216200	-9.645500	27.288530	0.000341	20.775905
2106.568435	-2.994400	3.216100	-9.627800	27.291139	0.000340	20.768571
2107.563918	-3.007400	3.215300	-9.667500	27.320014	0.000338	20.798092
2108.565201	-2.980500	3.217000	-9.585700	27.311684	0.000340	20.777384
2109.564531	-2.992300	3.215200	-9.619900	27.292756	0.000338	20.783949
2110.564863	-3.013800	3.214500	-9.686700	27.324540	0.000337	20.796007
2111.566396	-2.979600	3.215400	-9.579800	27.329628	0.000338	20.786426
2112.565496	-3.000800	3.215500	-9.647800	27.341428	0.000336	20.781226
2113.564698	-2.984700	3.214500	-9.592300	27.374779	0.000335	20.793914
2114.563795	-2.985900	3.212900	-9.592200	27.382077	0.000334	20.792246
2115.565581	-3.035000	3.213100	-9.751500	27.400979	0.000333	20.787554
2116.569675	-2.978400	3.212600	-9.567300	27.432029	0.000333	20.769479
2117.566181	-3.008200	3.212100	-9.661900	27.397777	0.000333	20.777695
2118.564478	-3.009600	3.212100	-9.666200	27.362500	0.000331	20.790096
2119.565522	-3.009200	3.210900	-9.661400	27.331993	0.000331	20.767942
2120.566338	-3.017600	3.209900	-9.685700	27.326369	0.000332	20.787889
2121.566045	-2.988500	3.211600	-9.597500	27.381532	0.000329	20.745705
2122.567256	-3.000000	3.209300	-9.626500	27.384287	0.000330	20.764598
2123.568054	-2.993600	3.209800	-9.607900	27.358071	0.000329	20.782796
2124.569502	-3.003200	3.209500	-9.636500	27.385067	0.000329	20.775340
2125.567154	-2.997500	3.209400	-9.619600	27.337413	0.000327	20.781455
2126.569741	-3.016000	3.209600	-9.678600	27.347791	0.000328	20.790472
2127.572963	-2.994800	3.207200	-9.603400	27.352106	0.000325	20.770157
2128.570342	-2.981800	3.207200	-9.561900	27.367408	0.000326	20.786499
2129.571756	-3.015100	3.205800	-9.665300	27.370488	0.000325	20.779640
2130.570992	-2.989000	3.207300	-9.585800	27.403262	0.000324	20.768039
2131.571714	-3.031500	3.207000	-9.720700	27.411250	0.000323	20.771334
2132.573894	-3.009400	3.205900	-9.646600	27.412972	0.000321	20.766429
2133.574863	-2.985200	3.206400	-9.570700	27.419993	0.000321	20.769225
2134.572364	-2.998400	3.205400	-9.610300	27.450921	0.000322	20.761458
2135.572977	-3.002700	3.205100	-9.623200	27.474112	0.000321	20.775781
2136.572511	-3.014100	3.204000	-9.656200	27.502413	0.000320	20.776280
2137.574854	-2.996700	3.203200	-9.597800	27.489721	0.000321	20.763510
2138.577144	-2.966500	3.203400	-9.501600	27.520655	0.000319	20.773770
2139.573844	-2.998500	3.201200	-9.597300	27.537474	0.000316	20.770304
2140.577072	-2.977000	3.202500	-9.532400	27.525238	0.000317	20.797821
2141.573501	-2.990200	3.200800	-9.569800	27.484041	0.000316	20.754950
2142.580531	-3.029200	3.200500	-9.694000	27.444103	0.000317	20.783049
2143.575819	-2.999500	3.200200	-9.598000	27.427884	0.000316	20.764834
2144.574132	-3.019100	3.198000	-9.653700	27.393900	0.000317	20.756250
2145.575909	-2.993700	3.198400	-9.574200	27.392616	0.000313	20.778193
2146.575984	-3.016800	3.198200	-9.647200	27.372568	0.000312	20.764188
2147.577895	-2.977700	3.198200	-9.522700	27.360013	0.000312	20.768154
2148.582088	-3.023100	3.197300	-9.665300	27.317989	0.000312	20.743423
2149.582264	-2.998500	3.198400	-9.589700	27.340102	0.000310	20.766616
2150.580700	-3.001400	3.198600	-9.598700	27.375705	0.000309	20.755016
2151.583329	-2.960000	3.197500	-9.463300	27.427819	0.000308	20.759553
2152.579473	-3.014000	3.195700	-9.631300	27.475647	0.000308	20.737022
2153.576988	-3.019600	3.195900	-9.649200	27.503331	0.000308	20.741166
2154.581955	-3.016700	3.196500	-9.641700	27.535800	0.000306	20.755817
2155.580368	-3.011500	3.194000	-9.617600	27.550117	0.000308	20.758367
2156.582500	-2.999400	3.194700	-9.581100	27.569617	0.000304	20.767556
2157.581076	-2.984700	3.194200	-9.532100	27.595235	0.000306	20.754451
2158.580815	-3.001200	3.192600	-9.580300	27.548540	0.000306	20.759152
2159.581632	-3.003100	3.191900	-9.583900	27.520468	0.000304	20.747502
2160.585699	-2.997200	3.192000	-9.566900	27.500317	0.000304	20.761368
2161.582718	-3.020600	3.191500	-9.638300	27.524262	0.000305	20.771709
2162.581840	-3.039800	3.189500	-9.694700	27.555520	0.000301	20.750053
2163.582798	-2.979000	3.190700	-9.504100	27.552050	0.000303	20.742769
2164.581414	-3.025200	3.189500	-9.647700	27.606073	0.000301	20.743071
2165.584767	-2.997200	3.190100	-9.561100	27.631649	0.000300	20.770704
2166.583694	-2.998800	3.191900	-9.570800	27.699048	0.000300	20.759814
2167.584489	-2.996400	3.188500	-9.552900	27.702801	0.000299	20.771178
2168.584244	-3.005100	3.189800	-9.584700	27.704539	0.000299	20.749219
2169.584277	-3.008200	3.186800	-9.584100	27.699705	0.000296	20.725861
2170.584726	-3.008300	3.187200	-9.586700	27.675829	0.000297	20.750674
2171.586068	-2.970600	3.187100	-9.466800	27.625360	0.000297	20.751573
2172.584525	-2.978600	3.187900	-9.494600	27.586199	0.000295	20.750576
2173.584779	-3.010000	3.185000	-9.585800	27.561768	0.000295	20.740218
2174.585772	-2.992200	3.185400	-9.530400	27.562149	0.000293	20.750085
2175.594624	-2.995300	3.185100	-9.538200	27.548507	0.000293	20.757697
2176.586109	-3.000500	3.185500	-9.557600	27.606869	0.000295	20.744820
2177.587186	-3.020600	3.182200	-9.610300	27.625141	0.000294	20.725273
2178.589619	-3.017600	3.182400	-9.601800	27.647248	0.000294	20.729499
2179.585080	-2.984700	3.183700	-9.501200	27.613125	0.000291	20.753960
2180.586956	-3.018200	3.182700	-9.604800	27.572769	0.000290	20.744174
2181.588722	-3.004200	3.181400	-9.556400	27.602018	0.000289	20.742785
2182.586359	-2.984600	3.181100	-9.493400	27.639342	0.000291	20.729606
2183.591258	-3.023400	3.181100	-9.616600	27.647930	0.000289	20.725918
2184.592419	-3.013900	3.180100	-9.583500	27.611296	0.000286	20.754018
2185.586348	-3.012500	3.179800	-9.578400	27.616163	0.000287	20.730938
2186.587926	-3.016200	3.179500	-9.589200	27.597688	0.000287	20.754549
2187.594349	-2.988500	3.178300	-9.497700	27.605723	0.000286	20.739874
2188.587858	-3.001100	3.178000	-9.536600	27.625271	0.000286	20.725878
2189.588703	-3.016100	3.178800	-9.586300	27.662204	0.000285	20.721316
2190.588908	-3.014700	3.177000	-9.576100	27.653690	0.000284	20.742147
2191.589825	-3.015100	3.176500	-9.576700	27.650773	0.000284	20.738738
2192.593876	-3.015600	3.176200	-9.576500	27.656030	0.000283	20.720792
2193.591726	-2.993200	3.175500	-9.504500	27.622915	0.000282	20.751009
2194.596307	-2.988800	3.175000	-9.488400	27.636141	0.000282	20.724962
2195.595127	-2.994900	3.174000	-9.504700	27.650253	0.000280	20.729679
2196.594467	-2.971500	3.175600	-9.434800	27.682840	0.000281	20.743030
2197.594220	-2.985300	3.174300	-9.475700	27.736579	0.000280	20.723139
2198.593524	-2.998400	3.172900	-9.512900	27.741673	0.000279	20.723523
2199.593816	-3.009500	3.172700	-9.546900	27.743533	0.000279	20.736301
2200.594698	-2.999700	3.174600	-9.521600	27.771494	0.000278	20.722714
2201.595140	-3.036700	3.171500	-9.629800	27.808447	0.000278	20.727186
2202.594453	-3.022100	3.169600	-9.577500	27.824539	0.000277	20.729630
2203.598508	-3.000400	3.170800	-9.512100	27.838259	0.000279	20.723523
2204.596935	-2.998400	3.170300	-9.503600	27.825636	0.000274	20.750175
2205.595583	-2.977300	3.173200	-9.446400	27.789081	0.000275	20.735198
2206.596262	-2.998000	3.171900	-9.507600	27.749163	0.000273	20.705455
2207.595407	-3.005400	3.169100	-9.523500	27.721891	0.000272	20.746292
2208.598935	-3.020600	3.167900	-9.568300	27.672514	0.000271	20.717939
2209.594899	-2.984100	3.167300	-9.450700	27.673489	0.000272	20.708488
2210.597095	-2.969100	3.167600	-9.402800	27.617438	0.000272	20.716574
2211.595254	-2.990100	3.166900	-9.468100	27.619518	0.000271	20.722934
2212.596938	-2.990100	3.167700	-9.470500	27.611548	0.000269	20.723449
2213.597121	-3.005400	3.167300	-9.518000	27.617471	0.000270	20.717555
2214.598545	-2.978300	3.166500	-9.429800	27.575108	0.000270	20.730407
2215.598053	-2.989500	3.165400	-9.461700	27.551903	0.000269	20.715592
2216.598248	-2.994500	3.163300	-9.470600	27.520824	0.000267	20.719410
2217.598124	-3.050300	3.160900	-9.639500	27.557063	0.000268	20.724577
2218.597168	-3.012100	3.163300	-9.527100	27.608063	0.000265	20.704294
2219.600121	-2.997200	3.162600	-9.478300	27.645314	0.000265	20.722337
2220.598062	-2.995100	3.162300	-9.469500	27.684399	0.000266	20.716148
2221.597836	-2.976600	3.162300	-9.411600	27.743622	0.000265	20.719795
2222.597414	-3.010000	3.158800	-9.506600	27.791088	0.000264	20.725836
2223.598958	-3.073100	3.156900	-9.699400	27.833214	0.000261	20.712281
2224.599583	-3.006600	3.160200	-9.500700	27.854813	0.000262	20.715527
2225.601196	-3.007600	3.159400	-9.501400	27.846633	0.000263	20.710139
2226.599339	-3.006200	3.157700	-9.492100	27.801875	0.000261	20.735271
2227.599821	-3.010300	3.156800	-9.502000	27.756921	0.000261	20.721324
2228.602485	-2.996100	3.157500	-9.459300	27.729983	0.000259	20.708439
2229.602299	-3.000000	3.156800	-9.468700	27.737253	0.000259	20.717178
2230.604654	-3.026300	3.154900	-9.547300	27.776774	0.000259	20.710008
2231.603281	-3.016500	3.154400	-9.514200	27.780925	0.000258	20.712289
2232.604714	-2.975400	3.154400	-9.383800	27.816822	0.000256	20.720441
2233.603627	-3.012900	3.154100	-9.501700	27.842921	0.000258	20.712567
2234.604143	-3.011800	3.151500	-9.489700	27.845667	0.000257	20.689250
2235.606905	-2.995300	3.152200	-9.440800	27.832377	0.000255	20.714758
2236.603858	-2.977100	3.153200	-9.386600	27.793809	0.000256	20.700124
2237.607959	-3.016300	3.152300	-9.507400	27.792964	0.000255	20.713499
2238.606186	-3.036500	3.151400	-9.567500	27.781884	0.000255	20.721315
2239.606150	-2.981800	3.151600	-9.395800	27.810356	0.000255	20.715830
2240.608339	-2.970200	3.153200	-9.364200	27.795718	0.000254	20.720539
2241.611037	-3.009400	3.150200	-9.479400	27.761202	0.000252	20.717097
2242.606347	-2.992600	3.148100	-9.419700	27.708853	0.000252	20.714677
2243.604861	-3.009000	3.147700	-9.469100	27.689834	0.000253	20.725885
2244.606483	-3.012100	3.147100	-9.478100	27.652065	0.000250	20.713957
2245.605132	-3.010100	3.146600	-9.470500	27.694473	0.000251	20.707319
2246.609220	-3.006300	3.147200	-9.460300	27.716318	0.000249	20.710810
2247.605688	-3.021100	3.145000	-9.500300	27.716643	0.000249	20.688375
2248.608312	-3.015300	3.144700	-9.481700	27.741941	0.000247	20.711464
2249.610976	-3.001000	3.142900	-9.431100	27.734394	0.000249	20.691065
2250.610270	-3.007200	3.143000	-9.449800	27.710567	0.000247	20.704547
2251.611089	-3.024600	3.141600	-9.501800	27.716741	0.000247	20.699854
2252.608589	-2.987600	3.142600	-9.388400	27.746279	0.000245	20.709191
2253.608810	-3.009900	3.141500	-9.453900	27.772087	0.000245	20.701023
2254.608510	-3.004900	3.140700	-9.436000	27.789975	0.000246	20.702904
2255.608010	-2.980600	3.140400	-9.358200	27.816229	0.000245	20.702773
2256.608847	-3.012300	3.137900	-9.450600	27.811761	0.000246	20.702544
2257.611537	-2.980200	3.139000	-9.354200	27.818057	0.000244	20.681851
2258.606845	-3.012000	3.138700	-9.453000	27.811388	0.000242	20.712600
2259.610095	-2.999800	3.136600	-9.406500	27.808187	0.000244	20.686618
2260.608238	-2.980000	3.136500	-9.345600	27.778700	0.000243	20.683969
2261.607942	-2.977200	3.136300	-9.335400	27.768383	0.000243	20.704408
2262.611915	-2.989900	3.135700	-9.375100	27.777546	0.000241	20.677117
2263.616992	-3.016700	3.135200	-9.457000	27.799276	0.000241	20.689978
2264.610129	-3.004500	3.134700	-9.416600	27.786880	0.000241	20.705953
2265.608826	-2.983100	3.133400	-9.345900	27.742509	0.000240	20.699707
2266.608380	-2.980900	3.134600	-9.342900	27.729487	0.000237	20.695611
2267.614008	-3.010000	3.133000	-9.429400	27.762298	0.000238	20.709665
2268.610641	-3.019500	3.130700	-9.452200	27.749894	0.000239	20.701923
2269.609711	-2.993000	3.131100	-9.369800	27.745336	0.000239	20.692120
2270.609846	-2.997800	3.130500	-9.383200	27.753907	0.000237	20.697426
2271.611576	-2.975500	3.130200	-9.312500	27.759049	0.000236	20.722517
2272.610982	-3.000900	3.128200	-9.386800	27.778886	0.000237	20.697434
2273.611104	-2.997300	3.128800	-9.377300	27.795182	0.000236	20.673054
2274.610310	-2.987700	3.127000	-9.342000	27.800754	0.000235	20.703795
2275.612645	-2.991800	3.127200	-9.354900	27.814003	0.000236	20.685833
2276.611810	-2.994900	3.126400	-9.362200	27.804304	0.000235	20.686977
2277.611493	-3.008600	3.123600	-9.396800	27.818633	0.000234	20.688596
2278.613069	-2.987300	3.123600	-9.329700	27.793200	0.000235	20.697140
2279.614337	-2.997800	3.124600	-9.364900	27.773761	0.000234	20.696069
2280.613861	-3.000400	3.123400	-9.370300	27.709478	0.000233	20.684958
2281.614182	-3.013100	3.121300	-9.403900	27.722200	0.000233	20.694916
2282.614529	-2.978100	3.121400	-9.294300	27.700461	0.000233	20.684893
2283.616753	-2.997800	3.122200	-9.356300	27.760292	0.000232	20.682513
2284.614431	-2.989800	3.121200	-9.330800	27.801680	0.000231	20.698088
2285.617794	-3.003000	3.119700	-9.367200	27.862091	0.000231	20.684917
2286.613687	-2.980500	3.119100	-9.295300	27.870798	0.000232	20.691785
2287.614100	-3.003900	3.116600	-9.361300	27.861473	0.000229	20.692357
2288.615926	-3.016800	3.114500	-9.394100	27.884534	0.000228	20.671942
2289.616334	-2.986700	3.116000	-9.305300	27.926258	0.000230	20.687860
2290.615463	-2.999500	3.115900	-9.345100	27.939018	0.000229	20.691695
2291.616282	-3.016000	3.116100	-9.397300	27.940675	0.000228	20.677240
2292.617890	-2.985700	3.115300	-9.300300	27.977842	0.000226	20.668655
2293.617091	-3.002400	3.114300	-9.348600	27.992916	0.000226	20.678613
2294.618162	-2.985900	3.112800	-9.293200	28.005342	0.000226	20.679742
2295.617550	-2.978800	3.112200	-9.269200	28.041466	0.000226	20.689079
2296.620026	-3.003000	3.111400	-9.341600	28.062638	0.000226	20.691425
2297.618727	-2.995300	3.110300	-9.315400	28.079944	0.000228	20.689406
2298.619182	-3.001300	3.110000	-9.333500	28.029073	0.000227	20.683715
2299.624359	-3.005000	3.110600	-9.345800	28.026125	0.000225	20.689283
2300.620287	-3.001700	3.108100	-9.328600	28.044942	0.000225	20.678352
2301.622555	-3.000700	3.108400	-9.326900	28.044479	0.000224	20.685947
2302.627982	-2.984200	3.106200	-9.268800	28.051910	0.000225	20.694376
2303.621476	-2.977400	3.106400	-9.247700	28.031810	0.000224	20.697377
2304.622055	-3.007500	3.105100	-9.337600	28.054590	0.000224	20.690436
2305.625807	-3.032000	3.104100	-9.410300	28.049368	0.000222	20.688972
2306.623642	-3.028900	3.101600	-9.393400	28.066496	0.000223	20.697679
2307.623343	-3.014500	3.101300	-9.348000	28.096617	0.000222	20.678687
2308.624101	-3.003300	3.101200	-9.312600	28.112737	0.000222	20.681639
2309.625070	-2.980000	3.101000	-9.238900	28.100734	0.000221	20.683306
2310.627557	-3.006200	3.099000	-9.315100	28.122352	0.000221	20.692741
2311.624383	-2.993800	3.098100	-9.273900	28.082665	0.000221	20.690722
2312.626519	-3.005000	3.096800	-9.304600	28.033507	0.000222	20.686282
2313.624018	-3.003100	3.097500	-9.301700	27.986304	0.000222	20.689978
2314.629646	-3.001700	3.096400	-9.294300	27.946442	0.000220	20.682571
2315.625699	-3.014600	3.095900	-9.331500	27.936249	0.000222	20.678000
2316.625003	-3.014400	3.095100	-9.328800	27.967194	0.000220	20.678801
2317.623536	-3.002300	3.095200	-9.291900	28.000964	0.000220	20.666325
2318.622763	-2.992100	3.093000	-9.253900	27.975007	0.000219	20.672915
2319.623458	-3.011000	3.093500	-9.314100	27.979149	0.000221	20.705536
2320.624380	-3.002400	3.092000	-9.283100	27.993054	0.000220	20.683020
2321.627007	-2.998400	3.089800	-9.263300	27.957358	0.000220	20.705888
2322.626759	-3.010700	3.090900	-9.303900	27.938474	0.000220	20.681663
2323.627595	-2.999100	3.089500	-9.264000	27.906359	0.000220	20.672097
2324.636946	-3.023000	3.087800	-9.333800	27.964578	0.000220	20.679962
2325.627197	-3.022600	3.086200	-9.327300	27.995003	0.000218	20.680715
2326.629817	-3.005100	3.086300	-9.273700	28.023956	0.000218	20.698955
2327.627264	-2.978000	3.085700	-9.187200	28.057798	0.000217	20.682284
2328.628678	-2.987800	3.084200	-9.214300	28.052300	0.000218	20.696666
2329.627768	-2.989900	3.083400	-9.217900	28.051139	0.000219	20.685538
2330.627295	-2.998200	3.082700	-9.241600	28.063930	0.000216	20.685612
2331.629992	-3.004700	3.080800	-9.254700	28.065846	0.000217	20.681851
2332.632228	-2.995200	3.081000	-9.227600	28.106329	0.000215	20.695104
2333.628806	-2.991300	3.079800	-9.212400	28.125771	0.000216	20.687174
2334.627402	-3.010800	3.079100	-9.269300	28.163125	0.000215	20.672621
2335.627699	-2.990600	3.077700	-9.203700	28.174193	0.000214	20.691826
2336.628628	-3.003300	3.077600	-9.241900	28.175428	0.000214	20.710614
2337.629416	-2.974900	3.078000	-9.155700	28.116830	0.000213	20.696192
2338.634286	-2.973000	3.075400	-9.142500	28.098810	0.000212	20.697966
2339.635478	-3.003800	3.073300	-9.230700	28.082251	0.000214	20.679398
2340.627043	-2.994500	3.073900	-9.203500	28.093084	0.000212	20.691253
2341.627776	-2.999900	3.072100	-9.214600	28.115766	0.000211	20.704130
2342.630791	-3.011300	3.070600	-9.245500	28.138723	0.000212	20.704008
2343.628136	-2.986300	3.071600	-9.171700	28.116416	0.000213	20.681549
2344.627958	-3.009700	3.069800	-9.238200	28.059747	0.000211	20.710802
2345.627703	-3.018700	3.067500	-9.258800	28.075096	0.000214	20.719141
2346.628058	-2.996000	3.068000	-9.191100	28.123732	0.000211	20.683225
2347.630203	-3.004200	3.067600	-9.215000	28.137465	0.000212	20.704163
2348.628812	-3.006400	3.065300	-9.214300	28.156483	0.000212	20.716672
2349.629266	-2.996400	3.063200	-9.176600	28.183581	0.000210	20.714554
2350.628979	-2.987000	3.064400	-9.151400	28.193617	0.000210	20.703321
2351.629090	-2.989200	3.062600	-9.153300	28.156791	0.000210	20.690902
2352.629388	-2.993800	3.062000	-9.166400	28.077265	0.000209	20.717530
2353.631872	-2.969200	3.062000	-9.091000	28.059211	0.000211	20.712633
2354.629097	-2.990900	3.059200	-9.148600	28.039330	0.000210	20.711587
2355.629830	-2.994600	3.057600	-9.155100	28.015876	0.000210	20.722117
2356.630153	-3.010100	3.058400	-9.205100	28.037324	0.000209	20.696290
2357.630327	-2.991200	3.057200	-9.142400	28.026190	0.000211	20.706894
2358.632869	-3.029800	3.054700	-9.253500	27.993200	0.000210	20.692177
2359.631722	-2.996300	3.054500	-9.151100	27.961232	0.000210	20.691769
2360.631936	-2.961700	3.054200	-9.044600	28.021268	0.000209	20.695775
2361.646289	-2.977900	3.052600	-9.089400	28.038591	0.000209	20.687607
2362.631610	-3.000600	3.050900	-9.153900	28.035968	0.000209	20.723850
2363.632889	-3.015800	3.050200	-9.198000	28.089966	0.000208	20.716566
2364.634168	-3.015000	3.049500	-9.193300	28.132990	0.000208	20.699184
2365.632271	-2.990400	3.048700	-9.114900	28.152212	0.000206	20.710475
2366.631774	-3.008200	3.046700	-9.164000	28.191303	0.000207	20.693404
2367.631798	-3.006500	3.046000	-9.156700	28.228858	0.000205	20.700394
2368.632515	-3.010100	3.044600	-9.163500	28.257708	0.000209	20.690084
2369.632709	-3.014100	3.043800	-9.173300	28.303876	0.000208	20.711439
2370.631907	-3.025600	3.042000	-9.203300	28.306807	0.000205	20.705855
2371.637731	-2.979400	3.040500	-9.057700	28.322891	0.000210	20.707352
2372.634497	-2.933000	3.042800	-8.922700	28.277609	0.000206	20.716288
2373.634234	-2.959300	3.040300	-8.995600	28.297737	0.000206	20.713794
2374.635471	-2.996200	3.039100	-9.104400	28.278681	0.000205	20.700770
2375.634036	-3.002400	3.036700	-9.116800	28.317264	0.000205	20.719705
2376.636823	-3.015000	3.035600	-9.151200	28.294563	0.000207	20.726245
2377.635889	-3.016100	3.034100	-9.150400	28.277512	0.000205	20.709077
2378.636295	-2.993100	3.032900	-9.076900	28.247266	0.000203	20.723196
2379.635938	-3.007800	3.032000	-9.118600	28.251285	0.000206	20.698792
2380.637694	-2.978000	3.031000	-9.025500	28.271617	0.000205	20.717367
2381.635746	-3.019300	3.030400	-9.148600	28.319700	0.000205	20.726425
2382.637420	-3.008600	3.028500	-9.110400	28.312856	0.000205	20.727120
2383.635110	-3.002000	3.027800	-9.088200	28.320293	0.000204	20.717064
2384.636539	-2.978100	3.026500	-9.012200	28.263814	0.000205	20.722313
2385.639894	-3.002000	3.025400	-9.081300	28.235850	0.000204	20.715020
2386.636364	-3.019900	3.024100	-9.131100	28.182850	0.000204	20.717138
2387.640694	-2.994400	3.023500	-9.053300	28.192976	0.000204	20.719746
2388.637572	-2.989200	3.022500	-9.034400	28.231863	0.000205	20.714800
2389.636347	-2.982900	3.020300	-9.008300	28.259973	0.000203	20.728878
2390.639217	-2.992400	3.019400	-9.033800	28.245423	0.000204	20.731298
2391.639049	-3.022800	3.018000	-9.120500	28.245033	0.000204	20.734225
2392.642679	-3.002600	3.017600	-9.059400	28.271649	0.000203	20.727357
2393.639942	-2.996300	3.016900	-9.037900	28.306726	0.000203	20.742286
2394.640179	-3.003900	3.013700	-9.052200	28.318693	0.000202	20.729205
2395.639946	-3.004800	3.013500	-9.054100	28.317678	0.000203	20.738141
2396.643179	-3.007400	3.013400	-9.060900	28.295147	0.000203	20.728257
2397.640610	-3.000300	3.010700	-9.032500	28.343010	0.000204	20.737094
2398.641259	-3.006700	3.009100	-9.045800	28.374292	0.000204	20.735876
2399.640492	-3.009400	3.009900	-9.056200	28.400086	0.000201	20.716329
2400.641795	-2.988900	3.008200	-8.990100	28.431342	0.000203	20.725044
2401.646992	-3.022100	3.005600	-9.082000	28.394127	0.000202	20.719337
2402.643738	-2.995300	3.005400	-8.999800	28.375997	0.000202	20.714358
2403.648241	-2.976500	3.003900	-8.940400	28.356325	0.000199	20.743390
2404.643103	-3.003100	3.002200	-9.014500	28.273322	0.000200	20.713394
2405.643273	-3.020500	3.000100	-9.060700	28.268182	0.000203	20.747575
2406.645679	-2.978600	3.000100	-8.935100	28.230214	0.000202	20.732107
2407.646399	-2.998600	2.998900	-8.991400	28.231627	0.000200	20.744910
2408.643580	-3.018600	2.997300	-9.046800	28.270635	0.000202	20.743406
2409.642946	-3.008200	2.995800	-9.010600	28.272470	0.000201	20.739563
2410.643346	-2.989100	2.994700	-8.951000	28.346380	0.000202	20.734797
2411.645724	-2.971100	2.993500	-8.893100	28.333154	0.000203	20.740446
2412.643077	-3.019700	2.990500	-9.029400	28.292159	0.000200	20.746586
2413.645309	-3.013600	2.989600	-9.009300	28.293117	0.000202	20.745654
2414.642461	-2.999600	2.988200	-8.962600	28.242451	0.000202	20.748221
2415.642361	-3.010100	2.986500	-8.989200	28.193504	0.000201	20.747780
2416.645479	-2.987500	2.987300	-8.923600	28.229443	0.000200	20.733702
2417.643378	-3.002800	2.983600	-8.958100	28.273688	0.000203	20.736996
2418.641745	-2.993700	2.985700	-8.937200	28.250408	0.000200	20.751491
2419.644033	-3.032500	2.982400	-9.042900	28.219675	0.000200	20.747101
2420.645119	-3.030100	2.979400	-9.027000	28.175801	0.000200	20.734699
2421.643674	-2.989100	2.980400	-8.907700	28.186959	0.000199	20.769166
2422.646493	-3.008300	2.978100	-8.957800	28.223970	0.000201	20.744788
2423.645461	-3.027600	2.976300	-9.010100	28.249126	0.000202	20.746880
2424.648730	-3.008700	2.975500	-8.949800	28.284340	0.000201	20.773802
2425.643889	-2.984900	2.973300	-8.873700	28.301716	0.000200	20.733448
2426.643054	-2.968100	2.973700	-8.825000	28.323224	0.000203	20.756053
2427.646441	-2.991000	2.971000	-8.884800	28.312888	0.000200	20.734740
2428.644659	-2.987000	2.969500	-8.868800	28.301838	0.000200	20.747322
2429.651341	-2.975000	2.967900	-8.828800	28.305556	0.000200	20.740634
2430.644487	-3.006000	2.967900	-8.921100	28.346396	0.000199	20.755203
2431.644886	-2.965600	2.968000	-8.799200	28.380398	0.000199	20.755775
2432.645308	-3.011000	2.963800	-8.923600	28.429888	0.000200	20.770049
2433.645736	-2.989700	2.962300	-8.855300	28.483201	0.000201	20.740283
2434.647161	-2.987000	2.961900	-8.845900	28.480319	0.000200	20.766305
2435.647146	-2.995200	2.960000	-8.864300	28.556203	0.000201	20.764964
2436.647309	-2.999000	2.957800	-8.869700	28.576634	0.000200	20.757566
2437.653028	-2.985300	2.957700	-8.827800	28.594346	0.000201	20.760705
2438.653842	-3.016500	2.954400	-8.911300	28.595986	0.000199	20.759985
2439.648710	-3.031500	2.952100	-8.947300	28.572592	0.000199	20.767245
2440.649469	-3.014000	2.950700	-8.890800	28.518278	0.000200	20.758538
2441.649830	-2.967200	2.950900	-8.755400	28.484694	0.000198	20.756486
2442.651227	-2.982300	2.949700	-8.795200	28.508041	0.000199	20.768619
2443.652040	-2.974900	2.948300	-8.769500	28.503089	0.000198	20.761261
2444.650268	-3.011200	2.946000	-8.869800	28.517904	0.000200	20.763378
2445.651302	-3.021800	2.943500	-8.892700	28.547420	0.000200	20.768921
2446.650772	-3.042000	2.941100	-8.945200	28.558094	0.000200	20.763550
2447.656935	-3.013500	2.939100	-8.855500	28.549944	0.000200	20.760558
2448.653643	-2.993900	2.940300	-8.801600	28.583518	0.000199	20.760705
2449.652631	-2.996400	2.938600	-8.804500	28.572689	0.000200	20.773981
2450.652062	-2.982800	2.936100	-8.756800	28.562064	0.000203	20.779402
2451.652719	-3.029200	2.933800	-8.885500	28.590604	0.000199	20.770213
2452.653382	-3.007600	2.933500	-8.821700	28.613056	0.000201	20.767221
2453.652595	-3.040400	2.929100	-8.904000	28.656968	0.000200	20.760713
2454.654609	-2.999000	2.929100	-8.782300	28.713831	0.000200	20.790013
2455.654657	-3.004000	2.928000	-8.794700	28.715065	0.000201	20.773238
2456.653442	-3.015100	2.925800	-8.819900	28.694352	0.000198	20.769918
2457.651906	-2.997900	2.925500	-8.769500	28.713117	0.000199	20.789294
2458.652948	-2.998000	2.923700	-8.764400	28.739600	0.000201	20.781356
2459.657038	-2.990000	2.921500	-8.734200	28.682421	0.000201	20.763591
2460.652287	-2.963600	2.921000	-8.655000	28.640044	0.000200	20.765005
2461.656588	-2.990200	2.918000	-8.724600	28.622829	0.000199	20.776115
2462.653840	-3.004300	2.917900	-8.763400	28.616660	0.000198	20.772273
2463.655421	-3.015300	2.914000	-8.785000	28.655044	0.000199	20.789596
2464.655677	-3.013100	2.911900	-8.773900	28.703037	0.000200	20.771079
2465.658546	-3.033500	2.911400	-8.830800	28.733610	0.000197	20.784331
2466.655264	-3.002500	2.909100	-8.734000	28.751880	0.000197	20.775232
2467.656778	-2.972300	2.909000	-8.645900	28.734552	0.000200	20.804720
2468.656862	-3.019000	2.905900	-8.771400	28.678168	0.000198	20.797240
2469.656483	-2.980100	2.905100	-8.656500	28.602763	0.000199	20.779614
2470.666174	-2.993900	2.904400	-8.693900	28.576529	0.000198	20.776900
2471.656545	-3.005100	2.901700	-8.718300	28.564954	0.000199	20.771881
2472.663854	-3.021600	2.899500	-8.760100	28.541218	0.000197	20.791599
2473.657397	-3.018700	2.897700	-8.746100	28.523847	0.000198	20.796864
2474.657295	-2.980700	2.897600	-8.636100	28.553265	0.000197	20.782868
2475.658533	-2.992900	2.894300	-8.661200	28.574873	0.000197	20.789457
2476.658489	-2.978700	2.893500	-8.618200	28.601164	0.000198	20.786065
2477.657979	-3.010500	2.889500	-8.697900	28.635653	0.000198	20.785713
2478.658442	-3.021100	2.888300	-8.724800	28.622918	0.000197	20.779999
2479.658546	-2.995500	2.887200	-8.647300	28.652082	0.000200	20.795147
2480.659241	-2.991100	2.886000	-8.631200	28.657033	0.000198	20.807246
2481.664063	-2.990000	2.881800	-8.614600	28.671894	0.000200	20.793291
2482.659762	-2.999100	2.881900	-8.641900	28.621311	0.000199	20.793553
2483.661010	-2.999300	2.878800	-8.632100	28.601035	0.000198	20.797313
2484.659500	-3.007900	2.878300	-8.657000	28.585644	0.000199	20.799357
2485.659634	-3.019700	2.873800	-8.677100	28.559507	0.000198	20.778249
2486.661359	-3.029800	2.872300	-8.700800	28.525624	0.000198	20.817620
2487.659923	-2.981400	2.871900	-8.561500	28.516468	0.000198	20.807451
2488.661851	-3.017600	2.868100	-8.654300	28.571447	0.000198	20.798809
2489.661875	-2.994700	2.867100	-8.584900	28.613178	0.000199	20.805276
2490.660046	-3.024500	2.865800	-8.666000	28.658542	0.000198	20.799758
2491.662369	-3.010800	2.864300	-8.622800	28.694693	0.000198	20.800608
2492.661669	-2.991000	2.862100	-8.558800	28.704425	0.000200	20.799030
2493.663876	-3.024200	2.859000	-8.645600	28.689093	0.000199	20.794967
2494.661534	-3.013200	2.857500	-8.609300	28.719764	0.000197	20.796463
2495.660872	-3.000700	2.856600	-8.569900	28.751953	0.000198	20.812764
2496.660630	-3.008600	2.852800	-8.581900	28.784156	0.000197	20.797788
2497.665065	-3.007700	2.849700	-8.570200	28.800136	0.000198	20.795392
2498.663786	-2.991200	2.849100	-8.520300	28.781251	0.000198	20.808611
2499.677570	-3.004600	2.847400	-8.554200	28.818314	0.000198	20.810859
2500.662303	-3.020700	2.845300	-8.593200	28.798269	0.000199	20.806788
2501.662622	-3.000900	2.843100	-8.530600	28.836647	0.000199	20.803249
2502.665315	-3.033500	2.841700	-8.619300	28.822997	0.000199	20.819844
2503.663983	-2.988600	2.838900	-8.483000	28.819970	0.000199	20.807786
2504.664746	-3.024600	2.836400	-8.577900	28.804932	0.000198	20.822035
2505.666042	-3.000700	2.836300	-8.509600	28.777631	0.000196	20.833414
2506.664432	-2.994500	2.832400	-8.480800	28.796208	0.000197	20.836005
2507.663655	-2.983800	2.831400	-8.446500	28.757041	0.000198	20.804140
2508.665663	-2.977000	2.829700	-8.422100	28.689353	0.000198	20.818936
2509.665158	-2.987500	2.826700	-8.443700	28.660336	0.000197	20.822901
2510.665535	-2.990800	2.824700	-8.446500	28.594208	0.000198	20.821258
2511.664903	-2.983600	2.822200	-8.419300	28.544498	0.000200	20.845635
2512.664925	-3.013500	2.819200	-8.494700	28.477761	0.000198	20.830585
2513.667672	-3.012100	2.817400	-8.485000	28.505922	0.000199	20.816271
2514.665351	-3.015700	2.815000	-8.487800	28.573606	0.000199	20.811415
2515.667186	-2.983100	2.813300	-8.391500	28.638494	0.000199	20.818446
2516.665921	-3.011000	2.809200	-8.457500	28.657097	0.000198	20.813001
2517.665888	-3.010600	2.808400	-8.453600	28.758404	0.000196	20.808358
2518.667638	-2.988400	2.806400	-8.385500	28.790778	0.000196	20.806829
2519.669544	-3.001400	2.804000	-8.414700	28.813120	0.000198	20.808946
2520.666925	-2.992000	2.799500	-8.374700	28.826575	0.000199	20.831509
2521.667069	-2.984300	2.798900	-8.351800	28.852479	0.000200	20.813982
2522.667508	-3.030600	2.793300	-8.464900	28.833952	0.000198	20.795793
2523.668535	-2.995800	2.793500	-8.368400	28.797060	0.000199	20.817424
2524.674502	-2.995900	2.789900	-8.357800	28.825869	0.000198	20.844074
2525.669241	-3.030200	2.786100	-8.441200	28.847148	0.000198	20.833267
2526.674456	-2.988000	2.785700	-8.322900	28.864928	0.000198	20.826522
2527.669813	-3.000600	2.782200	-8.345800	28.854743	0.000199	20.827642
2528.670610	-2.953000	2.781000	-8.210800	28.846717	0.000199	20.837575
2529.673692	-2.976800	2.777800	-8.268000	28.890514	0.000199	20.832384
2530.669721	-2.979400	2.775600	-8.268700	28.900228	0.000199	20.812298
2531.672916	-3.028400	2.770700	-8.389700	28.900495	0.000199	20.831533
2532.672095	-3.031000	2.767500	-8.386800	28.872126	0.000196	20.815756
2533.671757	-2.997600	2.766900	-8.293100	28.905949	0.000197	20.826122
2534.671658	-3.007200	2.764200	-8.310700	28.946911	0.000200	20.813810
2535.673797	-3.034200	2.758800	-8.368600	28.968260	0.000197	20.817775
2536.671773	-3.017700	2.757900	-8.322100	29.017106	0.000197	20.822893
2537.671919	-3.029800	2.752500	-8.338300	28.995791	0.000198	20.826073
2538.672066	-3.015500	2.750900	-8.294200	28.957265	0.000198	20.817603
2539.673539	-3.000000	2.748200	-8.243200	28.939600	0.000198	20.805970
2540.673428	-3.004900	2.745000	-8.247000	28.975441	0.000198	20.821691
2541.671846	-2.992700	2.741900	-8.204500	29.000254	0.000197	20.811129
2542.673864	-2.987500	2.738300	-8.180500	28.999142	0.000198	20.811431
2543.672636	-2.975000	2.736200	-8.139500	28.969590	0.000197	20.811529
2544.673138	-2.995700	2.731900	-8.183500	28.940095	0.000198	20.811685
2545.675143	-2.993900	2.729400	-8.171000	28.861065	0.000198	20.808407
2546.675986	-2.996600	2.726000	-8.167500	28.830227	0.000198	20.806739
2547.673691	-3.001900	2.723100	-8.173800	28.803024	0.000198	20.813949
2548.674425	-3.000600	2.719200	-8.157200	28.815628	0.000199	20.810998
2549.673448	-3.011000	2.716500	-8.178500	28.855441	0.000198	20.805112
2550.673750	-3.011900	2.711700	-8.166400	28.843926	0.000200	20.833814
2551.673971	-3.016600	2.708500	-8.169400	28.826608	0.000199	20.824904
2552.673010	-3.030900	2.704200	-8.195000	28.815774	0.000199	20.800714
2553.675026	-3.018500	2.701300	-8.151900	28.799226	0.000197	20.798270
2554.674952	-2.988600	2.697700	-8.061100	28.795412	0.000198	20.816712
2555.677277	-3.003700	2.696100	-8.095600	28.788157	0.000197	20.813197
2556.677938	-3.018600	2.690800	-8.121600	28.818095	0.000197	20.790724
2557.674527	-3.003100	2.687100	-8.067000	28.842749	0.000196	20.812241
2558.677164	-2.980700	2.684000	-7.999300	28.869066	0.000198	20.797027
2559.675751	-3.017800	2.679100	-8.084000	28.940768	0.000197	20.790552
2560.675201	-2.983000	2.677400	-7.985000	28.941190	0.000196	20.799986
2561.674977	-2.983400	2.672700	-7.972500	28.973769	0.000197	20.795351
2562.678922	-2.967600	2.667800	-7.915500	29.023549	0.000199	20.781020
2563.676788	-3.000700	2.664600	-7.995100	29.052920	0.000198	20.794967
2564.676751	-2.984300	2.660300	-7.938000	29.085958	0.000200	20.791272
2565.678923	-3.050800	2.655200	-8.099300	29.089033	0.000198	20.800534
2566.678883	-3.035900	2.650900	-8.047100	29.084522	0.000197	20.795989
2567.678337	-2.996700	2.647700	-7.933600	29.036028	0.000197	20.786007
2568.685126	-2.978100	2.644300	-7.874200	29.035500	0.000198	20.804916
2569.679493	-2.962000	2.640500	-7.820200	29.054470	0.000197	20.779933
2570.680038	-3.009800	2.633800	-7.926100	29.058292	0.000198	20.795637
2571.680299	-2.983700	2.631000	-7.848700	29.067947	0.000198	20.795408
2572.682323	-2.924200	2.628700	-7.685100	29.045431	0.000197	20.784576
2573.680432	-2.996700	2.620400	-7.851300	29.071857	0.000196	20.793659
2574.681162	-2.989100	2.616500	-7.819600	29.051509	0.000199	20.784061
2575.679382	-3.045600	2.609500	-7.946300	29.082681	0.000199	20.772322
2576.681492	-3.009500	2.607000	-7.844500	29.028417	0.000198	20.768855
2577.681607	-2.989600	2.601800	-7.777400	28.985762	0.000197	20.778984
2578.679414	-3.022000	2.596500	-7.845200	29.002590	0.000200	20.772232
2579.682487	-2.969600	2.592700	-7.698700	29.053261	0.000198	20.789620
2580.681422	-2.970000	2.587000	-7.681600	29.067151	0.000198	20.782753
2581.682643	-2.995300	2.581200	-7.730200	29.092830	0.000197	20.788239
2582.682312	-3.016400	2.574000	-7.763200	29.144746	0.000198	20.770376
2583.684825	-3.013500	2.569100	-7.740600	29.170975	0.000198	20.759348
2584.681427	-3.025800	2.563500	-7.755700	29.212405	0.000196	20.769804
2585.680823	-3.003600	2.558400	-7.683800	29.261906	0.000198	20.764212
2586.685671	-3.005400	2.551500	-7.667900	29.248513	0.000198	20.791492
2587.683064	-3.050000	2.544500	-7.759300	29.211213	0.000198	20.784723
2588.686500	-2.992600	2.540100	-7.600100	29.204707	0.000198	20.773900
2589.682771	-2.956300	2.537300	-7.499700	29.229279	0.000198	20.764048
2590.683926	-2.998200	2.528700	-7.580600	29.220420	0.000198	20.771717
2591.684023	-2.987000	2.522900	-7.534200	29.206556	0.000199	20.760590
2592.684047	-2.992600	2.516400	-7.529400	29.231842	0.000200	20.762838
2593.685754	-2.970300	2.512000	-7.459500	29.305110	0.000200	20.784045
2594.684285	-3.011500	2.502400	-7.534400	29.310114	0.000198	20.734086
2595.684011	-3.017900	2.497900	-7.537200	29.249787	0.000198	20.771913
