LabVIEW Measurement	
Writer_Version	2
Reader_Version	2
Separator	Tab
Decimal_Separator	.
Multi_Headings	No
X_Columns	One
Time_Pref	Absolute
Operator	admin
Description	Clolumns are: time, Current, Voltage, Power, Battery Temp, and Chamber Temp
Date	2024/08/16
Time	13:06:06.104549407958984375
***End_of_Header***	
	
Channels	6						
Samples	1	1	1	1	1	1	
Date	2024/08/22	2024/08/22	2024/08/22	2024/08/22	2024/08/22	2024/08/22	
Time	02:49:56.636627197265625	02:49:56.64769744873046875	02:49:56.6578207015991210937	02:49:56.6178846359252929687	02:49:56.6188921928405761719	02:49:56.6188921928405761719	
X_Dimension	Time	Time	Time	Time	Time	Time	
X0	0.0000000000000000E+0	0.0000000000000000E+0	0.0000000000000000E+0	0.0000000000000000E+0	0.0000000000000000E+0	0.0000000000000000E+0	
Delta_X	1.000000	1.000000	1.000000	1.000000	1.000000	1.000000	
***End_of_Header***							
X_Value	Untitled	Untitled 1	Untitled 2	Untitled 3	Untitled 4	Untitled 5	Comment
0.000000	-0.001611	4.110100	-0.006653	20.989209	0.000990	20.761630
1.000143	-2.984200	3.958500	-11.811000	20.988634	0.000992	20.732131
2.001295	-2.993700	3.951200	-11.827000	20.970418	0.000992	20.739516
3.001235	-3.017700	3.944100	-11.901000	20.990253	0.000991	20.729009
4.003142	-2.997900	3.940500	-11.812000	20.981019	0.000987	20.743482
5.002984	-2.995500	3.936500	-11.790000	20.971513	0.000988	20.740137
6.000023	-2.991400	3.934800	-11.769000	20.969092	0.000987	20.738190
7.000814	-2.985900	3.932100	-11.740000	20.998585	0.000987	20.752516
8.000944	-3.003500	3.928400	-11.798000	20.988579	0.000986	20.735870
9.002972	-3.012600	3.927500	-11.831000	21.007563	0.000987	20.734942
10.000145	-3.004700	3.924900	-11.791000	20.995883	0.000985	20.736537
11.002003	-2.999700	3.922400	-11.765000	20.994885	0.000984	20.743599
11.999504	-2.982300	3.921600	-11.694000	21.003670	0.000983	20.728677
13.003025	-3.009600	3.919000	-11.793000	21.009107	0.000983	20.728900
14.004281	-2.984100	3.918800	-11.693000	21.002197	0.000978	20.729101
15.000945	-3.028400	3.915900	-11.857000	21.002868	0.000980	20.738782
16.004529	-3.005600	3.916700	-11.771000	21.018735	0.000980	20.738056
17.005844	-2.998400	3.914700	-11.736000	21.018857	0.000976	20.724426
18.006146	-2.970100	3.915700	-11.629000	21.031832	0.000977	20.735983
19.008306	-2.995400	3.913100	-11.719000	21.036422	0.000979	20.734883
20.007603	-2.988000	3.912900	-11.690000	21.046176	0.000977	20.723302
21.005803	-3.006100	3.912200	-11.759000	21.020723	0.000976	20.726293
22.008589	-3.001900	3.910300	-11.737000	21.039837	0.000976	20.721229
23.007420	-3.011900	3.908600	-11.771000	21.046474	0.000976	20.720754
24.008339	-2.996100	3.908800	-11.709000	21.048642	0.000976	20.735727
25.011131	-3.008500	3.907700	-11.755000	21.065607	0.000975	20.717133
26.008631	-3.003400	3.907900	-11.736000	21.045274	0.000974	20.714338
27.008869	-3.018100	3.906000	-11.788000	21.056672	0.000973	20.728110
28.009238	-3.024900	3.904000	-11.808000	21.062738	0.000972	20.726591
29.009319	-3.006400	3.904100	-11.736000	21.080877	0.000973	20.723398
30.011567	-2.997700	3.904500	-11.703000	21.053278	0.000973	20.706222
31.012731	-2.988300	3.903900	-11.664000	21.068896	0.000971	20.718526
32.010042	-2.999900	3.902600	-11.706000	21.073788	0.000971	20.712513
33.012347	-2.994100	3.901900	-11.682000	21.102280	0.000971	20.731056
34.010389	-2.993700	3.902300	-11.681000	21.101529	0.000970	20.725089
35.013686	-2.993400	3.901800	-11.679000	21.108241	0.000971	20.719474
36.015000	-3.002200	3.901700	-11.713000	21.105397	0.000970	20.733226
37.016553	-3.018800	3.900800	-11.775000	21.115922	0.000972	20.718148
38.015650	-3.029200	3.899700	-11.811000	21.116723	0.000969	20.727485
39.016341	-3.009100	3.900300	-11.735000	21.127424	0.000965	20.741509
40.015094	-3.000700	3.900400	-11.703000	21.128549	0.000972	20.703751
41.013521	-3.007400	3.898600	-11.722000	21.139598	0.000968	20.727133
42.016237	-3.006300	3.899000	-11.720000	21.127647	0.000965	20.721816
43.017206	-2.996800	3.898000	-11.681000	21.131640	0.000968	20.731027
44.017934	-3.020400	3.898200	-11.774000	21.164993	0.000966	20.736889
45.014846	-2.996000	3.898200	-11.678000	21.152048	0.000966	20.709239
46.018822	-3.006400	3.895800	-11.712000	21.152719	0.000965	20.742155
47.017394	-3.012400	3.895700	-11.734000	21.179188	0.000967	20.696084
48.018234	-3.014300	3.895100	-11.740000	21.202216	0.000966	20.703948
49.019581	-3.012600	3.896000	-11.735000	21.166864	0.000963	20.742554
50.014598	-3.017800	3.894100	-11.751000	21.182954	0.000963	20.726407
51.017324	-3.008500	3.894400	-11.714000	21.179934	0.000966	20.721963
52.017439	-3.004200	3.893500	-11.696000	21.221599	0.000964	20.711959
53.017514	-3.015600	3.893800	-11.741000	21.197925	0.000964	20.720993
54.015819	-3.022800	3.892700	-11.765000	21.220152	0.000964	20.716675
55.020443	-3.003300	3.893300	-11.691000	21.207506	0.000964	20.733423
56.017165	-3.000000	3.892200	-11.675000	21.222396	0.000965	20.739784
57.017278	-3.005500	3.891900	-11.696000	21.237861	0.000961	20.735340
58.018133	-3.021200	3.892300	-11.758000	21.222946	0.000964	20.734644
59.016285	-3.001900	3.892300	-11.682000	21.241582	0.000964	20.727682
60.016963	-3.007000	3.891300	-11.701000	21.232148	0.000961	20.727728
61.017488	-2.985200	3.891300	-11.615000	21.246116	0.000960	20.739805
62.018173	-3.009200	3.889700	-11.704000	21.260238	0.000962	20.721216
63.018351	-3.017600	3.890200	-11.738000	21.262235	0.000959	20.720368
64.022616	-3.003800	3.889100	-11.681000	21.261832	0.000961	20.723759
65.021231	-2.996400	3.889600	-11.652000	21.272335	0.000963	20.731421
66.019702	-2.992300	3.889800	-11.639000	21.272607	0.000957	20.729797
67.025428	-2.982100	3.890400	-11.601000	21.288797	0.000961	20.736037
68.022967	-2.987700	3.889600	-11.619000	21.292962	0.000959	20.729772
69.021368	-2.985700	3.889300	-11.611000	21.295731	0.000958	20.715945
70.021485	-3.006000	3.888100	-11.685000	21.311295	0.000959	20.722508
71.021809	-2.998400	3.888200	-11.657000	21.302114	0.000961	20.728970
72.021503	-3.001000	3.887300	-11.664000	21.321424	0.000960	20.733116
73.022515	-2.992300	3.887300	-11.631000	21.306581	0.000961	20.708782
74.021317	-2.998300	3.886700	-11.653000	21.334497	0.000958	20.738609
75.021788	-2.991400	3.887100	-11.628000	21.332471	0.000959	20.745118
76.025362	-2.980400	3.887200	-11.584000	21.353001	0.000958	20.726776
77.021736	-2.990200	3.886700	-11.620000	21.351152	0.000957	20.747686
78.023786	-2.970400	3.886900	-11.544000	21.346815	0.000957	20.720112
79.026559	-3.000800	3.884800	-11.656000	21.339807	0.000957	20.705513
80.022143	-2.987500	3.887000	-11.611000	21.350359	0.000957	20.744522
81.023865	-2.997500	3.886100	-11.647000	21.356868	0.000957	20.741077
82.023163	-2.990400	3.886300	-11.621000	21.342424	0.000957	20.735634
83.020025	-2.996900	3.885500	-11.644000	21.358340	0.000957	20.739705
84.021333	-2.991400	3.885300	-11.622000	21.366770	0.000955	20.737233
85.027153	-3.010500	3.883900	-11.691000	21.373334	0.000956	20.734317
86.022197	-2.978300	3.886000	-11.573000	21.398502	0.000957	20.730099
87.022038	-3.007800	3.884300	-11.681000	21.417655	0.000957	20.713226
88.025899	-2.997700	3.883400	-11.640000	21.421123	0.000957	20.729025
89.025034	-3.004400	3.883500	-11.667000	21.416837	0.000957	20.756506
90.025307	-2.991700	3.883400	-11.616000	21.431151	0.000957	20.732894
91.025582	-2.995900	3.882500	-11.630000	21.416460	0.000957	20.724833
92.023593	-2.986300	3.883900	-11.597000	21.423346	0.000956	20.727930
93.025877	-2.980400	3.883500	-11.573000	21.441203	0.000959	20.728727
94.027054	-2.992900	3.882800	-11.620000	21.453826	0.000958	20.730926
95.027419	-3.020100	3.880500	-11.719000	21.455172	0.000958	20.746498
96.028559	-3.008200	3.881500	-11.674000	21.462826	0.000955	20.757950
97.026314	-3.014400	3.881700	-11.700000	21.491761	0.000956	20.768885
98.026452	-2.966500	3.882700	-11.517000	21.464776	0.000956	20.741408
99.027122	-3.012700	3.881100	-11.691000	21.481382	0.000960	20.748542
100.032899	-3.021400	3.881400	-11.726000	21.479411	0.000957	20.738509
101.027846	-3.001400	3.881000	-11.647000	21.490981	0.000959	20.753405
102.030961	-2.984700	3.881700	-11.585000	21.516423	0.000955	20.743301
103.031755	-3.001500	3.879800	-11.644000	21.502056	0.000959	20.739830
104.031555	-2.991000	3.879800	-11.603000	21.518541	0.000955	20.737359
105.030046	-3.006900	3.878500	-11.662000	21.537197	0.000956	20.747019
106.034113	-2.996600	3.880200	-11.626000	21.523506	0.000958	20.741853
107.032238	-3.008400	3.878700	-11.667000	21.545924	0.000958	20.737258
108.034206	-2.991000	3.878500	-11.600000	21.550234	0.000957	20.741098
109.036820	-3.012300	3.877500	-11.678000	21.539784	0.000957	20.756246
110.030060	-2.996500	3.879000	-11.623000	21.562005	0.000956	20.749083
111.030152	-2.990600	3.878600	-11.599000	21.549911	0.000955	20.733662
112.037262	-2.974000	3.878700	-11.534000	21.565548	0.000957	20.746465
113.034141	-2.989400	3.880000	-11.598000	21.574526	0.000956	20.738378
114.035121	-3.027300	3.876100	-11.734000	21.583751	0.000956	20.754249
115.040085	-2.999200	3.878200	-11.630000	21.596368	0.000958	20.748382
116.035970	-3.010200	3.877400	-11.671000	21.585395	0.000957	20.749729
117.034636	-2.988800	3.877400	-11.588000	21.631930	0.000956	20.768323
118.037426	-3.022500	3.875400	-11.713000	21.611006	0.000954	20.771092
119.032784	-3.030500	3.876700	-11.747000	21.609610	0.000957	20.745986
120.036303	-3.006700	3.877500	-11.656000	21.633175	0.000955	20.761982
121.040251	-2.976200	3.876200	-11.535000	21.625171	0.000955	20.735479
122.037792	-2.996000	3.875900	-11.611000	21.617711	0.000958	20.749352
123.036506	-3.012800	3.875700	-11.676000	21.643402	0.000958	20.751353
124.041276	-3.010500	3.875400	-11.665000	21.644270	0.000958	20.751273
125.037544	-2.998900	3.876800	-11.625000	21.649234	0.000957	20.760035
126.038674	-2.995400	3.877000	-11.611000	21.663297	0.000957	20.759884
127.039662	-2.974300	3.876700	-11.530000	21.652249	0.000957	20.772061
128.037728	-3.006600	3.874300	-11.648000	21.663297	0.000956	20.746607
129.041379	-2.989800	3.875700	-11.586000	21.685218	0.000959	20.764277
130.044843	-3.002100	3.873900	-11.628000	21.669029	0.000956	20.761827
131.042577	-2.988400	3.874800	-11.578000	21.679230	0.000959	20.742638
132.042211	-3.005800	3.873900	-11.644000	21.685062	0.000958	20.766493
133.044686	-2.994700	3.873500	-11.598000	21.668832	0.000958	20.780596
134.043580	-3.000600	3.873600	-11.622000	21.687280	0.000956	20.779144
135.044191	-2.995200	3.874500	-11.604000	21.703087	0.000960	20.764617
136.046526	-3.027000	3.872400	-11.721000	21.706529	0.000957	20.773752
137.042995	-3.009400	3.872800	-11.654000	21.714584	0.000958	20.764743
138.045033	-2.998700	3.872400	-11.611000	21.699771	0.000959	20.782161
139.046152	-3.006500	3.872000	-11.639000	21.724981	0.000959	20.769934
140.043939	-3.019600	3.872100	-11.691000	21.718126	0.000958	20.786781
141.045395	-2.972100	3.873600	-11.512000	21.744310	0.000961	20.775053
142.048881	-2.998400	3.871100	-11.606000	21.737920	0.000958	20.772926
143.047637	-3.002200	3.872200	-11.623000	21.765625	0.000962	20.770307
144.047516	-2.985500	3.872900	-11.561000	21.793802	0.000961	20.775750
145.048382	-3.030400	3.872000	-11.732000	21.766396	0.000961	20.765389
146.049586	-2.974800	3.872800	-11.518000	21.770932	0.000959	20.767085
147.048928	-2.984900	3.873100	-11.560000	21.757072	0.000960	20.774075
148.049566	-3.008500	3.871400	-11.645000	21.780307	0.000959	20.788321
149.049933	-2.995300	3.872100	-11.597000	21.779762	0.000962	20.791569
150.046795	-2.999900	3.870800	-11.610000	21.781849	0.000959	20.781330
151.053678	-3.003400	3.870600	-11.623000	21.760409	0.000961	20.753707
152.050672	-2.991300	3.870700	-11.578000	21.796464	0.000962	20.784104
153.050177	-3.007600	3.870500	-11.640000	21.781229	0.000961	20.776442
154.056488	-3.002100	3.870800	-11.619000	21.827433	0.000960	20.772426
155.050716	-2.997200	3.869400	-11.596000	21.817929	0.000963	20.774293
156.049062	-3.013200	3.868500	-11.654000	21.840543	0.000963	20.789815
157.052154	-3.012600	3.870300	-11.658000	21.841792	0.000964	20.784427
158.051795	-2.981700	3.870200	-11.538000	21.821044	0.000964	20.773618
159.048134	-3.012200	3.868700	-11.652000	21.846152	0.000963	20.800171
160.056043	-2.989400	3.869600	-11.567000	21.848772	0.000962	20.766283
161.052229	-3.001000	3.869300	-11.610000	21.872106	0.000964	20.774940
162.052660	-3.007300	3.866900	-11.627000	21.876369	0.000964	20.778733
163.053372	-2.995700	3.867800	-11.586000	21.876591	0.000961	20.776585
164.053493	-3.014400	3.868600	-11.661000	21.899103	0.000962	20.798643
165.052300	-2.974900	3.867000	-11.502000	21.889578	0.000964	20.770618
166.058530	-2.980900	3.867100	-11.525000	21.923211	0.000964	20.791007
167.054797	-2.999600	3.867800	-11.600000	21.914110	0.000964	20.800863
168.054650	-2.999800	3.868400	-11.603000	21.923584	0.000962	20.803234
169.058663	-3.005500	3.867500	-11.622000	21.937321	0.000965	20.796122
170.054094	-2.979500	3.867700	-11.523000	21.935724	0.000966	20.777453
171.053899	-3.005600	3.866200	-11.619000	21.926174	0.000965	20.783068
172.057698	-2.996000	3.867900	-11.587000	21.942950	0.000965	20.808395
173.056271	-2.992000	3.866700	-11.568000	21.963742	0.000965	20.793172
174.052814	-2.991800	3.867000	-11.568000	21.970197	0.000967	20.781616
175.056951	-3.003500	3.866100	-11.611000	21.949905	0.000970	20.797812
176.054425	-2.998900	3.865400	-11.591000	21.947633	0.000968	20.802651
177.055296	-2.992600	3.865400	-11.565000	21.938511	0.000969	20.794942
178.058268	-2.980100	3.866300	-11.521000	21.976426	0.000970	20.792593
179.054568	-2.976100	3.867300	-11.508000	21.973785	0.000969	20.805122
180.055629	-2.993300	3.865800	-11.570000	21.985627	0.000970	20.786156
181.055452	-2.976000	3.866200	-11.505000	21.996073	0.000969	20.805621
182.056817	-3.011700	3.864700	-11.638000	22.020003	0.000971	20.786429
183.056350	-2.988900	3.866300	-11.556000	22.020996	0.000971	20.814924
184.060349	-3.014600	3.863600	-11.646000	21.981582	0.000975	20.804866
185.059031	-3.010100	3.863800	-11.628000	22.014017	0.000971	20.820265
186.060731	-3.011800	3.864300	-11.637000	22.015237	0.000971	20.812478
187.062762	-3.027800	3.863500	-11.697000	21.992799	0.000971	20.797129
188.061372	-3.000300	3.863700	-11.592000	21.991625	0.000971	20.792635
189.060093	-3.019900	3.862900	-11.664000	21.995763	0.000973	20.807207
190.061220	-3.018200	3.864100	-11.662000	22.034003	0.000972	20.799495
191.062917	-3.007100	3.862800	-11.615000	22.053694	0.000972	20.808303
192.060371	-3.028800	3.862000	-11.696000	22.062245	0.000971	20.795051
193.063831	-2.982600	3.863000	-11.520000	22.074807	0.000974	20.813317
194.063449	-3.012400	3.861400	-11.631000	22.074983	0.000975	20.817286
195.063640	-2.990500	3.862400	-11.550000	22.102822	0.000975	20.811017
196.066280	-2.990700	3.862800	-11.551000	22.099682	0.000974	20.823047
197.063048	-2.981200	3.864100	-11.518000	22.131167	0.000972	20.817110
198.064219	-3.019900	3.861600	-11.660000	22.112541	0.000975	20.815532
199.069768	-2.991400	3.861900	-11.552000	22.145593	0.000975	20.827759
200.066030	-3.007000	3.861500	-11.609000	22.132009	0.000977	20.816531
201.063071	-3.006300	3.862500	-11.610000	22.130065	0.000978	20.818851
202.068494	-2.994700	3.861300	-11.563000	22.143573	0.000976	20.824789
203.065314	-3.011100	3.861600	-11.626000	22.147462	0.000976	20.820622
204.065517	-3.011000	3.860700	-11.622000	22.150526	0.000976	20.816577
205.068818	-3.010800	3.862500	-11.628000	22.167630	0.000978	20.827537
206.065712	-3.017900	3.858800	-11.644000	22.172910	0.000977	20.825238
207.065679	-2.992100	3.860100	-11.548000	22.156460	0.000980	20.814458
208.071142	-2.978200	3.860300	-11.496000	22.178568	0.000979	20.819049
209.066354	-3.011200	3.858700	-11.619000	22.182755	0.000977	20.818025
210.063042	-3.010100	3.858300	-11.613000	22.179293	0.000979	20.833999
211.070454	-2.988900	3.860400	-11.537000	22.177147	0.000978	20.827109
212.066420	-3.017100	3.858200	-11.639000	22.154315	0.000981	20.826534
213.064736	-2.993400	3.859200	-11.551000	22.167701	0.000981	20.840410
214.071168	-3.027200	3.858100	-11.678000	22.175576	0.000979	20.807992
215.065530	-3.006200	3.857600	-11.596000	22.191258	0.000980	20.828909
216.066270	-3.008500	3.858200	-11.606000	22.183329	0.000982	20.832824
217.071263	-3.001000	3.858400	-11.579000	22.183053	0.000983	20.807417
218.066251	-3.001300	3.856700	-11.574000	22.175450	0.000982	20.806918
219.068731	-2.953400	3.859600	-11.398000	22.171435	0.000981	20.831821
220.072471	-2.991900	3.857200	-11.539000	22.212041	0.000983	20.828380
221.066235	-2.977000	3.858700	-11.486000	22.203140	0.000984	20.830373
222.069044	-2.973100	3.859000	-11.472000	22.187436	0.000984	20.820341
223.069981	-3.008600	3.855200	-11.598000	22.206857	0.000986	20.832673
224.069771	-3.017800	3.855300	-11.633000	22.197239	0.000984	20.835845
225.067932	-2.994600	3.858600	-11.554000	22.210147	0.000984	20.830277
226.071827	-3.002900	3.858900	-11.587000	22.232627	0.000985	20.843301
227.071785	-3.014300	3.857400	-11.625000	22.230636	0.000986	20.842730
228.069551	-2.974900	3.857700	-11.473000	22.251372	0.000986	20.847371
229.072921	-2.995800	3.857100	-11.554000	22.236386	0.000987	20.839953
230.067906	-2.988800	3.857300	-11.526000	22.252537	0.000987	20.840951
231.070705	-3.001800	3.856600	-11.575000	22.268093	0.000990	20.839458
232.072726	-2.979400	3.856000	-11.487000	22.270109	0.000987	20.855700
233.071701	-3.019600	3.855400	-11.641000	22.282123	0.000987	20.842600
234.070937	-2.995100	3.856200	-11.548000	22.273918	0.000989	20.830118
235.073807	-3.018600	3.854300	-11.633000	22.269032	0.000988	20.849880
236.072833	-3.012300	3.854500	-11.610000	22.297520	0.000989	20.841421
237.071921	-3.005200	3.853800	-11.580000	22.283808	0.000989	20.844287
238.075367	-2.991200	3.854300	-11.528000	22.297092	0.000993	20.850002
239.072637	-3.008800	3.854600	-11.596000	22.295546	0.000989	20.856988
240.071776	-3.010500	3.853700	-11.600000	22.298312	0.000990	20.831309
241.071765	-3.002300	3.854000	-11.570000	22.318623	0.000992	20.842638
242.073328	-3.020400	3.853600	-11.638000	22.325525	0.000991	20.836747
243.071555	-3.007100	3.853800	-11.587000	22.334245	0.000994	20.857332
244.074353	-3.014200	3.852600	-11.611000	22.315874	0.000993	20.852687
245.072379	-3.008800	3.853400	-11.593000	22.333747	0.000993	20.851617
246.073750	-2.990300	3.853500	-11.523000	22.321506	0.000993	20.839835
247.073857	-3.003100	3.852400	-11.568000	22.315250	0.000995	20.851114
248.073826	-2.999800	3.852200	-11.554000	22.333893	0.000994	20.869781
249.075330	-3.003200	3.851500	-11.565000	22.322227	0.000995	20.869005
250.073847	-2.990700	3.852600	-11.521000	22.340715	0.000993	20.850061
251.074509	-2.994600	3.854000	-11.540000	22.349666	0.000994	20.861394
252.074179	-3.026100	3.850300	-11.650000	22.344332	0.000995	20.863164
253.075313	-3.005500	3.852900	-11.580000	22.368824	0.000997	20.844069
254.075423	-2.975200	3.852200	-11.459000	22.373040	0.000997	20.881005
255.075471	-3.017400	3.851800	-11.622000	22.374154	0.000998	20.859363
256.077791	-3.013200	3.850300	-11.601000	22.366306	0.000998	20.885167
257.078372	-3.007700	3.850600	-11.581000	22.375302	0.000998	20.857668
258.076318	-3.014500	3.852000	-11.611000	22.364860	0.000998	20.851479
259.074301	-3.000900	3.850700	-11.555000	22.389780	0.000999	20.863630
260.078810	-3.024100	3.849100	-11.638000	22.380980	0.001001	20.873310
261.076874	-2.994300	3.850900	-11.530000	22.393811	0.000998	20.864348
262.078702	-3.010400	3.849700	-11.588000	22.394012	0.001000	20.887781
263.081000	-2.986600	3.849800	-11.497000	22.395956	0.001001	20.853695
264.079469	-3.000900	3.850100	-11.553000	22.413203	0.001003	20.875232
265.084136	-3.006600	3.849300	-11.572000	22.412926	0.000999	20.859309
266.077907	-2.976400	3.850000	-11.458000	22.451173	0.001005	20.881962
267.078075	-3.013100	3.847600	-11.592000	22.450599	0.000999	20.872853
268.078594	-2.982900	3.851000	-11.486000	22.479011	0.001004	20.863374
269.082494	-2.996500	3.848700	-11.531000	22.484613	0.001002	20.846226
270.077707	-3.004400	3.849600	-11.564000	22.480281	0.001004	20.885033
271.082793	-2.977700	3.848900	-11.460000	22.483168	0.001004	20.870381
272.081407	-2.986500	3.849000	-11.495000	22.486805	0.001005	20.874972
273.080238	-3.008600	3.848400	-11.577000	22.507339	0.001007	20.871829
274.085188	-3.016300	3.847800	-11.605000	22.509903	0.001006	20.879612
275.079651	-3.003700	3.847800	-11.557000	22.492683	0.001007	20.885125
276.080012	-2.987800	3.847800	-11.496000	22.525401	0.001008	20.880435
277.082139	-2.996500	3.849000	-11.533000	22.520218	0.001009	20.874296
278.083492	-2.993600	3.847600	-11.517000	22.522582	0.001008	20.850112
279.081917	-3.013400	3.846100	-11.589000	22.536387	0.001009	20.872945
280.082958	-2.993300	3.847900	-11.517000	22.547074	0.001007	20.873218
281.086459	-2.977600	3.847300	-11.455000	22.551386	0.001010	20.892233
282.083001	-3.011900	3.846300	-11.584000	22.542491	0.001009	20.880481
283.086411	-3.003400	3.845000	-11.548000	22.545403	0.001010	20.874863
284.081796	-2.998300	3.845600	-11.529000	22.560950	0.001012	20.881425
285.083280	-3.013400	3.845000	-11.585000	22.558483	0.001012	20.860463
286.086877	-2.982800	3.846100	-11.471000	22.541092	0.001014	20.859166
287.084627	-2.994000	3.846000	-11.514000	22.550108	0.001013	20.873885
288.082787	-2.988500	3.845400	-11.491000	22.531518	0.001015	20.862380
289.088652	-2.998400	3.844800	-11.527000	22.528531	0.001011	20.861759
290.083893	-3.004100	3.844100	-11.547000	22.543455	0.001015	20.872438
291.086548	-2.981100	3.844500	-11.458000	22.556434	0.001013	20.857463
292.087658	-3.011000	3.842700	-11.569000	22.559824	0.001014	20.867495
293.084442	-2.981800	3.845800	-11.466000	22.602058	0.001015	20.854794
294.085962	-2.993300	3.844100	-11.506000	22.585539	0.001015	20.853422
295.088357	-2.993800	3.844800	-11.509000	22.617827	0.001015	20.855415
296.088970	-3.002800	3.842700	-11.538000	22.596847	0.001015	20.863799
297.088171	-2.986800	3.843300	-11.478000	22.624727	0.001018	20.865645
298.086751	-2.994200	3.842900	-11.506000	22.622833	0.001017	20.866593
299.086709	-2.993400	3.842400	-11.501000	22.648619	0.001019	20.845480
300.089543	-2.989400	3.844100	-11.491000	22.655866	0.001020	20.854161
301.094420	-2.984300	3.843300	-11.467000	22.667525	0.001016	20.836442
302.087707	-2.992800	3.843800	-11.504000	22.664115	0.001019	20.857681
303.087218	-2.992800	3.843300	-11.501000	22.651828	0.001019	20.863866
304.094522	-3.003400	3.842800	-11.541000	22.676192	0.001022	20.844649
305.091414	-2.995200	3.841700	-11.506000	22.660324	0.001022	20.854358
306.088855	-2.994200	3.840900	-11.500000	22.657555	0.001022	20.842576
307.094752	-2.984900	3.841400	-11.465000	22.657676	0.001023	20.837009
308.093655	-2.991200	3.841100	-11.489000	22.655682	0.001022	20.823158
309.093843	-3.015700	3.839600	-11.578000	22.648359	0.001024	20.838108
310.096061	-2.987400	3.840200	-11.472000	22.665393	0.001023	20.837626
311.093446	-3.007800	3.841800	-11.554000	22.650446	0.001023	20.831663
312.094405	-3.000700	3.840800	-11.524000	22.662900	0.001023	20.840819
313.096529	-3.009000	3.838900	-11.550000	22.657542	0.001025	20.835926
314.096062	-2.993700	3.841000	-11.497000	22.682531	0.001024	20.814489
315.095166	-2.994800	3.841500	-11.503000	22.665142	0.001027	20.855391
316.101598	-3.010100	3.840000	-11.557000	22.681458	0.001026	20.835700
317.099640	-3.021600	3.837800	-11.596000	22.685941	0.001028	20.835922
318.092153	-2.986100	3.840600	-11.468000	22.684295	0.001028	20.848023
319.101638	-3.010200	3.837700	-11.552000	22.683520	0.001028	20.837764
320.099009	-3.011000	3.838200	-11.555000	22.665188	0.001030	20.811342
321.099419	-3.007900	3.838900	-11.546000	22.689351	0.001029	20.818002
322.102318	-2.992000	3.837800	-11.481000	22.696975	0.001029	20.832750
323.103168	-3.005600	3.837700	-11.532000	22.696573	0.001028	20.836615
324.099235	-2.988100	3.837500	-11.465000	22.720015	0.001030	20.824061
325.101568	-2.982200	3.838000	-11.445000	22.684986	0.001032	20.845871
326.101165	-3.014300	3.836100	-11.561000	22.708751	0.001032	20.808985
327.097912	-3.019400	3.836900	-11.583000	22.709099	0.001032	20.820238
328.102447	-3.016600	3.837600	-11.576000	22.727308	0.001032	20.830418
329.100326	-2.991400	3.837000	-11.477000	22.702966	0.001034	20.826897
330.100779	-3.015200	3.835300	-11.563000	22.726161	0.001032	20.835432
331.102317	-2.992400	3.836300	-11.479000	22.731242	0.001033	20.804013
332.099303	-2.989000	3.836200	-11.466000	22.727258	0.001035	20.815195
333.100587	-3.013900	3.835800	-11.559000	22.730094	0.001034	20.815665
334.100993	-2.980300	3.836200	-11.432000	22.710708	0.001036	20.826591
335.101930	-2.992900	3.834600	-11.475000	22.711432	0.001033	20.826843
336.098169	-3.006800	3.835800	-11.533000	22.699699	0.001035	20.825521
337.100077	-2.995300	3.833700	-11.483000	22.718206	0.001037	20.805653
338.098054	-3.012200	3.835600	-11.553000	22.720946	0.001037	20.812191
339.099310	-2.999500	3.834200	-11.500000	22.726576	0.001035	20.796494
340.100227	-3.017700	3.833300	-11.567000	22.700440	0.001039	20.822471
341.100407	-2.995200	3.833800	-11.482000	22.747525	0.001038	20.822219
342.100163	-3.023900	3.832600	-11.588000	22.749745	0.001037	20.795046
343.099253	-2.996100	3.834600	-11.487000	22.758713	0.001037	20.811616
344.098899	-2.999400	3.832100	-11.493000	22.775452	0.001040	20.794245
345.100835	-3.004600	3.834400	-11.520000	22.767003	0.001040	20.826558
346.100071	-2.997700	3.834400	-11.493000	22.762621	0.001037	20.815531
347.101560	-2.998600	3.831700	-11.488000	22.770618	0.001040	20.815007
348.104595	-2.979300	3.832700	-11.417000	22.773232	0.001041	20.819522
349.103182	-3.003300	3.832900	-11.510000	22.770865	0.001042	20.820470
350.104552	-3.001000	3.833000	-11.502000	22.809649	0.001040	20.810484
351.105648	-2.982800	3.832100	-11.429000	22.785413	0.001042	20.795688
352.103709	-3.007800	3.831400	-11.523000	22.765851	0.001042	20.796007
353.103622	-3.017800	3.829800	-11.556000	22.765307	0.001041	20.808264
354.102174	-3.012100	3.830300	-11.537000	22.761323	0.001043	20.821343
355.107030	-3.016900	3.830200	-11.554000	22.770689	0.001043	20.773827
356.107617	-3.014700	3.831400	-11.548000	22.748714	0.001043	20.798281
357.108241	-2.994100	3.829900	-11.467000	22.757503	0.001044	20.787645
358.110903	-2.997900	3.830700	-11.483000	22.746272	0.001043	20.789197
359.110685	-3.016400	3.830300	-11.553000	22.732767	0.001046	20.800325
360.108830	-2.990900	3.830400	-11.454000	22.757532	0.001050	20.803795
361.108724	-2.968800	3.832100	-11.375000	22.753670	0.001047	20.798978
362.110149	-3.021100	3.828900	-11.565000	22.778208	0.001046	20.789420
363.109729	-2.996600	3.829400	-11.474000	22.801527	0.001049	20.799028
364.109866	-2.990000	3.829800	-11.451000	22.826788	0.001050	20.795886
365.114428	-2.998100	3.827500	-11.474000	22.805636	0.001048	20.793188
366.109967	-3.001500	3.827900	-11.488000	22.843497	0.001050	20.795080
367.111125	-2.985000	3.827700	-11.424000	22.869553	0.001051	20.806011
368.114352	-2.998800	3.829500	-11.483000	22.853713	0.001051	20.780658
369.111126	-3.000200	3.827900	-11.484000	22.867061	0.001050	20.784548
370.110101	-2.995500	3.828600	-11.467000	22.868130	0.001048	20.785618
371.116158	-2.992900	3.828200	-11.456000	22.859887	0.001053	20.802016
372.113635	-2.996100	3.826700	-11.464000	22.857545	0.001051	20.799197
373.114589	-2.989200	3.827200	-11.439000	22.883547	0.001052	20.803909
374.117375	-3.038300	3.823900	-11.616000	22.875702	0.001053	20.783722
375.117202	-3.019300	3.826300	-11.551000	22.915852	0.001054	20.793599
376.118373	-3.030100	3.825300	-11.591000	22.913335	0.001056	20.795819
377.116380	-2.983500	3.825500	-11.413000	22.912162	0.001054	20.776152
378.118465	-2.996700	3.825500	-11.462000	22.913134	0.001053	20.780919
379.116245	-2.996900	3.823600	-11.458000	22.922746	0.001055	20.772057
380.121853	-2.988100	3.826000	-11.431000	22.927705	0.001052	20.786508
381.118923	-3.001700	3.824000	-11.477000	22.944814	0.001057	20.795115
382.119404	-3.019500	3.824700	-11.547000	22.954233	0.001058	20.793646
383.120500	-2.986900	3.826100	-11.428000	22.934699	0.001058	20.766489
384.121365	-3.003100	3.823700	-11.482000	22.938758	0.001056	20.775297
385.123040	-3.011200	3.822900	-11.510000	22.964519	0.001058	20.799684
386.120846	-3.000700	3.824800	-11.475000	22.930314	0.001058	20.791493
387.122703	-3.008900	3.822600	-11.500000	22.956344	0.001060	20.805244
388.120148	-3.001300	3.824000	-11.476000	22.959460	0.001056	20.801728
389.122062	-2.999100	3.822600	-11.463000	22.958237	0.001062	20.779165
390.124026	-2.989800	3.822200	-11.427000	22.981200	0.001062	20.771352
391.125118	-2.979100	3.822700	-11.386000	22.984437	0.001061	20.768906
392.127186	-3.015300	3.821500	-11.522000	22.989915	0.001061	20.766808
393.127191	-2.986400	3.822400	-11.413000	23.008045	0.001062	20.781654
394.125948	-3.000500	3.822600	-11.469000	23.007748	0.001059	20.789891
395.126893	-3.002300	3.821600	-11.472000	22.995218	0.001062	20.766431
396.125709	-3.019500	3.820400	-11.534000	23.004091	0.001062	20.774848
397.125775	-3.016900	3.820900	-11.526000	23.013477	0.001061	20.785200
398.128932	-2.979700	3.822000	-11.387000	23.001345	0.001063	20.793907
399.125774	-2.995200	3.818700	-11.436000	23.016735	0.001062	20.766653
400.125148	-2.978500	3.820600	-11.378000	23.009214	0.001066	20.772393
401.130935	-2.982700	3.820600	-11.395000	23.006374	0.001062	20.785670
402.127632	-2.986200	3.821100	-11.408000	23.009088	0.001062	20.763733
403.127915	-2.993100	3.819600	-11.431000	23.017778	0.001066	20.780026
404.127057	-3.000600	3.819700	-11.461000	23.015286	0.001067	20.766150
405.130240	-3.010600	3.820400	-11.500000	23.042357	0.001066	20.765772
406.130756	-2.997500	3.819300	-11.447000	23.036657	0.001067	20.772864
407.131344	-2.991100	3.818900	-11.421000	23.042633	0.001064	20.760359
408.131514	-3.008500	3.816500	-11.482000	23.029609	0.001065	20.778604
409.130722	-2.992400	3.818300	-11.425000	23.018172	0.001067	20.789904
410.131813	-3.005500	3.818500	-11.476000	23.009331	0.001063	20.760657
411.132597	-2.989000	3.818100	-11.412000	23.012594	0.001067	20.762029
412.132582	-3.007200	3.816200	-11.475000	23.001684	0.001068	20.777177
413.132171	-3.013500	3.815900	-11.498000	23.033215	0.001068	20.762302
414.138106	-3.004200	3.816100	-11.464000	23.025070	0.001069	20.765046
415.130570	-3.007900	3.816400	-11.479000	23.054037	0.001070	20.760880
416.137177	-2.994400	3.815200	-11.423000	23.053362	0.001072	20.773481
417.137322	-3.004400	3.815200	-11.461000	23.067781	0.001069	20.755685
418.133245	-2.997800	3.815800	-11.437000	23.069276	0.001074	20.761925
419.138126	-2.997900	3.815500	-11.438000	23.095872	0.001073	20.768185
420.139572	-2.987100	3.816700	-11.400000	23.085461	0.001071	20.778617
421.134610	-3.000900	3.815100	-11.447000	23.083142	0.001071	20.766809
422.137240	-2.995300	3.814100	-11.424000	23.093627	0.001073	20.773049
423.138674	-3.009900	3.815200	-11.483000	23.112003	0.001073	20.774392
424.134551	-3.007000	3.813700	-11.467000	23.123388	0.001074	20.778214
425.137992	-3.007400	3.814500	-11.471000	23.130687	0.001075	20.758501
426.137587	-2.997200	3.812900	-11.427000	23.132626	0.001071	20.755228
427.135047	-2.991400	3.815000	-11.411000	23.130633	0.001075	20.759869
428.140270	-3.008500	3.812100	-11.467000	23.120621	0.001076	20.771174
429.137614	-3.004500	3.813200	-11.455000	23.148237	0.001074	20.769449
430.135370	-3.001600	3.813600	-11.446000	23.161934	0.001075	20.770846
431.136194	-3.012900	3.811600	-11.483000	23.153345	0.001075	20.767456
432.143234	-3.007900	3.813000	-11.468000	23.187564	0.001076	20.759072
433.137032	-3.000000	3.813800	-11.440000	23.179441	0.001076	20.761837
434.140734	-2.995700	3.811400	-11.417000	23.166389	0.001075	20.749706
435.144146	-2.994100	3.810900	-11.409000	23.131676	0.001075	20.775613
436.134846	-3.000900	3.811700	-11.437000	23.153986	0.001076	20.760037
437.142671	-3.044400	3.809200	-11.596000	23.129482	0.001076	20.757293
438.138441	-3.000600	3.810400	-11.432000	23.132396	0.001077	20.766378
439.137835	-2.996900	3.810600	-11.419000	23.126517	0.001077	20.769495
440.141663	-2.996300	3.810300	-11.417000	23.141236	0.001078	20.770968
441.142337	-2.992800	3.809600	-11.399000	23.172214	0.001077	20.755543
442.137080	-3.019700	3.810800	-11.506000	23.166586	0.001078	20.763180
443.143697	-3.014200	3.808900	-11.480000	23.178914	0.001078	20.763206
444.142186	-3.006800	3.809000	-11.450000	23.171042	0.001079	20.760059
445.139323	-3.000400	3.809700	-11.430000	23.165288	0.001079	20.739594
446.140055	-3.020600	3.807600	-11.501000	23.160234	0.001080	20.744961
447.141402	-3.007500	3.808600	-11.453000	23.184240	0.001080	20.753370
448.140066	-2.980300	3.807900	-11.347000	23.166758	0.001084	20.734428
449.142707	-2.994600	3.809300	-11.407000	23.186681	0.001081	20.730211
450.141205	-2.992600	3.808000	-11.395000	23.221741	0.001080	20.760130
451.138510	-2.971000	3.808200	-11.314000	23.219748	0.001078	20.744856
452.140752	-3.015600	3.806500	-11.478000	23.232447	0.001077	20.750945
453.146586	-2.997700	3.806300	-11.408000	23.222142	0.001082	20.751998
454.137850	-2.977400	3.809400	-11.341000	23.210879	0.001083	20.741184
455.144930	-2.998100	3.807300	-11.414000	23.224400	0.001084	20.742880
456.142732	-3.000300	3.805100	-11.414000	23.236777	0.001082	20.730627
457.141142	-3.008300	3.806600	-11.450000	23.257490	0.001084	20.737635
458.144046	-3.006400	3.805100	-11.438000	23.222604	0.001082	20.730648
459.144227	-2.968100	3.806500	-11.297000	23.217173	0.001084	20.738957
460.139505	-2.979100	3.805600	-11.336000	23.228407	0.001083	20.735041
461.145247	-3.005400	3.804800	-11.434000	23.230224	0.001085	20.733543
462.141677	-3.000500	3.805000	-11.416000	23.240931	0.001085	20.764188
463.139925	-3.002600	3.804400	-11.423000	23.227181	0.001084	20.737606
464.146355	-3.012700	3.805200	-11.462000	23.220707	0.001083	20.755775
465.141690	-2.980900	3.803600	-11.338000	23.213208	0.001085	20.746363
466.142448	-3.002700	3.804100	-11.422000	23.225912	0.001085	20.742498
467.149591	-3.014000	3.802400	-11.460000	23.231288	0.001085	20.725126
468.143578	-3.008000	3.801700	-11.435000	23.241296	0.001086	20.722827
469.143574	-2.989600	3.801900	-11.365000	23.248622	0.001085	20.727799
470.141346	-2.996900	3.800700	-11.389000	23.238855	0.001086	20.735554
471.142847	-2.993600	3.802700	-11.382000	23.239303	0.001086	20.736477
472.139781	-2.988600	3.803000	-11.365000	23.215051	0.001086	20.732562
473.143828	-3.010500	3.801100	-11.443000	23.225979	0.001086	20.741618
474.143037	-3.002300	3.802300	-11.415000	23.221625	0.001088	20.753375
475.144357	-2.997300	3.800300	-11.390000	23.215599	0.001088	20.739276
476.141290	-3.018100	3.800000	-11.468000	23.243012	0.001087	20.739721
477.144132	-2.990600	3.800500	-11.365000	23.273070	0.001088	20.720057
478.143062	-3.003300	3.798900	-11.408000	23.282357	0.001089	20.724623
479.144855	-3.018100	3.798800	-11.463000	23.296228	0.001089	20.740896
480.147592	-3.002400	3.799100	-11.405000	23.272673	0.001089	20.738152
481.144579	-3.000700	3.799400	-11.399000	23.273397	0.001089	20.727971
482.143972	-3.005900	3.799000	-11.418000	23.250411	0.001090	20.718685
483.147866	-3.022700	3.798100	-11.478000	23.244859	0.001088	20.733510
484.147586	-2.987800	3.799300	-11.349000	23.246052	0.001090	20.724749
485.144875	-2.987300	3.798000	-11.345000	23.244808	0.001090	20.723028
486.145804	-2.986600	3.797900	-11.342000	23.254074	0.001089	20.718089
487.146845	-2.990400	3.797000	-11.354000	23.288361	0.001087	20.719260
488.148641	-2.982400	3.799400	-11.329000	23.291723	0.001089	20.752028
489.148169	-3.002400	3.796300	-11.397000	23.320532	0.001091	20.735382
490.146597	-2.991900	3.797800	-11.362000	23.326335	0.001090	20.722231
491.150894	-2.998700	3.796500	-11.383000	23.316747	0.001091	20.737753
492.156016	-3.015600	3.795200	-11.445000	23.313482	0.001089	20.724996
493.149667	-2.980500	3.796300	-11.314000	23.318393	0.001091	20.744144
494.151050	-2.981500	3.795700	-11.316000	23.324392	0.001093	20.723603
495.156214	-2.979500	3.794600	-11.305000	23.330794	0.001092	20.714845
496.153814	-3.007800	3.795700	-11.416000	23.362164	0.001092	20.733959
497.153058	-3.016400	3.792600	-11.439000	23.360792	0.001091	20.733057
498.155408	-3.007700	3.795000	-11.413000	23.383449	0.001093	20.731110
499.151914	-3.004600	3.793700	-11.397000	23.368390	0.001091	20.719809
500.155591	-2.977100	3.794600	-11.296000	23.377106	0.001094	20.720485
501.158836	-2.993800	3.792500	-11.353000	23.344112	0.001094	20.737677
502.155979	-2.986900	3.793100	-11.328000	23.308651	0.001094	20.723947
503.155495	-3.011800	3.792800	-11.421000	23.291694	0.001095	20.742042
504.161836	-3.015900	3.793600	-11.441000	23.296002	0.001093	20.726918
505.157135	-2.999900	3.792500	-11.376000	23.284124	0.001092	20.733506
506.156405	-3.001700	3.791800	-11.379000	23.315651	0.001094	20.721480
507.161449	-3.012600	3.792200	-11.424000	23.328077	0.001095	20.720183
508.155117	-2.996100	3.792800	-11.362000	23.361541	0.001094	20.733334
509.159222	-3.001200	3.790300	-11.374000	23.392463	0.001093	20.716910
510.164341	-2.991700	3.791600	-11.342000	23.376005	0.001096	20.735030
511.160675	-2.999400	3.791100	-11.371000	23.392609	0.001094	20.736499
512.160614	-2.988100	3.789200	-11.322000	23.404311	0.001096	20.721199
513.167227	-3.012700	3.789000	-11.414000	23.429140	0.001097	20.752251
514.161448	-2.982600	3.788800	-11.298000	23.463593	0.001095	20.731782
515.159588	-3.012500	3.789000	-11.414000	23.434565	0.001095	20.744887
516.165590	-3.013200	3.789300	-11.417000	23.447563	0.001095	20.735630
517.161084	-3.012300	3.788000	-11.409000	23.467854	0.001098	20.720406
518.163110	-2.992700	3.789200	-11.339000	23.454383	0.001097	20.734879
519.166878	-2.997400	3.788700	-11.355000	23.445994	0.001097	20.731685
520.166121	-2.990700	3.787300	-11.325000	23.427294	0.001096	20.738546
521.161028	-3.004000	3.788300	-11.378000	23.395774	0.001098	20.744887
522.167121	-2.984400	3.787400	-11.302000	23.393957	0.001097	20.727892
523.163095	-3.003000	3.787100	-11.371000	23.403888	0.001096	20.736897
524.162474	-2.995200	3.786900	-11.342000	23.384718	0.001097	20.725269
525.166587	-3.012300	3.785900	-11.404000	23.380929	0.001096	20.725265
526.166027	-2.989700	3.785500	-11.317000	23.418151	0.001097	20.722743
527.167380	-3.003600	3.786600	-11.371000	23.400945	0.001096	20.714506
528.171259	-3.010100	3.786800	-11.398000	23.408564	0.001098	20.742059
529.169364	-3.027600	3.783900	-11.455000	23.432443	0.001099	20.728060
530.168332	-3.003600	3.785900	-11.370000	23.426386	0.001101	20.751862
531.171962	-2.998400	3.785700	-11.350000	23.460349	0.001099	20.739437
532.170798	-3.000400	3.784600	-11.354000	23.478228	0.001096	20.736021
533.165150	-3.015000	3.782800	-11.403000	23.484696	0.001098	20.750091
534.170403	-2.989400	3.783800	-11.309000	23.520621	0.001098	20.746272
535.170554	-2.992900	3.783400	-11.323000	23.497966	0.001100	20.731149
536.169703	-3.014300	3.783200	-11.403000	23.486312	0.001098	20.733692
537.166393	-3.005200	3.782900	-11.368000	23.493382	0.001097	20.742676
538.169095	-3.004000	3.783800	-11.365000	23.507674	0.001099	20.736613
539.169874	-3.003400	3.783400	-11.362000	23.505527	0.001096	20.746315
540.171634	-2.994600	3.782600	-11.327000	23.500173	0.001097	20.730990
541.169690	-2.995500	3.783400	-11.332000	23.500646	0.001100	20.722455
542.168473	-3.000600	3.782400	-11.349000	23.516528	0.001098	20.750704
543.172443	-3.021700	3.781600	-11.426000	23.531342	0.001098	20.749907
544.168821	-2.965100	3.781300	-11.210000	23.534054	0.001100	20.747885
545.171658	-2.999600	3.780200	-11.336000	23.540974	0.001101	20.733483
546.172983	-3.036100	3.779300	-11.473000	23.525314	0.001100	20.713043
547.174771	-3.001800	3.780400	-11.347000	23.540149	0.001101	20.759685
548.173124	-3.011600	3.780300	-11.384000	23.519136	0.001102	20.740042
549.172507	-3.011600	3.779700	-11.381000	23.529019	0.001101	20.736673
550.173899	-2.998800	3.778300	-11.329000	23.537006	0.001101	20.740886
551.172267	-3.005100	3.779900	-11.357000	23.538873	0.001100	20.753189
552.175234	-3.014700	3.777900	-11.388000	23.539744	0.001101	20.743156
553.173114	-2.992500	3.778600	-11.306000	23.530979	0.001103	20.733895
554.172153	-2.994700	3.777900	-11.313000	23.548899	0.001103	20.731945
555.174645	-2.991900	3.777400	-11.301000	23.561745	0.001101	20.763790
556.172842	-2.998800	3.778100	-11.328000	23.562394	0.001104	20.747844
557.171660	-3.015500	3.775700	-11.384000	23.566973	0.001101	20.735364
558.172967	-3.001900	3.778600	-11.341000	23.558710	0.001100	20.743677
559.173538	-2.994300	3.777200	-11.308000	23.563236	0.001103	20.761016
560.174127	-2.996000	3.777200	-11.316000	23.596868	0.001101	20.744945
561.176322	-3.003100	3.774800	-11.335000	23.607618	0.001102	20.740073
562.174732	-2.996400	3.776400	-11.315000	23.612573	0.001102	20.769224
563.175490	-3.009400	3.774700	-11.358000	23.623251	0.001103	20.733460
564.174976	-3.013100	3.774400	-11.371000	23.650834	0.001103	20.755897
565.174815	-3.020700	3.773100	-11.396000	23.652600	0.001102	20.745340
566.174370	-2.985500	3.774500	-11.267000	23.645824	0.001104	20.756565
567.172096	-3.007200	3.773500	-11.346000	23.656627	0.001103	20.756015
568.174896	-3.003200	3.774300	-11.333000	23.656702	0.001101	20.743762
569.174996	-3.004900	3.774600	-11.341000	23.663223	0.001104	20.750774
570.174139	-3.014100	3.771600	-11.367000	23.671632	0.001103	20.749721
571.175745	-3.019700	3.772200	-11.389000	23.689977	0.001103	20.763372
572.174496	-3.001300	3.772200	-11.319000	23.707350	0.001103	20.750918
573.176288	-3.005600	3.771800	-11.336000	23.697888	0.001103	20.754233
574.173364	-2.994500	3.772100	-11.294000	23.713993	0.001103	20.748568
575.175974	-3.015100	3.772000	-11.372000	23.717651	0.001103	20.720940
576.172333	-2.994500	3.771200	-11.291000	23.701843	0.001102	20.743025
577.177348	-3.000500	3.770500	-11.313000	23.702789	0.001102	20.766259
578.179369	-2.988100	3.770900	-11.266000	23.707891	0.001103	20.747192
579.178648	-3.008500	3.770100	-11.342000	23.719664	0.001102	20.750935
580.179493	-3.000300	3.770200	-11.311000	23.723845	0.001103	20.738057
581.178461	-3.002300	3.769900	-11.317000	23.743532	0.001104	20.767754
582.176133	-2.996400	3.770700	-11.297000	23.732952	0.001104	20.749085
583.175474	-2.997700	3.769200	-11.298000	23.742310	0.001102	20.754200
584.175561	-2.992200	3.770000	-11.279000	23.755251	0.001103	20.768597
585.175869	-3.006600	3.768700	-11.331000	23.739720	0.001103	20.761086
586.174704	-2.988700	3.768900	-11.263000	23.724486	0.001102	20.753873
587.176495	-3.003200	3.767500	-11.313000	23.715651	0.001102	20.755921
588.180286	-2.984400	3.769200	-11.246000	23.718986	0.001105	20.774438
589.177000	-2.992800	3.767500	-11.274000	23.731873	0.001102	20.765547
590.175653	-2.996500	3.767800	-11.289000	23.724859	0.001102	20.767049
591.176294	-2.989600	3.767900	-11.263000	23.755548	0.001102	20.754670
592.176738	-2.990500	3.768300	-11.268000	23.772469	0.001104	20.758359
593.179961	-3.009800	3.766400	-11.334000	23.787405	0.001103	20.768594
594.178229	-3.014800	3.766300	-11.353000	23.809975	0.001103	20.751394
595.180521	-2.977600	3.766500	-11.214000	23.809699	0.001102	20.763446
596.179234	-2.998600	3.764900	-11.289000	23.791034	0.001100	20.760852
597.179059	-2.994300	3.764300	-11.271000	23.826153	0.001102	20.762875
598.177949	-2.987100	3.764800	-11.244000	23.832122	0.001103	20.765066
599.181314	-3.000500	3.764900	-11.295000	23.808728	0.001104	20.769585
600.181819	-3.018700	3.763600	-11.360000	23.804196	0.001104	20.763618
601.181402	-3.001000	3.763600	-11.294000	23.806213	0.001102	20.736242
602.182030	-3.016000	3.762000	-11.345000	23.783614	0.001102	20.775698
603.185458	-2.999700	3.763400	-11.289000	23.750582	0.001104	20.790943
604.182456	-2.986100	3.764100	-11.239000	23.743857	0.001102	20.777088
605.184158	-2.999000	3.763100	-11.284000	23.766883	0.001104	20.789269
606.181806	-2.994000	3.764500	-11.270000	23.785126	0.001105	20.760618
607.182582	-2.976100	3.763000	-11.198000	23.774048	0.001103	20.794082
608.182899	-3.010000	3.761400	-11.320000	23.740715	0.001103	20.778679
609.188270	-3.011900	3.762200	-11.330000	23.775141	0.001102	20.773841
610.183235	-2.990800	3.762200	-11.251000	23.770885	0.001099	20.771944
611.182267	-2.995000	3.761800	-11.265000	23.752362	0.001104	20.778503
612.183033	-3.017700	3.760900	-11.347000	23.776083	0.001102	20.778579
613.184016	-2.990700	3.761400	-11.249000	23.796489	0.001103	20.784340
614.187234	-3.014400	3.759900	-11.332000	23.818418	0.001102	20.787835
615.184920	-3.006400	3.759600	-11.302000	23.820929	0.001105	20.797466
616.187356	-3.003300	3.759100	-11.289000	23.825583	0.001105	20.777001
617.186534	-2.994600	3.759000	-11.256000	23.841707	0.001104	20.762823
618.186950	-3.013100	3.758300	-11.322000	23.865254	0.001102	20.775054
619.188540	-3.019500	3.758600	-11.348000	23.871703	0.001104	20.760183
620.188469	-2.992500	3.759300	-11.249000	23.867493	0.001105	20.786783
621.188484	-2.999400	3.759500	-11.274000	23.879834	0.001101	20.798683
622.187719	-3.002800	3.756600	-11.279000	23.854475	0.001102	20.769461
623.188720	-3.012300	3.756200	-11.314000	23.844645	0.001103	20.793744
624.189193	-2.992700	3.758700	-11.248000	23.869230	0.001101	20.773352
625.191136	-3.003100	3.756200	-11.279000	23.839640	0.001103	20.786355
626.188561	-3.000700	3.756200	-11.271000	23.812141	0.001106	20.768265
627.189266	-3.033000	3.755600	-11.389000	23.804893	0.001103	20.789448
628.188140	-3.000500	3.756800	-11.271000	23.795167	0.001102	20.788230
629.189374	-3.001100	3.755300	-11.268000	23.786354	0.001105	20.788877
630.193475	-3.013600	3.753800	-11.311000	23.795289	0.001103	20.806370
631.189833	-3.003600	3.755200	-11.279000	23.798026	0.001100	20.757431
632.189838	-2.996500	3.754000	-11.248000	23.821968	0.001102	20.761997
633.189816	-2.991400	3.754600	-11.231000	23.813309	0.001102	20.795041
634.188973	-2.999100	3.754400	-11.259000	23.818435	0.001101	20.784060
635.190499	-2.988200	3.754800	-11.219000	23.816272	0.001102	20.795167
636.193906	-2.994300	3.753100	-11.237000	23.820746	0.001099	20.798230
637.191849	-3.005600	3.751900	-11.276000	23.833045	0.001104	20.800131
638.191475	-3.023500	3.750800	-11.339000	23.840808	0.001104	20.788474
639.192266	-2.984300	3.753500	-11.201000	23.862736	0.001102	20.799082
640.192924	-3.002500	3.751300	-11.262000	23.819725	0.001103	20.790094
641.195121	-2.986500	3.753300	-11.208000	23.834062	0.001102	20.786926
642.193072	-2.996900	3.753000	-11.246000	23.801554	0.001103	20.776142
643.197378	-2.994800	3.752000	-11.236000	23.805015	0.001100	20.797156
644.192493	-3.002600	3.751700	-11.263000	23.785623	0.001103	20.822282
645.193944	-2.999500	3.751800	-11.252000	23.796059	0.001101	20.803823
646.194407	-2.991700	3.749600	-11.217000	23.813724	0.001101	20.825328
647.193174	-2.976900	3.751200	-11.166000	23.827513	0.001101	20.796007
648.194009	-3.006100	3.749500	-11.271000	23.831371	0.001101	20.816945
649.193758	-2.965400	3.751200	-11.122000	23.832987	0.001101	20.812875
650.194504	-3.013300	3.750400	-11.299000	23.861109	0.001103	20.817365
651.194757	-3.000100	3.750800	-11.252000	23.876341	0.001101	20.781904
652.196705	-3.003100	3.749000	-11.258000	23.886346	0.001101	20.801420
653.194952	-2.989000	3.748900	-11.204000	23.891795	0.001101	20.819211
654.195387	-3.003300	3.747700	-11.254000	23.891870	0.001100	20.794157
655.194650	-2.992000	3.749300	-11.216000	23.866335	0.001101	20.810278
656.194387	-2.994600	3.746900	-11.219000	23.859092	0.001101	20.798747
657.197242	-3.014900	3.748300	-11.299000	23.847743	0.001101	20.809179
658.194851	-2.993600	3.747300	-11.217000	23.873353	0.001098	20.817789
659.198759	-3.003400	3.748400	-11.257000	23.862574	0.001101	20.793230
660.196059	-2.990200	3.745900	-11.200000	23.883530	0.001100	20.818511
661.198519	-2.998400	3.747100	-11.235000	23.918772	0.001101	20.809279
662.200201	-3.000300	3.746700	-11.241000	23.925363	0.001100	20.816837
663.198995	-3.010500	3.745200	-11.274000	23.931460	0.001100	20.832433
664.199211	-3.000600	3.744500	-11.235000	23.916229	0.001100	20.827117
665.198878	-2.994800	3.744700	-11.213000	23.908044	0.001102	20.821754
666.199521	-3.012200	3.744900	-11.279000	23.907445	0.001099	20.809301
667.199583	-2.993800	3.745200	-11.211000	23.929569	0.001101	20.826743
668.201280	-3.014300	3.744700	-11.287000	23.924443	0.001098	20.807379
669.199300	-3.006000	3.745100	-11.256000	23.896122	0.001101	20.820705
670.201439	-3.015500	3.744500	-11.291000	23.879697	0.001100	20.822253
671.198766	-2.997300	3.743200	-11.219000	23.893578	0.001099	20.839017
672.199614	-3.016200	3.742800	-11.288000	23.903462	0.001101	20.824272
673.205089	-3.007300	3.741900	-11.251000	23.873467	0.001099	20.830231
674.200387	-2.996000	3.744200	-11.217000	23.899951	0.001104	20.813166
675.200695	-3.006100	3.741500	-11.246000	23.894925	0.001099	20.823773
676.201648	-2.998500	3.742400	-11.221000	23.896541	0.001099	20.834875
677.201315	-2.986300	3.742700	-11.175000	23.933147	0.001098	20.823219
678.202169	-3.004400	3.741100	-11.239000	23.909208	0.001099	20.845206
679.205851	-2.997300	3.740800	-11.210000	23.894520	0.001099	20.851815
680.202007	-3.022900	3.740600	-11.306000	23.891214	0.001097	20.848974
681.202874	-3.005800	3.740000	-11.241000	23.909053	0.001100	20.833672
682.203918	-3.018900	3.738700	-11.285000	23.916619	0.001099	20.844103
683.203140	-2.983300	3.741100	-11.160000	23.896730	0.001100	20.847393
684.205819	-3.010600	3.740200	-11.259000	23.921544	0.001097	20.840981
685.204184	-3.010100	3.738100	-11.251000	23.968899	0.001096	20.825407
686.204961	-3.003900	3.739500	-11.232000	23.971787	0.001098	20.833043
687.204304	-3.012900	3.737600	-11.260000	23.992591	0.001101	20.837785
688.204633	-3.010600	3.738200	-11.254000	23.979423	0.001097	20.835486
689.208014	-2.982300	3.737300	-11.144000	23.993780	0.001099	20.843718
690.204073	-3.007300	3.738600	-11.242000	24.012516	0.001098	20.842120
691.205505	-3.014100	3.736900	-11.261000	23.997290	0.001098	20.834911
692.205679	-3.016200	3.737600	-11.272000	24.000696	0.001099	20.831689
693.205832	-2.983500	3.737900	-11.151000	24.021700	0.001098	20.831416
694.206608	-3.003800	3.736200	-11.222000	24.047428	0.001096	20.842993
695.206543	-3.020000	3.735700	-11.280000	24.037274	0.001097	20.842766
696.206955	-2.999900	3.735800	-11.205000	24.095279	0.001098	20.879127
697.206336	-2.996700	3.736300	-11.195000	24.061336	0.001095	20.840345
698.204874	-2.967400	3.736800	-11.087000	24.082586	0.001096	20.840320
699.207889	-2.976400	3.735900	-11.118000	24.087163	0.001096	20.861505
700.209268	-3.020700	3.733300	-11.277000	24.068947	0.001097	20.856038
701.207847	-2.994500	3.735000	-11.183000	24.053872	0.001097	20.835705
702.208291	-3.008800	3.734900	-11.235000	24.035730	0.001095	20.852597
703.207549	-3.022200	3.734800	-11.286000	24.057156	0.001092	20.861757
704.207027	-3.007000	3.734900	-11.228000	24.062629	0.001095	20.842116
705.209630	-3.006900	3.733900	-11.226000	24.070817	0.001095	20.877352
706.207876	-3.005100	3.733000	-11.216000	24.084875	0.001095	20.843564
707.210630	-2.988600	3.733800	-11.158000	24.084427	0.001095	20.866821
708.208473	-3.010100	3.732200	-11.234000	24.078603	0.001096	20.868093
709.208538	-2.973200	3.733000	-11.098000	24.080319	0.001096	20.849900
710.212948	-2.996500	3.731600	-11.180000	24.073378	0.001097	20.860007
711.209562	-3.027100	3.730800	-11.292000	24.103710	0.001092	20.859609
712.212918	-3.005800	3.731000	-11.213000	24.104752	0.001095	20.857335
713.209241	-3.007500	3.732000	-11.223000	24.118215	0.001097	20.848553
714.209203	-2.985000	3.730600	-11.135000	24.104108	0.001092	20.839620
715.211955	-3.000100	3.731600	-11.194000	24.124612	0.001093	20.855442
716.209037	-3.008500	3.730100	-11.221000	24.115425	0.001092	20.860927
717.209431	-2.986500	3.730800	-11.141000	24.122370	0.001093	20.865047
718.210701	-2.962700	3.732400	-11.057000	24.113337	0.001094	20.872582
719.210391	-3.010300	3.729600	-11.226000	24.122245	0.001092	20.868714
720.211279	-2.986000	3.729200	-11.134000	24.104803	0.001091	20.865445
721.212872	-3.002400	3.728400	-11.193000	24.125604	0.001092	20.880617
722.211787	-2.997700	3.729900	-11.179000	24.138594	0.001093	20.862353
723.211901	-3.014800	3.730100	-11.243000	24.167030	0.001092	20.851994
724.212360	-2.986900	3.730400	-11.141000	24.144464	0.001090	20.865395
725.213218	-3.014100	3.728900	-11.237000	24.098954	0.001093	20.886605
726.217358	-2.992600	3.727600	-11.154000	24.099602	0.001093	20.870661
727.215167	-2.995300	3.728600	-11.167000	24.081189	0.001092	20.862626
728.216522	-3.010300	3.727800	-11.221000	24.101619	0.001092	20.853718
729.215014	-3.010700	3.726900	-11.220000	24.116224	0.001093	20.828538
730.216130	-3.006500	3.726200	-11.202000	24.127746	0.001092	20.861430
731.217022	-3.011300	3.726400	-11.220000	24.119286	0.001092	20.866695
732.216431	-3.021800	3.724900	-11.256000	24.113936	0.001091	20.874605
733.218994	-2.997800	3.726800	-11.169000	24.122298	0.001093	20.839846
734.216657	-3.015600	3.725500	-11.234000	24.122893	0.001090	20.839020
735.216799	-3.004100	3.724600	-11.188000	24.128591	0.001088	20.851372
736.220615	-2.986100	3.725100	-11.123000	24.138594	0.001092	20.856663
737.215822	-3.020600	3.724700	-11.249000	24.139042	0.001092	20.852371
738.216666	-3.002900	3.725300	-11.186000	24.151086	0.001088	20.863028
739.216746	-2.995100	3.723500	-11.151000	24.177413	0.001092	20.848657
740.216654	-2.999300	3.724900	-11.171000	24.178978	0.001088	20.848330
741.217183	-3.005500	3.723700	-11.189000	24.153353	0.001089	20.835906
742.218514	-3.016200	3.722800	-11.227000	24.091895	0.001088	20.851078
743.216665	-3.012800	3.722700	-11.214000	24.101325	0.001089	20.857217
744.217675	-2.991800	3.721400	-11.133000	24.087292	0.001089	20.850256
745.219339	-2.986100	3.723300	-11.116000	24.100455	0.001089	20.844490
746.218552	-3.004000	3.721500	-11.178000	24.104806	0.001089	20.839846
747.223671	-2.998000	3.721900	-11.157000	24.125214	0.001086	20.857468
748.218884	-2.986000	3.722400	-11.115000	24.146334	0.001087	20.833607
749.220417	-3.023500	3.720900	-11.250000	24.125060	0.001086	20.861106
750.220265	-3.023800	3.721300	-11.251000	24.144049	0.001089	20.859289
751.220838	-3.026800	3.721300	-11.262000	24.169870	0.001087	20.843937
752.222941	-3.003800	3.719400	-11.171000	24.176714	0.001087	20.834681
753.223013	-3.000500	3.721300	-11.162000	24.203209	0.001087	20.845607
754.222569	-2.994500	3.719900	-11.137000	24.215299	0.001088	20.830708
755.223954	-2.996300	3.719400	-11.144000	24.191093	0.001086	20.837723
756.224272	-3.023000	3.719100	-11.241000	24.141209	0.001086	20.844587
757.225014	-3.003200	3.719500	-11.168000	24.129361	0.001087	20.828438
758.225705	-2.983600	3.719300	-11.096000	24.132298	0.001084	20.838021
759.224733	-2.993900	3.719100	-11.133000	24.139736	0.001084	20.818930
760.226398	-2.993000	3.718200	-11.128000	24.155738	0.001088	20.857263
761.224436	-3.014000	3.717700	-11.204000	24.186337	0.001084	20.834849
762.224998	-2.994800	3.717800	-11.133000	24.205125	0.001085	20.847055
763.227332	-3.008500	3.717600	-11.184000	24.197607	0.001086	20.828136
764.223952	-2.994500	3.716500	-11.127000	24.199799	0.001086	20.827964
765.224241	-2.989900	3.718400	-11.116000	24.181133	0.001083	20.843854
766.225229	-2.985700	3.717900	-11.099000	24.189199	0.001085	20.834875
767.226744	-3.021300	3.716800	-11.228000	24.214425	0.001083	20.827935
768.227462	-2.999700	3.716100	-11.146000	24.209870	0.001081	20.818624
769.230453	-3.000600	3.716900	-11.152000	24.235743	0.001082	20.823240
770.227436	-3.005300	3.714700	-11.163000	24.220617	0.001083	20.816128
771.227579	-2.998300	3.716200	-11.140000	24.264929	0.001082	20.807945
772.228544	-2.990900	3.716000	-11.113000	24.276321	0.001081	20.813682
773.227457	-3.012400	3.714300	-11.188000	24.249473	0.001081	20.825632
774.232387	-3.005400	3.713800	-11.160000	24.252410	0.001083	20.809612
775.227894	-3.005400	3.715000	-11.165000	24.233799	0.001080	20.822238
776.230751	-3.008100	3.714900	-11.174000	24.268653	0.001082	20.812155
777.228825	-3.028600	3.713100	-11.245000	24.286866	0.001080	20.807665
778.229490	-2.997600	3.713600	-11.131000	24.295174	0.001079	20.805567
779.229549	-2.969800	3.713500	-11.027000	24.295572	0.001079	20.790793
780.229307	-2.995600	3.713200	-11.123000	24.286988	0.001079	20.803994
781.230253	-3.008600	3.712600	-11.169000	24.286268	0.001078	20.805168
782.229711	-3.009500	3.712500	-11.172000	24.270666	0.001081	20.817018
783.229669	-2.990300	3.713600	-11.104000	24.277237	0.001080	20.799903
784.229691	-2.998100	3.712300	-11.128000	24.261760	0.001081	20.810930
785.231174	-3.005500	3.711400	-11.154000	24.216179	0.001079	20.781805
786.230520	-2.983700	3.712500	-11.076000	24.194563	0.001080	20.804694
787.229499	-2.983400	3.712600	-11.075000	24.174583	0.001078	20.811207
788.229774	-2.999100	3.711400	-11.129000	24.165225	0.001079	20.792812
789.229680	-3.015400	3.709500	-11.185000	24.142286	0.001078	20.821961
790.231788	-3.013000	3.710700	-11.179000	24.175973	0.001078	20.816393
791.230910	-2.990800	3.710300	-11.095000	24.197990	0.001076	20.799597
792.234030	-2.987200	3.709800	-11.081000	24.211975	0.001078	20.805089
793.230681	-3.012500	3.709600	-11.174000	24.233373	0.001076	20.815172
794.230444	-3.011200	3.710000	-11.170000	24.212523	0.001077	20.810855
795.234448	-2.977700	3.711100	-11.049000	24.207248	0.001074	20.795606
796.234656	-2.995300	3.709700	-11.111000	24.192568	0.001075	20.799374
797.232305	-3.008500	3.707900	-11.154000	24.213440	0.001078	20.804188
798.231178	-2.996000	3.707800	-11.107000	24.182988	0.001076	20.794981
799.231687	-3.009600	3.707500	-11.157000	24.171868	0.001074	20.790940
800.233221	-3.007800	3.708700	-11.155000	24.165547	0.001077	20.808782
801.234723	-3.002100	3.706400	-11.124000	24.170099	0.001072	20.797700
802.232754	-2.984200	3.709000	-11.067000	24.191397	0.001074	20.819062
803.232898	-2.982700	3.707500	-11.057000	24.167836	0.001075	20.792111
804.234285	-2.989000	3.708200	-11.083000	24.214188	0.001074	20.794033
805.234885	-3.006600	3.705300	-11.139000	24.243547	0.001072	20.816842
806.238804	-3.000000	3.706900	-11.120000	24.230160	0.001073	20.809579
807.235077	-3.014800	3.706800	-11.174000	24.222593	0.001070	20.784446
808.239634	-2.993800	3.705900	-11.094000	24.225630	0.001074	20.808829
809.235628	-2.986200	3.705800	-11.065000	24.239589	0.001072	20.797226
810.234962	-2.994400	3.706000	-11.095000	24.220208	0.001072	20.810977
811.240530	-2.988200	3.706100	-11.073000	24.236008	0.001074	20.797902
812.235527	-2.989800	3.705600	-11.078000	24.254583	0.001074	20.776704
813.234973	-3.001500	3.704500	-11.118000	24.250630	0.001072	20.788860
814.236910	-3.004300	3.705700	-11.132000	24.229935	0.001071	20.799870
815.236970	-2.991600	3.705000	-11.083000	24.227592	0.001072	20.789934
816.235818	-2.993800	3.703400	-11.087000	24.197539	0.001070	20.802463
817.240015	-2.983200	3.704600	-11.051000	24.212913	0.001071	20.785642
818.238143	-2.992500	3.702100	-11.078000	24.222543	0.001070	20.791033
819.238536	-2.991600	3.702600	-11.075000	24.219381	0.001071	20.806828
820.238613	-3.017800	3.702200	-11.172000	24.229705	0.001070	20.781148
821.238315	-2.987200	3.702600	-11.060000	24.241917	0.001068	20.789129
822.238409	-2.977500	3.702900	-11.024000	24.227589	0.001070	20.795146
823.238423	-3.001700	3.702500	-11.113000	24.274787	0.001071	20.777056
824.238984	-3.003000	3.700600	-11.112000	24.261899	0.001069	20.775034
825.238502	-3.009700	3.700500	-11.136000	24.267224	0.001067	20.773263
826.239621	-3.023900	3.699000	-11.185000	24.248961	0.001066	20.788135
827.238245	-2.989200	3.700600	-11.060000	24.264284	0.001068	20.787384
828.239587	-2.994600	3.700900	-11.081000	24.257717	0.001069	20.775580
829.243920	-2.996400	3.700100	-11.085000	24.264904	0.001066	20.776625
830.239570	-2.998600	3.699200	-11.090000	24.285831	0.001067	20.781022
831.239834	-3.026300	3.699100	-11.193000	24.278637	0.001066	20.786608
832.245248	-3.003800	3.699400	-11.111000	24.316949	0.001066	20.795168
833.240177	-3.009900	3.699700	-11.133000	24.309111	0.001068	20.786830
834.241455	-2.981700	3.698700	-11.027000	24.309311	0.001068	20.799360
835.241402	-2.981800	3.699500	-11.030000	24.280796	0.001064	20.792567
836.242356	-3.001700	3.698800	-11.101000	24.271990	0.001066	20.787053
837.240363	-2.978400	3.697900	-11.012000	24.270948	0.001066	20.776999
838.244152	-2.987300	3.699200	-11.049000	24.291869	0.001064	20.799406
839.241177	-2.978600	3.698900	-11.016000	24.301297	0.001063	20.785156
840.243825	-3.016900	3.696700	-11.151000	24.297014	0.001064	20.774696
841.242868	-2.991300	3.698000	-11.060000	24.287142	0.001065	20.767638
842.243346	-2.983500	3.697300	-11.029000	24.272460	0.001063	20.790369
843.246526	-2.973100	3.697400	-10.992000	24.264177	0.001062	20.783957
844.244327	-2.991700	3.696000	-11.056000	24.262064	0.001063	20.776622
845.244694	-3.007500	3.695000	-11.112000	24.262733	0.001061	20.749792
846.245803	-2.999600	3.696300	-11.086000	24.292391	0.001064	20.765317
847.243122	-2.996700	3.694500	-11.070000	24.312040	0.001063	20.769854
848.247463	-3.004900	3.694600	-11.101000	24.324580	0.001058	20.771054
849.245938	-2.993900	3.695100	-11.062000	24.318657	0.001060	20.779337
850.246077	-2.995500	3.695600	-11.069000	24.322045	0.001060	20.768511
851.246378	-2.981200	3.695700	-11.018000	24.306024	0.001060	20.767613
852.247910	-2.997000	3.694000	-11.070000	24.301519	0.001061	20.781586
853.248141	-3.023400	3.692500	-11.163000	24.309257	0.001060	20.761847
854.250066	-3.003200	3.693300	-11.090000	24.352471	0.001061	20.801878
855.248193	-2.990500	3.692500	-11.041000	24.361426	0.001059	20.773403
856.252042	-2.971000	3.694600	-10.976000	24.378238	0.001058	20.776992
857.247886	-2.994400	3.693300	-11.058000	24.377249	0.001059	20.771259
858.248021	-2.997000	3.691800	-11.063000	24.377074	0.001058	20.774402
859.254346	-3.011100	3.693200	-11.120000	24.378789	0.001057	20.755733
860.249504	-3.009700	3.692100	-11.111000	24.379186	0.001057	20.764667
861.247634	-2.999700	3.693000	-11.076000	24.377718	0.001056	20.769358
862.248728	-3.026500	3.691600	-11.172000	24.412472	0.001059	20.760601
863.250535	-3.000800	3.692400	-11.079000	24.404065	0.001054	20.759279
864.249367	-2.988200	3.692400	-11.032000	24.422866	0.001058	20.795211
865.252866	-2.997100	3.692000	-11.064000	24.378266	0.001051	20.729129
866.250277	-2.995700	3.690200	-11.054000	24.375928	0.001056	20.736741
867.250657	-2.990800	3.691200	-11.038000	24.334603	0.001055	20.763564
868.250827	-2.996100	3.691100	-11.057000	24.302908	0.001057	20.762116
869.251011	-3.005200	3.689800	-11.087000	24.304280	0.001055	20.769656
870.253363	-2.991400	3.691000	-11.039000	24.287707	0.001058	20.778637
871.251638	-3.043600	3.687800	-11.222000	24.294823	0.001056	20.752109
872.251882	-2.980400	3.690000	-10.996000	24.274024	0.001056	20.726977
873.251549	-3.005900	3.689700	-11.090000	24.254117	0.001054	20.767702
874.252845	-3.008900	3.687800	-11.095000	24.237999	0.001053	20.764336
875.256725	-3.001400	3.689900	-11.074000	24.256606	0.001053	20.761664
876.255165	-3.009500	3.687000	-11.095000	24.251628	0.001054	20.742920
877.258040	-2.972300	3.688700	-10.962000	24.279417	0.001052	20.757518
878.255538	-3.017600	3.686800	-11.124000	24.293498	0.001051	20.774014
879.256002	-3.012400	3.688100	-11.109000	24.329969	0.001053	20.757493
880.258716	-2.974200	3.687800	-10.968000	24.358848	0.001052	20.741418
881.256701	-2.993200	3.687100	-11.035000	24.383748	0.001052	20.736999
882.258922	-3.004300	3.686600	-11.074000	24.376708	0.001051	20.749378
883.256238	-3.016800	3.685300	-11.116000	24.381288	0.001052	20.759189
884.258400	-2.968200	3.686700	-10.942000	24.412504	0.001050	20.784341
885.258069	-3.020200	3.686100	-11.132000	24.385016	0.001051	20.770515
886.260714	-3.016800	3.684600	-11.114000	24.349935	0.001050	20.769462
887.256619	-3.003800	3.684900	-11.067000	24.379838	0.001048	20.749199
888.257597	-2.987300	3.685100	-11.007000	24.367148	0.001049	20.748796
889.257738	-2.997200	3.684900	-11.043000	24.364165	0.001048	20.740588
890.257559	-2.991100	3.685600	-11.023000	24.402768	0.001049	20.737114
891.260753	-2.983800	3.686100	-10.998000	24.384657	0.001048	20.751663
892.258733	-2.997700	3.684200	-11.043000	24.378438	0.001045	20.741156
893.259138	-2.988200	3.684900	-11.010000	24.379433	0.001046	20.759224
894.258027	-3.021500	3.682900	-11.127000	24.411569	0.001047	20.737883
895.258265	-3.000200	3.682400	-11.047000	24.400502	0.001047	20.735315
896.260254	-3.001000	3.682300	-11.049000	24.427936	0.001049	20.735336
897.258908	-3.002700	3.683200	-11.057000	24.415622	0.001045	20.745269
898.263207	-3.002300	3.682200	-11.054000	24.392538	0.001044	20.734438
899.261182	-2.992300	3.682200	-11.017000	24.352309	0.001047	20.747661
900.260088	-3.025000	3.681000	-11.134000	24.352882	0.001046	20.737804
901.262202	-2.988800	3.682400	-11.004000	24.343429	0.001044	20.743494
902.260273	-3.010900	3.681700	-11.084000	24.368451	0.001045	20.743939
903.260445	-3.024500	3.680000	-11.128000	24.385868	0.001044	20.740548
904.260454	-3.013500	3.682200	-11.094000	24.360516	0.001043	20.734082
905.260786	-2.994300	3.680500	-11.020000	24.380690	0.001044	20.736777
906.261527	-2.991500	3.680800	-11.009000	24.397852	0.001044	20.740717
907.266069	-2.995800	3.680600	-11.026000	24.414720	0.001045	20.732035
908.261863	-2.980100	3.682400	-10.973000	24.415014	0.001044	20.750822
909.261853	-2.998300	3.679300	-11.031000	24.445713	0.001043	20.724247
910.261961	-2.977100	3.679900	-10.954000	24.453672	0.001044	20.736026
911.261857	-2.973300	3.679800	-10.938000	24.452823	0.001045	20.750822
912.264805	-3.006900	3.679800	-11.064000	24.435483	0.001043	20.728209
913.264225	-2.996800	3.678000	-11.021000	24.411182	0.001041	20.743185
914.265483	-2.992500	3.678700	-11.008000	24.406256	0.001044	20.738242
915.264631	-2.993400	3.678800	-11.012000	24.388317	0.001044	20.762447
916.264702	-2.991100	3.677100	-10.997000	24.396677	0.001043	20.740962
917.264333	-2.981400	3.678500	-10.967000	24.409861	0.001040	20.720521
918.265267	-2.981100	3.677000	-10.959000	24.412769	0.001039	20.751889
919.264330	-2.997600	3.677300	-11.022000	24.420205	0.001039	20.740857
920.264622	-2.969600	3.677600	-10.920000	24.412794	0.001042	20.712083
921.266015	-3.014700	3.675900	-11.080000	24.390830	0.001040	20.749321
922.266132	-3.009800	3.675600	-11.062000	24.381775	0.001039	20.744503
923.267232	-2.997400	3.676900	-11.020000	24.390057	0.001039	20.731949
924.266553	-3.000400	3.675900	-11.028000	24.366052	0.001039	20.750542
925.266115	-2.985000	3.675100	-10.969000	24.363438	0.001038	20.718995
926.265182	-2.994200	3.676500	-11.007000	24.386075	0.001041	20.737912
927.265147	-2.978700	3.675800	-10.947000	24.376447	0.001037	20.721614
928.267690	-2.979000	3.674800	-10.946000	24.384879	0.001035	20.709683
929.265935	-2.965500	3.674900	-10.897000	24.405103	0.001039	20.733766
930.268993	-3.019600	3.673400	-11.091000	24.408436	0.001038	20.719092
931.267364	-3.018400	3.673900	-11.089000	24.424803	0.001036	20.741676
932.267774	-2.998500	3.674000	-11.016000	24.409306	0.001037	20.738458
933.269623	-2.990400	3.674400	-10.986000	24.431269	0.001035	20.737258
934.269990	-3.027200	3.673300	-11.119000	24.464574	0.001037	20.728471
935.267484	-3.005500	3.673600	-11.040000	24.469877	0.001036	20.741378
936.268316	-3.015100	3.671900	-11.070000	24.476766	0.001036	20.713675
937.268188	-2.988900	3.671900	-10.974000	24.467886	0.001033	20.733691
938.267849	-2.999200	3.671800	-11.011000	24.488806	0.001034	20.736187
939.269998	-2.993400	3.671200	-10.989000	24.500793	0.001036	20.715970
940.268479	-2.989300	3.672100	-10.975000	24.513227	0.001033	20.746465
941.271035	-3.002000	3.671200	-11.019000	24.481015	0.001033	20.723155
942.267219	-2.971300	3.674000	-10.916000	24.501341	0.001033	20.714623
943.267118	-3.006400	3.669900	-11.032000	24.489103	0.001033	20.726528
944.271390	-2.992900	3.671500	-10.987000	24.518128	0.001032	20.728148
945.267663	-3.012700	3.670200	-11.056000	24.502755	0.001033	20.753028
946.267412	-2.994100	3.671400	-10.991000	24.545588	0.001029	20.735311
947.267658	-2.985600	3.671000	-10.958000	24.550758	0.001034	20.717737
948.267698	-3.000800	3.669700	-11.010000	24.556407	0.001030	20.726251
949.266956	-2.994800	3.670000	-10.990000	24.552602	0.001031	20.725752
950.270649	-2.991200	3.669500	-10.974000	24.558419	0.001032	20.739650
951.266598	-2.999200	3.668300	-11.001000	24.540537	0.001029	20.710801
952.269420	-2.996600	3.668200	-10.991000	24.558273	0.001030	20.743296
953.268342	-3.000500	3.668800	-11.007000	24.547625	0.001031	20.724552
954.268190	-3.014500	3.667600	-11.054000	24.537655	0.001029	20.725454
955.269882	-2.996000	3.668500	-10.990000	24.549022	0.001029	20.740178
956.268894	-2.984100	3.668000	-10.945000	24.550987	0.001029	20.729348
957.271826	-3.001100	3.667000	-11.004000	24.540440	0.001027	20.737732
958.272218	-3.014400	3.665800	-11.048000	24.559443	0.001030	20.740204
959.268968	-3.005200	3.666000	-11.016000	24.576781	0.001027	20.725357
960.270817	-2.980000	3.668700	-10.932000	24.579563	0.001029	20.736209
961.270609	-3.003200	3.667900	-11.014000	24.596976	0.001026	20.738508
962.269544	-2.986400	3.665800	-10.947000	24.605632	0.001027	20.730598
963.268796	-3.008700	3.665200	-11.026000	24.571759	0.001027	20.726007
964.270802	-2.999400	3.665200	-10.992000	24.528182	0.001025	20.758624
965.270741	-2.989100	3.665300	-10.954000	24.515522	0.001025	20.745922
966.271877	-3.011900	3.665100	-11.037000	24.513653	0.001026	20.729348
967.271292	-2.990900	3.664400	-10.959000	24.500174	0.001024	20.746644
968.273449	-2.969300	3.664600	-10.880000	24.485870	0.001025	20.731819
969.272275	-2.987900	3.664100	-10.947000	24.503231	0.001022	20.744970
970.271380	-3.005400	3.665000	-11.013000	24.495272	0.001021	20.734140
971.270913	-2.973400	3.663600	-10.892000	24.512013	0.001023	20.740979
972.271630	-3.001900	3.663900	-10.998000	24.533702	0.001022	20.743300
973.271630	-3.002300	3.663100	-10.995000	24.569940	0.001023	20.728924
974.271143	-3.001900	3.663900	-10.997000	24.555842	0.001019	20.731374
975.272702	-2.980600	3.663000	-10.917000	24.558573	0.001022	20.735537
976.277312	-3.021300	3.662300	-11.063000	24.578822	0.001020	20.760597
977.274672	-2.985100	3.662800	-10.932000	24.590113	0.001021	20.739683
978.276424	-2.992100	3.661400	-10.954000	24.567803	0.001023	20.761394
979.277651	-3.007400	3.661700	-11.011000	24.595186	0.001021	20.733393
980.276080	-2.984600	3.663400	-10.933000	24.593697	0.001020	20.758452
981.279313	-2.994400	3.661300	-10.962000	24.620181	0.001019	20.753732
982.277126	-2.996400	3.661000	-10.969000	24.597825	0.001021	20.764490
983.280015	-3.006600	3.661300	-11.007000	24.590360	0.001022	20.755104
984.280044	-2.987500	3.660600	-10.935000	24.568300	0.001018	20.745772
985.279250	-2.978500	3.661300	-10.905000	24.574766	0.001019	20.744198
986.281507	-2.988500	3.659600	-10.935000	24.592873	0.001018	20.768057
987.279945	-2.979300	3.661300	-10.907000	24.623811	0.001017	20.738882
988.281822	-3.028700	3.657200	-11.076000	24.620453	0.001017	20.744996
989.279994	-2.997600	3.660300	-10.971000	24.640250	0.001018	20.757748
990.281887	-3.001300	3.658400	-10.979000	24.639430	0.001017	20.754080
991.284373	-3.011200	3.658600	-11.015000	24.637712	0.001016	20.773219
992.282038	-2.996300	3.658600	-10.961000	24.625776	0.001019	20.745595
993.284603	-3.008000	3.657800	-11.001000	24.613809	0.001017	20.745915
994.283619	-3.021000	3.657400	-11.047000	24.621917	0.001014	20.763061
995.283535	-2.994600	3.656800	-10.949000	24.603316	0.001016	20.756724
996.288610	-3.008200	3.657400	-11.000000	24.628261	0.001014	20.748089
997.288063	-3.012000	3.657500	-11.015000	24.665093	0.001016	20.746641
998.284632	-2.980800	3.658100	-10.902000	24.685533	0.001016	20.762411
999.284378	-2.991100	3.655500	-10.933000	24.685136	0.001016	20.746364
1000.285703	-3.013500	3.654800	-11.012000	24.697514	0.001012	20.750725
1001.285294	-3.011100	3.656100	-11.008000	24.728728	0.001012	20.756444
1002.287166	-3.004200	3.655100	-10.980000	24.738250	0.001015	20.739446
1003.285182	-3.002800	3.655600	-10.976000	24.719872	0.001011	20.768420
1004.287446	-3.008400	3.655500	-10.996000	24.714997	0.001013	20.759260
1005.283831	-3.008100	3.654400	-10.990000	24.731062	0.001014	20.758312
1006.285491	-2.996900	3.654500	-10.952000	24.769727	0.001012	20.757759
1007.288142	-3.009300	3.654300	-10.996000	24.757815	0.001013	20.751494
1008.285184	-2.983500	3.655200	-10.904000	24.770973	0.001009	20.761380
1009.284837	-3.022700	3.653300	-11.041000	24.742695	0.001012	20.779944
1010.286293	-2.999600	3.652500	-10.954000	24.776890	0.001010	20.762576
1011.287940	-3.006000	3.652300	-10.977000	24.740630	0.001008	20.756534
1012.287433	-2.998900	3.652600	-10.953000	24.769201	0.001011	20.766240
1013.290051	-3.004600	3.652100	-10.972000	24.736678	0.001010	20.754465
1014.288198	-2.996400	3.652100	-10.942000	24.759204	0.001009	20.774700
1015.288902	-2.995100	3.653100	-10.940000	24.746869	0.001009	20.777494
1016.289063	-2.977900	3.652900	-10.877000	24.741371	0.001006	20.768183
1017.288901	-2.991700	3.651600	-10.923000	24.698524	0.001009	20.771653
1018.293109	-3.007500	3.652000	-10.983000	24.712724	0.001005	20.756979
1019.291206	-3.024900	3.650200	-11.039000	24.724411	0.001006	20.756379
1020.291545	-2.988200	3.650900	-10.909000	24.690788	0.001008	20.768632
1021.290563	-3.006000	3.651000	-10.974000	24.670867	0.001007	20.788946
1022.290557	-2.997600	3.651000	-10.943000	24.659180	0.001006	20.759199
1023.293859	-3.013300	3.649000	-10.995000	24.655697	0.001003	20.753333
1024.290762	-3.016800	3.649000	-11.006000	24.668877	0.001008	20.782681
1025.290660	-2.993600	3.649900	-10.925000	24.690115	0.001003	20.767957
1026.291676	-2.999200	3.648000	-10.940000	24.700561	0.001005	20.786026
1027.292964	-3.006100	3.648900	-10.968000	24.702651	0.001004	20.784804
1028.293942	-3.014900	3.649600	-11.002000	24.750345	0.001003	20.776241
1029.294445	-2.995000	3.649100	-10.928000	24.740899	0.001005	20.773873
1030.294179	-3.020600	3.648100	-11.019000	24.754526	0.001003	20.784229
1031.296068	-2.984300	3.649000	-10.888000	24.743859	0.001003	20.786327
1032.292869	-2.981900	3.649300	-10.881000	24.714113	0.001003	20.781133
1033.292899	-3.009400	3.646700	-10.973000	24.689324	0.001002	20.775698
1034.296021	-2.999300	3.646300	-10.934000	24.686887	0.001003	20.787477
1035.293989	-3.018000	3.645300	-11.000000	24.695986	0.001002	20.798504
1036.294639	-2.995800	3.645600	-10.920000	24.712502	0.001000	20.787577
1037.293251	-3.025100	3.645000	-11.025000	24.724215	0.001000	20.775149
1038.296091	-2.995000	3.646000	-10.919000	24.706535	0.000998	20.780167
1039.296997	-2.983300	3.646500	-10.877000	24.674204	0.001000	20.783285
1040.302005	-2.966000	3.647000	-10.816000	24.672188	0.000998	20.758028
1041.300679	-2.981500	3.646300	-10.870000	24.681517	0.000997	20.792520
1042.298450	-2.974100	3.646900	-10.845000	24.701287	0.000999	20.798609
1043.297159	-3.024900	3.644600	-11.023000	24.706163	0.001000	20.785009
1044.299699	-3.021900	3.642900	-11.008000	24.720810	0.000996	20.786431
1045.302147	-2.992500	3.646200	-10.910000	24.745677	0.000997	20.795738
1046.299798	-3.005100	3.643300	-10.948000	24.781686	0.000996	20.788727
1047.299831	-2.992100	3.644400	-10.903000	24.765797	0.000999	20.801231
1048.299478	-2.996700	3.645400	-10.924000	24.784746	0.000999	20.793695
1049.298737	-2.998300	3.643700	-10.923000	24.812128	0.000993	20.786086
1050.301223	-2.995800	3.644100	-10.916000	24.794396	0.000995	20.780145
1051.300273	-2.992600	3.641800	-10.897000	24.813692	0.000997	20.793820
1052.302418	-2.993500	3.643400	-10.905000	24.793050	0.000995	20.798235
1053.301150	-3.005400	3.642200	-10.946000	24.802825	0.000995	20.779121
1054.301537	-3.023200	3.641800	-11.008000	24.768707	0.000994	20.797039
1055.303798	-3.010400	3.640700	-10.960000	24.756276	0.000992	20.813487
1056.302042	-2.983400	3.642700	-10.866000	24.778454	0.000993	20.791647
1057.302756	-2.989200	3.641900	-10.885000	24.788526	0.000993	20.812186
1058.302437	-2.990700	3.642500	-10.892000	24.802052	0.000990	20.799208
1059.303097	-2.990200	3.642100	-10.890000	24.818585	0.000991	20.800627
1060.307894	-3.007600	3.640800	-10.949000	24.846957	0.000990	20.791169
1061.303555	-2.978400	3.640300	-10.841000	24.850439	0.000991	20.806992
1062.304958	-3.014500	3.638800	-10.968000	24.850117	0.000990	20.795764
1063.304448	-2.989400	3.640300	-10.880000	24.840414	0.000991	20.801198
1064.303486	-3.009300	3.638500	-10.948000	24.851778	0.000989	20.811181
1065.304869	-3.025700	3.638100	-11.006000	24.856030	0.000990	20.819715
1066.303542	-2.998800	3.638400	-10.910000	24.806322	0.000992	20.807287
1067.303189	-2.982000	3.637600	-10.847000	24.820446	0.000987	20.818616
1068.304784	-2.998000	3.636800	-10.902000	24.855779	0.000988	20.788644
1069.304966	-3.002900	3.637100	-10.920000	24.855329	0.000985	20.800045
1070.303590	-3.001300	3.638700	-10.920000	24.837573	0.000987	20.799769
1071.305206	-2.986900	3.637500	-10.864000	24.873131	0.000988	20.801317
1072.304918	-2.994500	3.637500	-10.892000	24.872361	0.000988	20.828045
1073.304664	-3.022700	3.635800	-10.988000	24.886481	0.000987	20.838897
1074.304700	-3.030100	3.635400	-11.014000	24.898069	0.000984	20.809751
1075.303877	-2.974700	3.638500	-10.823000	24.879319	0.000986	20.812269
1076.308095	-2.998000	3.635100	-10.897000	24.898066	0.000986	20.795523
1077.305840	-3.037100	3.634600	-11.037000	24.886280	0.000986	20.812618
1078.307491	-3.015500	3.634700	-10.959000	24.862684	0.000983	20.820229
1079.304392	-3.015100	3.633900	-10.955000	24.868725	0.000982	20.819180
1080.305623	-2.994300	3.634900	-10.883000	24.865987	0.000984	20.811217
1081.308520	-3.004500	3.633200	-10.915000	24.878224	0.000983	20.830610
1082.308552	-2.977300	3.636600	-10.827000	24.836273	0.000982	20.833552
1083.306529	-2.998300	3.633900	-10.894000	24.861760	0.000980	20.820251
1084.306706	-3.012600	3.632200	-10.941000	24.871928	0.000982	20.824766
1085.304893	-2.993500	3.634300	-10.878000	24.860264	0.000983	20.823491
1086.309022	-2.993900	3.631600	-10.870000	24.886252	0.000981	20.821124
1087.307298	-3.001300	3.632800	-10.902000	24.886921	0.000980	20.836494
1088.307651	-2.991200	3.632100	-10.862000	24.889405	0.000979	20.822866
1089.307202	-3.015600	3.632300	-10.952000	24.888356	0.000978	20.818020
1090.307720	-2.994700	3.632600	-10.877000	24.853224	0.000978	20.824012
1091.308904	-3.004300	3.632200	-10.910000	24.827687	0.000980	20.831573
1092.308163	-3.023000	3.631500	-10.977000	24.832458	0.000978	20.831620
1093.307248	-3.007500	3.630500	-10.917000	24.799311	0.000979	20.832018
1094.308835	-3.015400	3.631400	-10.948000	24.833131	0.000978	20.846045
1095.307512	-2.989500	3.630400	-10.852000	24.868117	0.000977	20.839432
1096.308536	-2.999300	3.629900	-10.886000	24.872437	0.000977	20.828121
1097.311677	-2.991400	3.630300	-10.859000	24.874649	0.000979	20.842669
1098.308452	-2.987800	3.630300	-10.846000	24.908814	0.000978	20.827647
1099.310451	-3.001300	3.630500	-10.893000	24.899015	0.000978	20.831088
1100.308825	-2.989700	3.630000	-10.851000	24.898145	0.000975	20.831638
1101.309333	-2.993800	3.629100	-10.864000	24.915821	0.000975	20.829939
1102.311662	-2.980200	3.629800	-10.817000	24.910525	0.000975	20.838373
1103.315253	-3.012200	3.627800	-10.926000	24.901874	0.000974	20.831113
1104.310151	-2.998000	3.628800	-10.878000	24.902740	0.000976	20.831983
1105.312693	-3.010100	3.626800	-10.917000	24.913832	0.000975	20.843588
1106.311580	-3.017000	3.626800	-10.941000	24.921215	0.000975	20.819705
1107.311140	-2.999700	3.628700	-10.884000	24.903832	0.000973	20.844932
1108.315269	-3.002200	3.628000	-10.890000	24.914547	0.000973	20.847152
1109.312683	-3.006400	3.625800	-10.899000	24.903184	0.000972	20.820100
1110.313454	-3.011100	3.625600	-10.915000	24.942670	0.000974	20.825118
1111.311940	-3.015700	3.626000	-10.933000	24.945004	0.000973	20.829831
1112.313243	-2.993800	3.626400	-10.856000	24.960521	0.000973	20.843035
1113.313635	-2.987000	3.626800	-10.832000	24.954827	0.000971	20.851070
1114.312904	-3.021100	3.625600	-10.952000	24.976060	0.000971	20.836347
1115.313807	-3.021400	3.625300	-10.953000	24.964000	0.000971	20.844630
1116.313062	-2.990400	3.624700	-10.838000	24.925363	0.000971	20.853265
1117.314683	-3.005300	3.624600	-10.892000	24.880207	0.000971	20.859626
1118.315496	-2.998800	3.624200	-10.867000	24.871109	0.000969	20.844332
1119.317488	-3.016900	3.624200	-10.933000	24.870215	0.000969	20.841537
1120.316286	-3.021500	3.623800	-10.949000	24.899627	0.000969	20.845453
1121.316659	-3.029000	3.622900	-10.972000	24.895572	0.000968	20.851340
1122.314725	-2.996000	3.624800	-10.857000	24.928444	0.000967	20.851616
1123.316463	-3.015300	3.621700	-10.919000	24.936622	0.000965	20.863143
1124.320563	-3.006300	3.622000	-10.888000	24.946070	0.000967	20.858401
1125.317570	-3.007600	3.621900	-10.892000	24.926401	0.000967	20.833919
1126.320100	-2.976100	3.621900	-10.778000	24.943211	0.000967	20.856954
1127.317544	-3.023800	3.619900	-10.945000	24.958306	0.000967	20.864992
1128.317699	-3.027900	3.620700	-10.961000	24.985032	0.000966	20.861472
1129.320815	-3.012400	3.621600	-10.908000	24.971755	0.000965	20.857629
1130.321142	-3.008900	3.621500	-10.896000	24.992665	0.000965	20.857755
1131.317485	-2.995800	3.620700	-10.845000	24.997589	0.000963	20.866016
1132.318669	-2.998700	3.619800	-10.853000	25.004324	0.000963	20.874673
1133.318356	-3.036800	3.619200	-10.989000	25.002835	0.000963	20.856584
1134.318496	-3.018100	3.619500	-10.923000	25.009817	0.000962	20.874971
1135.321146	-3.012700	3.618700	-10.901000	25.042980	0.000964	20.862741
1136.319678	-2.996700	3.620600	-10.849000	25.037437	0.000962	20.863815
1137.324350	-2.998300	3.619600	-10.851000	25.046315	0.000960	20.867510
1138.319000	-2.983000	3.619900	-10.797000	25.053075	0.000959	20.877614
1139.320218	-3.024100	3.617900	-10.939000	25.002209	0.000960	20.874920
1140.322950	-3.010600	3.618200	-10.892000	24.975334	0.000958	20.876867
1141.321864	-2.992200	3.618400	-10.826000	24.967403	0.000961	20.871752
1142.320551	-3.013800	3.617100	-10.900000	24.975037	0.000961	20.863294
1143.321863	-3.004200	3.617000	-10.865000	24.990700	0.000959	20.873800
1144.322285	-3.007000	3.616700	-10.874000	24.973820	0.000959	20.861598
1145.321218	-3.012100	3.615400	-10.889000	24.927399	0.000957	20.870481
1146.322446	-2.990200	3.617000	-10.814000	24.903306	0.000958	20.872851
1147.320673	-3.001400	3.615900	-10.851000	24.870859	0.000956	20.898131
1148.322681	-3.001300	3.614900	-10.848000	24.837169	0.000958	20.876174
1149.323748	-2.993000	3.614800	-10.818000	24.824663	0.000955	20.893019
1150.323773	-2.999600	3.616700	-10.847000	24.817050	0.000956	20.897233
1151.327334	-3.011600	3.614100	-10.882000	24.855866	0.000955	20.857956
1152.324399	-3.008900	3.614700	-10.875000	24.851965	0.000955	20.903349
1153.323903	-3.007400	3.614400	-10.869000	24.878196	0.000953	20.885581
1154.324894	-2.997400	3.614600	-10.833000	24.915668	0.000955	20.880516
1155.325266	-2.987500	3.614300	-10.797000	24.951796	0.000955	20.910138
1156.325918	-2.973000	3.615500	-10.747000	24.967832	0.000955	20.899208
1157.325163	-3.005800	3.613100	-10.859000	24.989763	0.000952	20.872858
1158.325049	-2.989200	3.612600	-10.798000	24.995757	0.000955	20.898788
1159.327666	-3.014300	3.611900	-10.887000	25.028648	0.000951	20.889129
1160.326431	-3.011100	3.612200	-10.876000	25.028998	0.000950	20.879525
1161.332141	-3.015500	3.611300	-10.888000	25.023033	0.000949	20.871167
1162.326994	-2.998600	3.611800	-10.829000	25.058632	0.000949	20.890304
1163.326990	-2.993100	3.610800	-10.807000	25.099060	0.000949	20.893903
1164.326705	-3.010600	3.612400	-10.874000	25.086282	0.000948	20.890559
1165.326288	-3.002900	3.612200	-10.846000	25.076291	0.000950	20.887168
1166.326875	-3.005400	3.611200	-10.851000	25.071192	0.000949	20.883472
1167.328242	-3.009700	3.609600	-10.863000	25.075396	0.000948	20.880107
1168.326531	-2.991900	3.610000	-10.800000	25.073310	0.000948	20.884650
1169.326092	-3.002700	3.608300	-10.834000	25.080596	0.000947	20.884851
1170.326530	-2.990800	3.610200	-10.796000	25.116493	0.000946	20.882481
1171.325957	-2.992000	3.610300	-10.802000	25.092035	0.000944	20.884481
1172.327011	-3.002600	3.609500	-10.836000	25.089871	0.000949	20.874248
1173.327634	-2.988400	3.608800	-10.784000	25.107597	0.000945	20.861224
1174.328769	-3.005900	3.609500	-10.847000	25.101883	0.000946	20.885358
1175.328825	-2.994400	3.608000	-10.802000	25.121223	0.000946	20.884858
1176.328716	-3.016800	3.607100	-10.880000	25.130645	0.000945	20.866817
1177.331140	-3.004800	3.607000	-10.837000	25.114689	0.000944	20.877825
1178.327971	-3.006300	3.607200	-10.844000	25.118167	0.000944	20.872783
1179.329031	-3.006000	3.607500	-10.844000	25.117323	0.000942	20.868616
1180.328502	-3.013700	3.605200	-10.863000	25.091445	0.000940	20.863501
1181.329401	-3.003700	3.605100	-10.827000	25.082843	0.000942	20.884262
1182.329366	-2.967600	3.606000	-10.701000	25.102534	0.000943	20.866098
1183.330430	-2.982500	3.606700	-10.756000	25.069345	0.000940	20.877351
1184.331471	-3.025600	3.605500	-10.908000	25.046078	0.000944	20.868221
1185.334536	-2.984900	3.606200	-10.764000	25.030762	0.000941	20.863278
1186.332443	-2.967900	3.606700	-10.703000	25.057737	0.000943	20.862855
1187.331158	-2.978300	3.604800	-10.736000	25.088367	0.000939	20.850455
1188.335154	-2.983200	3.605000	-10.754000	25.118121	0.000938	20.876055
1189.332168	-2.974000	3.604900	-10.720000	25.087695	0.000939	20.858314
1190.335482	-2.993000	3.605100	-10.789000	25.114120	0.000938	20.878677
1191.332521	-3.017700	3.602900	-10.871000	25.126973	0.000936	20.870243
1192.332651	-3.007300	3.602500	-10.833000	25.143802	0.000936	20.862007
1193.334273	-2.989000	3.603100	-10.769000	25.128294	0.000937	20.858767
1194.333763	-3.004500	3.602400	-10.822000	25.153230	0.000935	20.858196
1195.333895	-2.987100	3.603000	-10.762000	25.169360	0.000935	20.865854
1196.332898	-3.000800	3.600600	-10.803000	25.154794	0.000934	20.856921
1197.334267	-2.994600	3.602100	-10.785000	25.160461	0.000934	20.848861
1198.334169	-3.008800	3.602000	-10.837000	25.166455	0.000936	20.852506
1199.339300	-3.013300	3.601400	-10.850000	25.156708	0.000936	20.834662
1200.335256	-3.004700	3.600000	-10.815000	25.117756	0.000935	20.839654
1201.337144	-3.000800	3.599500	-10.800000	25.129016	0.000932	20.853803
1202.335819	-2.984800	3.600200	-10.745000	25.073678	0.000935	20.848512
1203.335262	-2.998400	3.599100	-10.790000	25.024034	0.000932	20.840879
1204.337715	-3.010400	3.598600	-10.833000	24.967273	0.000933	20.836062
1205.339804	-3.010200	3.599200	-10.834000	24.942483	0.000930	20.874241
1206.335183	-3.016000	3.598600	-10.853000	24.923286	0.000931	20.830793
1207.337442	-2.978300	3.599100	-10.718000	24.950861	0.000933	20.838555
1208.337421	-3.018100	3.595500	-10.850000	24.938579	0.000931	20.856572
1209.339414	-3.029400	3.596400	-10.894000	24.939248	0.000931	20.833537
1210.341016	-3.008500	3.597000	-10.820000	24.974306	0.000927	20.858767
1211.341053	-2.977000	3.598000	-10.710000	24.996930	0.000926	20.855398
1212.341626	-2.980800	3.598300	-10.725000	24.964561	0.000929	20.861314
1213.339427	-2.993300	3.597500	-10.767000	24.971518	0.000929	20.847909
1214.339742	-2.974200	3.597300	-10.698000	25.003819	0.000929	20.865631
1215.345133	-3.011300	3.595400	-10.826000	25.042900	0.000928	20.838006
1216.340347	-2.988500	3.596200	-10.746000	25.061619	0.000926	20.837356
1217.344089	-3.005800	3.594900	-10.804000	25.078101	0.000925	20.833038
1218.340199	-2.976500	3.596800	-10.705000	25.097936	0.000924	20.838724
1219.340612	-2.996100	3.594600	-10.769000	25.102362	0.000924	20.837478
1220.342216	-2.998200	3.593900	-10.774000	25.136942	0.000924	20.820983
1221.344336	-3.004800	3.594200	-10.799000	25.138509	0.000922	20.839626
1222.342478	-2.996800	3.594400	-10.771000	25.125982	0.000921	20.844593
1223.342093	-2.994400	3.594700	-10.762000	25.082728	0.000919	20.838631
1224.341921	-3.022500	3.592700	-10.857000	25.083422	0.000922	20.837431
1225.343401	-2.995100	3.592100	-10.759000	25.132570	0.000922	20.832715
1226.345966	-2.996000	3.592000	-10.760000	25.101868	0.000922	20.845516
1227.343678	-2.991800	3.592300	-10.746000	25.125607	0.000920	20.822406
1228.343804	-3.027300	3.591800	-10.871000	25.138509	0.000921	20.832988
1229.343519	-3.014700	3.591400	-10.825000	25.170033	0.000917	20.853728
1230.344294	-3.015500	3.592900	-10.833000	25.148256	0.000919	20.856522
1231.345127	-2.971500	3.591400	-10.670000	25.167299	0.000918	20.838656
1232.347157	-3.013600	3.589400	-10.816000	25.159241	0.000917	20.847636
1233.345371	-3.004500	3.591700	-10.791000	25.157327	0.000918	20.832438
1234.344822	-2.983700	3.589900	-10.710000	25.142764	0.000915	20.835362
1235.347375	-2.989900	3.588900	-10.729000	25.075764	0.000915	20.835434
1236.347554	-3.000100	3.589900	-10.769000	25.045037	0.000915	20.838728
1237.349739	-3.012200	3.590200	-10.813000	25.008167	0.000913	20.837280
1238.348668	-3.021400	3.589500	-10.843000	24.989694	0.000915	20.843394
1239.351106	-2.983700	3.589100	-10.708000	25.019006	0.000914	20.849583
1240.349118	-3.011300	3.587200	-10.801000	25.016569	0.000915	20.846188
1241.350461	-3.007300	3.589000	-10.792000	25.018956	0.000916	20.822032
1242.352755	-3.006000	3.587300	-10.782000	25.040485	0.000914	20.828469
1243.349607	-3.033300	3.586700	-10.878000	25.040410	0.000915	20.842618
1244.351340	-3.027500	3.586500	-10.857000	25.062388	0.000913	20.830542
1245.351382	-3.002800	3.587200	-10.771000	25.088139	0.000912	20.838846
1246.350291	-3.008400	3.586000	-10.787000	25.078022	0.000911	20.846709
1247.348917	-3.004000	3.586300	-10.772000	25.102484	0.000907	20.811522
1248.352487	-2.978200	3.586700	-10.681000	25.141064	0.000909	20.828440
1249.350388	-3.019000	3.585400	-10.823000	25.128287	0.000910	20.841217
1250.349659	-2.986000	3.587100	-10.710000	25.159384	0.000911	20.813167
1251.351858	-3.010800	3.584000	-10.790000	25.171790	0.000909	20.830836
1252.351180	-3.014300	3.585100	-10.805000	25.171664	0.000908	20.834978
1253.353703	-3.019200	3.585200	-10.822000	25.172881	0.000909	20.840940
1254.350787	-3.011500	3.584800	-10.793000	25.170845	0.000906	20.823250
1255.354378	-3.009600	3.583600	-10.784000	25.205942	0.000909	20.822449
1256.352794	-3.014800	3.583800	-10.803000	25.232937	0.000906	20.843387
1257.353667	-3.001800	3.583900	-10.757000	25.237384	0.000905	20.846903
1258.353737	-2.994800	3.582800	-10.729000	25.244991	0.000907	20.840790
1259.353129	-2.998900	3.582400	-10.742000	25.246407	0.000903	20.809022
1260.353801	-3.005000	3.582500	-10.764000	25.232518	0.000903	20.820208
1261.353345	-3.000600	3.580800	-10.743000	25.205566	0.000903	20.816856
1262.353603	-2.989200	3.581600	-10.705000	25.194828	0.000904	20.827887
1263.353425	-2.986300	3.581800	-10.696000	25.183719	0.000904	20.814363
1264.357239	-3.000800	3.580900	-10.744000	25.166838	0.000902	20.819701
1265.355211	-3.017700	3.580900	-10.804000	25.167038	0.000902	20.822747
1266.356716	-2.989100	3.580100	-10.699000	25.157492	0.000902	20.839242
1267.354794	-3.016000	3.580700	-10.799000	25.182474	0.000899	20.821174
1268.355789	-3.011500	3.578500	-10.774000	25.199276	0.000899	20.828085
1269.358045	-3.000600	3.580800	-10.744000	25.209545	0.000900	20.822747
1270.355525	-3.018500	3.578900	-10.802000	25.215756	0.000899	20.807172
1271.358891	-3.011800	3.579000	-10.778000	25.229749	0.000898	20.820747
1272.360810	-3.002500	3.580000	-10.748000	25.254579	0.000900	20.832873
1273.356848	-2.990900	3.579400	-10.705000	25.266239	0.000897	20.826562
1274.356973	-3.014600	3.579000	-10.788000	25.278693	0.000901	20.826264
1275.363983	-3.002900	3.578800	-10.746000	25.270414	0.000896	20.819849
1276.357106	-3.008700	3.576900	-10.760000	25.283416	0.000897	20.836695
1277.357385	-3.020300	3.576700	-10.802000	25.251348	0.000897	20.807345
1278.358776	-3.016800	3.577300	-10.792000	25.247595	0.000896	20.819698
1279.359271	-3.000600	3.577200	-10.733000	25.242576	0.000895	20.826986
1280.362412	-3.008400	3.577400	-10.760000	25.197111	0.000893	20.815955
1281.359508	-2.987900	3.576500	-10.684000	25.160072	0.000896	20.806745
1282.363115	-2.982400	3.576300	-10.664000	25.143791	0.000894	20.817428
1283.361140	-3.000900	3.575500	-10.729000	25.123853	0.000889	20.802154
1284.361075	-2.983700	3.574800	-10.665000	25.122980	0.000894	20.828778
1285.361668	-2.975800	3.575500	-10.639000	25.119699	0.000892	20.808415
1286.361382	-3.000200	3.575100	-10.724000	25.098716	0.000893	20.809637
1287.361681	-2.994000	3.574600	-10.701000	25.103762	0.000892	20.827503
1288.362341	-2.999700	3.573500	-10.718000	25.088844	0.000888	20.807787
1289.363822	-2.996900	3.573900	-10.710000	25.060031	0.000892	20.808735
1290.362255	-2.997500	3.574800	-10.714000	25.045091	0.000887	20.798006
1291.363432	-3.014600	3.572600	-10.769000	25.019880	0.000885	20.797355
1292.364186	-3.007100	3.573000	-10.744000	25.075965	0.000888	20.803394
1293.366255	-3.008700	3.573100	-10.749000	25.120562	0.000885	20.792686
1294.365702	-3.012500	3.572700	-10.762000	25.117080	0.000888	20.805312
1295.367936	-3.011000	3.570400	-10.750000	25.112951	0.000887	20.797374
1296.371398	-3.006900	3.570300	-10.735000	25.102263	0.000887	20.816515
1297.369322	-3.025000	3.569700	-10.796000	25.104449	0.000886	20.791684
1298.369833	-2.996400	3.572700	-10.704000	25.081948	0.000884	20.799443
1299.369850	-2.989300	3.571300	-10.674000	25.060120	0.000884	20.803609
1300.368878	-3.015900	3.569800	-10.765000	25.101211	0.000884	20.801709
1301.371732	-2.991700	3.569900	-10.680000	25.095847	0.000884	20.793480
1302.371773	-3.015400	3.570000	-10.764000	25.111480	0.000883	20.822924
1303.369055	-2.997000	3.569800	-10.698000	25.107076	0.000883	20.785311
1304.369747	-2.983400	3.569200	-10.647000	25.146253	0.000884	20.792873
1305.368820	-3.011600	3.568100	-10.745000	25.117567	0.000883	20.816706
1306.368730	-3.013100	3.568200	-10.750000	25.086737	0.000880	20.812784
1307.373642	-2.994200	3.569500	-10.687000	25.081516	0.000880	20.791422
1308.371006	-2.989500	3.569500	-10.670000	25.094194	0.000879	20.825011
1309.373158	-3.010700	3.567400	-10.740000	25.110575	0.000874	20.809213
1310.371742	-2.979500	3.568500	-10.631000	25.142074	0.000879	20.795316
1311.372993	-3.014500	3.567100	-10.752000	25.154100	0.000881	20.801699
1312.374411	-2.979300	3.567700	-10.629000	25.177072	0.000878	20.799630
1313.372842	-2.988800	3.566600	-10.659000	25.206007	0.000878	20.789798
1314.372102	-3.014200	3.565300	-10.746000	25.216691	0.000877	20.782981
1315.372020	-2.992400	3.565100	-10.667000	25.193849	0.000878	20.797507
1316.373090	-3.004900	3.565100	-10.711000	25.200064	0.000874	20.777668
1317.372008	-2.997900	3.565500	-10.689000	25.203145	0.000878	20.799727
1318.375234	-2.961400	3.565800	-10.558000	25.229743	0.000876	20.806042
1319.374352	-3.009300	3.563200	-10.722000	25.226136	0.000871	20.779187
1320.373331	-3.010800	3.564100	-10.730000	25.252058	0.000874	20.799996
1321.374578	-2.990200	3.565000	-10.658000	25.206472	0.000873	20.791214
1322.375148	-2.991100	3.563800	-10.659000	25.176320	0.000873	20.801246
1323.379076	-2.985800	3.563900	-10.640000	25.188078	0.000874	20.774169
1324.375731	-2.982200	3.562700	-10.623000	25.198021	0.000874	20.795531
1325.376439	-2.986200	3.562900	-10.638000	25.211642	0.000873	20.801146
1326.376007	-3.002000	3.561300	-10.690000	25.223746	0.000870	20.770150
1327.376305	-3.008800	3.561300	-10.714000	25.256458	0.000871	20.783552
1328.376881	-3.006600	3.561700	-10.708000	25.257153	0.000872	20.766705
1329.379961	-2.981000	3.563400	-10.621000	25.230781	0.000868	20.777212
1330.377101	-3.000500	3.560100	-10.681000	25.234036	0.000872	20.778584
1331.376318	-3.007200	3.558900	-10.701000	25.243307	0.000871	20.776511
1332.377191	-2.991500	3.559900	-10.649000	25.288719	0.000868	20.776587
1333.378171	-3.011400	3.559200	-10.717000	25.284644	0.000868	20.774866
1334.382261	-3.007500	3.560100	-10.704000	25.288272	0.000867	20.782302
1335.378958	-3.008300	3.560100	-10.709000	25.298411	0.000866	20.756446
1336.379661	-2.974900	3.561600	-10.594000	25.289688	0.000864	20.760964
1337.377780	-3.011700	3.558100	-10.715000	25.303380	0.000866	20.775660
1338.377909	-2.992400	3.559900	-10.651000	25.314195	0.000864	20.787467
1339.383533	-3.016500	3.559000	-10.735000	25.322846	0.000864	20.780506
1340.380085	-3.009600	3.557500	-10.704000	25.331393	0.000863	20.783872
1341.382198	-2.985500	3.559700	-10.626000	25.333729	0.000864	20.771044
1342.381180	-3.001700	3.558700	-10.681000	25.324306	0.000862	20.775807
1343.379437	-2.992500	3.557300	-10.644000	25.322620	0.000863	20.756571
1344.380495	-3.015200	3.555900	-10.720000	25.372101	0.000861	20.755993
1345.384223	-2.998700	3.557900	-10.668000	25.351001	0.000858	20.754247
1346.380961	-2.994100	3.557500	-10.650000	25.314170	0.000860	20.768002
1347.381411	-3.003200	3.554300	-10.672000	25.285732	0.000859	20.775958
1348.381133	-3.004400	3.556900	-10.685000	25.296619	0.000860	20.773138
1349.383590	-2.980800	3.555800	-10.598000	25.279864	0.000860	20.761058
1350.386762	-3.007200	3.555300	-10.690000	25.316625	0.000857	20.766673
1351.383007	-3.011100	3.552900	-10.697000	25.319233	0.000860	20.759334
1352.387083	-2.996000	3.555300	-10.651000	25.326910	0.000858	20.782690
1353.384528	-3.003500	3.555000	-10.676000	25.347145	0.000856	20.777877
1354.383646	-3.003800	3.552900	-10.671000	25.334763	0.000854	20.756435
1355.385040	-3.015600	3.552200	-10.711000	25.297481	0.000857	20.773530
1356.388465	-2.976700	3.555600	-10.582000	25.270165	0.000858	20.759855
1357.385034	-3.006500	3.553200	-10.681000	25.289975	0.000853	20.768839
1358.386402	-2.979600	3.551100	-10.580000	25.294494	0.000857	20.760574
1359.388093	-2.993900	3.552400	-10.633000	25.321140	0.000854	20.750343
1360.388958	-3.008200	3.550300	-10.679000	25.311044	0.000855	20.780036
1361.393642	-3.009800	3.549800	-10.683000	25.322900	0.000853	20.764439
1362.390335	-3.034400	3.548800	-10.767000	25.308314	0.000850	20.731775
1363.395391	-3.008600	3.551500	-10.685000	25.273661	0.000852	20.775219
1364.390960	-2.988800	3.551600	-10.614000	25.238935	0.000852	20.756475
1365.390898	-3.008300	3.550000	-10.678000	25.252907	0.000853	20.775244
1366.391536	-3.011400	3.549200	-10.687000	25.256062	0.000853	20.774145
1367.391105	-3.019700	3.548300	-10.714000	25.283675	0.000852	20.775790
1368.391059	-2.999500	3.550000	-10.648000	25.275722	0.000848	20.751683
1369.391670	-2.981200	3.547900	-10.576000	25.291006	0.000849	20.756123
1370.392194	-3.003400	3.548500	-10.657000	25.310143	0.000850	20.761587
1371.392270	-3.002800	3.547600	-10.652000	25.311359	0.000850	20.750480
1372.392262	-3.003000	3.549300	-10.657000	25.336760	0.000848	20.772191
1373.391221	-3.003700	3.547700	-10.655000	25.359774	0.000850	20.775385
1374.391911	-2.993500	3.547000	-10.616000	25.343171	0.000846	20.739746
1375.392668	-3.004000	3.547200	-10.654000	25.381721	0.000845	20.757118
1376.391931	-3.022900	3.546600	-10.719000	25.383854	0.000845	20.741715
1377.395066	-3.021300	3.545900	-10.711000	25.389545	0.000845	20.743637
1378.394145	-2.995100	3.546300	-10.621000	25.396203	0.000845	20.747951
1379.393699	-3.000300	3.546100	-10.638000	25.385470	0.000845	20.750926
1380.393007	-2.997400	3.546300	-10.629000	25.387878	0.000845	20.757137
1381.394661	-2.982700	3.546000	-10.576000	25.366650	0.000844	20.739614
1382.397011	-2.997000	3.545500	-10.625000	25.328081	0.000845	20.744510
1383.395827	-3.001200	3.544300	-10.636000	25.276578	0.000843	20.740688
1384.395426	-2.985800	3.545600	-10.585000	25.298126	0.000843	20.760427
1385.394079	-2.987500	3.543600	-10.586000	25.320937	0.000842	20.734492
1386.394577	-2.984700	3.544300	-10.578000	25.335383	0.000841	20.759429
1387.394698	-2.992200	3.542900	-10.600000	25.339705	0.000839	20.738637
1388.397000	-3.021200	3.542200	-10.700000	25.364508	0.000842	20.750265
1389.393506	-2.998900	3.544500	-10.628000	25.388590	0.000841	20.744101
1390.397569	-3.019900	3.541700	-10.695000	25.347132	0.000840	20.742301
1391.393738	-2.995800	3.542400	-10.612000	25.365624	0.000840	20.744273
1392.393703	-3.009900	3.542300	-10.661000	25.379240	0.000840	20.743720
1393.394590	-3.006700	3.541600	-10.648000	25.392837	0.000838	20.747891
1394.395937	-2.979800	3.541900	-10.553000	25.379862	0.000838	20.737707
1395.398652	-2.987500	3.541600	-10.579000	25.333606	0.000837	20.762860
1396.396101	-3.006400	3.541100	-10.645000	25.274378	0.000835	20.735634
1397.397334	-3.003600	3.540800	-10.633000	25.271792	0.000836	20.779032
1398.397635	-2.996700	3.540000	-10.607000	25.245019	0.000837	20.758316
1399.400266	-2.998100	3.539200	-10.610000	25.234010	0.000835	20.759117
1400.398459	-2.985600	3.539300	-10.566000	25.248046	0.000833	20.757088
1401.398350	-3.023100	3.537900	-10.694000	25.249316	0.000833	20.739396
1402.400241	-2.977600	3.540600	-10.541000	25.260798	0.000832	20.747604
1403.400796	-3.016500	3.538400	-10.673000	25.243327	0.000832	20.760410
1404.403868	-3.026600	3.537600	-10.706000	25.267585	0.000834	20.766273
1405.401697	-3.035600	3.536800	-10.735000	25.285108	0.000832	20.729812
1406.405678	-3.001800	3.537700	-10.619000	25.269746	0.000830	20.749476
1407.400442	-3.014000	3.537000	-10.659000	25.234375	0.000831	20.767070
1408.401822	-2.996000	3.536600	-10.595000	25.220132	0.000832	20.746606
1409.404468	-3.014800	3.536200	-10.659000	25.180903	0.000830	20.742310
1410.403675	-2.990500	3.536300	-10.575000	25.185054	0.000830	20.734622
1411.400711	-3.020100	3.536100	-10.678000	25.165292	0.000831	20.734698
1412.401346	-3.001500	3.535800	-10.612000	25.204690	0.000825	20.747698
1413.401946	-3.007800	3.534600	-10.630000	25.214161	0.000828	20.752465
1414.401596	-3.025400	3.534900	-10.693000	25.239539	0.000826	20.743804
1415.403881	-2.984700	3.534900	-10.549000	25.257560	0.000825	20.779916
1416.402601	-3.020500	3.534300	-10.675000	25.240383	0.000827	20.739436
1417.402757	-2.997700	3.534600	-10.595000	25.233296	0.000826	20.755554
1418.403026	-2.969800	3.534400	-10.495000	25.252137	0.000825	20.751237
1419.403481	-3.002100	3.532700	-10.605000	25.286562	0.000824	20.769679
1420.409319	-3.013600	3.532900	-10.645000	25.301495	0.000824	20.742946
1421.404276	-2.994700	3.532800	-10.578000	25.331600	0.000821	20.767484
1422.407845	-2.986300	3.532600	-10.548000	25.336741	0.000822	20.746567
1423.405110	-3.010600	3.532800	-10.635000	25.350411	0.000825	20.750335
1424.405328	-3.006800	3.531700	-10.618000	25.347702	0.000822	20.747142
1425.406621	-3.005900	3.531300	-10.613000	25.314221	0.000822	20.774690
1426.410603	-3.023300	3.529200	-10.669000	25.290805	0.000821	20.745490
1427.408246	-2.993500	3.530000	-10.566000	25.269879	0.000822	20.768102
1428.407114	-2.980300	3.532100	-10.526000	25.218870	0.000820	20.748658
1429.407885	-3.011700	3.528800	-10.626000	25.219543	0.000821	20.737479
1430.407033	-2.999500	3.528800	-10.583000	25.218298	0.000819	20.760412
1431.411298	-2.986600	3.529800	-10.541000	25.223890	0.000820	20.757491
1432.407259	-3.020200	3.528300	-10.655000	25.231003	0.000819	20.744717
1433.410496	-3.028800	3.528000	-10.685000	25.205324	0.000819	20.764456
1434.410258	-3.023100	3.528400	-10.665000	25.200598	0.000818	20.769669
1435.410528	-3.028200	3.526700	-10.678000	25.189563	0.000817	20.769496
1436.410670	-3.012700	3.527300	-10.626000	25.224634	0.000818	20.741643
1437.409549	-3.004900	3.526600	-10.595000	25.227396	0.000817	20.771443
1438.410481	-2.996500	3.526000	-10.564000	25.238781	0.000814	20.767700
1439.409361	-3.005200	3.527200	-10.600000	25.253693	0.000815	20.745687
1440.409107	-2.998800	3.525900	-10.572000	25.263236	0.000813	20.748630
1441.410194	-3.018900	3.524900	-10.641000	25.258291	0.000815	20.766425
1442.413325	-2.996700	3.526100	-10.565000	25.257719	0.000815	20.773437
1443.409277	-2.981700	3.524900	-10.509000	25.244896	0.000815	20.755821
1444.410998	-2.994000	3.524300	-10.551000	25.230477	0.000815	20.780226
1445.410700	-3.006800	3.522900	-10.591000	25.230030	0.000814	20.771242
1446.411727	-2.990900	3.525200	-10.542000	25.229704	0.000811	20.787037
1447.417160	-3.017800	3.523500	-10.632000	25.226996	0.000812	20.760609
1448.412488	-3.004700	3.524400	-10.589000	25.231522	0.000810	20.773214
1449.416157	-2.991500	3.523700	-10.540000	25.215039	0.000810	20.776106
1450.412294	-2.992600	3.522000	-10.539000	25.227146	0.000810	20.772140
1451.412949	-3.006000	3.522800	-10.588000	25.217375	0.000810	20.779874
1452.413808	-2.998600	3.523000	-10.562000	25.260352	0.000809	20.771339
1453.414864	-2.963700	3.524600	-10.445000	25.283368	0.000809	20.774059
1454.412610	-2.975700	3.523800	-10.484000	25.315409	0.000810	20.778254
1455.414931	-3.010100	3.521300	-10.599000	25.330445	0.000807	20.791455
1456.414872	-2.998600	3.521300	-10.558000	25.340037	0.000812	20.780697
1457.416277	-3.001000	3.522100	-10.569000	25.363573	0.000810	20.780622
1458.419667	-2.996300	3.521600	-10.551000	25.394367	0.000804	20.790205
1459.417551	-3.014600	3.519700	-10.609000	25.393995	0.000808	20.781771
1460.422952	-2.999500	3.519900	-10.557000	25.389072	0.000804	20.772087
1461.418716	-2.979600	3.520600	-10.489000	25.397425	0.000806	20.782371
1462.419494	-2.994500	3.520700	-10.542000	25.426451	0.000806	20.775481
1463.421156	-2.982000	3.520300	-10.497000	25.400005	0.000803	20.773581
1464.418775	-2.990300	3.519700	-10.523000	25.420113	0.000804	20.771013
1465.418757	-3.001900	3.519400	-10.564000	25.410347	0.000802	20.773060
1466.421164	-2.998000	3.517100	-10.543000	25.399336	0.000802	20.757262
1467.420950	-2.990500	3.518600	-10.521000	25.366882	0.000803	20.785366
1468.421714	-2.994900	3.517200	-10.534000	25.356565	0.000802	20.767420
1469.426377	-3.011700	3.517700	-10.593000	25.337300	0.000800	20.803554
1470.422178	-3.006500	3.516500	-10.572000	25.339886	0.000800	20.776279
1471.425874	-3.000800	3.516600	-10.552000	25.356940	0.000802	20.786764
1472.421075	-2.988300	3.515500	-10.504000	25.342373	0.000801	20.793948
1473.422388	-3.009800	3.516100	-10.581000	25.341679	0.000798	20.793725
1474.424102	-2.990400	3.515900	-10.513000	25.298977	0.000798	20.795895
1475.422812	-3.015400	3.516400	-10.602000	25.303331	0.000801	20.765653
1476.422982	-2.998300	3.514600	-10.536000	25.301685	0.000798	20.791502
1477.424395	-2.987000	3.513500	-10.493000	25.300318	0.000798	20.781121
1478.424366	-2.980800	3.513800	-10.472000	25.263858	0.000798	20.779601
1479.426407	-3.008400	3.514200	-10.571000	25.254982	0.000797	20.778276
1480.425839	-2.994000	3.515900	-10.525000	25.213472	0.000794	20.794447
1481.426231	-3.006400	3.512500	-10.559000	25.235719	0.000798	20.774583
1482.426030	-2.997300	3.513600	-10.530000	25.222495	0.000795	20.807300
1483.425774	-3.002800	3.512700	-10.547000	25.229704	0.000793	20.799839
1484.425161	-2.972700	3.512900	-10.442000	25.241186	0.000796	20.788133
1485.429653	-3.022100	3.511200	-10.610000	25.251078	0.000793	20.788108
1486.425184	-3.019200	3.511300	-10.600000	25.273822	0.000792	20.804778
1487.426862	-3.006000	3.511100	-10.553000	25.263110	0.000792	20.803507
1488.428415	-3.001600	3.509900	-10.534000	25.281203	0.000791	20.810766
1489.427749	-2.987400	3.510900	-10.487000	25.279912	0.000792	20.798564
1490.430715	-3.013200	3.509700	-10.574000	25.287815	0.000791	20.793223
1491.432385	-2.982800	3.509800	-10.467000	25.322138	0.000791	20.800184
1492.428374	-3.019900	3.509400	-10.596000	25.310558	0.000791	20.807049
1493.429782	-3.007200	3.510000	-10.554000	25.294129	0.000791	20.798140
1494.430304	-2.980600	3.509800	-10.460000	25.305438	0.000788	20.785313
1495.429760	-2.995300	3.509200	-10.508000	25.298651	0.000789	20.802206
1496.432456	-3.005700	3.509100	-10.546000	25.342917	0.000788	20.780270
1497.429817	-2.983200	3.509400	-10.469000	25.355445	0.000788	20.810393
1498.428699	-2.995100	3.507400	-10.503000	25.328081	0.000789	20.799038
1499.429715	-2.984500	3.508400	-10.470000	25.345328	0.000788	20.796915
1500.427886	-3.012800	3.505000	-10.557000	25.350869	0.000783	20.798212
1501.433051	-2.977100	3.507800	-10.442000	25.326564	0.000786	20.806998
1502.428235	-3.004300	3.505100	-10.530000	25.333572	0.000787	20.811190
1503.432719	-2.994400	3.505600	-10.496000	25.342767	0.000786	20.800982
1504.429322	-2.997200	3.506100	-10.508000	25.357159	0.000784	20.831553
1505.429623	-2.999100	3.506000	-10.514000	25.329469	0.000782	20.814657
1506.431182	-3.025200	3.504400	-10.600000	25.332950	0.000785	20.796341
1507.435143	-2.982400	3.506500	-10.456000	25.320171	0.000782	20.809114
1508.431141	-3.023800	3.503400	-10.592000	25.331158	0.000781	20.821094
1509.432053	-2.986300	3.503600	-10.462000	25.330213	0.000781	20.817775
1510.431467	-3.029700	3.502700	-10.611000	25.331154	0.000782	20.828202
1511.430742	-2.980800	3.502800	-10.440000	25.341916	0.000782	20.812929
1512.434912	-3.008400	3.501200	-10.532000	25.352480	0.000781	20.802674
1513.433234	-2.993500	3.502700	-10.485000	25.357821	0.000782	20.813253
1514.435786	-2.985500	3.502100	-10.454000	25.389284	0.000783	20.800749
1515.431492	-3.000100	3.502200	-10.506000	25.370768	0.000781	20.819140
1516.432516	-2.985600	3.503500	-10.459000	25.383843	0.000782	20.826579
1517.434195	-2.978800	3.503200	-10.434000	25.375959	0.000779	20.834783
1518.434076	-3.004100	3.502300	-10.520000	25.374592	0.000780	20.830092
1519.432301	-2.977500	3.500700	-10.423000	25.378345	0.000777	20.824378
1520.431414	-3.001200	3.501100	-10.506000	25.397555	0.000777	20.824227
1521.433503	-2.989500	3.500200	-10.463000	25.438934	0.000780	20.830689
1522.433185	-3.007900	3.500500	-10.528000	25.477180	0.000778	20.817887
1523.433529	-2.992500	3.500900	-10.476000	25.460826	0.000776	20.817585
1524.433400	-3.009500	3.498900	-10.529000	25.465651	0.000776	20.831914
1525.434865	-3.018900	3.498800	-10.561000	25.474172	0.000775	20.809176
1526.434416	-3.029500	3.496800	-10.592000	25.483390	0.000774	20.826019
1527.434954	-3.010800	3.498000	-10.529000	25.476876	0.000776	20.831332
1528.442543	-3.015100	3.497000	-10.543000	25.462861	0.000774	20.830061
1529.435381	-2.979800	3.497700	-10.421000	25.501257	0.000773	20.826418
1530.437704	-2.997800	3.495600	-10.478000	25.493849	0.000775	20.819454
1531.434869	-2.981500	3.497000	-10.425000	25.482668	0.000776	20.834777
1532.434979	-3.005000	3.496000	-10.505000	25.500084	0.000773	20.828559
1533.435534	-2.993400	3.496600	-10.465000	25.490519	0.000769	20.821799
1534.439535	-2.996100	3.494500	-10.468000	25.514027	0.000773	20.813638
1535.436268	-2.997600	3.496000	-10.478000	25.517604	0.000771	20.826713
1536.435994	-2.975500	3.496900	-10.404000	25.531543	0.000772	20.817478
1537.435659	-2.985200	3.493000	-10.426000	25.558430	0.000769	20.819824
1538.435865	-2.991800	3.495700	-10.457000	25.549932	0.000771	20.831677
1539.439999	-3.021500	3.491900	-10.549000	25.563327	0.000769	20.833750
1540.434721	-2.995700	3.493500	-10.464000	25.562354	0.000769	20.811911
1541.439047	-3.016000	3.492900	-10.533000	25.560766	0.000768	20.846351
1542.436503	-2.992300	3.493300	-10.452000	25.548269	0.000769	20.856084
1543.436166	-2.992400	3.491500	-10.447000	25.553609	0.000769	20.845327
1544.436199	-3.017300	3.491700	-10.534000	25.540092	0.000769	20.855460
1545.434935	-3.001400	3.492600	-10.481000	25.520112	0.000766	20.843930
1546.434998	-3.024300	3.491400	-10.558000	25.536512	0.000764	20.838114
1547.436943	-2.997600	3.491800	-10.466000	25.504753	0.000767	20.837989
1548.436990	-2.998600	3.492300	-10.470000	25.501651	0.000764	20.843408
1549.437447	-3.010000	3.489600	-10.503000	25.494318	0.000765	20.855959
1550.438043	-2.980900	3.489900	-10.401000	25.479706	0.000766	20.847450
1551.437837	-2.983700	3.489800	-10.411000	25.460472	0.000764	20.845205
1552.437500	-2.989100	3.489700	-10.430000	25.490466	0.000766	20.841185
1553.437027	-2.985300	3.489200	-10.415000	25.487086	0.000763	20.849644
1554.437958	-3.001900	3.488600	-10.472000	25.517554	0.000763	20.834249
1555.444775	-2.996800	3.489100	-10.455000	25.543247	0.000763	20.843455
1556.437440	-2.996400	3.487500	-10.450000	25.559271	0.000761	20.843901
1557.439718	-3.007200	3.486400	-10.482000	25.555100	0.000760	20.834971
1558.438728	-3.012900	3.485200	-10.499000	25.552243	0.000763	20.861498
1559.438535	-3.022600	3.484200	-10.531000	25.548118	0.000759	20.861149
1560.439652	-2.981700	3.487200	-10.397000	25.548963	0.000758	20.859152
1561.441721	-2.995000	3.486100	-10.440000	25.569712	0.000758	20.863394
1562.441136	-3.002200	3.485100	-10.460000	25.560216	0.000757	20.845798
1563.440380	-3.004800	3.484800	-10.470000	25.533826	0.000757	20.871451
1564.441317	-2.984600	3.486400	-10.404000	25.496626	0.000756	20.861595
1565.441042	-2.997300	3.486200	-10.447000	25.514493	0.000758	20.874321
1566.445028	-3.000400	3.484500	-10.454000	25.542521	0.000757	20.871174
1567.440767	-3.009700	3.483200	-10.482000	25.535167	0.000757	20.869005
1568.444113	-3.013000	3.485200	-10.500000	25.508677	0.000755	20.859472
1569.442094	-3.003900	3.482600	-10.461000	25.499158	0.000756	20.850862
1570.442875	-2.996900	3.483000	-10.436000	25.499581	0.000755	20.847019
1571.445118	-2.985700	3.483200	-10.399000	25.465906	0.000756	20.872471
1572.443717	-3.009100	3.481500	-10.475000	25.475422	0.000752	20.855949
1573.444890	-3.004000	3.481600	-10.457000	25.468089	0.000753	20.863284
1574.443770	-3.004300	3.482200	-10.461000	25.500969	0.000753	20.885869
1575.444773	-2.992800	3.480200	-10.414000	25.519011	0.000754	20.867479
1576.445503	-2.994100	3.482300	-10.425000	25.485387	0.000753	20.865482
1577.445998	-3.000400	3.481000	-10.444000	25.468733	0.000753	20.888585
1578.445442	-2.993800	3.479300	-10.415000	25.490875	0.000755	20.867673
1579.449382	-3.009200	3.479300	-10.468000	25.490152	0.000751	20.868370
1580.446532	-2.972200	3.480500	-10.344000	25.508967	0.000751	20.876358
1581.446461	-2.980400	3.478700	-10.366000	25.489033	0.000749	20.880995
1582.449296	-2.991200	3.480100	-10.408000	25.439354	0.000750	20.871413
1583.445457	-2.994600	3.478100	-10.414000	25.459415	0.000751	20.882547
1584.448101	-2.985500	3.478100	-10.383000	25.482373	0.000750	20.876204
1585.446722	-3.001000	3.477400	-10.435000	25.511722	0.000749	20.870116
1586.446239	-3.008100	3.476300	-10.455000	25.535351	0.000747	20.887680
1587.446364	-3.007300	3.476400	-10.452000	25.565593	0.000746	20.865896
1588.449828	-3.006500	3.477300	-10.454000	25.584081	0.000748	20.883514
1589.448389	-3.008700	3.475100	-10.454000	25.561218	0.000749	20.879994
1590.447920	-3.008400	3.476400	-10.456000	25.592054	0.000748	20.887727
1591.449866	-2.978500	3.475600	-10.351000	25.582211	0.000749	20.874998
1592.449815	-2.983700	3.475600	-10.369000	25.526299	0.000746	20.879538
1593.450683	-2.972200	3.476100	-10.331000	25.507140	0.000747	20.905815
1594.450277	-2.994200	3.474800	-10.404000	25.506940	0.000745	20.873375
1595.454002	-2.992200	3.474500	-10.395000	25.462950	0.000746	20.885149
1596.451057	-2.985200	3.475500	-10.375000	25.470283	0.000747	20.880659
1597.451211	-2.991800	3.475400	-10.397000	25.506415	0.000744	20.884700
1598.451789	-2.996800	3.473600	-10.408000	25.477141	0.000743	20.880433
1599.452098	-3.001800	3.472300	-10.422000	25.490955	0.000746	20.896201
1600.449727	-2.979000	3.472800	-10.344000	25.502309	0.000746	20.893852
1601.451156	-3.030700	3.472000	-10.520000	25.510733	0.000743	20.875761
1602.451574	-2.991100	3.471500	-10.382000	25.467344	0.000742	20.897146
1603.451697	-2.993600	3.470800	-10.389000	25.475593	0.000743	20.902110
1604.451588	-3.002400	3.471500	-10.420000	25.500617	0.000743	20.887887
1605.451336	-3.011200	3.470200	-10.447000	25.528846	0.000739	20.882571
1606.450638	-2.995700	3.471200	-10.398000	25.558338	0.000741	20.897014
1607.451828	-2.993500	3.470700	-10.389000	25.563606	0.000742	20.886185
1608.451784	-2.991700	3.470500	-10.382000	25.569322	0.000742	20.899036
1609.459006	-3.004400	3.469700	-10.423000	25.551056	0.000740	20.891124
1610.452006	-3.004600	3.469300	-10.422000	25.516361	0.000739	20.918867
1611.452951	-2.989600	3.469900	-10.373000	25.484204	0.000739	20.904119
1612.455085	-3.000300	3.467900	-10.404000	25.444469	0.000738	20.905943
1613.455079	-3.001500	3.467600	-10.408000	25.440789	0.000738	20.899877
1614.456493	-2.995800	3.466400	-10.384000	25.450901	0.000737	20.901023
1615.460143	-2.999700	3.467200	-10.399000	25.453734	0.000738	20.907187
1616.456071	-2.986300	3.467700	-10.354000	25.451599	0.000737	20.903620
1617.457795	-2.985200	3.467000	-10.349000	25.443819	0.000736	20.886800
1618.458452	-3.021500	3.465800	-10.470000	25.425103	0.000735	20.900248
1619.457715	-2.997200	3.465500	-10.386000	25.461787	0.000734	20.922383
1620.460393	-2.993100	3.466600	-10.374000	25.450826	0.000735	20.896681
1621.457663	-2.999400	3.465900	-10.395000	25.459598	0.000732	20.917341
1622.461077	-2.994800	3.465500	-10.378000	25.499954	0.000736	20.904289
1623.458287	-3.014600	3.462800	-10.438000	25.545409	0.000734	20.917692
1624.458063	-3.000500	3.463600	-10.391000	25.537776	0.000731	20.901494
1625.461818	-2.977100	3.465300	-10.315000	25.571795	0.000734	20.905786
1626.458487	-3.025500	3.462700	-10.475000	25.586209	0.000733	20.902719
1627.458285	-3.010300	3.463200	-10.424000	25.614161	0.000733	20.889541
1628.458744	-2.988800	3.461700	-10.345000	25.621095	0.000732	20.901246
1629.459145	-2.954200	3.463300	-10.230000	25.642440	0.000732	20.895657
1630.458534	-2.968000	3.463500	-10.279000	25.670540	0.000730	20.895431
1631.462252	-3.008100	3.462200	-10.414000	25.671638	0.000724	20.904593
1632.460479	-2.972700	3.462000	-10.290000	25.667286	0.000729	20.903541
1633.458925	-3.003300	3.460400	-10.392000	25.671660	0.000727	20.889444
1634.459485	-2.988900	3.461900	-10.346000	25.665097	0.000730	20.912248
1635.460319	-2.980600	3.462500	-10.319000	25.670987	0.000725	20.908681
1636.464504	-2.988700	3.461200	-10.343000	25.636600	0.000727	20.879361
1637.460855	-3.003400	3.460700	-10.392000	25.584317	0.000725	20.886122
1638.462849	-2.994700	3.460200	-10.362000	25.555964	0.000726	20.878036
1639.459855	-3.015500	3.458200	-10.428000	25.577757	0.000724	20.887594
1640.460936	-3.007600	3.458800	-10.401000	25.601013	0.000725	20.904785
1641.464848	-2.981000	3.458500	-10.309000	25.560139	0.000722	20.895503
1642.463343	-3.001900	3.457600	-10.377000	25.586256	0.000726	20.901818
1643.460925	-3.023600	3.457400	-10.452000	25.575744	0.000724	20.902166
1644.461474	-3.015300	3.456200	-10.420000	25.544755	0.000725	20.877211
1645.461626	-2.987500	3.457700	-10.327000	25.538689	0.000724	20.899092
1646.461332	-2.981600	3.457600	-10.309000	25.521842	0.000724	20.880752
1647.466130	-2.986200	3.455600	-10.318000	25.557925	0.000724	20.873367
1648.463004	-2.986500	3.457500	-10.325000	25.554989	0.000722	20.896495
1649.463550	-3.015800	3.455500	-10.419000	25.567765	0.000722	20.864284
1650.463578	-3.015400	3.453200	-10.410000	25.583789	0.000721	20.878005
1651.464206	-3.015400	3.454600	-10.416000	25.628367	0.000721	20.878206
1652.466492	-2.981300	3.455800	-10.302000	25.630356	0.000721	20.870720
1653.463504	-3.013200	3.454800	-10.409000	25.633758	0.000721	20.871292
1654.464806	-3.000700	3.453500	-10.362000	25.647770	0.000718	20.864503
1655.463357	-3.002500	3.452400	-10.364000	25.638253	0.000718	20.875333
1656.464647	-3.019100	3.453300	-10.424000	25.608858	0.000719	20.857664
1657.465450	-2.981100	3.454000	-10.296000	25.595588	0.000720	20.869942
1658.467993	-3.017800	3.452500	-10.417000	25.602173	0.000718	20.866598
1659.466832	-2.976300	3.452200	-10.274000	25.623043	0.000718	20.884237
1660.468213	-2.995400	3.452300	-10.340000	25.631194	0.000717	20.856864
1661.467147	-2.992500	3.452100	-10.329000	25.641802	0.000714	20.878896
1662.467640	-2.964200	3.450900	-10.227000	25.630768	0.000717	20.859756
1663.469013	-2.997500	3.450800	-10.343000	25.658550	0.000715	20.856365
1664.467082	-2.993100	3.451100	-10.328000	25.661755	0.000715	20.861005
1665.468565	-2.983800	3.450700	-10.295000	25.667517	0.000717	20.872956
1666.468226	-2.993300	3.451100	-10.328000	25.637428	0.000715	20.844634
1667.469407	-2.996100	3.450100	-10.335000	25.618741	0.000714	20.862848
1668.474168	-2.998600	3.450500	-10.346000	25.606663	0.000714	20.875373
1669.471721	-2.978800	3.450000	-10.276000	25.615261	0.000713	20.883534
1670.471365	-2.981900	3.449100	-10.284000	25.585049	0.000714	20.875951
1671.471095	-3.008800	3.448100	-10.374000	25.603683	0.000712	20.858631
1672.472058	-2.994700	3.449100	-10.328000	25.620901	0.000712	20.863122
1673.472310	-3.020200	3.445400	-10.405000	25.640157	0.000710	20.845478
1674.472834	-3.006600	3.448100	-10.366000	25.654967	0.000710	20.870309
1675.472999	-3.000700	3.445600	-10.338000	25.651166	0.000712	20.854163
1676.473589	-3.015200	3.445900	-10.389000	25.650099	0.000709	20.854989
1677.473634	-2.993300	3.446400	-10.314000	25.638491	0.000709	20.873675
1678.473381	-3.018700	3.446000	-10.402000	25.618791	0.000710	20.843933
1679.477168	-2.980000	3.445000	-10.265000	25.606241	0.000708	20.855036
1680.474093	-3.011400	3.444300	-10.371000	25.589491	0.000708	20.860974
1681.476590	-2.997600	3.444000	-10.323000	25.584423	0.000707	20.825065
1682.473249	-2.987900	3.443800	-10.288000	25.589917	0.000707	20.871832
1683.474198	-3.006300	3.445100	-10.355000	25.548019	0.000706	20.883807
1684.474309	-3.003900	3.443100	-10.341000	25.533082	0.000706	20.845101
1685.478815	-2.978100	3.442800	-10.252000	25.513427	0.000705	20.851915
1686.474981	-3.011100	3.443100	-10.366000	25.456442	0.000707	20.839735
1687.475110	-2.992000	3.442500	-10.298000	25.433655	0.000704	20.845776
1688.476215	-3.001800	3.442000	-10.330000	25.409892	0.000703	20.861269
1689.476573	-3.011000	3.441100	-10.360000	25.387648	0.000702	20.856003
1690.477685	-2.998500	3.441500	-10.318000	25.412353	0.000702	20.840508
1691.476724	-3.001400	3.440200	-10.325000	25.409595	0.000703	20.843902
1692.479257	-3.003000	3.439300	-10.327000	25.434024	0.000704	20.865586
1693.477407	-2.997800	3.440200	-10.312000	25.462258	0.000703	20.839412
1694.478338	-3.018700	3.438200	-10.377000	25.499853	0.000702	20.843500
1695.477958	-2.991100	3.439400	-10.287000	25.517445	0.000700	20.840778
1696.477950	-2.995100	3.439500	-10.300000	25.537776	0.000702	20.847918
1697.479277	-3.001800	3.440000	-10.324000	25.562521	0.000700	20.832466
1698.478915	-2.989500	3.438300	-10.278000	25.584664	0.000698	20.829100
1699.478786	-3.014400	3.437500	-10.361000	25.559094	0.000697	20.854154
1700.477477	-2.979800	3.438200	-10.244000	25.584736	0.000699	20.853827
1701.478866	-2.968400	3.437700	-10.203000	25.606850	0.000698	20.848062
1702.479562	-3.016800	3.435900	-10.363000	25.633835	0.000696	20.849086
1703.478522	-2.993400	3.437500	-10.289000	25.630180	0.000696	20.834036
1704.479179	-2.999500	3.437100	-10.307000	25.641586	0.000695	20.846439
1705.478926	-2.976700	3.436700	-10.228000	25.657837	0.000696	20.812028
1706.480604	-2.986100	3.435700	-10.258000	25.679700	0.000697	20.832563
1707.480861	-3.004900	3.436000	-10.324000	25.677834	0.000693	20.847758
1708.480934	-3.023300	3.434300	-10.381000	25.619222	0.000695	20.824927
1709.481873	-3.003000	3.434700	-10.313000	25.599937	0.000694	20.828318
1710.482413	-3.016000	3.434400	-10.358000	25.568377	0.000693	20.843088
1711.481053	-2.987500	3.435400	-10.262000	25.550239	0.000694	20.860434
1712.484293	-3.002800	3.433900	-10.311000	25.585298	0.000692	20.816461
1713.483425	-3.016500	3.432300	-10.352000	25.600106	0.000692	20.855513
1714.483490	-3.002900	3.433200	-10.309000	25.629849	0.000693	20.825169
1715.483284	-2.975400	3.432100	-10.211000	25.639191	0.000691	20.813214
1716.485352	-3.001800	3.431200	-10.298000	25.660585	0.000689	20.838021
1717.489711	-3.025200	3.432900	-10.384000	25.667345	0.000690	20.819206
1718.485807	-3.007800	3.430400	-10.317000	25.667116	0.000690	20.827985
1719.488278	-3.006300	3.431200	-10.314000	25.701875	0.000690	20.833973
1720.487845	-3.015100	3.430400	-10.343000	25.710669	0.000690	20.845651
1721.486934	-2.992600	3.431600	-10.269000	25.738124	0.000689	20.815855
1722.490788	-2.978700	3.431700	-10.220000	25.718344	0.000688	20.807368
1723.490189	-3.008800	3.430200	-10.318000	25.728630	0.000689	20.822440
1724.487801	-3.010100	3.430200	-10.324000	25.700631	0.000689	20.824663
1725.488395	-2.983000	3.429500	-10.229000	25.700281	0.000688	20.834742
1726.488823	-3.001600	3.429900	-10.295000	25.707509	0.000688	20.814976
1727.488203	-2.981300	3.429000	-10.221000	25.714912	0.000685	20.826205
1728.490722	-2.987000	3.429100	-10.242000	25.731831	0.000686	20.822810
1729.487919	-3.004600	3.429300	-10.302000	25.733544	0.000688	20.843497
1730.489310	-3.010800	3.427800	-10.319000	25.707953	0.000685	20.818741
1731.490233	-2.986700	3.427400	-10.236000	25.708006	0.000681	20.826381
1732.489804	-3.011200	3.426900	-10.318000	25.690883	0.000684	20.827674
1733.493402	-3.004500	3.425800	-10.292000	25.680350	0.000683	20.823734
1734.488848	-2.999400	3.427200	-10.278000	25.632344	0.000684	20.813924
1735.492744	-2.997200	3.426200	-10.268000	25.649933	0.000682	20.817840
1736.490132	-2.974200	3.426600	-10.190000	25.681341	0.000685	20.810979
1737.490150	-2.994200	3.426300	-10.258000	25.660294	0.000684	20.809280
1738.490474	-2.993500	3.425300	-10.253000	25.681113	0.000683	20.815965
1739.493598	-2.987600	3.423600	-10.228000	25.691502	0.000682	20.815968
1740.489809	-2.996200	3.423200	-10.256000	25.701240	0.000682	20.813896
1741.489396	-2.992600	3.424200	-10.246000	25.664962	0.000682	20.833882
1742.491225	-3.024800	3.422900	-10.353000	25.655670	0.000681	20.830714
1743.492469	-2.995500	3.424100	-10.256000	25.643793	0.000681	20.809776
1744.493048	-3.025900	3.423600	-10.358000	25.669805	0.000680	20.819780
1745.492118	-3.017600	3.421600	-10.324000	25.682204	0.000681	20.844087
1746.498035	-2.982700	3.422900	-10.209000	25.689035	0.000678	20.821077
1747.494737	-2.985100	3.422100	-10.214000	25.711545	0.000681	20.830409
1748.494093	-2.997400	3.421800	-10.256000	25.680013	0.000674	20.815808
1749.496365	-2.994300	3.421200	-10.242000	25.693381	0.000676	20.817855
1750.495245	-2.986400	3.421500	-10.215000	25.662596	0.000676	20.794047
1751.495682	-2.980800	3.421800	-10.199000	25.654717	0.000675	20.806997
1752.496341	-3.012700	3.420200	-10.303000	25.653326	0.000676	20.818402
1753.496535	-3.007100	3.420700	-10.286000	25.633670	0.000675	20.825687
1754.494064	-2.985600	3.419200	-10.208000	25.642117	0.000675	20.802403
1755.496134	-2.996600	3.419100	-10.244000	25.616968	0.000676	20.805119
1756.496667	-2.999500	3.419300	-10.254000	25.625913	0.000674	20.802249
1757.498222	-3.011000	3.419200	-10.294000	25.599331	0.000675	20.813010
1758.496876	-2.993600	3.418000	-10.231000	25.625069	0.000675	20.794289
1759.498542	-2.996200	3.418500	-10.241000	25.616274	0.000673	20.800155
1760.498605	-3.007900	3.419000	-10.282000	25.609336	0.000674	20.810731
1761.497550	-2.993600	3.416900	-10.227000	25.596839	0.000673	20.825206
1762.497317	-3.003000	3.418200	-10.264000	25.642980	0.000676	20.798054
1763.497789	-2.997300	3.416300	-10.238000	25.629511	0.000675	20.779785
1764.497326	-3.031800	3.415000	-10.352000	25.603617	0.000671	20.806884
1765.497157	-3.008900	3.415500	-10.274000	25.604218	0.000671	20.780934
1766.499438	-3.009800	3.415000	-10.278000	25.563637	0.000672	20.806036
1767.499100	-3.009200	3.414700	-10.274000	25.536947	0.000670	20.800146
1768.500070	-3.012300	3.414800	-10.285000	25.535928	0.000670	20.786794
1769.499424	-2.982400	3.415500	-10.185000	25.544376	0.000668	20.790537
1770.500624	-2.974600	3.414900	-10.157000	25.527804	0.000672	20.788119
1771.501707	-2.975600	3.414500	-10.159000	25.510056	0.000670	20.808702
1772.500426	-2.996700	3.412100	-10.224000	25.477755	0.000669	20.801395
1773.500345	-2.997500	3.413600	-10.231000	25.455785	0.000668	20.821533
1774.501890	-2.990500	3.413900	-10.208000	25.397180	0.000670	20.793979
1775.502447	-3.006500	3.413100	-10.261000	25.395416	0.000666	20.801691
1776.504861	-3.001800	3.413200	-10.245000	25.394944	0.000669	20.783199
1777.506384	-3.014900	3.411700	-10.285000	25.423920	0.000667	20.797122
1778.502021	-2.999900	3.411900	-10.234000	25.469822	0.000667	20.792481
1779.501686	-2.996300	3.412400	-10.223000	25.498550	0.000666	20.794776
1780.503111	-2.990900	3.410400	-10.198000	25.540596	0.000665	20.798595
1781.503605	-2.998200	3.410700	-10.226000	25.551105	0.000667	20.793027
1782.505021	-3.012300	3.408500	-10.266000	25.604380	0.000664	20.799116
1783.503576	-2.986100	3.410400	-10.183000	25.628608	0.000665	20.794051
1784.505002	-2.982800	3.409500	-10.169000	25.650128	0.000665	20.787215
1785.504166	-2.991600	3.409800	-10.199000	25.643490	0.000665	20.788609
1786.503376	-2.988000	3.409200	-10.186000	25.657209	0.000664	20.814241
1787.506014	-2.998800	3.409300	-10.224000	25.626920	0.000659	20.797571
1788.504187	-2.991300	3.408600	-10.195000	25.609227	0.000661	20.807302
1789.507020	-2.980200	3.409400	-10.160000	25.589448	0.000660	20.809249
1790.506479	-2.984200	3.409000	-10.172000	25.584554	0.000660	20.778256
1791.505122	-3.004300	3.406800	-10.234000	25.576803	0.000661	20.778058
1792.504560	-2.988100	3.407700	-10.182000	25.567336	0.000662	20.789413
1793.508934	-3.005500	3.406300	-10.236000	25.594444	0.000660	20.780128
1794.505239	-3.011900	3.405800	-10.257000	25.618600	0.000659	20.772145
1795.506413	-2.998500	3.407200	-10.216000	25.647670	0.000659	20.776212
1796.505838	-2.987400	3.405400	-10.172000	25.638553	0.000657	20.778435
1797.506031	-3.008700	3.406200	-10.247000	25.648367	0.000657	20.797775
1798.509849	-2.989200	3.406200	-10.180000	25.607544	0.000655	20.780956
1799.507972	-2.999800	3.405500	-10.215000	25.573058	0.000658	20.770977
1800.511466	-3.030200	3.404200	-10.314000	25.572163	0.000653	20.784778
1801.507148	-3.000300	3.405100	-10.215000	25.509293	0.000654	20.797031
1802.508485	-2.971400	3.406300	-10.119000	25.507108	0.000654	20.771602
1803.508852	-2.988800	3.404500	-10.174000	25.523933	0.000654	20.772852
1804.508605	-2.998300	3.404500	-10.207000	25.554297	0.000653	20.785802
1805.507841	-2.989700	3.403700	-10.173000	25.561382	0.000654	20.792917
1806.507179	-2.987700	3.402200	-10.164000	25.574030	0.000652	20.782385
1807.507639	-2.998700	3.402500	-10.201000	25.591924	0.000653	20.777596
1808.507528	-2.981100	3.403600	-10.146000	25.584295	0.000654	20.795539
1809.509706	-2.977300	3.403700	-10.131000	25.599475	0.000651	20.795611
1810.507671	-2.998500	3.402400	-10.201000	25.580146	0.000650	20.759603
1811.509605	-2.998400	3.400000	-10.194000	25.611033	0.000650	20.787780
1812.509070	-3.001600	3.400100	-10.205000	25.652450	0.000649	20.761098
1813.509916	-3.008900	3.401000	-10.232000	25.686716	0.000650	20.770384
1814.511709	-3.005000	3.400400	-10.216000	25.700878	0.000648	20.770858
1815.507913	-3.010100	3.399400	-10.232000	25.721155	0.000648	20.789328
1816.511758	-2.984200	3.400100	-10.146000	25.745430	0.000648	20.801383
1817.509936	-2.996300	3.399400	-10.185000	25.773131	0.000648	20.786059
1818.510042	-3.010000	3.397800	-10.225000	25.781702	0.000647	20.769065
1819.514826	-3.003300	3.397500	-10.202000	25.785104	0.000646	20.768688
1820.516535	-2.986900	3.398900	-10.151000	25.798671	0.000646	20.784687
1821.515615	-2.991900	3.397700	-10.165000	25.777926	0.000646	20.766694
1822.514599	-2.983500	3.396700	-10.133000	25.792362	0.000645	20.775505
1823.514821	-3.006600	3.396700	-10.211000	25.766600	0.000644	20.780448
1824.515158	-2.997500	3.396400	-10.180000	25.751270	0.000642	20.748927
1825.517174	-3.002500	3.398000	-10.201000	25.767397	0.000643	20.771765
1826.515049	-2.997200	3.396800	-10.180000	25.746552	0.000644	20.751775
1827.519634	-2.984700	3.396400	-10.136000	25.725829	0.000643	20.772685
1828.515951	-3.001600	3.394800	-10.190000	25.666472	0.000642	20.766647
1829.515227	-3.010700	3.395000	-10.221000	25.635811	0.000641	20.750550
1830.517179	-2.997000	3.394900	-10.174000	25.613947	0.000639	20.784542
1831.515983	-2.990200	3.395400	-10.152000	25.625950	0.000638	20.758190
1832.516019	-3.010900	3.394700	-10.220000	25.619166	0.000641	20.768446
1833.514323	-2.989100	3.394200	-10.144000	25.592849	0.000641	20.777103
1834.515283	-3.001400	3.395100	-10.189000	25.611162	0.000639	20.766097
1835.514771	-3.001800	3.394700	-10.190000	25.612306	0.000636	20.765824
1836.516626	-3.008300	3.391600	-10.201000	25.617352	0.000639	20.767099
1837.516258	-2.970800	3.394300	-10.082000	25.640657	0.000638	20.777703
1838.516531	-2.993500	3.391700	-10.152000	25.655842	0.000639	20.751228
1839.516421	-3.009200	3.391300	-10.204000	25.644609	0.000638	20.759387
1840.516884	-2.998500	3.391700	-10.169000	25.649999	0.000637	20.765749
1841.519110	-2.972900	3.393100	-10.085000	25.654995	0.000636	20.770767
1842.516774	-2.994800	3.389600	-10.151000	25.652932	0.000635	20.748779
1843.518782	-3.001200	3.390400	-10.174000	25.632882	0.000635	20.769894
1844.517413	-2.990100	3.390700	-10.137000	25.645800	0.000635	20.752522
1845.517584	-3.030500	3.389400	-10.270000	25.645278	0.000636	20.776180
1846.516790	-2.993900	3.390200	-10.149000	25.646769	0.000634	20.775307
1847.520380	-3.021600	3.389300	-10.240000	25.655242	0.000636	20.771963
1848.518110	-2.981400	3.389100	-10.102000	25.656608	0.000633	20.771439
1849.518395	-2.984200	3.389600	-10.115000	25.653604	0.000634	20.742816
1850.518158	-2.990200	3.389200	-10.134000	25.657428	0.000632	20.763252
1851.517111	-3.000000	3.387500	-10.161000	25.628927	0.000637	20.772560
1852.522362	-3.011400	3.387300	-10.200000	25.634520	0.000632	20.756840
1853.518156	-2.980400	3.388100	-10.097000	25.612975	0.000630	20.770289
1854.524597	-3.000000	3.387000	-10.160000	25.642618	0.000629	20.759283
1855.520176	-2.997100	3.388300	-10.155000	25.634842	0.000631	20.758586
1856.519308	-3.007900	3.388100	-10.190000	25.683492	0.000628	20.751024
1857.520171	-3.026900	3.386300	-10.249000	25.665625	0.000629	20.767218
1858.521453	-2.996400	3.386300	-10.146000	25.667066	0.000628	20.753018
1859.521070	-3.013800	3.385500	-10.202000	25.671215	0.000627	20.731106
1860.520098	-3.011500	3.384300	-10.190000	25.665697	0.000631	20.752117
1861.520514	-2.978200	3.386300	-10.084000	25.657947	0.000629	20.765670
1862.522851	-2.991800	3.384900	-10.126000	25.709800	0.000626	20.754215
1863.523235	-2.987200	3.385400	-10.112000	25.736983	0.000627	20.759707
1864.521950	-3.008100	3.383400	-10.177000	25.718670	0.000624	20.772607
1865.522479	-2.983500	3.385900	-10.101000	25.688979	0.000623	20.753216
1866.522229	-2.976100	3.384600	-10.071000	25.656502	0.000626	20.776073
1867.521889	-3.001100	3.384600	-10.155000	25.632078	0.000626	20.776199
1868.524966	-3.021800	3.382200	-10.219000	25.582359	0.000624	20.767991
1869.522421	-3.006900	3.382200	-10.170000	25.586680	0.000623	20.775175
1870.525035	-3.019100	3.381500	-10.208000	25.626657	0.000621	20.754158
1871.525165	-3.025200	3.380400	-10.226000	25.643380	0.000623	20.760523
1872.526530	-2.997500	3.382100	-10.138000	25.666263	0.000621	20.779713
1873.529169	-3.013000	3.381900	-10.189000	25.672078	0.000623	20.775596
1874.529630	-3.013100	3.381800	-10.189000	25.686613	0.000624	20.752736
1875.527137	-2.975400	3.381200	-10.058000	25.672178	0.000624	20.770007
1876.526461	-3.009700	3.380400	-10.173000	25.716650	0.000620	20.775794
1877.528508	-2.985900	3.380200	-10.092000	25.726313	0.000621	20.767482
1878.529890	-3.016600	3.380000	-10.195000	25.740300	0.000618	20.778212
1879.530729	-3.001000	3.379200	-10.141000	25.737593	0.000619	20.773122
1880.529830	-2.989500	3.380900	-10.106000	25.763831	0.000617	20.771501
1881.529222	-3.018300	3.378500	-10.196000	25.767679	0.000621	20.786747
1882.531232	-2.993900	3.378200	-10.113000	25.789218	0.000618	20.794632
1883.530827	-2.970000	3.379200	-10.036000	25.807999	0.000620	20.772246
1884.535669	-2.987700	3.377800	-10.091000	25.772521	0.000616	20.772170
1885.532239	-3.006900	3.377000	-10.154000	25.723775	0.000617	20.773941
1886.533648	-2.979900	3.376900	-10.062000	25.713289	0.000615	20.758193
1887.531027	-2.989900	3.377500	-10.097000	25.735476	0.000618	20.780479
1888.532562	-3.024300	3.375600	-10.208000	25.718510	0.000613	20.756799
1889.532555	-2.994400	3.376500	-10.109000	25.755700	0.000613	20.777559
1890.535050	-2.994900	3.376500	-10.110000	25.763896	0.000615	20.755446
1891.534211	-2.995000	3.376600	-10.112000	25.728542	0.000615	20.766402
1892.534363	-3.000800	3.374600	-10.125000	25.722206	0.000612	20.755295
1893.534565	-2.985400	3.374900	-10.075000	25.734379	0.000612	20.767997
1894.534609	-3.001200	3.375300	-10.129000	25.745261	0.000613	20.736253
1895.541451	-2.993900	3.375900	-10.106000	25.711642	0.000614	20.776928
1896.534884	-3.026300	3.373100	-10.206000	25.706627	0.000612	20.773313
1897.534911	-2.981000	3.375200	-10.060000	25.676136	0.000611	20.764025
1898.534194	-3.011300	3.373400	-10.158000	25.658350	0.000611	20.772240
1899.535590	-2.991200	3.373600	-10.090000	25.655862	0.000607	20.755041
1900.534938	-3.025600	3.372500	-10.203000	25.686572	0.000610	20.773084
1901.536472	-3.003000	3.373300	-10.130000	25.699715	0.000613	20.783915
1902.534411	-3.002700	3.372800	-10.127000	25.711292	0.000610	20.784163
1903.534797	-3.006400	3.373700	-10.141000	25.685381	0.000608	20.758611
1904.535270	-2.983400	3.372600	-10.061000	25.717082	0.000607	20.781918
1905.534230	-3.004000	3.371500	-10.126000	25.732213	0.000610	20.788107
1906.536224	-2.992100	3.372000	-10.089000	25.741404	0.000608	20.791649
1907.535498	-2.985500	3.370900	-10.063000	25.752733	0.000609	20.768889
1908.537643	-2.992700	3.370700	-10.087000	25.742817	0.000607	20.777895
1909.534205	-2.984300	3.372200	-10.063000	25.757157	0.000608	20.779497
1910.535315	-2.984900	3.371400	-10.062000	25.751964	0.000604	20.773332
1911.536099	-3.005800	3.370300	-10.129000	25.751714	0.000605	20.783039
1912.535912	-2.995500	3.369500	-10.092000	25.758098	0.000605	20.787080
1913.535022	-2.999500	3.369300	-10.105000	25.765328	0.000604	20.780118
1914.536045	-2.988900	3.369500	-10.069000	25.756059	0.000600	20.772705
1915.536502	-3.008500	3.367700	-10.131000	25.778842	0.000603	20.788952
1916.536314	-3.002600	3.368400	-10.113000	25.775563	0.000600	20.791822
1917.538768	-2.978800	3.369000	-10.035000	25.840059	0.000602	20.767941
1918.536840	-2.997000	3.368900	-10.096000	25.830565	0.000603	20.783061
1919.538554	-3.037300	3.366800	-10.224000	25.839212	0.000601	20.791272
1920.542057	-3.004900	3.365700	-10.113000	25.797027	0.000599	20.806269
1921.541373	-2.970700	3.367500	-10.003000	25.782991	0.000601	20.795963
1922.542158	-2.988900	3.366800	-10.062000	25.771662	0.000598	20.809240
1923.541734	-2.997000	3.365400	-10.085000	25.734242	0.000600	20.793464
1924.542635	-2.995100	3.365400	-10.078000	25.699184	0.000598	20.791442
1925.542801	-3.004000	3.365600	-10.108000	25.684706	0.000599	20.791124
1926.542764	-3.004000	3.364800	-10.106000	25.652251	0.000596	20.794089
1927.544135	-3.014500	3.364300	-10.141000	25.655258	0.000599	20.785256
1928.544980	-3.041200	3.363100	-10.227000	25.684331	0.000598	20.793593
1929.542632	-3.002700	3.364000	-10.101000	25.702692	0.000597	20.799706
1930.543061	-3.015400	3.362500	-10.138000	25.735039	0.000598	20.800429
1931.543674	-3.006800	3.364000	-10.114000	25.754243	0.000595	20.783682
1932.543257	-3.000400	3.363900	-10.092000	25.740554	0.000592	20.791269
1933.544671	-3.021800	3.362400	-10.159000	25.784282	0.000597	20.780191
1934.542707	-3.002500	3.362400	-10.095000	25.775163	0.000594	20.797584
1935.544059	-2.975500	3.364200	-10.009000	25.739588	0.000593	20.790773
1936.544574	-2.994700	3.361700	-10.067000	25.715209	0.000594	20.788098
1937.542381	-3.011000	3.361900	-10.122000	25.691262	0.000592	20.806718
1938.547814	-2.994600	3.361700	-10.064000	25.664428	0.000590	20.797311
1939.545494	-3.023300	3.361000	-10.161000	25.651181	0.000591	20.791118
1940.548572	-3.019900	3.361100	-10.148000	25.695310	0.000591	20.813629
1941.547025	-2.990200	3.359800	-10.046000	25.700056	0.000591	20.807017
1942.546535	-2.997000	3.360500	-10.070000	25.713221	0.000588	20.802696
1943.546513	-2.993000	3.360400	-10.057000	25.765619	0.000592	20.791790
1944.549949	-2.979400	3.360100	-10.010000	25.762365	0.000589	20.793263
1945.545637	-2.977000	3.360100	-10.002000	25.745493	0.000590	20.809033
1946.546426	-2.998000	3.359200	-10.070000	25.725967	0.000589	20.799851
1947.548396	-2.986700	3.359500	-10.033000	25.741245	0.000588	20.792911
1948.546954	-3.013000	3.358200	-10.116000	25.769020	0.000587	20.800897
1949.550730	-3.006000	3.358400	-10.094000	25.770537	0.000588	20.795307
1950.548429	-3.015000	3.357100	-10.120000	25.772125	0.000588	20.813498
1951.551789	-2.996800	3.359200	-10.066000	25.802310	0.000585	20.803990
1952.547106	-2.987900	3.357300	-10.030000	25.814980	0.000586	20.803914
1953.548019	-2.985900	3.358100	-10.026000	25.825661	0.000586	20.786195
1954.549218	-2.985900	3.357200	-10.023000	25.855076	0.000586	20.792035
1955.549808	-2.992600	3.357300	-10.047000	25.855273	0.000584	20.796501
1956.547877	-2.999200	3.357300	-10.068000	25.850503	0.000584	20.800244
1957.550069	-3.013000	3.354300	-10.105000	25.850181	0.000583	20.811774
1958.551965	-2.992600	3.356100	-10.043000	25.837783	0.000583	20.786992
1959.549644	-3.009900	3.354800	-10.097000	25.869108	0.000584	20.812295
1960.552594	-3.010800	3.355600	-10.102000	25.873284	0.000584	20.816016
1961.551614	-2.992200	3.356100	-10.041000	25.923858	0.000582	20.806605
1962.550898	-2.972400	3.354500	-9.968900	25.951157	0.000579	20.818384
1963.548857	-3.006400	3.354100	-10.083000	25.955577	0.000581	20.803384
1964.549816	-3.009500	3.353200	-10.089000	25.952026	0.000581	20.815464
1965.552932	-3.021700	3.352400	-10.129000	25.953889	0.000581	20.813068
1966.550519	-2.998500	3.352800	-10.052000	25.939108	0.000580	20.804857
1967.551285	-3.019600	3.352400	-10.122000	25.917398	0.000579	20.828090
1968.550557	-3.001300	3.352500	-10.060000	25.915632	0.000580	20.798815
1969.550363	-2.990900	3.352600	-10.026000	25.930463	0.000577	20.823672
1970.550141	-2.993200	3.351600	-10.031000	25.906042	0.000578	20.823320
1971.552311	-3.001500	3.350400	-10.055000	25.892304	0.000576	20.818054
1972.549926	-2.992200	3.350300	-10.023000	25.849775	0.000577	20.837918
1973.550449	-3.022300	3.349700	-10.122000	25.877770	0.000576	20.823841
1974.550101	-2.976100	3.351700	-9.973600	25.871684	0.000579	20.811564
1975.552731	-2.987900	3.350100	-10.009000	25.870018	0.000574	20.827434
1976.554037	-2.985500	3.350400	-10.002000	25.886288	0.000574	20.839510
1977.556462	-3.002700	3.349300	-10.054000	25.951170	0.000575	20.807966
1978.551939	-2.970400	3.350900	-9.952600	25.970621	0.000573	20.815178
1979.554501	-2.983900	3.350000	-9.995100	25.951767	0.000573	20.811884
1980.550962	-3.000200	3.347700	-10.043000	25.967289	0.000574	20.848814
1981.551898	-3.012900	3.349100	-10.089000	25.983013	0.000572	20.839482
1982.553571	-3.007400	3.348800	-10.071000	25.987658	0.000574	20.822338
1983.557003	-2.985000	3.348400	-9.992900	26.011105	0.000570	20.825980
1984.557065	-2.995800	3.348200	-10.030000	26.059563	0.000571	20.823933
1985.553106	-3.025900	3.346500	-10.125000	26.036883	0.000571	20.821060
1986.556593	-3.010200	3.348100	-10.078000	25.984198	0.000572	20.821233
1987.556835	-2.993000	3.346900	-10.016000	25.998632	0.000568	20.825776
1988.552854	-3.012200	3.346100	-10.078000	26.014552	0.000570	20.836556
1989.553454	-2.977000	3.346000	-9.959600	26.021356	0.000568	20.838650
1990.556208	-2.989100	3.347000	-10.003000	26.033527	0.000568	20.828593
1991.556022	-2.991700	3.345100	-10.006000	26.043065	0.000567	20.845288
1992.562173	-2.991900	3.345900	-10.009000	25.997910	0.000567	20.841646
1993.556334	-3.010000	3.345000	-10.067000	26.001085	0.000566	20.840569
1994.557410	-3.010200	3.346900	-10.073000	25.977785	0.000566	20.828540
1995.559023	-3.001600	3.344300	-10.038000	26.001282	0.000566	20.820853
1996.556720	-2.978900	3.345200	-9.964400	26.009727	0.000565	20.843561
1997.558996	-3.000800	3.343300	-10.031000	26.012337	0.000565	20.836700
1998.558506	-3.014200	3.342600	-10.074000	26.030467	0.000566	20.840691
1999.557395	-3.009600	3.342700	-10.060000	26.019935	0.000563	20.838644
2000.558694	-2.997500	3.342400	-10.018000	25.977060	0.000563	20.836820
2001.559511	-3.006100	3.342400	-10.046000	25.980417	0.000563	20.843511
2002.559373	-3.021900	3.342400	-10.099000	26.012906	0.000562	20.846281
2003.561814	-3.016800	3.341500	-10.080000	26.032702	0.000564	20.828712
2004.559411	-2.986600	3.342500	-9.982100	26.011640	0.000561	20.835526
2005.564274	-3.004600	3.340800	-10.037000	25.975769	0.000564	20.839790
2006.560523	-2.998600	3.340600	-10.016000	25.957138	0.000558	20.859952
2007.560102	-3.002300	3.338900	-10.023000	25.967921	0.000561	20.857509
2008.562528	-2.996000	3.340200	-10.005000	25.966602	0.000560	20.848124
2009.560662	-2.980800	3.341200	-9.956900	25.946630	0.000559	20.828059
2010.562717	-3.019500	3.338100	-10.078000	25.935427	0.000559	20.846202
2011.560730	-3.005300	3.338800	-10.031000	25.927379	0.000559	20.850918
2012.561303	-3.007400	3.338400	-10.039000	25.999388	0.000558	20.834597
2013.562226	-3.013400	3.338300	-10.059000	25.973134	0.000558	20.831454
2014.562710	-2.985500	3.338600	-9.966100	25.977429	0.000555	20.856156
2015.561585	-3.026500	3.338500	-10.102000	25.964514	0.000557	20.840811
2016.563285	-2.998100	3.337800	-10.006000	26.005102	0.000558	20.834647
2017.563474	-3.035100	3.336800	-10.127000	26.019438	0.000556	20.864696
2018.562642	-2.977100	3.336900	-9.933000	25.974103	0.000555	20.853763
2019.566544	-2.992400	3.337400	-9.985700	26.002545	0.000554	20.871906
2020.562541	-2.978800	3.335600	-9.934300	25.991765	0.000554	20.840214
2021.564710	-2.990200	3.336200	-9.974100	25.970753	0.000555	20.873629
2022.563546	-2.996700	3.335700	-9.995300	25.946433	0.000555	20.865318
2023.565799	-2.998800	3.335600	-10.002000	25.941291	0.000552	20.857308
2024.569429	-3.010900	3.335900	-10.043000	25.972140	0.000552	20.855110
2025.568442	-2.992900	3.336900	-9.985400	25.968268	0.000551	20.872556
2026.565922	-3.029400	3.333100	-10.096000	25.997354	0.000552	20.877595
2027.566033	-3.012500	3.335200	-10.047000	26.021969	0.000550	20.854438
2028.566409	-3.013900	3.334200	-10.048000	26.060192	0.000551	20.861073
2029.565844	-2.979200	3.335000	-9.934600	26.099904	0.000548	20.859249
2030.570691	-3.003400	3.332000	-10.006000	26.134627	0.000552	20.860473
2031.566889	-2.986900	3.334900	-9.960100	26.143793	0.000547	20.889596
2032.571306	-3.005600	3.331700	-10.014000	26.116621	0.000548	20.885052
2033.569993	-3.034500	3.331000	-10.106000	26.101892	0.000548	20.868358
2034.569693	-2.999300	3.330700	-9.988900	26.043872	0.000544	20.869331
2035.571482	-2.981400	3.332900	-9.934800	26.068312	0.000548	20.863541
2036.570165	-3.018600	3.332200	-10.057000	26.048466	0.000545	20.867309
2037.572053	-3.004600	3.331700	-10.009000	26.080806	0.000546	20.879413
2038.568552	-2.991700	3.331800	-9.966900	26.102289	0.000545	20.895781
2039.570677	-2.991700	3.331200	-9.964300	26.148234	0.000546	20.874145
2040.569930	-2.995100	3.330700	-9.975100	26.183474	0.000544	20.861193
2041.571542	-2.974300	3.330600	-9.904900	26.196661	0.000544	20.881555
2042.572446	-2.980400	3.330200	-9.924500	26.215213	0.000544	20.869852
2043.572417	-3.029000	3.329500	-10.084000	26.210445	0.000544	20.897775
2044.572703	-3.011800	3.328500	-10.023000	26.188292	0.000541	20.877413
2045.570040	-2.994000	3.328600	-9.964400	26.179674	0.000540	20.873021
2046.573888	-3.010900	3.330100	-10.025000	26.176196	0.000541	20.879483
2047.572304	-3.009100	3.328200	-10.014000	26.174184	0.000540	20.892158
2048.572720	-2.982200	3.328400	-9.925000	26.207461	0.000538	20.891932
2049.573634	-3.009700	3.327400	-10.012000	26.211707	0.000540	20.871545
2050.572191	-3.004100	3.327000	-9.994000	26.227131	0.000540	20.860018
2051.574985	-3.004800	3.327100	-9.996600	26.255638	0.000538	20.889612
2052.575010	-3.001600	3.326500	-9.983200	26.258025	0.000539	20.879683
2053.574205	-2.994300	3.326500	-9.959800	26.247692	0.000538	20.876412
2054.575333	-3.006000	3.325400	-9.995000	26.277067	0.000536	20.877009
2055.577158	-3.010000	3.325300	-10.008000	26.281738	0.000536	20.883125
2056.576654	-3.015200	3.325400	-10.026000	26.298299	0.000535	20.878905
2057.578875	-2.991600	3.324200	-9.942800	26.257151	0.000536	20.880701
2058.576053	-3.030600	3.325300	-10.077000	26.208654	0.000536	20.881279
2059.578423	-2.998900	3.325300	-9.970800	26.181930	0.000533	20.900416
2060.577201	-3.000600	3.325000	-9.975600	26.160521	0.000534	20.881276
2061.578740	-3.013000	3.324100	-10.014000	26.158509	0.000535	20.886365
2062.580595	-3.005600	3.323200	-9.987100	26.174428	0.000534	20.898567
2063.577681	-2.996200	3.324300	-9.959000	26.174924	0.000534	20.895747
2064.580553	-3.007500	3.321900	-9.989600	26.168690	0.000532	20.898966
2065.579629	-2.991300	3.322700	-9.938600	26.154734	0.000532	20.897270
2066.580806	-3.008900	3.321900	-9.994300	26.147359	0.000532	20.891282
2067.581163	-3.012400	3.321100	-10.003000	26.154709	0.000530	20.902460
2068.586527	-3.009600	3.323000	-9.998500	26.166453	0.000532	20.901459
2069.583398	-3.004200	3.321400	-9.977200	26.203758	0.000531	20.902909
2070.583827	-2.984200	3.321400	-9.910500	26.217416	0.000529	20.903358
2071.583858	-3.017700	3.321100	-10.020000	26.239221	0.000531	20.923371
2072.583030	-3.006500	3.320100	-9.980300	26.226553	0.000531	20.919651
2073.587178	-3.012800	3.318900	-9.997400	26.251486	0.000529	20.906774
2074.582464	-3.013800	3.319100	-10.002000	26.298074	0.000529	20.893851
2075.588807	-2.981500	3.320100	-9.897700	26.298571	0.000527	20.903358
2076.584400	-2.990000	3.318900	-9.922600	26.309619	0.000527	20.914935
2077.583899	-2.999900	3.319000	-9.954800	26.345251	0.000525	20.911390
2078.585966	-3.006300	3.318300	-9.974900	26.336215	0.000527	20.903732
2079.584790	-3.017500	3.317900	-10.011000	26.304976	0.000526	20.907898
2080.585536	-2.997100	3.318000	-9.943300	26.284067	0.000526	20.914859
2081.585846	-2.996600	3.318800	-9.944600	26.282848	0.000524	20.906049
2082.585473	-2.993600	3.319100	-9.934600	26.251336	0.000524	20.905201
2083.584804	-2.995600	3.319000	-9.940900	26.250017	0.000526	20.902454
2084.587204	-2.990500	3.317300	-9.918700	26.261691	0.000525	20.917503
2085.586012	-2.991600	3.316000	-9.917900	26.270334	0.000521	20.904379
2086.586176	-3.003800	3.315800	-9.959400	26.297177	0.000524	20.919026
2087.585999	-3.037900	3.315300	-10.071000	26.236709	0.000521	20.910891
2088.587449	-3.004700	3.316100	-9.962600	26.249823	0.000521	20.894674
2089.590190	-2.967000	3.315600	-9.836300	26.276440	0.000523	20.879223
2090.587243	-2.990400	3.314700	-9.910400	26.253820	0.000519	20.902008
2091.589698	-2.993000	3.316000	-9.922900	26.263653	0.000518	20.896244
2092.587801	-2.992700	3.315800	-9.922400	26.272368	0.000519	20.913534
2093.587862	-3.009800	3.314400	-9.973900	26.287716	0.000518	20.899562
2094.589230	-3.014200	3.313400	-9.986100	26.340630	0.000519	20.898686
2095.590296	-3.008800	3.313100	-9.967800	26.361567	0.000518	20.894124
2096.587898	-3.016800	3.313400	-9.994400	26.294297	0.000518	20.880098
2097.588622	-3.008300	3.313100	-9.964700	26.278849	0.000518	20.889703
2098.589643	-3.008500	3.313100	-9.966100	26.242293	0.000514	20.882366
2099.588990	-3.009700	3.311600	-9.966200	26.263678	0.000515	20.887735
2100.594160	-2.993700	3.311800	-9.913800	26.285057	0.000512	20.880296
2101.590291	-3.007300	3.310300	-9.954200	26.291019	0.000514	20.898140
2102.594002	-3.015700	3.310600	-9.982400	26.292481	0.000510	20.874007
2103.592885	-3.019800	3.312000	-10.000000	26.278330	0.000512	20.873062
2104.590749	-3.011400	3.308800	-9.962100	26.295659	0.000511	20.875304
2105.592688	-3.002600	3.310400	-9.937900	26.288360	0.000511	20.897365
2106.591139	-2.963300	3.310100	-9.808300	26.322874	0.000511	20.870412
2107.590957	-2.978500	3.309400	-9.855500	26.298318	0.000509	20.883665
2108.592721	-2.990000	3.311000	-9.899200	26.326873	0.000510	20.900508
2109.592255	-2.976800	3.310600	-9.853800	26.313063	0.000509	20.867665
2110.592340	-2.986800	3.309400	-9.882600	26.265263	0.000510	20.864198
2111.596083	-3.036200	3.306500	-10.037000	26.248202	0.000508	20.857485
2112.593264	-3.018900	3.306400	-9.980400	26.268788	0.000508	20.873430
2113.594503	-2.985800	3.308000	-9.875500	26.233944	0.000507	20.890570
2114.593913	-2.992200	3.305900	-9.890700	26.261657	0.000506	20.861998
2115.593752	-2.973900	3.308700	-9.838400	26.250977	0.000507	20.879239
2116.598180	-3.010900	3.303900	-9.946600	26.284227	0.000506	20.875669
2117.593116	-2.994100	3.305200	-9.895000	26.271191	0.000508	20.864466
2118.593883	-2.983600	3.306200	-9.864000	26.269151	0.000507	20.879010
2119.595463	-3.027800	3.303700	-10.002000	26.240369	0.000505	20.867631
2120.592966	-3.005500	3.305000	-9.932400	26.229717	0.000504	20.861668
2121.593263	-2.981100	3.305400	-9.852600	26.259886	0.000502	20.857373
2122.596118	-3.010300	3.303200	-9.942500	26.234060	0.000504	20.866507
2123.593855	-3.018200	3.303300	-9.968000	26.240141	0.000503	20.858868
2124.593643	-3.020800	3.302500	-9.974700	26.280893	0.000502	20.852406
2125.596566	-2.976900	3.304900	-9.837400	26.306068	0.000502	20.858739
2126.595766	-3.007700	3.304000	-9.936100	26.300382	0.000498	20.854447
2127.599970	-3.004400	3.302400	-9.920700	26.300803	0.000501	20.836854
2128.595168	-3.001000	3.302700	-9.910600	26.310384	0.000501	20.862128
2129.600509	-2.996000	3.302900	-9.894400	26.298317	0.000502	20.862803
2130.596766	-2.979200	3.302800	-9.839200	26.315102	0.000498	20.870662
2131.596850	-3.008800	3.301200	-9.931500	26.349046	0.000498	20.852146
2132.598294	-3.010100	3.301000	-9.935000	26.325631	0.000499	20.864649
2133.597179	-3.037500	3.300200	-10.022000	26.343357	0.000500	20.856385
2134.597772	-3.013700	3.300000	-9.943400	26.331287	0.000498	20.858479
2135.598046	-2.998500	3.300800	-9.896800	26.341345	0.000497	20.845354
2136.598371	-2.987200	3.300100	-9.856400	26.338536	0.000497	20.826411
2137.598821	-3.003800	3.299500	-9.909300	26.324529	0.000495	20.839361
2138.600578	-2.996200	3.299200	-9.883300	26.282094	0.000495	20.860250
2139.598197	-2.979400	3.299500	-9.828300	26.260762	0.000494	20.828383
2140.601143	-3.007400	3.299600	-9.922500	26.265103	0.000495	20.871624
2141.600421	-3.002300	3.298800	-9.902800	26.312831	0.000495	20.855105
2142.600316	-3.022600	3.297100	-9.964500	26.343523	0.000495	20.844225
2143.604589	-2.972600	3.297000	-9.798800	26.364750	0.000491	20.826679
2144.600610	-3.019500	3.297000	-9.953700	26.340320	0.000491	20.832472
2145.601641	-2.988900	3.297200	-9.854100	26.330238	0.000493	20.831348
2146.603480	-2.987800	3.295600	-9.844500	26.342307	0.000491	20.833046
2147.602464	-2.991500	3.296400	-9.860500	26.350572	0.000488	20.837085
2148.605849	-3.015700	3.295200	-9.936200	26.351615	0.000490	20.845719
2149.606666	-2.979400	3.297100	-9.822800	26.374239	0.000488	20.840008
2150.603961	-2.992600	3.296200	-9.863800	26.377591	0.000486	20.854756
2151.605470	-2.949000	3.295800	-9.718100	26.404751	0.000485	20.823733
2152.604326	-2.982700	3.297000	-9.832800	26.450486	0.000485	20.847889
2153.605758	-2.981700	3.295600	-9.825800	26.433578	0.000486	20.828999
2154.606026	-2.973600	3.293000	-9.790900	26.433803	0.000483	20.850087
2155.605263	-3.017500	3.293100	-9.936100	26.409644	0.000484	20.830073
2156.604909	-3.009400	3.291900	-9.905600	26.399040	0.000484	20.836485
2157.606019	-2.987600	3.294000	-9.840500	26.417763	0.000484	20.848191
2158.605486	-3.001200	3.293000	-9.881700	26.429879	0.000482	20.835712
2159.610797	-3.000700	3.293000	-9.879800	26.419825	0.000480	20.833668
2160.607312	-3.015000	3.290300	-9.918500	26.420719	0.000481	20.834092
2161.610518	-2.996000	3.292900	-9.864900	26.388864	0.000481	20.831473
2162.607375	-2.991800	3.291300	-9.846100	26.398521	0.000481	20.826007
2163.606247	-2.999400	3.290000	-9.866700	26.384196	0.000479	20.821092
2164.607924	-2.990200	3.290400	-9.838200	26.412180	0.000478	20.830726
2165.611229	-3.003500	3.289700	-9.879400	26.444281	0.000478	20.833593
2166.607773	-2.989600	3.290000	-9.834800	26.427673	0.000477	20.836814
2167.610333	-3.011000	3.288300	-9.900000	26.413445	0.000478	20.833894
2168.609558	-3.010900	3.289100	-9.902000	26.372898	0.000478	20.822540
2169.608448	-2.955700	3.290500	-9.723800	26.378041	0.000474	20.850941
2170.611297	-2.992300	3.288200	-9.837700	26.355171	0.000474	20.849292
2171.610210	-3.010100	3.288300	-9.897500	26.337515	0.000475	20.833919
2172.611006	-2.999200	3.288600	-9.862200	26.358573	0.000473	20.828531
2173.611192	-2.992700	3.287200	-9.836200	26.401205	0.000473	20.835342
2174.609914	-2.995300	3.287500	-9.845400	26.412130	0.000473	20.826408
2175.610946	-3.035800	3.284500	-9.970000	26.407762	0.000473	20.829130
2176.615109	-2.984000	3.287000	-9.807200	26.427498	0.000472	20.820518
2177.611547	-3.011900	3.286100	-9.896300	26.447684	0.000471	20.832271
2178.611696	-2.983400	3.285200	-9.800200	26.427024	0.000469	20.831420
2179.613299	-2.990500	3.285600	-9.823800	26.383350	0.000468	20.834940
2180.612517	-2.994800	3.286900	-9.841200	26.368821	0.000470	20.827925
2181.615922	-3.010500	3.284100	-9.885400	26.398965	0.000468	20.818866
2182.612215	-2.971300	3.284700	-9.758300	26.394172	0.000470	20.831119
2183.614697	-3.002700	3.285100	-9.863800	26.435562	0.000467	20.825778
2184.612529	-3.005300	3.284000	-9.867300	26.461283	0.000467	20.827922
2185.612883	-2.997400	3.284800	-9.844800	26.509971	0.000469	20.825652
2186.613081	-2.985000	3.281500	-9.794100	26.520149	0.000466	20.828296
2187.613303	-2.996600	3.283700	-9.838500	26.545818	0.000465	20.827072
2188.613892	-2.994400	3.281400	-9.824600	26.498000	0.000464	20.838275
2189.613819	-3.002900	3.281300	-9.852700	26.491097	0.000465	20.829440
2190.613824	-3.010200	3.282600	-9.880600	26.480197	0.000464	20.834131
2191.614563	-2.991500	3.283000	-9.820700	26.463611	0.000462	20.813193
2192.613780	-3.029600	3.280100	-9.936300	26.461549	0.000464	20.815388
2193.613544	-3.020100	3.279300	-9.902800	26.491291	0.000463	20.822522
2194.614789	-2.999900	3.280300	-9.839900	26.493452	0.000461	20.819480
2195.614196	-2.981100	3.281500	-9.781000	26.480241	0.000459	20.811416
2196.615018	-3.016700	3.277800	-9.886400	26.493450	0.000461	20.824692
2197.616685	-2.998500	3.279400	-9.832800	26.511275	0.000459	20.806574
2198.615251	-2.991900	3.278800	-9.808700	26.486895	0.000461	20.809096
2199.615347	-2.989100	3.278900	-9.800400	26.448210	0.000458	20.808145
2200.615513	-2.964300	3.278900	-9.718200	26.437485	0.000457	20.821072
2201.616023	-2.987800	3.277400	-9.791300	26.471051	0.000457	20.807868
2202.619406	-3.003000	3.277800	-9.842300	26.492054	0.000456	20.800530
2203.620669	-3.016000	3.276500	-9.881300	26.501391	0.000456	20.828881
2204.617582	-2.968300	3.276100	-9.723200	26.500941	0.000455	20.803300
2205.617960	-2.998000	3.277200	-9.823300	26.536173	0.000456	20.815480
2206.618818	-2.998000	3.275300	-9.818400	26.541484	0.000455	20.817973
2207.617671	-3.011500	3.276100	-9.865300	26.539078	0.000454	20.816029
2208.620022	-3.009400	3.275900	-9.857400	26.513528	0.000452	20.818796
2209.618653	-3.014300	3.274600	-9.869900	26.516708	0.000453	20.814880
2210.621707	-2.989700	3.276200	-9.793300	26.496321	0.000451	20.802449
2211.620652	-2.990800	3.273000	-9.787100	26.523956	0.000451	20.816950
2212.620787	-3.006300	3.273200	-9.838600	26.565041	0.000450	20.830273
2213.626761	-2.974300	3.275500	-9.741000	26.574375	0.000449	20.812155
2214.620963	-3.010600	3.273400	-9.854000	26.608635	0.000449	20.810560
2215.626313	-3.018000	3.271300	-9.871900	26.628346	0.000449	20.803821
2216.623306	-3.011200	3.272500	-9.853200	26.606180	0.000448	20.799083
2217.623536	-2.989500	3.271300	-9.779300	26.600367	0.000445	20.810309
2218.624685	-2.953200	3.272500	-9.662000	26.574821	0.000445	20.801699
2219.627682	-3.021500	3.271500	-9.884000	26.550743	0.000445	20.811160
2220.625128	-2.999900	3.272700	-9.817300	26.547039	0.000443	20.807910
2221.625773	-3.005800	3.271100	-9.831100	26.579338	0.000445	20.808136
2222.625385	-3.005100	3.269200	-9.822500	26.594036	0.000443	20.819117
2223.625517	-3.015800	3.269100	-9.858200	26.576708	0.000444	20.795535
2224.628010	-3.020800	3.269400	-9.873900	26.571869	0.000443	20.812007
2225.625922	-3.034300	3.269000	-9.917700	26.572585	0.000441	20.808460
2226.629491	-2.989300	3.270200	-9.774700	26.585495	0.000441	20.801049
2227.626602	-2.992000	3.268900	-9.779600	26.593092	0.000440	20.802522
2228.626579	-2.988100	3.269300	-9.768400	26.588029	0.000439	20.808337
2229.627476	-2.990200	3.268500	-9.771900	26.625713	0.000442	20.801649
2230.626539	-2.998000	3.268500	-9.798200	26.656467	0.000438	20.781832
2231.627226	-3.007400	3.268100	-9.827300	26.677370	0.000439	20.779611
2232.628835	-2.995400	3.266900	-9.784500	26.652944	0.000437	20.796307
2233.628135	-2.996900	3.266400	-9.787400	26.653166	0.000437	20.795108
2234.629766	-3.028600	3.264700	-9.885100	26.591949	0.000437	20.807062
2235.630925	-3.003000	3.264800	-9.802400	26.590559	0.000438	20.790492
2236.630318	-2.980800	3.265700	-9.733700	26.557144	0.000436	20.792464
2237.631510	-3.000500	3.264400	-9.793500	26.504507	0.000435	20.805935
2238.630789	-3.003100	3.264000	-9.800800	26.528342	0.000435	20.792436
2239.631556	-3.001600	3.263200	-9.793600	26.517915	0.000434	20.790963
2240.634762	-2.984400	3.264100	-9.740500	26.564117	0.000434	20.802318
2241.631618	-2.971200	3.265400	-9.700900	26.579705	0.000430	20.791909
2242.633606	-2.985800	3.264100	-9.744100	26.628784	0.000434	20.800943
2243.631921	-2.999700	3.262200	-9.784900	26.636977	0.000433	20.785471
2244.632185	-3.003100	3.261400	-9.793400	26.646235	0.000430	20.794305
2245.633878	-3.008000	3.261600	-9.809200	26.651348	0.000429	20.787591
2246.635575	-2.984000	3.261900	-9.732100	26.670436	0.000427	20.780702
2247.633910	-3.015100	3.260300	-9.829400	26.661128	0.000428	20.797423
2248.634791	-2.984200	3.260300	-9.727900	26.635809	0.000428	20.794729
2249.634583	-2.983000	3.261900	-9.729500	26.632158	0.000426	20.797696
2250.635978	-3.003900	3.259400	-9.789700	26.656062	0.000426	20.775260
2251.637568	-3.010200	3.260200	-9.812700	26.672120	0.000427	20.798990
2252.634444	-3.000200	3.259000	-9.777000	26.663883	0.000426	20.770795
2253.638022	-2.991200	3.259200	-9.747700	26.672667	0.000425	20.778677
2254.635192	-2.998700	3.258600	-9.769800	26.686963	0.000423	20.793049
2255.634348	-3.014100	3.257700	-9.818000	26.684980	0.000422	20.792952
2256.636278	-3.005700	3.258000	-9.792000	26.714989	0.000423	20.804156
2257.635160	-2.995800	3.258400	-9.761200	26.725215	0.000422	20.795470
2258.634759	-3.025700	3.255900	-9.850100	26.753909	0.000422	20.765997
2259.634953	-3.017200	3.256200	-9.823700	26.762969	0.000422	20.783167
2260.634772	-2.987300	3.256500	-9.727100	26.767386	0.000420	20.776228
2261.635359	-3.008200	3.255400	-9.792200	26.754430	0.000420	20.775531
2262.637298	-2.975000	3.255500	-9.684300	26.730201	0.000418	20.792422
2263.636733	-3.002100	3.255600	-9.772400	26.725734	0.000419	20.779396
2264.635975	-3.013100	3.254200	-9.803800	26.734673	0.000417	20.776529
2265.636970	-3.002200	3.253800	-9.767400	26.707762	0.000418	20.787407
2266.637882	-3.025900	3.253300	-9.841900	26.716948	0.000417	20.795219
2267.640642	-2.995400	3.252500	-9.741800	26.734795	0.000416	20.776652
2268.637344	-3.005400	3.251700	-9.771500	26.771306	0.000415	20.775427
2269.638987	-2.991500	3.252800	-9.730000	26.794711	0.000413	20.761027
2270.636901	-3.013700	3.251100	-9.796300	26.823178	0.000416	20.764519
2271.637197	-2.988900	3.253000	-9.721900	26.795976	0.000415	20.761824
2272.640862	-2.993600	3.251300	-9.730200	26.768673	0.000413	20.786057
2273.642169	-3.017700	3.249600	-9.805100	26.772743	0.000410	20.769760
2274.637837	-2.992000	3.249900	-9.723000	26.763907	0.000411	20.783636
2275.640022	-3.012800	3.250700	-9.791400	26.793568	0.000411	20.776473
2276.639019	-3.005700	3.248300	-9.762700	26.821391	0.000409	20.776473
2277.639225	-3.001900	3.250400	-9.756500	26.852490	0.000410	20.768387
2278.641384	-3.022300	3.247700	-9.814000	26.851222	0.000410	20.781812
2279.639026	-2.992400	3.248600	-9.720200	26.823499	0.000409	20.749669
2280.640899	-3.002200	3.247800	-9.749800	26.817541	0.000408	20.774024
2281.639789	-2.995100	3.247600	-9.726100	26.856903	0.000406	20.755755
2282.639344	-3.002900	3.246200	-9.747000	26.878598	0.000407	20.762870
2283.643757	-3.008600	3.247000	-9.767600	26.885371	0.000404	20.784381
2284.643752	-2.981800	3.247600	-9.682800	26.878245	0.000404	20.764887
2285.640605	-2.967200	3.246400	-9.631300	26.838709	0.000405	20.759746
2286.639822	-2.989400	3.246200	-9.703400	26.834043	0.000405	20.768806
2287.640466	-3.005000	3.245700	-9.753000	26.826845	0.000402	20.751610
2288.640184	-3.004000	3.244300	-9.744600	26.800015	0.000403	20.762092
2289.642489	-2.990100	3.243600	-9.697400	26.784105	0.000405	20.754157
2290.640058	-2.994300	3.244000	-9.712800	26.789068	0.000402	20.771949
2291.640972	-2.974400	3.245900	-9.652800	26.784899	0.000401	20.766335
2292.640054	-2.993400	3.242800	-9.706400	26.781919	0.000401	20.748165
2293.640109	-3.015800	3.242600	-9.777500	26.791426	0.000399	20.762466
2294.645514	-3.007100	3.241500	-9.746800	26.799840	0.000400	20.776141
2295.641615	-2.989600	3.243700	-9.696800	26.821832	0.000398	20.767433
2296.644121	-2.992500	3.241800	-9.700400	26.844690	0.000399	20.759122
2297.642289	-3.010200	3.241300	-9.755900	26.824437	0.000401	20.756776
2298.640255	-2.997200	3.239900	-9.708800	26.816592	0.000398	20.754578
2299.640119	-3.027700	3.239000	-9.805200	26.828778	0.000398	20.772521
2300.644239	-3.000000	3.240800	-9.721800	26.838557	0.000397	20.769550
2301.641068	-3.013500	3.240400	-9.763300	26.840271	0.000397	20.765584
2302.640657	-2.987900	3.239800	-9.678400	26.835949	0.000397	20.783050
2303.642760	-3.002500	3.239100	-9.724000	26.799390	0.000394	20.766680
2304.643738	-2.985300	3.239400	-9.670200	26.778859	0.000394	20.764056
2305.645483	-2.995000	3.237800	-9.696600	26.796533	0.000393	20.754324
2306.643671	-2.999200	3.236500	-9.706300	26.794397	0.000393	20.774462
2307.646505	-2.991800	3.237100	-9.683100	26.784072	0.000392	20.768348
2308.643090	-2.998300	3.237600	-9.706600	26.794694	0.000392	20.762432
2309.645203	-3.010300	3.237800	-9.746400	26.758852	0.000389	20.769071
2310.645909	-3.003900	3.234800	-9.716100	26.772154	0.000390	20.749253
2311.648587	-3.005500	3.236600	-9.725500	26.738970	0.000390	20.749555
2312.644945	-3.010800	3.234700	-9.737600	26.714196	0.000390	20.772064
2313.644994	-3.012100	3.234100	-9.740000	26.732983	0.000389	20.768192
2314.645402	-3.015900	3.234400	-9.753500	26.767064	0.000389	20.747454
2315.645558	-3.006500	3.232700	-9.717700	26.800248	0.000385	20.776077
2316.647047	-2.990000	3.234600	-9.670700	26.832318	0.000387	20.751897
2317.646533	-3.003300	3.232800	-9.708500	26.872520	0.000385	20.753440
2318.645755	-3.013000	3.232000	-9.737500	26.850975	0.000385	20.764968
2319.645407	-3.014200	3.233100	-9.744600	26.864204	0.000383	20.781114
2320.647199	-3.007300	3.231400	-9.716700	26.890012	0.000385	20.761071
2321.653963	-2.995800	3.230800	-9.678200	26.903665	0.000385	20.757256
2322.647770	-3.016000	3.229000	-9.738100	26.950840	0.000381	20.762020
2323.648551	-3.017000	3.230200	-9.744400	26.953145	0.000381	20.747267
2324.646895	-2.962600	3.230200	-9.568600	26.941185	0.000382	20.764165
2325.649158	-2.979900	3.230200	-9.624300	26.926393	0.000381	20.761144
2326.648618	-2.966300	3.230800	-9.582900	26.914530	0.000380	20.772449
2327.651803	-3.013300	3.228700	-9.727400	26.894522	0.000381	20.749011
2328.649514	-2.999800	3.229500	-9.686800	26.884445	0.000381	20.758318
2329.649915	-2.993200	3.228100	-9.661600	26.888068	0.000379	20.766229
2330.649786	-3.019000	3.227000	-9.741000	26.889408	0.000379	20.745764
2331.649539	-3.011700	3.227500	-9.719200	26.896481	0.000379	20.744816
2332.653531	-2.995700	3.227700	-9.667900	26.890695	0.000377	20.788785
2333.649564	-3.005300	3.225500	-9.692700	26.906331	0.000376	20.747134
2334.651588	-2.992200	3.225900	-9.651900	26.936012	0.000377	20.763705
2335.650511	-2.980200	3.227700	-9.617900	26.939188	0.000375	20.756466
2336.652726	-2.998500	3.226100	-9.672900	26.961250	0.000374	20.772014
2337.652669	-3.011900	3.225700	-9.715200	26.960948	0.000374	20.757959
2338.651177	-2.991600	3.226700	-9.651400	26.884459	0.000374	20.757858
2339.652689	-2.998300	3.222800	-9.661900	26.851200	0.000372	20.764720
2340.651890	-3.021600	3.223500	-9.738900	26.833777	0.000373	20.777547
2341.651820	-3.012900	3.222900	-9.709400	26.827619	0.000371	20.739586
2342.652458	-2.988100	3.222100	-9.626200	26.839855	0.000371	20.756631
2343.653201	-3.009100	3.222800	-9.696100	26.900140	0.000373	20.761298
2344.653061	-3.000500	3.220700	-9.662700	26.918283	0.000371	20.771955
2345.652130	-2.985700	3.220800	-9.614500	26.958884	0.000372	20.769635
2346.654279	-3.027700	3.219800	-9.747200	27.002757	0.000367	20.771079
2347.653878	-3.012100	3.218100	-9.692300	26.999007	0.000370	20.753558
2348.658071	-2.977500	3.221000	-9.590000	27.033972	0.000367	20.742727
2349.655245	-3.002100	3.218700	-9.662000	27.039283	0.000368	20.761819
2350.655445	-3.008500	3.217900	-9.679900	26.974139	0.000368	20.772173
2351.655978	-2.994900	3.217300	-9.634000	26.946641	0.000366	20.786721
2352.655887	-3.037600	3.216700	-9.769800	26.912098	0.000367	20.767632
2353.656668	-2.975900	3.217900	-9.575600	26.912242	0.000365	20.772045
2354.660140	-2.977600	3.217300	-9.578500	26.935599	0.000364	20.792213
2355.656427	-2.996900	3.215300	-9.634400	26.955650	0.000364	20.769702
2356.656796	-2.997100	3.216200	-9.637700	26.980937	0.000363	20.756724
2357.656414	-2.994400	3.217700	-9.635000	26.996841	0.000363	20.783149
2358.658604	-3.021500	3.214100	-9.710200	26.982549	0.000363	20.767827
2359.660662	-3.011300	3.214600	-9.678800	27.007017	0.000361	20.775364
2360.656750	-2.996300	3.215600	-9.633900	27.023395	0.000361	20.766703
2361.663753	-2.987600	3.212600	-9.596700	27.013568	0.000358	20.762511
2362.659776	-3.013200	3.211900	-9.677300	27.030392	0.000357	20.772792
2363.658395	-2.960300	3.215000	-9.516900	27.066222	0.000359	20.763306
2364.662136	-2.995500	3.213900	-9.626400	27.064635	0.000360	20.774513
2365.659417	-3.018000	3.212600	-9.694200	27.045851	0.000359	20.784546
2366.659288	-2.993800	3.211700	-9.612900	27.042698	0.000359	20.770943
2367.659774	-2.991700	3.210900	-9.605300	27.086645	0.000357	20.795700
2368.660361	-2.995400	3.210300	-9.615300	27.101160	0.000357	20.771417
2369.659918	-3.011500	3.210100	-9.666000	27.123640	0.000356	20.768896
2370.662296	-3.014100	3.210400	-9.675500	27.075676	0.000357	20.777082
2371.660077	-3.013300	3.207800	-9.664700	27.050985	0.000354	20.765052
2372.660397	-3.019800	3.207600	-9.685100	27.074927	0.000355	20.788657
2373.660276	-3.018600	3.207900	-9.682200	27.031552	0.000354	20.793399
2374.660839	-2.989800	3.208500	-9.592000	27.063984	0.000355	20.773858
2375.664314	-3.028800	3.206000	-9.709400	27.071899	0.000356	20.769490
2376.660831	-2.981400	3.207100	-9.560400	27.106909	0.000353	20.784786
2377.662743	-2.999900	3.206300	-9.617900	27.074950	0.000353	20.770187
2378.660930	-2.995100	3.206700	-9.603000	27.091249	0.000354	20.794640
2379.662651	-3.013900	3.204800	-9.657600	27.066386	0.000352	20.772480
2380.664639	-3.015900	3.204400	-9.663000	27.057797	0.000352	20.763842
2381.664911	-2.997700	3.204000	-9.604000	27.011220	0.000353	20.782435
2382.662232	-3.028600	3.201800	-9.696200	26.978361	0.000351	20.795859
2383.662837	-3.009700	3.202400	-9.637100	27.009331	0.000349	20.771527
2384.662407	-3.001700	3.202600	-9.612300	27.039656	0.000349	20.793014
2385.662343	-2.989800	3.203600	-9.577100	27.079282	0.000347	20.787821
2386.665647	-2.983200	3.203000	-9.554200	27.097347	0.000348	20.778489
2387.662064	-3.010400	3.199700	-9.631100	27.122307	0.000349	20.797427
2388.665447	-3.010600	3.200600	-9.634200	27.107168	0.000347	20.771295
2389.665065	-2.993700	3.200900	-9.581500	27.125133	0.000348	20.795528
2390.663882	-2.996100	3.199900	-9.584100	27.086673	0.000348	20.798573
2391.664038	-3.005900	3.197900	-9.610700	27.073395	0.000345	20.786642
2392.662271	-3.002200	3.198900	-9.603200	27.080292	0.000346	20.794052
2393.665734	-3.009000	3.198000	-9.621700	27.096521	0.000345	20.794253
2394.664866	-2.995000	3.198400	-9.578600	27.095129	0.000344	20.780051
2395.664163	-2.999900	3.199300	-9.597100	27.127956	0.000343	20.798842
2396.664021	-3.003400	3.197800	-9.602500	27.113985	0.000342	20.780997
2397.665955	-3.007800	3.196200	-9.612300	27.116863	0.000342	20.793375
2398.665610	-2.994000	3.197800	-9.573800	27.094431	0.000344	20.788357
2399.664681	-2.994100	3.196300	-9.568800	27.095618	0.000340	20.783387
2400.665239	-2.993600	3.194800	-9.562200	27.130383	0.000342	20.786583
2401.664483	-3.000200	3.194200	-9.582800	27.125938	0.000341	20.785906
2402.670993	-3.024000	3.193300	-9.655100	27.102590	0.000341	20.788028
2403.665314	-3.001500	3.195700	-9.591300	27.148220	0.000343	20.789825
2404.665137	-2.998000	3.192900	-9.571200	27.165760	0.000341	20.801302
2405.665432	-3.008200	3.192000	-9.601300	27.175610	0.000338	20.796510
2406.665658	-3.005900	3.191900	-9.593400	27.179579	0.000340	20.791019
2407.667820	-3.016600	3.191400	-9.626200	27.195707	0.000337	20.802025
2408.666099	-3.013900	3.191000	-9.617400	27.162358	0.000339	20.790294
2409.666653	-3.005600	3.189600	-9.585600	27.159726	0.000337	20.797604
2410.666571	-2.995200	3.190800	-9.555000	27.132361	0.000336	20.791418
2411.667857	-3.015200	3.189700	-9.617000	27.104765	0.000337	20.797802
2412.667837	-2.992900	3.191100	-9.548300	27.053325	0.000336	20.818615
2413.670081	-2.997600	3.188200	-9.556100	27.062705	0.000334	20.795805
2414.667387	-2.993800	3.191400	-9.553600	27.080595	0.000334	20.815220
2415.668464	-3.019300	3.186500	-9.620000	27.093796	0.000333	20.810005
2416.673038	-3.001600	3.186800	-9.564500	27.107865	0.000333	20.801395
2417.667747	-3.005200	3.185100	-9.570200	27.084439	0.000334	20.797749
2418.672538	-3.002500	3.186100	-9.565100	27.085804	0.000336	20.805760
2419.672769	-3.003500	3.186000	-9.568000	27.045207	0.000336	20.805710
2420.674945	-3.013200	3.186100	-9.599600	27.055627	0.000334	20.799593
2421.673288	-2.989400	3.185600	-9.522000	27.095081	0.000333	20.811296
2422.671057	-2.998800	3.185400	-9.552400	27.127688	0.000334	20.810900
2423.671039	-2.989200	3.184700	-9.518200	27.190087	0.000333	20.810596
2424.674331	-2.997200	3.183200	-9.539800	27.220332	0.000331	20.805930
2425.672270	-3.007500	3.180900	-9.565500	27.222788	0.000331	20.806505
2426.672277	-3.007300	3.182800	-9.571200	27.235813	0.000332	20.805855
2427.679998	-2.977600	3.182300	-9.475000	27.262904	0.000332	20.798492
2428.673118	-3.011000	3.181100	-9.577200	27.309448	0.000331	20.813542
2429.676643	-2.982600	3.181200	-9.485900	27.310663	0.000332	20.803858
2430.673374	-3.006500	3.180400	-9.560600	27.332545	0.000330	20.823025
2431.676393	-2.989500	3.177800	-9.499400	27.319072	0.000330	20.820852
2432.675313	-2.975400	3.179600	-9.459600	27.331253	0.000328	20.811768
2433.675509	-2.999700	3.178500	-9.533600	27.350306	0.000328	20.806753
2434.676050	-2.980100	3.178400	-9.469900	27.339365	0.000325	20.823722
2435.675282	-3.005100	3.176600	-9.545400	27.325103	0.000326	20.809375
2436.677136	-3.016200	3.176100	-9.578500	27.319247	0.000328	20.834778
2437.680997	-2.998100	3.176900	-9.523900	27.336113	0.000328	20.839416
2438.677327	-3.005100	3.175900	-9.543700	27.382704	0.000326	20.820852
2439.680006	-3.024800	3.174000	-9.600200	27.381018	0.000326	20.823423
2440.681585	-2.983600	3.177800	-9.480600	27.382906	0.000327	20.817262
2441.680952	-2.993200	3.173700	-9.497500	27.352266	0.000325	20.828165
2442.679969	-2.991200	3.172700	-9.488900	27.345570	0.000327	20.826645
2443.681372	-3.006800	3.172200	-9.537800	27.323392	0.000325	20.820930
2444.680137	-3.023000	3.173100	-9.590300	27.289104	0.000326	20.831958
2445.684222	-2.995900	3.172300	-9.503400	27.265064	0.000325	20.816311
2446.681469	-2.994000	3.171400	-9.494300	27.258118	0.000325	20.820704
2447.681277	-3.014300	3.170900	-9.556800	27.212964	0.000324	20.812270
2448.688723	-3.003700	3.169200	-9.517200	27.242934	0.000323	20.834828
2449.681705	-3.002100	3.169200	-9.513300	27.255217	0.000322	20.847183
2450.684746	-3.018200	3.168400	-9.562300	27.315254	0.000324	20.817011
2451.684781	-3.018800	3.169000	-9.564700	27.327385	0.000323	20.818308
2452.681933	-2.993400	3.167900	-9.481700	27.364993	0.000320	20.836225
2453.683102	-2.979400	3.166200	-9.432500	27.362761	0.000320	20.815963
2454.682581	-2.966300	3.167100	-9.393700	27.381492	0.000322	20.836228
2455.682559	-3.016100	3.166600	-9.548600	27.379681	0.000321	20.828717
2456.685977	-3.024200	3.166300	-9.575100	27.369587	0.000320	20.833734
2457.682932	-2.998700	3.167700	-9.495800	27.323941	0.000318	20.832387
2458.684031	-2.984900	3.164700	-9.444000	27.307169	0.000320	20.836378
2459.683311	-2.978500	3.164300	-9.424100	27.269758	0.000318	20.827197
2460.683457	-3.010100	3.163500	-9.521000	27.285364	0.000318	20.831988
2461.685498	-2.985300	3.162500	-9.440300	27.339820	0.000318	20.844567
2462.685713	-3.009600	3.162000	-9.515300	27.358823	0.000318	20.834760
2463.683027	-2.993200	3.162800	-9.466300	27.357013	0.000317	20.838155
2464.683460	-2.982000	3.160900	-9.424700	27.358377	0.000317	20.856596
2465.685761	-2.990300	3.159500	-9.447600	27.371228	0.000316	20.824006
2466.683943	-3.012800	3.160200	-9.519800	27.357686	0.000316	20.845944
2467.688575	-2.999700	3.158700	-9.474800	27.349596	0.000313	20.835435
2468.685588	-2.995100	3.158600	-9.458600	27.344389	0.000317	20.833516
2469.687122	-3.001900	3.158000	-9.478800	27.343992	0.000317	20.835962
2470.685786	-3.006900	3.155800	-9.488300	27.363519	0.000312	20.849441
2471.685936	-3.012600	3.155900	-9.506700	27.419530	0.000315	20.852208
2472.690621	-2.996000	3.155700	-9.453100	27.431465	0.000315	20.844301
2473.685035	-2.984700	3.154400	-9.414000	27.415094	0.000315	20.846323
2474.691507	-3.006900	3.152500	-9.476900	27.371288	0.000314	20.851566
2475.688171	-2.974000	3.154700	-9.380300	27.313137	0.000312	20.845701
2476.688199	-2.976700	3.152100	-9.382500	27.305027	0.000313	20.851767
2477.689686	-3.007400	3.151200	-9.476500	27.267245	0.000314	20.853117
2478.691161	-2.982900	3.151500	-9.399300	27.240922	0.000310	20.858408
2479.689550	-3.006000	3.151400	-9.470800	27.194400	0.000311	20.866616
2480.690390	-2.986700	3.150700	-9.409000	27.196909	0.000310	20.871510
2481.690222	-2.963000	3.151200	-9.336000	27.185471	0.000310	20.863799
2482.690388	-3.000900	3.148900	-9.448400	27.240456	0.000311	20.848930
2483.693641	-3.006600	3.148200	-9.463600	27.278067	0.000311	20.866847
2484.689513	-2.996700	3.146700	-9.428900	27.310716	0.000310	20.862705
2485.694194	-2.978200	3.147100	-9.371700	27.343193	0.000309	20.856968
2486.691195	-3.012700	3.145900	-9.475600	27.386456	0.000309	20.867773
2487.691177	-3.003400	3.143700	-9.440600	27.430042	0.000307	20.864680
2488.693081	-2.993900	3.145000	-9.415100	27.447655	0.000309	20.857743
2489.691368	-3.007700	3.145000	-9.458200	27.450657	0.000308	20.872143
2490.691006	-2.991800	3.142500	-9.400600	27.429523	0.000308	20.868899
2491.691055	-2.994800	3.142700	-9.410900	27.408564	0.000306	20.865357
2492.692114	-2.991300	3.141700	-9.397300	27.387773	0.000307	20.866253
2493.691831	-2.999500	3.141700	-9.422600	27.378648	0.000307	20.892159
2494.693987	-3.002300	3.140800	-9.429100	27.372867	0.000306	20.848888
2495.691653	-3.008400	3.137700	-9.437800	27.353817	0.000304	20.862914
2496.693177	-2.986600	3.139900	-9.376400	27.345582	0.000305	20.894931
2497.691395	-3.007600	3.137400	-9.435400	27.337198	0.000306	20.867532
2498.692439	-3.017900	3.136400	-9.463800	27.338412	0.000305	20.891512
2499.695347	-2.983100	3.136800	-9.356700	27.343350	0.000305	20.877514
2500.691868	-3.006400	3.136000	-9.427200	27.328591	0.000304	20.869780
2501.694385	-2.999400	3.134900	-9.401600	27.328020	0.000304	20.888170
2502.695453	-2.994000	3.134500	-9.383700	27.290483	0.000304	20.869379
2503.694027	-2.985200	3.135200	-9.357100	27.280562	0.000304	20.867460
2504.696033	-2.995500	3.134500	-9.388500	27.245358	0.000304	20.879937
2505.696706	-3.009900	3.131900	-9.425900	27.223003	0.000305	20.865039
2506.693351	-3.002300	3.131300	-9.399500	27.211963	0.000304	20.881435
2507.693178	-2.992200	3.129400	-9.362800	27.233969	0.000303	20.882707
2508.694323	-2.997500	3.129400	-9.379200	27.246647	0.000303	20.883605
2509.696603	-2.996600	3.128900	-9.374300	27.296095	0.000303	20.887824
2510.697899	-2.991700	3.128600	-9.358500	27.364960	0.000303	20.902570
2511.697955	-2.999300	3.126700	-9.376800	27.337126	0.000303	20.898277
2512.698013	-3.003900	3.128600	-9.396800	27.362182	0.000301	20.895982
2513.695674	-3.016100	3.126700	-9.429100	27.357618	0.000302	20.892814
2514.695719	-3.004300	3.125700	-9.388800	27.374090	0.000301	20.882358
2515.696601	-3.002200	3.124100	-9.377600	27.404776	0.000301	20.908959
2516.695318	-2.990100	3.122700	-9.336100	27.402270	0.000302	20.885103
2517.696391	-2.990100	3.124200	-9.340100	27.457191	0.000300	20.895784
2518.696419	-3.026700	3.119800	-9.441400	27.459645	0.000301	20.890192
2519.695701	-3.004900	3.121400	-9.377700	27.479018	0.000302	20.908259
2520.697438	-2.987700	3.119500	-9.319700	27.528255	0.000301	20.882883
2521.700198	-2.990000	3.121000	-9.330300	27.533464	0.000300	20.898553
2522.697456	-2.982300	3.119400	-9.301700	27.547053	0.000301	20.905587
2523.700578	-2.990500	3.118200	-9.324200	27.558017	0.000299	20.896230
2524.698659	-3.000900	3.117100	-9.353100	27.510444	0.000299	20.891040
2525.698635	-3.001000	3.115300	-9.347100	27.520685	0.000298	20.905135
2526.698650	-2.999800	3.114500	-9.342100	27.522969	0.000299	20.898899
2527.697667	-3.009600	3.113700	-9.370300	27.499330	0.000300	20.876067
2528.698662	-3.021100	3.113300	-9.404600	27.474998	0.000299	20.906586
2529.697576	-2.980600	3.113000	-9.276600	27.463485	0.000297	20.886944
2530.698350	-2.976200	3.111600	-9.259300	27.436548	0.000297	20.898250
2531.699282	-3.025500	3.110700	-9.408700	27.403207	0.000298	20.920181
2532.699333	-3.020000	3.109700	-9.390600	27.380287	0.000298	20.905660
2533.700578	-3.000300	3.110300	-9.331000	27.386661	0.000297	20.880780
2534.699049	-2.989000	3.108400	-9.290100	27.405314	0.000296	20.909974
2535.698804	-3.009100	3.106900	-9.347400	27.444533	0.000298	20.908178
2536.698791	-2.996300	3.107200	-9.308500	27.473928	0.000295	20.888915
2537.701995	-3.008000	3.103900	-9.336100	27.506521	0.000297	20.902266
2538.700541	-3.001600	3.103500	-9.314900	27.545811	0.000297	20.890589
2539.703123	-3.018600	3.102300	-9.363500	27.574012	0.000295	20.888617
2540.701869	-3.000600	3.102000	-9.307000	27.583015	0.000295	20.887245
2541.702122	-2.996600	3.101900	-9.294300	27.553498	0.000295	20.867979
2542.701929	-2.975900	3.101100	-9.227500	27.498013	0.000294	20.911723
2543.705946	-2.988400	3.099300	-9.261400	27.518228	0.000295	20.888915
2544.702149	-2.970600	3.099300	-9.205400	27.527582	0.000294	20.885050
2545.702158	-3.016500	3.096400	-9.339200	27.544051	0.000297	20.898774
2546.702160	-2.987000	3.096900	-9.248700	27.572548	0.000295	20.884774
2547.703619	-2.971700	3.098000	-9.205200	27.590034	0.000295	20.872023
2548.708306	-2.989100	3.096200	-9.253100	27.584775	0.000295	20.875740
2549.703010	-2.998700	3.095100	-9.280600	27.615306	0.000295	20.893182
2550.707633	-3.029200	3.093600	-9.368500	27.644103	0.000296	20.913622
2551.703970	-2.987700	3.091900	-9.237200	27.659232	0.000294	20.890915
2552.703650	-3.014900	3.091400	-9.319300	27.668631	0.000295	20.897053
2553.705781	-3.021200	3.090800	-9.335800	27.651839	0.000293	20.859297
2554.704288	-3.010400	3.089200	-9.298200	27.610175	0.000294	20.880434
2555.704690	-3.013500	3.090400	-9.311900	27.620589	0.000293	20.877637
2556.705614	-3.036600	3.087600	-9.375200	27.641847	0.000293	20.870104
2557.705941	-3.008900	3.086600	-9.286300	27.668182	0.000292	20.868154
2558.707588	-3.028500	3.085700	-9.343600	27.667018	0.000293	20.880732
2559.708928	-2.993000	3.084900	-9.232100	27.646656	0.000293	20.890114
2560.707952	-3.002000	3.085000	-9.260200	27.641198	0.000290	20.880356
2561.707909	-3.002400	3.084200	-9.258300	27.663669	0.000291	20.881156
2562.711082	-3.006600	3.083000	-9.267700	27.677553	0.000292	20.869050
2563.710592	-2.997800	3.080600	-9.234300	27.670288	0.000292	20.884024
2564.714232	-2.995100	3.080000	-9.223700	27.674626	0.000292	20.861363
2565.714133	-2.993100	3.081200	-9.220700	27.672392	0.000291	20.875710
2566.711570	-2.996000	3.078300	-9.220700	27.691834	0.000295	20.867773
2567.709466	-2.996700	3.078400	-9.224200	27.708649	0.000292	20.860987
2568.710679	-3.004300	3.078300	-9.245500	27.741183	0.000292	20.863854
2569.714827	-3.003100	3.076700	-9.238300	27.745249	0.000293	20.870316
2570.714939	-3.000600	3.074100	-9.222900	27.774932	0.000292	20.871739
2571.711965	-2.992200	3.074800	-9.200000	27.718040	0.000289	20.867118
2572.713447	-3.012200	3.071500	-9.251000	27.685107	0.000290	20.858633
2573.712800	-2.999200	3.071600	-9.211200	27.665738	0.000290	20.850997
2574.712993	-2.983600	3.071200	-9.161400	27.643017	0.000289	20.858006
2575.714405	-2.984900	3.070900	-9.165100	27.608665	0.000289	20.868959
2576.716017	-2.979100	3.069300	-9.142800	27.647480	0.000289	20.840686
2577.713222	-2.985100	3.068500	-9.157800	27.674932	0.000289	20.849818
2578.714821	-3.000800	3.065200	-9.198100	27.703548	0.000289	20.853483
2579.714237	-2.980600	3.067400	-9.142300	27.671432	0.000289	20.856252
2580.718041	-3.003500	3.064300	-9.203100	27.647819	0.000293	20.839605
2581.715996	-2.986000	3.063200	-9.146800	27.667956	0.000289	20.847540
2582.716918	-3.019000	3.062700	-9.245300	27.690175	0.000292	20.860414
2583.716770	-3.011000	3.062300	-9.219400	27.707287	0.000289	20.874788
2584.717691	-2.993800	3.060200	-9.160500	27.728687	0.000291	20.853176
2585.718205	-2.990500	3.060500	-9.150900	27.734316	0.000290	20.844143
2586.720088	-2.996700	3.058200	-9.163600	27.717127	0.000290	20.838225
2587.718340	-3.028600	3.056600	-9.255500	27.693567	0.000291	20.842966
2588.717905	-2.997200	3.056500	-9.160200	27.693443	0.000290	20.850427
2589.719535	-3.008100	3.054700	-9.187800	27.746906	0.000288	20.835001
2590.719215	-3.029300	3.053200	-9.248100	27.759256	0.000290	20.830834
2591.723211	-3.023300	3.051700	-9.225500	27.770760	0.000289	20.840041
2592.717837	-3.008400	3.052100	-9.180800	27.794490	0.000288	20.836421
2593.719457	-3.037200	3.048100	-9.257000	27.823202	0.000289	20.834496
2594.718437	-2.990500	3.049600	-9.118300	27.813730	0.000288	20.839662
2595.719380	-2.975300	3.050800	-9.074600	27.765842	0.000288	20.832720
2596.722747	-3.022900	3.047200	-9.210000	27.761105	0.000288	20.834592
2597.721526	-2.986000	3.046300	-9.095500	27.766662	0.000288	20.825485
2598.721555	-3.020700	3.044100	-9.194000	27.805069	0.000289	20.838059
2599.721931	-3.012400	3.043100	-9.165800	27.796763	0.000289	20.837760
2600.722800	-2.995700	3.044700	-9.120000	27.771144	0.000287	20.831892
2601.721794	-3.021200	3.040900	-9.185600	27.700567	0.000287	20.825355
2602.723736	-3.001700	3.041100	-9.127600	27.645559	0.000289	20.825003
2603.721515	-3.013800	3.039900	-9.161100	27.606223	0.000286	20.841847
2604.722466	-2.992700	3.039000	-9.093800	27.545951	0.000287	20.825773
2605.721328	-3.011400	3.037400	-9.146300	27.562029	0.000289	20.831044
2606.722109	-3.014700	3.036300	-9.152700	27.600369	0.000287	20.832637
2607.723435	-3.036000	3.033200	-9.207100	27.653739	0.000285	20.824226
2608.721510	-2.991700	3.034200	-9.075500	27.706738	0.000287	20.811649
2609.721732	-3.014900	3.030800	-9.136500	27.732625	0.000286	20.820156
2610.721064	-2.996400	3.031100	-9.081200	27.778007	0.000286	20.829790
2611.722135	-2.966500	3.031300	-8.991800	27.827946	0.000285	20.811296
2612.720958	-2.986000	3.028900	-9.043700	27.861448	0.000285	20.814193
2613.724266	-3.003700	3.027600	-9.093400	27.899506	0.000288	20.811245
2614.723039	-3.014700	3.026600	-9.123400	27.917435	0.000287	20.823601
2615.721949	-2.996000	3.026400	-9.065500	27.914880	0.000286	20.810598
2616.723740	-2.988100	3.024700	-9.036700	27.977955	0.000286	20.819557
2617.723319	-3.013500	3.023400	-9.109800	27.982466	0.000285	20.819356
2618.727168	-2.991200	3.022800	-9.040100	27.979665	0.000288	20.830761
2619.723511	-3.019100	3.021500	-9.121600	27.992558	0.000287	20.809600
2620.724881	-2.997000	3.019000	-9.045400	28.020098	0.000288	20.825941
2621.724730	-3.015800	3.018500	-9.102000	28.003763	0.000288	20.834155
2622.722928	-3.022700	3.016600	-9.116500	28.006886	0.000287	20.805531
2623.723227	-3.004400	3.015800	-9.059300	28.049255	0.000286	20.823523
2624.728529	-3.000600	3.015700	-9.048400	28.011422	0.000287	20.829536
2625.723554	-2.993200	3.013700	-9.019400	27.961938	0.000287	20.810074
2626.725567	-3.029200	3.011300	-9.119600	27.937318	0.000287	20.801888
2627.726097	-2.983900	3.011600	-8.985600	27.891053	0.000285	20.801790
2628.726360	-2.982200	3.011000	-8.978300	27.829907	0.000287	20.820382
2629.729745	-3.001200	3.009600	-9.031200	27.822888	0.000287	20.798619
2630.728306	-2.987300	3.008700	-8.987000	27.842900	0.000288	20.803112
2631.729620	-3.004600	3.006000	-9.030700	27.882601	0.000286	20.811301
2632.728163	-3.017100	3.004200	-9.063300	27.904222	0.000285	20.813621
2633.727781	-2.984300	3.004200	-8.964200	27.914092	0.000288	20.821659
2634.729789	-2.994100	3.003600	-8.992100	27.944489	0.000286	20.800097
2635.728502	-3.017800	3.001700	-9.057500	27.965912	0.000286	20.821185
2636.729091	-2.993400	3.000700	-8.981000	27.937525	0.000287	20.832442
2637.729420	-3.007500	2.998500	-9.017000	27.924880	0.000285	20.808336
2638.727909	-2.985800	2.997300	-8.948100	27.918881	0.000283	20.809883
2639.730133	-2.976400	2.997700	-8.921200	27.923370	0.000285	20.795436
2640.730014	-3.016300	2.994900	-9.032400	27.962669	0.000283	20.814128
2641.730961	-2.998300	2.993800	-8.975200	27.989620	0.000285	20.804746
2642.731145	-3.018000	2.990900	-9.025300	28.010022	0.000285	20.827178
2643.730742	-2.975900	2.990800	-8.899700	28.042574	0.000286	20.800202
2644.732080	-2.983800	2.990500	-8.921100	28.067295	0.000286	20.814655
2645.734995	-2.989500	2.989300	-8.935700	28.068458	0.000286	20.822465
2646.732521	-3.007000	2.987300	-8.981700	28.024577	0.000284	20.832821
2647.732297	-2.978700	2.986400	-8.893800	27.967729	0.000283	20.811161
2648.732327	-2.986100	2.984700	-8.911000	27.913355	0.000287	20.831822
2649.732378	-3.007000	2.983600	-8.970600	27.885438	0.000286	20.814156
2650.737002	-2.986600	2.983100	-8.908400	27.841302	0.000286	20.816203
2651.738653	-2.985000	2.979700	-8.892500	27.851914	0.000286	20.800804
2652.735747	-3.005600	2.979000	-8.952000	27.799296	0.000284	20.785782
2653.735954	-3.014500	2.977600	-8.975100	27.830017	0.000287	20.814803
2654.736825	-2.996300	2.976800	-8.918600	27.828626	0.000287	20.817671
2655.737527	-2.986300	2.975500	-8.883900	27.815886	0.000287	20.804849
2656.742000	-2.996400	2.973200	-8.908000	27.804947	0.000283	20.818022
2657.740194	-2.982200	2.973400	-8.865800	27.814495	0.000285	20.809613
2658.741729	-3.007300	2.971200	-8.934300	27.848541	0.000284	20.805945
2659.739862	-2.993900	2.971000	-8.893900	27.851961	0.000283	20.804171
2660.739531	-3.005400	2.967100	-8.916300	27.847945	0.000285	20.807242
2661.744473	-2.961600	2.968400	-8.789100	27.839490	0.000284	20.805845
2662.741244	-2.992000	2.966900	-8.875700	27.860663	0.000283	20.787799
2663.743298	-3.014600	2.963500	-8.932400	27.898055	0.000285	20.816898
2664.740877	-2.991600	2.961700	-8.859900	27.910777	0.000284	20.813581
2665.741390	-2.997800	2.961100	-8.875400	27.927659	0.000283	20.788848
2666.741574	-3.005000	2.960100	-8.893300	27.949282	0.000285	20.810611
2667.743151	-3.006500	2.957800	-8.891100	27.976898	0.000283	20.805691
2668.742143	-3.018700	2.955100	-8.919700	27.949701	0.000283	20.803446
2669.743442	-3.007700	2.955100	-8.886800	27.943701	0.000286	20.789347
2670.743764	-2.979600	2.954800	-8.803300	27.941842	0.000284	20.813554
2671.743872	-3.029700	2.951500	-8.940100	27.993311	0.000284	20.788072
2672.747077	-2.997200	2.952800	-8.848500	27.998570	0.000286	20.791944
2673.744895	-2.981100	2.951200	-8.796600	28.009177	0.000283	20.789344
2674.749130	-2.982900	2.949100	-8.795700	28.021427	0.000284	20.787450
2675.746675	-2.990100	2.946700	-8.810500	28.017038	0.000283	20.802947
2676.746530	-2.941400	2.947000	-8.667800	28.029285	0.000284	20.798679
2677.746382	-3.003500	2.943300	-8.839200	28.039100	0.000285	20.786274
2678.747734	-2.991000	2.943700	-8.802500	28.054026	0.000283	20.784229
2679.747402	-2.968500	2.940800	-8.728200	28.053405	0.000283	20.780285
2680.748601	-2.988700	2.940900	-8.788900	28.076904	0.000284	20.798250
2681.747112	-3.016700	2.938200	-8.862900	28.095449	0.000284	20.789891
2682.748027	-3.026300	2.935300	-8.881900	28.099067	0.000282	20.777887
2683.749228	-2.981600	2.934500	-8.749300	28.107498	0.000281	20.798702
2684.747030	-2.996600	2.933200	-8.787600	28.157543	0.000286	20.771321
2685.748739	-2.965700	2.931800	-8.693300	28.119445	0.000283	20.775641
2686.748520	-3.019500	2.929200	-8.843900	28.151124	0.000281	20.785247
2687.749166	-3.026800	2.928000	-8.860600	28.134218	0.000281	20.788617
2688.750280	-2.994500	2.929300	-8.771000	28.122341	0.000281	20.795152
2689.748518	-2.986800	2.924800	-8.734500	28.135182	0.000281	20.786743
2690.749208	-2.995600	2.923500	-8.756200	28.144747	0.000283	20.799216
2691.748129	-3.019900	2.922400	-8.824000	28.156477	0.000283	20.801068
2692.748536	-3.016800	2.919600	-8.806600	28.168670	0.000283	20.788687
2693.752195	-2.984200	2.920100	-8.712000	28.177098	0.000284	20.799542
2694.749299	-3.021400	2.917200	-8.813700	28.172316	0.000283	20.769123
2695.750024	-3.006500	2.916400	-8.767000	28.138923	0.000282	20.800940
2696.750339	-2.990700	2.913200	-8.712100	28.113539	0.000284	20.785343
2697.752846	-3.027100	2.910000	-8.807300	28.047967	0.000280	20.776707
2698.756263	-3.019900	2.911000	-8.790900	28.046355	0.000281	20.778403
2699.757245	-2.968600	2.909600	-8.637200	28.068690	0.000284	20.767696
2700.753541	-2.991000	2.907900	-8.696900	28.096480	0.000285	20.783343
2701.755632	-2.978400	2.906200	-8.654300	28.123156	0.000282	20.794550
2702.754965	-2.988300	2.903500	-8.675100	28.096430	0.000284	20.792302
2703.756079	-3.020000	2.902000	-8.762400	28.097297	0.000282	20.770889
2704.759366	-2.992400	2.901900	-8.682700	28.109469	0.000282	20.791203
2705.757173	-2.987000	2.900400	-8.661700	28.123724	0.000282	20.761456
2706.759601	-3.006600	2.897600	-8.710900	28.143331	0.000283	20.783566
2707.756429	-2.997900	2.896300	-8.682100	28.165393	0.000283	20.787759
2708.756590	-2.980300	2.895600	-8.628300	28.172856	0.000283	20.762555
2709.760362	-2.988600	2.893300	-8.645900	28.190529	0.000280	20.780348
2710.758214	-3.025700	2.890000	-8.743200	28.197890	0.000281	20.792974
2711.759817	-3.003400	2.889500	-8.676800	28.211299	0.000281	20.753842
2712.757477	-3.006000	2.885900	-8.674400	28.207310	0.000282	20.761680
2713.756633	-3.015000	2.884800	-8.696900	28.190106	0.000281	20.769490
2714.756665	-2.993400	2.883700	-8.630500	28.215167	0.000282	20.764374
2715.760057	-2.990700	2.882600	-8.619700	28.232368	0.000283	20.780744
2716.757172	-3.005400	2.881800	-8.659300	28.248430	0.000281	20.780320
2717.758669	-2.991000	2.876600	-8.602600	28.233509	0.000284	20.778100
2718.759929	-2.996700	2.874600	-8.612000	28.150593	0.000283	20.784713
2719.760178	-2.988300	2.874400	-8.588800	28.128875	0.000284	20.775651
2720.762712	-2.985500	2.870600	-8.569100	28.132448	0.000282	20.783516
2721.759756	-3.005100	2.868100	-8.618200	28.107655	0.000282	20.749073
2722.763747	-2.987300	2.868100	-8.566100	28.104432	0.000282	20.760054
2723.760363	-3.008700	2.865700	-8.621400	28.128132	0.000284	20.757359
2724.760331	-2.981800	2.864300	-8.538900	28.121314	0.000281	20.765669
2725.762304	-3.000400	2.862500	-8.587400	28.148233	0.000282	20.779966
2726.760412	-3.004500	2.859300	-8.589500	28.151829	0.000280	20.757507
2727.761167	-3.022900	2.856600	-8.633800	28.200709	0.000280	20.773526
2728.760170	-3.037200	2.854500	-8.667900	28.231049	0.000282	20.749544
2729.759990	-3.005400	2.852100	-8.569700	28.225099	0.000284	20.768684
2730.760571	-3.016200	2.849900	-8.595200	28.219201	0.000284	20.753262
2731.762529	-3.003400	2.849100	-8.555000	28.240095	0.000279	20.770506
2732.762726	-2.963500	2.847700	-8.438000	28.275934	0.000280	20.760596
2733.762321	-2.985600	2.846700	-8.498900	28.285626	0.000284	20.761346
2734.761079	-3.015300	2.844000	-8.574600	28.256947	0.000283	20.766135
2735.761524	-2.973300	2.842200	-8.450000	28.167489	0.000281	20.757151
2736.767183	-2.995100	2.837800	-8.499000	28.124157	0.000282	20.777540
2737.763788	-3.010400	2.836800	-8.539400	28.033200	0.000282	20.748566
2738.765749	-2.998600	2.834500	-8.498300	28.049240	0.000281	20.768980
2739.764252	-2.994500	2.833000	-8.482100	28.052164	0.000283	20.749163
2740.763924	-3.009400	2.831000	-8.519000	28.059650	0.000283	20.762389
2741.763548	-2.989000	2.829900	-8.457800	28.110072	0.000281	20.738229
2742.766622	-2.984200	2.827100	-8.435200	28.136274	0.000281	20.764607
2743.763964	-3.018400	2.824100	-8.523400	28.123459	0.000283	20.774941
2744.763911	-2.999800	2.823100	-8.467400	28.134168	0.000282	20.759642
2745.764881	-2.975800	2.820700	-8.392800	28.111064	0.000281	20.749185
2746.765050	-2.974500	2.818100	-8.381000	28.094603	0.000282	20.751107
2747.767047	-2.978200	2.816300	-8.387200	28.131217	0.000280	20.753353
2748.764586	-3.000000	2.811800	-8.434800	28.148891	0.000281	20.783473
2749.766979	-2.986700	2.809900	-8.390800	28.149559	0.000282	20.748109
2750.766664	-3.005900	2.807900	-8.438400	28.091575	0.000281	20.771293
2751.766057	-2.978900	2.805300	-8.356000	28.067827	0.000281	20.740748
2752.766594	-3.000700	2.801900	-8.406700	28.069487	0.000281	20.762808
2753.765296	-2.992600	2.801100	-8.381300	28.110638	0.000281	20.753024
2754.766649	-2.980400	2.799000	-8.340600	28.123083	0.000280	20.757018
2755.766595	-3.008400	2.794300	-8.405200	28.168445	0.000279	20.750054
2756.766449	-2.980100	2.793800	-8.324600	28.167132	0.000281	20.751576
2757.767376	-2.999400	2.789500	-8.366000	28.198441	0.000280	20.763182
2758.768871	-2.996000	2.787400	-8.348400	28.206866	0.000279	20.751749
2759.769417	-3.015300	2.786300	-8.400200	28.265934	0.000281	20.744363
2760.770685	-2.956100	2.783600	-8.227100	28.291462	0.000281	20.764376
2761.768987	-3.014900	2.779000	-8.376800	28.334562	0.000282	20.764151
2762.769769	-2.996900	2.777600	-8.323300	28.374414	0.000281	20.764449
2763.774016	-3.004700	2.773700	-8.333500	28.430080	0.000281	20.765500
2764.771461	-3.013100	2.770200	-8.345700	28.460534	0.000280	20.757761
2765.774804	-2.978100	2.769200	-8.245900	28.537230	0.000279	20.747279
2766.774191	-2.996400	2.766200	-8.287900	28.548682	0.000280	20.738897
2767.771920	-3.021200	2.761600	-8.342500	28.504148	0.000281	20.764698
2768.772014	-3.007700	2.760900	-8.302500	28.491433	0.000281	20.766118
2769.774979	-3.005700	2.756900	-8.285700	28.509327	0.000279	20.758059
2770.772873	-3.014100	2.753100	-8.296400	28.514529	0.000279	20.760453
2771.773786	-2.997100	2.750300	-8.242300	28.489873	0.000280	20.763125
2772.773537	-3.005700	2.747500	-8.257300	28.502162	0.000279	20.751318
2773.773584	-3.003000	2.743900	-8.239000	28.497676	0.000281	20.740161
2774.776051	-3.010700	2.741500	-8.252000	28.466872	0.000279	20.758927
2775.772964	-2.985200	2.739700	-8.176800	28.451187	0.000279	20.765892
2776.777725	-3.003100	2.735100	-8.213300	28.450245	0.000282	20.756883
2777.774099	-3.026000	2.730500	-8.261600	28.434754	0.000279	20.763095
2778.775342	-3.017600	2.727800	-8.230400	28.394456	0.000279	20.753335
2779.774626	-2.989600	2.725400	-8.146900	28.372274	0.000281	20.746647
2780.775222	-3.016800	2.720300	-8.205700	28.367839	0.000282	20.760199
2781.775044	-3.001600	2.716600	-8.151700	28.381121	0.000280	20.765513
2782.775464	-3.018900	2.712900	-8.188500	28.425954	0.000279	20.761820
2783.774888	-2.989500	2.712300	-8.107700	28.450412	0.000282	20.748516
2784.775090	-2.992200	2.707700	-8.099800	28.447487	0.000280	20.772124
2785.776869	-2.972000	2.704600	-8.036000	28.455464	0.000279	20.772096
2786.776772	-3.015000	2.700500	-8.141000	28.496577	0.000280	20.764660
2787.776022	-2.982600	2.696800	-8.042600	28.482524	0.000281	20.761888
2788.775136	-3.005400	2.693100	-8.091700	28.465400	0.000281	20.757445
2789.775498	-3.015800	2.688600	-8.106800	28.453479	0.000281	20.771045
2790.778934	-3.003300	2.684600	-8.061300	28.436132	0.000282	20.766379
2791.776869	-3.001600	2.682300	-8.050800	28.415239	0.000284	20.779480
2792.779205	-2.996600	2.678300	-8.023900	28.432806	0.000283	20.770142
2793.779263	-2.997100	2.674200	-8.014100	28.472261	0.000280	20.760087
2794.776994	-3.027600	2.668400	-8.078800	28.523679	0.000278	20.777729
2795.780847	-3.013800	2.666000	-8.034100	28.565631	0.000282	20.772089
2796.781656	-2.999200	2.661200	-7.978700	28.588279	0.000280	20.763130
2797.779704	-3.005600	2.656700	-7.983500	28.565086	0.000282	20.777704
2798.779231	-3.001000	2.653400	-7.962500	28.522685	0.000283	20.792849
2799.781482	-3.011300	2.648300	-7.973000	28.524765	0.000280	20.771236
2800.781229	-3.009800	2.644000	-7.956900	28.559384	0.000279	20.776228
2801.783215	-3.007600	2.639400	-7.937400	28.604306	0.000279	20.761728
2802.780736	-3.001700	2.636400	-7.912300	28.677475	0.000280	20.767144
2803.783976	-3.000800	2.632800	-7.899200	28.699797	0.000279	20.762601
2804.782119	-2.991300	2.627100	-7.856300	28.776576	0.000280	20.774979
2805.783117	-3.012000	2.621300	-7.893400	28.798154	0.000281	20.786284
2806.790401	-3.002700	2.617100	-7.857500	28.791786	0.000280	20.762325
2807.784525	-2.977500	2.613200	-7.780200	28.787079	0.000280	20.759006
2808.786998	-2.983100	2.608600	-7.780900	28.821711	0.000282	20.765443
2809.785197	-3.006800	2.604400	-7.829300	28.826764	0.000283	20.780017
2810.786799	-2.971300	2.597900	-7.717100	28.806178	0.000281	20.779668
2811.786603	-3.028200	2.591200	-7.845600	28.790994	0.000281	20.773381
2812.789766	-3.014200	2.587000	-7.796800	28.845492	0.000282	20.762847
2813.785543	-3.012900	2.581500	-7.777300	28.869546	0.000281	20.790398
2814.786528	-2.984700	2.576700	-7.689500	28.889043	0.000280	20.806246
2815.786579	-3.003100	2.572800	-7.724900	28.929815	0.000281	20.782363
2816.787572	-3.008000	2.564500	-7.713700	28.947749	0.000282	20.778145
2817.789235	-3.015700	2.561200	-7.722000	28.947650	0.000284	20.798908
2818.786888	-2.994300	2.554400	-7.647700	28.939178	0.000281	20.786580
2819.790122	-2.998300	2.549500	-7.642300	28.954759	0.000281	20.796587
2820.788681	-3.020100	2.541800	-7.675400	28.967638	0.000281	20.793915
2821.786762	-2.969800	2.538300	-7.536400	28.953422	0.000282	20.775325
2822.791608	-3.031600	2.528900	-7.665000	28.937248	0.000282	20.794119
2823.791113	-3.021500	2.525400	-7.629400	28.952752	0.000282	20.794091
2824.791490	-2.971900	2.519900	-7.488500	28.967023	0.000281	20.778123
2825.790877	-2.997000	2.513200	-7.531600	28.991445	0.000282	20.783288
2826.791826	-2.984400	2.507200	-7.482200	29.040214	0.000282	20.793544
2827.792021	-2.992700	2.501500	-7.485100	29.092426	0.000282	20.800634
2828.794059	-2.984600	2.495100	-7.446100	29.115310	0.000282	20.773431
