LabVIEW Measurement	
Writer_Version	2
Reader_Version	2
Separator	Tab
Decimal_Separator	.
Multi_Headings	No
X_Columns	One
Time_Pref	Absolute
Operator	admin
Description	Clolumns are: time, Current, Voltage, Power, Battery Temp, and Chamber Temp
Date	2024/08/16
Time	13:06:06.104549407958984375
***End_of_Header***	
	
Channels	6						
Samples	1	1	1	1	1	1	
Date	2024/09/20	2024/09/20	2024/09/20	2024/09/20	2024/09/20	2024/09/20	
Time	10:42:03.5513134002685546875	10:42:03.5577821731567382813	10:42:03.5631833076477050781	10:42:03.5333166122436523438	10:42:03.5333166122436523438	10:42:03.5333166122436523438	
X_Dimension	Time	Time	Time	Time	Time	Time	
X0	0.0000000000000000E+0	0.0000000000000000E+0	0.0000000000000000E+0	0.0000000000000000E+0	0.0000000000000000E+0	0.0000000000000000E+0	
Delta_X	1.000000	1.000000	1.000000	1.000000	1.000000	1.000000	
***End_of_Header***							
X_Value	Untitled	Untitled 1	Untitled 2	Untitled 3	Untitled 4	Untitled 5	Comment
0.000000	0.027042	4.092800	0.110670	21.034483	0.001059	20.787947
0.997439	-3.013800	3.903000	-11.762000	21.012630	0.001057	20.776521
2.005279	-3.017400	3.895700	-11.754000	21.034260	0.001057	20.794362
2.998022	-3.009100	3.889900	-11.704000	21.013207	0.001056	20.774253
3.997041	-2.991500	3.885900	-11.623000	21.034239	0.001054	20.753089
4.999757	-2.990200	3.882900	-11.610000	21.022313	0.001056	20.766766
5.997971	-3.011400	3.878900	-11.680000	21.027807	0.001054	20.764200
7.001103	-2.988200	3.876000	-11.580000	21.014785	0.001053	20.789108
7.998423	-2.984100	3.874200	-11.559000	21.051740	0.001051	20.765853
9.001240	-2.994900	3.872100	-11.595000	21.013964	0.001053	20.761260
10.001267	-2.997100	3.868600	-11.592000	21.028660	0.001050	20.773114
11.000655	-3.006000	3.867300	-11.624000	21.031108	0.001050	20.767976
12.006738	-2.993100	3.866400	-11.571000	21.035969	0.001050	20.773312
13.001871	-2.992400	3.864400	-11.562000	21.059102	0.001047	20.770846
14.001269	-2.992800	3.863800	-11.562000	21.049872	0.001048	20.768252
15.001054	-3.010600	3.862200	-11.626000	21.058161	0.001046	20.783181
16.003445	-2.995300	3.861000	-11.564000	21.069790	0.001048	20.765415
17.002431	-3.011300	3.859000	-11.619000	21.065849	0.001046	20.788026
18.002764	-3.007400	3.857200	-11.599000	21.074831	0.001046	20.782785
19.002306	-2.986300	3.858800	-11.523000	21.085210	0.001046	20.767563
20.004582	-3.009100	3.857000	-11.605000	21.088779	0.001044	20.757382
21.002161	-2.993400	3.856200	-11.543000	21.086484	0.001046	20.768362
22.006873	-3.000200	3.855400	-11.564000	21.089827	0.001043	20.768861
23.004858	-3.032500	3.851700	-11.679000	21.097263	0.001044	20.762548
24.003432	-2.986200	3.855800	-11.514000	21.113256	0.001043	20.758157
25.012490	-2.971100	3.853800	-11.449000	21.132921	0.001042	20.751749
26.003107	-2.977900	3.852800	-11.472000	21.122666	0.001040	20.759035
27.003326	-2.981900	3.852100	-11.485000	21.123465	0.001041	20.763154
28.007914	-2.992700	3.850700	-11.523000	21.125609	0.001039	20.766246
29.005167	-3.029600	3.849300	-11.661000	21.138687	0.001039	20.766526
30.004485	-3.000700	3.849400	-11.547000	21.155500	0.001041	20.768171
31.003465	-3.026600	3.847800	-11.644000	21.165079	0.001042	20.775383
32.004488	-3.006700	3.848300	-11.570000	21.143827	0.001040	20.754598
33.005813	-3.004400	3.847300	-11.558000	21.167676	0.001041	20.751427
34.006632	-2.990100	3.847500	-11.502000	21.186441	0.001039	20.768777
35.003632	-3.005300	3.846000	-11.557000	21.185341	0.001039	20.776685
36.005156	-2.993500	3.846300	-11.513000	21.218524	0.001043	20.756774
37.005026	-3.006900	3.845100	-11.561000	21.193077	0.001039	20.770199
38.005591	-2.998000	3.845800	-11.528000	21.216752	0.001042	20.772545
39.006443	-3.000100	3.844300	-11.533000	21.236139	0.001041	20.761120
40.008475	-3.013800	3.843200	-11.582000	21.210523	0.001039	20.765366
41.007634	-2.994400	3.843900	-11.508000	21.217406	0.001040	20.766562
42.006154	-2.997400	3.842600	-11.516000	21.237989	0.001039	20.767238
43.005681	-3.013900	3.841400	-11.576000	21.236518	0.001042	20.747273
44.007956	-3.013900	3.840400	-11.573000	21.249389	0.001039	20.746399
45.008627	-3.020300	3.841600	-11.601000	21.282941	0.001040	20.750568
46.005351	-2.996700	3.841400	-11.510000	21.260796	0.001038	20.758760
47.013422	-2.988000	3.841100	-11.476000	21.292074	0.001041	20.753066
48.006226	-2.997200	3.840000	-11.507000	21.285442	0.001040	20.761605
49.006077	-3.001400	3.838300	-11.518000	21.299859	0.001041	20.743784
50.008016	-2.978500	3.839400	-11.435000	21.281378	0.001041	20.768919
51.007723	-2.987400	3.838400	-11.466000	21.295296	0.001039	20.752497
52.010193	-2.981300	3.838700	-11.444000	21.286192	0.001038	20.763778
53.019541	-2.994500	3.838200	-11.493000	21.307973	0.001040	20.752376
54.010014	-3.000300	3.837200	-11.512000	21.331443	0.001040	20.759262
55.006357	-2.990900	3.835600	-11.470000	21.324639	0.001041	20.757670
56.009936	-2.999100	3.836400	-11.504000	21.338506	0.001039	20.748311
57.006514	-3.012500	3.834700	-11.551000	21.360208	0.001040	20.753902
58.006222	-3.019100	3.835400	-11.579000	21.352254	0.001039	20.752582
59.006650	-2.990800	3.836200	-11.472000	21.348933	0.001041	20.763484
60.007399	-2.992700	3.834500	-11.475000	21.354949	0.001040	20.743424
61.009252	-3.012300	3.833300	-11.545000	21.367745	0.001038	20.745795
62.017304	-3.001400	3.832900	-11.502000	21.380512	0.001041	20.755250
63.012108	-3.010600	3.833800	-11.541000	21.380562	0.001038	20.764783
64.010575	-2.986000	3.834200	-11.448000	21.402189	0.001039	20.760816
65.007677	-3.007300	3.832600	-11.525000	21.402613	0.001039	20.760292
66.014654	-2.989100	3.833700	-11.458000	21.413191	0.001040	20.754281
67.008687	-2.987700	3.833000	-11.451000	21.414988	0.001040	20.736637
68.009440	-2.997300	3.830900	-11.481000	21.448259	0.001041	20.754281
69.011032	-2.996700	3.831700	-11.481000	21.433841	0.001039	20.744121
70.008800	-2.989400	3.831900	-11.455000	21.445066	0.001041	20.768629
71.012080	-3.000000	3.830100	-11.489000	21.457016	0.001040	20.748343
72.011222	-2.978000	3.830600	-11.406000	21.454526	0.001039	20.732575
73.010636	-3.015700	3.829800	-11.548000	21.472983	0.001039	20.764320
74.018234	-2.997200	3.830500	-11.479000	21.479716	0.001039	20.745926
75.012691	-3.001000	3.829700	-11.492000	21.497352	0.001041	20.734649
76.011696	-3.005600	3.827500	-11.503000	21.479893	0.001040	20.736146
77.013303	-2.974200	3.830100	-11.390000	21.487726	0.001038	20.740664
78.011972	-3.006200	3.828200	-11.507000	21.485979	0.001038	20.738442
79.013020	-2.998200	3.827500	-11.474000	21.491167	0.001039	20.735098
80.013672	-2.995000	3.826300	-11.458000	21.498052	0.001040	20.751471
81.013469	-2.995900	3.828000	-11.467000	21.519479	0.001040	20.717908
82.013371	-2.996600	3.827400	-11.468000	21.531272	0.001041	20.740141
83.015478	-3.006800	3.825500	-11.501000	21.555191	0.001042	20.727565
84.013774	-2.984000	3.827000	-11.419000	21.583423	0.001040	20.718357
85.014493	-2.989300	3.826300	-11.437000	21.564519	0.001040	20.735477
86.015495	-2.979600	3.825400	-11.397000	21.566768	0.001039	20.729193
87.015509	-2.998900	3.825100	-11.471000	21.588367	0.001040	20.734685
88.017343	-2.992100	3.825900	-11.446000	21.593476	0.001041	20.736479
89.014742	-3.005100	3.824200	-11.492000	21.599466	0.001042	20.723980
90.014606	-3.007200	3.824600	-11.500000	21.636873	0.001040	20.738181
91.015338	-2.987400	3.825200	-11.427000	21.614678	0.001041	20.733988
92.015476	-3.007100	3.824100	-11.498000	21.628698	0.001041	20.743751
93.019317	-2.965200	3.825200	-11.341000	21.652459	0.001041	20.723432
94.017133	-2.973900	3.824000	-11.371000	21.649320	0.001042	20.752060
95.021916	-2.988800	3.822900	-11.425000	21.661416	0.001041	20.733344
96.020463	-3.006700	3.823400	-11.495000	21.685081	0.001042	20.724784
97.017186	-2.991600	3.822900	-11.435000	21.681294	0.001042	20.716727
98.019400	-2.989400	3.822400	-11.425000	21.687375	0.001043	20.728029
99.018793	-2.991900	3.822200	-11.434000	21.689101	0.001041	20.726437
100.018783	-3.028600	3.820800	-11.571000	21.709424	0.001041	20.729707
101.020255	-2.988600	3.821700	-11.419000	21.693567	0.001042	20.737071
102.019002	-3.003500	3.821100	-11.475000	21.712815	0.001039	20.707494
103.026758	-3.004500	3.820400	-11.477000	21.687185	0.001043	20.720251
104.028624	-2.970500	3.821500	-11.351000	21.686538	0.001044	20.712965
105.026368	-3.005700	3.819600	-11.478000	21.715983	0.001045	20.715881
106.023159	-3.005300	3.821200	-11.483000	21.716913	0.001043	20.739099
107.023361	-3.014100	3.820600	-11.514000	21.712299	0.001044	20.726420
108.026573	-2.999000	3.819500	-11.454000	21.729804	0.001046	20.715014
109.028589	-2.993000	3.818100	-11.426000	21.744194	0.001046	20.709501
110.026517	-3.005700	3.817800	-11.473000	21.751721	0.001046	20.714664
111.028538	-3.009900	3.818800	-11.492000	21.738212	0.001044	20.723904
112.037060	-2.981200	3.820500	-11.389000	21.758312	0.001047	20.726002
113.036247	-2.994300	3.819200	-11.435000	21.751181	0.001047	20.734513
114.030400	-2.985600	3.817700	-11.397000	21.767041	0.001045	20.725256
115.029917	-2.988000	3.818500	-11.408000	21.791351	0.001047	20.718766
116.029535	-3.007900	3.817800	-11.482000	21.803972	0.001048	20.721916
117.028782	-2.986500	3.817500	-11.398000	21.809208	0.001050	20.708663
118.029140	-2.998900	3.815700	-11.440000	21.806518	0.001046	20.713557
119.032079	-2.996800	3.816600	-11.437000	21.816018	0.001050	20.733972
120.030881	-2.964700	3.818000	-11.319000	21.822402	0.001050	20.727560
121.030384	-2.985200	3.816600	-11.391000	21.859901	0.001049	20.716728
122.030613	-2.955800	3.818700	-11.286000	21.861078	0.001049	20.722649
123.032499	-3.001600	3.814900	-11.450000	21.869531	0.001049	20.721152
124.035688	-2.993500	3.815900	-11.421000	21.900096	0.001052	20.702906
125.034574	-3.002900	3.814900	-11.455000	21.902192	0.001049	20.706427
126.033296	-2.999500	3.814000	-11.438000	21.911274	0.001052	20.708880
127.035166	-2.989200	3.814200	-11.399000	21.916782	0.001053	20.719609
128.032342	-2.978000	3.814900	-11.360000	21.910001	0.001051	20.728945
129.032643	-3.005500	3.812400	-11.456000	21.942686	0.001052	20.734635
130.036267	-3.020000	3.813700	-11.515000	21.947476	0.001053	20.715247
131.035695	-3.005500	3.813100	-11.459000	21.939448	0.001051	20.722858
132.034226	-3.021100	3.812500	-11.517000	21.937553	0.001054	20.697252
133.032380	-2.995700	3.813400	-11.421000	21.957052	0.001053	20.705866
134.032152	-2.989800	3.813800	-11.401000	21.937582	0.001053	20.696806
135.033622	-3.007500	3.812300	-11.465000	21.948151	0.001054	20.700749
136.036256	-3.006600	3.813600	-11.466000	21.939876	0.001053	20.721390
137.033364	-3.005300	3.812100	-11.455000	21.957381	0.001053	20.706669
138.034985	-2.982000	3.813000	-11.369000	21.956084	0.001055	20.698732
139.032679	-2.988700	3.813100	-11.395000	21.975381	0.001055	20.704773
140.032918	-2.990000	3.812600	-11.399000	21.992363	0.001053	20.711815
141.044079	-3.002200	3.811300	-11.441000	21.975957	0.001055	20.719101
142.033261	-2.997100	3.810800	-11.420000	22.022998	0.001056	20.708817
143.037392	-3.004600	3.811100	-11.449000	22.004554	0.001057	20.722123
144.033612	-2.991700	3.812200	-11.403000	22.018364	0.001056	20.716981
145.035075	-2.989900	3.811800	-11.396000	22.049201	0.001056	20.701383
146.035155	-2.988400	3.810700	-11.387000	22.031729	0.001059	20.721826
147.037987	-2.999700	3.808900	-11.424000	22.042121	0.001058	20.708520
148.041781	-2.997600	3.809400	-11.418000	22.048183	0.001058	20.703209
149.037543	-3.004800	3.809300	-11.444000	22.059851	0.001058	20.697345
150.036636	-2.998700	3.810100	-11.423000	22.041453	0.001059	20.701688
151.043832	-3.012500	3.808600	-11.473000	22.077972	0.001060	20.704582
152.038647	-2.994700	3.811100	-11.411000	22.087173	0.001059	20.712845
153.036578	-2.994900	3.810300	-11.409000	22.109186	0.001061	20.711175
154.036848	-2.987800	3.809900	-11.382000	22.121874	0.001061	20.721508
155.036516	-2.988400	3.809900	-11.385000	22.117294	0.001061	20.716923
156.037307	-3.006800	3.806900	-11.446000	22.135436	0.001061	20.704738
157.038013	-3.000100	3.807700	-11.421000	22.120853	0.001062	20.726176
158.038383	-2.990700	3.809400	-11.391000	22.135839	0.001063	20.717945
159.036122	-2.988500	3.808600	-11.381000	22.139525	0.001062	20.731119
160.038334	-2.984200	3.807300	-11.361000	22.154433	0.001062	20.713801
161.036916	-2.981200	3.808100	-11.352000	22.155582	0.001063	20.706416
162.037214	-2.991900	3.805600	-11.386000	22.160317	0.001064	20.702623
163.042346	-2.998700	3.806800	-11.414000	22.171939	0.001063	20.725639
164.041121	-2.999600	3.805400	-11.413000	22.225028	0.001065	20.730904
165.043082	-3.024700	3.805400	-11.508000	22.201049	0.001067	20.704523
166.043132	-2.997000	3.807300	-11.409000	22.190482	0.001065	20.705323
167.042406	-2.999000	3.806300	-11.414000	22.193398	0.001066	20.710139
168.045970	-2.984600	3.806300	-11.357000	22.206609	0.001067	20.729531
169.041789	-2.990100	3.807000	-11.382000	22.191133	0.001066	20.715458
170.042251	-2.991400	3.805300	-11.382000	22.177798	0.001066	20.713487
171.042149	-2.993500	3.805400	-11.390000	22.207531	0.001069	20.724291
172.042507	-3.008500	3.803700	-11.443000	22.216734	0.001069	20.707900
173.042331	-3.023800	3.802700	-11.497000	22.223488	0.001069	20.720827
174.045846	-2.997200	3.804000	-11.401000	22.209536	0.001071	20.717288
175.041796	-3.013300	3.803200	-11.458000	22.236151	0.001070	20.706951
176.044197	-2.980000	3.804100	-11.335000	22.243731	0.001071	20.719284
177.043602	-3.020400	3.801400	-11.480000	22.258881	0.001072	20.717384
178.042763	-2.989400	3.803400	-11.369000	22.272742	0.001072	20.728417
179.046592	-2.990900	3.802800	-11.373000	22.278350	0.001071	20.730714
180.043300	-3.013700	3.800600	-11.452000	22.294775	0.001074	20.728195
181.045032	-3.017100	3.801700	-11.469000	22.331690	0.001072	20.731493
182.042660	-3.021200	3.801500	-11.483000	22.337849	0.001074	20.709210
183.049103	-3.006000	3.800900	-11.424000	22.331093	0.001075	20.713350
184.049500	-3.002200	3.800900	-11.410000	22.340867	0.001074	20.724561
185.044993	-2.985000	3.801400	-11.346000	22.351882	0.001074	20.728479
186.044126	-2.992400	3.801900	-11.376000	22.344886	0.001076	20.734750
187.049100	-2.988900	3.800400	-11.356000	22.350317	0.001076	20.732127
188.044026	-2.989800	3.801100	-11.363000	22.347480	0.001077	20.720277
189.044998	-2.990900	3.800300	-11.365000	22.388403	0.001078	20.716685
190.047222	-2.999300	3.800300	-11.397000	22.384417	0.001077	20.720755
191.044734	-3.005600	3.798500	-11.414000	22.385067	0.001080	20.724251
192.050856	-2.997800	3.799500	-11.389000	22.412332	0.001080	20.706508
193.045197	-3.009200	3.799400	-11.431000	22.422777	0.001079	20.716021
194.047369	-2.978300	3.801100	-11.318000	22.457440	0.001078	20.726078
195.047696	-2.999000	3.800300	-11.395000	22.459334	0.001081	20.742200
196.046337	-3.015000	3.798900	-11.451000	22.468136	0.001080	20.726358
197.050413	-2.982700	3.799100	-11.331000	22.469980	0.001080	20.721092
198.047608	-2.992900	3.798700	-11.368000	22.497893	0.001081	20.741461
199.046546	-2.995300	3.797000	-11.372000	22.491018	0.001080	20.725091
200.051352	-2.991500	3.797400	-11.359000	22.509980	0.001082	20.734600
201.050694	-2.981100	3.797000	-11.319000	22.523512	0.001083	20.731083
202.048147	-2.975900	3.798800	-11.303000	22.497477	0.001083	20.729664
203.056659	-3.006500	3.797100	-11.414000	22.514048	0.001082	20.744838
204.050280	-3.026200	3.794500	-11.481000	22.533063	0.001084	20.729268
205.053467	-2.996700	3.796400	-11.376000	22.516744	0.001084	20.738055
206.053732	-3.009200	3.795700	-11.421000	22.521602	0.001083	20.711624
207.052352	-2.993300	3.795800	-11.360000	22.539547	0.001084	20.734339
208.052662	-2.998400	3.795100	-11.378000	22.542264	0.001086	20.747018
209.052754	-2.998200	3.794400	-11.375000	22.531923	0.001086	20.722909
210.052927	-2.997100	3.794600	-11.371000	22.526447	0.001086	20.761049
211.053711	-3.003800	3.794500	-11.397000	22.548274	0.001087	20.751141
212.054132	-3.022300	3.792900	-11.461000	22.525356	0.001088	20.734351
213.054140	-3.007000	3.794700	-11.410000	22.537566	0.001089	20.769341
214.053467	-3.004100	3.793800	-11.396000	22.510831	0.001090	20.735452
215.053499	-3.003800	3.792800	-11.391000	22.544375	0.001088	20.739175
216.054268	-3.006800	3.793100	-11.404000	22.548138	0.001092	20.756695
217.060048	-3.000400	3.793600	-11.381000	22.543329	0.001092	20.740973
218.053799	-3.000400	3.793400	-11.380000	22.561443	0.001093	20.742519
219.054883	-3.022500	3.791800	-11.459000	22.573855	0.001094	20.748312
220.055688	-3.003200	3.791200	-11.384000	22.573636	0.001094	20.742403
221.055246	-2.994200	3.792100	-11.352000	22.573982	0.001094	20.739905
222.057785	-2.996900	3.791500	-11.362000	22.587217	0.001093	20.767860
223.056389	-2.986500	3.791600	-11.322000	22.606952	0.001094	20.733571
224.060142	-2.978300	3.791600	-11.290000	22.614679	0.001095	20.744155
225.057386	-2.982900	3.791700	-11.309000	22.615506	0.001095	20.741665
226.068507	-3.005800	3.791100	-11.393000	22.618198	0.001095	20.756216
227.060226	-2.989500	3.789600	-11.327000	22.614761	0.001095	20.742815
228.067867	-2.979600	3.790800	-11.293000	22.629815	0.001095	20.740349
229.059568	-2.989400	3.791000	-11.332000	22.646458	0.001096	20.748010
230.061499	-3.009900	3.789800	-11.405000	22.668093	0.001096	20.766837
231.062542	-3.003800	3.789000	-11.380000	22.698961	0.001097	20.768832
232.068447	-2.994100	3.789300	-11.345000	22.715211	0.001096	20.739590
233.062952	-2.979000	3.789500	-11.288000	22.710523	0.001098	20.744377
234.063598	-2.980100	3.789600	-11.293000	22.699170	0.001099	20.749127
235.061912	-2.988000	3.788300	-11.318000	22.744291	0.001100	20.748331
236.062371	-3.004800	3.787200	-11.379000	22.759315	0.001100	20.745362
237.063496	-2.984400	3.787200	-11.301000	22.740011	0.001101	20.750681
238.063293	-3.012700	3.787600	-11.410000	22.747065	0.001102	20.747317
239.062861	-2.996400	3.788000	-11.348000	22.715129	0.001102	20.758474
240.063997	-2.999000	3.787100	-11.356000	22.745024	0.001101	20.777989
241.063098	-2.997000	3.787800	-11.350000	22.728366	0.001103	20.767467
242.068080	-3.002400	3.787800	-11.372000	22.772490	0.001101	20.750025
243.066922	-2.991600	3.787800	-11.330000	22.784693	0.001104	20.775527
244.063432	-2.979300	3.787900	-11.284000	22.801017	0.001104	20.755369
245.063549	-3.000800	3.786900	-11.362000	22.792822	0.001102	20.752850
246.062981	-3.016200	3.784700	-11.414000	22.830367	0.001104	20.778133
247.063666	-2.984800	3.787600	-11.304000	22.797811	0.001105	20.757847
248.067082	-2.999800	3.785000	-11.353000	22.798309	0.001104	20.760717
249.063233	-3.015200	3.784500	-11.410000	22.811862	0.001107	20.760543
250.068808	-3.021000	3.784600	-11.433000	22.803544	0.001106	20.746994
251.064593	-2.999900	3.783900	-11.350000	22.837873	0.001108	20.781860
252.066648	-3.015000	3.784100	-11.408000	22.847241	0.001109	20.757579
253.066368	-2.993700	3.783800	-11.326000	22.863958	0.001109	20.754412
254.065583	-2.974100	3.784300	-11.253000	22.871733	0.001110	20.747976
255.066502	-2.972800	3.784100	-11.247000	22.880400	0.001110	20.777522
256.064203	-2.997000	3.783000	-11.336000	22.883116	0.001109	20.755587
257.064697	-2.989500	3.784300	-11.312000	22.913456	0.001111	20.753266
258.064307	-2.980300	3.784400	-11.278000	22.890915	0.001110	20.748227
259.071424	-2.993700	3.782500	-11.323000	22.911814	0.001112	20.766794
260.064789	-2.977700	3.783600	-11.266000	22.902373	0.001112	20.763974
261.067838	-2.980900	3.781600	-11.270000	22.907377	0.001112	20.763772
262.066286	-2.984700	3.782700	-11.288000	22.891088	0.001115	20.771160
263.069731	-3.006300	3.780600	-11.363000	22.888224	0.001114	20.774455
264.069162	-3.005300	3.780800	-11.361000	22.918168	0.001115	20.747555
265.069049	-3.022900	3.779500	-11.424000	22.910645	0.001115	20.771787
266.071722	-3.024300	3.781100	-11.434000	22.922275	0.001116	20.760205
267.068731	-3.009800	3.779300	-11.372000	22.973046	0.001117	20.766501
268.076845	-3.000300	3.779400	-11.338000	22.961013	0.001118	20.760135
269.067890	-3.000300	3.779600	-11.338000	22.965025	0.001117	20.780751
270.072218	-2.993500	3.779400	-11.312000	22.976930	0.001119	20.760436
271.069299	-2.990700	3.778200	-11.298000	22.968688	0.001118	20.783472
272.069699	-3.004400	3.777900	-11.349000	22.973622	0.001120	20.781777
273.070184	-3.002700	3.778300	-11.344000	22.974741	0.001119	20.815615
274.071498	-3.021100	3.778300	-11.413000	22.989136	0.001119	20.777881
275.074400	-3.019100	3.777000	-11.401000	23.005901	0.001121	20.778557
276.071548	-2.991700	3.777900	-11.300000	23.025501	0.001122	20.788238
277.076011	-2.993600	3.776900	-11.305000	23.043459	0.001121	20.783946
278.072778	-2.990100	3.777100	-11.292000	23.063387	0.001121	20.784948
279.072201	-3.011100	3.776800	-11.371000	23.054643	0.001122	20.789463
280.073472	-3.016400	3.776300	-11.390000	23.071033	0.001123	20.787393
281.073634	-3.009800	3.776500	-11.366000	23.090286	0.001122	20.780606
282.073075	-3.015300	3.775100	-11.381000	23.084184	0.001123	20.803415
283.072422	-3.014300	3.775400	-11.379000	23.080427	0.001122	20.791590
284.072432	-3.011300	3.775000	-11.367000	23.092701	0.001124	20.787768
285.073466	-2.998700	3.775400	-11.321000	23.066531	0.001124	20.788098
286.076326	-3.005500	3.773300	-11.340000	23.048125	0.001125	20.793837
287.074948	-3.012900	3.774200	-11.370000	23.069502	0.001125	20.808619
288.074822	-3.012300	3.774000	-11.367000	23.076843	0.001123	20.788473
289.074911	-3.001100	3.773500	-11.323000	23.115126	0.001126	20.778471
290.074429	-3.011900	3.773000	-11.363000	23.131046	0.001125	20.807699
291.076508	-3.014900	3.772900	-11.374000	23.142328	0.001126	20.778701
292.080151	-2.999600	3.772300	-11.314000	23.124471	0.001125	20.787360
293.077988	-3.011400	3.772000	-11.359000	23.124520	0.001127	20.786935
294.075801	-3.024300	3.772300	-11.408000	23.134811	0.001125	20.801514
295.075341	-3.027100	3.771300	-11.415000	23.147414	0.001127	20.802290
296.078642	-2.990300	3.772700	-11.280000	23.156630	0.001127	20.794456
297.077607	-2.993800	3.771100	-11.289000	23.156359	0.001128	20.786597
298.076661	-2.983900	3.772800	-11.256000	23.171476	0.001129	20.783253
299.076469	-2.999800	3.770300	-11.309000	23.179128	0.001129	20.797560
300.076748	-2.977000	3.772400	-11.229000	23.177084	0.001130	20.811158
301.076300	-2.980700	3.771900	-11.241000	23.170488	0.001129	20.819248
302.076575	-2.992500	3.770600	-11.283000	23.170793	0.001130	20.783043
303.076361	-3.005500	3.769900	-11.329000	23.187032	0.001131	20.803584
304.077488	-2.984800	3.770700	-11.253000	23.193331	0.001133	20.806103
305.076640	-2.982300	3.769800	-11.242000	23.185345	0.001134	20.799523
306.077628	-2.991400	3.768800	-11.273000	23.206839	0.001135	20.797354
307.079238	-3.009400	3.768100	-11.337000	23.200388	0.001134	20.782829
308.079330	-3.019900	3.768200	-11.379000	23.215755	0.001133	20.802022
309.081281	-2.998600	3.768300	-11.298000	23.213599	0.001134	20.805551
310.081498	-3.005900	3.767100	-11.323000	23.262381	0.001136	20.802756
311.082901	-2.995200	3.767600	-11.283000	23.261139	0.001135	20.834701
312.086750	-3.007800	3.766600	-11.327000	23.266668	0.001137	20.820802
313.083253	-2.974700	3.768100	-11.208000	23.283754	0.001139	20.810424
314.084983	-2.990700	3.766700	-11.264000	23.278476	0.001138	20.816514
315.083474	-3.000500	3.766400	-11.301000	23.316082	0.001138	20.821487
316.084781	-3.007500	3.767200	-11.329000	23.328062	0.001139	20.811208
317.088510	-3.014200	3.764800	-11.346000	23.321138	0.001138	20.808536
318.086151	-2.991700	3.765400	-11.263000	23.320645	0.001139	20.811360
319.086785	-3.022100	3.765300	-11.378000	23.349701	0.001140	20.821041
320.085758	-3.004000	3.765000	-11.309000	23.339248	0.001141	20.830005
321.086254	-2.999700	3.765000	-11.293000	23.367830	0.001141	20.813133
322.086834	-3.018200	3.763500	-11.357000	23.390246	0.001142	20.823746
323.088802	-3.005200	3.764200	-11.311000	23.348566	0.001141	20.819903
324.087359	-3.017200	3.762500	-11.352000	23.375778	0.001143	20.820625
325.090127	-3.020500	3.763600	-11.367000	23.372471	0.001143	20.813517
326.088280	-2.996200	3.762900	-11.271000	23.394907	0.001143	20.836478
327.087703	-2.978400	3.763800	-11.208000	23.386815	0.001142	20.819359
328.089871	-2.994400	3.762200	-11.264000	23.401703	0.001143	20.830013
329.087780	-3.010800	3.760700	-11.322000	23.379472	0.001145	20.817690
330.087037	-2.984800	3.762700	-11.228000	23.362466	0.001144	20.840473
331.087996	-3.002200	3.760300	-11.288000	23.371603	0.001144	20.824975
332.086328	-2.989300	3.761300	-11.242000	23.370710	0.001144	20.825503
333.091203	-3.010100	3.759900	-11.317000	23.358064	0.001143	20.827053
334.091384	-2.977900	3.761900	-11.202000	23.371661	0.001146	20.843524
335.088909	-3.008400	3.759900	-11.310000	23.357645	0.001147	20.807192
336.088670	-3.011200	3.759900	-11.321000	23.382171	0.001146	20.842679
337.087640	-2.992700	3.759400	-11.250000	23.353535	0.001148	20.850488
338.089678	-3.004400	3.759500	-11.293000	23.380328	0.001146	20.833246
339.091807	-2.979400	3.758600	-11.197000	23.407421	0.001147	20.830055
340.090267	-2.961700	3.761000	-11.138000	23.402641	0.001147	20.854186
341.091105	-3.000200	3.758800	-11.276000	23.413822	0.001147	20.836944
342.089139	-2.989700	3.759500	-11.239000	23.407672	0.001149	20.831254
343.088765	-2.985400	3.759200	-11.222000	23.411185	0.001149	20.842362
344.092106	-3.026900	3.756400	-11.368000	23.423361	0.001147	20.844609
345.091093	-2.995500	3.757100	-11.253000	23.422312	0.001149	20.845454
346.095618	-3.004600	3.757100	-11.287000	23.415393	0.001152	20.852743
347.091831	-2.983600	3.757800	-11.211000	23.404714	0.001149	20.841566
348.091238	-3.009500	3.755200	-11.299000	23.398963	0.001149	20.850500
349.091842	-2.995300	3.757200	-11.252000	23.408499	0.001149	20.843937
350.094578	-3.019300	3.756000	-11.340000	23.428939	0.001149	20.834079
351.092388	-2.993000	3.754400	-11.236000	23.428569	0.001150	20.842716
352.095368	-3.016500	3.753700	-11.322000	23.472690	0.001152	20.842844
353.099291	-3.031100	3.754300	-11.379000	23.474755	0.001151	20.845862
354.094085	-2.970000	3.755600	-11.153000	23.473755	0.001150	20.848653
355.101205	-2.982800	3.755300	-11.200000	23.485186	0.001153	20.839723
356.093022	-3.002800	3.754200	-11.272000	23.481303	0.001152	20.842469
357.093647	-3.012300	3.753800	-11.306000	23.482702	0.001153	20.855250
358.093081	-2.998900	3.754400	-11.258000	23.484022	0.001154	20.856573
359.094249	-3.018300	3.751600	-11.322000	23.506880	0.001154	20.848192
360.095463	-2.990200	3.753300	-11.222000	23.522839	0.001155	20.849016
361.098949	-2.981700	3.752800	-11.189000	23.531752	0.001155	20.856054
362.095640	-2.990700	3.752800	-11.223000	23.546613	0.001155	20.885648
363.096316	-3.004700	3.751600	-11.272000	23.573002	0.001157	20.855679
364.096274	-2.998700	3.751900	-11.250000	23.574100	0.001157	20.846823
365.097516	-3.017900	3.751000	-11.319000	23.586320	0.001158	20.853857
366.101023	-3.010000	3.750900	-11.289000	23.593715	0.001159	20.867433
367.099267	-3.004600	3.749700	-11.265000	23.611812	0.001157	20.852385
368.099362	-3.004000	3.750800	-11.266000	23.638249	0.001159	20.849016
369.099559	-3.019900	3.749400	-11.322000	23.651640	0.001160	20.862915
370.100306	-2.995300	3.749200	-11.229000	23.668041	0.001160	20.826728
371.100656	-2.997000	3.749800	-11.237000	23.679569	0.001162	20.864836
372.101137	-3.010700	3.748400	-11.284000	23.656883	0.001161	20.842094
373.101598	-3.006000	3.748000	-11.265000	23.670303	0.001161	20.838478
374.101324	-2.982800	3.750200	-11.184000	23.675476	0.001163	20.860259
375.100824	-2.988500	3.750400	-11.207000	23.658047	0.001163	20.856536
376.101511	-3.035500	3.747900	-11.375000	23.682443	0.001164	20.836425
377.105127	-2.978300	3.748100	-11.162000	23.660161	0.001164	20.851069
378.102356	-2.988600	3.748200	-11.200000	23.681937	0.001163	20.841607
379.104293	-3.008300	3.746400	-11.270000	23.694604	0.001164	20.851461
380.103498	-2.996300	3.747200	-11.227000	23.690421	0.001163	20.840630
381.104582	-3.001600	3.746500	-11.245000	23.718144	0.001165	20.833810
382.107486	-3.012400	3.746000	-11.284000	23.713237	0.001162	20.846435
383.105012	-2.999200	3.745300	-11.232000	23.714952	0.001165	20.841516
384.106735	-3.006000	3.745700	-11.258000	23.722885	0.001165	20.864167
385.104309	-2.998300	3.744900	-11.227000	23.726023	0.001166	20.844555
386.105472	-3.003300	3.744200	-11.244000	23.738364	0.001163	20.833221
387.107382	-2.994100	3.744400	-11.210000	23.746177	0.001165	20.835364
388.107604	-3.008300	3.743200	-11.259000	23.739162	0.001164	20.834495
389.104320	-3.014900	3.743200	-11.285000	23.742990	0.001165	20.818893
390.104484	-3.013000	3.743300	-11.278000	23.767779	0.001166	20.852755
391.104697	-3.007300	3.743400	-11.257000	23.775366	0.001167	20.827646
392.104789	-2.998800	3.742500	-11.222000	23.805558	0.001165	20.842744
393.108276	-3.021100	3.742400	-11.305000	23.802696	0.001165	20.843668
394.106858	-2.995700	3.742200	-11.209000	23.821365	0.001164	20.830145
395.110976	-2.995900	3.742700	-11.212000	23.816809	0.001166	20.836008
396.108206	-3.000700	3.741400	-11.226000	23.815139	0.001166	20.829592
397.109039	-2.999900	3.741500	-11.223000	23.832463	0.001167	20.820410
398.112696	-3.011800	3.740400	-11.264000	23.842764	0.001166	20.834532
399.109519	-3.001000	3.740600	-11.224000	23.852472	0.001167	20.839050
400.111203	-2.996800	3.741200	-11.211000	23.832587	0.001167	20.856094
401.109918	-3.007100	3.739600	-11.244000	23.815933	0.001164	20.839871
402.109803	-2.987700	3.740600	-11.175000	23.849754	0.001165	20.839644
403.111496	-3.032600	3.737600	-11.332000	23.851802	0.001167	20.823680
404.110250	-2.994500	3.738900	-11.194000	23.851424	0.001167	20.819982
405.113480	-2.993800	3.737400	-11.187000	23.857999	0.001167	20.830842
406.110913	-3.020100	3.737200	-11.284000	23.912374	0.001168	20.829415
407.110037	-3.011800	3.737700	-11.256000	23.890947	0.001165	20.824051
408.114056	-3.008600	3.737500	-11.244000	23.883928	0.001165	20.818435
409.114128	-3.049000	3.735100	-11.387000	23.887761	0.001169	20.820381
410.111514	-3.005800	3.735900	-11.229000	23.828479	0.001166	20.801717
411.111156	-2.990600	3.737600	-11.177000	23.839055	0.001167	20.832709
412.112263	-2.973700	3.738000	-11.115000	23.845498	0.001169	20.806928
413.113125	-3.030900	3.735500	-11.321000	23.857201	0.001166	20.839999
414.120716	-3.011900	3.735600	-11.250000	23.873225	0.001170	20.812919
415.114571	-2.998500	3.736600	-11.203000	23.875170	0.001168	20.802067
416.116818	-2.988700	3.735400	-11.164000	23.905733	0.001165	20.814696
417.114305	-3.005700	3.734100	-11.222000	23.901753	0.001168	20.811179
418.114172	-3.004900	3.733900	-11.219000	23.908048	0.001167	20.818440
419.118326	-3.006700	3.733600	-11.224000	23.905166	0.001169	20.816498
420.115967	-2.997100	3.734600	-11.192000	23.912209	0.001168	20.808388
421.115133	-3.012500	3.734000	-11.247000	23.919754	0.001169	20.813583
422.115940	-2.978000	3.733300	-11.117000	23.914129	0.001170	20.821693
423.117124	-2.989200	3.733400	-11.157000	23.905199	0.001168	20.792823
424.117243	-2.992300	3.733100	-11.170000	23.908361	0.001170	20.827762
425.120922	-2.987600	3.732400	-11.149000	23.914960	0.001171	20.800715
426.116870	-3.010800	3.731100	-11.233000	23.903538	0.001171	20.817710
427.117597	-3.005200	3.731600	-11.213000	23.933376	0.001172	20.809699
428.118201	-3.011100	3.730500	-11.231000	23.900651	0.001171	20.813393
429.118766	-3.002400	3.731400	-11.203000	23.894188	0.001173	20.797903
430.119655	-2.977600	3.730600	-11.106000	23.917205	0.001171	20.815768
431.117714	-2.994500	3.729700	-11.168000	23.892169	0.001171	20.801094
432.118871	-2.993800	3.730200	-11.166000	23.918056	0.001172	20.799552
433.117666	-2.999800	3.729200	-11.186000	23.899615	0.001173	20.800975
434.116974	-3.005800	3.729800	-11.210000	23.892276	0.001173	20.786503
435.117550	-3.003100	3.729100	-11.198000	23.871174	0.001174	20.811336
436.117418	-2.997300	3.730100	-11.179000	23.868579	0.001175	20.799726
437.117399	-2.995600	3.728600	-11.168000	23.885504	0.001174	20.798678
438.116869	-2.990600	3.729600	-11.153000	23.901429	0.001174	20.808957
439.118128	-3.022800	3.728700	-11.269000	23.892148	0.001176	20.784004
440.117394	-3.011500	3.726700	-11.222000	23.896922	0.001176	20.791162
441.118192	-2.999100	3.727700	-11.179000	23.894837	0.001174	20.792865
442.119377	-2.994000	3.726500	-11.155000	23.903073	0.001171	20.786899
443.121674	-2.980000	3.727800	-11.107000	23.919841	0.001174	20.783798
444.117152	-2.997500	3.725600	-11.167000	23.913069	0.001174	20.774162
445.117216	-3.000400	3.725800	-11.178000	23.906626	0.001173	20.786668
446.124132	-3.015000	3.724600	-11.227000	23.924713	0.001175	20.788684
447.118076	-2.995000	3.725000	-11.155000	23.938927	0.001175	20.796299
448.118129	-3.006800	3.723900	-11.196000	23.935190	0.001175	20.778326
449.118521	-2.987100	3.724800	-11.125000	23.945567	0.001175	20.805329
450.118420	-3.003400	3.723800	-11.183000	23.969480	0.001174	20.785212
451.118256	-2.993500	3.723500	-11.146000	23.939967	0.001174	20.786911
452.120663	-2.984300	3.724900	-11.114000	23.984043	0.001173	20.793652
453.118287	-2.998900	3.721400	-11.159000	23.982793	0.001173	20.805675
454.119404	-3.011200	3.722200	-11.207000	24.016289	0.001177	20.796118
455.118087	-2.996400	3.722800	-11.154000	24.026867	0.001174	20.779225
456.117840	-3.011500	3.720800	-11.204000	24.047440	0.001174	20.792745
457.121943	-3.024200	3.721200	-11.252000	24.041992	0.001174	20.782066
458.118855	-2.985700	3.722000	-11.112000	24.061406	0.001174	20.783043
459.119998	-3.008000	3.720600	-11.190000	24.051432	0.001173	20.789162
460.119596	-2.994900	3.720600	-11.140000	24.043115	0.001173	20.795520
461.118602	-3.003900	3.720000	-11.173000	24.067782	0.001172	20.775688
462.119941	-2.971300	3.721500	-11.057000	24.091894	0.001172	20.766679
463.119880	-2.996400	3.720000	-11.146000	24.077365	0.001175	20.791937
464.120301	-2.999300	3.719300	-11.153000	24.096848	0.001173	20.798200
465.121849	-3.006000	3.720400	-11.183000	24.086426	0.001172	20.782532
466.122019	-3.003300	3.718000	-11.164000	24.050848	0.001175	20.787629
467.123442	-2.995800	3.717900	-11.137000	24.030892	0.001174	20.792271
468.122188	-3.006600	3.717000	-11.175000	24.030946	0.001173	20.801808
469.123106	-3.001200	3.717500	-11.157000	24.049064	0.001176	20.775882
470.124575	-3.014600	3.718000	-11.208000	24.050807	0.001175	20.766724
471.130882	-2.994800	3.717700	-11.132000	24.082085	0.001174	20.768695
472.126406	-2.972700	3.717400	-11.049000	24.075150	0.001175	20.777387
473.127484	-2.998700	3.716500	-11.144000	24.080704	0.001175	20.778216
474.124859	-3.001500	3.715600	-11.151000	24.068313	0.001175	20.769582
475.126780	-3.010900	3.714500	-11.184000	24.062097	0.001176	20.773780
476.124660	-2.999300	3.714900	-11.141000	24.047519	0.001175	20.765797
477.124931	-3.004700	3.714900	-11.161000	24.039358	0.001174	20.770889
478.128286	-3.025200	3.713200	-11.232000	24.014477	0.001175	20.783395
479.129633	-2.989300	3.713800	-11.100000	24.012816	0.001175	20.776988
480.128054	-3.006100	3.714200	-11.165000	24.019189	0.001176	20.779111
481.128124	-2.985200	3.714000	-11.086000	24.017799	0.001174	20.761122
482.127729	-2.990800	3.714500	-11.107000	24.019621	0.001176	20.765320
483.132951	-2.970000	3.714000	-11.029000	24.038754	0.001174	20.800156
484.131604	-2.990100	3.713500	-11.102000	24.054090	0.001175	20.752946
485.128274	-3.007500	3.712700	-11.165000	24.020669	0.001175	20.777277
486.138871	-2.985600	3.713100	-11.084000	24.013310	0.001177	20.758517
487.126641	-3.002800	3.711200	-11.143000	24.024957	0.001178	20.758818
488.128033	-3.015000	3.711300	-11.187000	24.045991	0.001174	20.752410
489.128313	-2.990600	3.712500	-11.102000	24.085281	0.001175	20.778539
490.127426	-2.984000	3.711000	-11.072000	24.104122	0.001177	20.771831
491.134230	-2.997300	3.711600	-11.124000	24.115621	0.001174	20.767716
492.129680	-2.992300	3.710400	-11.101000	24.128385	0.001176	20.765819
493.130175	-2.997000	3.710400	-11.119000	24.157129	0.001175	20.758612
494.130042	-3.041700	3.706600	-11.273000	24.160516	0.001175	20.762958
495.130342	-2.983000	3.710000	-11.066000	24.149697	0.001174	20.754951
496.129287	-3.020600	3.708200	-11.200000	24.201307	0.001175	20.770207
497.129508	-2.986500	3.708000	-11.073000	24.191927	0.001175	20.748944
498.129190	-2.985100	3.709400	-11.072000	24.154462	0.001176	20.752144
499.129958	-2.988200	3.708600	-11.081000	24.156554	0.001177	20.770838
500.133492	-3.003300	3.707600	-11.134000	24.147030	0.001174	20.729990
501.133347	-3.005700	3.706600	-11.140000	24.135860	0.001176	20.751979
502.132514	-3.002500	3.706300	-11.127000	24.140292	0.001174	20.743622
503.129006	-2.996100	3.705100	-11.100000	24.166992	0.001177	20.759970
504.133479	-2.990000	3.705500	-11.078000	24.162092	0.001176	20.761694
505.134644	-3.021300	3.705000	-11.193000	24.160954	0.001175	20.742059
506.131376	-2.986400	3.707300	-11.069000	24.183851	0.001177	20.747008
507.131723	-2.983200	3.706400	-11.056000	24.207689	0.001174	20.714491
508.130989	-3.004000	3.704400	-11.127000	24.226573	0.001174	20.738650
509.143309	-3.015300	3.703500	-11.166000	24.211475	0.001176	20.756698
510.134471	-2.984500	3.704200	-11.054000	24.228522	0.001173	20.764787
511.131031	-3.003900	3.702900	-11.123000	24.223351	0.001174	20.745376
512.133116	-2.979700	3.704100	-11.036000	24.218328	0.001175	20.744605
513.129872	-3.006600	3.703600	-11.134000	24.182183	0.001173	20.751499
514.129923	-3.007200	3.702300	-11.133000	24.176387	0.001174	20.730512
515.134816	-3.006600	3.702100	-11.130000	24.195700	0.001175	20.756996
516.132013	-3.009800	3.700700	-11.137000	24.180252	0.001176	20.738656
517.130902	-2.999800	3.702000	-11.104000	24.213643	0.001174	20.747492
518.131837	-2.987300	3.701800	-11.057000	24.220462	0.001173	20.743901
519.133133	-3.006700	3.700600	-11.126000	24.244423	0.001174	20.755133
520.134435	-3.016300	3.700000	-11.160000	24.241837	0.001174	20.742582
521.136646	-2.996700	3.700400	-11.088000	24.215892	0.001174	20.757335
522.133259	-2.980000	3.700200	-11.025000	24.198706	0.001175	20.750528
523.137013	-2.977500	3.699800	-11.015000	24.195421	0.001174	20.752449
524.134950	-3.010800	3.699000	-11.136000	24.217771	0.001175	20.729821
525.137332	-2.999000	3.698600	-11.091000	24.215634	0.001174	20.738109
526.135387	-3.017600	3.699200	-11.162000	24.200955	0.001174	20.747568
527.134113	-2.987700	3.698800	-11.049000	24.175678	0.001173	20.728378
528.133609	-3.001500	3.697300	-11.096000	24.216308	0.001174	20.719344
529.134838	-2.989000	3.699100	-11.055000	24.234477	0.001175	20.749898
530.134530	-2.983300	3.698000	-11.031000	24.225550	0.001173	20.723398
531.135464	-3.019300	3.695600	-11.156000	24.242814	0.001172	20.746406
532.134583	-2.988100	3.698000	-11.049000	24.249514	0.001174	20.741273
533.137678	-3.012200	3.696300	-11.133000	24.237002	0.001174	20.742473
534.134750	-3.011800	3.694300	-11.125000	24.222225	0.001174	20.716744
535.136506	-3.012900	3.695500	-11.133000	24.214858	0.001174	20.721683
536.144476	-2.996300	3.695100	-11.071000	24.178340	0.001173	20.728677
537.136553	-2.974800	3.695500	-10.993000	24.168491	0.001173	20.727333
538.137348	-3.003300	3.694600	-11.094000	24.159583	0.001174	20.721243
539.137304	-3.007400	3.694600	-11.110000	24.146601	0.001173	20.712015
540.138879	-3.025700	3.692700	-11.172000	24.169022	0.001173	20.733081
541.137917	-3.034800	3.691600	-11.201000	24.209578	0.001173	20.733457
542.141762	-3.004500	3.693400	-11.096000	24.212768	0.001173	20.725751
543.139771	-3.018700	3.693000	-11.146000	24.230682	0.001171	20.721434
544.140617	-3.014500	3.691700	-11.128000	24.221154	0.001171	20.731317
545.139334	-3.020600	3.691800	-11.150000	24.187221	0.001173	20.730472
546.140674	-3.012000	3.690900	-11.116000	24.194558	0.001173	20.726452
547.144367	-2.987800	3.692000	-11.029000	24.170231	0.001173	20.741407
548.141398	-2.970300	3.692800	-10.968000	24.161825	0.001172	20.717328
549.141808	-2.984300	3.690300	-11.013000	24.153065	0.001174	20.718973
550.142672	-2.979000	3.690000	-10.991000	24.149859	0.001173	20.715757
551.142471	-2.984700	3.690200	-11.014000	24.177002	0.001170	20.715006
552.147160	-2.985100	3.689000	-11.010000	24.202933	0.001172	20.707824
553.141698	-2.992300	3.688500	-11.035000	24.200520	0.001175	20.724371
554.142456	-2.969500	3.690100	-10.957000	24.239932	0.001172	20.716013
555.142809	-3.013500	3.687100	-11.110000	24.293824	0.001171	20.718862
556.143219	-3.028600	3.687500	-11.167000	24.295789	0.001172	20.713246
557.142432	-2.948200	3.688200	-10.872000	24.300067	0.001171	20.703313
558.143471	-3.003200	3.687600	-11.074000	24.327064	0.001173	20.710954
559.143867	-2.971000	3.689200	-10.959000	24.321244	0.001172	20.730247
560.143804	-2.996300	3.686900	-11.046000	24.325621	0.001172	20.713775
561.144379	-2.991900	3.686300	-11.027000	24.337763	0.001172	20.714575
562.143753	-2.991100	3.687300	-11.029000	24.349156	0.001173	20.739756
563.146847	-2.994400	3.686500	-11.036000	24.332863	0.001171	20.706340
564.141875	-3.020600	3.684100	-11.127000	24.328013	0.001171	20.708113
565.146303	-3.002600	3.685400	-11.064000	24.345330	0.001170	20.707940
566.142607	-2.998900	3.685400	-11.050000	24.388715	0.001172	20.708316
567.142636	-3.024800	3.682500	-11.137000	24.413288	0.001174	20.703569
568.146121	-3.021000	3.684600	-11.130000	24.408443	0.001172	20.707244
569.143617	-2.994200	3.684100	-11.030000	24.417546	0.001173	20.685554
570.145139	-3.026000	3.682300	-11.142000	24.425281	0.001173	20.705644
571.145687	-3.000500	3.683400	-11.052000	24.453268	0.001171	20.701953
572.146291	-3.009000	3.681800	-11.076000	24.453145	0.001171	20.715107
573.146620	-3.039400	3.682200	-11.191000	24.468446	0.001171	20.705327
574.145472	-2.990900	3.681800	-11.010000	24.512003	0.001170	20.708725
575.146222	-3.001300	3.682800	-11.052000	24.516252	0.001171	20.718204
576.147368	-3.029200	3.680600	-11.147000	24.470287	0.001169	20.719029
577.146865	-3.019600	3.680900	-11.114000	24.498771	0.001170	20.716786
578.146861	-3.004000	3.680600	-11.055000	24.493400	0.001172	20.711397
579.149261	-3.012200	3.680500	-11.084000	24.472930	0.001170	20.710774
580.147554	-2.998400	3.679400	-11.032000	24.482480	0.001167	20.705183
581.149736	-3.019600	3.679200	-11.109000	24.468829	0.001168	20.703340
582.148404	-2.978700	3.679400	-10.958000	24.491140	0.001169	20.693007
583.148004	-3.011000	3.679900	-11.079000	24.510397	0.001169	20.710907
584.151694	-3.009400	3.678400	-11.069000	24.515517	0.001169	20.700870
585.149624	-3.021000	3.678900	-11.113000	24.527312	0.001171	20.722663
586.151079	-2.992200	3.680100	-11.011000	24.510200	0.001169	20.704545
587.149790	-2.993200	3.678300	-11.009000	24.534972	0.001168	20.690517
588.149866	-3.002000	3.678100	-11.041000	24.565393	0.001168	20.712033
589.153096	-3.001200	3.677200	-11.036000	24.584798	0.001168	20.721546
590.152909	-3.030700	3.674800	-11.135000	24.612156	0.001167	20.715806
591.152035	-3.003700	3.676200	-11.041000	24.575174	0.001168	20.719476
592.149941	-3.014100	3.675600	-11.078000	24.555577	0.001168	20.733479
593.152353	-2.988000	3.676200	-10.983000	24.517076	0.001168	20.711444
594.152224	-2.992300	3.673900	-10.991000	24.482803	0.001168	20.703136
595.156667	-3.014000	3.675200	-11.076000	24.473100	0.001167	20.683442
596.153471	-2.972700	3.676200	-10.927000	24.480691	0.001167	20.706233
597.154382	-2.998300	3.674900	-11.017000	24.480666	0.001165	20.704311
598.154093	-2.992500	3.674700	-10.996000	24.487160	0.001168	20.707507
599.153586	-3.010400	3.673200	-11.056000	24.536757	0.001169	20.695627
600.158561	-3.007000	3.675100	-11.050000	24.552032	0.001166	20.708109
601.159242	-3.001600	3.674000	-11.026000	24.581183	0.001167	20.698003
602.157270	-2.999300	3.673300	-11.016000	24.569718	0.001167	20.713528
603.155334	-2.973700	3.674200	-10.924000	24.602600	0.001164	20.708114
604.157288	-3.015300	3.671400	-11.069000	24.615438	0.001165	20.695389
605.160234	-2.996000	3.672800	-11.002000	24.632474	0.001166	20.714382
606.157695	-2.991900	3.672400	-10.985000	24.620710	0.001165	20.707792
607.161243	-3.013300	3.670900	-11.061000	24.653590	0.001165	20.730830
608.158130	-3.002100	3.672600	-11.025000	24.693931	0.001165	20.712040
609.159408	-3.021000	3.670200	-11.087000	24.695846	0.001165	20.702581
610.161815	-3.003500	3.670000	-11.020000	24.713259	0.001166	20.698718
611.160174	-3.013300	3.670300	-11.059000	24.716685	0.001163	20.708321
612.158864	-3.001500	3.669700	-11.014000	24.724570	0.001164	20.713863
613.160660	-3.018400	3.669300	-11.075000	24.693537	0.001164	20.733931
614.159483	-3.000000	3.669300	-11.007000	24.677998	0.001163	20.720708
615.159913	-3.020000	3.668000	-11.076000	24.631114	0.001165	20.716337
616.162749	-2.996500	3.669300	-10.994000	24.589633	0.001163	20.690834
617.160820	-2.989600	3.669600	-10.970000	24.561255	0.001164	20.693180
618.163277	-3.003700	3.667500	-11.015000	24.545837	0.001161	20.737931
619.159987	-3.009900	3.668700	-11.041000	24.558670	0.001163	20.710503
620.160759	-3.016100	3.666500	-11.058000	24.535465	0.001163	20.720411
621.160578	-3.025100	3.667300	-11.093000	24.552556	0.001165	20.721439
622.160415	-3.017600	3.666400	-11.061000	24.567481	0.001163	20.706067
623.161681	-2.997800	3.666300	-10.990000	24.608840	0.001163	20.726230
624.162199	-3.016800	3.665100	-11.056000	24.609485	0.001164	20.707435
625.160500	-3.008800	3.665500	-11.027000	24.659303	0.001163	20.718544
626.162263	-3.004400	3.664500	-11.009000	24.688205	0.001162	20.706294
627.163686	-3.028100	3.663900	-11.093000	24.679321	0.001161	20.723933
628.164357	-2.988800	3.666000	-10.956000	24.721355	0.001162	20.713007
629.167625	-2.987900	3.664400	-10.948000	24.721256	0.001161	20.722866
630.164493	-3.004400	3.664200	-11.008000	24.704817	0.001162	20.702574
631.164701	-2.979600	3.665100	-10.919000	24.684105	0.001162	20.717353
632.167061	-2.995500	3.663400	-10.973000	24.689697	0.001161	20.720119
633.173490	-2.978600	3.663200	-10.910000	24.694402	0.001160	20.740015
634.167160	-3.022600	3.662200	-11.069000	24.703055	0.001161	20.714557
635.166432	-3.001300	3.662900	-10.992000	24.720587	0.001161	20.720771
636.166045	-2.991500	3.661300	-10.952000	24.713130	0.001160	20.734152
637.168747	-2.997000	3.662300	-10.974000	24.735214	0.001161	20.698464
638.169440	-3.002400	3.660800	-10.991000	24.740382	0.001159	20.706022
639.166348	-3.000400	3.660600	-10.982000	24.751205	0.001158	20.718306
640.169627	-3.003100	3.660300	-10.991000	24.742030	0.001159	20.717160
641.168253	-2.988500	3.660700	-10.939000	24.795293	0.001158	20.727938
642.168098	-2.988300	3.660600	-10.938000	24.755408	0.001158	20.725844
643.171039	-2.988200	3.659600	-10.934000	24.737856	0.001158	20.722929
644.172787	-2.989600	3.660200	-10.941000	24.761875	0.001159	20.727592
645.172622	-2.973500	3.660100	-10.881000	24.773864	0.001159	20.727295
646.170417	-2.989300	3.658600	-10.936000	24.758124	0.001157	20.721457
647.168847	-3.009300	3.658500	-11.009000	24.784780	0.001158	20.729716
648.169165	-3.004900	3.658100	-10.991000	24.791325	0.001159	20.713524
649.168999	-2.991600	3.658800	-10.944000	24.839093	0.001156	20.739653
650.170687	-2.989800	3.657900	-10.935000	24.814230	0.001157	20.745995
651.170742	-2.988000	3.657500	-10.927000	24.829053	0.001156	20.731473
652.171241	-3.004900	3.656500	-10.985000	24.817640	0.001157	20.717648
653.171382	-2.973400	3.657300	-10.873000	24.871597	0.001156	20.726282
654.172906	-2.979900	3.657900	-10.899000	24.866031	0.001156	20.737292
655.169851	-2.992700	3.655700	-10.940000	24.846563	0.001157	20.750944
656.169460	-3.019200	3.655300	-11.035000	24.834998	0.001157	20.731750
657.169375	-3.017200	3.653000	-11.020000	24.824653	0.001155	20.740809
658.170702	-2.987300	3.654400	-10.916000	24.817418	0.001155	20.746350
659.173528	-2.996300	3.655400	-10.951000	24.818117	0.001158	20.734249
660.172625	-3.001200	3.654500	-10.967000	24.815656	0.001157	20.730357
661.173329	-2.980900	3.655100	-10.895000	24.828811	0.001155	20.725541
662.172374	-2.986300	3.653800	-10.909000	24.817177	0.001156	20.719080
663.172202	-2.989200	3.654700	-10.924000	24.812694	0.001155	20.745402
664.179896	-2.998700	3.652200	-10.951000	24.812846	0.001155	20.758358
665.176171	-2.993100	3.653200	-10.933000	24.844574	0.001153	20.746577
666.173682	-3.007800	3.652700	-10.986000	24.832537	0.001154	20.714580
667.174274	-3.007800	3.652000	-10.982000	24.865189	0.001154	20.738343
668.174539	-2.994500	3.651000	-10.931000	24.875583	0.001153	20.740240
669.178693	-2.998700	3.651000	-10.948000	24.853374	0.001151	20.753512
670.180515	-3.015200	3.650200	-11.004000	24.872522	0.001154	20.729581
671.176341	-3.009900	3.650300	-10.986000	24.864343	0.001154	20.738442
672.175577	-2.996400	3.650900	-10.938000	24.859466	0.001153	20.741609
673.177275	-2.996000	3.649800	-10.933000	24.837640	0.001151	20.740566
674.178551	-3.008000	3.648900	-10.975000	24.853772	0.001152	20.745377
675.182017	-2.988800	3.650500	-10.910000	24.882271	0.001150	20.760230
676.190095	-2.993100	3.649400	-10.921000	24.832586	0.001151	20.743081
677.181936	-2.989600	3.649100	-10.907000	24.841193	0.001149	20.742236
678.180939	-2.978300	3.648500	-10.865000	24.796310	0.001151	20.765944
679.180175	-2.998600	3.648100	-10.938000	24.809888	0.001150	20.757286
680.179219	-2.998800	3.648800	-10.941000	24.806980	0.001148	20.737296
681.181090	-2.982900	3.650500	-10.888000	24.834407	0.001150	20.744908
682.181511	-2.997300	3.648400	-10.933000	24.852360	0.001149	20.760081
683.182322	-2.992300	3.647700	-10.914000	24.888762	0.001150	20.752993
684.182984	-2.999600	3.647300	-10.939000	24.914302	0.001150	20.751600
685.182437	-3.007500	3.646700	-10.967000	24.914848	0.001150	20.748829
686.183080	-2.985900	3.646600	-10.888000	24.939339	0.001148	20.751126
687.182096	-3.001800	3.646100	-10.943000	24.953433	0.001150	20.761005
688.182206	-2.998600	3.645500	-10.930000	24.980659	0.001148	20.762254
689.182752	-3.007100	3.645800	-10.961000	24.992095	0.001148	20.741490
690.183750	-3.003800	3.645200	-10.948000	24.963338	0.001150	20.747713
691.184648	-3.008100	3.644900	-10.963000	24.904135	0.001147	20.766052
692.184043	-3.013300	3.643500	-10.978000	24.909754	0.001149	20.765055
693.182868	-2.992300	3.645200	-10.906000	24.872108	0.001148	20.766151
694.185560	-2.994000	3.644500	-10.911000	24.851872	0.001146	20.759592
695.184242	-2.983000	3.643200	-10.866000	24.847389	0.001147	20.772637
696.186448	-2.989600	3.644300	-10.895000	24.870937	0.001148	20.755018
697.187610	-2.990900	3.643400	-10.896000	24.928671	0.001147	20.764126
698.185376	-3.003000	3.642500	-10.938000	24.940732	0.001145	20.773387
699.184804	-3.003500	3.642400	-10.938000	24.934542	0.001145	20.772389
700.187211	-3.009900	3.641500	-10.959000	24.953138	0.001146	20.762605
701.187466	-2.991800	3.642000	-10.895000	24.994885	0.001146	20.767998
702.188720	-2.989900	3.642000	-10.888000	24.990732	0.001147	20.760985
703.187015	-2.999900	3.639500	-10.917000	25.003215	0.001145	20.761187
704.188947	-2.987600	3.640200	-10.874000	24.996479	0.001143	20.791410
705.188570	-2.985800	3.642200	-10.873000	24.986377	0.001143	20.775580
706.187202	-2.995300	3.639200	-10.899000	24.986210	0.001145	20.768774
707.190477	-2.956900	3.640900	-10.765000	24.966020	0.001145	20.781226
708.188792	-3.004700	3.639100	-10.931000	24.953364	0.001144	20.782747
709.188817	-2.998800	3.638500	-10.910000	24.974946	0.001142	20.775012
710.188285	-3.009000	3.639200	-10.950000	24.980295	0.001143	20.775639
711.190827	-3.008100	3.638100	-10.943000	24.987799	0.001144	20.780327
712.190122	-2.998000	3.639500	-10.910000	24.985269	0.001144	20.779210
713.191241	-3.003000	3.637700	-10.924000	24.974754	0.001142	20.776716
714.188731	-2.998500	3.638200	-10.908000	24.979798	0.001143	20.785572
715.190750	-2.987300	3.637800	-10.866000	24.961999	0.001141	20.780035
716.190161	-2.991200	3.637900	-10.880000	24.972392	0.001141	20.780983
717.190731	-2.971600	3.637400	-10.808000	25.017691	0.001142	20.773347
718.193608	-2.990100	3.638300	-10.878000	25.044251	0.001142	20.756385
719.192087	-2.994000	3.636500	-10.887000	25.066197	0.001142	20.783630
720.194096	-3.006700	3.634700	-10.927000	25.061104	0.001141	20.776147
721.191683	-2.994700	3.636600	-10.889000	25.036964	0.001141	20.760925
722.191604	-3.032700	3.634400	-11.020000	24.994131	0.001144	20.792846
723.195306	-3.001300	3.635000	-10.907000	25.032138	0.001141	20.782633
724.197388	-2.975900	3.634900	-10.816000	24.995297	0.001141	20.768886
725.193788	-3.006200	3.633400	-10.921000	24.978714	0.001141	20.794442
726.194148	-2.987000	3.634100	-10.854000	25.000489	0.001140	20.793538
727.195028	-2.998700	3.633700	-10.895000	25.016451	0.001143	20.775421
728.195675	-2.966100	3.635000	-10.781000	25.013666	0.001142	20.777842
729.199068	-3.018400	3.633400	-10.966000	25.024157	0.001141	20.790743
730.194579	-2.998000	3.633100	-10.891000	25.059427	0.001140	20.797697
731.197652	-2.982700	3.633100	-10.835000	25.074965	0.001141	20.790062
732.197061	-2.988700	3.632100	-10.853000	25.090223	0.001142	20.796369
733.196138	-3.010600	3.631700	-10.933000	25.088555	0.001139	20.771935
734.197767	-2.995600	3.632900	-10.881000	25.104989	0.001140	20.789380
735.195768	-2.978600	3.632200	-10.817000	25.157609	0.001138	20.785780
736.198772	-2.985100	3.632000	-10.839000	25.144852	0.001140	20.801897
737.196678	-3.003700	3.629600	-10.899000	25.128193	0.001138	20.806984
738.197952	-2.986200	3.630100	-10.840000	25.139327	0.001138	20.786394
739.196655	-3.001000	3.629400	-10.891000	25.135795	0.001138	20.811297
740.200840	-3.012000	3.629200	-10.929000	25.143401	0.001137	20.795699
741.198978	-2.995700	3.629700	-10.872000	25.113537	0.001135	20.792746
742.198258	-2.990000	3.628600	-10.849000	25.130541	0.001134	20.820721
743.199624	-2.998800	3.628500	-10.880000	25.165886	0.001135	20.807366
744.201361	-3.003900	3.628100	-10.897000	25.151235	0.001134	20.785072
745.205915	-2.972000	3.629500	-10.786000	25.171130	0.001135	20.810260
746.200949	-3.005700	3.629100	-10.907000	25.149272	0.001135	20.807283
747.220025	-3.009000	3.627800	-10.914000	25.135826	0.001135	20.804216
748.200979	-3.016200	3.627400	-10.940000	25.156426	0.001133	20.786016
749.201535	-3.031600	3.624300	-10.985000	25.161321	0.001134	20.797568
750.206801	-3.014400	3.627100	-10.932000	25.177207	0.001134	20.804982
751.202888	-3.006200	3.626700	-10.902000	25.133853	0.001133	20.799391
752.201051	-3.014400	3.625000	-10.926000	25.132978	0.001131	20.810366
753.200706	-2.999200	3.625700	-10.873000	25.137430	0.001131	20.820051
754.202491	-3.023900	3.624000	-10.958000	25.157814	0.001132	20.799263
755.205782	-3.002300	3.624000	-10.879000	25.173518	0.001131	20.824511
756.205047	-3.008200	3.625300	-10.904000	25.195524	0.001132	20.805827
757.204235	-2.976800	3.624500	-10.787000	25.193010	0.001129	20.816579
758.204282	-3.001500	3.624000	-10.876000	25.209684	0.001131	20.818619
759.204200	-3.012700	3.624100	-10.916000	25.160815	0.001132	20.818871
760.204340	-2.984600	3.624200	-10.815000	25.166429	0.001128	20.801274
761.207909	-2.988800	3.625000	-10.833000	25.128196	0.001127	20.797031
762.204712	-3.022300	3.623000	-10.949000	25.139581	0.001126	20.825055
763.208868	-3.000300	3.623400	-10.870000	25.141171	0.001127	20.811004
764.205310	-3.009500	3.621100	-10.897000	25.123872	0.001126	20.812604
765.206866	-3.002900	3.622200	-10.876000	25.124812	0.001128	20.826824
766.207860	-3.001100	3.622300	-10.869000	25.148128	0.001129	20.817988
767.210020	-3.000600	3.621500	-10.865000	25.163389	0.001127	20.835205
768.208903	-3.007600	3.620500	-10.887000	25.190734	0.001127	20.818561
769.209076	-2.982100	3.619800	-10.793000	25.193637	0.001125	20.810570
770.209739	-3.010000	3.620800	-10.897000	25.204726	0.001126	20.825496
771.211020	-3.001500	3.620500	-10.865000	25.207329	0.001125	20.832376
772.214850	-2.997300	3.620800	-10.851000	25.198207	0.001125	20.817055
773.211802	-2.997600	3.620800	-10.852000	25.168826	0.001126	20.831181
774.216725	-3.023400	3.619800	-10.943000	25.188388	0.001125	20.818577
775.211795	-3.019200	3.619500	-10.927000	25.204943	0.001123	20.857955
776.211991	-3.003000	3.619500	-10.869000	25.247300	0.001124	20.845953
777.213501	-3.005200	3.619400	-10.875000	25.257567	0.001124	20.833028
778.213548	-2.982700	3.618800	-10.792000	25.236590	0.001123	20.836149
779.213634	-3.014300	3.618100	-10.905000	25.271312	0.001122	20.826913
780.217047	-2.983700	3.618600	-10.795000	25.268178	0.001122	20.821397
781.215192	-3.001600	3.618500	-10.860000	25.283689	0.001123	20.843607
782.216120	-3.008600	3.616700	-10.880000	25.288387	0.001123	20.839315
783.218279	-3.002700	3.618500	-10.864000	25.288387	0.001118	20.855910
784.217103	-3.005800	3.616500	-10.869000	25.288662	0.001120	20.850971
785.218379	-3.018300	3.615300	-10.911000	25.318315	0.001120	20.855613
786.217394	-2.998200	3.617600	-10.844000	25.339915	0.001121	20.848378
787.218224	-3.009000	3.615200	-10.876000	25.336909	0.001121	20.829239
788.222930	-2.996600	3.615500	-10.832000	25.342822	0.001119	20.856986
789.220234	-3.013600	3.613800	-10.890000	25.328040	0.001118	20.852101
790.219752	-2.992600	3.615400	-10.817000	25.291579	0.001120	20.870019
791.220211	-2.982300	3.614800	-10.779000	25.302440	0.001122	20.853425
792.221868	-2.998100	3.613200	-10.831000	25.333751	0.001120	20.854517
793.223740	-2.989800	3.613600	-10.802000	25.300379	0.001121	20.860364
794.222926	-3.016800	3.613200	-10.899000	25.287357	0.001121	20.860092
795.221679	-3.000100	3.613500	-10.840000	25.277066	0.001118	20.852130
796.223310	-3.016000	3.612800	-10.894000	25.266180	0.001120	20.865381
797.223592	-3.011900	3.611200	-10.875000	25.308333	0.001118	20.849384
798.221987	-2.986800	3.613700	-10.792000	25.331941	0.001118	20.856966
799.224372	-3.009100	3.611800	-10.867000	25.321355	0.001118	20.845389
800.223052	-2.995400	3.611300	-10.816000	25.309622	0.001118	20.864428
801.225348	-3.016900	3.610100	-10.889000	25.276663	0.001117	20.848881
802.223641	-3.002400	3.611800	-10.842000	25.246360	0.001117	20.854492
803.225075	-3.000300	3.611400	-10.834000	25.261990	0.001117	20.843158
804.227485	-2.995900	3.611300	-10.818000	25.280305	0.001119	20.861545
805.225433	-3.008300	3.611400	-10.863000	25.308832	0.001117	20.858420
806.227783	-3.011700	3.610600	-10.871000	25.353871	0.001118	20.868080
807.226440	-2.988400	3.610400	-10.788000	25.345112	0.001114	20.877301
808.226771	-2.992400	3.611000	-10.805000	25.338303	0.001115	20.856716
809.227839	-3.016600	3.609900	-10.888000	25.329076	0.001115	20.858831
810.230237	-2.999700	3.608500	-10.823000	25.299940	0.001114	20.862768
811.226654	-2.993200	3.607600	-10.797000	25.310674	0.001114	20.863588
812.227840	-2.992700	3.608800	-10.799000	25.346034	0.001116	20.869693
813.227947	-3.004900	3.608600	-10.841000	25.349885	0.001111	20.875931
814.227540	-2.979400	3.609200	-10.751000	25.333677	0.001114	20.878623
815.232619	-3.029800	3.605300	-10.921000	25.310032	0.001110	20.892338
816.227366	-3.005600	3.607400	-10.842000	25.324224	0.001111	20.880984
817.230140	-3.002000	3.606700	-10.825000	25.325164	0.001110	20.872446
818.226795	-2.995900	3.606500	-10.804000	25.327442	0.001111	20.873785
819.226820	-2.991800	3.606300	-10.789000	25.357365	0.001111	20.862579
820.227541	-2.993500	3.606000	-10.793000	25.409033	0.001108	20.872733
821.230215	-3.000700	3.604200	-10.813000	25.414301	0.001109	20.885135
822.228680	-2.971100	3.605300	-10.711000	25.443523	0.001107	20.871805
823.227941	-2.992500	3.605000	-10.787000	25.420833	0.001108	20.886953
824.229476	-2.969700	3.605100	-10.704000	25.401518	0.001105	20.875145
825.230219	-3.002600	3.603300	-10.818000	25.427164	0.001106	20.878138
826.235405	-3.010300	3.603500	-10.846000	25.432777	0.001107	20.881877
827.232650	-3.011300	3.603000	-10.848000	25.443658	0.001104	20.877156
828.235992	-2.981800	3.603800	-10.744000	25.429192	0.001106	20.895345
829.232452	-2.988800	3.603400	-10.769000	25.449398	0.001106	20.875333
830.232818	-2.991600	3.602000	-10.775000	25.446791	0.001104	20.893103
831.235133	-3.019700	3.601100	-10.872000	25.437116	0.001104	20.892397
832.234141	-3.005000	3.601500	-10.821000	25.434209	0.001104	20.869565
833.235589	-3.000600	3.602000	-10.807000	25.455881	0.001103	20.883265
834.235512	-3.018400	3.600000	-10.865000	25.451405	0.001103	20.881142
835.236437	-3.009000	3.601100	-10.835000	25.426379	0.001103	20.883513
836.238055	-3.004500	3.600900	-10.818000	25.411273	0.001101	20.870716
837.237523	-2.975000	3.602100	-10.714000	25.413231	0.001098	20.879320
838.237834	-3.001200	3.600700	-10.805000	25.387133	0.001100	20.875399
839.234882	-3.009000	3.600200	-10.832000	25.393345	0.001102	20.875947
840.235811	-2.998500	3.599000	-10.790000	25.416011	0.001101	20.846077
841.237382	-3.006200	3.599500	-10.820000	25.425052	0.001100	20.879336
842.240131	-2.979200	3.599500	-10.722000	25.456541	0.001099	20.878239
843.240139	-3.010600	3.598100	-10.831000	25.462281	0.001098	20.874520
844.241497	-3.018100	3.598000	-10.856000	25.438524	0.001100	20.859200
845.239356	-2.999000	3.597000	-10.785000	25.404428	0.001096	20.883281
846.239576	-2.986600	3.598400	-10.744000	25.432706	0.001098	20.866159
847.244136	-3.017200	3.597200	-10.852000	25.469663	0.001098	20.866287
848.242426	-2.995700	3.597600	-10.776000	25.451445	0.001096	20.862218
849.242138	-2.967500	3.596800	-10.671000	25.447570	0.001098	20.875868
850.241979	-3.017500	3.596100	-10.850000	25.447520	0.001095	20.877241
851.240480	-2.984900	3.597800	-10.736000	25.435067	0.001096	20.878486
852.242256	-2.986400	3.597600	-10.742000	25.462109	0.001095	20.866761
853.246469	-2.998500	3.596000	-10.782000	25.474660	0.001094	20.878416
854.243474	-2.992400	3.595800	-10.759000	25.496725	0.001094	20.856005
855.245768	-2.989200	3.595500	-10.747000	25.462876	0.001095	20.850937
856.243814	-3.033900	3.593800	-10.901000	25.516777	0.001094	20.864761
857.245656	-3.014300	3.593600	-10.831000	25.523514	0.001094	20.868208
858.248091	-3.005400	3.593400	-10.798000	25.521178	0.001093	20.856854
859.246045	-2.997600	3.593100	-10.769000	25.529928	0.001092	20.874174
860.247858	-2.981600	3.593300	-10.713000	25.515960	0.001092	20.849717
861.250774	-2.994700	3.591700	-10.755000	25.524685	0.001093	20.864168
862.245701	-2.990700	3.592900	-10.744000	25.511288	0.001091	20.839336
863.246228	-2.964800	3.594300	-10.655000	25.525703	0.001091	20.867561
864.249421	-2.993500	3.593000	-10.755000	25.539892	0.001089	20.861422
865.246959	-2.998900	3.591600	-10.770000	25.534374	0.001091	20.853984
866.246818	-3.000400	3.591400	-10.774000	25.526303	0.001088	20.840664
867.246846	-3.008900	3.589000	-10.798000	25.520780	0.001087	20.862144
868.245944	-2.980800	3.590500	-10.701000	25.486120	0.001088	20.853416
869.250794	-2.977800	3.591100	-10.691000	25.452945	0.001087	20.838594
870.246498	-2.969200	3.590900	-10.659000	25.469672	0.001089	20.845434
871.247322	-3.008100	3.588200	-10.792000	25.413581	0.001086	20.839369
872.245951	-3.002200	3.588600	-10.772000	25.410049	0.001087	20.862375
873.246239	-3.005200	3.588300	-10.782000	25.380506	0.001087	20.851202
874.248467	-2.986600	3.587700	-10.714000	25.404116	0.001085	20.839349
875.246749	-3.022900	3.586800	-10.841000	25.439929	0.001086	20.839749
876.246743	-3.006900	3.587300	-10.786000	25.467316	0.001085	20.853025
877.247211	-2.980300	3.588200	-10.692000	25.511482	0.001084	20.824359
878.247386	-3.008900	3.586500	-10.791000	25.526866	0.001083	20.845497
879.247219	-3.007400	3.586500	-10.784000	25.532011	0.001083	20.852560
880.248317	-2.985400	3.587200	-10.707000	25.522252	0.001082	20.842760
881.247486	-2.997400	3.587500	-10.751000	25.527667	0.001080	20.834448
882.247310	-3.012000	3.585900	-10.799000	25.512017	0.001079	20.834852
883.247894	-3.010900	3.585500	-10.795000	25.510605	0.001080	20.846236
884.247071	-3.008100	3.584800	-10.782000	25.525788	0.001081	20.837302
885.256362	-3.007900	3.585300	-10.783000	25.517269	0.001080	20.834437
886.248942	-2.988400	3.586500	-10.717000	25.556358	0.001081	20.845717
887.251782	-3.005800	3.584400	-10.773000	25.530218	0.001081	20.836535
888.248034	-3.003500	3.584100	-10.763000	25.547544	0.001076	20.847297
889.249283	-2.991800	3.583300	-10.719000	25.572070	0.001078	20.824039
890.249002	-3.018700	3.582300	-10.812000	25.548940	0.001078	20.828311
891.252403	-3.002800	3.583800	-10.760000	25.561167	0.001078	20.828262
892.249412	-3.003300	3.582400	-10.758000	25.574514	0.001076	20.823174
893.250544	-2.983900	3.581800	-10.687000	25.578537	0.001078	20.823421
894.251015	-3.007200	3.580500	-10.766000	25.586794	0.001077	20.807058
895.254100	-3.003400	3.581800	-10.755000	25.607990	0.001075	20.841146
896.254817	-3.013800	3.580800	-10.791000	25.613704	0.001075	20.836929
897.251512	-2.984100	3.581600	-10.686000	25.620913	0.001074	20.814772
898.251561	-2.999600	3.580800	-10.739000	25.653468	0.001076	20.809062
899.251038	-3.030200	3.579500	-10.845000	25.667110	0.001074	20.824659
900.250216	-3.025900	3.579100	-10.828000	25.670311	0.001075	20.820763
901.252646	-3.018900	3.579800	-10.805000	25.630434	0.001072	20.821489
902.252448	-2.994300	3.579300	-10.716000	25.629445	0.001073	20.815280
903.254186	-2.998900	3.579900	-10.734000	25.649967	0.001071	20.842054
904.253004	-2.978300	3.578900	-10.658000	25.651781	0.001073	20.812109
905.252678	-2.996400	3.578100	-10.721000	25.644252	0.001071	20.825410
906.258652	-3.001600	3.579400	-10.743000	25.653694	0.001073	20.803599
907.254490	-2.990700	3.578400	-10.701000	25.661474	0.001071	20.834171
908.257001	-3.003700	3.577400	-10.745000	25.678842	0.001072	20.825538
909.257982	-2.979800	3.577200	-10.658000	25.645989	0.001072	20.824783
910.255203	-2.993400	3.577100	-10.707000	25.622536	0.001069	20.823988
911.256001	-3.005600	3.576300	-10.748000	25.635430	0.001070	20.811808
912.258109	-3.005300	3.577200	-10.749000	25.663402	0.001070	20.823307
913.259981	-2.998500	3.576400	-10.723000	25.685098	0.001066	20.814752
914.256546	-3.004800	3.574800	-10.741000	25.680200	0.001069	20.812204
915.256375	-2.994100	3.575400	-10.703000	25.658755	0.001068	20.818165
916.256289	-2.997200	3.575000	-10.714000	25.663053	0.001065	20.818215
917.260176	-2.998300	3.575400	-10.719000	25.680766	0.001067	20.798548
918.257966	-2.979800	3.575400	-10.653000	25.709568	0.001065	20.810880
919.259994	-2.987100	3.573600	-10.673000	25.715897	0.001064	20.835255
920.255866	-3.003800	3.573500	-10.733000	25.714608	0.001065	20.813572
921.256823	-3.014200	3.572400	-10.766000	25.722456	0.001064	20.808179
922.257671	-2.994400	3.572100	-10.695000	25.717637	0.001063	20.807132
923.256595	-3.013300	3.570800	-10.759000	25.714682	0.001064	20.813172
924.256720	-3.000600	3.572500	-10.717000	25.715080	0.001059	20.798873
925.256804	-3.015800	3.571900	-10.769000	25.718852	0.001061	20.812145
926.256713	-3.012400	3.571600	-10.758000	25.712548	0.001063	20.825253
927.256311	-3.027900	3.569300	-10.806000	25.707655	0.001060	20.794260
928.259590	-3.020200	3.570000	-10.778000	25.717116	0.001060	20.785745
929.262172	-2.986600	3.570600	-10.663000	25.671575	0.001059	20.811127
930.258483	-3.023300	3.569000	-10.788000	25.669535	0.001059	20.817612
931.258239	-2.993200	3.570200	-10.686000	25.708299	0.001058	20.812451
932.259344	-2.979000	3.569400	-10.632000	25.696271	0.001058	20.812698
933.262528	-3.004200	3.568800	-10.720000	25.671826	0.001058	20.813750
934.258942	-2.991100	3.568000	-10.671000	25.655529	0.001058	20.799752
935.261671	-2.984500	3.569500	-10.653000	25.630282	0.001056	20.799525
936.260185	-2.983600	3.568800	-10.647000	25.625162	0.001057	20.802918
937.262085	-3.013000	3.567400	-10.747000	25.650410	0.001059	20.783231
938.265613	-2.998800	3.569000	-10.701000	25.691186	0.001057	20.809961
939.266281	-3.013900	3.566400	-10.748000	25.715183	0.001055	20.791864
940.262878	-3.004000	3.566000	-10.710000	25.722116	0.001054	20.798828
941.263138	-3.010300	3.565100	-10.730000	25.718045	0.001054	20.809437
942.262776	-2.999000	3.566300	-10.694000	25.690197	0.001057	20.785260
943.264634	-3.003600	3.566200	-10.710000	25.685668	0.001054	20.812480
944.264716	-2.990500	3.566200	-10.663000	25.652873	0.001054	20.794714
945.264796	-2.998600	3.564500	-10.687000	25.636822	0.001053	20.781912
946.268158	-2.992300	3.564900	-10.666000	25.633615	0.001053	20.821365
947.267810	-2.980300	3.565000	-10.624000	25.659704	0.001052	20.794936
948.266053	-2.988300	3.564700	-10.652000	25.677245	0.001051	20.789321
949.267016	-2.981000	3.564300	-10.623000	25.690438	0.001051	20.805891
950.269896	-3.019800	3.562800	-10.758000	25.723425	0.001052	20.798246
951.266607	-2.996000	3.562800	-10.672000	25.757594	0.001052	20.811231
952.266306	-3.028100	3.562000	-10.783000	25.769957	0.001052	20.797570
953.266979	-2.993900	3.563300	-10.667000	25.806053	0.001050	20.788784
954.266133	-2.991300	3.562000	-10.653000	25.773807	0.001050	20.772988
955.266551	-2.987800	3.561700	-10.641000	25.766919	0.001049	20.785984
956.266475	-3.010600	3.562100	-10.722000	25.768655	0.001050	20.797211
957.267685	-3.012800	3.559600	-10.723000	25.786539	0.001048	20.822761
958.266997	-2.990900	3.561000	-10.649000	25.783275	0.001048	20.818534
959.267503	-2.999100	3.559800	-10.676000	25.749460	0.001050	20.792154
960.267498	-2.997300	3.560300	-10.670000	25.753380	0.001049	20.780919
961.266644	-3.000200	3.559000	-10.676000	25.774769	0.001048	20.787231
962.267658	-2.999900	3.558900	-10.675000	25.782318	0.001048	20.800503
963.267287	-2.998000	3.559500	-10.669000	25.800246	0.001047	20.811399
964.266966	-3.010800	3.559500	-10.715000	25.818651	0.001046	20.803809
965.270216	-2.979400	3.560400	-10.607000	25.823219	0.001047	20.779474
966.270829	-2.997100	3.557800	-10.662000	25.818461	0.001046	20.783229
967.268557	-3.018200	3.558100	-10.737000	25.775830	0.001044	20.806314
968.270046	-2.993300	3.558200	-10.650000	25.711278	0.001044	20.791735
969.269933	-3.005600	3.557700	-10.692000	25.698999	0.001042	20.769445
970.268564	-3.003600	3.557200	-10.684000	25.680834	0.001042	20.788659
971.271912	-3.004300	3.556400	-10.683000	25.680904	0.001039	20.788254
972.272922	-2.999000	3.556600	-10.666000	25.687229	0.001040	20.796978
973.269356	-2.982300	3.556200	-10.605000	25.723357	0.001038	20.782057
974.272344	-3.006900	3.555400	-10.691000	25.728246	0.001039	20.785070
975.269133	-2.973600	3.555500	-10.571000	25.745034	0.001038	20.765423
976.269310	-2.982900	3.554800	-10.602000	25.752439	0.001037	20.773336
977.271122	-2.998800	3.555900	-10.663000	25.739660	0.001037	20.790846
978.271632	-3.003100	3.554500	-10.673000	25.751088	0.001036	20.785729
979.269595	-3.011800	3.553600	-10.702000	25.718688	0.001034	20.786376
980.270827	-3.016100	3.553500	-10.716000	25.708254	0.001034	20.791543
981.274169	-2.993000	3.552800	-10.632000	25.692577	0.001035	20.790021
982.271148	-2.992200	3.552800	-10.630000	25.676965	0.001033	20.782401
983.270937	-2.995200	3.552900	-10.641000	25.655869	0.001033	20.774963
984.273224	-2.999100	3.552000	-10.650000	25.647273	0.001030	20.797150
985.271793	-2.992700	3.553100	-10.632000	25.662798	0.001031	20.797570
986.272144	-2.988200	3.551900	-10.612000	25.666250	0.001029	20.784442
987.275449	-2.984200	3.551800	-10.599000	25.683615	0.001031	20.781020
988.274463	-2.992100	3.552200	-10.626000	25.738650	0.001029	20.790779
989.274789	-2.973200	3.552100	-10.559000	25.741355	0.001028	20.772159
990.273488	-2.984700	3.551200	-10.598000	25.724607	0.001028	20.792795
991.275232	-3.008400	3.548800	-10.675000	25.670790	0.001028	20.775725
992.275366	-3.011200	3.549600	-10.687000	25.679312	0.001031	20.782862
993.275837	-3.019700	3.548000	-10.713000	25.674164	0.001029	20.757303
994.276862	-3.015500	3.548300	-10.699000	25.721745	0.001028	20.776170
995.275555	-2.965700	3.550100	-10.527000	25.731211	0.001027	20.779040
996.277133	-2.983900	3.549100	-10.587000	25.723457	0.001026	20.773148
997.276401	-3.013200	3.547800	-10.689000	25.680371	0.001024	20.763537
998.276491	-3.013000	3.546400	-10.683000	25.691951	0.001022	20.748615
999.278560	-2.994300	3.547100	-10.619000	25.690059	0.001023	20.766155
1000.277819	-2.975500	3.548100	-10.556000	25.689882	0.001021	20.786366
1001.277291	-2.991900	3.546900	-10.611000	25.707275	0.001024	20.756420
1002.278736	-2.992100	3.545900	-10.609000	25.726010	0.001023	20.761487
1003.279183	-3.009800	3.545300	-10.670000	25.757510	0.001022	20.778903
1004.277482	-3.005900	3.545600	-10.657000	25.804837	0.001021	20.767173
1005.282467	-3.012200	3.543600	-10.671000	25.846621	0.001020	20.760782
1006.282178	-3.013600	3.544700	-10.682000	25.848932	0.001022	20.751723
1007.278010	-3.008600	3.543700	-10.661000	25.824210	0.001019	20.775728
1008.282121	-3.000800	3.544100	-10.634000	25.775940	0.001020	20.778450
1009.283080	-3.023100	3.542200	-10.707000	25.736510	0.001018	20.770612
1010.279504	-2.998300	3.543500	-10.623000	25.713502	0.001018	20.776425
1011.285252	-2.991700	3.542800	-10.598000	25.750692	0.001019	20.767313
1012.282706	-3.002300	3.542900	-10.635000	25.740906	0.001017	20.751319
1013.279758	-3.010400	3.541600	-10.661000	25.724876	0.001016	20.743753
1014.282680	-2.993600	3.543000	-10.604000	25.715258	0.001018	20.773922
1015.282954	-3.007400	3.540500	-10.646000	25.703506	0.001016	20.762117
1016.281814	-3.016200	3.539000	-10.673000	25.663502	0.001015	20.778837
1017.282885	-3.005600	3.538700	-10.635000	25.656170	0.001014	20.760567
1018.284907	-3.024100	3.540100	-10.705000	25.618324	0.001015	20.756221
1019.287496	-2.998000	3.541200	-10.615000	25.615885	0.001013	20.767048
1020.284293	-2.994500	3.540800	-10.601000	25.662623	0.001013	20.757091
1021.282434	-3.020900	3.539800	-10.691000	25.706325	0.001012	20.749302
1022.285216	-3.000900	3.538900	-10.619000	25.755321	0.001010	20.760583
1023.284192	-3.002900	3.538900	-10.626000	25.793060	0.001011	20.764352
1024.283193	-3.005100	3.537400	-10.630000	25.805033	0.001011	20.746506
1025.282890	-2.990800	3.537800	-10.579000	25.828482	0.001009	20.744931
1026.283866	-3.032200	3.536600	-10.722000	25.834766	0.001007	20.750295
1027.286132	-2.999700	3.536700	-10.608000	25.851734	0.001006	20.744581
1028.284400	-2.988800	3.537500	-10.572000	25.868504	0.001006	20.752893
1029.283593	-2.986600	3.536800	-10.562000	25.883686	0.001006	20.758187
1030.285274	-3.017900	3.534900	-10.666000	25.896302	0.001004	20.758534
1031.283592	-3.010600	3.536100	-10.645000	25.874644	0.001004	20.752423
1032.284513	-3.000800	3.536000	-10.610000	25.855087	0.001003	20.753639
1033.283974	-3.003200	3.534500	-10.614000	25.811243	0.001003	20.748477
1034.285521	-2.986400	3.535500	-10.557000	25.811916	0.001003	20.751999
1035.290616	-3.009400	3.533300	-10.631000	25.849624	0.001005	20.760480
1036.285029	-3.005400	3.534000	-10.620000	25.859635	0.001003	20.737818
1037.286444	-3.003100	3.532800	-10.607000	25.890712	0.001002	20.736322
1038.284125	-2.988600	3.533300	-10.559000	25.906538	0.001000	20.743686
1039.283677	-2.989600	3.532400	-10.559000	25.930035	0.001000	20.752592
1040.284687	-3.015300	3.531500	-10.647000	25.910216	0.000998	20.738371
1041.289561	-3.008900	3.530700	-10.622000	25.878445	0.000999	20.744861
1042.285405	-2.983000	3.532300	-10.535000	25.866645	0.000997	20.757664
1043.285294	-2.999900	3.530100	-10.589000	25.845204	0.000997	20.753194
1044.289277	-2.990600	3.531500	-10.560000	25.876635	0.000996	20.751104
1045.285267	-3.003800	3.530200	-10.603000	25.869079	0.000998	20.736400
1046.286215	-3.016000	3.529100	-10.643000	25.880382	0.000996	20.749652
1047.290501	-2.997000	3.529200	-10.575000	25.866095	0.000995	20.726764
1048.286695	-2.987300	3.529000	-10.541000	25.897870	0.000994	20.757264
1049.286281	-3.004800	3.528900	-10.603000	25.925541	0.000994	20.734326
1050.289052	-2.966800	3.530400	-10.473000	25.934989	0.000994	20.727222
1051.289834	-2.991200	3.527700	-10.551000	25.903440	0.000992	20.735357
1052.286226	-3.001300	3.527400	-10.586000	25.917025	0.000993	20.738573
1053.287136	-3.018400	3.526700	-10.644000	25.949968	0.000993	20.739901
1054.287091	-3.006600	3.527000	-10.603000	25.953843	0.000992	20.744268
1055.288054	-3.012400	3.526000	-10.620000	25.941567	0.000991	20.746634
1056.288869	-2.972200	3.528000	-10.484000	25.920633	0.000991	20.742198
1057.289977	-2.990200	3.526100	-10.541000	25.908238	0.000990	20.732591
1058.289794	-2.986000	3.526800	-10.531000	25.924531	0.000989	20.729993
1059.289876	-2.980200	3.526700	-10.509000	25.932333	0.000987	20.753479
1060.290147	-2.995700	3.525000	-10.558000	25.926994	0.000988	20.746218
1061.290294	-2.975500	3.525100	-10.488000	25.944654	0.000986	20.736458
1062.289956	-2.973800	3.526600	-10.486000	25.949250	0.000986	20.742025
1063.289902	-3.007300	3.523900	-10.596000	25.945528	0.000986	20.749665
1064.289956	-2.991600	3.523100	-10.538000	25.916763	0.000984	20.721239
1065.291669	-2.999800	3.524800	-10.573000	25.931890	0.000985	20.712255
1066.294355	-2.983600	3.525000	-10.516000	25.930081	0.000985	20.734145
1067.294392	-2.986100	3.522700	-10.518000	25.918380	0.000983	20.726183
1068.293745	-2.989200	3.523700	-10.531000	25.918605	0.000982	20.735894
1069.298879	-3.000900	3.522100	-10.569000	25.936914	0.000981	20.725363
1070.293962	-2.985600	3.522400	-10.515000	25.948335	0.000981	20.739209
1071.293683	-2.996800	3.522300	-10.553000	25.965531	0.000981	20.726612
1072.295182	-2.997700	3.520000	-10.551000	25.978073	0.000981	20.730204
1073.294846	-3.001100	3.521100	-10.566000	26.004728	0.000978	20.733276
1074.294772	-3.006000	3.519300	-10.576000	26.018939	0.000979	20.724794
1075.296209	-3.006700	3.518200	-10.577000	26.025173	0.000978	20.718254
1076.296471	-2.988000	3.520000	-10.517000	26.025349	0.000976	20.740244
1077.297481	-3.001100	3.517900	-10.556000	26.000715	0.000976	20.722131
1078.296568	-3.022300	3.517000	-10.628000	25.992761	0.000975	20.728839
1079.298614	-2.996800	3.518400	-10.543000	26.034533	0.000977	20.720547
1080.299431	-3.009800	3.517600	-10.585000	26.031632	0.000975	20.733754
1081.298325	-2.990500	3.518000	-10.520000	26.033323	0.000974	20.748730
1082.301707	-3.019500	3.515900	-10.615000	26.023088	0.000975	20.742714
1083.300331	-3.013400	3.515400	-10.593000	26.020060	0.000973	20.718807
1084.300359	-3.008200	3.516200	-10.577000	25.998572	0.000972	20.733255
1085.302733	-3.001900	3.516200	-10.555000	26.021402	0.000973	20.713043
1086.302599	-3.003200	3.514400	-10.553000	26.020581	0.000972	20.721702
1087.301133	-3.018700	3.514600	-10.608000	26.002746	0.000974	20.727017
1088.301983	-3.022000	3.514100	-10.619000	26.020802	0.000971	20.725244
1089.300184	-3.012800	3.514000	-10.586000	25.988563	0.000968	20.721776
1090.302832	-3.014900	3.511800	-10.587000	25.946608	0.000970	20.734154
1091.302432	-3.004900	3.513800	-10.556000	25.935030	0.000970	20.740541
1092.303027	-3.032300	3.511400	-10.646000	25.921122	0.000970	20.746009
1093.302557	-2.997800	3.511800	-10.527000	25.922907	0.000968	20.749224
1094.302176	-3.007800	3.511600	-10.561000	25.933541	0.000968	20.725293
1095.304894	-3.034300	3.510000	-10.648000	25.946333	0.000969	20.719178
1096.301514	-2.990400	3.511300	-10.498000	25.957036	0.000966	20.740364
1097.303003	-2.985000	3.511500	-10.481000	25.935749	0.000968	20.735572
1098.306701	-3.018200	3.510600	-10.594000	25.904893	0.000967	20.723066
1099.304797	-3.013700	3.508900	-10.574000	25.942701	0.000966	20.721219
1100.303524	-2.995300	3.509000	-10.510000	25.980276	0.000966	20.730521
1101.307477	-3.010400	3.508700	-10.561000	26.003352	0.000964	20.721462
1102.302536	-3.005900	3.508400	-10.545000	26.028090	0.000963	20.731143
1103.304327	-3.009300	3.508400	-10.556000	26.019595	0.000965	20.723556
1104.303213	-2.990500	3.508400	-10.492000	26.007296	0.000963	20.751030
1105.302527	-2.992700	3.508400	-10.498000	25.994652	0.000962	20.733110
1106.305493	-2.999200	3.507700	-10.520000	25.968494	0.000962	20.727692
1107.303682	-3.011100	3.507400	-10.560000	25.974009	0.000961	20.728492
1108.305490	-2.994800	3.507400	-10.503000	25.979825	0.000962	20.740973
1109.305011	-2.997100	3.506400	-10.508000	26.001707	0.000959	20.751578
1110.305476	-3.007900	3.506700	-10.546000	26.021877	0.000960	20.728694
1111.305700	-2.995200	3.506800	-10.502000	26.026095	0.000960	20.735303
1112.309207	-3.000300	3.506300	-10.519000	26.036281	0.000959	20.726570
1113.305675	-2.997600	3.505000	-10.506000	26.032358	0.000958	20.738276
1114.308198	-3.014800	3.502200	-10.557000	26.057591	0.000956	20.736602
1115.307580	-2.996000	3.504400	-10.498000	26.059154	0.000956	20.735802
1116.307574	-3.001200	3.505100	-10.518000	26.095762	0.000954	20.750300
1117.307098	-3.002300	3.504000	-10.519000	26.101901	0.000954	20.733708
1118.306937	-2.989800	3.503100	-10.473000	26.073734	0.000954	20.745236
1119.307428	-3.010300	3.501700	-10.541000	26.064990	0.000953	20.723173
1120.308505	-3.006900	3.501600	-10.528000	26.016681	0.000953	20.739122
1121.310988	-2.994800	3.501700	-10.486000	25.990429	0.000955	20.742144
1122.306808	-2.988600	3.501700	-10.464000	25.982234	0.000952	20.734384
1123.306984	-2.978400	3.501700	-10.429000	25.945913	0.000951	20.743414
1124.310952	-3.000300	3.500900	-10.502000	25.945938	0.000949	20.742965
1125.308764	-2.995600	3.499700	-10.483000	25.950933	0.000952	20.744189
1126.308860	-3.007700	3.498200	-10.521000	25.969688	0.000950	20.747859
1127.311431	-2.987900	3.499400	-10.454000	25.929591	0.000949	20.745983
1128.310111	-2.992500	3.500800	-10.474000	25.917870	0.000947	20.748432
1129.309095	-2.979400	3.499100	-10.424000	25.937020	0.000949	20.757239
1130.311250	-2.991100	3.498600	-10.464000	25.950707	0.000947	20.737798
1131.311804	-3.010600	3.497200	-10.528000	25.967057	0.000945	20.749484
1132.308749	-2.973600	3.499500	-10.405000	26.045990	0.000948	20.745335
1133.309235	-2.969900	3.498900	-10.390000	26.079426	0.000946	20.756646
1134.310886	-3.007600	3.496800	-10.516000	26.045444	0.000945	20.766599
1135.312195	-3.009500	3.495600	-10.518000	26.034570	0.000946	20.743344
1136.311958	-3.023100	3.495300	-10.566000	26.002203	0.000945	20.765828
1137.315514	-2.999900	3.495200	-10.484000	25.972446	0.000944	20.744466
1138.312224	-3.005100	3.493800	-10.498000	25.994874	0.000944	20.738549
1139.312787	-3.035700	3.491800	-10.599000	26.033519	0.000942	20.756039
1140.312974	-2.999100	3.494400	-10.479000	26.049864	0.000943	20.771514
1141.312372	-3.012200	3.494300	-10.525000	26.053266	0.000942	20.755965
1142.311783	-3.003700	3.494300	-10.494000	26.050754	0.000941	20.757235
1143.312423	-2.995700	3.492100	-10.458000	26.052441	0.000941	20.775051
1144.312647	-2.992100	3.492700	-10.449000	26.064460	0.000941	20.734495
1145.312346	-2.986400	3.493100	-10.432000	26.078072	0.000940	20.751017
1146.312239	-3.021000	3.491500	-10.546000	26.094879	0.000941	20.772647
1147.314656	-3.021900	3.492200	-10.552000	26.100989	0.000937	20.738008
1148.315730	-3.021500	3.489600	-10.543000	26.113160	0.000940	20.764937
1149.315647	-3.001400	3.489500	-10.471000	26.117895	0.000938	20.757366
1150.315997	-3.002100	3.488900	-10.472000	26.136943	0.000939	20.758013
1151.315955	-3.000000	3.490200	-10.469000	26.165079	0.000936	20.775380
1152.315459	-3.005300	3.488900	-10.484000	26.168476	0.000936	20.774526
1153.315462	-3.004800	3.487400	-10.478000	26.166909	0.000937	20.754933
1154.316974	-3.024700	3.487200	-10.546000	26.160844	0.000937	20.764486
1155.315831	-2.988800	3.487700	-10.422000	26.154582	0.000935	20.775264
1156.315589	-3.017700	3.486300	-10.520000	26.156515	0.000931	20.762507
1157.317561	-3.001900	3.486500	-10.464000	26.203028	0.000932	20.754718
1158.318207	-2.987300	3.486500	-10.413000	26.196521	0.000933	20.769516
1159.318201	-2.979300	3.485400	-10.383000	26.198851	0.000930	20.773281
1160.325181	-2.985200	3.486100	-10.404000	26.177843	0.000931	20.779197
1161.320538	-3.019400	3.485100	-10.521000	26.166018	0.000931	20.771108
1162.321678	-2.999800	3.485500	-10.454000	26.110159	0.000929	20.775198
1163.324352	-2.991000	3.484200	-10.420000	26.150667	0.000929	20.765640
1164.321651	-2.996600	3.484200	-10.439000	26.152177	0.000928	20.771425
1165.321511	-2.984400	3.484000	-10.397000	26.185060	0.000926	20.773647
1166.322642	-2.999800	3.483600	-10.449000	26.201596	0.000926	20.763236
1167.325368	-2.982400	3.482900	-10.385000	26.210364	0.000924	20.767780
1168.321015	-3.004800	3.482900	-10.464000	26.190246	0.000925	20.757522
1169.323499	-2.999000	3.481000	-10.439000	26.181827	0.000924	20.784623
1170.324784	-2.988400	3.482300	-10.406000	26.167519	0.000924	20.788264
1171.324462	-2.968000	3.483100	-10.336000	26.159748	0.000920	20.767652
1172.323048	-3.000500	3.479400	-10.438000	26.139777	0.000923	20.788363
1173.323343	-2.987700	3.479600	-10.394000	26.141094	0.000920	20.791109
1174.323027	-3.001500	3.479900	-10.444000	26.103290	0.000922	20.783943
1175.324174	-2.992200	3.479100	-10.410000	26.069391	0.000917	20.777857
1176.323822	-3.016900	3.478400	-10.493000	26.052943	0.000920	20.776030
1177.325376	-2.990300	3.479500	-10.403000	26.048897	0.000919	20.794250
1178.325222	-2.970400	3.479800	-10.334000	26.072866	0.000919	20.775185
1179.323810	-2.987400	3.478600	-10.391000	26.069912	0.000916	20.794028
1180.324612	-2.972300	3.477900	-10.336000	26.059476	0.000915	20.779275
1181.326247	-2.997500	3.477300	-10.422000	26.064117	0.000916	20.785361
1182.325185	-2.997600	3.477000	-10.420000	26.129691	0.000917	20.807151
1183.327036	-2.991000	3.477500	-10.400000	26.144143	0.000913	20.775206
1184.328502	-3.012400	3.475300	-10.467000	26.152862	0.000913	20.800563
1185.323782	-2.994500	3.476300	-10.408000	26.130483	0.000913	20.779024
1186.328223	-2.973900	3.476800	-10.338000	26.126860	0.000912	20.790082
1187.330830	-2.976600	3.475500	-10.344000	26.161557	0.000912	20.797446
1188.325749	-3.008000	3.472900	-10.444000	26.143080	0.000913	20.800691
1189.328583	-3.007000	3.473700	-10.445000	26.103762	0.000912	20.773037
1190.332588	-3.000800	3.472600	-10.420000	26.073437	0.000910	20.798518
1191.326113	-3.006800	3.474500	-10.446000	26.048204	0.000909	20.795924
1192.327733	-2.993400	3.472500	-10.393000	26.030743	0.000910	20.788338
1193.332694	-2.956900	3.474000	-10.272000	26.022671	0.000909	20.794452
1194.327635	-3.010700	3.471500	-10.451000	26.013109	0.000909	20.788639
1195.331076	-3.021700	3.470200	-10.485000	26.008911	0.000908	20.812870
1196.328273	-3.014500	3.470400	-10.461000	26.023865	0.000908	20.805610
1197.328539	-3.016900	3.469400	-10.466000	26.049501	0.000910	20.804814
1198.331120	-2.993200	3.470600	-10.386000	26.096593	0.000908	20.814198
1199.329239	-2.989000	3.472100	-10.376000	26.127369	0.000907	20.801973
1200.328709	-3.013600	3.469200	-10.454000	26.152325	0.000907	20.792436
1201.331264	-3.005800	3.468900	-10.426000	26.205030	0.000905	20.796560
1202.329778	-3.022500	3.468100	-10.480000	26.249280	0.000905	20.804991
1203.329298	-3.016900	3.467300	-10.460000	26.253724	0.000904	20.807086
1204.329098	-3.002600	3.467600	-10.409000	26.266668	0.000902	20.792593
1205.329475	-3.007200	3.466700	-10.424000	26.296368	0.000903	20.787827
1206.329830	-3.016000	3.466500	-10.454000	26.329546	0.000902	20.807420
1207.328994	-3.030100	3.464600	-10.496000	26.277894	0.000900	20.808615
1208.331730	-3.014100	3.464100	-10.440000	26.271465	0.000902	20.803103
1209.331248	-2.981500	3.466800	-10.334000	26.291753	0.000901	20.789827
1210.330719	-3.002800	3.464900	-10.403000	26.286862	0.000901	20.799611
1211.330411	-2.965700	3.467000	-10.279000	26.326666	0.000899	20.826336
1212.335534	-2.990300	3.465500	-10.362000	26.315495	0.000899	20.825066
1213.330283	-3.013800	3.463200	-10.436000	26.338835	0.000898	20.788305
1214.331834	-2.994500	3.463900	-10.372000	26.317731	0.000898	20.812615
1215.334295	-2.986300	3.463200	-10.341000	26.311799	0.000899	20.811395
1216.332441	-2.998000	3.463300	-10.382000	26.302338	0.000895	20.811370
1217.333416	-3.023200	3.461200	-10.462000	26.330650	0.000895	20.808055
1218.337625	-2.988400	3.462200	-10.345000	26.344279	0.000896	20.834553
1219.331721	-2.987500	3.461600	-10.341000	26.339934	0.000893	20.796523
1220.332842	-2.991200	3.461000	-10.351000	26.355951	0.000896	20.807878
1221.333645	-3.018500	3.459700	-10.442000	26.354712	0.000893	20.805210
1222.333514	-3.000100	3.461300	-10.384000	26.369907	0.000894	20.809577
1223.333490	-3.003100	3.459000	-10.387000	26.346888	0.000891	20.810150
1224.333287	-2.999300	3.460400	-10.378000	26.317116	0.000889	20.796350
1225.333687	-2.980800	3.459600	-10.312000	26.279695	0.000890	20.809003
1226.333831	-3.006700	3.459000	-10.399000	26.259998	0.000889	20.831882
1227.333465	-3.019100	3.458400	-10.440000	26.265861	0.000889	20.810747
1228.336445	-3.014500	3.458100	-10.423000	26.295458	0.000887	20.811568
1229.335990	-3.006600	3.457300	-10.394000	26.308968	0.000888	20.824197
1230.335912	-3.010300	3.457700	-10.407000	26.311725	0.000887	20.821752
1231.337574	-3.003200	3.456000	-10.376000	26.308668	0.000887	20.823421
1232.335767	-3.010300	3.455500	-10.401000	26.299577	0.000886	20.822345
1233.336802	-3.007300	3.455500	-10.390000	26.313185	0.000885	20.819900
1234.336670	-3.005200	3.456400	-10.386000	26.303770	0.000884	20.818498
1235.337624	-2.991900	3.454400	-10.333000	26.324381	0.000886	20.819298
1236.337454	-3.010000	3.454100	-10.396000	26.322991	0.000885	20.819797
1237.338632	-3.008300	3.453400	-10.388000	26.366690	0.000885	20.826732
1238.338064	-3.014200	3.452500	-10.404000	26.377693	0.000882	20.817876
1239.338205	-2.989600	3.453900	-10.325000	26.386731	0.000883	20.832174
1240.339771	-3.006000	3.452100	-10.376000	26.406118	0.000881	20.803771
1241.340761	-2.959200	3.452800	-10.216000	26.393676	0.000882	20.850533
1242.338343	-2.971700	3.453500	-10.262000	26.367704	0.000880	20.833914
1243.336994	-3.015800	3.450600	-10.404000	26.351864	0.000878	20.839806
1244.340171	-2.984700	3.450100	-10.296000	26.338654	0.000881	20.829849
1245.344765	-2.995800	3.450300	-10.335000	26.357099	0.000880	20.827998
1246.338965	-2.971000	3.449500	-10.247000	26.383838	0.000881	20.836854
1247.342837	-3.002200	3.449300	-10.355000	26.398713	0.000882	20.834734
1248.343125	-3.012600	3.447500	-10.385000	26.395407	0.000878	20.844687
1249.343455	-2.961000	3.450200	-10.215000	26.400600	0.000879	20.826200
1250.344770	-2.961100	3.449300	-10.212000	26.401117	0.000878	20.834306
1251.341928	-2.996500	3.449000	-10.333000	26.409535	0.000878	20.824748
1252.341695	-2.994400	3.446600	-10.320000	26.374329	0.000877	20.828245
1253.343274	-3.032000	3.444900	-10.444000	26.337924	0.000878	20.844761
1254.344791	-2.988700	3.447200	-10.300000	26.284433	0.000877	20.841739
1255.340698	-3.019000	3.445200	-10.400000	26.250585	0.000877	20.847078
1256.340699	-2.988800	3.444800	-10.295000	26.215464	0.000877	20.850191
1257.345483	-2.995100	3.446300	-10.321000	26.164556	0.000876	20.854986
1258.342781	-3.022300	3.445000	-10.410000	26.171930	0.000873	20.832524
1259.343330	-2.991300	3.444900	-10.303000	26.212981	0.000874	20.846748
1260.343060	-3.011900	3.443300	-10.369000	26.228573	0.000872	20.838234
1261.347042	-2.979700	3.443800	-10.260000	26.223604	0.000874	20.834190
1262.342922	-2.976900	3.443800	-10.250000	26.278164	0.000872	20.864835
1263.342675	-3.003300	3.442400	-10.338000	26.301554	0.000872	20.840927
1264.345747	-3.002800	3.440800	-10.330000	26.350325	0.000871	20.845845
1265.343500	-2.986300	3.442200	-10.279000	26.342202	0.000871	20.847639
1266.345340	-2.985700	3.441200	-10.273000	26.359806	0.000870	20.853951
1267.345078	-2.992000	3.440000	-10.292000	26.371477	0.000871	20.862361
1268.345718	-2.999500	3.440800	-10.320000	26.385676	0.000868	20.853398
1269.346420	-3.008800	3.439400	-10.347000	26.383793	0.000870	20.863833
1270.344819	-3.011500	3.439800	-10.358000	26.405195	0.000869	20.860213
1271.347334	-3.005300	3.439200	-10.335000	26.417038	0.000866	20.849358
1272.346109	-2.999900	3.440400	-10.319000	26.414679	0.000865	20.839401
1273.346562	-2.979700	3.439200	-10.246000	26.382250	0.000868	20.854697
1274.346472	-3.013600	3.437500	-10.358000	26.401544	0.000865	20.857018
1275.347415	-3.014000	3.436700	-10.356000	26.406232	0.000864	20.828067
1276.350159	-3.005900	3.436800	-10.330000	26.408119	0.000866	20.876428
1277.349387	-2.990900	3.436900	-10.279000	26.419019	0.000863	20.851823
1278.348553	-2.997800	3.437600	-10.304000	26.448391	0.000864	20.859059
1279.347848	-2.993800	3.438000	-10.290000	26.436449	0.000864	20.866022
1280.351011	-2.974400	3.437700	-10.224000	26.448362	0.000862	20.874202
1281.355360	-3.026400	3.434600	-10.393000	26.407537	0.000861	20.860197
1282.351555	-3.005000	3.434600	-10.321000	26.386882	0.000860	20.861248
1283.351521	-2.996600	3.434800	-10.292000	26.409149	0.000861	20.872248
1284.352483	-3.016300	3.433700	-10.356000	26.400907	0.000861	20.847845
1285.353635	-3.002400	3.432800	-10.306000	26.450368	0.000861	20.865787
1286.351857	-2.988800	3.433800	-10.262000	26.465012	0.000860	20.868178
1287.354497	-2.988900	3.434600	-10.265000	26.461386	0.000860	20.873542
1288.351404	-2.991100	3.433000	-10.267000	26.414211	0.000859	20.871646
1289.350997	-3.016700	3.430900	-10.349000	26.427190	0.000859	20.849605
1290.351948	-2.990500	3.432100	-10.262000	26.424561	0.000858	20.879203
1291.352696	-3.011400	3.429300	-10.326000	26.416188	0.000858	20.885012
1292.352472	-2.995200	3.430500	-10.274000	26.359625	0.000855	20.886958
1293.352262	-3.023200	3.429700	-10.367000	26.368663	0.000856	20.874231
1294.352161	-3.016800	3.429800	-10.346000	26.344495	0.000855	20.876020
1295.352479	-3.035400	3.429500	-10.409000	26.362874	0.000854	20.864620
1296.353181	-3.011100	3.430700	-10.329000	26.389934	0.000852	20.866212
1297.353661	-2.988000	3.428900	-10.244000	26.415704	0.000854	20.869353
1298.352811	-3.009100	3.428000	-10.315000	26.394725	0.000851	20.871501
1299.353738	-2.994800	3.429000	-10.267000	26.385064	0.000850	20.888343
1300.355655	-2.996900	3.427400	-10.271000	26.392682	0.000852	20.878456
1301.355779	-3.010800	3.426400	-10.314000	26.375374	0.000851	20.895673
1302.355735	-3.001700	3.426600	-10.284000	26.348335	0.000850	20.903584
1303.356504	-3.014800	3.426000	-10.327000	26.321168	0.000847	20.872491
1304.356551	-3.019700	3.426300	-10.344000	26.290545	0.000847	20.891501
1305.357001	-2.996600	3.425300	-10.263000	26.291789	0.000847	20.903180
1306.358068	-2.996000	3.426500	-10.265000	26.297549	0.000844	20.890478
1307.356826	-3.016900	3.425200	-10.332000	26.346739	0.000845	20.882542
1308.356757	-3.002800	3.424700	-10.283000	26.392276	0.000843	20.895591
1309.357924	-2.996600	3.425400	-10.263000	26.388182	0.000844	20.894795
1310.357635	-3.002600	3.422900	-10.276000	26.396797	0.000843	20.900608
1311.357768	-3.001800	3.422400	-10.272000	26.439255	0.000843	20.918624
1312.360214	-3.010900	3.421500	-10.301000	26.446183	0.000842	20.917527
1313.357300	-3.024600	3.421600	-10.347000	26.411495	0.000841	20.890726
1314.359096	-3.017600	3.421100	-10.322000	26.408045	0.000840	20.865923
1315.358629	-2.999600	3.420900	-10.259000	26.423461	0.000841	20.888054
1316.361860	-3.022500	3.420400	-10.336000	26.466960	0.000840	20.882938
1317.365211	-3.015900	3.420100	-10.314000	26.500379	0.000839	20.869114
1318.358919	-3.008400	3.420500	-10.288000	26.496507	0.000837	20.884661
1319.362761	-3.003100	3.419900	-10.268000	26.479742	0.000840	20.892465
1320.364552	-3.012000	3.418300	-10.295000	26.499957	0.000840	20.870112
1321.359551	-2.986700	3.420900	-10.216000	26.516291	0.000838	20.876572
1322.364754	-3.002800	3.419100	-10.266000	26.532431	0.000836	20.888054
1323.362849	-3.012700	3.417900	-10.296000	26.550007	0.000836	20.869213
1324.362454	-2.983300	3.418400	-10.196000	26.564601	0.000836	20.853538
1325.364862	-3.029700	3.416400	-10.349000	26.569741	0.000835	20.894263
1326.363683	-3.024300	3.415700	-10.329000	26.536082	0.000838	20.873707
1327.362871	-3.032100	3.414600	-10.353000	26.541045	0.000833	20.892919
1328.362251	-3.014000	3.415500	-10.293000	26.519966	0.000834	20.861301
1329.363054	-3.019500	3.414800	-10.309000	26.500031	0.000834	20.864022
1330.363585	-3.009700	3.413800	-10.274000	26.487089	0.000833	20.880885
1331.364386	-3.004300	3.414600	-10.258000	26.483963	0.000832	20.853563
1332.368327	-2.984100	3.413400	-10.184000	26.495260	0.000832	20.872503
1333.368708	-2.996000	3.413500	-10.226000	26.533399	0.000831	20.868166
1334.365355	-3.003900	3.414000	-10.254000	26.520413	0.000831	20.877871
1335.377514	-2.983900	3.413800	-10.185000	26.529523	0.000830	20.862847
1336.367486	-3.013500	3.410700	-10.277000	26.528329	0.000829	20.855010
1337.368421	-2.989400	3.412400	-10.200000	26.496405	0.000828	20.854214
1338.370098	-2.983300	3.413600	-10.181000	26.495289	0.000829	20.871110
1339.371103	-3.003900	3.410000	-10.241000	26.454047	0.000829	20.865218
1340.369560	-2.996500	3.410600	-10.219000	26.492134	0.000828	20.861301
1341.367936	-3.003000	3.411000	-10.241000	26.486773	0.000825	20.840740
1342.368880	-2.999800	3.409500	-10.227000	26.505544	0.000825	20.855340
1343.368703	-3.002100	3.409300	-10.234000	26.532604	0.000826	20.855039
1344.369210	-2.979800	3.409900	-10.160000	26.556738	0.000824	20.850376
1345.373192	-3.007200	3.407900	-10.246000	26.573022	0.000826	20.830235
1346.370326	-2.990300	3.408800	-10.193000	26.601052	0.000822	20.858411
1347.371202	-3.004900	3.406900	-10.237000	26.624160	0.000824	20.869312
1348.371798	-2.996600	3.406600	-10.208000	26.651422	0.000822	20.854993
1349.372078	-2.986400	3.407600	-10.174000	26.665744	0.000823	20.844736
1350.371535	-2.987700	3.406300	-10.175000	26.665346	0.000822	20.854292
1351.372491	-2.985500	3.407200	-10.171000	26.689051	0.000821	20.840192
1352.371671	-3.001400	3.405400	-10.220000	26.684035	0.000819	20.843684
1353.373620	-2.976700	3.405900	-10.136000	26.653132	0.000820	20.860506
1354.372255	-3.024900	3.405400	-10.300000	26.640000	0.000820	20.844459
1355.371954	-3.004700	3.404300	-10.228000	26.599288	0.000818	20.851423
1356.373311	-3.018500	3.402900	-10.270000	26.585163	0.000819	20.853344
1357.373890	-3.006600	3.402900	-10.230000	26.511799	0.000818	20.827964
1358.374351	-2.995400	3.402700	-10.191000	26.515076	0.000818	20.840266
1359.373552	-3.024500	3.401700	-10.287000	26.515204	0.000818	20.837075
1360.373895	-3.002900	3.402000	-10.215000	26.538691	0.000814	20.827019
1361.377703	-2.984700	3.402000	-10.153000	26.558079	0.000815	20.835129
1362.375633	-2.998000	3.401000	-10.196000	26.513075	0.000815	20.830194
1363.376623	-3.005400	3.400700	-10.219000	26.505843	0.000814	20.827193
1364.379808	-2.995400	3.401900	-10.189000	26.504879	0.000815	20.823379
1365.376908	-2.992600	3.399800	-10.173000	26.530425	0.000813	20.845263
1366.378679	-2.980900	3.399900	-10.134000	26.539166	0.000811	20.822756
1367.378206	-2.979000	3.399100	-10.125000	26.537083	0.000812	20.832989
1368.382181	-3.000000	3.399000	-10.195000	26.477995	0.000809	20.827650
1369.378392	-2.993600	3.398600	-10.173000	26.493316	0.000810	20.838308
1370.377311	-3.007300	3.397600	-10.217000	26.463174	0.000809	20.816073
1371.380429	-2.982000	3.397500	-10.130000	26.506327	0.000807	20.813455
1372.378411	-2.999800	3.397200	-10.190000	26.518296	0.000808	20.819796
1373.377665	-3.017900	3.396300	-10.248000	26.484903	0.000805	20.821317
1374.380680	-2.997600	3.396500	-10.180000	26.423900	0.000806	20.812160
1375.382971	-2.998600	3.395200	-10.179000	26.430706	0.000804	20.828009
1376.379202	-2.999200	3.394600	-10.179000	26.463281	0.000804	20.824715
1377.383464	-2.990500	3.396300	-10.156000	26.511795	0.000806	20.836968
1378.380367	-2.999900	3.393900	-10.180000	26.520737	0.000805	20.803283
1379.379919	-3.002200	3.392500	-10.184000	26.522624	0.000803	20.848801
1380.383077	-2.996900	3.393500	-10.169000	26.525807	0.000804	20.813595
1381.382923	-2.999000	3.394100	-10.178000	26.489805	0.000803	20.822925
1382.381577	-2.989800	3.392700	-10.142000	26.469028	0.000802	20.814844
1383.383809	-2.992900	3.393600	-10.156000	26.462001	0.000802	20.817265
1384.383520	-2.992200	3.392200	-10.149000	26.427789	0.000801	20.818914
1385.382847	-2.987500	3.391300	-10.131000	26.417411	0.000801	20.820336
1386.384108	-2.981500	3.392400	-10.113000	26.449067	0.000800	20.787195
1387.385219	-3.008800	3.389700	-10.198000	26.473729	0.000797	20.811509
1388.382375	-3.000900	3.390000	-10.173000	26.482368	0.000798	20.818770
1389.385175	-2.988300	3.389800	-10.128000	26.503300	0.000797	20.810886
1390.384669	-2.997900	3.390700	-10.164000	26.525143	0.000798	20.797280
1391.382866	-3.011200	3.387800	-10.201000	26.550894	0.000797	20.806570
1392.385578	-2.995300	3.390100	-10.154000	26.556230	0.000796	20.805295
1393.384112	-3.006500	3.387600	-10.183000	26.571304	0.000797	20.799111
1394.383180	-2.999200	3.387800	-10.160000	26.569048	0.000794	20.808223
1395.388494	-2.997300	3.386600	-10.149000	26.595413	0.000796	20.806277
1396.386136	-3.024700	3.386600	-10.243000	26.606639	0.000793	20.815665
1397.385699	-3.016900	3.387100	-10.217000	26.624636	0.000794	20.788239
1398.383866	-3.002800	3.386200	-10.166000	26.610236	0.000793	20.802212
1399.386539	-3.033300	3.385300	-10.267000	26.649560	0.000792	20.799544
1400.385447	-3.017500	3.384700	-10.212000	26.645119	0.000791	20.810726
1401.386100	-3.031000	3.383800	-10.255000	26.669846	0.000790	20.800497
1402.386889	-3.005600	3.385300	-10.174000	26.657730	0.000791	20.807757
1403.386076	-3.024500	3.384400	-10.234000	26.680472	0.000789	20.793162
1404.386221	-2.991800	3.384600	-10.125000	26.691098	0.000790	20.801000
1405.387474	-3.007400	3.384600	-10.178000	26.698817	0.000788	20.790741
1406.385522	-2.989300	3.384000	-10.115000	26.725379	0.000786	20.800377
1407.386366	-2.991600	3.384600	-10.125000	26.707064	0.000787	20.818947
1408.389663	-3.004800	3.382700	-10.163000	26.673578	0.000785	20.804249
1409.387541	-3.007100	3.382600	-10.171000	26.644487	0.000784	20.817677
1410.388077	-3.010600	3.381500	-10.179000	26.636420	0.000786	20.801981
1411.390332	-2.960700	3.383200	-10.016000	26.634533	0.000786	20.796765
1412.387617	-2.981100	3.381600	-10.080000	26.612664	0.000786	20.789480
1413.387061	-2.993800	3.380700	-10.120000	26.592686	0.000784	20.797846
1414.388404	-2.980300	3.381400	-10.075000	26.585881	0.000781	20.765875
1415.388086	-3.026400	3.380000	-10.228000	26.605499	0.000783	20.779906
1416.388767	-2.977800	3.381300	-10.067000	26.625506	0.000781	20.796225
1417.389140	-2.953000	3.381500	-9.983400	26.631322	0.000780	20.787847
1418.388761	-2.990500	3.379400	-10.105000	26.665778	0.000780	20.799252
1419.388604	-3.009200	3.378000	-10.163000	26.677224	0.000779	20.766189
1420.389226	-2.994300	3.378800	-10.116000	26.646469	0.000778	20.787901
1421.392398	-3.002300	3.376700	-10.136000	26.608690	0.000779	20.783114
1422.389719	-3.004500	3.376700	-10.145000	26.578753	0.000779	20.783840
1423.390150	-3.010200	3.376400	-10.162000	26.571333	0.000777	20.772114
1424.390099	-2.995900	3.375700	-10.112000	26.581760	0.000778	20.789233
1425.389919	-3.016000	3.374500	-10.175000	26.627242	0.000777	20.781849
1426.389924	-3.027700	3.374400	-10.215000	26.630199	0.000775	20.779132
1427.390203	-3.005000	3.376200	-10.145000	26.668953	0.000773	20.785374
1428.391483	-3.008000	3.374900	-10.151000	26.665179	0.000775	20.782055
1429.391664	-3.029400	3.372500	-10.215000	26.675236	0.000775	20.784579
1430.391860	-2.990200	3.374300	-10.089000	26.680399	0.000773	20.778390
1431.391271	-2.975000	3.374700	-10.039000	26.646986	0.000770	20.788895
1432.391413	-3.025800	3.371600	-10.200000	26.652777	0.000772	20.768165
1433.391560	-2.996300	3.373100	-10.106000	26.636319	0.000771	20.762050
1434.392022	-3.011000	3.372200	-10.152000	26.648286	0.000769	20.774555
1435.392830	-3.011300	3.371100	-10.151000	26.680781	0.000769	20.772135
1436.392540	-3.000400	3.371500	-10.115000	26.711688	0.000770	20.784715
1437.396280	-3.014800	3.370600	-10.161000	26.744533	0.000771	20.763683
1438.393964	-2.978300	3.373100	-10.046000	26.781638	0.000768	20.755944
1439.399650	-3.019400	3.369500	-10.173000	26.815174	0.000767	20.780180
1440.397075	-2.976800	3.371300	-10.035000	26.818078	0.000769	20.789263
1441.395213	-3.002300	3.369600	-10.115000	26.828010	0.000763	20.772222
1442.397184	-3.011900	3.368200	-10.143000	26.820936	0.000766	20.761316
1443.395351	-3.010900	3.368200	-10.140000	26.828211	0.000767	20.765786
1444.396204	-3.006500	3.368400	-10.125000	26.809499	0.000765	20.772577
1445.397238	-2.986800	3.368700	-10.061000	26.800215	0.000763	20.797382
1446.399437	-3.013300	3.368200	-10.149000	26.786367	0.000763	20.764966
1447.398149	-2.988300	3.368000	-10.064000	26.765916	0.000760	20.762896
1448.398073	-2.990100	3.368100	-10.070000	26.707714	0.000761	20.751322
1449.399581	-3.019900	3.366300	-10.164000	26.679264	0.000761	20.763972
1450.401064	-3.007000	3.365900	-10.120000	26.659739	0.000761	20.768050
1451.399119	-3.002700	3.364800	-10.102000	26.584046	0.000762	20.775410
1452.400269	-2.996200	3.365200	-10.081000	26.577939	0.000759	20.762158
1453.399677	-3.002500	3.365000	-10.102000	26.575786	0.000760	20.768529
1454.399660	-2.980400	3.365900	-10.030000	26.605305	0.000760	20.766434
1455.400368	-2.998400	3.363500	-10.084000	26.646959	0.000756	20.754729
1456.398461	-2.980400	3.365200	-10.029000	26.651606	0.000756	20.750391
1457.398913	-3.001200	3.363000	-10.092000	26.663471	0.000757	20.769432
1458.398562	-2.982400	3.362400	-10.027000	26.636095	0.000756	20.749497
1459.401188	-2.992100	3.362700	-10.060000	26.647189	0.000756	20.736941
1460.399973	-3.003600	3.362200	-10.098000	26.655806	0.000752	20.759355
1461.399888	-2.985500	3.362000	-10.036000	26.693714	0.000753	20.750998
1462.406022	-2.970200	3.362500	-9.986100	26.669685	0.000752	20.754341
1463.399471	-3.018600	3.359600	-10.139000	26.686964	0.000750	20.762703
1464.399987	-2.991300	3.360400	-10.051000	26.724423	0.000751	20.750103
1465.403925	-2.997200	3.360300	-10.071000	26.731654	0.000751	20.747415
1466.398732	-3.013500	3.358400	-10.120000	26.742993	0.000750	20.756445
1467.399150	-3.015000	3.358000	-10.123000	26.794574	0.000749	20.747613
1468.399796	-3.027300	3.357100	-10.161000	26.804232	0.000750	20.742624
1469.399591	-3.007800	3.359100	-10.102000	26.782288	0.000747	20.755649
1470.399522	-3.024100	3.357300	-10.152000	26.774570	0.000748	20.739828
1471.400660	-3.013400	3.355900	-10.111000	26.740918	0.000749	20.738711
1472.402028	-3.018600	3.355800	-10.129000	26.758417	0.000749	20.747770
1473.401147	-3.025300	3.355700	-10.150000	26.782096	0.000746	20.759249
1474.401192	-2.998500	3.357100	-10.065000	26.755616	0.000745	20.735944
1475.402819	-2.999300	3.355900	-10.065000	26.742715	0.000744	20.759010
1476.402261	-2.991400	3.356500	-10.039000	26.714516	0.000745	20.731133
1477.401895	-3.035200	3.353300	-10.176000	26.735665	0.000743	20.749077
1478.403588	-2.998100	3.355900	-10.061000	26.723727	0.000744	20.748455
1479.402800	-2.998000	3.354600	-10.056000	26.702632	0.000743	20.731512
1480.402886	-3.018500	3.353300	-10.121000	26.701787	0.000743	20.740147
1481.404320	-2.991300	3.353700	-10.032000	26.724183	0.000744	20.758871
1482.404934	-3.004600	3.354300	-10.078000	26.744664	0.000742	20.757176
1483.405337	-2.956000	3.353900	-9.912000	26.802749	0.000742	20.729278
1484.407735	-2.986100	3.353400	-10.013000	26.806968	0.000741	20.750117
1485.409880	-2.978900	3.353400	-9.988600	26.848492	0.000741	20.727382
1486.404901	-2.986500	3.352600	-10.011000	26.870762	0.000740	20.745034
1487.411923	-2.998000	3.351400	-10.046000	26.864214	0.000739	20.745088
1488.408246	-3.016900	3.350600	-10.107000	26.880124	0.000738	20.736903
1489.405471	-3.001700	3.351900	-10.061000	26.904890	0.000736	20.751376
1490.409147	-3.000300	3.349200	-10.046000	26.913883	0.000735	20.734339
1491.409896	-3.018600	3.349600	-10.110000	26.924006	0.000736	20.730294
1492.407104	-2.999600	3.349200	-10.045000	26.945755	0.000737	20.724662
1493.407449	-2.994600	3.348200	-10.025000	26.951614	0.000735	20.726286
1494.410709	-2.997700	3.348800	-10.037000	26.933700	0.000734	20.734352
1495.410043	-2.990700	3.347300	-10.010000	26.917246	0.000733	20.728711
1496.407694	-2.987200	3.348400	-10.000000	26.940331	0.000732	20.734855
1497.411384	-2.992700	3.347800	-10.017000	26.897917	0.000730	20.725396
1498.408648	-2.987300	3.347600	-9.999200	26.871658	0.000731	20.726493
1499.409223	-2.993000	3.347600	-10.018000	26.815894	0.000731	20.741073
1500.410023	-2.968500	3.348400	-9.939200	26.806389	0.000730	20.741948
1501.408174	-3.003700	3.344800	-10.044000	26.792417	0.000730	20.725055
1502.408659	-3.015500	3.345200	-10.086000	26.802100	0.000730	20.721039
1503.409965	-2.991100	3.344800	-10.004000	26.812897	0.000729	20.723834
1504.409191	-2.973000	3.345500	-9.945000	26.845465	0.000729	20.718173
1505.418033	-2.972700	3.345300	-9.944000	26.851197	0.000727	20.719196
1506.409964	-2.992600	3.342900	-10.003000	26.845789	0.000725	20.744579
1507.413051	-3.010500	3.343100	-10.064000	26.877781	0.000726	20.709415
1508.413151	-2.971700	3.344400	-9.937300	26.902974	0.000726	20.699185
1509.411170	-2.984600	3.343700	-9.978700	26.907960	0.000725	20.690448
1510.414039	-2.991100	3.343000	-9.997600	26.938093	0.000722	20.713164
1511.411715	-2.966300	3.343800	-9.916900	26.914792	0.000724	20.719130
1512.411546	-3.000000	3.342400	-10.026000	26.841307	0.000723	20.736754
1513.412195	-2.999300	3.341900	-10.021000	26.859202	0.000722	20.714442
1514.415960	-3.004300	3.340700	-10.035000	26.847364	0.000722	20.723877
1515.412072	-3.003900	3.338900	-10.028000	26.858534	0.000721	20.707132
1516.412405	-2.976500	3.340500	-9.942100	26.865460	0.000720	20.726425
1517.416595	-3.009400	3.339500	-10.049000	26.878737	0.000720	20.717964
1518.412302	-2.979300	3.339800	-9.948600	26.854987	0.000719	20.720162
1519.413422	-2.969400	3.341100	-9.919700	26.812521	0.000718	20.718714
1520.413315	-3.012600	3.339000	-10.058000	26.785026	0.000717	20.727580
1521.417957	-2.986000	3.338300	-9.966500	26.754023	0.000716	20.715849
1522.413695	-3.001100	3.337600	-10.015000	26.716819	0.000718	20.722542
1523.413705	-2.989100	3.336200	-9.971400	26.648755	0.000715	20.702003
1524.413617	-3.004600	3.336400	-10.024000	26.644707	0.000716	20.708365
1525.414285	-3.014100	3.336800	-10.056000	26.640712	0.000714	20.688701
1526.416084	-3.029500	3.335600	-10.104000	26.671644	0.000715	20.684710
1527.416911	-2.979300	3.337700	-9.943000	26.714465	0.000715	20.702630
1528.416378	-2.998300	3.335400	-9.999400	26.713920	0.000712	20.719153
1529.415710	-3.007100	3.335300	-10.028000	26.692598	0.000710	20.698664
1530.417016	-3.002700	3.334000	-10.010000	26.697486	0.000711	20.704053
1531.417337	-3.005500	3.334800	-10.021000	26.727281	0.000711	20.715991
1532.418009	-3.004900	3.333200	-10.014000	26.718616	0.000710	20.686887
1533.418936	-3.006300	3.333900	-10.022000	26.691118	0.000709	20.704763
1534.420286	-2.990800	3.331900	-9.962200	26.668627	0.000709	20.704911
1535.419985	-2.994300	3.333700	-9.980400	26.692955	0.000707	20.695704
1536.420355	-2.991800	3.332800	-9.969600	26.728725	0.000707	20.710329
1537.419938	-2.975700	3.333600	-9.919100	26.786188	0.000706	20.715946
1538.420799	-2.981800	3.331400	-9.932900	26.808377	0.000705	20.705064
1539.421496	-2.978800	3.332600	-9.926600	26.854247	0.000706	20.703295
1540.421219	-3.002700	3.330200	-9.998400	26.866012	0.000704	20.711806
1541.420086	-3.000400	3.330600	-9.991300	26.865987	0.000704	20.694236
1542.422651	-2.974600	3.330400	-9.905400	26.854748	0.000703	20.722292
1543.421287	-2.994500	3.330600	-9.972400	26.858549	0.000703	20.719002
1544.421287	-3.022400	3.328600	-10.059000	26.820676	0.000702	20.700834
1545.425990	-3.017500	3.327200	-10.039000	26.816063	0.000703	20.702834
1546.423279	-2.998500	3.327000	-9.974700	26.823334	0.000699	20.696868
1547.420688	-2.997100	3.328500	-9.974700	26.796158	0.000699	20.715064
1548.425878	-3.001200	3.328100	-9.986000	26.783897	0.000700	20.704632
1549.423075	-2.995000	3.327000	-9.962300	26.771939	0.000698	20.671270
1550.423284	-2.984100	3.327000	-9.927500	26.761937	0.000697	20.694407
1551.425030	-3.001400	3.326500	-9.983500	26.776512	0.000696	20.686775
1552.423719	-2.994500	3.325600	-9.957000	26.775868	0.000696	20.699405
1553.424870	-2.992700	3.325300	-9.951100	26.774433	0.000695	20.712188
1554.424019	-2.995900	3.324500	-9.958100	26.781094	0.000694	20.686166
1555.424778	-2.995700	3.324400	-9.958700	26.791617	0.000694	20.714766
1556.427386	-2.986200	3.324000	-9.923700	26.774791	0.000694	20.695477
1557.423517	-2.998100	3.324600	-9.966400	26.786114	0.000692	20.706862
1558.428215	-3.020100	3.323200	-10.035000	26.806245	0.000693	20.685375
1559.426531	-3.016100	3.320700	-10.015000	26.867677	0.000690	20.708738
1560.425589	-2.989900	3.323000	-9.935300	26.899172	0.000691	20.704372
1561.428954	-3.000000	3.322900	-9.967700	26.882775	0.000690	20.688357
1562.426876	-2.970000	3.322200	-9.866200	26.924168	0.000690	20.697263
1563.426468	-2.993300	3.321100	-9.941100	26.934399	0.000688	20.690007
1564.428482	-3.006900	3.319600	-9.980400	26.948520	0.000689	20.721279
1565.425833	-2.993700	3.321100	-9.941800	26.956860	0.000686	20.686514
1566.426462	-2.988800	3.319600	-9.921300	26.963839	0.000686	20.692110
1567.429971	-2.988700	3.320500	-9.923000	26.944757	0.000686	20.686672
1568.431290	-3.029000	3.317900	-10.049000	26.927286	0.000684	20.688070
1569.429381	-3.013600	3.318000	-9.998100	26.915527	0.000685	20.691892
1570.428782	-2.986500	3.319800	-9.913600	26.928037	0.000685	20.687876
1571.429724	-3.010500	3.317900	-9.987600	26.946505	0.000685	20.698387
1572.428808	-2.991700	3.317800	-9.925100	26.910148	0.000684	20.695019
1573.429644	-3.007200	3.316800	-9.973300	26.867610	0.000683	20.712939
1574.428784	-2.978800	3.318300	-9.882500	26.828872	0.000681	20.699592
1575.433479	-3.005000	3.316200	-9.964700	26.763297	0.000681	20.706680
1576.430347	-3.022700	3.315600	-10.020000	26.805047	0.000682	20.690335
1577.429935	-2.991900	3.314400	-9.914200	26.819289	0.000679	20.694697
1578.431349	-2.996800	3.314200	-9.931400	26.810608	0.000679	20.719162
1579.430982	-2.992300	3.314200	-9.916400	26.755706	0.000678	20.693832
1580.431184	-2.991000	3.315700	-9.916000	26.727365	0.000678	20.698529
1581.435989	-3.001800	3.314200	-9.947800	26.708004	0.000678	20.710359
1582.431915	-3.034400	3.312100	-10.049000	26.639689	0.000678	20.702846
1583.431859	-3.008900	3.312800	-9.967300	26.652777	0.000676	20.700831
1584.434924	-3.013500	3.311800	-9.978600	26.667894	0.000675	20.689949
1585.433790	-2.991700	3.312900	-9.909900	26.711309	0.000674	20.710364
1586.434245	-2.988200	3.313000	-9.899300	26.739356	0.000674	20.704422
1587.434342	-2.991800	3.312600	-9.909800	26.781879	0.000673	20.722045
1588.437344	-2.994600	3.311600	-9.915200	26.825672	0.000673	20.717713
1589.433448	-3.012800	3.309500	-9.969700	26.857263	0.000675	20.717234
1590.433417	-2.997700	3.309500	-9.920000	26.919306	0.000672	20.698064
1591.434763	-2.989600	3.311000	-9.897600	26.953683	0.000673	20.705606
1592.436046	-2.994500	3.308500	-9.905700	26.998752	0.000670	20.728170
1593.436863	-3.000900	3.308600	-9.927300	27.001659	0.000671	20.699323
1594.438201	-3.009800	3.307300	-9.953500	26.975751	0.000670	20.713099
1595.438754	-2.996200	3.307800	-9.910200	26.965451	0.000667	20.701793
1596.436573	-2.985400	3.308600	-9.876900	26.977887	0.000666	20.705290
1597.437306	-3.009400	3.307300	-9.951700	26.998736	0.000668	20.683106
1598.437123	-2.987700	3.309200	-9.885500	27.033082	0.000666	20.710061
1599.439128	-3.010200	3.306100	-9.950100	27.028116	0.000667	20.722138
1600.439059	-2.991300	3.305400	-9.887100	26.997297	0.000666	20.719594
1601.437510	-2.965200	3.306100	-9.802200	26.970848	0.000665	20.734249
1602.438232	-2.993100	3.305700	-9.893200	26.944492	0.000665	20.723392
1603.438783	-3.009000	3.303100	-9.937800	26.995047	0.000665	20.732505
1604.439733	-2.980800	3.304200	-9.848100	27.007404	0.000662	20.701782
1605.439885	-3.027100	3.303400	-9.997300	27.039814	0.000663	20.704978
1606.441263	-3.012200	3.302700	-9.946900	27.062352	0.000664	20.713893
1607.443248	-2.997400	3.302400	-9.897100	27.109842	0.000661	20.712342
1608.442343	-2.972700	3.303700	-9.820500	27.087958	0.000660	20.699816
1609.442638	-2.985100	3.302200	-9.855900	27.042599	0.000660	20.718210
1610.443031	-2.999800	3.301100	-9.899800	27.021780	0.000661	20.725723
1611.447349	-2.991300	3.300400	-9.871700	26.990543	0.000659	20.708059
1612.443058	-2.972400	3.301600	-9.812100	27.032260	0.000657	20.718244
1613.446939	-2.994700	3.299800	-9.881200	27.037495	0.000656	20.716871
1614.443731	-2.965900	3.303100	-9.795600	27.009260	0.000659	20.733521
1615.442991	-2.990000	3.299800	-9.865200	26.960002	0.000656	20.698209
1616.445745	-2.980400	3.300700	-9.836900	26.954044	0.000656	20.725885
1617.445531	-3.002900	3.298900	-9.905200	26.970326	0.000654	20.725663
1618.445189	-2.974700	3.300100	-9.815400	26.950223	0.000657	20.717774
1619.447411	-3.014100	3.297900	-9.938900	26.938857	0.000654	20.705870
1620.445127	-3.014300	3.296100	-9.934100	26.897210	0.000653	20.720891
1621.445494	-2.998700	3.296900	-9.885100	26.872296	0.000653	20.719073
1622.447448	-2.975100	3.297300	-9.809000	26.866116	0.000653	20.708118
1623.454727	-3.012900	3.297200	-9.932100	26.890863	0.000652	20.717828
1624.447026	-2.990500	3.295700	-9.854900	26.878107	0.000651	20.714959
1625.448748	-2.996600	3.295900	-9.875600	26.878726	0.000651	20.730755
1626.450160	-3.011900	3.294200	-9.920600	26.911586	0.000651	20.734400
1627.447628	-3.012800	3.293700	-9.921600	26.950895	0.000650	20.723193
1628.452724	-3.004400	3.294400	-9.896800	26.990277	0.000651	20.731975
1629.453147	-3.015700	3.293100	-9.928600	27.014426	0.000647	20.717379
1630.447618	-2.990400	3.294500	-9.850800	27.025192	0.000648	20.744803
1631.448102	-2.997300	3.294000	-9.872300	27.053854	0.000646	20.737591
1632.454503	-3.007200	3.293400	-9.902100	27.067355	0.000644	20.716554
1633.453069	-3.022500	3.293300	-9.952000	27.112964	0.000646	20.719276
1634.451570	-2.999300	3.292200	-9.872800	27.136954	0.000644	20.733447
1635.458866	-3.021400	3.290900	-9.942100	27.117158	0.000644	20.743884
1636.457416	-3.005100	3.291000	-9.889000	27.093241	0.000644	20.700861
1637.452177	-3.014400	3.290700	-9.918500	27.064698	0.000642	20.721469
1638.458540	-2.995500	3.290300	-9.855100	27.034282	0.000641	20.716959
1639.456241	-2.976200	3.290800	-9.792900	27.061005	0.000642	20.750473
1640.454410	-3.005900	3.288300	-9.882600	27.051654	0.000642	20.714514
1641.457714	-3.003700	3.289200	-9.878700	27.022844	0.000639	20.726793
1642.453730	-3.024800	3.288500	-9.945700	27.029317	0.000641	20.717655
1643.452895	-2.984700	3.287900	-9.812300	27.026493	0.000642	20.726195
1644.453343	-2.976400	3.288900	-9.787500	27.024337	0.000638	20.742046
1645.455824	-2.993900	3.288400	-9.844200	27.023561	0.000638	20.744585
1646.454795	-3.005900	3.287400	-9.880300	27.060558	0.000637	20.718253
1647.456218	-2.989100	3.286600	-9.823300	27.107704	0.000637	20.732479
1648.460343	-2.938300	3.288200	-9.661000	27.102887	0.000637	20.753713
1649.455591	-2.967400	3.287300	-9.754000	27.109045	0.000636	20.744259
1650.460660	-2.989700	3.285600	-9.822100	27.146407	0.000635	20.718772
1651.457492	-2.990100	3.285000	-9.821300	27.193005	0.000634	20.753787
1652.457154	-2.984600	3.285900	-9.806600	27.222207	0.000632	20.727209
1653.458575	-3.002000	3.284100	-9.857400	27.239674	0.000632	20.758529
1654.460574	-2.987100	3.284100	-9.808800	27.263808	0.000633	20.759572
1655.462513	-2.984300	3.285200	-9.802700	27.289636	0.000631	20.750463
1656.460227	-2.997400	3.283900	-9.841500	27.325013	0.000630	20.738160
1657.462263	-2.991800	3.283400	-9.821800	27.334563	0.000630	20.753457
1658.461788	-2.998200	3.284700	-9.845900	27.272711	0.000628	20.751457
1659.464742	-3.019100	3.282100	-9.907700	27.246932	0.000628	20.753027
1660.462351	-3.002600	3.281200	-9.851200	27.176697	0.000628	20.768680
1661.464076	-3.005100	3.282400	-9.862500	27.198800	0.000626	20.757245
1662.464027	-2.991500	3.283700	-9.822000	27.204977	0.000626	20.754450
1663.464425	-3.010600	3.281500	-9.878600	27.192573	0.000627	20.768527
1664.467780	-2.995100	3.280800	-9.823900	27.175872	0.000625	20.758841
1665.469254	-2.997500	3.280900	-9.833300	27.180808	0.000624	20.763331
1666.465389	-2.981000	3.281000	-9.779100	27.191871	0.000623	20.753122
1667.467223	-2.988000	3.279900	-9.797800	27.199095	0.000624	20.747584
1668.468087	-2.990800	3.278800	-9.804600	27.223661	0.000622	20.760441
1669.463711	-3.004000	3.278400	-9.847200	27.247452	0.000620	20.775837
1670.468623	-2.983600	3.279100	-9.783300	27.229933	0.000621	20.729763
1671.465622	-2.999400	3.278000	-9.831100	27.262905	0.000621	20.772414
1672.465940	-3.000200	3.277200	-9.831000	27.260278	0.000620	20.770246
1673.468851	-2.997200	3.277500	-9.821900	27.255663	0.000620	20.754697
1674.466653	-2.987100	3.278000	-9.790200	27.226760	0.000620	20.753126
1675.466667	-3.010300	3.275300	-9.858800	27.204624	0.000617	20.766897
1676.467526	-3.009400	3.274600	-9.853200	27.249731	0.000617	20.755369
1677.469223	-2.999800	3.274400	-9.821800	27.246702	0.000617	20.773659
1678.470208	-2.998100	3.274700	-9.816200	27.246107	0.000614	20.785390
1679.468303	-2.984600	3.275900	-9.776200	27.247600	0.000616	20.757018
1680.468973	-3.011600	3.273500	-9.856700	27.179119	0.000613	20.764003
1681.467926	-3.009200	3.273200	-9.848500	27.138674	0.000614	20.759360
1682.467076	-3.016500	3.272600	-9.870600	27.084732	0.000613	20.766275
1683.467944	-3.002500	3.272600	-9.824100	27.028553	0.000610	20.779477
1684.468659	-2.998200	3.272300	-9.810100	27.044107	0.000611	20.776153
1685.469062	-2.989400	3.272400	-9.781000	27.062848	0.000610	20.778405
1686.468926	-3.009700	3.271100	-9.844300	27.081436	0.000608	20.774814
1687.468699	-3.008600	3.268800	-9.833500	27.124756	0.000608	20.769544
1688.468546	-2.985400	3.271700	-9.766200	27.185920	0.000608	20.776533
1689.468843	-2.984900	3.270500	-9.760600	27.227649	0.000608	20.767771
1690.470726	-2.999100	3.270500	-9.807200	27.263902	0.000606	20.774365
1691.468755	-2.975400	3.270600	-9.730700	27.302358	0.000606	20.777012
1692.469633	-2.972200	3.270400	-9.718500	27.310941	0.000605	20.762886
1693.470906	-2.996300	3.268300	-9.791600	27.300899	0.000602	20.762268
1694.470433	-2.986300	3.269800	-9.762400	27.313700	0.000604	20.775619
1695.471096	-2.988800	3.268900	-9.769000	27.336399	0.000605	20.765262
1696.472324	-2.966500	3.269500	-9.698200	27.355577	0.000604	20.785502
1697.471330	-2.989400	3.267400	-9.766700	27.342879	0.000604	20.786006
1698.471183	-2.988800	3.267400	-9.763900	27.345109	0.000604	20.774024
1699.471596	-3.002600	3.266600	-9.807200	27.387009	0.000602	20.785828
1700.474288	-2.985100	3.267400	-9.751600	27.352253	0.000603	20.787374
1701.476777	-3.024600	3.265100	-9.874600	27.362401	0.000602	20.776720
1702.472661	-3.002400	3.264000	-9.799000	27.350043	0.000601	20.783729
1703.475778	-2.996000	3.264700	-9.780400	27.356810	0.000601	20.784372
1704.471942	-3.027400	3.263300	-9.878200	27.342772	0.000600	20.775940
1705.472619	-2.998300	3.264500	-9.785700	27.296476	0.000600	20.797174
1706.474472	-3.006400	3.262600	-9.808400	27.228518	0.000596	20.787612
1707.473152	-3.018700	3.262400	-9.847200	27.222292	0.000598	20.760486
1708.474833	-2.985900	3.262600	-9.741500	27.249108	0.000598	20.805951
1709.476608	-3.002600	3.262600	-9.794700	27.272382	0.000595	20.798542
1710.480736	-3.001800	3.262200	-9.791800	27.315621	0.000594	20.780870
1711.475911	-3.016400	3.261900	-9.838600	27.346377	0.000594	20.813706
1712.479703	-3.005000	3.261700	-9.800200	27.352750	0.000591	20.776021
1713.476678	-3.006900	3.259800	-9.800300	27.363567	0.000594	20.807290
1714.478112	-3.007100	3.259600	-9.801600	27.367706	0.000591	20.788695
1715.481070	-2.980400	3.261300	-9.719000	27.364333	0.000591	20.810906
1716.478623	-2.981800	3.260600	-9.720900	27.331781	0.000591	20.792859
1717.478590	-3.003000	3.259300	-9.785700	27.343167	0.000589	20.801942
1718.480984	-2.979900	3.260300	-9.714000	27.372960	0.000588	20.809627
1719.477221	-2.991500	3.259300	-9.749200	27.358176	0.000587	20.792859
1720.478318	-2.981000	3.259200	-9.713700	27.335026	0.000588	20.798020
1721.478957	-2.982600	3.258400	-9.717000	27.281365	0.000587	20.808526
1722.481308	-2.992000	3.256300	-9.741800	27.227897	0.000585	20.814013
1723.479825	-2.995300	3.257300	-9.756000	27.241518	0.000584	20.823921
1724.482016	-3.017000	3.255400	-9.820200	27.214521	0.000583	20.794396
1725.485072	-3.005200	3.255300	-9.779500	27.222486	0.000585	20.820899
1726.483660	-2.979900	3.256600	-9.703700	27.255483	0.000583	20.807148
1727.487077	-3.019300	3.253600	-9.822200	27.268727	0.000583	20.816202
1728.485601	-3.016700	3.254600	-9.816900	27.338174	0.000583	20.818256
1729.486852	-3.006900	3.255000	-9.786400	27.334207	0.000580	20.807627
1730.482304	-2.998200	3.254600	-9.757800	27.346998	0.000581	20.822865
1731.485298	-3.021400	3.253600	-9.829500	27.391460	0.000579	20.819229
1732.483690	-2.974300	3.253700	-9.675500	27.409439	0.000580	20.806497
1733.483344	-2.988500	3.253100	-9.720600	27.419288	0.000579	20.811663
1734.485229	-2.989900	3.253100	-9.725700	27.405816	0.000578	20.800007
1735.485593	-2.991600	3.253000	-9.730100	27.437792	0.000577	20.809416
1736.499495	-2.998400	3.250900	-9.745500	27.441734	0.000578	20.831873
1737.485668	-3.031300	3.249400	-9.847700	27.479590	0.000577	20.838190
1738.487075	-3.021600	3.250600	-9.820300	27.447832	0.000576	20.819516
1739.486674	-3.011500	3.250800	-9.788400	27.462192	0.000574	20.804566
1740.488571	-2.997400	3.251700	-9.745300	27.481510	0.000573	20.829217
1741.488307	-3.002500	3.249200	-9.755200	27.475904	0.000575	20.829741
1742.487601	-3.043500	3.247800	-9.884100	27.461520	0.000573	20.807683
1743.487709	-2.967800	3.250400	-9.645600	27.461388	0.000573	20.821300
1744.489655	-3.000600	3.248900	-9.747000	27.463228	0.000573	20.832161
1745.494127	-2.977600	3.248300	-9.671500	27.494726	0.000572	20.840142
1746.490908	-3.018700	3.246500	-9.800100	27.536940	0.000569	20.837569
1747.493534	-3.012600	3.247800	-9.782800	27.570919	0.000569	20.826240
1748.491667	-3.003400	3.247600	-9.752800	27.552143	0.000567	20.833900
1749.492882	-3.028000	3.245100	-9.824800	27.528035	0.000566	20.838093
1750.491738	-3.013900	3.245400	-9.779600	27.538820	0.000567	20.846099
1751.490878	-3.028100	3.243500	-9.820400	27.546086	0.000565	20.833970
1752.491941	-3.004300	3.245700	-9.749500	27.580585	0.000564	20.854456
1753.495232	-3.000600	3.243800	-9.732200	27.581950	0.000563	20.835915
1754.491559	-3.008300	3.243200	-9.754400	27.606798	0.000563	20.839580
1755.495724	-2.983100	3.243800	-9.675500	27.605934	0.000562	20.815478
1756.493530	-2.990800	3.244000	-9.700000	27.609130	0.000562	20.851883
1757.497108	-3.030700	3.242700	-9.826200	27.620390	0.000563	20.863687
1758.496966	-2.983700	3.242600	-9.673300	27.631085	0.000561	20.837466
1759.495258	-2.987300	3.242700	-9.686000	27.676293	0.000560	20.866833
1760.498133	-3.015300	3.241800	-9.774400	27.660202	0.000560	20.837367
1761.495575	-2.993100	3.242900	-9.704900	27.673367	0.000558	20.818372
1762.494720	-2.994100	3.241600	-9.704600	27.708780	0.000559	20.851162
1763.498244	-3.005600	3.240000	-9.736700	27.697521	0.000558	20.845522
1764.494984	-3.001200	3.240200	-9.723300	27.695985	0.000559	20.853933
1765.495120	-2.986500	3.241000	-9.678700	27.695882	0.000557	20.841502
1766.497805	-2.997100	3.239400	-9.707700	27.723137	0.000556	20.834316
1767.500663	-3.006800	3.239500	-9.739600	27.734568	0.000557	20.850086
1768.495384	-3.012700	3.237500	-9.752700	27.737518	0.000556	20.851157
1769.495624	-2.985900	3.239700	-9.670800	27.756954	0.000555	20.852699
1770.503371	-2.987400	3.239000	-9.675400	27.761489	0.000554	20.862004
1771.495040	-2.984400	3.238800	-9.664700	27.740537	0.000553	20.842816
1772.498674	-2.996700	3.237800	-9.700800	27.717145	0.000555	20.856260
1773.496581	-2.982200	3.236400	-9.650500	27.714216	0.000554	20.848571
1774.496045	-2.989000	3.235700	-9.669700	27.698289	0.000550	20.862415
1775.495318	-3.006800	3.235500	-9.726700	27.721652	0.000550	20.856528
1776.497876	-2.962000	3.238200	-9.590700	27.766531	0.000551	20.858069
1777.499813	-2.996700	3.234200	-9.690900	27.798987	0.000549	20.858015
1778.496081	-3.006400	3.234900	-9.723400	27.832385	0.000547	20.858910
1779.499756	-3.009700	3.233500	-9.730300	27.842155	0.000546	20.847407
1780.496818	-3.001500	3.233100	-9.703300	27.875752	0.000547	20.869365
1781.496423	-3.002700	3.234300	-9.711200	27.891118	0.000545	20.863019
1782.495583	-2.975500	3.232900	-9.618400	27.912809	0.000543	20.865410
1783.499810	-3.006300	3.231100	-9.712600	27.902346	0.000542	20.889017
1784.496374	-2.975000	3.233100	-9.617800	27.944175	0.000544	20.867109
1785.498294	-3.006300	3.231100	-9.712200	27.938641	0.000541	20.868650
1786.499988	-3.012700	3.230700	-9.732300	27.929145	0.000540	20.872369
1787.498814	-3.022300	3.230300	-9.762100	27.894157	0.000544	20.887413
1788.497652	-2.994800	3.229900	-9.670800	27.847963	0.000540	20.860837
1789.504957	-2.991000	3.230700	-9.662500	27.812353	0.000539	20.878104
1790.501001	-2.994800	3.228500	-9.667500	27.804241	0.000537	20.878000
1791.498119	-2.975400	3.228900	-9.606600	27.791098	0.000538	20.876153
1792.504231	-3.008900	3.228400	-9.711700	27.786460	0.000537	20.878124
1793.499151	-3.000500	3.228500	-9.684800	27.770216	0.000536	20.871733
1794.500759	-3.005000	3.228500	-9.700500	27.762775	0.000535	20.890797
1795.501806	-2.997800	3.229300	-9.679900	27.758731	0.000535	20.879616
1796.500722	-2.981900	3.230100	-9.630700	27.773141	0.000535	20.885582
1797.502043	-3.003900	3.225300	-9.688600	27.730555	0.000532	20.889667
1798.500698	-2.999900	3.225600	-9.675400	27.691344	0.000534	20.878185
1799.502455	-2.996000	3.225000	-9.661900	27.709019	0.000533	20.875583
1800.502046	-2.987900	3.224900	-9.634500	27.702644	0.000532	20.893822
1801.502627	-2.981800	3.225300	-9.615800	27.685008	0.000531	20.886982
1802.503433	-2.993300	3.224200	-9.649800	27.650311	0.000532	20.885732
1803.503237	-3.003200	3.223000	-9.678200	27.660055	0.000529	20.882261
1804.502657	-3.012200	3.222900	-9.707700	27.655510	0.000529	20.908980
1805.504300	-3.014400	3.223700	-9.716800	27.611986	0.000528	20.886523
1806.504051	-2.999900	3.223600	-9.668900	27.588920	0.000526	20.899823
1807.504024	-3.006000	3.223200	-9.686900	27.603622	0.000527	20.885220
1808.504706	-3.000400	3.221100	-9.663700	27.567783	0.000524	20.878558
1809.508784	-3.035700	3.221600	-9.778900	27.591464	0.000524	20.881048
1810.511140	-2.994200	3.219900	-9.640100	27.644467	0.000523	20.884593
1811.506505	-3.002600	3.221300	-9.671200	27.678492	0.000522	20.900338
1812.508776	-2.996000	3.219600	-9.645200	27.722853	0.000519	20.882865
1813.509850	-3.002600	3.220000	-9.665800	27.770893	0.000519	20.860087
1814.506092	-3.019600	3.217400	-9.713100	27.815864	0.000519	20.879740
1815.512302	-2.993800	3.219400	-9.636600	27.861322	0.000518	20.889454
1816.507757	-2.990500	3.218000	-9.622000	27.889933	0.000518	20.867990
1817.507490	-2.995200	3.218300	-9.638200	27.901489	0.000515	20.871561
1818.507127	-2.986600	3.218100	-9.610100	27.894247	0.000517	20.878969
1819.508391	-3.005200	3.217100	-9.666800	27.883764	0.000514	20.870316
1820.507508	-2.989000	3.218900	-9.620300	27.884034	0.000516	20.858260
1821.507658	-3.002200	3.216800	-9.656300	27.903173	0.000517	20.867091
1822.508202	-2.984700	3.216600	-9.599400	27.922492	0.000514	20.860932
1823.511680	-2.985100	3.216800	-9.601200	27.933798	0.000513	20.867096
1824.509851	-2.995200	3.215100	-9.628700	27.874313	0.000512	20.860804
1825.513137	-3.015500	3.213900	-9.690500	27.849118	0.000512	20.842560
1826.510638	-3.013500	3.213900	-9.684000	27.794966	0.000511	20.855865
1827.510840	-3.001400	3.214100	-9.645500	27.763546	0.000509	20.872134
1828.512824	-2.996600	3.214000	-9.630300	27.768381	0.000509	20.858508
1829.511653	-2.996400	3.212600	-9.625600	27.774079	0.000509	20.864716
1830.511450	-3.006400	3.211800	-9.655100	27.791610	0.000510	20.862445
1831.511516	-3.009200	3.213100	-9.667700	27.803831	0.000509	20.863364
1832.512599	-3.007600	3.212800	-9.662100	27.847519	0.000506	20.860865
1833.514327	-3.002200	3.211100	-9.639300	27.820939	0.000507	20.880580
1834.513541	-3.022900	3.209900	-9.702000	27.819140	0.000509	20.861227
1835.514198	-3.003300	3.210800	-9.641800	27.823753	0.000506	20.857335
1836.517505	-3.010300	3.210800	-9.664200	27.827096	0.000504	20.838889
1837.513003	-3.020000	3.208700	-9.689100	27.825506	0.000506	20.847720
1838.516226	-3.010300	3.209400	-9.659900	27.834625	0.000505	20.852630
1839.513916	-3.010600	3.209300	-9.659900	27.834572	0.000503	20.861585
1840.514499	-3.023800	3.206200	-9.693400	27.819467	0.000502	20.870090
1841.516675	-3.012100	3.207900	-9.661000	27.812817	0.000502	20.833054
1842.513325	-2.999600	3.207100	-9.618900	27.795229	0.000499	20.854233
1843.512666	-3.003500	3.207400	-9.632000	27.798772	0.000500	20.864911
1844.513162	-2.991100	3.206900	-9.590600	27.800382	0.000497	20.839506
1845.515909	-3.000000	3.205200	-9.613700	27.838065	0.000498	20.837126
1846.513549	-2.979900	3.205500	-9.549900	27.889937	0.000496	20.838124
1847.513693	-2.993500	3.206400	-9.597600	27.870416	0.000496	20.843607
1848.516828	-2.987300	3.205700	-9.575800	27.867167	0.000493	20.838441
1849.517418	-3.025000	3.202500	-9.686600	27.863546	0.000495	20.845701
1850.514802	-2.983400	3.204700	-9.559700	27.904999	0.000492	20.849964
1851.516189	-3.007000	3.204700	-9.635300	27.915035	0.000491	20.838729
1852.514998	-3.005200	3.204500	-9.629100	27.896392	0.000489	20.830397
1853.513774	-3.020500	3.202700	-9.672600	27.888334	0.000490	20.868752
1854.516885	-3.031700	3.201400	-9.703100	27.951059	0.000488	20.847012
1855.515756	-3.005200	3.203400	-9.624700	27.982768	0.000488	20.845738
1856.514033	-2.996900	3.201000	-9.592300	28.005973	0.000487	20.837327
1857.516718	-3.002500	3.202800	-9.615600	28.056424	0.000485	20.850652
1858.516210	-3.000900	3.200000	-9.601700	28.062719	0.000485	20.847506
1859.517018	-3.034000	3.197700	-9.701300	28.104738	0.000484	20.850924
1860.517674	-2.988100	3.199600	-9.559400	28.118893	0.000484	20.839096
1861.519168	-3.017300	3.199400	-9.652700	28.067478	0.000483	20.830013
1862.517951	-3.016400	3.197100	-9.642800	28.052381	0.000481	20.848954
1863.517534	-3.045300	3.197400	-9.735200	28.001754	0.000480	20.834977
1864.521214	-3.037200	3.197300	-9.709600	27.979393	0.000480	20.826220
1865.522198	-3.007600	3.196800	-9.614100	28.023098	0.000478	20.836548
1866.518474	-2.994300	3.198800	-9.575700	28.047818	0.000479	20.843886
1867.523695	-3.012800	3.195700	-9.627600	28.015890	0.000478	20.816015
1868.519454	-3.004700	3.198600	-9.609800	28.049334	0.000476	20.837826
1869.518107	-3.002300	3.196600	-9.595900	28.014698	0.000477	20.824773
1870.519093	-2.992200	3.196100	-9.562000	28.058160	0.000475	20.830116
1871.519047	-2.978800	3.194800	-9.515800	28.085177	0.000476	20.840242
1872.518577	-3.005200	3.195000	-9.599000	28.071595	0.000474	20.836527
1873.518346	-3.007300	3.194600	-9.604900	28.017995	0.000474	20.840419
1874.521119	-3.008400	3.195700	-9.612600	28.012862	0.000475	20.831460
1875.523299	-3.015400	3.192700	-9.626600	27.994344	0.000475	20.831312
1876.521551	-2.995000	3.193600	-9.562800	27.998706	0.000472	20.837125
1877.522435	-3.009800	3.193100	-9.609100	28.048559	0.000471	20.837046
1878.522674	-2.981900	3.193300	-9.521500	28.066532	0.000472	20.842810
1879.520470	-2.985300	3.193400	-9.532200	28.118344	0.000469	20.818155
1880.523445	-2.980000	3.191600	-9.510000	28.133088	0.000471	20.813558
1881.521100	-3.005400	3.190300	-9.587300	28.134628	0.000467	20.825539
1882.520235	-3.004600	3.191100	-9.585700	28.099274	0.000469	20.827407
1883.524444	-2.972500	3.190600	-9.482900	28.049341	0.000468	20.858695
1884.521362	-2.989500	3.188200	-9.530200	28.017208	0.000466	20.819239
1885.522499	-3.010000	3.189100	-9.598000	27.977610	0.000467	20.833434
1886.523679	-2.999500	3.189100	-9.565100	27.956662	0.000465	20.808556
1887.521030	-2.987000	3.189900	-9.526900	27.984221	0.000462	20.809743
1888.521129	-2.990100	3.189500	-9.535900	27.995551	0.000463	20.844380
1889.523199	-2.988600	3.188300	-9.527700	28.009306	0.000462	20.842104
1890.523547	-2.989300	3.187400	-9.527200	28.050929	0.000464	20.823311
1891.527877	-3.007700	3.185600	-9.580100	28.077626	0.000460	20.828848
1892.524345	-2.991600	3.187500	-9.535100	28.090782	0.000458	20.817910
1893.521870	-3.008400	3.184100	-9.578200	28.127791	0.000458	20.823397
1894.523272	-2.988400	3.185300	-9.517800	28.079989	0.000459	20.811787
1895.523121	-3.014200	3.184000	-9.596300	28.031321	0.000458	20.831548
1896.525259	-3.004100	3.185800	-9.569300	27.991527	0.000454	20.824683
1897.523414	-3.011300	3.183700	-9.585800	27.965713	0.000456	20.807235
1898.523541	-2.994600	3.184900	-9.536400	27.971959	0.000454	20.827272
1899.524354	-3.025600	3.182600	-9.628000	27.997143	0.000450	20.835077
1900.524551	-2.996700	3.181500	-9.532000	28.020274	0.000450	20.808574
1901.524874	-2.970100	3.183200	-9.453200	28.018062	0.000449	20.811564
1902.525953	-3.000300	3.181300	-9.543300	27.995525	0.000447	20.833448
1903.525630	-2.989400	3.182900	-9.513800	27.984961	0.000447	20.818074
1904.525454	-2.992200	3.181000	-9.517400	27.927882	0.000445	20.843599
1905.528532	-2.984600	3.179900	-9.489200	27.933908	0.000446	20.818370
1906.529005	-3.000300	3.179600	-9.539400	27.916498	0.000444	20.803218
1907.529305	-3.000300	3.180300	-9.541000	27.953022	0.000444	20.823858
1908.528773	-2.992800	3.179000	-9.513100	27.913598	0.000442	20.824481
1909.529120	-2.987500	3.178400	-9.493700	27.963533	0.000442	20.841550
1910.527656	-2.984100	3.177100	-9.478500	27.952522	0.000442	20.813398
1911.532187	-3.014200	3.177200	-9.575900	27.964696	0.000439	20.811901
1912.531970	-3.027700	3.177300	-9.618500	28.020998	0.000438	20.814994
1913.530351	-3.022100	3.175500	-9.595800	27.993063	0.000440	20.818643
1914.532456	-3.014500	3.175200	-9.570500	28.000399	0.000436	20.820337
1915.530586	-3.000200	3.177300	-9.530900	27.995115	0.000436	20.812648
1916.531017	-2.994400	3.174700	-9.505200	27.967076	0.000435	20.804814
1917.534663	-2.992800	3.174900	-9.501600	27.950240	0.000435	20.804938
1918.530274	-3.046700	3.171800	-9.661300	27.925596	0.000435	20.822333
1919.533796	-3.000800	3.173100	-9.519900	27.911705	0.000434	20.802187
1920.535094	-3.008700	3.172200	-9.543200	27.898023	0.000433	20.821133
1921.532022	-2.998500	3.174000	-9.516200	27.874242	0.000433	20.803362
1922.532495	-2.993600	3.172500	-9.496600	27.882222	0.000429	20.824196
1923.536027	-2.982000	3.172700	-9.459500	27.859937	0.000429	20.813146
1924.534476	-2.997300	3.171700	-9.505900	27.852497	0.000429	20.811823
1925.534729	-3.018000	3.170900	-9.568200	27.840817	0.000425	20.808129
1926.537747	-2.988900	3.170800	-9.475500	27.840719	0.000427	20.811823
1927.538752	-3.006200	3.170000	-9.529100	27.851010	0.000427	20.806059
1928.535663	-3.004700	3.172200	-9.528900	27.903701	0.000424	20.813097
1929.538495	-2.979300	3.171100	-9.447100	27.971262	0.000423	20.782949
1930.540154	-3.002700	3.168100	-9.510600	28.006019	0.000422	20.816985
1931.535318	-2.981000	3.168600	-9.444700	28.057293	0.000421	20.805061
1932.537427	-2.987700	3.169500	-9.467600	28.114110	0.000422	20.795401
1933.535241	-3.002500	3.167900	-9.510100	28.196013	0.000420	20.822852
1934.534699	-2.987000	3.167800	-9.461400	28.214557	0.000418	20.788890
1935.537554	-3.018200	3.165500	-9.553600	28.228337	0.000419	20.792807
1936.535245	-2.990000	3.165900	-9.464600	28.242789	0.000417	20.821108
1937.536013	-3.009200	3.164700	-9.522200	28.264158	0.000414	20.812751
1938.536569	-3.004200	3.163700	-9.503000	28.289244	0.000417	20.807663
1939.537980	-3.015600	3.165000	-9.542700	28.313528	0.000414	20.803663
1940.537099	-3.003700	3.164200	-9.503100	28.336656	0.000412	20.800872
1941.537480	-2.994700	3.162500	-9.469800	28.369422	0.000414	20.804468
1942.541676	-3.033100	3.160300	-9.583400	28.394113	0.000412	20.793768
1943.537798	-2.988000	3.162100	-9.447600	28.404149	0.000410	20.796288
1944.538222	-3.018800	3.161500	-9.542700	28.443702	0.000410	20.810512
1945.538760	-3.008600	3.159000	-9.503000	28.472821	0.000408	20.800481
1946.538359	-2.997400	3.159500	-9.468800	28.517203	0.000408	20.798234
1947.537432	-2.972300	3.160100	-9.391500	28.549444	0.000408	20.819323
1948.540026	-2.997200	3.159600	-9.467400	28.520752	0.000405	20.798964
1949.537332	-2.989600	3.159200	-9.443900	28.504097	0.000408	20.800683
1950.537106	-3.001400	3.157800	-9.476700	28.459146	0.000405	20.797615
1951.539427	-3.012800	3.158000	-9.513300	28.394592	0.000404	20.804682
1952.538469	-3.000500	3.156900	-9.471500	28.362077	0.000401	20.811770
1953.540244	-3.011700	3.156100	-9.503500	28.355259	0.000403	20.793999
1954.541072	-3.016800	3.158300	-9.526700	28.331742	0.000400	20.783597
1955.539819	-3.007000	3.155800	-9.488300	28.369042	0.000398	20.787963
1956.541205	-2.971100	3.157200	-9.379400	28.395367	0.000400	20.777487
1957.541471	-2.995600	3.154800	-9.449800	28.453406	0.000399	20.788516
1958.543794	-3.010400	3.155800	-9.499000	28.462484	0.000398	20.777742
1959.541924	-3.024700	3.152300	-9.533900	28.387366	0.000398	20.794086
1960.541626	-2.992500	3.152900	-9.434500	28.304589	0.000396	20.790396
1961.543107	-3.015000	3.151300	-9.500800	28.251693	0.000396	20.787873
1962.542213	-2.994700	3.152100	-9.438200	28.244854	0.000396	20.789048
1963.543509	-3.000000	3.150000	-9.449100	28.272488	0.000392	20.790318
1964.546290	-2.995600	3.151000	-9.438500	28.301612	0.000391	20.789295
1965.549443	-2.985200	3.151700	-9.406700	28.334355	0.000391	20.798082
1966.545736	-3.020700	3.150100	-9.514100	28.366528	0.000392	20.794441
1967.545618	-2.986000	3.149900	-9.403200	28.397758	0.000390	20.776576
1968.550001	-2.992600	3.148900	-9.422000	28.424549	0.000389	20.787906
1969.547125	-3.005700	3.149200	-9.464000	28.429135	0.000386	20.796791
1970.546258	-2.981400	3.148900	-9.387300	28.406705	0.000387	20.777050
1971.549734	-3.003900	3.147800	-9.454500	28.405910	0.000386	20.785259
1972.548083	-3.019200	3.147400	-9.501900	28.399494	0.000385	20.766470
1973.546506	-3.017600	3.146700	-9.493900	28.353499	0.000385	20.769942
1974.550771	-3.015900	3.145400	-9.485200	28.355681	0.000382	20.768820
1975.546715	-3.014100	3.145600	-9.480600	28.349588	0.000382	20.788290
1976.563685	-2.997100	3.143900	-9.421400	28.381261	0.000380	20.782250
1977.547749	-3.022100	3.144700	-9.501400	28.378145	0.000381	20.765361
1978.550688	-3.020100	3.143000	-9.490700	28.373064	0.000377	20.764986
1979.548279	-3.029000	3.142400	-9.516100	28.390933	0.000380	20.776815
1980.551212	-2.985300	3.143500	-9.382900	28.332767	0.000378	20.772775
1981.556512	-3.012800	3.141500	-9.463400	28.316662	0.000374	20.763671
1982.548133	-3.004100	3.142400	-9.439300	28.338324	0.000375	20.757033
1983.549187	-2.996700	3.140400	-9.410000	28.352504	0.000375	20.773208
1984.552013	-2.994600	3.141100	-9.404500	28.371070	0.000373	20.767246
1985.549285	-2.991700	3.142100	-9.398400	28.399696	0.000371	20.766199
1986.548932	-2.984600	3.140100	-9.370600	28.414494	0.000372	20.750279
1987.552424	-2.949400	3.140000	-9.259400	28.386118	0.000372	20.756320
1988.548646	-2.986600	3.137900	-9.370500	28.344610	0.000369	20.760517
1989.549880	-3.015400	3.136500	-9.455500	28.299005	0.000369	20.754902
1990.549675	-3.004200	3.137900	-9.426300	28.234495	0.000369	20.749220
1991.549679	-2.997100	3.136500	-9.399700	28.206164	0.000367	20.755784
1992.550175	-2.983500	3.137100	-9.358500	28.240024	0.000366	20.747200
1993.549857	-2.998700	3.136100	-9.402800	28.270119	0.000364	20.751422
1994.550861	-3.005200	3.134900	-9.419300	28.280582	0.000364	20.765751
1995.556631	-3.001500	3.133200	-9.403500	28.285095	0.000363	20.742318
1996.551127	-3.007700	3.132800	-9.420100	28.302872	0.000362	20.762588
1997.552452	-2.995500	3.133300	-9.383800	28.382758	0.000362	20.768584
1998.551435	-3.024600	3.131600	-9.470300	28.410544	0.000358	20.756734
1999.552208	-3.007000	3.132300	-9.417700	28.418398	0.000359	20.751365
2000.552054	-2.992100	3.131400	-9.368500	28.452034	0.000360	20.770064
2001.551795	-3.018500	3.129900	-9.446800	28.435038	0.000358	20.740147
2002.551303	-2.978700	3.130800	-9.324400	28.432438	0.000357	20.760289
2003.552144	-2.969000	3.130600	-9.293700	28.456158	0.000358	20.724903
2004.551370	-2.991800	3.130200	-9.363200	28.485526	0.000355	20.752583
2005.551563	-2.972000	3.129400	-9.300500	28.537989	0.000354	20.750414
2006.551223	-3.005000	3.127400	-9.395900	28.560367	0.000355	20.736915
2007.551628	-3.007900	3.125000	-9.398400	28.540950	0.000352	20.737274
2008.553257	-2.994400	3.127800	-9.363500	28.476176	0.000352	20.732260
2009.554179	-3.007300	3.127000	-9.402800	28.452584	0.000351	20.744065
2010.555747	-3.010400	3.124300	-9.403700	28.408921	0.000349	20.751780
2011.555121	-2.997600	3.124400	-9.365100	28.399262	0.000351	20.742054
2012.555033	-2.980000	3.124000	-9.308700	28.439340	0.000351	20.734521
2013.556093	-2.993500	3.124000	-9.350500	28.488087	0.000349	20.739040
2014.557195	-2.994500	3.122200	-9.347100	28.526352	0.000349	20.721623
2015.555715	-3.010600	3.121400	-9.396000	28.553021	0.000350	20.725248
2016.555745	-2.998200	3.121400	-9.356900	28.568709	0.000347	20.728720
2017.560091	-2.997200	3.121200	-9.353400	28.550200	0.000347	20.740900
2018.556279	-3.013000	3.119600	-9.398200	28.560386	0.000347	20.717492
2019.556340	-3.007300	3.119400	-9.380400	28.560136	0.000345	20.733363
2020.559447	-3.003300	3.118500	-9.364600	28.598276	0.000342	20.733841
2021.556073	-3.000500	3.117700	-9.354200	28.594534	0.000344	20.741927
2022.556267	-2.985800	3.117000	-9.305700	28.572284	0.000342	20.715724
2023.559543	-2.978800	3.118100	-9.287500	28.588213	0.000342	20.733664
2024.556076	-2.983100	3.116700	-9.296300	28.587226	0.000340	20.732671
2025.556810	-3.013200	3.115100	-9.385500	28.600183	0.000337	20.730547
2026.563138	-3.013200	3.114500	-9.383600	28.544109	0.000340	20.733817
2027.558026	-2.991500	3.114800	-9.317200	28.583112	0.000339	20.723785
2028.559159	-2.988100	3.115300	-9.306700	28.600007	0.000338	20.737482
2029.560192	-2.995800	3.114100	-9.328700	28.608658	0.000337	20.726279
2030.565613	-2.977000	3.112700	-9.265400	28.634100	0.000335	20.722032
2031.560253	-3.009400	3.111700	-9.362700	28.646766	0.000335	20.705865
2032.561368	-3.011900	3.111500	-9.370600	28.665994	0.000333	20.721439
2033.562155	-2.998800	3.110700	-9.328000	28.684697	0.000334	20.715620
2034.560818	-2.990800	3.109200	-9.297500	28.678258	0.000333	20.731421
2035.561284	-3.000500	3.108100	-9.325400	28.628185	0.000330	20.735516
2036.564315	-3.024000	3.107000	-9.394800	28.604371	0.000331	20.738084
2037.562324	-2.981600	3.108900	-9.268200	28.576820	0.000329	20.727405
2038.561030	-2.986000	3.108700	-9.281800	28.538439	0.000329	20.730477
2039.565219	-2.999100	3.106800	-9.317200	28.491876	0.000326	20.715353
2040.565164	-2.982100	3.107600	-9.266300	28.534574	0.000327	20.716153
2041.563292	-3.014200	3.105200	-9.358300	28.547757	0.000324	20.731801
2042.561233	-2.997000	3.104600	-9.303000	28.582797	0.000324	20.707345
2043.566986	-2.989000	3.104300	-9.277600	28.618671	0.000325	20.710759
2044.562937	-3.008200	3.102700	-9.332500	28.624001	0.000325	20.702377
2045.562170	-3.009200	3.101700	-9.331900	28.572931	0.000324	20.739610
2046.565664	-3.019800	3.101500	-9.364900	28.530729	0.000322	20.714652
2047.566814	-2.986500	3.101700	-9.262400	28.480056	0.000321	20.710087
2048.564136	-2.999300	3.100200	-9.297200	28.429473	0.000320	20.710359
2049.568038	-2.966100	3.101000	-9.196600	28.470188	0.000318	20.733817
2050.567218	-3.005700	3.098400	-9.310600	28.504363	0.000320	20.692365
2051.564823	-3.021800	3.097000	-9.357300	28.592233	0.000317	20.707840
2052.568001	-3.014600	3.097100	-9.334900	28.582617	0.000318	20.724708
2053.567206	-2.990100	3.096100	-9.255900	28.612948	0.000316	20.724436
2054.563844	-3.014000	3.095000	-9.326900	28.625115	0.000315	20.702550
2055.568882	-3.001800	3.094600	-9.288600	28.682548	0.000315	20.708240
2056.565727	-2.987500	3.094800	-9.244800	28.688168	0.000313	20.714849
2057.566327	-3.011000	3.094400	-9.316200	28.650757	0.000313	20.707514
2058.565170	-2.999800	3.093600	-9.279400	28.619191	0.000313	20.713654
2059.565557	-3.002000	3.092100	-9.281000	28.621770	0.000311	20.709139
2060.565664	-3.000300	3.092500	-9.277100	28.639213	0.000310	20.701577
2061.566211	-3.001300	3.091300	-9.276400	28.668680	0.000312	20.701383
2062.567111	-2.983100	3.090500	-9.217400	28.690080	0.000308	20.710137
2063.567499	-3.016700	3.089700	-9.319500	28.708738	0.000307	20.724189
2064.567111	-2.997300	3.089000	-9.257800	28.726430	0.000307	20.716404
2065.568956	-3.014100	3.087300	-9.304200	28.705120	0.000307	20.721492
2066.567199	-2.993800	3.087900	-9.243500	28.651110	0.000307	20.697911
2067.569242	-2.960300	3.087500	-9.138800	28.588050	0.000304	20.699833
2068.568542	-2.996000	3.085600	-9.243500	28.563298	0.000305	20.715683
2069.569196	-2.987600	3.085300	-9.215800	28.605895	0.000304	20.720178
2070.571347	-2.981100	3.086200	-9.199000	28.630498	0.000303	20.721724
2071.568737	-3.002500	3.083600	-9.258000	28.643930	0.000302	20.721027
2072.573431	-2.997100	3.083300	-9.239500	28.649403	0.000301	20.734127
2073.575217	-2.995700	3.081300	-9.228900	28.629115	0.000302	20.706105
2074.571302	-3.007200	3.081100	-9.264800	28.597622	0.000301	20.739347
2075.572108	-3.007500	3.080400	-9.263500	28.596631	0.000300	20.718908
2076.569312	-3.006800	3.079900	-9.260200	28.600770	0.000299	20.706480
2077.569980	-3.022900	3.079300	-9.307200	28.656670	0.000299	20.712047
2078.568737	-2.994800	3.078100	-9.217100	28.688976	0.000299	20.717085
2079.573610	-3.027700	3.075400	-9.310300	28.677854	0.000297	20.710150
2080.569741	-2.992700	3.077500	-9.209000	28.634224	0.000297	20.712199
2081.570704	-2.992300	3.075700	-9.203000	28.636623	0.000296	20.710348
2082.574945	-2.971200	3.076200	-9.139100	28.632607	0.000296	20.706303
2083.571148	-2.997800	3.074300	-9.215600	28.642469	0.000295	20.720503
2084.573967	-3.004300	3.074100	-9.234800	28.680252	0.000295	20.711618
2085.574369	-3.009300	3.072500	-9.244500	28.708993	0.000294	20.711168
2086.573110	-3.021900	3.070400	-9.276100	28.765009	0.000292	20.697891
2087.571632	-3.000400	3.070700	-9.212500	28.798454	0.000293	20.711667
2088.573906	-3.007400	3.070300	-9.232500	28.832668	0.000290	20.708674
2089.571518	-3.020600	3.067900	-9.265700	28.879285	0.000289	20.710591
2090.570806	-2.980400	3.069300	-9.146600	28.939577	0.000288	20.713959
2091.572027	-3.001200	3.067900	-9.207100	28.925683	0.000288	20.713238
2092.571620	-2.977300	3.068700	-9.134700	28.925012	0.000286	20.740064
2093.570910	-2.996200	3.066700	-9.187300	28.877349	0.000288	20.710063
2094.572040	-2.968600	3.065800	-9.099300	28.787128	0.000286	20.714009
2095.573015	-3.005700	3.064500	-9.210200	28.699299	0.000286	20.727484
2096.570073	-2.999600	3.062600	-9.185600	28.645358	0.000287	20.729578
2097.572604	-2.991700	3.063100	-9.163000	28.624967	0.000285	20.718524
2098.572630	-3.008700	3.062700	-9.213100	28.579747	0.000283	20.724663
2099.572143	-3.001300	3.061100	-9.186900	28.550258	0.000282	20.731949
2100.572877	-3.037500	3.059300	-9.291400	28.534770	0.000281	20.724412
2101.571901	-2.994300	3.061400	-9.165600	28.573823	0.000281	20.718223
2102.574438	-3.001300	3.058700	-9.178700	28.601428	0.000280	20.707143
2103.573489	-3.024000	3.057400	-9.243900	28.686760	0.000279	20.715328
2104.573678	-3.006600	3.056600	-9.190100	28.711391	0.000278	20.728284
2105.573254	-2.997500	3.055500	-9.157600	28.740503	0.000279	20.718726
2106.578952	-2.992000	3.055500	-9.140500	28.752942	0.000276	20.726041
2107.574967	-3.000700	3.054200	-9.164400	28.708890	0.000276	20.704426
2108.579291	-3.013100	3.052600	-9.196900	28.660849	0.000275	20.735698
2109.578829	-2.996000	3.052300	-9.142800	28.625742	0.000273	20.714562
2110.575464	-3.001500	3.051100	-9.156900	28.604335	0.000275	20.715287
2111.577443	-3.003200	3.049700	-9.158200	28.562508	0.000274	20.724371
2112.582257	-2.993600	3.050500	-9.130400	28.559757	0.000274	20.708323
2113.576255	-2.985500	3.049800	-9.104300	28.616159	0.000275	20.739525
2114.576193	-2.994400	3.048100	-9.125800	28.614251	0.000273	20.723852
2115.579983	-2.997700	3.046700	-9.132000	28.629590	0.000270	20.734086
2116.577692	-3.010300	3.045500	-9.167100	28.624686	0.000273	20.714447
2117.576067	-2.993200	3.045200	-9.113300	28.636308	0.000271	20.727101
2118.579645	-2.985700	3.044900	-9.090300	28.664211	0.000272	20.725807
2119.578326	-2.981700	3.043700	-9.074800	28.670036	0.000271	20.719346
2120.576652	-3.009900	3.041400	-9.151300	28.634876	0.000270	20.736091
2121.576142	-3.021100	3.041600	-9.187800	28.614387	0.000268	20.721618
2122.577967	-3.021400	3.039200	-9.182000	28.626279	0.000269	20.737390
2123.576836	-2.991900	3.039800	-9.092300	28.654677	0.000269	20.721420
2124.579235	-3.001700	3.037500	-9.116600	28.623062	0.000266	20.724665
2125.578018	-2.983400	3.037400	-9.061400	28.620462	0.000265	20.741014
2126.578630	-2.998000	3.035200	-9.098900	28.659213	0.000265	20.729782
2127.578453	-2.999100	3.035200	-9.101700	28.751012	0.000264	20.728838
2128.579229	-3.002500	3.034100	-9.108600	28.802222	0.000265	20.738223
2129.578259	-2.981800	3.033800	-9.045000	28.848325	0.000264	20.718757
2130.579487	-2.987600	3.033200	-9.060500	28.889253	0.000262	20.732962
2131.579430	-2.994700	3.031700	-9.077600	28.896264	0.000264	20.746190
2132.580056	-3.001600	3.030200	-9.094700	28.923517	0.000263	20.730023
2133.579891	-3.012600	3.027600	-9.119000	28.903132	0.000262	20.725133
2134.579911	-3.011500	3.027500	-9.116400	28.867783	0.000262	20.731247
2135.579180	-3.012800	3.026800	-9.118200	28.893003	0.000261	20.724411
2136.580160	-3.008100	3.025400	-9.099700	28.842097	0.000260	20.749943
2137.582033	-3.001900	3.024800	-9.079200	28.811232	0.000259	20.734023
2138.580036	-3.013600	3.023500	-9.110600	28.782523	0.000260	20.746356
2139.580796	-3.012100	3.022500	-9.102600	28.785323	0.000260	20.717880
2140.586052	-3.002500	3.021300	-9.070400	28.758718	0.000260	20.751774
2141.582958	-2.995900	3.021100	-9.049400	28.783920	0.000258	20.739228
2142.583783	-2.988300	3.020200	-9.024600	28.789220	0.000258	20.736032
2143.585975	-2.984100	3.018500	-9.006000	28.782909	0.000256	20.748167
2144.584206	-3.002300	3.017200	-9.058000	28.792176	0.000256	20.762718
2145.585165	-2.979600	3.017100	-8.988700	28.798320	0.000255	20.743776
2146.587300	-2.995900	3.015100	-9.031600	28.803752	0.000258	20.740713
2147.585600	-2.995400	3.014000	-9.027300	28.890279	0.000256	20.743954
2148.585351	-2.983800	3.013300	-8.989800	28.925411	0.000258	20.735250
2149.586605	-3.014000	3.011100	-9.074900	28.927597	0.000253	20.750255
2150.584726	-3.003800	3.011600	-9.045400	28.966586	0.000255	20.735956
2151.585292	-2.996500	3.009600	-9.017900	29.002128	0.000254	20.730038
2152.588875	-2.998700	3.009400	-9.023700	29.016324	0.000253	20.750507
2153.585362	-3.001100	3.007200	-9.024100	29.008524	0.000252	20.721310
2154.586703	-2.988400	3.007300	-8.986100	28.956634	0.000251	20.756275
2155.594490	-2.988700	3.005000	-8.980000	28.948162	0.000251	20.765759
2156.587676	-2.964500	3.005000	-8.907500	28.963423	0.000251	20.737511
2157.588573	-3.004700	3.002800	-9.020400	28.999322	0.000251	20.742859
2158.589931	-3.030600	3.000000	-9.091100	29.017132	0.000250	20.752743
2159.587846	-2.990800	3.001000	-8.974700	29.039872	0.000251	20.735825
2160.588579	-2.973400	2.999900	-8.918400	29.064073	0.000250	20.736028
2161.587153	-3.012000	2.996200	-9.023000	29.113061	0.000249	20.757889
2162.588470	-3.006300	2.998100	-9.012600	29.102116	0.000248	20.760136
2163.587973	-2.960000	2.995900	-8.866400	29.102890	0.000249	20.761390
2164.588783	-2.985400	2.995500	-8.941600	29.138947	0.000251	20.749833
2165.591115	-2.988600	2.993900	-8.947300	29.110419	0.000249	20.739578
2166.590334	-2.985000	2.992000	-8.930100	29.059499	0.000248	20.779784
2167.590086	-3.017900	2.989500	-9.020400	29.057989	0.000248	20.749338
2168.592104	-3.002700	2.989800	-8.975900	29.084934	0.000248	20.750410
2169.590619	-3.006300	2.987200	-8.979500	29.117428	0.000246	20.739529
2170.591858	-3.033000	2.986100	-9.054700	29.127343	0.000248	20.735769
2171.591595	-3.010700	2.984200	-8.984100	29.183093	0.000246	20.750696
2172.591910	-2.989300	2.985700	-8.924300	29.164992	0.000247	20.766121
2173.593348	-2.998400	2.984300	-8.947500	29.156150	0.000247	20.742037
2174.593331	-2.988500	2.982200	-8.911400	29.108476	0.000246	20.762752
2175.593655	-3.001600	2.980600	-8.945600	29.046913	0.000246	20.743395
2176.593215	-2.990000	2.978500	-8.905100	28.987167	0.000244	20.745786
2177.593904	-2.977800	2.977900	-8.866200	28.973220	0.000246	20.742639
2178.594780	-2.997100	2.977500	-8.922900	28.953094	0.000242	20.756977
2179.599417	-2.996300	2.974900	-8.913000	28.965772	0.000242	20.741300
2180.596621	-2.997000	2.973800	-8.911500	29.013236	0.000242	20.757827
2181.596367	-3.006200	2.972600	-8.935400	29.042732	0.000244	20.755777
2182.598923	-3.044500	2.970300	-9.040900	29.067697	0.000244	20.755802
2183.597958	-3.017700	2.968800	-8.958500	29.064354	0.000244	20.768081
2184.599257	-3.000100	2.969300	-8.905900	29.091275	0.000243	20.761067
2185.603458	-3.005700	2.966500	-8.915400	29.147522	0.000244	20.758474
2186.599612	-3.035900	2.964100	-8.997300	29.174744	0.000243	20.775474
2187.601467	-3.023200	2.963300	-8.957500	29.229197	0.000243	20.759224
2188.603319	-2.989800	2.962600	-8.856900	29.219566	0.000242	20.764692
2189.599772	-3.028300	2.960300	-8.964000	29.174204	0.000241	20.762602
2190.604104	-2.991300	2.959100	-8.850500	29.151839	0.000243	20.770411
2191.601007	-2.996800	2.957700	-8.863200	29.172597	0.000242	20.766198
2192.602222	-3.019900	2.954400	-8.920900	29.221408	0.000243	20.772238
2193.601729	-2.995600	2.954500	-8.849500	29.236137	0.000241	20.774753
2194.605414	-2.959600	2.955500	-8.745700	29.247512	0.000241	20.764405
2195.602540	-2.989200	2.953500	-8.827100	29.255236	0.000241	20.763654
2196.606699	-3.007800	2.950700	-8.873700	29.272722	0.000241	20.797398
2197.606944	-3.008100	2.948500	-8.868800	29.318511	0.000240	20.776688
2198.604586	-3.015200	2.945700	-8.880600	29.350380	0.000240	20.761865
2199.603751	-3.009900	2.945400	-8.864500	29.373334	0.000239	20.783578
2200.607912	-3.018900	2.942100	-8.881000	29.390499	0.000239	20.771956
2201.605569	-3.004800	2.942300	-8.840000	29.395993	0.000243	20.777967
2202.604283	-2.995100	2.941100	-8.807900	29.386461	0.000239	20.781162
2203.604383	-3.009400	2.939000	-8.843800	29.374680	0.000239	20.770236
2204.607045	-3.007700	2.937100	-8.833100	29.356730	0.000241	20.786284
2205.606602	-3.006900	2.936500	-8.828600	29.377233	0.000239	20.762852
2206.605874	-3.004000	2.935100	-8.816000	29.431754	0.000239	20.770864
2207.610529	-3.028600	2.931700	-8.877900	29.425100	0.000240	20.775536
2208.605176	-3.027900	2.930000	-8.870500	29.439506	0.000243	20.785790
2209.606900	-3.002800	2.930000	-8.797100	29.435670	0.000240	20.774810
2210.607238	-3.020300	2.926700	-8.838200	29.449336	0.000240	20.774834
2211.606932	-2.971300	2.927700	-8.698200	29.469740	0.000240	20.778805
2212.606668	-3.028500	2.924500	-8.855200	29.408537	0.000240	20.772592
2213.610021	-2.979300	2.924500	-8.712100	29.334402	0.000241	20.763306
2214.610889	-2.989200	2.922000	-8.733400	29.269780	0.000240	20.782104
2215.606854	-2.996300	2.920100	-8.748300	29.241668	0.000239	20.784594
2216.607281	-3.004100	2.918100	-8.765700	29.256155	0.000238	20.769322
2217.609556	-2.980100	2.919500	-8.697600	29.258831	0.000237	20.788140
2218.610043	-3.002000	2.914800	-8.748200	29.264305	0.000239	20.759992
2219.608634	-2.991400	2.912900	-8.712800	29.265320	0.000239	20.797524
2220.608066	-3.005400	2.911100	-8.746000	29.266261	0.000239	20.780929
2221.608632	-2.994800	2.911000	-8.716800	29.321802	0.000238	20.789963
2222.607999	-2.984600	2.907100	-8.676000	29.352034	0.000239	20.800518
2223.608077	-3.000700	2.905900	-8.718600	29.383162	0.000239	20.782104
2224.608871	-3.029800	2.904200	-8.798100	29.363967	0.000241	20.796423
2225.609974	-2.998000	2.902800	-8.701100	29.331064	0.000239	20.777960
2226.611271	-3.014500	2.900900	-8.743800	29.342375	0.000240	20.798369
2227.611007	-3.015800	2.899200	-8.742100	29.392468	0.000237	20.806183
2228.610735	-3.011000	2.898700	-8.726500	29.435297	0.000238	20.783443
2229.613534	-2.999800	2.896400	-8.687900	29.476399	0.000239	20.795949
2230.610453	-2.999900	2.895100	-8.684000	29.529225	0.000238	20.791351
2231.609991	-3.002800	2.892800	-8.685600	29.527442	0.000240	20.788605
2232.611512	-3.008500	2.890100	-8.694000	29.530465	0.000239	20.801610
2233.611423	-3.020500	2.888400	-8.723800	29.513997	0.000238	20.819148
2234.611012	-3.023100	2.885800	-8.722800	29.531151	0.000238	20.805621
2235.614624	-2.996900	2.885300	-8.645000	29.519784	0.000236	20.786576
2236.614795	-3.006100	2.882600	-8.665000	29.531543	0.000239	20.802223
2237.612007	-2.991300	2.881600	-8.617900	29.512454	0.000239	20.806214
2238.612080	-3.009500	2.880100	-8.666900	29.486975	0.000238	20.801394
2239.611805	-2.995900	2.878200	-8.621400	29.445648	0.000238	20.802411
2240.610938	-2.988100	2.875900	-8.592200	29.370330	0.000236	20.830337
2241.611258	-2.993300	2.872900	-8.598500	29.359354	0.000237	20.808843
2242.611713	-3.009400	2.870900	-8.639000	29.409392	0.000236	20.801429
2243.611820	-3.003200	2.869500	-8.617100	29.458188	0.000240	20.806517
2244.613552	-3.019400	2.865900	-8.652400	29.443189	0.000239	20.815105
2245.612399	-3.014100	2.863400	-8.630300	29.401067	0.000239	20.828125
2246.612286	-2.987500	2.862500	-8.550400	29.325766	0.000239	20.819087
2247.613489	-2.994200	2.861200	-8.565400	29.317739	0.000240	20.806730
2248.615988	-2.996200	2.859400	-8.566500	29.264893	0.000238	20.816534
2249.615837	-2.997000	2.855200	-8.556000	29.315946	0.000238	20.829105
2250.615418	-2.994800	2.855200	-8.549100	29.324164	0.000238	20.795188
2251.618111	-3.007800	2.852400	-8.578800	29.371475	0.000239	20.812999
2252.621171	-2.988100	2.852700	-8.523100	29.367982	0.000239	20.813271
2253.616352	-3.029800	2.848300	-8.629300	29.395978	0.000238	20.822997
2254.615198	-2.984800	2.847100	-8.497200	29.403178	0.000241	20.832623
2255.615637	-3.012100	2.845600	-8.569800	29.458408	0.000239	20.815747
2256.616148	-3.004300	2.842300	-8.538000	29.517792	0.000239	20.832931
2257.616275	-3.016500	2.841000	-8.569100	29.524676	0.000239	20.825646
2258.616517	-2.985900	2.838000	-8.473000	29.466265	0.000237	20.815132
2259.618915	-3.030500	2.835600	-8.591000	29.473537	0.000238	20.825307
2260.618840	-3.031600	2.833000	-8.588000	29.521091	0.000239	20.830567
2261.623353	-3.000600	2.831000	-8.493600	29.571068	0.000238	20.827367
2262.619820	-3.025200	2.827600	-8.552900	29.613244	0.000238	20.835744
2263.620347	-2.993300	2.826600	-8.459500	29.637197	0.000236	20.834762
2264.623142	-2.975800	2.826500	-8.410100	29.647119	0.000236	20.841445
2265.622638	-2.986800	2.823400	-8.431300	29.660925	0.000236	20.832131
2266.619843	-3.015400	2.820400	-8.502900	29.615692	0.000239	20.827781
2267.623692	-2.975200	2.818400	-8.384300	29.604154	0.000237	20.835115
2268.622844	-2.999100	2.816300	-8.445300	29.537158	0.000237	20.850081
2269.623712	-2.994800	2.814200	-8.426100	29.462455	0.000238	20.843059
2270.623506	-2.982300	2.810500	-8.380800	29.462206	0.000237	20.845652
2271.623752	-3.004300	2.809100	-8.437700	29.488319	0.000238	20.830723
2272.623466	-2.985600	2.807400	-8.381000	29.518787	0.000236	20.844839
2273.623923	-2.986000	2.805600	-8.376500	29.571415	0.000234	20.837673
2274.624145	-2.998300	2.802700	-8.401900	29.568241	0.000238	20.850120
2275.623368	-2.968100	2.800100	-8.310000	29.581054	0.000235	20.838856
2276.640271	-2.983300	2.796400	-8.341000	29.607512	0.000237	20.834233
2277.623188	-3.010200	2.793500	-8.408200	29.628947	0.000236	20.869591
2278.623483	-3.015500	2.792500	-8.418500	29.627233	0.000235	20.861700
2279.624055	-3.010800	2.787800	-8.392300	29.680694	0.000235	20.855853
2280.623687	-3.002400	2.785900	-8.363400	29.723041	0.000235	20.852554
2281.623151	-3.010200	2.783900	-8.378500	29.777667	0.000236	20.852154
2282.623468	-2.996300	2.781000	-8.330500	29.808523	0.000237	20.845335
2283.624874	-2.987500	2.778100	-8.297600	29.824336	0.000235	20.861278
2284.624149	-2.983500	2.774900	-8.278000	29.837498	0.000235	20.865067
2285.623981	-3.009500	2.771700	-8.339700	29.845913	0.000234	20.885404
2286.624410	-2.963100	2.771800	-8.212400	29.869220	0.000233	20.859121
2287.622913	-2.999900	2.767700	-8.301200	29.890748	0.000234	20.837682
2288.624615	-2.990000	2.764000	-8.263600	29.937642	0.000233	20.878329
2289.625597	-2.994100	2.761600	-8.266000	29.946923	0.000234	20.858766
2290.628531	-3.013800	2.757400	-8.309000	29.954343	0.000231	20.858663
2291.627056	-2.994100	2.754300	-8.245200	29.907966	0.000235	20.862155
2292.629569	-2.970000	2.753500	-8.175900	29.857251	0.000232	20.876923
2293.631203	-3.023500	2.748100	-8.305700	29.840969	0.000235	20.869040
2294.627754	-3.004500	2.746500	-8.250100	29.845565	0.000235	20.888845
2295.630910	-2.958300	2.744200	-8.117200	29.865392	0.000235	20.894139
2296.629159	-2.994100	2.740100	-8.203800	29.840318	0.000234	20.874074
2297.628121	-2.999100	2.737300	-8.207800	29.770050	0.000236	20.869130
2298.629254	-2.975400	2.733700	-8.133000	29.699131	0.000235	20.879181
2299.633848	-2.990700	2.730700	-8.165300	29.657151	0.000236	20.880954
2300.630004	-2.970500	2.728800	-8.105000	29.654398	0.000234	20.872016
2301.630288	-2.992700	2.723700	-8.150000	29.694669	0.000234	20.881795
2302.631371	-2.976700	2.722000	-8.100100	29.755900	0.000235	20.874778
2303.631262	-3.012600	2.717100	-8.184800	29.820571	0.000237	20.889723
2304.631107	-3.028100	2.713700	-8.216000	29.801013	0.000235	20.882805
2305.632728	-3.020400	2.708700	-8.180400	29.811158	0.000235	20.881180
2306.631802	-2.987700	2.707100	-8.087600	29.771554	0.000238	20.906679
2307.631973	-2.994000	2.703600	-8.093500	29.757687	0.000238	20.891750
2308.632390	-3.032400	2.698000	-8.179900	29.797954	0.000236	20.876401
2309.635693	-2.960900	2.698400	-7.989300	29.847869	0.000236	20.899229
2310.634261	-2.964900	2.693300	-7.984500	29.845436	0.000237	20.884923
2311.635861	-2.975700	2.690400	-8.004400	29.843595	0.000238	20.891127
2312.635392	-3.012100	2.683300	-8.081700	29.875514	0.000234	20.893440
2313.635640	-2.987500	2.680500	-8.006900	29.906274	0.000237	20.886052
2314.636287	-2.992700	2.677700	-8.012400	29.892605	0.000239	20.899294
2315.636290	-2.995800	2.672700	-8.005700	29.894158	0.000236	20.912713
2316.636926	-2.989500	2.669800	-7.979300	29.886553	0.000234	20.933017
2317.635705	-2.991400	2.666300	-7.974900	29.919709	0.000237	20.913348
2318.635737	-3.005400	2.660600	-7.995500	29.934992	0.000234	20.897467
2319.635805	-3.012600	2.657100	-8.003200	30.004599	0.000235	20.910762
2320.638682	-3.022100	2.652800	-8.015700	30.002146	0.000235	20.915400
2321.636185	-3.044900	2.648400	-8.062600	29.954033	0.000234	20.891064
2322.637599	-3.030700	2.644400	-8.012800	29.923613	0.000234	20.903535
2323.636600	-2.994500	2.640800	-7.906700	29.932073	0.000234	20.909694
2324.640953	-2.972600	2.637800	-7.839100	29.981017	0.000235	20.884138
2325.636816	-3.039800	2.630300	-7.994500	30.012040	0.000233	20.904990
2326.636607	-3.016000	2.627000	-7.921800	30.012036	0.000233	20.900719
2327.638814	-3.023300	2.622500	-7.927500	30.002996	0.000233	20.897293
2328.638328	-2.993800	2.618300	-7.836800	29.939244	0.000235	20.884212
2329.636896	-3.003000	2.612600	-7.844700	29.874944	0.000235	20.906615
2330.639071	-3.022400	2.606700	-7.876700	29.806486	0.000234	20.879314
2331.638454	-2.987400	2.602600	-7.774200	29.737397	0.000234	20.908750
2332.636632	-2.998800	2.596400	-7.785500	29.744247	0.000234	20.887683
2333.639800	-2.981300	2.591100	-7.724300	29.790280	0.000237	20.882414
2334.638701	-3.037900	2.585200	-7.851600	29.773666	0.000235	20.896007
2335.636608	-2.992600	2.581300	-7.723800	29.759925	0.000235	20.883103
2336.639139	-2.983300	2.576400	-7.684900	29.740959	0.000236	20.903807
2337.639200	-2.999500	2.568100	-7.701600	29.739000	0.000236	20.882868
2338.635659	-3.004300	2.563100	-7.698800	29.746373	0.000237	20.895517
2339.640663	-3.019000	2.557100	-7.719000	29.743421	0.000237	20.872627
2340.638803	-2.988300	2.552200	-7.625400	29.760368	0.000233	20.881652
2341.639771	-3.001900	2.545700	-7.641200	29.794967	0.000234	20.883821
2342.640315	-2.990400	2.540200	-7.595300	29.867282	0.000234	20.876606
2343.640514	-3.002200	2.533500	-7.605700	29.917934	0.000232	20.870785
2344.642462	-3.019500	2.526500	-7.627500	29.948996	0.000233	20.864176
2345.638953	-3.014000	2.520800	-7.596700	29.965444	0.000233	20.881710
2346.642002	-3.016900	2.512500	-7.579300	29.956805	0.000234	20.858301
2347.640530	-3.002200	2.507900	-7.527800	30.008247	0.000233	20.881727
2348.640692	-2.992700	2.503200	-7.490200	30.038239	0.000235	20.874990
2349.643466	-3.016500	2.494000	-7.522300	30.046918	0.000234	20.888010
